ID,filename,session,trial,visStimLeft,visStimRight,correctKey,leftCorrect,rightCorrect,secondStim,mod2Type,mod2Stim,frequency,rewardAccurate,stimPairLeft,stimPairRight,pCorrectLeft,pCorrectRight,key,reactionTime,choiceLeft,choiceRight,choiceAccurate,reward,chosenPair,otherPair,triplet,surprise,0A belief,1A belief,2A belief,3A belief,0B belief,1B belief,2B belief,3B belief,0C belief,1C belief,2C belief,3C belief,0D belief,1D belief,2D belief,3D belief,beliefPairNorm,beliefOtherPairNorm,beliefPair,beliefOtherPair,lik,corrLik,rewardPE,update2,fitCBCsimpleRW_CBCdriftDiffusionLR_pwBelief_startBelief,fitCBCsimpleRW_CBCdriftDiffusionLR_pwBelief_alpha1,fitCBCsimpleRW_CBCdriftDiffusionLR_pwBelief_nonDecisionTime,fitCBCsimpleRW_CBCdriftDiffusionLR_pwBelief_weight,fitCBCsimpleRW_CBCdriftDiffusionLR_pwBelief_startingBoundary,fitCBCsimpleRW_CBCdriftDiffusionLR_pwBelief_startingPoint,fit_CBCsimpleRW_CBCdriftDiffusionLR_pwBelief_NLL
CBC_1119,CBC_1119_MSI_TV_v3_Vset2_Tset2_2024-05-22_15h38.34.876.csv,1,1,0,1,z,0,1,1,tac,B,63,1,0B,1B,0,1,z,2.01681099999951,0,1,1,1,1B,0B,B01,2.77258872223978,0.5,0.5,0.5,0.5,0.5,0.5,0.5,0.5,0.5,0.5,0.5,0.5,0.5,0.5,0.5,0.5,0.5,0.5,0.5,0.5,0.145146052784235,0.500162894737599,0.5,0.113981532965561,0.5,0.227963065931122,0.553647361200924,2.16496089209093,2.18618377238865,0.5,35.2288388024617
CBC_1119,CBC_1119_MSI_TV_v3_Vset2_Tset2_2024-05-22_15h38.34.876.csv,1,2,1,0,z,0,1,0,tac,A,63,1,1A,0A,0,1,b,1.57099169999856,1,0,0,0,1A,0A,A10,2.83321334405622,0.5,0.5,0.5,0.5,0.5,0.613981532965561,0.5,0.5,0.5,0.5,0.5,0.5,0.5,0.5,0.5,0.5,0.5,0.5,0.5,0.5,0.22970767300751,0.499866619483183,-0.5,-0.113981532965561,0.5,0.227963065931122,0.553647361200924,2.16496089209093,2.18618377238865,0.5,35.2288388024617
CBC_1119,CBC_1119_MSI_TV_v3_Vset2_Tset2_2024-05-22_15h38.34.876.csv,1,3,2,1,b,1,0,2,tac,C,9,1,2C,1C,1,0,z,1.9524423999992,0,1,0,0,1C,2C,C21,2.89037175789616,0.5,0.386018467034439,0.5,0.5,0.5,0.613981532965561,0.5,0.5,0.5,0.5,0.5,0.5,0.5,0.5,0.5,0.5,0.5,0.5,0.5,0.5,0.154902379153107,0.499465661598355,-0.5,-0.113981532965561,0.5,0.227963065931122,0.553647361200924,2.16496089209093,2.18618377238865,0.5,35.2288388024617
CBC_1119,CBC_1119_MSI_TV_v3_Vset2_Tset2_2024-05-22_15h38.34.876.csv,1,4,0,1,b,1,0,0,tac,A,63,1,0A,1A,1,0,b,1.04347849999976,1,0,1,1,0A,1A,A01,2.94443897916644,0.5,0.386018467034439,0.5,0.5,0.5,0.613981532965561,0.5,0.5,0.5,0.386018467034439,0.5,0.5,0.5,0.5,0.5,0.5,0.613981532965561,0.386018467034439,0.5,0.386018467034439,0.606787174275611,0.746206541365342,0.5,0.113981532965561,0.5,0.227963065931122,0.553647361200924,2.16496089209093,2.18618377238865,0.5,35.2288388024617
CBC_1119,CBC_1119_MSI_TV_v3_Vset2_Tset2_2024-05-22_15h38.34.876.csv,1,5,1,3,z,0,1,3,tac,D,27,1,1D,3D,0,1,z,3.44001089999983,0,1,1,1,3D,1D,D13,2.99573227355399,0.613981532965561,0.386018467034439,0.5,0.5,0.5,0.613981532965561,0.5,0.5,0.5,0.386018467034439,0.5,0.5,0.5,0.5,0.5,0.5,0.5,0.5,0.5,0.5,0.0334117056331776,0.500475558812246,0.5,0.113981532965561,0.5,0.227963065931122,0.553647361200924,2.16496089209093,2.18618377238865,0.5,35.2288388024617
CBC_1119,CBC_1119_MSI_TV_v3_Vset2_Tset2_2024-05-22_15h38.34.876.csv,1,6,1,0,b,1,0,1,tac,B,63,1,1B,0B,1,0,z,1.34027149999929,0,1,0,0,0B,1B,B10,3.04452243772342,0.613981532965561,0.386018467034439,0.5,0.5,0.5,0.613981532965561,0.5,0.5,0.5,0.386018467034439,0.5,0.5,0.5,0.5,0.5,0.613981532965561,0.386018467034439,0.613981532965561,0.5,0.613981532965561,0.153835707380974,0.253627332086719,-0.5,-0.113981532965561,0.5,0.227963065931122,0.553647361200924,2.16496089209093,2.18618377238865,0.5,35.2288388024617
CBC_1119,CBC_1119_MSI_TV_v3_Vset2_Tset2_2024-05-22_15h38.34.876.csv,1,7,3,2,z,0,1,2,tac,C,63,1,3C,2C,0,1,z,1.42232739999963,0,1,1,1,2C,3C,C32,3.09104245335832,0.613981532965561,0.386018467034439,0.5,0.5,0.386018467034439,0.613981532965561,0.5,0.5,0.5,0.386018467034439,0.5,0.5,0.5,0.5,0.5,0.613981532965561,0.5,0.5,0.5,0.5,0.267178902900883,0.499486024438569,0.5,0.113981532965561,0.5,0.227963065931122,0.553647361200924,2.16496089209093,2.18618377238865,0.5,35.2288388024617
CBC_1119,CBC_1119_MSI_TV_v3_Vset2_Tset2_2024-05-22_15h38.34.876.csv,1,8,0,2,b,1,0,0,tac,A,27,1,0A,2A,1,0,b,1.36044690000017,1,0,1,1,0A,2A,A02,3.13549421592915,0.613981532965561,0.386018467034439,0.5,0.5,0.386018467034439,0.613981532965561,0.5,0.5,0.5,0.386018467034439,0.613981532965561,0.5,0.5,0.5,0.5,0.613981532965561,0.613981532965561,0.386018467034439,0.613981532965561,0.5,0.442280866119322,0.74595234399488,0.386018467034439,0.0879979532512025,0.5,0.227963065931122,0.553647361200924,2.16496089209093,2.18618377238865,0.5,35.2288388024617
CBC_1119,CBC_1119_MSI_TV_v3_Vset2_Tset2_2024-05-22_15h38.34.876.csv,1,9,2,3,z,0,1,3,tac,D,63,1,2D,3D,0,1,z,1.18934339999942,0,1,1,1,3D,2D,D23,3.17805383034795,0.701979486216764,0.386018467034439,0.5,0.5,0.386018467034439,0.613981532965561,0.5,0.5,0.5,0.386018467034439,0.613981532965561,0.5,0.5,0.5,0.5,0.613981532965561,0.613981532965561,0.386018467034439,0.613981532965561,0.5,0.533447299998704,0.747013277397817,0.386018467034439,0.0879979532512025,0.5,0.227963065931122,0.553647361200924,2.16496089209093,2.18618377238865,0.5,35.2288388024617
CBC_1119,CBC_1119_MSI_TV_v3_Vset2_Tset2_2024-05-22_15h38.34.876.csv,1,10,1,3,b,1,0,1,tac,B,27,1,1B,3B,1,0,b,1.14059289999932,1,0,1,1,1B,3B,B13,3.2188758248682,0.701979486216764,0.386018467034439,0.5,0.5,0.386018467034439,0.613981532965561,0.5,0.5,0.5,0.386018467034439,0.613981532965561,0.5,0.5,0.5,0.5,0.701979486216764,0.613981532965561,0.386018467034439,0.613981532965561,0.5,0.559259412720933,0.746442342097119,0.386018467034439,0.0879979532512025,0.5,0.227963065931122,0.553647361200924,2.16496089209093,2.18618377238865,0.5,35.2288388024617
CBC_1119,CBC_1119_MSI_TV_v3_Vset2_Tset2_2024-05-22_15h38.34.876.csv,1,11,2,3,b,1,0,2,tac,C,63,0,2C,3C,0,1,b,1.38881419999962,1,0,1,0,2C,3C,C23,3.25809653802148,0.701979486216764,0.386018467034439,0.5,0.5,0.386018467034439,0.701979486216764,0.5,0.5,0.5,0.386018467034439,0.613981532965561,0.5,0.5,0.5,0.5,0.701979486216764,0.613981532965561,0.386018467034439,0.613981532965561,0.5,0.429094940332222,0.746963794669317,-0.613981532965561,-0.13996511267992,0.5,0.227963065931122,0.553647361200924,2.16496089209093,2.18618377238865,0.5,35.2288388024617
CBC_1119,CBC_1119_MSI_TV_v3_Vset2_Tset2_2024-05-22_15h38.34.876.csv,1,12,3,1,z,0,1,1,tac,B,27,1,3B,1B,0,1,z,0.838334099998974,0,1,1,1,1B,3B,B31,3.29583686600433,0.701979486216764,0.386018467034439,0.5,0.5,0.386018467034439,0.701979486216764,0.5,0.5,0.5,0.386018467034439,0.474016420285641,0.5,0.5,0.5,0.5,0.701979486216764,0.701979486216764,0.298020513783236,0.701979486216764,0.5,0.820769771149719,0.871034180971729,0.298020513783236,0.0679376700323948,0.5,0.227963065931122,0.553647361200924,2.16496089209093,2.18618377238865,0.5,35.2288388024617
CBC_1119,CBC_1119_MSI_TV_v3_Vset2_Tset2_2024-05-22_15h38.34.876.csv,1,13,2,3,b,1,0,2,tac,C,63,1,2C,3C,1,0,b,1.12604049999936,1,0,1,1,2C,3C,C23,2.63905732961526,0.701979486216764,0.386018467034439,0.5,0.5,0.386018467034439,0.769917156249158,0.5,0.5,0.5,0.386018467034439,0.474016420285641,0.5,0.5,0.5,0.5,0.701979486216764,0.474016420285641,0.525983579714359,0.474016420285641,0.5,0.312418869023413,0.439128863303241,0.525983579714359,0.119904829461112,0.5,0.227963065931122,0.553647361200924,2.16496089209093,2.18618377238865,0.5,35.2288388024617
CBC_1119,CBC_1119_MSI_TV_v3_Vset2_Tset2_2024-05-22_15h38.34.876.csv,1,14,2,3,z,0,1,3,tac,D,63,1,2D,3D,0,1,z,0.78442769999856,0,1,1,1,3D,2D,D23,2.67414864942653,0.701979486216764,0.386018467034439,0.5,0.5,0.386018467034439,0.769917156249158,0.5,0.5,0.5,0.386018467034439,0.593921249746753,0.5,0.5,0.5,0.5,0.701979486216764,0.701979486216764,0.298020513783236,0.701979486216764,0.5,0.703816831872498,0.871308595828145,0.298020513783236,0.0679376700323948,0.5,0.227963065931122,0.553647361200924,2.16496089209093,2.18618377238865,0.5,35.2288388024617
CBC_1119,CBC_1119_MSI_TV_v3_Vset2_Tset2_2024-05-22_15h38.34.876.csv,1,15,3,0,z,0,1,0,tac,A,9,1,3A,0A,0,1,z,0.852047599999423,0,1,1,1,0A,3A,A30,3.40119738166216,0.701979486216764,0.386018467034439,0.5,0.5,0.386018467034439,0.769917156249158,0.5,0.5,0.5,0.386018467034439,0.593921249746753,0.5,0.5,0.5,0.5,0.769917156249158,0.701979486216764,0.298020513783236,0.701979486216764,0.5,0.838711323753092,0.871324922418732,0.298020513783236,0.0679376700323948,0.5,0.227963065931122,0.553647361200924,2.16496089209093,2.18618377238865,0.5,35.2288388024617
CBC_1119,CBC_1119_MSI_TV_v3_Vset2_Tset2_2024-05-22_15h38.34.876.csv,1,16,1,0,b,1,0,1,tac,B,63,0,1B,0B,0,1,b,1.93534979999822,1,0,1,0,1B,0B,B10,2.7408400239252,0.769917156249158,0.386018467034439,0.5,0.5,0.386018467034439,0.769917156249158,0.5,0.5,0.5,0.386018467034439,0.593921249746753,0.5,0.5,0.5,0.5,0.769917156249158,0.841832055400483,0.158167944599517,0.769917156249158,0.386018467034439,0.174954723159557,0.962276972538211,-0.769917156249158,-0.175512675451529,0.5,0.227963065931122,0.553647361200924,2.16496089209093,2.18618377238865,0.5,35.2288388024617
CBC_1119,CBC_1119_MSI_TV_v3_Vset2_Tset2_2024-05-22_15h38.34.876.csv,1,17,3,2,b,1,0,3,tac,D,63,1,3D,2D,1,0,b,0.95175079999899,1,0,1,1,3D,2D,D32,3.46573590279973,0.769917156249158,0.386018467034439,0.5,0.5,0.386018467034439,0.594404480797629,0.5,0.5,0.5,0.386018467034439,0.593921249746753,0.5,0.5,0.5,0.5,0.769917156249158,0.769917156249158,0.230082843750842,0.769917156249158,0.5,1.05860303595561,0.927998928873186,0.230082843750842,0.0524503904795932,0.5,0.227963065931122,0.553647361200924,2.16496089209093,2.18618377238865,0.5,35.2288388024617
CBC_1119,CBC_1119_MSI_TV_v3_Vset2_Tset2_2024-05-22_15h38.34.876.csv,1,18,2,0,b,1,0,2,tac,C,27,1,2C,0C,1,0,b,2.00877709999986,1,0,1,1,2C,0C,C20,3.49650756146648,0.769917156249158,0.386018467034439,0.5,0.5,0.386018467034439,0.594404480797629,0.5,0.5,0.5,0.386018467034439,0.593921249746753,0.5,0.5,0.5,0.5,0.822367546728752,0.593921249746753,0.406078750253247,0.593921249746753,0.5,0.202272931800536,0.708431170504402,0.406078750253247,0.0925709569172086,0.5,0.227963065931122,0.553647361200924,2.16496089209093,2.18618377238865,0.5,35.2288388024617
CBC_1119,CBC_1119_MSI_TV_v3_Vset2_Tset2_2024-05-22_15h38.34.876.csv,1,19,1,0,z,0,1,0,tac,A,63,1,1A,0A,0,1,z,1.4097970999992,0,1,1,1,0A,1A,A10,2.83321334405622,0.769917156249158,0.386018467034439,0.5,0.5,0.386018467034439,0.594404480797629,0.5,0.5,0.5,0.386018467034439,0.686492206663962,0.5,0.5,0.5,0.5,0.822367546728752,0.841832055400483,0.158167944599517,0.769917156249158,0.386018467034439,0.534735294945918,0.962142477498329,0.230082843750842,0.0524503904795932,0.5,0.227963065931122,0.553647361200924,2.16496089209093,2.18618377238865,0.5,35.2288388024617
CBC_1119,CBC_1119_MSI_TV_v3_Vset2_Tset2_2024-05-22_15h38.34.876.csv,1,20,0,1,z,0,1,1,tac,B,63,1,0B,1B,0,1,z,1.70782900000086,0,1,1,1,1B,0B,B01,2.86220088092947,0.822367546728752,0.386018467034439,0.5,0.5,0.386018467034439,0.594404480797629,0.5,0.5,0.5,0.386018467034439,0.686492206663962,0.5,0.5,0.5,0.5,0.822367546728752,0.699786892280548,0.300213107719452,0.594404480797629,0.386018467034439,0.333677925694363,0.869413463123823,0.405595519202371,0.0924607980852978,0.5,0.227963065931122,0.553647361200924,2.16496089209093,2.18618377238865,0.5,35.2288388024617
CBC_1119,CBC_1119_MSI_TV_v3_Vset2_Tset2_2024-05-22_15h38.34.876.csv,1,21,3,1,b,1,0,3,tac,D,27,1,3D,1D,1,0,b,1.10194950000005,1,0,1,1,3D,1D,D31,3.58351893845611,0.822367546728752,0.386018467034439,0.5,0.5,0.386018467034439,0.686865278882927,0.5,0.5,0.5,0.386018467034439,0.686492206663962,0.5,0.5,0.5,0.5,0.822367546728752,0.822367546728752,0.177632453271248,0.822367546728752,0.5,0.973091406065134,0.954765474625745,0.177632453271248,0.0404936386565806,0.5,0.227963065931122,0.553647361200924,2.16496089209093,2.18618377238865,0.5,35.2288388024617
CBC_1119,CBC_1119_MSI_TV_v3_Vset2_Tset2_2024-05-22_15h38.34.876.csv,1,22,2,3,b,1,0,2,tac,C,63,1,2C,3C,1,0,b,1.07705489999898,1,0,1,1,2C,3C,C23,2.51230562397611,0.822367546728752,0.386018467034439,0.5,0.5,0.386018467034439,0.686865278882927,0.5,0.5,0.5,0.386018467034439,0.686492206663962,0.5,0.5,0.5,0.5,0.862861185385332,0.686492206663962,0.313507793336038,0.686492206663962,0.5,0.749482262760115,0.853949370883468,0.313507793336038,0.0714681977621839,0.5,0.227963065931122,0.553647361200924,2.16496089209093,2.18618377238865,0.5,35.2288388024617
CBC_1119,CBC_1119_MSI_TV_v3_Vset2_Tset2_2024-05-22_15h38.34.876.csv,1,23,1,0,z,0,1,0,tac,A,63,1,1A,0A,0,1,z,1.67566739999893,0,1,1,1,0A,1A,A10,2.53897387105828,0.822367546728752,0.386018467034439,0.5,0.5,0.386018467034439,0.686865278882927,0.5,0.5,0.5,0.386018467034439,0.757960404426146,0.5,0.5,0.5,0.5,0.862861185385332,0.880434429413796,0.119565570586204,0.822367546728752,0.386018467034439,0.272606286790232,0.973410495622541,0.177632453271248,0.0404936386565806,0.5,0.227963065931122,0.553647361200924,2.16496089209093,2.18618377238865,0.5,35.2288388024617
CBC_1119,CBC_1119_MSI_TV_v3_Vset2_Tset2_2024-05-22_15h38.34.876.csv,1,24,3,2,b,1,0,3,tac,D,63,1,3D,2D,1,0,b,0.880669000000125,1,0,1,1,3D,2D,D32,2.9704144655697,0.862861185385332,0.386018467034439,0.5,0.5,0.386018467034439,0.686865278882927,0.5,0.5,0.5,0.386018467034439,0.757960404426146,0.5,0.5,0.5,0.5,0.862861185385332,0.862861185385332,0.137138814614668,0.862861185385332,0.5,1.39563039314272,0.968748588473158,0.137138814614668,0.0312625846377194,0.5,0.227963065931122,0.553647361200924,2.16496089209093,2.18618377238865,0.5,35.2288388024617
CBC_1119,CBC_1119_MSI_TV_v3_Vset2_Tset2_2024-05-22_15h38.34.876.csv,1,25,0,2,z,0,1,2,tac,C,27,1,0C,2C,0,1,z,2.54975029999878,0,1,1,1,2C,0C,C02,3.68887945411394,0.862861185385332,0.386018467034439,0.5,0.5,0.386018467034439,0.686865278882927,0.5,0.5,0.5,0.386018467034439,0.757960404426146,0.5,0.5,0.5,0.5,0.894123770023052,0.757960404426146,0.242039595573854,0.757960404426146,0.5,0.0817995037868898,0.919775934152617,0.242039595573854,0.0551760882837447,0.5,0.227963065931122,0.553647361200924,2.16496089209093,2.18618377238865,0.5,35.2288388024617
CBC_1119,CBC_1119_MSI_TV_v3_Vset2_Tset2_2024-05-22_15h38.34.876.csv,1,26,1,0,z,0,1,0,tac,A,63,1,1A,0A,0,1,z,0.822788100000253,0,1,1,1,0A,1A,A10,2.32727770558442,0.862861185385332,0.386018467034439,0.5,0.5,0.386018467034439,0.686865278882927,0.5,0.5,0.5,0.386018467034439,0.813136492709891,0.5,0.5,0.5,0.5,0.894123770023052,0.909153263094697,0.0908467369053027,0.862861185385332,0.386018467034439,1.54159381906138,0.97959672361445,0.137138814614668,0.0312625846377194,0.5,0.227963065931122,0.553647361200924,2.16496089209093,2.18618377238865,0.5,35.2288388024617
CBC_1119,CBC_1119_MSI_TV_v3_Vset2_Tset2_2024-05-22_15h38.34.876.csv,1,27,3,1,z,0,1,1,tac,B,27,1,3B,1B,0,1,z,1.02938419999919,0,1,1,1,1B,3B,B31,3.04452243772342,0.894123770023052,0.386018467034439,0.5,0.5,0.386018467034439,0.686865278882927,0.5,0.5,0.5,0.386018467034439,0.813136492709891,0.5,0.5,0.5,0.5,0.894123770023052,0.686865278882927,0.313134721117073,0.686865278882927,0.5,0.784844078171364,0.854520666715731,0.313134721117073,0.0713831510753349,0.5,0.227963065931122,0.553647361200924,2.16496089209093,2.18618377238865,0.5,35.2288388024617
CBC_1119,CBC_1119_MSI_TV_v3_Vset2_Tset2_2024-05-22_15h38.34.876.csv,1,28,2,3,b,1,0,2,tac,C,63,1,2C,3C,1,0,b,1.39032989999941,1,0,1,1,2C,3C,C23,2.37490575457367,0.894123770023052,0.386018467034439,0.5,0.5,0.386018467034439,0.758248429958262,0.5,0.5,0.5,0.386018467034439,0.813136492709891,0.5,0.5,0.5,0.5,0.894123770023052,0.813136492709891,0.186863507290109,0.813136492709891,0.5,0.563610136783507,0.950790386049076,0.186863507290109,0.042597978032496,0.5,0.227963065931122,0.553647361200924,2.16496089209093,2.18618377238865,0.5,35.2288388024617
CBC_1119,CBC_1119_MSI_TV_v3_Vset2_Tset2_2024-05-22_15h38.34.876.csv,1,29,2,3,z,0,1,3,tac,D,63,0,2D,3D,1,0,z,0.650078299999223,0,1,1,0,3D,2D,D23,2.68557734525015,0.894123770023052,0.386018467034439,0.5,0.5,0.386018467034439,0.758248429958262,0.5,0.5,0.5,0.386018467034439,0.855734470742387,0.5,0.5,0.5,0.5,0.894123770023052,0.894123770023052,0.105876229976948,0.894123770023052,0.5,0.166841608659422,0.976652550087626,-0.894123770023052,-0.203827195936349,0.5,0.227963065931122,0.553647361200924,2.16496089209093,2.18618377238865,0.5,35.2288388024617
CBC_1119,CBC_1119_MSI_TV_v3_Vset2_Tset2_2024-05-22_15h38.34.876.csv,1,30,1,0,b,1,0,1,tac,B,63,1,1B,0B,1,0,b,1.56207709999944,1,0,1,1,1B,0B,B10,2.70805020110221,0.894123770023052,0.386018467034439,0.5,0.5,0.386018467034439,0.758248429958262,0.5,0.5,0.5,0.386018467034439,0.855734470742387,0.5,0.5,0.5,0.5,0.690296574086703,0.833019510536025,0.166980489463975,0.758248429958262,0.386018467034439,0.392784734315488,0.959185714309284,0.241751570041738,0.055110429100377,0.5,0.227963065931122,0.553647361200924,2.16496089209093,2.18618377238865,0.5,35.2288388024617
CBC_1119,CBC_1119_MSI_TV_v3_Vset2_Tset2_2024-05-22_15h38.34.876.csv,1,31,0,2,b,1,0,0,tac,A,27,1,0A,2A,1,0,b,1.55793159999848,1,0,1,1,0A,2A,A02,3.13549421592915,0.894123770023052,0.386018467034439,0.5,0.5,0.386018467034439,0.813358859058639,0.5,0.5,0.5,0.386018467034439,0.855734470742387,0.5,0.5,0.5,0.5,0.690296574086703,0.894123770023052,0.105876229976948,0.894123770023052,0.5,0.348648024094579,0.976543235802119,0.105876229976948,0.0241358699947737,0.5,0.227963065931122,0.553647361200924,2.16496089209093,2.18618377238865,0.5,35.2288388024617
CBC_1119,CBC_1119_MSI_TV_v3_Vset2_Tset2_2024-05-22_15h38.34.876.csv,1,32,0,3,z,0,1,3,tac,D,9,1,0D,3D,0,1,z,0.925179300000309,0,1,1,1,3D,0D,D03,3.85014760171006,0.918259640017825,0.386018467034439,0.5,0.5,0.386018467034439,0.813358859058639,0.5,0.5,0.5,0.386018467034439,0.855734470742387,0.5,0.5,0.5,0.5,0.690296574086703,0.690296574086703,0.309703425913297,0.690296574086703,0.5,0.837399955078004,0.858567314575595,0.309703425913297,0.0706009425005673,0.5,0.227963065931122,0.553647361200924,2.16496089209093,2.18618377238865,0.5,35.2288388024617
CBC_1119,CBC_1119_MSI_TV_v3_Vset2_Tset2_2024-05-22_15h38.34.876.csv,1,33,2,3,b,1,0,2,tac,C,63,1,2C,3C,1,0,b,1.08596129999933,1,0,1,1,2C,3C,C23,2.26176309847379,0.918259640017825,0.386018467034439,0.5,0.5,0.386018467034439,0.813358859058639,0.5,0.5,0.5,0.386018467034439,0.855734470742387,0.5,0.5,0.5,0.5,0.76089751658727,0.855734470742387,0.144265529257613,0.855734470742387,0.5,1.04650256618588,0.966687090079561,0.144265529257613,0.0328872123577416,0.5,0.227963065931122,0.553647361200924,2.16496089209093,2.18618377238865,0.5,35.2288388024617
CBC_1119,CBC_1119_MSI_TV_v3_Vset2_Tset2_2024-05-22_15h38.34.876.csv,1,34,1,0,b,1,0,1,tac,B,63,1,1B,0B,1,0,b,1.32061299999987,1,0,1,1,1B,0B,B10,2.50552593699074,0.918259640017825,0.386018467034439,0.5,0.5,0.386018467034439,0.813358859058639,0.5,0.5,0.5,0.386018467034439,0.888621683100128,0.5,0.5,0.5,0.5,0.76089751658727,0.873919129655183,0.126080870344817,0.813358859058639,0.386018467034439,0.636244772837697,0.971747273071218,0.186641140941361,0.0425472867178754,0.5,0.227963065931122,0.553647361200924,2.16496089209093,2.18618377238865,0.5,35.2288388024617
CBC_1119,CBC_1119_MSI_TV_v3_Vset2_Tset2_2024-05-22_15h38.34.876.csv,1,35,1,0,z,0,1,0,tac,A,63,0,1A,0A,1,0,z,1.01562299999932,0,1,1,0,0A,1A,A10,2.30258509299405,0.918259640017825,0.386018467034439,0.5,0.5,0.386018467034439,0.855906145776514,0.5,0.5,0.5,0.386018467034439,0.888621683100128,0.5,0.5,0.5,0.5,0.76089751658727,0.947000239001835,0.0529997609981654,0.918259640017825,0.386018467034439,1.33035850615841,0.985666579789812,-0.918259640017825,-0.209329282859272,0.5,0.227963065931122,0.553647361200924,2.16496089209093,2.18618377238865,0.5,35.2288388024617
CBC_1119,CBC_1119_MSI_TV_v3_Vset2_Tset2_2024-05-22_15h38.34.876.csv,1,36,3,2,b,1,0,3,tac,D,63,1,3D,2D,1,0,b,0.941173100000015,1,0,1,1,3D,2D,D32,2.83321334405622,0.708930357158553,0.386018467034439,0.5,0.5,0.386018467034439,0.855906145776514,0.5,0.5,0.5,0.386018467034439,0.888621683100128,0.5,0.5,0.5,0.5,0.76089751658727,0.76089751658727,0.23910248341273,0.76089751658727,0.5,1.03851733126133,0.92195262415236,0.23910248341273,0.0545065351905111,0.5,0.227963065931122,0.553647361200924,2.16496089209093,2.18618377238865,0.5,35.2288388024617
CBC_1119,CBC_1119_MSI_TV_v3_Vset2_Tset2_2024-05-22_15h38.34.876.csv,1,37,2,1,z,0,1,1,tac,B,9,1,2B,1B,0,1,b,1.8658220999987,1,0,0,0,2B,1B,B21,3.95124371858143,0.708930357158553,0.386018467034439,0.5,0.5,0.386018467034439,0.855906145776514,0.5,0.5,0.5,0.386018467034439,0.888621683100128,0.5,0.5,0.5,0.5,0.815404051777782,0.144093854223486,0.855906145776514,0.5,0.855906145776514,0.00661018292292163,0.0332315974623282,-0.5,-0.113981532965561,0.5,0.227963065931122,0.553647361200924,2.16496089209093,2.18618377238865,0.5,35.2288388024617
CBC_1119,CBC_1119_MSI_TV_v3_Vset2_Tset2_2024-05-22_15h38.34.876.csv,1,38,0,2,b,1,0,0,tac,A,27,1,0A,2A,1,0,b,1.18232530000023,1,0,1,1,0A,2A,A02,2.87167962488401,0.708930357158553,0.386018467034439,0.5,0.5,0.386018467034439,0.855906145776514,0.386018467034439,0.5,0.5,0.386018467034439,0.888621683100128,0.5,0.5,0.5,0.5,0.815404051777782,0.708930357158553,0.291069642841447,0.708930357158553,0.5,0.701597511910819,0.878217411512546,0.291069642841447,0.0663531281816129,0.5,0.227963065931122,0.553647361200924,2.16496089209093,2.18618377238865,0.5,35.2288388024617
CBC_1119,CBC_1119_MSI_TV_v3_Vset2_Tset2_2024-05-22_15h38.34.876.csv,1,39,3,2,z,0,1,2,tac,C,63,1,3C,2C,0,1,z,1.2909725999998,0,1,1,1,2C,3C,C32,3.29583686600433,0.775283485340166,0.386018467034439,0.5,0.5,0.386018467034439,0.855906145776514,0.386018467034439,0.5,0.5,0.386018467034439,0.888621683100128,0.5,0.5,0.5,0.5,0.815404051777782,0.888621683100128,0.111378316899872,0.888621683100128,0.5,0.675523038010751,0.975384641485844,0.111378316899872,0.0253901425987429,0.5,0.227963065931122,0.553647361200924,2.16496089209093,2.18618377238865,0.5,35.2288388024617
CBC_1119,CBC_1119_MSI_TV_v3_Vset2_Tset2_2024-05-22_15h38.34.876.csv,1,40,3,1,b,1,0,3,tac,D,27,1,3D,1D,1,0,b,0.942696600001,1,0,1,1,3D,1D,D31,3.31418600467253,0.775283485340166,0.386018467034439,0.5,0.5,0.386018467034439,0.855906145776514,0.386018467034439,0.5,0.5,0.386018467034439,0.914011825698871,0.5,0.5,0.5,0.5,0.815404051777782,0.815404051777782,0.184595948222218,0.815404051777782,0.5,1.19859703380359,0.952029651610672,0.184595948222218,0.0420810583151996,0.5,0.227963065931122,0.553647361200924,2.16496089209093,2.18618377238865,0.5,35.2288388024617
CBC_1119,CBC_1119_MSI_TV_v3_Vset2_Tset2_2024-05-22_15h38.34.876.csv,1,41,1,0,z,0,1,0,tac,A,63,1,1A,0A,0,1,z,1.82852339999954,0,1,1,1,0A,1A,A10,2.23359222150709,0.775283485340166,0.386018467034439,0.5,0.5,0.386018467034439,0.855906145776514,0.386018467034439,0.5,0.5,0.386018467034439,0.914011825698871,0.5,0.5,0.5,0.5,0.857485110092981,0.84585688867177,0.15414311132823,0.775283485340166,0.386018467034439,0.216658586930703,0.963602506501416,0.224716514659834,0.0512270656472117,0.5,0.227963065931122,0.553647361200924,2.16496089209093,2.18618377238865,0.5,35.2288388024617
CBC_1119,CBC_1119_MSI_TV_v3_Vset2_Tset2_2024-05-22_15h38.34.876.csv,1,42,2,0,b,1,0,2,tac,C,27,1,2C,0C,1,0,b,1.55019709999942,1,0,1,1,2C,0C,C20,3.3499040872746,0.826510550987378,0.386018467034439,0.5,0.5,0.386018467034439,0.855906145776514,0.386018467034439,0.5,0.5,0.386018467034439,0.914011825698871,0.5,0.5,0.5,0.5,0.857485110092981,0.914011825698871,0.0859881743011289,0.914011825698871,0.5,0.33615682681548,0.980473873855149,0.0859881743011289,0.0196021278475051,0.5,0.227963065931122,0.553647361200924,2.16496089209093,2.18618377238865,0.5,35.2288388024617
CBC_1119,CBC_1119_MSI_TV_v3_Vset2_Tset2_2024-05-22_15h38.34.876.csv,1,43,2,3,z,0,1,3,tac,D,63,1,2D,3D,0,1,z,0.961992599999576,0,1,1,1,3D,2D,D23,2.67414864942653,0.826510550987378,0.386018467034439,0.5,0.5,0.386018467034439,0.855906145776514,0.386018467034439,0.5,0.5,0.386018467034439,0.933613953546376,0.5,0.5,0.5,0.5,0.857485110092981,0.857485110092981,0.142514889907019,0.857485110092981,0.5,1.28789510346797,0.967160982813044,0.142514889907019,0.0324881312440403,0.5,0.227963065931122,0.553647361200924,2.16496089209093,2.18618377238865,0.5,35.2288388024617
CBC_1119,CBC_1119_MSI_TV_v3_Vset2_Tset2_2024-05-22_15h38.34.876.csv,1,44,0,1,z,0,1,1,tac,B,63,1,0B,1B,0,1,z,1.27339669999856,0,1,1,1,1B,0B,B01,2.97892515523761,0.826510550987378,0.386018467034439,0.5,0.5,0.386018467034439,0.855906145776514,0.386018467034439,0.5,0.5,0.386018467034439,0.933613953546376,0.5,0.5,0.5,0.5,0.889973241337022,0.904285516303695,0.0957144836963048,0.855906145776514,0.386018467034439,0.697648394718077,0.978722404930762,0.144093854223486,0.032848076790618,0.5,0.227963065931122,0.553647361200924,2.16496089209093,2.18618377238865,0.5,35.2288388024617
CBC_1119,CBC_1119_MSI_AV_v3_Vset3_Aset1_2024-05-22_16h30.20.038.csv,2,1,1,0,b,1,0,1,aud,B,63,1,1B,0B,1,0,b,1.76670760000161,1,0,1,1,1B,0B,B10,2.77258872223978,0.5,0.5,0.5,0.5,0.5,0.5,0.5,0.5,0.5,0.5,0.5,0.5,0.5,0.5,0.5,0.5,0.5,0.5,0.5,0.5,0.191160025386753,0.500159759606242,0.5,0.0160997639472429,0.5,0.0321995278944858,0.572691268275921,5.6291354271857,2.17524821743079,0.5,53.7711816309497
CBC_1119,CBC_1119_MSI_AV_v3_Vset3_Aset1_2024-05-22_16h30.20.038.csv,2,2,1,0,z,0,1,0,aud,A,63,1,1A,0A,0,1,b,2.06238580000172,1,0,0,0,1A,0A,A10,2.83321334405622,0.5,0.5,0.5,0.5,0.5,0.516099763947243,0.5,0.5,0.5,0.5,0.5,0.5,0.5,0.5,0.5,0.5,0.5,0.5,0.5,0.5,0.140069052570857,0.498793898010203,-0.5,-0.0160997639472429,0.5,0.0321995278944858,0.572691268275921,5.6291354271857,2.17524821743079,0.5,53.7711816309497
CBC_1119,CBC_1119_MSI_AV_v3_Vset3_Aset1_2024-05-22_16h30.20.038.csv,2,3,3,2,b,1,0,3,aud,D,63,1,3D,2D,1,0,b,1.25744720000148,1,0,1,1,3D,2D,D32,2.89037175789616,0.5,0.483900236052757,0.5,0.5,0.5,0.516099763947243,0.5,0.5,0.5,0.5,0.5,0.5,0.5,0.5,0.5,0.5,0.5,0.5,0.5,0.5,0.321470891408526,0.499405484772872,0.5,0.0160997639472429,0.5,0.0321995278944858,0.572691268275921,5.6291354271857,2.17524821743079,0.5,53.7711816309497
CBC_1119,CBC_1119_MSI_AV_v3_Vset3_Aset1_2024-05-22_16h30.20.038.csv,2,4,1,2,b,1,0,1,aud,B,9,1,1B,2B,1,0,z,4.05556740000065,0,1,0,0,2B,1B,B12,2.94443897916644,0.5,0.483900236052757,0.5,0.5,0.5,0.516099763947243,0.5,0.5,0.5,0.5,0.5,0.5,0.5,0.5,0.5,0.516099763947243,0.483900236052757,0.516099763947243,0.5,0.516099763947243,0.0136329641330324,0.402996650135273,-0.5,-0.0160997639472429,0.5,0.0321995278944858,0.572691268275921,5.6291354271857,2.17524821743079,0.5,53.7711816309497
CBC_1119,CBC_1119_MSI_AV_v3_Vset3_Aset1_2024-05-22_16h30.20.038.csv,2,5,2,0,z,0,1,0,aud,A,27,1,2A,0A,0,1,b,1.90795430000253,1,0,0,0,2A,0A,A20,2.99573227355399,0.5,0.483900236052757,0.5,0.5,0.5,0.516099763947243,0.483900236052757,0.5,0.5,0.5,0.5,0.5,0.5,0.5,0.5,0.516099763947243,0.5,0.5,0.5,0.5,0.16497006185324,0.500092023618345,-0.5,-0.0160997639472429,0.5,0.0321995278944858,0.572691268275921,5.6291354271857,2.17524821743079,0.5,53.7711816309497
CBC_1119,CBC_1119_MSI_AV_v3_Vset3_Aset1_2024-05-22_16h30.20.038.csv,2,6,3,2,z,0,1,2,aud,C,63,1,3C,2C,0,1,b,1.83604620000187,1,0,0,0,3C,2C,C32,3.04452243772342,0.5,0.483900236052757,0.483900236052757,0.5,0.5,0.516099763947243,0.483900236052757,0.5,0.5,0.5,0.5,0.5,0.5,0.5,0.5,0.516099763947243,0.5,0.5,0.5,0.5,0.17757184976733,0.499418625652708,-0.5,-0.0160997639472429,0.5,0.0321995278944858,0.572691268275921,5.6291354271857,2.17524821743079,0.5,53.7711816309497
CBC_1119,CBC_1119_MSI_AV_v3_Vset3_Aset1_2024-05-22_16h30.20.038.csv,2,7,3,1,b,1,0,3,aud,D,27,1,3D,1D,1,0,b,1.47743270000137,1,0,1,1,3D,1D,D31,3.09104245335832,0.5,0.483900236052757,0.483900236052757,0.5,0.5,0.516099763947243,0.483900236052757,0.5,0.5,0.5,0.5,0.483900236052757,0.5,0.5,0.5,0.516099763947243,0.516099763947243,0.483900236052757,0.516099763947243,0.5,0.309282859076718,0.596710119905082,0.483900236052757,0.015581359148929,0.5,0.0321995278944858,0.572691268275921,5.6291354271857,2.17524821743079,0.5,53.7711816309497
CBC_1119,CBC_1119_MSI_AV_v3_Vset3_Aset1_2024-05-22_16h30.20.038.csv,2,8,0,1,b,1,0,0,aud,A,63,1,0A,1A,1,0,z,1.7166124000014,0,1,0,0,1A,0A,A01,3.13549421592915,0.5,0.483900236052757,0.483900236052757,0.5,0.5,0.516099763947243,0.483900236052757,0.5,0.5,0.5,0.5,0.483900236052757,0.5,0.5,0.5,0.531681123096172,0.483900236052757,0.516099763947243,0.483900236052757,0.5,0.162261873302172,0.402759907019318,-0.483900236052757,-0.015581359148929,0.5,0.0321995278944858,0.572691268275921,5.6291354271857,2.17524821743079,0.5,53.7711816309497
CBC_1119,CBC_1119_MSI_AV_v3_Vset3_Aset1_2024-05-22_16h30.20.038.csv,2,9,0,2,z,0,1,2,aud,C,27,1,0C,2C,0,1,z,1.00548350000281,0,1,1,1,2C,0C,C02,3.17805383034795,0.5,0.468318876903828,0.483900236052757,0.5,0.5,0.516099763947243,0.483900236052757,0.5,0.5,0.5,0.5,0.483900236052757,0.5,0.5,0.5,0.531681123096172,0.5,0.5,0.5,0.5,0.389032983608271,0.500640378157899,0.5,0.0160997639472429,0.5,0.0321995278944858,0.572691268275921,5.6291354271857,2.17524821743079,0.5,53.7711816309497
CBC_1119,CBC_1119_MSI_AV_v3_Vset3_Aset1_2024-05-22_16h30.20.038.csv,2,10,3,2,b,1,0,3,aud,D,63,1,3D,2D,1,0,b,1.65625000000182,1,0,1,1,3D,2D,D32,2.52572864430826,0.5,0.468318876903828,0.483900236052757,0.5,0.5,0.516099763947243,0.483900236052757,0.5,0.5,0.5,0.516099763947243,0.483900236052757,0.5,0.5,0.5,0.531681123096172,0.531681123096172,0.468318876903828,0.531681123096172,0.5,0.294837846318817,0.684548567817095,0.468318876903828,0.0150796467403791,0.5,0.0321995278944858,0.572691268275921,5.6291354271857,2.17524821743079,0.5,53.7711816309497
CBC_1119,CBC_1119_MSI_AV_v3_Vset3_Aset1_2024-05-22_16h30.20.038.csv,2,11,0,1,z,0,1,1,aud,B,63,0,0B,1B,1,0,b,2.10524650000116,1,0,0,1,0B,1B,B01,3.25809653802148,0.5,0.468318876903828,0.483900236052757,0.5,0.5,0.516099763947243,0.483900236052757,0.5,0.5,0.5,0.516099763947243,0.483900236052757,0.5,0.5,0.5,0.546760769836551,0.483900236052757,0.516099763947243,0.5,0.516099763947243,0.107579952910359,0.402953900525612,0.5,0.0160997639472429,0.5,0.0321995278944858,0.572691268275921,5.6291354271857,2.17524821743079,0.5,53.7711816309497
CBC_1119,CBC_1119_MSI_AV_v3_Vset3_Aset1_2024-05-22_16h30.20.038.csv,2,12,1,0,z,0,1,0,aud,A,63,1,1A,0A,0,1,b,2.06125150000116,1,0,0,0,1A,0A,A10,2.60268968544438,0.5,0.468318876903828,0.483900236052757,0.5,0.516099763947243,0.516099763947243,0.483900236052757,0.5,0.5,0.5,0.516099763947243,0.483900236052757,0.5,0.5,0.5,0.546760769836551,0.468318876903828,0.531681123096172,0.468318876903828,0.5,0.0868093747830816,0.315385869110233,-0.468318876903828,-0.0150796467403791,0.5,0.0321995278944858,0.572691268275921,5.6291354271857,2.17524821743079,0.5,53.7711816309497
CBC_1119,CBC_1119_MSI_AV_v3_Vset3_Aset1_2024-05-22_16h30.20.038.csv,2,13,3,2,b,1,0,3,aud,D,63,1,3D,2D,1,0,b,2.28523370000039,1,0,1,1,3D,2D,D32,2.23359222150709,0.5,0.453239230163449,0.483900236052757,0.5,0.516099763947243,0.516099763947243,0.483900236052757,0.5,0.5,0.5,0.516099763947243,0.483900236052757,0.5,0.5,0.5,0.546760769836551,0.546760769836551,0.453239230163449,0.546760769836551,0.5,0.155621744577541,0.758658746741421,0.453239230163449,0.0145940892345232,0.5,0.0321995278944858,0.572691268275921,5.6291354271857,2.17524821743079,0.5,53.7711816309497
CBC_1119,CBC_1119_MSI_AV_v3_Vset3_Aset1_2024-05-22_16h30.20.038.csv,2,14,0,2,z,0,1,2,aud,C,27,1,0C,2C,0,1,z,1.73582400000123,0,1,1,1,2C,0C,C02,2.67414864942653,0.5,0.453239230163449,0.483900236052757,0.5,0.516099763947243,0.516099763947243,0.483900236052757,0.5,0.5,0.5,0.516099763947243,0.483900236052757,0.5,0.5,0.5,0.561354859071074,0.516099763947243,0.483900236052757,0.516099763947243,0.5,0.235582718839812,0.596757887559126,0.483900236052757,0.015581359148929,0.5,0.0321995278944858,0.572691268275921,5.6291354271857,2.17524821743079,0.5,53.7711816309497
CBC_1119,CBC_1119_MSI_AV_v3_Vset3_Aset1_2024-05-22_16h30.20.038.csv,2,15,1,0,z,0,1,0,aud,A,63,1,1A,0A,0,1,z,0.778493800000433,0,1,1,1,0A,1A,A10,2.30258509299405,0.5,0.453239230163449,0.483900236052757,0.5,0.516099763947243,0.516099763947243,0.483900236052757,0.5,0.5,0.5,0.531681123096172,0.483900236052757,0.5,0.5,0.5,0.561354859071074,0.546760769836551,0.453239230163449,0.5,0.453239230163449,0.452401038388774,0.758777672011744,0.5,0.0160997639472429,0.5,0.0321995278944858,0.572691268275921,5.6291354271857,2.17524821743079,0.5,53.7711816309497
CBC_1119,CBC_1119_MSI_AV_v3_Vset3_Aset1_2024-05-22_16h30.20.038.csv,2,16,3,1,z,0,1,1,aud,B,27,1,3B,1B,0,1,b,1.75214720000076,1,0,0,0,3B,1B,B31,3.43398720448515,0.516099763947243,0.453239230163449,0.483900236052757,0.5,0.516099763947243,0.516099763947243,0.483900236052757,0.5,0.5,0.5,0.531681123096172,0.483900236052757,0.5,0.5,0.5,0.561354859071074,0.483900236052757,0.516099763947243,0.5,0.516099763947243,0.15613306832417,0.402392096256804,-0.5,-0.0160997639472429,0.5,0.0321995278944858,0.572691268275921,5.6291354271857,2.17524821743079,0.5,53.7711816309497
CBC_1119,CBC_1119_MSI_AV_v3_Vset3_Aset1_2024-05-22_16h30.20.038.csv,2,17,2,3,b,1,0,2,aud,C,63,1,2C,3C,1,0,z,2.45167520000177,0,1,0,0,3C,2C,C23,3.46573590279973,0.516099763947243,0.453239230163449,0.483900236052757,0.5,0.516099763947243,0.516099763947243,0.483900236052757,0.483900236052757,0.5,0.5,0.531681123096172,0.483900236052757,0.5,0.5,0.5,0.561354859071074,0.452316398680967,0.547683601319033,0.483900236052757,0.531681123096172,0.0399248793198484,0.237838267683421,-0.483900236052757,-0.015581359148929,0.5,0.0321995278944858,0.572691268275921,5.6291354271857,2.17524821743079,0.5,53.7711816309497
CBC_1119,CBC_1119_MSI_AV_v3_Vset3_Aset1_2024-05-22_16h30.20.038.csv,2,18,3,2,b,1,0,3,aud,D,63,0,3D,2D,0,1,z,2.31148530000246,0,1,0,1,2D,3D,D32,2.11021320034659,0.516099763947243,0.453239230163449,0.483900236052757,0.5,0.516099763947243,0.516099763947243,0.483900236052757,0.483900236052757,0.5,0.5,0.531681123096172,0.468318876903828,0.5,0.5,0.5,0.561354859071074,0.438645140928926,0.561354859071074,0.5,0.561354859071074,0.0337748428838017,0.18219270565131,0.5,0.0160997639472429,0.5,0.0321995278944858,0.572691268275921,5.6291354271857,2.17524821743079,0.5,53.7711816309497
CBC_1119,CBC_1119_MSI_AV_v3_Vset3_Aset1_2024-05-22_16h30.20.038.csv,2,19,0,1,z,0,1,1,aud,B,63,1,0B,1B,0,1,z,1.05726020000111,0,1,1,1,1B,0B,B01,2.83321334405622,0.516099763947243,0.453239230163449,0.483900236052757,0.5,0.516099763947243,0.516099763947243,0.483900236052757,0.483900236052757,0.5,0.5,0.531681123096172,0.468318876903828,0.5,0.5,0.516099763947243,0.561354859071074,0.5,0.5,0.516099763947243,0.516099763947243,0.379396762623278,0.499897780423295,0.483900236052757,0.015581359148929,0.5,0.0321995278944858,0.572691268275921,5.6291354271857,2.17524821743079,0.5,53.7711816309497
CBC_1119,CBC_1119_MSI_AV_v3_Vset3_Aset1_2024-05-22_16h30.20.038.csv,2,20,0,2,b,1,0,0,aud,A,27,1,0A,2A,1,0,b,0.911675400002423,1,0,1,1,0A,2A,A02,3.55534806148941,0.516099763947243,0.453239230163449,0.483900236052757,0.5,0.516099763947243,0.531681123096172,0.483900236052757,0.483900236052757,0.5,0.5,0.531681123096172,0.468318876903828,0.5,0.5,0.516099763947243,0.561354859071074,0.532166177692767,0.467833822307233,0.516099763947243,0.483900236052757,0.556474956457201,0.686995944267111,0.483900236052757,0.015581359148929,0.5,0.0321995278944858,0.572691268275921,5.6291354271857,2.17524821743079,0.5,53.7711816309497
CBC_1119,CBC_1119_MSI_AV_v3_Vset3_Aset1_2024-05-22_16h30.20.038.csv,2,21,3,0,b,1,0,3,aud,D,9,1,3D,0D,1,0,b,1.22612860000118,1,0,1,1,3D,0D,D30,3.58351893845611,0.531681123096172,0.453239230163449,0.483900236052757,0.5,0.516099763947243,0.531681123096172,0.483900236052757,0.483900236052757,0.5,0.5,0.531681123096172,0.468318876903828,0.5,0.5,0.516099763947243,0.561354859071074,0.561354859071074,0.438645140928926,0.561354859071074,0.5,0.601322963007408,0.817943554589623,0.438645140928926,0.0141241664511216,0.5,0.0321995278944858,0.572691268275921,5.6291354271857,2.17524821743079,0.5,53.7711816309497
CBC_1119,CBC_1119_MSI_AV_v3_Vset3_Aset1_2024-05-22_16h30.20.038.csv,2,22,3,2,z,0,1,2,aud,C,63,1,3C,2C,0,1,b,1.87197610000112,1,0,0,0,3C,2C,C32,2.91777073208428,0.531681123096172,0.453239230163449,0.483900236052757,0.5,0.516099763947243,0.531681123096172,0.483900236052757,0.483900236052757,0.5,0.5,0.531681123096172,0.468318876903828,0.5,0.5,0.516099763947243,0.575479025522196,0.436891121706704,0.563108878293296,0.468318876903828,0.531681123096172,0.0570517743204486,0.175982159651928,-0.468318876903828,-0.0150796467403791,0.5,0.0321995278944858,0.572691268275921,5.6291354271857,2.17524821743079,0.5,53.7711816309497
CBC_1119,CBC_1119_MSI_AV_v3_Vset3_Aset1_2024-05-22_16h30.20.038.csv,2,23,1,3,b,1,0,1,aud,B,27,1,1B,3B,1,0,b,1.17141860000083,1,0,1,1,1B,3B,B13,3.63758615972639,0.531681123096172,0.453239230163449,0.483900236052757,0.5,0.516099763947243,0.531681123096172,0.483900236052757,0.483900236052757,0.5,0.5,0.531681123096172,0.453239230163449,0.5,0.5,0.516099763947243,0.575479025522196,0.547683601319033,0.452316398680967,0.531681123096172,0.483900236052757,0.572936943263884,0.762694857933008,0.468318876903828,0.0150796467403791,0.5,0.0321995278944858,0.572691268275921,5.6291354271857,2.17524821743079,0.5,53.7711816309497
CBC_1119,CBC_1119_MSI_AV_v3_Vset3_Aset1_2024-05-22_16h30.20.038.csv,2,24,2,3,b,1,0,2,aud,C,63,1,2C,3C,1,0,b,2.08544210000218,1,0,1,1,2C,3C,C23,2.9704144655697,0.531681123096172,0.453239230163449,0.483900236052757,0.5,0.516099763947243,0.546760769836551,0.483900236052757,0.483900236052757,0.5,0.5,0.531681123096172,0.453239230163449,0.5,0.5,0.516099763947243,0.575479025522196,0.577979805285205,0.422020194714795,0.531681123096172,0.453239230163449,0.198872404919118,0.870698422011207,0.468318876903828,0.0150796467403791,0.5,0.0321995278944858,0.572691268275921,5.6291354271857,2.17524821743079,0.5,53.7711816309497
CBC_1119,CBC_1119_MSI_AV_v3_Vset3_Aset1_2024-05-22_16h30.20.038.csv,2,25,3,2,b,1,0,3,aud,D,63,1,3D,2D,1,0,b,1.03068860000167,1,0,1,1,3D,2D,D32,2.07944154167984,0.531681123096172,0.453239230163449,0.483900236052757,0.5,0.516099763947243,0.546760769836551,0.483900236052757,0.483900236052757,0.5,0.5,0.546760769836551,0.453239230163449,0.5,0.5,0.516099763947243,0.575479025522196,0.559669300798086,0.440330699201914,0.575479025522196,0.516099763947243,0.719997516721424,0.811434292317837,0.424520974477804,0.0136693749594923,0.5,0.0321995278944858,0.572691268275921,5.6291354271857,2.17524821743079,0.5,53.7711816309497
CBC_1119,CBC_1119_MSI_AV_v3_Vset3_Aset1_2024-05-22_16h30.20.038.csv,2,26,0,1,z,0,1,1,aud,B,63,1,0B,1B,0,1,z,0.875653700002658,0,1,1,1,1B,0B,B01,2.6149597780362,0.531681123096172,0.453239230163449,0.483900236052757,0.5,0.516099763947243,0.546760769836551,0.483900236052757,0.483900236052757,0.5,0.5,0.546760769836551,0.453239230163449,0.5,0.5,0.516099763947243,0.589148400481688,0.530753615772495,0.469246384227505,0.546760769836551,0.516099763947243,0.529617503109752,0.680814982454143,0.453239230163449,0.0145940892345232,0.5,0.0321995278944858,0.572691268275921,5.6291354271857,2.17524821743079,0.5,53.7711816309497
CBC_1119,CBC_1119_MSI_AV_v3_Vset3_Aset1_2024-05-22_16h30.20.038.csv,2,27,3,0,z,0,1,0,aud,A,9,1,3A,0A,0,1,z,0.682206300001781,0,1,1,1,0A,3A,A30,3.73766961828337,0.531681123096172,0.453239230163449,0.483900236052757,0.5,0.516099763947243,0.561354859071074,0.483900236052757,0.483900236052757,0.5,0.5,0.546760769836551,0.453239230163449,0.5,0.5,0.516099763947243,0.589148400481688,0.531681123096172,0.468318876903828,0.531681123096172,0.5,0.0790682516195205,0.684672137633725,0.468318876903828,0.0150796467403791,0.5,0.0321995278944858,0.572691268275921,5.6291354271857,2.17524821743079,0.5,53.7711816309497
CBC_1119,CBC_1119_MSI_AV_v3_Vset3_Aset1_2024-05-22_16h30.20.038.csv,2,28,3,2,b,1,0,3,aud,D,63,1,3D,2D,1,0,b,1.66949090000162,1,0,1,1,3D,2D,D32,1.96944064646551,0.546760769836551,0.453239230163449,0.483900236052757,0.5,0.516099763947243,0.561354859071074,0.483900236052757,0.483900236052757,0.5,0.5,0.546760769836551,0.453239230163449,0.5,0.5,0.516099763947243,0.589148400481688,0.573470435655375,0.426529564344625,0.589148400481688,0.516099763947243,0.357177022893351,0.857768109883786,0.410851599518312,0.013229227539184,0.5,0.0321995278944858,0.572691268275921,5.6291354271857,2.17524821743079,0.5,53.7711816309497
CBC_1119,CBC_1119_MSI_AV_v3_Vset3_Aset1_2024-05-22_16h30.20.038.csv,2,29,0,2,z,0,1,2,aud,C,27,1,0C,2C,0,1,z,2.17166060000272,0,1,1,1,2C,0C,C02,2.68557734525015,0.546760769836551,0.453239230163449,0.483900236052757,0.5,0.516099763947243,0.561354859071074,0.483900236052757,0.483900236052757,0.5,0.5,0.546760769836551,0.453239230163449,0.5,0.5,0.516099763947243,0.602377628020872,0.546760769836551,0.453239230163449,0.546760769836551,0.5,0.178018096261262,0.759095274116521,0.453239230163449,0.0145940892345232,0.5,0.0321995278944858,0.572691268275921,5.6291354271857,2.17524821743079,0.5,53.7711816309497
CBC_1119,CBC_1119_MSI_AV_v3_Vset3_Aset1_2024-05-22_16h30.20.038.csv,2,30,0,1,b,1,0,0,aud,A,63,0,0A,1A,0,1,b,1.47835810000288,1,0,1,0,0A,1A,A01,3.11351530921037,0.546760769836551,0.453239230163449,0.483900236052757,0.5,0.516099763947243,0.561354859071074,0.483900236052757,0.483900236052757,0.5,0.5,0.561354859071074,0.453239230163449,0.5,0.5,0.516099763947243,0.602377628020872,0.592710666375921,0.407289333624079,0.546760769836551,0.453239230163449,0.489842395981172,0.906539394946848,-0.546760769836551,-0.0176054386599625,0.5,0.0321995278944858,0.572691268275921,5.6291354271857,2.17524821743079,0.5,53.7711816309497
CBC_1119,CBC_1119_MSI_AV_v3_Vset3_Aset1_2024-05-22_16h30.20.038.csv,2,31,0,1,z,0,1,1,aud,B,63,1,0B,1B,0,1,z,1.19625300000189,0,1,1,1,1B,0B,B01,2.4423470353692,0.529155331176588,0.453239230163449,0.483900236052757,0.5,0.516099763947243,0.561354859071074,0.483900236052757,0.483900236052757,0.5,0.5,0.561354859071074,0.453239230163449,0.5,0.5,0.516099763947243,0.602377628020872,0.545434616151644,0.454565383848356,0.561354859071074,0.516099763947243,0.548032478853006,0.752809056930993,0.438645140928926,0.0141241664511216,0.5,0.0321995278944858,0.572691268275921,5.6291354271857,2.17524821743079,0.5,53.7711816309497
CBC_1119,CBC_1119_MSI_AV_v3_Vset3_Aset1_2024-05-22_16h30.20.038.csv,2,32,1,3,z,0,1,3,aud,D,27,1,1D,3D,0,1,z,1.18212470000253,0,1,1,1,3D,1D,D13,3.85014760171006,0.529155331176588,0.453239230163449,0.483900236052757,0.5,0.516099763947243,0.575479025522196,0.483900236052757,0.483900236052757,0.5,0.5,0.561354859071074,0.453239230163449,0.5,0.5,0.516099763947243,0.602377628020872,0.602377628020872,0.397622371979128,0.602377628020872,0.5,0.806746448588641,0.924787349509128,0.397622371979128,0.0128032526580135,0.5,0.0321995278944858,0.572691268275921,5.6291354271857,2.17524821743079,0.5,53.7711816309497
CBC_1119,CBC_1119_MSI_AV_v3_Vset3_Aset1_2024-05-22_16h30.20.038.csv,2,33,2,3,b,1,0,2,aud,C,63,1,2C,3C,1,0,b,2.09914519999984,1,0,1,1,2C,3C,C23,2.77258872223978,0.529155331176588,0.453239230163449,0.483900236052757,0.5,0.516099763947243,0.575479025522196,0.483900236052757,0.483900236052757,0.5,0.5,0.561354859071074,0.453239230163449,0.5,0.5,0.516099763947243,0.615180880678886,0.606888970888144,0.393111029111856,0.561354859071074,0.453239230163449,0.165582137765671,0.932049264550399,0.438645140928926,0.0141241664511216,0.5,0.0321995278944858,0.572691268275921,5.6291354271857,2.17524821743079,0.5,53.7711816309497
CBC_1119,CBC_1119_MSI_AV_v3_Vset3_Aset1_2024-05-22_16h30.20.038.csv,2,34,0,1,z,0,1,1,aud,B,63,1,0B,1B,0,1,z,1.50092580000091,0,1,1,1,1B,0B,B01,2.28238238567653,0.529155331176588,0.453239230163449,0.483900236052757,0.5,0.516099763947243,0.575479025522196,0.483900236052757,0.483900236052757,0.5,0.5,0.575479025522196,0.453239230163449,0.5,0.5,0.516099763947243,0.615180880678886,0.559669300798086,0.440330699201914,0.575479025522196,0.516099763947243,0.424513174171813,0.812394070326869,0.424520974477804,0.0136693749594923,0.5,0.0321995278944858,0.572691268275921,5.6291354271857,2.17524821743079,0.5,53.7711816309497
CBC_1119,CBC_1119_MSI_AV_v3_Vset3_Aset1_2024-05-22_16h30.20.038.csv,2,35,1,0,z,0,1,0,aud,A,63,1,1A,0A,0,1,z,1.29751170000054,0,1,1,1,0A,1A,A10,2.52572864430826,0.529155331176588,0.453239230163449,0.483900236052757,0.5,0.516099763947243,0.589148400481688,0.483900236052757,0.483900236052757,0.5,0.5,0.575479025522196,0.453239230163449,0.5,0.5,0.516099763947243,0.615180880678886,0.575504352904773,0.424495647095227,0.529155331176588,0.453239230163449,0.600287282391517,0.863798056471842,0.470844668823412,0.0151609760477494,0.5,0.0321995278944858,0.572691268275921,5.6291354271857,2.17524821743079,0.5,53.7711816309497
CBC_1119,CBC_1119_MSI_AV_v3_Vset3_Aset1_2024-05-22_16h30.20.038.csv,2,36,2,1,b,1,0,2,aud,C,9,1,2C,1C,1,0,b,1.11926270000004,1,0,1,1,2C,1C,C21,3.93182563272433,0.544316307224338,0.453239230163449,0.483900236052757,0.5,0.516099763947243,0.589148400481688,0.483900236052757,0.483900236052757,0.5,0.5,0.575479025522196,0.453239230163449,0.5,0.5,0.516099763947243,0.615180880678886,0.575479025522196,0.424520974477804,0.575479025522196,0.5,0.752908203398642,0.86425892268121,0.424520974477804,0.0136693749594923,0.5,0.0321995278944858,0.572691268275921,5.6291354271857,2.17524821743079,0.5,53.7711816309497
CBC_1119,CBC_1119_MSI_AV_v3_Vset3_Aset1_2024-05-22_16h30.20.038.csv,2,37,0,1,b,1,0,0,aud,A,63,1,0A,1A,1,0,b,1.14214210000318,1,0,1,1,0A,1A,A01,2.85263142991332,0.544316307224338,0.453239230163449,0.483900236052757,0.5,0.516099763947243,0.589148400481688,0.483900236052757,0.483900236052757,0.5,0.5,0.589148400481688,0.453239230163449,0.5,0.5,0.516099763947243,0.615180880678886,0.590328340158917,0.409671659841083,0.544316307224338,0.453239230163449,0.803831425077326,0.901236349124725,0.455683692775662,0.0146727997765922,0.5,0.0321995278944858,0.572691268275921,5.6291354271857,2.17524821743079,0.5,53.7711816309497
CBC_1119,CBC_1119_MSI_AV_v3_Vset3_Aset1_2024-05-22_16h30.20.038.csv,2,38,1,3,z,0,1,3,aud,D,27,1,1D,3D,0,1,z,1.04785170000105,0,1,1,1,3D,1D,D13,3.27714473299218,0.55898910700093,0.453239230163449,0.483900236052757,0.5,0.516099763947243,0.589148400481688,0.483900236052757,0.483900236052757,0.5,0.5,0.589148400481688,0.453239230163449,0.5,0.5,0.516099763947243,0.615180880678886,0.615180880678886,0.384819119321114,0.615180880678886,0.5,1.04791435709631,0.943695619073576,0.384819119321114,0.0123909939669117,0.5,0.0321995278944858,0.572691268275921,5.6291354271857,2.17524821743079,0.5,53.7711816309497
CBC_1119,CBC_1119_MSI_AV_v3_Vset3_Aset1_2024-05-22_16h30.20.038.csv,2,39,1,0,b,1,0,1,aud,B,63,1,1B,0B,1,0,b,0.872239100001025,1,0,1,1,1B,0B,B10,3.29583686600433,0.55898910700093,0.453239230163449,0.483900236052757,0.5,0.516099763947243,0.589148400481688,0.483900236052757,0.483900236052757,0.5,0.5,0.589148400481688,0.453239230163449,0.5,0.5,0.516099763947243,0.627571874645797,0.573470435655375,0.426529564344625,0.589148400481688,0.516099763947243,0.814421786974666,0.857682086631749,0.410851599518312,0.013229227539184,0.5,0.0321995278944858,0.572691268275921,5.6291354271857,2.17524821743079,0.5,53.7711816309497
CBC_1119,CBC_1119_MSI_AV_v3_Vset3_Aset1_2024-05-22_16h30.20.038.csv,2,40,3,2,z,0,1,2,aud,C,63,0,3C,2C,1,0,z,1.86228579999988,0,1,1,0,2C,3C,C32,2.90872089656436,0.55898910700093,0.453239230163449,0.483900236052757,0.5,0.516099763947243,0.602377628020872,0.483900236052757,0.483900236052757,0.5,0.5,0.589148400481688,0.453239230163449,0.5,0.5,0.516099763947243,0.627571874645797,0.633680109127597,0.366319890872403,0.589148400481688,0.453239230163449,0.206058725626002,0.963644025652944,-0.589148400481688,-0.0189703003553018,0.5,0.0321995278944858,0.572691268275921,5.6291354271857,2.17524821743079,0.5,53.7711816309497
CBC_1119,CBC_1119_MSI_AV_v3_Vset3_Aset1_2024-05-22_16h30.20.038.csv,2,41,0,2,b,1,0,0,aud,A,27,1,0A,2A,1,0,b,1.23547470000267,1,0,1,1,0A,2A,A02,3.3322045101752,0.55898910700093,0.453239230163449,0.483900236052757,0.5,0.516099763947243,0.602377628020872,0.483900236052757,0.483900236052757,0.5,0.5,0.570178100126386,0.453239230163449,0.5,0.5,0.516099763947243,0.627571874645797,0.574804699654032,0.425195300345968,0.55898910700093,0.483900236052757,0.649469338322335,0.862105660801752,0.44101089299907,0.0142003425508956,0.5,0.0321995278944858,0.572691268275921,5.6291354271857,2.17524821743079,0.5,53.7711816309497
CBC_1119,CBC_1119_MSI_AV_v3_Vset3_Aset1_2024-05-22_16h30.20.038.csv,2,42,2,3,z,0,1,3,aud,D,63,1,2D,3D,0,1,z,1.83738190000258,0,1,1,1,3D,2D,D23,4.04305126783455,0.573189449551826,0.453239230163449,0.483900236052757,0.5,0.516099763947243,0.602377628020872,0.483900236052757,0.483900236052757,0.5,0.5,0.570178100126386,0.453239230163449,0.5,0.5,0.516099763947243,0.627571874645797,0.612395496832565,0.387604503167435,0.627571874645797,0.516099763947243,0.255485190952365,0.939992353380616,0.372428125354203,0.0119920098110337,0.5,0.0321995278944858,0.572691268275921,5.6291354271857,2.17524821743079,0.5,53.7711816309497
CBC_1119,CBC_1119_MSI_AV_v3_Vset3_Aset1_2024-05-22_16h30.20.038.csv,2,43,1,3,b,1,0,1,aud,B,27,1,1B,3B,1,0,b,0.987561600000845,1,0,1,1,1B,3B,B13,3.36729582998647,0.573189449551826,0.453239230163449,0.483900236052757,0.5,0.516099763947243,0.602377628020872,0.483900236052757,0.483900236052757,0.5,0.5,0.570178100126386,0.453239230163449,0.5,0.5,0.516099763947243,0.639563884456831,0.617701384085325,0.382298615914675,0.602377628020872,0.483900236052757,1.145144392085,0.946869718077477,0.397622371979128,0.0128032526580135,0.5,0.0321995278944858,0.572691268275921,5.6291354271857,2.17524821743079,0.5,53.7711816309497
CBC_1119,CBC_1119_MSI_AV_v3_Vset3_Aset1_2024-05-22_16h30.20.038.csv,2,44,3,2,z,0,1,2,aud,C,63,1,3C,2C,0,1,z,1.71481010000025,0,1,1,1,2C,3C,C32,2.69124308278583,0.573189449551826,0.453239230163449,0.483900236052757,0.5,0.516099763947243,0.615180880678886,0.483900236052757,0.483900236052757,0.5,0.5,0.570178100126386,0.453239230163449,0.5,0.5,0.516099763947243,0.639563884456831,0.615423779578921,0.384576220421079,0.570178100126386,0.453239230163449,0.315876877707901,0.944249777736069,0.429821899873614,0.0138400622546413,0.5,0.0321995278944858,0.572691268275921,5.6291354271857,2.17524821743079,0.5,53.7711816309497
