ID,filename,session,trial,visStimLeft,visStimRight,correctKey,leftCorrect,rightCorrect,secondStim,mod2Type,mod2Stim,frequency,rewardAccurate,stimPairLeft,stimPairRight,pCorrectLeft,pCorrectRight,key,reactionTime,choiceLeft,choiceRight,choiceAccurate,reward,chosenPair,otherPair,triplet,surprise,0A belief,1A belief,2A belief,3A belief,0B belief,1B belief,2B belief,3B belief,0C belief,1C belief,2C belief,3C belief,0D belief,1D belief,2D belief,3D belief,beliefPairNorm,beliefOtherPairNorm,beliefPair,beliefOtherPair,lik,corrLik,rewardPE,update2,fitCBCsimpleRW_CBCdriftDiffusionLR_startBelief,fitCBCsimpleRW_CBCdriftDiffusionLR_alpha1,fitCBCsimpleRW_CBCdriftDiffusionLR_nonDecisionTime,fitCBCsimpleRW_CBCdriftDiffusionLR_weight,fitCBCsimpleRW_CBCdriftDiffusionLR_startingBoundary,fitCBCsimpleRW_CBCdriftDiffusionLR_startingPoint,fit_CBCsimpleRW_CBCdriftDiffusionLR_NLL
CBC_1119,CBC_1119_MSI_TV_v3_Vset2_Tset2_2024-05-22_15h38.34.876.csv,1,1,0,1,z,0,1,1,tac,B,63,1,0B,1B,0,1,z,2.01681099999951,0,1,1,1,1B,0B,B01,2.77258872223978,0.5,0.5,0.5,0.5,0.5,0.5,0.5,0.5,0.5,0.5,0.5,0.5,0.5,0.5,0.5,0.5,0.5,0.5,0.5,0.5,0.144592233457921,0.499452409351472,0.5,0.0524682449975013,0.5,0.104936489995003,0.548018983089827,7.8612655100784,2.19348466821628,0.5,35.5511095558241
CBC_1119,CBC_1119_MSI_TV_v3_Vset2_Tset2_2024-05-22_15h38.34.876.csv,1,2,1,0,z,0,1,0,tac,A,63,1,1A,0A,0,1,b,1.57099169999856,1,0,0,0,1A,0A,A10,2.83321334405622,0.5,0.5,0.5,0.5,0.5,0.552468244997501,0.5,0.5,0.5,0.5,0.5,0.5,0.5,0.5,0.5,0.5,0.5,0.5,0.5,0.5,0.228332964864513,0.499598640202744,-0.5,-0.0524682449975013,0.5,0.104936489995003,0.548018983089827,7.8612655100784,2.19348466821628,0.5,35.5511095558241
CBC_1119,CBC_1119_MSI_TV_v3_Vset2_Tset2_2024-05-22_15h38.34.876.csv,1,3,2,1,b,1,0,2,tac,C,9,1,2C,1C,1,0,z,1.9524423999992,0,1,0,0,1C,2C,C21,2.89037175789616,0.5,0.447531755002499,0.5,0.5,0.5,0.552468244997501,0.5,0.5,0.5,0.5,0.5,0.5,0.5,0.5,0.5,0.5,0.5,0.5,0.5,0.5,0.154790233807558,0.500525159743442,-0.5,-0.0524682449975013,0.5,0.104936489995003,0.548018983089827,7.8612655100784,2.19348466821628,0.5,35.5511095558241
CBC_1119,CBC_1119_MSI_TV_v3_Vset2_Tset2_2024-05-22_15h38.34.876.csv,1,4,0,1,b,1,0,0,tac,A,63,1,0A,1A,1,0,b,1.04347849999976,1,0,1,1,0A,1A,A01,2.94443897916644,0.5,0.447531755002499,0.5,0.5,0.5,0.552468244997501,0.5,0.5,0.5,0.447531755002499,0.5,0.5,0.5,0.5,0.5,0.5,0.5276868003212,0.4723131996788,0.5,0.447531755002499,0.573171143255968,0.722182676952752,0.5,0.0524682449975013,0.5,0.104936489995003,0.548018983089827,7.8612655100784,2.19348466821628,0.5,35.5511095558241
CBC_1119,CBC_1119_MSI_TV_v3_Vset2_Tset2_2024-05-22_15h38.34.876.csv,1,5,1,3,z,0,1,3,tac,D,27,1,1D,3D,0,1,z,3.44001089999983,0,1,1,1,3D,1D,D13,2.99573227355399,0.552468244997501,0.447531755002499,0.5,0.5,0.5,0.552468244997501,0.5,0.5,0.5,0.447531755002499,0.5,0.5,0.5,0.5,0.5,0.5,0.5,0.5,0.5,0.5,0.0335756217147536,0.499240781570527,0.5,0.0524682449975013,0.5,0.104936489995003,0.548018983089827,7.8612655100784,2.19348466821628,0.5,35.5511095558241
CBC_1119,CBC_1119_MSI_TV_v3_Vset2_Tset2_2024-05-22_15h38.34.876.csv,1,6,1,0,b,1,0,1,tac,B,63,1,1B,0B,1,0,z,1.34027149999929,0,1,0,0,0B,1B,B10,3.04452243772342,0.552468244997501,0.447531755002499,0.5,0.5,0.5,0.552468244997501,0.5,0.5,0.5,0.447531755002499,0.5,0.5,0.5,0.5,0.5,0.552468244997501,0.475073715883169,0.524926284116831,0.5,0.552468244997501,0.176724214283009,0.297689389300051,-0.5,-0.0524682449975013,0.5,0.104936489995003,0.548018983089827,7.8612655100784,2.19348466821628,0.5,35.5511095558241
CBC_1119,CBC_1119_MSI_TV_v3_Vset2_Tset2_2024-05-22_15h38.34.876.csv,1,7,3,2,z,0,1,2,tac,C,63,1,3C,2C,0,1,z,1.42232739999963,0,1,1,1,2C,3C,C32,3.09104245335832,0.552468244997501,0.447531755002499,0.5,0.5,0.447531755002499,0.552468244997501,0.5,0.5,0.5,0.447531755002499,0.5,0.5,0.5,0.5,0.5,0.552468244997501,0.5,0.5,0.5,0.5,0.265836604890156,0.500209261694147,0.5,0.0524682449975013,0.5,0.104936489995003,0.548018983089827,7.8612655100784,2.19348466821628,0.5,35.5511095558241
CBC_1119,CBC_1119_MSI_TV_v3_Vset2_Tset2_2024-05-22_15h38.34.876.csv,1,8,0,2,b,1,0,0,tac,A,27,1,0A,2A,1,0,b,1.36044690000017,1,0,1,1,0A,2A,A02,3.13549421592915,0.552468244997501,0.447531755002499,0.5,0.5,0.447531755002499,0.552468244997501,0.5,0.5,0.5,0.447531755002499,0.552468244997501,0.5,0.5,0.5,0.5,0.552468244997501,0.524926284116831,0.475073715883169,0.552468244997501,0.5,0.408178017273844,0.702507795351145,0.447531755002499,0.0469624115312657,0.5,0.104936489995003,0.548018983089827,7.8612655100784,2.19348466821628,0.5,35.5511095558241
CBC_1119,CBC_1119_MSI_TV_v3_Vset2_Tset2_2024-05-22_15h38.34.876.csv,1,9,2,3,z,0,1,3,tac,D,63,1,2D,3D,0,1,z,1.18934339999942,0,1,1,1,3D,2D,D23,3.17805383034795,0.599430656528767,0.447531755002499,0.5,0.5,0.447531755002499,0.552468244997501,0.5,0.5,0.5,0.447531755002499,0.552468244997501,0.5,0.5,0.5,0.5,0.552468244997501,0.524926284116831,0.475073715883169,0.552468244997501,0.5,0.487610281340493,0.703070242620164,0.447531755002499,0.0469624115312657,0.5,0.104936489995003,0.548018983089827,7.8612655100784,2.19348466821628,0.5,35.5511095558241
CBC_1119,CBC_1119_MSI_TV_v3_Vset2_Tset2_2024-05-22_15h38.34.876.csv,1,10,1,3,b,1,0,1,tac,B,27,1,1B,3B,1,0,b,1.14059289999932,1,0,1,1,1B,3B,B13,3.2188758248682,0.599430656528767,0.447531755002499,0.5,0.5,0.447531755002499,0.552468244997501,0.5,0.5,0.5,0.447531755002499,0.552468244997501,0.5,0.5,0.5,0.5,0.599430656528767,0.524926284116831,0.475073715883169,0.552468244997501,0.5,0.509190080594848,0.701658791367888,0.447531755002499,0.0469624115312657,0.5,0.104936489995003,0.548018983089827,7.8612655100784,2.19348466821628,0.5,35.5511095558241
CBC_1119,CBC_1119_MSI_TV_v3_Vset2_Tset2_2024-05-22_15h38.34.876.csv,1,11,2,3,b,1,0,2,tac,C,63,0,2C,3C,0,1,b,1.38881419999962,1,0,1,0,2C,3C,C23,3.25809653802148,0.599430656528767,0.447531755002499,0.5,0.5,0.447531755002499,0.599430656528767,0.5,0.5,0.5,0.447531755002499,0.552468244997501,0.5,0.5,0.5,0.5,0.599430656528767,0.524926284116831,0.475073715883169,0.552468244997501,0.5,0.395733250136879,0.702216673466031,-0.552468244997501,-0.0579740784637369,0.5,0.104936489995003,0.548018983089827,7.8612655100784,2.19348466821628,0.5,35.5511095558241
CBC_1119,CBC_1119_MSI_TV_v3_Vset2_Tset2_2024-05-22_15h38.34.876.csv,1,12,3,1,z,0,1,1,tac,B,27,1,3B,1B,0,1,z,0.838334099998974,0,1,1,1,1B,3B,B31,3.29583686600433,0.599430656528767,0.447531755002499,0.5,0.5,0.447531755002499,0.599430656528767,0.5,0.5,0.5,0.447531755002499,0.494494166533764,0.5,0.5,0.5,0.5,0.599430656528767,0.545219157724189,0.454780842275811,0.599430656528767,0.5,0.714302148584703,0.826353741607187,0.400569343471233,0.0420343409034738,0.5,0.104936489995003,0.548018983089827,7.8612655100784,2.19348466821628,0.5,35.5511095558241
CBC_1119,CBC_1119_MSI_TV_v3_Vset2_Tset2_2024-05-22_15h38.34.876.csv,1,13,2,3,b,1,0,2,tac,C,63,1,2C,3C,1,0,b,1.12604049999936,1,0,1,1,2C,3C,C23,2.63905732961526,0.599430656528767,0.447531755002499,0.5,0.5,0.447531755002499,0.641464997432241,0.5,0.5,0.5,0.447531755002499,0.494494166533764,0.5,0.5,0.5,0.5,0.599430656528767,0.49723184225131,0.50276815774869,0.494494166533764,0.5,0.334865530352584,0.476075522265933,0.505505833466236,0.0530460078359451,0.5,0.104936489995003,0.548018983089827,7.8612655100784,2.19348466821628,0.5,35.5511095558241
CBC_1119,CBC_1119_MSI_TV_v3_Vset2_Tset2_2024-05-22_15h38.34.876.csv,1,14,2,3,z,0,1,3,tac,D,63,1,2D,3D,0,1,z,0.78442769999856,0,1,1,1,3D,2D,D23,2.67414864942653,0.599430656528767,0.447531755002499,0.5,0.5,0.447531755002499,0.641464997432241,0.5,0.5,0.5,0.447531755002499,0.547540174369709,0.5,0.5,0.5,0.5,0.599430656528767,0.545219157724189,0.454780842275811,0.599430656528767,0.5,0.614963653235171,0.826655643048709,0.400569343471233,0.0420343409034738,0.5,0.104936489995003,0.548018983089827,7.8612655100784,2.19348466821628,0.5,35.5511095558241
CBC_1119,CBC_1119_MSI_TV_v3_Vset2_Tset2_2024-05-22_15h38.34.876.csv,1,15,3,0,z,0,1,0,tac,A,9,1,3A,0A,0,1,z,0.852047599999423,0,1,1,1,0A,3A,A30,3.40119738166216,0.599430656528767,0.447531755002499,0.5,0.5,0.447531755002499,0.641464997432241,0.5,0.5,0.5,0.447531755002499,0.547540174369709,0.5,0.5,0.5,0.5,0.641464997432241,0.545219157724189,0.454780842275811,0.599430656528767,0.5,0.729815698733539,0.826619718931643,0.400569343471233,0.0420343409034738,0.5,0.104936489995003,0.548018983089827,7.8612655100784,2.19348466821628,0.5,35.5511095558241
CBC_1119,CBC_1119_MSI_TV_v3_Vset2_Tset2_2024-05-22_15h38.34.876.csv,1,16,1,0,b,1,0,1,tac,B,63,0,1B,0B,0,1,b,1.93534979999822,1,0,1,0,1B,0B,B10,2.7408400239252,0.641464997432241,0.447531755002499,0.5,0.5,0.447531755002499,0.641464997432241,0.5,0.5,0.5,0.447531755002499,0.547540174369709,0.5,0.5,0.5,0.5,0.641464997432241,0.589042158296686,0.410957841703314,0.641464997432241,0.447531755002499,0.187704777198114,0.955623973395805,-0.641464997432241,-0.0673130852851927,0.5,0.104936489995003,0.548018983089827,7.8612655100784,2.19348466821628,0.5,35.5511095558241
CBC_1119,CBC_1119_MSI_TV_v3_Vset2_Tset2_2024-05-22_15h38.34.876.csv,1,17,3,2,b,1,0,3,tac,D,63,1,3D,2D,1,0,b,0.95175079999899,1,0,1,1,3D,2D,D32,3.46573590279973,0.641464997432241,0.447531755002499,0.5,0.5,0.447531755002499,0.574151912147048,0.5,0.5,0.5,0.447531755002499,0.547540174369709,0.5,0.5,0.5,0.5,0.641464997432241,0.561966419360414,0.438033580639586,0.641464997432241,0.5,0.924184688421091,0.894454886883325,0.358535002567759,0.0376234047098099,0.5,0.104936489995003,0.548018983089827,7.8612655100784,2.19348466821628,0.5,35.5511095558241
CBC_1119,CBC_1119_MSI_TV_v3_Vset2_Tset2_2024-05-22_15h38.34.876.csv,1,18,2,0,b,1,0,2,tac,C,27,1,2C,0C,1,0,b,2.00877709999986,1,0,1,1,2C,0C,C20,3.49650756146648,0.641464997432241,0.447531755002499,0.5,0.5,0.447531755002499,0.574151912147048,0.5,0.5,0.5,0.447531755002499,0.547540174369709,0.5,0.5,0.5,0.5,0.679088402142051,0.522691337064144,0.477308662935856,0.547540174369709,0.5,0.196755170549911,0.686553236931434,0.452459825630291,0.0474795459653936,0.5,0.104936489995003,0.548018983089827,7.8612655100784,2.19348466821628,0.5,35.5511095558241
CBC_1119,CBC_1119_MSI_TV_v3_Vset2_Tset2_2024-05-22_15h38.34.876.csv,1,19,1,0,z,0,1,0,tac,A,63,1,1A,0A,0,1,z,1.4097970999992,0,1,1,1,0A,1A,A10,2.83321334405622,0.641464997432241,0.447531755002499,0.5,0.5,0.447531755002499,0.574151912147048,0.5,0.5,0.5,0.447531755002499,0.595019720335103,0.5,0.5,0.5,0.5,0.679088402142051,0.589042158296686,0.410957841703314,0.641464997432241,0.447531755002499,0.536947763435998,0.955727312854036,0.358535002567759,0.0376234047098099,0.5,0.104936489995003,0.548018983089827,7.8612655100784,2.19348466821628,0.5,35.5511095558241
CBC_1119,CBC_1119_MSI_TV_v3_Vset2_Tset2_2024-05-22_15h38.34.876.csv,1,20,0,1,z,0,1,1,tac,B,63,1,0B,1B,0,1,z,1.70782900000086,0,1,1,1,1B,0B,B01,2.86220088092947,0.679088402142051,0.447531755002499,0.5,0.5,0.447531755002499,0.574151912147048,0.5,0.5,0.5,0.447531755002499,0.595019720335103,0.5,0.5,0.5,0.5,0.679088402142051,0.561966419360414,0.438033580639586,0.574151912147048,0.447531755002499,0.333527594833241,0.894867010626473,0.425848087852952,0.0446870036103723,0.5,0.104936489995003,0.548018983089827,7.8612655100784,2.19348466821628,0.5,35.5511095558241
CBC_1119,CBC_1119_MSI_TV_v3_Vset2_Tset2_2024-05-22_15h38.34.876.csv,1,21,3,1,b,1,0,3,tac,D,27,1,3D,1D,1,0,b,1.10194950000005,1,0,1,1,3D,1D,D31,3.58351893845611,0.679088402142051,0.447531755002499,0.5,0.5,0.447531755002499,0.61883891575742,0.5,0.5,0.5,0.447531755002499,0.595019720335103,0.5,0.5,0.5,0.5,0.679088402142051,0.575943585661898,0.424056414338102,0.679088402142051,0.5,0.894144950186786,0.932144738172793,0.320911597857949,0.033675336677901,0.5,0.104936489995003,0.548018983089827,7.8612655100784,2.19348466821628,0.5,35.5511095558241
CBC_1119,CBC_1119_MSI_TV_v3_Vset2_Tset2_2024-05-22_15h38.34.876.csv,1,22,2,3,b,1,0,2,tac,C,63,1,2C,3C,1,0,b,1.07705489999898,1,0,1,1,2C,3C,C23,2.51230562397611,0.679088402142051,0.447531755002499,0.5,0.5,0.447531755002499,0.61883891575742,0.5,0.5,0.5,0.447531755002499,0.595019720335103,0.5,0.5,0.5,0.5,0.712763738819952,0.543387218773569,0.456612781226431,0.595019720335103,0.5,0.681504816681365,0.817109791503316,0.404980279664897,0.0424972090652288,0.5,0.104936489995003,0.548018983089827,7.8612655100784,2.19348466821628,0.5,35.5511095558241
CBC_1119,CBC_1119_MSI_TV_v3_Vset2_Tset2_2024-05-22_15h38.34.876.csv,1,23,1,0,z,0,1,0,tac,A,63,1,1A,0A,0,1,z,1.67566739999893,0,1,1,1,0A,1A,A10,2.53897387105828,0.679088402142051,0.447531755002499,0.5,0.5,0.447531755002499,0.61883891575742,0.5,0.5,0.5,0.447531755002499,0.637516929400332,0.5,0.5,0.5,0.5,0.712763738819952,0.602766067902797,0.397233932097204,0.679088402142051,0.447531755002499,0.277250530821808,0.971903563412134,0.320911597857949,0.033675336677901,0.5,0.104936489995003,0.548018983089827,7.8612655100784,2.19348466821628,0.5,35.5511095558241
CBC_1119,CBC_1119_MSI_TV_v3_Vset2_Tset2_2024-05-22_15h38.34.876.csv,1,24,3,2,b,1,0,3,tac,D,63,1,3D,2D,1,0,b,0.880669000000125,1,0,1,1,3D,2D,D32,2.9704144655697,0.712763738819952,0.447531755002499,0.5,0.5,0.447531755002499,0.61883891575742,0.5,0.5,0.5,0.447531755002499,0.637516929400332,0.5,0.5,0.5,0.5,0.712763738819952,0.587718544020361,0.412281455979639,0.712763738819952,0.5,1.23713896067301,0.953721467431573,0.287236261180048,0.0301415650475221,0.5,0.104936489995003,0.548018983089827,7.8612655100784,2.19348466821628,0.5,35.5511095558241
CBC_1119,CBC_1119_MSI_TV_v3_Vset2_Tset2_2024-05-22_15h38.34.876.csv,1,25,0,2,z,0,1,2,tac,C,27,1,0C,2C,0,1,z,2.54975029999878,0,1,1,1,2C,0C,C02,3.68887945411394,0.712763738819952,0.447531755002499,0.5,0.5,0.447531755002499,0.61883891575742,0.5,0.5,0.5,0.447531755002499,0.637516929400332,0.5,0.5,0.5,0.5,0.742905303867474,0.560446102315518,0.439553897684482,0.637516929400332,0.5,0.096302162953915,0.889199629142854,0.362483070599668,0.0380377011113399,0.5,0.104936489995003,0.548018983089827,7.8612655100784,2.19348466821628,0.5,35.5511095558241
CBC_1119,CBC_1119_MSI_TV_v3_Vset2_Tset2_2024-05-22_15h38.34.876.csv,1,26,1,0,z,0,1,0,tac,A,63,1,1A,0A,0,1,z,0.822788100000253,0,1,1,1,0A,1A,A10,2.32727770558442,0.712763738819952,0.447531755002499,0.5,0.5,0.447531755002499,0.61883891575742,0.5,0.5,0.5,0.447531755002499,0.675554630511672,0.5,0.5,0.5,0.5,0.742905303867474,0.614295015894477,0.385704984105523,0.712763738819952,0.447531755002499,1.56733407355247,0.980944792999902,0.287236261180048,0.0301415650475221,0.5,0.104936489995003,0.548018983089827,7.8612655100784,2.19348466821628,0.5,35.5511095558241
CBC_1119,CBC_1119_MSI_TV_v3_Vset2_Tset2_2024-05-22_15h38.34.876.csv,1,27,3,1,z,0,1,1,tac,B,27,1,3B,1B,0,1,z,1.02938419999919,0,1,1,1,1B,3B,B31,3.04452243772342,0.742905303867474,0.447531755002499,0.5,0.5,0.447531755002499,0.61883891575742,0.5,0.5,0.5,0.447531755002499,0.675554630511672,0.5,0.5,0.5,0.5,0.742905303867474,0.553108143667388,0.446891856332612,0.61883891575742,0.5,0.793693653948404,0.862104648639584,0.38116108424258,0.0399977063031058,0.5,0.104936489995003,0.548018983089827,7.8612655100784,2.19348466821628,0.5,35.5511095558241
CBC_1119,CBC_1119_MSI_TV_v3_Vset2_Tset2_2024-05-22_15h38.34.876.csv,1,28,2,3,b,1,0,2,tac,C,63,1,2C,3C,1,0,b,1.39032989999941,1,0,1,1,2C,3C,C23,2.37490575457367,0.742905303867474,0.447531755002499,0.5,0.5,0.447531755002499,0.658836622060526,0.5,0.5,0.5,0.447531755002499,0.675554630511672,0.5,0.5,0.5,0.5,0.742905303867474,0.574668852452761,0.425331147547239,0.675554630511672,0.5,0.556448164657967,0.92908164366927,0.324445369488328,0.0340461582692369,0.5,0.104936489995003,0.548018983089827,7.8612655100784,2.19348466821628,0.5,35.5511095558241
CBC_1119,CBC_1119_MSI_TV_v3_Vset2_Tset2_2024-05-22_15h38.34.876.csv,1,29,2,3,z,0,1,3,tac,D,63,0,2D,3D,1,0,z,0.650078299999223,0,1,1,0,3D,2D,D23,2.68557734525015,0.742905303867474,0.447531755002499,0.5,0.5,0.447531755002499,0.658836622060526,0.5,0.5,0.5,0.447531755002499,0.709600788780909,0.5,0.5,0.5,0.5,0.742905303867474,0.597716737997513,0.402283262002487,0.742905303867474,0.5,0.176946116507272,0.966731208048095,-0.742905303867474,-0.0779578749865235,0.5,0.104936489995003,0.548018983089827,7.8612655100784,2.19348466821628,0.5,35.5511095558241
CBC_1119,CBC_1119_MSI_TV_v3_Vset2_Tset2_2024-05-22_15h38.34.876.csv,1,30,1,0,b,1,0,1,tac,B,63,1,1B,0B,1,0,b,1.56207709999944,1,0,1,1,1B,0B,B10,2.70805020110221,0.742905303867474,0.447531755002499,0.5,0.5,0.447531755002499,0.658836622060526,0.5,0.5,0.5,0.447531755002499,0.709600788780909,0.5,0.5,0.5,0.5,0.66494742888095,0.595494805997149,0.404505194002851,0.658836622060526,0.447531755002499,0.381403433000682,0.964294825293934,0.341163377939474,0.0358004873958069,0.5,0.104936489995003,0.548018983089827,7.8612655100784,2.19348466821628,0.5,35.5511095558241
CBC_1119,CBC_1119_MSI_TV_v3_Vset2_Tset2_2024-05-22_15h38.34.876.csv,1,31,0,2,b,1,0,0,tac,A,27,1,0A,2A,1,0,b,1.55793159999848,1,0,1,1,0A,2A,A02,3.13549421592915,0.742905303867474,0.447531755002499,0.5,0.5,0.447531755002499,0.694637109456333,0.5,0.5,0.5,0.447531755002499,0.709600788780909,0.5,0.5,0.5,0.5,0.66494742888095,0.597716737997513,0.402283262002487,0.742905303867474,0.5,0.379413744710445,0.96665830660213,0.257094696132526,0.0269786150084791,0.5,0.104936489995003,0.548018983089827,7.8612655100784,2.19348466821628,0.5,35.5511095558241
CBC_1119,CBC_1119_MSI_TV_v3_Vset2_Tset2_2024-05-22_15h38.34.876.csv,1,32,0,3,z,0,1,3,tac,D,9,1,0D,3D,0,1,z,0.925179300000309,0,1,1,1,3D,0D,D03,3.85014760171006,0.769883918875953,0.447531755002499,0.5,0.5,0.447531755002499,0.694637109456333,0.5,0.5,0.5,0.447531755002499,0.709600788780909,0.5,0.5,0.5,0.5,0.66494742888095,0.57079608263499,0.42920391736501,0.66494742888095,0.5,1.02883462720332,0.919912308081443,0.33505257111905,0.0351592407770341,0.5,0.104936489995003,0.548018983089827,7.8612655100784,2.19348466821628,0.5,35.5511095558241
CBC_1119,CBC_1119_MSI_TV_v3_Vset2_Tset2_2024-05-22_15h38.34.876.csv,1,33,2,3,b,1,0,2,tac,C,63,1,2C,3C,1,0,b,1.08596129999933,1,0,1,1,2C,3C,C23,2.26176309847379,0.769883918875953,0.447531755002499,0.5,0.5,0.447531755002499,0.694637109456333,0.5,0.5,0.5,0.447531755002499,0.709600788780909,0.5,0.5,0.5,0.5,0.700106669657984,0.58664048119221,0.41335951880779,0.709600788780909,0.5,0.980105296654686,0.952029252876647,0.290399211219091,0.0304734739226488,0.5,0.104936489995003,0.548018983089827,7.8612655100784,2.19348466821628,0.5,35.5511095558241
CBC_1119,CBC_1119_MSI_TV_v3_Vset2_Tset2_2024-05-22_15h38.34.876.csv,1,34,1,0,b,1,0,1,tac,B,63,1,1B,0B,1,0,b,1.32061299999987,1,0,1,1,1B,0B,B10,2.50552593699074,0.769883918875953,0.447531755002499,0.5,0.5,0.447531755002499,0.694637109456333,0.5,0.5,0.5,0.447531755002499,0.740074262703557,0.5,0.5,0.5,0.5,0.700106669657984,0.608173739515704,0.391826260484296,0.694637109456333,0.447531755002499,0.621141292001646,0.97661011309041,0.305362890543667,0.0320437099083806,0.5,0.104936489995003,0.548018983089827,7.8612655100784,2.19348466821628,0.5,35.5511095558241
CBC_1119,CBC_1119_MSI_TV_v3_Vset2_Tset2_2024-05-22_15h38.34.876.csv,1,35,1,0,z,0,1,0,tac,A,63,0,1A,0A,1,0,z,1.01562299999932,0,1,1,0,0A,1A,A10,2.30258509299405,0.769883918875953,0.447531755002499,0.5,0.5,0.447531755002499,0.726680819364714,0.5,0.5,0.5,0.447531755002499,0.740074262703557,0.5,0.5,0.5,0.5,0.700106669657984,0.632391988533589,0.367608011466411,0.769883918875953,0.447531755002499,1.34588597478789,0.989675517591335,-0.769883918875953,-0.0807889161504398,0.5,0.104936489995003,0.548018983089827,7.8612655100784,2.19348466821628,0.5,35.5511095558241
CBC_1119,CBC_1119_MSI_TV_v3_Vset2_Tset2_2024-05-22_15h38.34.876.csv,1,36,3,2,b,1,0,3,tac,D,63,1,3D,2D,1,0,b,0.941173100000015,1,0,1,1,3D,2D,D32,2.83321334405622,0.689095002725513,0.447531755002499,0.5,0.5,0.447531755002499,0.726680819364714,0.5,0.5,0.5,0.447531755002499,0.740074262703557,0.5,0.5,0.5,0.5,0.700106669657984,0.583370368116949,0.416629631883051,0.700106669657984,0.5,1.15369440640216,0.946442024649942,0.299893330342016,0.0314697534590029,0.5,0.104936489995003,0.548018983089827,7.8612655100784,2.19348466821628,0.5,35.5511095558241
CBC_1119,CBC_1119_MSI_TV_v3_Vset2_Tset2_2024-05-22_15h38.34.876.csv,1,37,2,1,z,0,1,1,tac,B,9,1,2B,1B,0,1,b,1.8658220999987,1,0,0,0,2B,1B,B21,3.95124371858143,0.689095002725513,0.447531755002499,0.5,0.5,0.447531755002499,0.726680819364714,0.5,0.5,0.5,0.447531755002499,0.740074262703557,0.5,0.5,0.5,0.5,0.731576423116987,0.407603992910679,0.592396007089321,0.5,0.726680819364714,0.00851564021530777,0.0395618710310971,-0.5,-0.0524682449975013,0.5,0.104936489995003,0.548018983089827,7.8612655100784,2.19348466821628,0.5,35.5511095558241
CBC_1119,CBC_1119_MSI_TV_v3_Vset2_Tset2_2024-05-22_15h38.34.876.csv,1,38,0,2,b,1,0,0,tac,A,27,1,0A,2A,1,0,b,1.18232530000023,1,0,1,1,0A,2A,A02,2.87167962488401,0.689095002725513,0.447531755002499,0.5,0.5,0.447531755002499,0.726680819364714,0.447531755002499,0.5,0.5,0.447531755002499,0.740074262703557,0.5,0.5,0.5,0.5,0.731576423116987,0.579512150960222,0.420487849039778,0.689095002725513,0.5,0.804258345458256,0.939546251830817,0.310904997274487,0.0326252791358905,0.5,0.104936489995003,0.548018983089827,7.8612655100784,2.19348466821628,0.5,35.5511095558241
CBC_1119,CBC_1119_MSI_TV_v3_Vset2_Tset2_2024-05-22_15h38.34.876.csv,1,39,3,2,z,0,1,2,tac,C,63,1,3C,2C,0,1,z,1.2909725999998,0,1,1,1,2C,3C,C32,3.29583686600433,0.721720281861404,0.447531755002499,0.5,0.5,0.447531755002499,0.726680819364714,0.447531755002499,0.5,0.5,0.447531755002499,0.740074262703557,0.5,0.5,0.5,0.5,0.731576423116987,0.596798341004255,0.403201658995745,0.740074262703557,0.5,0.679552282627195,0.965724265072295,0.259925737296443,0.0272756945312518,0.5,0.104936489995003,0.548018983089827,7.8612655100784,2.19348466821628,0.5,35.5511095558241
CBC_1119,CBC_1119_MSI_TV_v3_Vset2_Tset2_2024-05-22_15h38.34.876.csv,1,40,3,1,b,1,0,3,tac,D,27,1,3D,1D,1,0,b,0.942696600001,1,0,1,1,3D,1D,D31,3.31418600467253,0.721720281861404,0.447531755002499,0.5,0.5,0.447531755002499,0.726680819364714,0.447531755002499,0.5,0.5,0.447531755002499,0.767349957234809,0.5,0.5,0.5,0.5,0.731576423116987,0.594016261910443,0.405983738089557,0.731576423116987,0.5,1.26445970443696,0.962484639031917,0.268423576883013,0.0281674279900071,0.5,0.104936489995003,0.548018983089827,7.8612655100784,2.19348466821628,0.5,35.5511095558241
CBC_1119,CBC_1119_MSI_TV_v3_Vset2_Tset2_2024-05-22_15h38.34.876.csv,1,41,1,0,z,0,1,0,tac,A,63,1,1A,0A,0,1,z,1.82852339999954,0,1,1,1,0A,1A,A10,2.23359222150709,0.721720281861404,0.447531755002499,0.5,0.5,0.447531755002499,0.726680819364714,0.447531755002499,0.5,0.5,0.447531755002499,0.767349957234809,0.5,0.5,0.5,0.5,0.759743851106994,0.617249539968439,0.382750460031561,0.721720281861404,0.447531755002499,0.150240640393727,0.982821643378342,0.278279718138596,0.029201696858263,0.5,0.104936489995003,0.548018983089827,7.8612655100784,2.19348466821628,0.5,35.5511095558241
CBC_1119,CBC_1119_MSI_TV_v3_Vset2_Tset2_2024-05-22_15h38.34.876.csv,1,42,2,0,b,1,0,2,tac,C,27,1,2C,0C,1,0,b,1.55019709999942,1,0,1,1,2C,0C,C20,3.3499040872746,0.750921978719667,0.447531755002499,0.5,0.5,0.447531755002499,0.726680819364714,0.447531755002499,0.5,0.5,0.447531755002499,0.767349957234809,0.5,0.5,0.5,0.5,0.759743851106994,0.605475979901452,0.394524020098548,0.767349957234809,0.5,0.362593047243789,0.974383030549653,0.232650042765191,0.0244134788849664,0.5,0.104936489995003,0.548018983089827,7.8612655100784,2.19348466821628,0.5,35.5511095558241
CBC_1119,CBC_1119_MSI_TV_v3_Vset2_Tset2_2024-05-22_15h38.34.876.csv,1,43,2,3,z,0,1,3,tac,D,63,1,2D,3D,0,1,z,0.961992599999576,0,1,1,1,3D,2D,D23,2.67414864942653,0.750921978719667,0.447531755002499,0.5,0.5,0.447531755002499,0.726680819364714,0.447531755002499,0.5,0.5,0.447531755002499,0.791763436119776,0.5,0.5,0.5,0.5,0.759743851106994,0.603093915036277,0.396906084963723,0.759743851106994,0.5,1.31958773595925,0.972213523596386,0.240256148893006,0.0252116369645488,0.5,0.104936489995003,0.548018983089827,7.8612655100784,2.19348466821628,0.5,35.5511095558241
CBC_1119,CBC_1119_MSI_TV_v3_Vset2_Tset2_2024-05-22_15h38.34.876.csv,1,44,0,1,z,0,1,1,tac,B,63,1,0B,1B,0,1,z,1.27339669999856,0,1,1,1,1B,0B,B01,2.97892515523761,0.750921978719667,0.447531755002499,0.5,0.5,0.447531755002499,0.726680819364714,0.447531755002499,0.5,0.5,0.447531755002499,0.791763436119776,0.5,0.5,0.5,0.5,0.784955488071543,0.618866494217476,0.381133505782524,0.726680819364714,0.447531755002499,0.673753961600023,0.983650413648432,0.273319180635286,0.028681155464177,0.5,0.104936489995003,0.548018983089827,7.8612655100784,2.19348466821628,0.5,35.5511095558241
CBC_1119,CBC_1119_MSI_AV_v3_Vset3_Aset1_2024-05-22_16h30.20.038.csv,2,1,1,0,b,1,0,1,aud,B,63,1,1B,0B,1,0,b,1.76670760000161,1,0,1,1,1B,0B,B10,2.77258872223978,0.5,0.5,0.5,0.5,0.5,0.5,0.5,0.5,0.5,0.5,0.5,0.5,0.5,0.5,0.5,0.5,0.5,0.5,0.5,0.5,0.191915561266074,0.499733609970069,0.5,0.0265565166575316,0.5,0.0531130333150631,0.572723035974143,7.45000653952995,2.19780102959478,0.5,54.3181248471562
CBC_1119,CBC_1119_MSI_AV_v3_Vset3_Aset1_2024-05-22_16h30.20.038.csv,2,2,1,0,z,0,1,0,aud,A,63,1,1A,0A,0,1,b,2.06238580000172,1,0,0,0,1A,0A,A10,2.83321334405622,0.5,0.5,0.5,0.5,0.5,0.526556516657532,0.5,0.5,0.5,0.5,0.5,0.5,0.5,0.5,0.5,0.5,0.5,0.5,0.5,0.5,0.142104339173803,0.500444487584865,-0.5,-0.0265565166575316,0.5,0.0531130333150631,0.572723035974143,7.45000653952995,2.19780102959478,0.5,54.3181248471562
CBC_1119,CBC_1119_MSI_AV_v3_Vset3_Aset1_2024-05-22_16h30.20.038.csv,2,3,3,2,b,1,0,3,aud,D,63,1,3D,2D,1,0,b,1.25744720000148,1,0,1,1,3D,2D,D32,2.89037175789616,0.5,0.473443483342468,0.5,0.5,0.5,0.526556516657532,0.5,0.5,0.5,0.5,0.5,0.5,0.5,0.5,0.5,0.5,0.5,0.5,0.5,0.5,0.319313290571955,0.49966665970352,0.5,0.0265565166575316,0.5,0.0531130333150631,0.572723035974143,7.45000653952995,2.19780102959478,0.5,54.3181248471562
CBC_1119,CBC_1119_MSI_AV_v3_Vset3_Aset1_2024-05-22_16h30.20.038.csv,2,4,1,2,b,1,0,1,aud,B,9,1,1B,2B,1,0,z,4.05556740000065,0,1,0,0,2B,1B,B12,2.94443897916644,0.5,0.473443483342468,0.5,0.5,0.5,0.526556516657532,0.5,0.5,0.5,0.5,0.5,0.5,0.5,0.5,0.5,0.526556516657532,0.48706524374128,0.51293475625872,0.5,0.526556516657532,0.0140418967041484,0.395399983464301,-0.5,-0.0265565166575316,0.5,0.0531130333150631,0.572723035974143,7.45000653952995,2.19780102959478,0.5,54.3181248471562
CBC_1119,CBC_1119_MSI_AV_v3_Vset3_Aset1_2024-05-22_16h30.20.038.csv,2,5,2,0,z,0,1,0,aud,A,27,1,2A,0A,0,1,b,1.90795430000253,1,0,0,0,2A,0A,A20,2.99573227355399,0.5,0.473443483342468,0.5,0.5,0.5,0.526556516657532,0.473443483342468,0.5,0.5,0.5,0.5,0.5,0.5,0.5,0.5,0.526556516657532,0.5,0.5,0.5,0.5,0.166395421443974,0.500481006255164,-0.5,-0.0265565166575316,0.5,0.0531130333150631,0.572723035974143,7.45000653952995,2.19780102959478,0.5,54.3181248471562
CBC_1119,CBC_1119_MSI_AV_v3_Vset3_Aset1_2024-05-22_16h30.20.038.csv,2,6,3,2,z,0,1,2,aud,C,63,1,3C,2C,0,1,b,1.83604620000187,1,0,0,0,3C,2C,C32,3.04452243772342,0.5,0.473443483342468,0.473443483342468,0.5,0.5,0.526556516657532,0.473443483342468,0.5,0.5,0.5,0.5,0.5,0.5,0.5,0.5,0.526556516657532,0.5,0.5,0.5,0.5,0.178901126147225,0.500004068464581,-0.5,-0.0265565166575316,0.5,0.0531130333150631,0.572723035974143,7.45000653952995,2.19780102959478,0.5,54.3181248471562
CBC_1119,CBC_1119_MSI_AV_v3_Vset3_Aset1_2024-05-22_16h30.20.038.csv,2,7,3,1,b,1,0,3,aud,D,27,1,3D,1D,1,0,b,1.47743270000137,1,0,1,1,3D,1D,D31,3.09104245335832,0.5,0.473443483342468,0.473443483342468,0.5,0.5,0.526556516657532,0.473443483342468,0.5,0.5,0.5,0.5,0.473443483342468,0.5,0.5,0.5,0.526556516657532,0.51293475625872,0.48706524374128,0.526556516657532,0.5,0.313239437826631,0.604642679890843,0.473443483342468,0.0251460195035681,0.5,0.0531130333150631,0.572723035974143,7.45000653952995,2.19780102959478,0.5,54.3181248471562
CBC_1119,CBC_1119_MSI_AV_v3_Vset3_Aset1_2024-05-22_16h30.20.038.csv,2,8,0,1,b,1,0,0,aud,A,63,1,0A,1A,1,0,z,1.7166124000014,0,1,0,0,1A,0A,A01,3.13549421592915,0.5,0.473443483342468,0.473443483342468,0.5,0.5,0.526556516657532,0.473443483342468,0.5,0.5,0.5,0.5,0.473443483342468,0.5,0.5,0.5,0.5517025361611,0.486359497437722,0.513640502562278,0.473443483342468,0.5,0.157810762041071,0.390025606651115,-0.473443483342468,-0.0251460195035681,0.5,0.0531130333150631,0.572723035974143,7.45000653952995,2.19780102959478,0.5,54.3181248471562
CBC_1119,CBC_1119_MSI_AV_v3_Vset3_Aset1_2024-05-22_16h30.20.038.csv,2,9,0,2,z,0,1,2,aud,C,27,1,0C,2C,0,1,z,1.00548350000281,0,1,1,1,2C,0C,C02,3.17805383034795,0.5,0.4482974638389,0.473443483342468,0.5,0.5,0.526556516657532,0.473443483342468,0.5,0.5,0.5,0.5,0.473443483342468,0.5,0.5,0.5,0.5517025361611,0.5,0.5,0.5,0.5,0.381799788886009,0.500332263621867,0.5,0.0265565166575316,0.5,0.0531130333150631,0.572723035974143,7.45000653952995,2.19780102959478,0.5,54.3181248471562
CBC_1119,CBC_1119_MSI_AV_v3_Vset3_Aset1_2024-05-22_16h30.20.038.csv,2,10,3,2,b,1,0,3,aud,D,63,1,3D,2D,1,0,b,1.65625000000182,1,0,1,1,3D,2D,D32,2.52572864430826,0.5,0.4482974638389,0.473443483342468,0.5,0.5,0.526556516657532,0.473443483342468,0.5,0.5,0.5,0.526556516657532,0.473443483342468,0.5,0.5,0.5,0.5517025361611,0.524580399106872,0.475419600893128,0.5517025361611,0.5,0.298989909899016,0.691317644060287,0.4482974638389,0.0238104381319338,0.5,0.0531130333150631,0.572723035974143,7.45000653952995,2.19780102959478,0.5,54.3181248471562
CBC_1119,CBC_1119_MSI_AV_v3_Vset3_Aset1_2024-05-22_16h30.20.038.csv,2,11,0,1,z,0,1,1,aud,B,63,0,0B,1B,1,0,b,2.10524650000116,1,0,0,1,0B,1B,B01,3.25809653802148,0.5,0.4482974638389,0.473443483342468,0.5,0.5,0.526556516657532,0.473443483342468,0.5,0.5,0.5,0.526556516657532,0.473443483342468,0.5,0.5,0.5,0.575512974293033,0.48706524374128,0.51293475625872,0.5,0.526556516657532,0.106933744081158,0.395876023427875,0.5,0.0265565166575316,0.5,0.0531130333150631,0.572723035974143,7.45000653952995,2.19780102959478,0.5,54.3181248471562
CBC_1119,CBC_1119_MSI_AV_v3_Vset3_Aset1_2024-05-22_16h30.20.038.csv,2,12,1,0,z,0,1,0,aud,A,63,1,1A,0A,0,1,b,2.06125150000116,1,0,0,0,1A,0A,A10,2.60268968544438,0.5,0.4482974638389,0.473443483342468,0.5,0.526556516657532,0.526556516657532,0.473443483342468,0.5,0.5,0.5,0.526556516657532,0.473443483342468,0.5,0.5,0.5,0.575512974293033,0.472739283751853,0.527260716248147,0.4482974638389,0.5,0.0806884339146691,0.2913261825858,-0.4482974638389,-0.0238104381319338,0.5,0.0531130333150631,0.572723035974143,7.45000653952995,2.19780102959478,0.5,54.3181248471562
CBC_1119,CBC_1119_MSI_AV_v3_Vset3_Aset1_2024-05-22_16h30.20.038.csv,2,13,3,2,b,1,0,3,aud,D,63,1,3D,2D,1,0,b,2.28523370000039,1,0,1,1,3D,2D,D32,2.23359222150709,0.5,0.424487025706967,0.473443483342468,0.5,0.526556516657532,0.526556516657532,0.473443483342468,0.5,0.5,0.5,0.526556516657532,0.473443483342468,0.5,0.5,0.5,0.575512974293033,0.535105561763525,0.464894438236475,0.575512974293033,0.5,0.158963349679902,0.759689860750403,0.424487025706967,0.0225457935381862,0.5,0.0531130333150631,0.572723035974143,7.45000653952995,2.19780102959478,0.5,54.3181248471562
CBC_1119,CBC_1119_MSI_AV_v3_Vset3_Aset1_2024-05-22_16h30.20.038.csv,2,14,0,2,z,0,1,2,aud,C,27,1,0C,2C,0,1,z,1.73582400000123,0,1,1,1,2C,0C,C02,2.67414864942653,0.5,0.424487025706967,0.473443483342468,0.5,0.526556516657532,0.526556516657532,0.473443483342468,0.5,0.5,0.5,0.526556516657532,0.473443483342468,0.5,0.5,0.5,0.59805876783122,0.51293475625872,0.48706524374128,0.526556516657532,0.5,0.239567312439985,0.604072690280257,0.473443483342468,0.0251460195035681,0.5,0.0531130333150631,0.572723035974143,7.45000653952995,2.19780102959478,0.5,54.3181248471562
CBC_1119,CBC_1119_MSI_AV_v3_Vset3_Aset1_2024-05-22_16h30.20.038.csv,2,15,1,0,z,0,1,0,aud,A,63,1,1A,0A,0,1,z,0.778493800000433,0,1,1,1,0A,1A,A10,2.30258509299405,0.5,0.424487025706967,0.473443483342468,0.5,0.526556516657532,0.526556516657532,0.473443483342468,0.5,0.5,0.5,0.5517025361611,0.473443483342468,0.5,0.5,0.5,0.59805876783122,0.540840472712577,0.459159527287423,0.5,0.424487025706967,0.469214833353793,0.792111556939044,0.5,0.0265565166575316,0.5,0.0531130333150631,0.572723035974143,7.45000653952995,2.19780102959478,0.5,54.3181248471562
CBC_1119,CBC_1119_MSI_AV_v3_Vset3_Aset1_2024-05-22_16h30.20.038.csv,2,16,3,1,z,0,1,1,aud,B,27,1,3B,1B,0,1,b,1.75214720000076,1,0,0,0,3B,1B,B31,3.43398720448515,0.526556516657532,0.424487025706967,0.473443483342468,0.5,0.526556516657532,0.526556516657532,0.473443483342468,0.5,0.5,0.5,0.5517025361611,0.473443483342468,0.5,0.5,0.5,0.59805876783122,0.48706524374128,0.51293475625872,0.5,0.526556516657532,0.153720195031528,0.394231252745802,-0.5,-0.0265565166575316,0.5,0.0531130333150631,0.572723035974143,7.45000653952995,2.19780102959478,0.5,54.3181248471562
CBC_1119,CBC_1119_MSI_AV_v3_Vset3_Aset1_2024-05-22_16h30.20.038.csv,2,17,2,3,b,1,0,2,aud,C,63,1,2C,3C,1,0,z,2.45167520000177,0,1,0,0,3C,2C,C23,3.46573590279973,0.526556516657532,0.424487025706967,0.473443483342468,0.5,0.526556516657532,0.526556516657532,0.473443483342468,0.473443483342468,0.5,0.5,0.5517025361611,0.473443483342468,0.5,0.5,0.5,0.59805876783122,0.461830289866156,0.538169710133845,0.473443483342468,0.5517025361611,0.0375978912256515,0.222326316334866,-0.473443483342468,-0.0251460195035681,0.5,0.0531130333150631,0.572723035974143,7.45000653952995,2.19780102959478,0.5,54.3181248471562
CBC_1119,CBC_1119_MSI_AV_v3_Vset3_Aset1_2024-05-22_16h30.20.038.csv,2,18,3,2,b,1,0,3,aud,D,63,0,3D,2D,0,1,z,2.31148530000246,0,1,0,1,2D,3D,D32,2.11021320034659,0.526556516657532,0.424487025706967,0.473443483342468,0.5,0.526556516657532,0.526556516657532,0.473443483342468,0.473443483342468,0.5,0.5,0.5517025361611,0.4482974638389,0.5,0.5,0.5,0.59805876783122,0.455349034722023,0.544650965277977,0.5,0.59805876783122,0.0361549400650444,0.188507257305906,0.5,0.0265565166575316,0.5,0.0531130333150631,0.572723035974143,7.45000653952995,2.19780102959478,0.5,54.3181248471562
CBC_1119,CBC_1119_MSI_AV_v3_Vset3_Aset1_2024-05-22_16h30.20.038.csv,2,19,0,1,z,0,1,1,aud,B,63,1,0B,1B,0,1,z,1.05726020000111,0,1,1,1,1B,0B,B01,2.83321334405622,0.526556516657532,0.424487025706967,0.473443483342468,0.5,0.526556516657532,0.526556516657532,0.473443483342468,0.473443483342468,0.5,0.5,0.5517025361611,0.4482974638389,0.5,0.5,0.526556516657532,0.59805876783122,0.5,0.5,0.526556516657532,0.526556516657532,0.373587011150994,0.499721158448225,0.473443483342468,0.0251460195035681,0.5,0.0531130333150631,0.572723035974143,7.45000653952995,2.19780102959478,0.5,54.3181248471562
CBC_1119,CBC_1119_MSI_AV_v3_Vset3_Aset1_2024-05-22_16h30.20.038.csv,2,20,0,2,b,1,0,0,aud,A,27,1,0A,2A,1,0,b,0.911675400002423,1,0,1,1,0A,2A,A02,3.55534806148941,0.526556516657532,0.424487025706967,0.473443483342468,0.5,0.526556516657532,0.5517025361611,0.473443483342468,0.473443483342468,0.5,0.5,0.5517025361611,0.4482974638389,0.5,0.5,0.526556516657532,0.59805876783122,0.526556516657532,0.473443483342468,0.526556516657532,0.473443483342468,0.563025152596209,0.704867747632342,0.473443483342468,0.0251460195035681,0.5,0.0531130333150631,0.572723035974143,7.45000653952995,2.19780102959478,0.5,54.3181248471562
CBC_1119,CBC_1119_MSI_AV_v3_Vset3_Aset1_2024-05-22_16h30.20.038.csv,2,21,3,0,b,1,0,3,aud,D,9,1,3D,0D,1,0,b,1.22612860000118,1,0,1,1,3D,0D,D30,3.58351893845611,0.5517025361611,0.424487025706967,0.473443483342468,0.5,0.526556516657532,0.5517025361611,0.473443483342468,0.473443483342468,0.5,0.5,0.5517025361611,0.4482974638389,0.5,0.5,0.526556516657532,0.59805876783122,0.544650965277977,0.455349034722023,0.59805876783122,0.5,0.591371706874573,0.812074237511257,0.40194123216878,0.0213483180548779,0.5,0.0531130333150631,0.572723035974143,7.45000653952995,2.19780102959478,0.5,54.3181248471562
CBC_1119,CBC_1119_MSI_AV_v3_Vset3_Aset1_2024-05-22_16h30.20.038.csv,2,22,3,2,z,0,1,2,aud,C,63,1,3C,2C,0,1,b,1.87197610000112,1,0,0,0,3C,2C,C32,2.91777073208428,0.5517025361611,0.424487025706967,0.473443483342468,0.5,0.526556516657532,0.5517025361611,0.473443483342468,0.473443483342468,0.5,0.5,0.5517025361611,0.4482974638389,0.5,0.5,0.526556516657532,0.619407085886098,0.4482974638389,0.5517025361611,0.4482974638389,0.5517025361611,0.0503430068388225,0.155477321381354,-0.4482974638389,-0.0238104381319338,0.5,0.0531130333150631,0.572723035974143,7.45000653952995,2.19780102959478,0.5,54.3181248471562
CBC_1119,CBC_1119_MSI_AV_v3_Vset3_Aset1_2024-05-22_16h30.20.038.csv,2,23,1,3,b,1,0,1,aud,B,27,1,1B,3B,1,0,b,1.17141860000083,1,0,1,1,1B,3B,B13,3.63758615972639,0.5517025361611,0.424487025706967,0.473443483342468,0.5,0.526556516657532,0.5517025361611,0.473443483342468,0.473443483342468,0.5,0.5,0.5517025361611,0.424487025706967,0.5,0.5,0.526556516657532,0.619407085886098,0.538169710133845,0.461830289866156,0.5517025361611,0.473443483342468,0.585240914604377,0.777639653624248,0.4482974638389,0.0238104381319338,0.5,0.0531130333150631,0.572723035974143,7.45000653952995,2.19780102959478,0.5,54.3181248471562
CBC_1119,CBC_1119_MSI_AV_v3_Vset3_Aset1_2024-05-22_16h30.20.038.csv,2,24,2,3,b,1,0,2,aud,C,63,1,2C,3C,1,0,b,2.08544210000218,1,0,1,1,2C,3C,C23,2.9704144655697,0.5517025361611,0.424487025706967,0.473443483342468,0.5,0.526556516657532,0.575512974293033,0.473443483342468,0.473443483342468,0.5,0.5,0.5517025361611,0.424487025706967,0.5,0.5,0.526556516657532,0.619407085886098,0.565159224920767,0.434840775079233,0.5517025361611,0.424487025706967,0.197572331021013,0.894126196109268,0.4482974638389,0.0238104381319338,0.5,0.0531130333150631,0.572723035974143,7.45000653952995,2.19780102959478,0.5,54.3181248471562
CBC_1119,CBC_1119_MSI_AV_v3_Vset3_Aset1_2024-05-22_16h30.20.038.csv,2,25,3,2,b,1,0,3,aud,D,63,1,3D,2D,1,0,b,1.03068860000167,1,0,1,1,3D,2D,D32,2.07944154167984,0.5517025361611,0.424487025706967,0.473443483342468,0.5,0.526556516657532,0.575512974293033,0.473443483342468,0.473443483342468,0.5,0.5,0.575512974293033,0.424487025706967,0.5,0.5,0.526556516657532,0.619407085886098,0.540512006237576,0.459487993762424,0.619407085886098,0.526556516657532,0.675476915870689,0.790045689624737,0.380592914113902,0.0202144441268087,0.5,0.0531130333150631,0.572723035974143,7.45000653952995,2.19780102959478,0.5,54.3181248471562
CBC_1119,CBC_1119_MSI_AV_v3_Vset3_Aset1_2024-05-22_16h30.20.038.csv,2,26,0,1,z,0,1,1,aud,B,63,1,0B,1B,0,1,z,0.875653700002658,0,1,1,1,1B,0B,B01,2.6149597780362,0.5517025361611,0.424487025706967,0.473443483342468,0.5,0.526556516657532,0.575512974293033,0.473443483342468,0.473443483342468,0.5,0.5,0.575512974293033,0.424487025706967,0.5,0.5,0.526556516657532,0.639621530012906,0.522211148224998,0.477788851775002,0.575512974293033,0.526556516657532,0.506998478326551,0.674264481295814,0.424487025706967,0.0225457935381862,0.5,0.0531130333150631,0.572723035974143,7.45000653952995,2.19780102959478,0.5,54.3181248471562
CBC_1119,CBC_1119_MSI_AV_v3_Vset3_Aset1_2024-05-22_16h30.20.038.csv,2,27,3,0,z,0,1,0,aud,A,9,1,3A,0A,0,1,z,0.682206300001781,0,1,1,1,0A,3A,A30,3.73766961828337,0.5517025361611,0.424487025706967,0.473443483342468,0.5,0.526556516657532,0.59805876783122,0.473443483342468,0.473443483342468,0.5,0.5,0.575512974293033,0.424487025706967,0.5,0.5,0.526556516657532,0.639621530012906,0.524580399106872,0.475419600893128,0.5517025361611,0.5,0.0723216565576589,0.690946780455593,0.4482974638389,0.0238104381319338,0.5,0.0531130333150631,0.572723035974143,7.45000653952995,2.19780102959478,0.5,54.3181248471562
CBC_1119,CBC_1119_MSI_AV_v3_Vset3_Aset1_2024-05-22_16h30.20.038.csv,2,28,3,2,b,1,0,3,aud,D,63,1,3D,2D,1,0,b,1.66949090000162,1,0,1,1,3D,2D,D32,1.96944064646551,0.575512974293033,0.424487025706967,0.473443483342468,0.5,0.526556516657532,0.59805876783122,0.473443483342468,0.473443483342468,0.5,0.5,0.575512974293033,0.424487025706967,0.5,0.5,0.526556516657532,0.639621530012906,0.548476737183566,0.451523262816434,0.639621530012906,0.526556516657532,0.352317031445093,0.830461884424172,0.360378469987094,0.019140793682456,0.5,0.0531130333150631,0.572723035974143,7.45000653952995,2.19780102959478,0.5,54.3181248471562
CBC_1119,CBC_1119_MSI_AV_v3_Vset3_Aset1_2024-05-22_16h30.20.038.csv,2,29,0,2,z,0,1,2,aud,C,27,1,0C,2C,0,1,z,2.17166060000272,0,1,1,1,2C,0C,C02,2.68557734525015,0.575512974293033,0.424487025706967,0.473443483342468,0.5,0.526556516657532,0.59805876783122,0.473443483342468,0.473443483342468,0.5,0.5,0.575512974293033,0.424487025706967,0.5,0.5,0.526556516657532,0.658762323695362,0.535105561763525,0.464894438236475,0.575512974293033,0.5,0.181447781401203,0.760762291975395,0.424487025706967,0.0225457935381862,0.5,0.0531130333150631,0.572723035974143,7.45000653952995,2.19780102959478,0.5,54.3181248471562
CBC_1119,CBC_1119_MSI_AV_v3_Vset3_Aset1_2024-05-22_16h30.20.038.csv,2,30,0,1,b,1,0,0,aud,A,63,0,0A,1A,0,1,b,1.47835810000288,1,0,1,0,0A,1A,A01,3.11351530921037,0.575512974293033,0.424487025706967,0.473443483342468,0.5,0.526556516657532,0.59805876783122,0.473443483342468,0.473443483342468,0.5,0.5,0.59805876783122,0.424487025706967,0.5,0.5,0.526556516657532,0.658762323695362,0.575512974293033,0.424487025706967,0.575512974293033,0.424487025706967,0.499517388406658,0.922116153380279,-0.575512974293033,-0.030567239776877,0.5,0.0531130333150631,0.572723035974143,7.45000653952995,2.19780102959478,0.5,54.3181248471562
CBC_1119,CBC_1119_MSI_AV_v3_Vset3_Aset1_2024-05-22_16h30.20.038.csv,2,31,0,1,z,0,1,1,aud,B,63,1,0B,1B,0,1,z,1.19625300000189,0,1,1,1,1B,0B,B01,2.4423470353692,0.544945734516157,0.424487025706967,0.473443483342468,0.5,0.526556516657532,0.59805876783122,0.473443483342468,0.473443483342468,0.5,0.5,0.59805876783122,0.424487025706967,0.5,0.5,0.526556516657532,0.658762323695362,0.531789649384942,0.468210350615058,0.59805876783122,0.526556516657532,0.529520166305513,0.738721997156608,0.40194123216878,0.0213483180548779,0.5,0.0531130333150631,0.572723035974143,7.45000653952995,2.19780102959478,0.5,54.3181248471562
CBC_1119,CBC_1119_MSI_AV_v3_Vset3_Aset1_2024-05-22_16h30.20.038.csv,2,32,1,3,z,0,1,3,aud,D,27,1,1D,3D,0,1,z,1.18212470000253,0,1,1,1,3D,1D,D13,3.85014760171006,0.544945734516157,0.424487025706967,0.473443483342468,0.5,0.526556516657532,0.619407085886098,0.473443483342468,0.473443483342468,0.5,0.5,0.59805876783122,0.424487025706967,0.5,0.5,0.526556516657532,0.658762323695362,0.568505128467182,0.431494871532818,0.658762323695362,0.5,0.763773294489701,0.904031948602616,0.341237676304638,0.0181241680699229,0.5,0.0531130333150631,0.572723035974143,7.45000653952995,2.19780102959478,0.5,54.3181248471562
CBC_1119,CBC_1119_MSI_AV_v3_Vset3_Aset1_2024-05-22_16h30.20.038.csv,2,33,2,3,b,1,0,2,aud,C,63,1,2C,3C,1,0,b,2.09914519999984,1,0,1,1,2C,3C,C23,2.77258872223978,0.544945734516157,0.424487025706967,0.473443483342468,0.5,0.526556516657532,0.619407085886098,0.473443483342468,0.473443483342468,0.5,0.5,0.59805876783122,0.424487025706967,0.5,0.5,0.526556516657532,0.676886491765285,0.584872356436803,0.415127643563197,0.59805876783122,0.424487025706967,0.162004805665334,0.941495073125777,0.40194123216878,0.0213483180548779,0.5,0.0531130333150631,0.572723035974143,7.45000653952995,2.19780102959478,0.5,54.3181248471562
CBC_1119,CBC_1119_MSI_AV_v3_Vset3_Aset1_2024-05-22_16h30.20.038.csv,2,34,0,1,z,0,1,1,aud,B,63,1,0B,1B,0,1,z,1.50092580000091,0,1,1,1,1B,0B,B01,2.28238238567653,0.544945734516157,0.424487025706967,0.473443483342468,0.5,0.526556516657532,0.619407085886098,0.473443483342468,0.473443483342468,0.5,0.5,0.619407085886098,0.424487025706967,0.5,0.5,0.526556516657532,0.676886491765285,0.540512006237576,0.459487993762424,0.619407085886098,0.526556516657532,0.412079261794291,0.789761335278768,0.380592914113902,0.0202144441268087,0.5,0.0531130333150631,0.572723035974143,7.45000653952995,2.19780102959478,0.5,54.3181248471562
CBC_1119,CBC_1119_MSI_AV_v3_Vset3_Aset1_2024-05-22_16h30.20.038.csv,2,35,1,0,z,0,1,0,aud,A,63,1,1A,0A,0,1,z,1.29751170000054,0,1,1,1,0A,1A,A10,2.52572864430826,0.544945734516157,0.424487025706967,0.473443483342468,0.5,0.526556516657532,0.639621530012906,0.473443483342468,0.473443483342468,0.5,0.5,0.619407085886098,0.424487025706967,0.5,0.5,0.526556516657532,0.676886491765285,0.56212844962113,0.43787155037887,0.544945734516157,0.424487025706967,0.623892919957621,0.884489025519617,0.455054265483843,0.024169312362805,0.5,0.0531130333150631,0.572723035974143,7.45000653952995,2.19780102959478,0.5,54.3181248471562
CBC_1119,CBC_1119_MSI_AV_v3_Vset3_Aset1_2024-05-22_16h30.20.038.csv,2,36,2,1,b,1,0,2,aud,C,9,1,2C,1C,1,0,b,1.11926270000004,1,0,1,1,2C,1C,C21,3.93182563272433,0.569115046878962,0.424487025706967,0.473443483342468,0.5,0.526556516657532,0.639621530012906,0.473443483342468,0.473443483342468,0.5,0.5,0.619407085886098,0.424487025706967,0.5,0.5,0.526556516657532,0.676886491765285,0.553334969642245,0.446665030357755,0.619407085886098,0.5,0.723714348242021,0.851322668819659,0.380592914113902,0.0202144441268087,0.5,0.0531130333150631,0.572723035974143,7.45000653952995,2.19780102959478,0.5,54.3181248471562
CBC_1119,CBC_1119_MSI_AV_v3_Vset3_Aset1_2024-05-22_16h30.20.038.csv,2,37,0,1,b,1,0,0,aud,A,63,1,0A,1A,1,0,b,1.14214210000318,1,0,1,1,0A,1A,A01,2.85263142991332,0.569115046878962,0.424487025706967,0.473443483342468,0.5,0.526556516657532,0.639621530012906,0.473443483342468,0.473443483342468,0.5,0.5,0.639621530012906,0.424487025706967,0.5,0.5,0.526556516657532,0.676886491765285,0.572779649500725,0.427220350499275,0.569115046878962,0.424487025706967,0.83244988672173,0.915781578234768,0.430884953121038,0.0228856068700771,0.5,0.0531130333150631,0.572723035974143,7.45000653952995,2.19780102959478,0.5,54.3181248471562
CBC_1119,CBC_1119_MSI_AV_v3_Vset3_Aset1_2024-05-22_16h30.20.038.csv,2,38,1,3,z,0,1,3,aud,D,27,1,1D,3D,0,1,z,1.04785170000105,0,1,1,1,3D,1D,D13,3.27714473299218,0.592000653749039,0.424487025706967,0.473443483342468,0.5,0.526556516657532,0.639621530012906,0.473443483342468,0.473443483342468,0.5,0.5,0.639621530012906,0.424487025706967,0.5,0.5,0.526556516657532,0.676886491765285,0.575150192054614,0.424849807945386,0.676886491765285,0.5,0.955028965130302,0.921542215049715,0.323113508234715,0.0171615385274173,0.5,0.0531130333150631,0.572723035974143,7.45000653952995,2.19780102959478,0.5,54.3181248471562
CBC_1119,CBC_1119_MSI_AV_v3_Vset3_Aset1_2024-05-22_16h30.20.038.csv,2,39,1,0,b,1,0,1,aud,B,63,1,1B,0B,1,0,b,0.872239100001025,1,0,1,1,1B,0B,B10,3.29583686600433,0.592000653749039,0.424487025706967,0.473443483342468,0.5,0.526556516657532,0.639621530012906,0.473443483342468,0.473443483342468,0.5,0.5,0.639621530012906,0.424487025706967,0.5,0.5,0.526556516657532,0.694048030292702,0.548476737183566,0.451523262816434,0.639621530012906,0.526556516657532,0.728365581114065,0.830112749504534,0.360378469987094,0.019140793682456,0.5,0.0531130333150631,0.572723035974143,7.45000653952995,2.19780102959478,0.5,54.3181248471562
CBC_1119,CBC_1119_MSI_AV_v3_Vset3_Aset1_2024-05-22_16h30.20.038.csv,2,40,3,2,z,0,1,2,aud,C,63,0,3C,2C,1,0,z,1.86228579999988,0,1,1,0,2C,3C,C32,2.90872089656436,0.592000653749039,0.424487025706967,0.473443483342468,0.5,0.526556516657532,0.658762323695362,0.473443483342468,0.473443483342468,0.5,0.5,0.639621530012906,0.424487025706967,0.5,0.5,0.526556516657532,0.694048030292702,0.601086728017331,0.398913271982669,0.639621530012906,0.424487025706967,0.211186445708266,0.964753407043908,-0.639621530012906,-0.0339722396326071,0.5,0.0531130333150631,0.572723035974143,7.45000653952995,2.19780102959478,0.5,54.3181248471562
CBC_1119,CBC_1119_MSI_AV_v3_Vset3_Aset1_2024-05-22_16h30.20.038.csv,2,41,0,2,b,1,0,0,aud,A,27,1,0A,2A,1,0,b,1.23547470000267,1,0,1,1,0A,2A,A02,3.3322045101752,0.592000653749039,0.424487025706967,0.473443483342468,0.5,0.526556516657532,0.658762323695362,0.473443483342468,0.473443483342468,0.5,0.5,0.605649290380299,0.424487025706967,0.5,0.5,0.526556516657532,0.694048030292702,0.555637440893998,0.444362559106002,0.592000653749039,0.473443483342468,0.645362142860774,0.860557898630729,0.407999346250961,0.0216700828699513,0.5,0.0531130333150631,0.572723035974143,7.45000653952995,2.19780102959478,0.5,54.3181248471562
CBC_1119,CBC_1119_MSI_AV_v3_Vset3_Aset1_2024-05-22_16h30.20.038.csv,2,42,2,3,z,0,1,3,aud,D,63,1,2D,3D,0,1,z,1.83738190000258,0,1,1,1,3D,2D,D23,4.04305126783455,0.61367073661899,0.424487025706967,0.473443483342468,0.5,0.526556516657532,0.658762323695362,0.473443483342468,0.473443483342468,0.5,0.5,0.605649290380299,0.424487025706967,0.5,0.5,0.526556516657532,0.694048030292702,0.568610064600226,0.431389935399774,0.694048030292702,0.526556516657532,0.28370804100256,0.904449702612169,0.305951969707298,0.0162500371598729,0.5,0.0531130333150631,0.572723035974143,7.45000653952995,2.19780102959478,0.5,54.3181248471562
CBC_1119,CBC_1119_MSI_AV_v3_Vset3_Aset1_2024-05-22_16h30.20.038.csv,2,43,1,3,b,1,0,1,aud,B,27,1,1B,3B,1,0,b,0.987561600000845,1,0,1,1,1B,3B,B13,3.36729582998647,0.61367073661899,0.424487025706967,0.473443483342468,0.5,0.526556516657532,0.658762323695362,0.473443483342468,0.473443483342468,0.5,0.5,0.605649290380299,0.424487025706967,0.5,0.5,0.526556516657532,0.710298067452575,0.581839732317634,0.418160267682366,0.658762323695362,0.473443483342468,1.07377883461163,0.935823720566248,0.341237676304638,0.0181241680699229,0.5,0.0531130333150631,0.572723035974143,7.45000653952995,2.19780102959478,0.5,54.3181248471562
CBC_1119,CBC_1119_MSI_AV_v3_Vset3_Aset1_2024-05-22_16h30.20.038.csv,2,44,3,2,z,0,1,2,aud,C,63,1,3C,2C,0,1,z,1.71481010000025,0,1,1,1,2C,3C,C32,2.69124308278583,0.61367073661899,0.424487025706967,0.473443483342468,0.5,0.526556516657532,0.676886491765285,0.473443483342468,0.473443483342468,0.5,0.5,0.605649290380299,0.424487025706967,0.5,0.5,0.526556516657532,0.710298067452575,0.587931209609926,0.412068790390074,0.605649290380299,0.424487025706967,0.320431104817506,0.946927176200553,0.394350709619701,0.02094516237785,0.5,0.0531130333150631,0.572723035974143,7.45000653952995,2.19780102959478,0.5,54.3181248471562
