ID,session,trialNr,mod2Stim,visStimLeft,visStimRight,correctKey,frequency,rewardAccurate,probFB,stimPairLeft,stimPairRight,leftCorrect,rightCorrect,pCorrectLeft,pCorrectRight,triplet,rt,surprise,0A belief,1A belief,2A belief,3A belief,0B belief,1B belief,2B belief,3B belief,0C belief,1C belief,2C belief,3C belief,0D belief,1D belief,2D belief,3D belief,reactionTime,choice,choiceLeft,choiceRight,chosenPair,otherPair,beliefPair,beliefOtherPair,beliefPairNorm,beliefOtherPairNorm,choiceAccurate,reward,rewardPE,update2,sim_CBCsimpleRW_CBCdriftDiffusionLR_startBelief,sim_CBCsimpleRW_CBCdriftDiffusionLR_alpha1,sim_CBCsimpleRW_CBCdriftDiffusionLR_nonDecisionTime,sim_CBCsimpleRW_CBCdriftDiffusionLR_weight,sim_CBCsimpleRW_CBCdriftDiffusionLR_startingBoundary,sim_CBCsimpleRW_CBCdriftDiffusionLR_startingPoint,lik,corrLik,fitCBCsimpleRW_CBCdriftDiffusionLR_startBelief,fitCBCsimpleRW_CBCdriftDiffusionLR_alpha1,fitCBCsimpleRW_CBCdriftDiffusionLR_nonDecisionTime,fitCBCsimpleRW_CBCdriftDiffusionLR_weight,fitCBCsimpleRW_CBCdriftDiffusionLR_startingBoundary,fitCBCsimpleRW_CBCdriftDiffusionLR_startingPoint,fit_CBCsimpleRW_CBCdriftDiffusionLR_NLL
170,1,1,B,0,1,l,63,1,1,0B,1B,0,1,0,1,B01,3.18675252174346,2.77258872223978,0.5,0.5,0.5,0.5,0.5,0.5,0.5,0.5,0.5,0.5,0.5,0.5,0.5,0.5,0.5,0.5,1.54204090225149,1,1,0,0B,1B,0.5,0.5,0.5,0.5,0,0,-0.5,-0.11666850113121,0.5,0.286706894996625,1.01804090225149,9.57434441549724,3.43256784380252,0.5,0.0806260149623927,0.500672006599095,0.5,0.23333700226242,1.01243858908414,11.2188435276753,3.65751449883826,0.5,13.1246913685654
170,1,2,A,0,1,a,63,1,1,0A,1A,1,0,1,0,A01,2.04854038908309,2.83321334405622,0.5,0.5,0.5,0.5,0.38333149886879,0.5,0.5,0.5,0.5,0.5,0.5,0.5,0.5,0.5,0.5,0.5,1.63504090225149,0,0,1,1A,0A,0.5,0.5,0.5,0.5,0,0,-0.5,-0.11666850113121,0.5,0.286706894996625,1.01804090225149,9.57434441549724,3.43256784380252,0.5,0.1015265096379,0.501441153823089,0.5,0.23333700226242,1.01243858908414,11.2188435276753,3.65751449883826,0.5,13.1246913685654
170,1,3,D,2,3,l,63,1,1,2D,3D,0,1,0,1,D23,1.47995976185875,2.89037175789616,0.5,0.38333149886879,0.5,0.5,0.38333149886879,0.5,0.5,0.5,0.5,0.5,0.5,0.5,0.5,0.5,0.5,0.5,8.54904090225149,0,0,1,3D,2D,0.5,0.5,0.5,0.5,1,1,0.5,0.11666850113121,0.5,0.286706894996625,1.01804090225149,9.57434441549724,3.43256784380252,0.5,0.0145727118850487,0.500207727449557,0.5,0.23333700226242,1.01243858908414,11.2188435276753,3.65751449883826,0.5,13.1246913685654
170,1,4,B,2,1,l,9,1,1,2B,1B,0,1,0,1,B21,1.04590943812004,2.94443897916644,0.5,0.38333149886879,0.5,0.5,0.38333149886879,0.5,0.5,0.5,0.5,0.5,0.5,0.5,0.5,0.5,0.5,0.61666850113121,5.19504090225149,0,0,1,1B,2B,0.5,0.5,0.5,0.5,1,1,0.5,0.11666850113121,0.5,0.286706894996625,1.01804090225149,9.57434441549724,3.43256784380252,0.5,0.0502446598511169,0.500461598604284,0.5,0.23333700226242,1.01243858908414,11.2188435276753,3.65751449883826,0.5,13.1246913685654
170,1,5,A,0,2,a,27,1,1,0A,2A,1,0,1,0,A02,2.50516782279833,2.99573227355399,0.5,0.38333149886879,0.5,0.5,0.38333149886879,0.61666850113121,0.5,0.5,0.5,0.5,0.5,0.5,0.5,0.5,0.5,0.61666850113121,3.08004090225149,0,0,1,2A,0A,0.5,0.5,0.5,0.5,0,0,-0.5,-0.11666850113121,0.5,0.286706894996625,1.01804090225149,9.57434441549724,3.43256784380252,0.5,0.109102348779357,0.501414961593543,0.5,0.23333700226242,1.01243858908414,11.2188435276753,3.65751449883826,0.5,13.1246913685654
170,1,6,C,2,3,a,63,1,1,2C,3C,1,0,1,0,C23,0.637277198269329,3.04452243772342,0.5,0.38333149886879,0.38333149886879,0.5,0.38333149886879,0.61666850113121,0.5,0.5,0.5,0.5,0.5,0.5,0.5,0.5,0.5,0.61666850113121,1.80804090225149,0,0,1,3C,2C,0.5,0.5,0.5,0.5,0,0,-0.5,-0.11666850113121,0.5,0.286706894996625,1.01804090225149,9.57434441549724,3.43256784380252,0.5,0.125542205825744,0.499489756097948,0.5,0.23333700226242,1.01243858908414,11.2188435276753,3.65751449883826,0.5,13.1246913685654
170,1,7,D,1,3,l,27,1,1,1D,3D,0,1,0,1,D13,1.49347266103073,3.09104245335832,0.5,0.38333149886879,0.38333149886879,0.5,0.38333149886879,0.61666850113121,0.5,0.5,0.5,0.5,0.5,0.38333149886879,0.5,0.5,0.5,0.61666850113121,1.93804090225149,0,0,1,3D,1D,0.61666850113121,0.5,0.552239541552852,0.447760458447148,1,1,0.38333149886879,0.0894454228188038,0.5,0.286706894996625,1.01804090225149,9.57434441549724,3.43256784380252,0.5,0.607474995142779,0.986426357567269,0.5,0.23333700226242,1.01243858908414,11.2188435276753,3.65751449883826,0.5,13.1246913685654
170,1,8,A,1,0,l,63,1,1,1A,0A,0,1,0,1,A10,3.46296189984912,3.13549421592915,0.5,0.38333149886879,0.38333149886879,0.5,0.38333149886879,0.61666850113121,0.5,0.5,0.5,0.5,0.5,0.38333149886879,0.5,0.5,0.5,0.706113923950014,1.93104090225149,0,0,1,0A,1A,0.5,0.38333149886879,0.566038911371675,0.433961088628325,1,1,0.5,0.11666850113121,0.5,0.286706894996625,1.01804090225149,9.57434441549724,3.43256784380252,0.5,0.735833221565493,0.995597822176301,0.5,0.23333700226242,1.01243858908414,11.2188435276753,3.65751449883826,0.5,13.1246913685654
170,1,9,C,2,0,a,27,1,1,2C,0C,1,0,1,0,C20,2.47678497941418,3.17805383034795,0.61666850113121,0.38333149886879,0.38333149886879,0.5,0.38333149886879,0.61666850113121,0.5,0.5,0.5,0.5,0.5,0.38333149886879,0.5,0.5,0.5,0.706113923950014,8.51704090225149,1,1,0,2C,0C,0.5,0.5,0.5,0.5,1,1,0.5,0.11666850113121,0.5,0.286706894996625,1.01804090225149,9.57434441549724,3.43256784380252,0.5,0.0147296958699188,0.499663060993068,0.5,0.23333700226242,1.01243858908414,11.2188435276753,3.65751449883826,0.5,13.1246913685654
170,1,10,D,2,3,l,63,1,1,2D,3D,0,1,0,1,D23,0.663508257641156,2.52572864430826,0.61666850113121,0.38333149886879,0.38333149886879,0.5,0.38333149886879,0.61666850113121,0.5,0.5,0.5,0.5,0.61666850113121,0.38333149886879,0.5,0.5,0.5,0.706113923950014,2.81504090225149,0,0,1,3D,2D,0.706113923950014,0.5,0.585445462429864,0.414554537570136,1,1,0.293886076049986,0.0685744959921694,0.5,0.286706894996625,1.01804090225149,9.57434441549724,3.43256784380252,0.5,0.144763588390743,0.999094458949223,0.5,0.23333700226242,1.01243858908414,11.2188435276753,3.65751449883826,0.5,13.1246913685654
170,1,11,B,1,0,a,63,1,1,1B,0B,1,0,1,0,B10,1.69196075946064,3.25809653802148,0.61666850113121,0.38333149886879,0.38333149886879,0.5,0.38333149886879,0.61666850113121,0.5,0.5,0.5,0.5,0.61666850113121,0.38333149886879,0.5,0.5,0.5,0.774688419942184,1.66004090225149,1,1,0,1B,0B,0.61666850113121,0.38333149886879,0.61666850113121,0.38333149886879,1,1,0.38333149886879,0.0894454228188038,0.5,0.286706894996625,1.01804090225149,9.57434441549724,3.43256784380252,0.5,1.38072015893684,0.999930426501596,0.5,0.23333700226242,1.01243858908414,11.2188435276753,3.65751449883826,0.5,13.1246913685654
170,1,12,A,0,1,a,63,1,1,0A,1A,1,0,1,0,A01,0.155029951167577,2.60268968544438,0.61666850113121,0.38333149886879,0.38333149886879,0.5,0.38333149886879,0.706113923950014,0.5,0.5,0.5,0.5,0.61666850113121,0.38333149886879,0.5,0.5,0.5,0.774688419942184,1.66804090225149,1,1,0,0A,1A,0.61666850113121,0.38333149886879,0.61666850113121,0.38333149886879,1,1,0.38333149886879,0.0894454228188038,0.5,0.286706894996625,1.01804090225149,9.57434441549724,3.43256784380252,0.5,1.36098363032191,0.999930230680438,0.5,0.23333700226242,1.01243858908414,11.2188435276753,3.65751449883826,0.5,13.1246913685654
170,1,13,D,2,3,l,63,1,1,2D,3D,0,1,0,1,D23,2.48865210547632,2.23359222150709,0.706113923950014,0.38333149886879,0.38333149886879,0.5,0.38333149886879,0.706113923950014,0.5,0.5,0.5,0.5,0.61666850113121,0.38333149886879,0.5,0.5,0.5,0.774688419942184,1.54104090225149,0,0,1,3D,2D,0.774688419942184,0.5,0.607747279901799,0.392252720098201,1,1,0.225311580057816,0.0525735286657002,0.5,0.286706894996625,1.01804090225149,9.57434441549724,3.43256784380252,0.5,1.42515070941038,0.99985580955931,0.5,0.23333700226242,1.01243858908414,11.2188435276753,3.65751449883826,0.5,13.1246913685654
170,1,14,C,2,0,a,27,1,1,2C,0C,1,0,1,0,C20,0.744842659383743,2.67414864942653,0.706113923950014,0.38333149886879,0.38333149886879,0.5,0.38333149886879,0.706113923950014,0.5,0.5,0.5,0.5,0.61666850113121,0.38333149886879,0.5,0.5,0.5,0.827261948607884,2.01404090225149,1,1,0,2C,0C,0.61666850113121,0.5,0.552239541552852,0.447760458447148,1,1,0.38333149886879,0.0894454228188038,0.5,0.286706894996625,1.01804090225149,9.57434441549724,3.43256784380252,0.5,0.587777627227629,0.986464313895314,0.5,0.23333700226242,1.01243858908414,11.2188435276753,3.65751449883826,0.5,13.1246913685654
170,1,15,A,0,1,a,63,1,1,0A,1A,1,0,1,0,A01,2.1553371178181,2.30258509299405,0.706113923950014,0.38333149886879,0.38333149886879,0.5,0.38333149886879,0.706113923950014,0.5,0.5,0.5,0.5,0.706113923950014,0.38333149886879,0.5,0.5,0.5,0.827261948607884,1.51904090225149,1,1,0,0A,1A,0.706113923950014,0.38333149886879,0.64814070458255,0.35185929541745,1,1,0.293886076049986,0.0685744959921694,0.5,0.286706894996625,1.01804090225149,9.57434441549724,3.43256784380252,0.5,1.98185954302779,0.999994750383608,0.5,0.23333700226242,1.01243858908414,11.2188435276753,3.65751449883826,0.5,13.1246913685654
170,1,16,B,1,3,a,27,1,1,1B,3B,1,0,1,0,B13,0.778089308599889,3.43398720448515,0.774688419942184,0.38333149886879,0.38333149886879,0.5,0.38333149886879,0.706113923950014,0.5,0.5,0.5,0.5,0.706113923950014,0.38333149886879,0.5,0.5,0.5,0.827261948607884,1.88504090225149,1,1,0,1B,3B,0.706113923950014,0.5,0.585445462429864,0.414554537570136,1,1,0.293886076049986,0.0685744959921694,0.5,0.286706894996625,1.01804090225149,9.57434441549724,3.43256784380252,0.5,0.882751854708811,0.999101829889931,0.5,0.23333700226242,1.01243858908414,11.2188435276753,3.65751449883826,0.5,13.1246913685654
170,1,17,C,3,2,l,63,1,1,3C,2C,0,1,0,1,C32,0.178030696634958,3.46573590279973,0.774688419942184,0.38333149886879,0.38333149886879,0.5,0.38333149886879,0.774688419942184,0.5,0.5,0.5,0.5,0.706113923950014,0.38333149886879,0.5,0.5,0.5,0.827261948607884,1.51904090225149,0,0,1,2C,3C,0.706113923950014,0.38333149886879,0.64814070458255,0.35185929541745,1,1,0.293886076049986,0.0685744959921694,0.5,0.286706894996625,1.01804090225149,9.57434441549724,3.43256784380252,0.5,1.98198584968529,0.999994758831319,0.5,0.23333700226242,1.01243858908414,11.2188435276753,3.65751449883826,0.5,13.1246913685654
170,1,18,D,2,3,l,63,1,1,2D,3D,0,1,0,1,D23,2.25813310743261,2.11021320034659,0.774688419942184,0.38333149886879,0.38333149886879,0.5,0.38333149886879,0.774688419942184,0.5,0.5,0.5,0.5,0.774688419942184,0.38333149886879,0.5,0.5,0.5,0.827261948607884,1.40104090225149,0,0,1,3D,2D,0.827261948607884,0.5,0.623284611960411,0.376715388039589,1,1,0.172738051392116,0.0403061790884883,0.5,0.286706894996625,1.01804090225149,9.57434441549724,3.43256784380252,0.5,1.44873571785732,0.99995949519577,0.5,0.23333700226242,1.01243858908414,11.2188435276753,3.65751449883826,0.5,13.1246913685654
170,1,19,B,1,0,a,63,1,1,1B,0B,1,0,1,0,B10,2.43440594240594,2.83321334405622,0.774688419942184,0.38333149886879,0.38333149886879,0.5,0.38333149886879,0.774688419942184,0.5,0.5,0.5,0.5,0.774688419942184,0.38333149886879,0.5,0.5,0.5,0.867568127696372,1.33604090225149,1,1,0,1B,0B,0.774688419942184,0.38333149886879,0.668976765734405,0.331023234265595,1,1,0.225311580057816,0.0525735286657002,0.5,0.286706894996625,1.01804090225149,9.57434441549724,3.43256784380252,0.5,2.26147192731048,0.999999042372361,0.5,0.23333700226242,1.01243858908414,11.2188435276753,3.65751449883826,0.5,13.1246913685654
170,1,20,A,2,0,l,27,1,1,2A,0A,0,1,0,1,A20,2.55778161255766,3.55534806148941,0.774688419942184,0.38333149886879,0.38333149886879,0.5,0.38333149886879,0.827261948607884,0.5,0.5,0.5,0.5,0.774688419942184,0.38333149886879,0.5,0.5,0.5,0.867568127696372,1.59404090225149,0,0,1,0A,2A,0.774688419942184,0.38333149886879,0.668976765734405,0.331023234265595,1,1,0.225311580057816,0.0525735286657002,0.5,0.286706894996625,1.01804090225149,9.57434441549724,3.43256784380252,0.5,1.45683675654755,0.999999046856974,0.5,0.23333700226242,1.01243858908414,11.2188435276753,3.65751449883826,0.5,13.1246913685654
170,1,21,D,0,3,l,9,1,1,0D,3D,0,1,0,1,D03,2.57736903824937,3.58351893845611,0.827261948607884,0.38333149886879,0.38333149886879,0.5,0.38333149886879,0.827261948607884,0.5,0.5,0.5,0.5,0.774688419942184,0.38333149886879,0.5,0.5,0.5,0.867568127696372,1.33804090225149,0,0,1,3D,0D,0.867568127696372,0.5,0.634387501526352,0.365612498473648,1,1,0.132431872303628,0.0309012560873282,0.5,0.286706894996625,1.01804090225149,9.57434441549724,3.43256784380252,0.5,1.30403362603,0.999983713782525,0.5,0.23333700226242,1.01243858908414,11.2188435276753,3.65751449883826,0.5,13.1246913685654
170,1,22,C,2,3,a,63,1,1,2C,3C,1,0,1,0,C23,0.27557775643255,2.91777073208428,0.827261948607884,0.38333149886879,0.38333149886879,0.5,0.38333149886879,0.827261948607884,0.5,0.5,0.5,0.5,0.774688419942184,0.38333149886879,0.5,0.5,0.5,0.8984693837837,1.60104090225149,1,1,0,2C,3C,0.774688419942184,0.38333149886879,0.668976765734405,0.331023234265595,1,1,0.225311580057816,0.0525735286657002,0.5,0.286706894996625,1.01804090225149,9.57434441549724,3.43256784380252,0.5,1.40852094188641,0.999999044154249,0.5,0.23333700226242,1.01243858908414,11.2188435276753,3.65751449883826,0.5,13.1246913685654
170,1,23,B,3,1,l,27,1,1,3B,1B,0,1,0,1,B31,1.23963600744574,3.63758615972639,0.827261948607884,0.38333149886879,0.38333149886879,0.5,0.38333149886879,0.827261948607884,0.5,0.5,0.5,0.5,0.827261948607884,0.38333149886879,0.5,0.5,0.5,0.8984693837837,2.20304090225149,0,0,1,1B,3B,0.827261948607884,0.5,0.623284611960411,0.376715388039589,1,1,0.172738051392116,0.0403061790884883,0.5,0.286706894996625,1.01804090225149,9.57434441549724,3.43256784380252,0.5,0.228548880093987,0.999959433279797,0.5,0.23333700226242,1.01243858908414,11.2188435276753,3.65751449883826,0.5,13.1246913685654
170,1,24,C,3,2,l,63,1,1,3C,2C,0,1,0,1,C32,3.17816275153785,2.9704144655697,0.827261948607884,0.38333149886879,0.38333149886879,0.5,0.38333149886879,0.867568127696372,0.5,0.5,0.5,0.5,0.827261948607884,0.38333149886879,0.5,0.5,0.5,0.8984693837837,1.47404090225149,0,0,1,2C,3C,0.827261948607884,0.38333149886879,0.683352408962897,0.316647591037103,1,1,0.172738051392116,0.0403061790884883,0.5,0.286706894996625,1.01804090225149,9.57434441549724,3.43256784380252,0.5,2.31378739807875,0.99999970875796,0.5,0.23333700226242,1.01243858908414,11.2188435276753,3.65751449883826,0.5,13.1246913685654
170,1,25,D,2,3,l,63,1,1,2D,3D,0,1,0,1,D23,1.79325116660696,2.07944154167984,0.827261948607884,0.38333149886879,0.38333149886879,0.5,0.38333149886879,0.867568127696372,0.5,0.5,0.5,0.5,0.867568127696372,0.38333149886879,0.5,0.5,0.5,0.8984693837837,1.85704090225149,0,0,1,3D,2D,0.8984693837837,0.5,0.642466252176934,0.357533747823066,1,1,0.1015306162163,0.0236908496257677,0.5,0.286706894996625,1.01804090225149,9.57434441549724,3.43256784380252,0.5,0.600222092369199,0.999991610849881,0.5,0.23333700226242,1.01243858908414,11.2188435276753,3.65751449883826,0.5,13.1246913685654
170,1,26,B,1,0,a,63,1,1,1B,0B,1,0,1,0,B10,3.26529106277891,2.6149597780362,0.827261948607884,0.38333149886879,0.38333149886879,0.5,0.38333149886879,0.867568127696372,0.5,0.5,0.5,0.5,0.867568127696372,0.38333149886879,0.5,0.5,0.5,0.922160233409468,1.21604090225149,1,1,0,1B,0B,0.867568127696372,0.38333149886879,0.693555349503639,0.306444650496361,1,1,0.132431872303628,0.0309012560873282,0.5,0.286706894996625,1.01804090225149,9.57434441549724,3.43256784380252,0.5,0.88945017542207,0.999999874462949,0.5,0.23333700226242,1.01243858908414,11.2188435276753,3.65751449883826,0.5,13.1246913685654
170,1,27,A,0,3,a,9,1,1,0A,3A,1,0,1,0,A03,2.70264022977186,3.73766961828337,0.827261948607884,0.38333149886879,0.38333149886879,0.5,0.38333149886879,0.8984693837837,0.5,0.5,0.5,0.5,0.867568127696372,0.38333149886879,0.5,0.5,0.5,0.922160233409468,1.58204090225149,1,1,0,0A,3A,0.827261948607884,0.5,0.623284611960411,0.376715388039589,1,1,0.172738051392116,0.0403061790884883,0.5,0.286706894996625,1.01804090225149,9.57434441549724,3.43256784380252,0.5,1.6038381086343,0.999959466978915,0.5,0.23333700226242,1.01243858908414,11.2188435276753,3.65751449883826,0.5,13.1246913685654
170,1,28,D,2,3,l,63,1,1,2D,3D,0,1,0,1,D23,2.4190282157883,1.96944064646551,0.867568127696372,0.38333149886879,0.38333149886879,0.5,0.38333149886879,0.8984693837837,0.5,0.5,0.5,0.5,0.867568127696372,0.38333149886879,0.5,0.5,0.5,0.922160233409468,1.67704090225149,0,0,1,3D,2D,0.922160233409468,0.5,0.648422176169765,0.351577823830235,1,1,0.077839766590532,0.0181628977930413,0.5,0.286706894996625,1.01804090225149,9.57434441549724,3.43256784380252,0.5,1.20467691950036,0.999994874667183,0.5,0.23333700226242,1.01243858908414,11.2188435276753,3.65751449883826,0.5,13.1246913685654
170,1,29,C,2,0,a,27,1,1,2C,0C,1,0,1,0,C20,0.259222310318742,2.68557734525015,0.867568127696372,0.38333149886879,0.38333149886879,0.5,0.38333149886879,0.8984693837837,0.5,0.5,0.5,0.5,0.867568127696372,0.38333149886879,0.5,0.5,0.5,0.940323131202509,1.75604090225149,1,1,0,2C,0C,0.867568127696372,0.5,0.634387501526352,0.365612498473648,1,1,0.132431872303628,0.0309012560873282,0.5,0.286706894996625,1.01804090225149,9.57434441549724,3.43256784380252,0.5,1.01445843545834,0.999983737460969,0.5,0.23333700226242,1.01243858908414,11.2188435276753,3.65751449883826,0.5,13.1246913685654
170,1,30,A,1,0,l,63,1,1,1A,0A,0,1,0,1,A10,2.13432393819376,3.11351530921037,0.867568127696372,0.38333149886879,0.38333149886879,0.5,0.38333149886879,0.8984693837837,0.5,0.5,0.5,0.5,0.8984693837837,0.38333149886879,0.5,0.5,0.5,0.940323131202509,1.54204090225149,0,0,1,0A,1A,0.867568127696372,0.38333149886879,0.693555349503639,0.306444650496361,1,1,0.132431872303628,0.0309012560873282,0.5,0.286706894996625,1.01804090225149,9.57434441549724,3.43256784380252,0.5,1.53509845190156,0.999999873534565,0.5,0.23333700226242,1.01243858908414,11.2188435276753,3.65751449883826,0.5,13.1246913685654
170,1,31,B,1,0,a,63,1,1,1B,0B,1,0,1,0,B10,0.811446538567259,2.4423470353692,0.8984693837837,0.38333149886879,0.38333149886879,0.5,0.38333149886879,0.8984693837837,0.5,0.5,0.5,0.5,0.8984693837837,0.38333149886879,0.5,0.5,0.5,0.940323131202509,1.43104090225149,1,1,0,1B,0B,0.8984693837837,0.38333149886879,0.70094302160602,0.29905697839398,1,1,0.1015306162163,0.0236908496257677,0.5,0.286706894996625,1.01804090225149,9.57434441549724,3.43256784380252,0.5,2.68264991763845,0.999999931285737,0.5,0.23333700226242,1.01243858908414,11.2188435276753,3.65751449883826,0.5,13.1246913685654
170,1,32,D,3,1,a,27,1,1,3D,1D,1,0,1,0,D31,2.06094876718386,3.85014760171006,0.8984693837837,0.38333149886879,0.38333149886879,0.5,0.38333149886879,0.922160233409468,0.5,0.5,0.5,0.5,0.8984693837837,0.38333149886879,0.5,0.5,0.5,0.940323131202509,1.75504090225149,1,1,0,3D,1D,0.940323131202509,0.5,0.652855675807584,0.347144324192416,1,1,0.0596768687974908,0.0139248216696143,0.5,0.286706894996625,1.01804090225149,9.57434441549724,3.43256784380252,0.5,0.806431319623752,0.999996415808577,0.5,0.23333700226242,1.01243858908414,11.2188435276753,3.65751449883826,0.5,13.1246913685654
170,1,33,C,3,2,l,63,1,1,3C,2C,0,1,0,1,C32,2.85002982759372,2.77258872223978,0.8984693837837,0.38333149886879,0.38333149886879,0.5,0.38333149886879,0.922160233409468,0.5,0.5,0.5,0.5,0.8984693837837,0.38333149886879,0.5,0.5,0.5,0.954247952872123,1.33304090225149,0,0,1,2C,3C,0.8984693837837,0.38333149886879,0.70094302160602,0.29905697839398,1,1,0.1015306162163,0.0236908496257677,0.5,0.286706894996625,1.01804090225149,9.57434441549724,3.43256784380252,0.5,3.1973454671615,0.999999931345323,0.5,0.23333700226242,1.01243858908414,11.2188435276753,3.65751449883826,0.5,13.1246913685654
170,1,34,B,1,0,a,63,1,1,1B,0B,1,0,1,0,B10,0.185892220406813,2.28238238567653,0.8984693837837,0.38333149886879,0.38333149886879,0.5,0.38333149886879,0.922160233409468,0.5,0.5,0.5,0.5,0.922160233409468,0.38333149886879,0.5,0.5,0.5,0.954247952872123,1.56804090225149,1,1,0,1B,0B,0.922160233409468,0.38333149886879,0.706370029475541,0.293629970524459,1,1,0.077839766590532,0.0181628977930413,0.5,0.286706894996625,1.01804090225149,9.57434441549724,3.43256784380252,0.5,1.07069480007912,0.999999955838988,0.5,0.23333700226242,1.01243858908414,11.2188435276753,3.65751449883826,0.5,13.1246913685654
170,1,35,A,0,1,a,63,1,1,0A,1A,1,0,1,0,A01,0.590398032079155,2.52572864430826,0.8984693837837,0.38333149886879,0.38333149886879,0.5,0.38333149886879,0.940323131202509,0.5,0.5,0.5,0.5,0.922160233409468,0.38333149886879,0.5,0.5,0.5,0.954247952872123,1.74804090225149,1,1,0,0A,1A,0.8984693837837,0.38333149886879,0.70094302160602,0.29905697839398,1,1,0.1015306162163,0.0236908496257677,0.5,0.286706894996625,1.01804090225149,9.57434441549724,3.43256784380252,0.5,0.256990329654445,0.999999930987155,0.5,0.23333700226242,1.01243858908414,11.2188435276753,3.65751449883826,0.5,13.1246913685654
170,1,36,C,1,2,l,9,1,1,1C,2C,0,1,0,1,C12,0.279794855078426,3.93182563272433,0.922160233409468,0.38333149886879,0.38333149886879,0.5,0.38333149886879,0.940323131202509,0.5,0.5,0.5,0.5,0.922160233409468,0.38333149886879,0.5,0.5,0.5,0.954247952872123,1.26104090225149,0,0,1,2C,1C,0.922160233409468,0.5,0.648422176169765,0.351577823830235,1,1,0.077839766590532,0.0181628977930413,0.5,0.286706894996625,1.01804090225149,9.57434441549724,3.43256784380252,0.5,0.786153177116753,0.999994898420714,0.5,0.23333700226242,1.01243858908414,11.2188435276753,3.65751449883826,0.5,13.1246913685654
170,1,37,A,1,0,l,63,1,1,1A,0A,0,1,0,1,A10,0.274554680002573,2.85263142991332,0.922160233409468,0.38333149886879,0.38333149886879,0.5,0.38333149886879,0.940323131202509,0.5,0.5,0.5,0.5,0.940323131202509,0.38333149886879,0.5,0.5,0.5,0.954247952872123,1.59304090225149,0,0,1,0A,1A,0.922160233409468,0.38333149886879,0.706370029475541,0.293629970524459,1,1,0.077839766590532,0.0181628977930413,0.5,0.286706894996625,1.01804090225149,9.57434441549724,3.43256784380252,0.5,0.872180832374078,0.999999955959363,0.5,0.23333700226242,1.01243858908414,11.2188435276753,3.65751449883826,0.5,13.1246913685654
170,1,38,D,3,1,a,27,1,1,3D,1D,1,0,1,0,D31,2.08787051158549,3.27714473299218,0.940323131202509,0.38333149886879,0.38333149886879,0.5,0.38333149886879,0.940323131202509,0.5,0.5,0.5,0.5,0.940323131202509,0.38333149886879,0.5,0.5,0.5,0.954247952872123,1.53004090225149,1,1,0,3D,1D,0.954247952872123,0.5,0.656179677604149,0.343820322395851,1,1,0.0457520471278765,0.0106756455241877,0.5,0.286706894996625,1.01804090225149,9.57434441549724,3.43256784380252,0.5,1.95871848657482,0.999997276250712,0.5,0.23333700226242,1.01243858908414,11.2188435276753,3.65751449883826,0.5,13.1246913685654
170,1,39,B,0,1,l,63,1,1,0B,1B,0,1,0,1,B01,2.43306341199019,3.29583686600433,0.940323131202509,0.38333149886879,0.38333149886879,0.5,0.38333149886879,0.940323131202509,0.5,0.5,0.5,0.5,0.940323131202509,0.38333149886879,0.5,0.5,0.5,0.964923598396311,1.38704090225149,0,0,1,1B,0B,0.940323131202509,0.38333149886879,0.710399155368692,0.289600844631308,1,1,0.0596768687974908,0.0139248216696143,0.5,0.286706894996625,1.01804090225149,9.57434441549724,3.43256784380252,0.5,3.16666887470699,0.999999968292946,0.5,0.23333700226242,1.01243858908414,11.2188435276753,3.65751449883826,0.5,13.1246913685654
170,1,40,C,2,3,a,63,1,1,2C,3C,1,0,1,0,C23,2.83092694749504,2.90872089656436,0.940323131202509,0.38333149886879,0.38333149886879,0.5,0.38333149886879,0.954247952872123,0.5,0.5,0.5,0.5,0.940323131202509,0.38333149886879,0.5,0.5,0.5,0.964923598396311,1.23604090225149,1,1,0,2C,3C,0.940323131202509,0.38333149886879,0.710399155368692,0.289600844631308,1,1,0.0596768687974908,0.0139248216696143,0.5,0.286706894996625,1.01804090225149,9.57434441549724,3.43256784380252,0.5,1.81104573907275,0.999999968151012,0.5,0.23333700226242,1.01243858908414,11.2188435276753,3.65751449883826,0.5,13.1246913685654
170,1,41,A,2,0,l,27,1,1,2A,0A,0,1,0,1,A20,0.36940133926528,3.3322045101752,0.940323131202509,0.38333149886879,0.38333149886879,0.5,0.38333149886879,0.954247952872123,0.5,0.5,0.5,0.5,0.954247952872123,0.38333149886879,0.5,0.5,0.5,0.964923598396311,1.33504090225149,0,0,1,0A,2A,0.940323131202509,0.38333149886879,0.710399155368692,0.289600844631308,1,1,0.0596768687974908,0.0139248216696143,0.5,0.286706894996625,1.01804090225149,9.57434441549724,3.43256784380252,0.5,3.44335429709999,0.999999968167467,0.5,0.23333700226242,1.01243858908414,11.2188435276753,3.65751449883826,0.5,13.1246913685654
170,1,42,D,3,2,a,63,1,1,3D,2D,1,0,1,0,D32,2.55849146746306,4.04305126783455,0.954247952872123,0.38333149886879,0.38333149886879,0.5,0.38333149886879,0.954247952872123,0.5,0.5,0.5,0.5,0.954247952872123,0.38333149886879,0.5,0.5,0.5,0.964923598396311,1.41604090225149,1,1,0,3D,2D,0.964923598396311,0.5,0.658685271677402,0.341314728322598,1,1,0.0350764016036889,0.00818462240035751,0.5,0.286706894996625,1.01804090225149,9.57434441549724,3.43256784380252,0.5,2.35136507316217,0.999997778042173,0.5,0.23333700226242,1.01243858908414,11.2188435276753,3.65751449883826,0.5,13.1246913685654
170,1,43,B,3,1,l,27,1,1,3B,1B,0,1,0,1,B31,0.667583141940125,3.36729582998647,0.954247952872123,0.38333149886879,0.38333149886879,0.5,0.38333149886879,0.954247952872123,0.5,0.5,0.5,0.5,0.954247952872123,0.38333149886879,0.5,0.5,0.5,0.973108220796669,1.36904090225149,0,0,1,1B,3B,0.954247952872123,0.5,0.656179677604149,0.343820322395851,1,1,0.0457520471278765,0.0106756455241877,0.5,0.286706894996625,1.01804090225149,9.57434441549724,3.43256784380252,0.5,2.13887639967525,0.999997270697124,0.5,0.23333700226242,1.01243858908414,11.2188435276753,3.65751449883826,0.5,13.1246913685654
170,1,44,C,2,3,a,63,1,1,2C,3C,1,0,1,0,C23,1.8602288130658,2.69124308278583,0.954247952872123,0.38333149886879,0.38333149886879,0.5,0.38333149886879,0.964923598396311,0.5,0.5,0.5,0.5,0.954247952872123,0.38333149886879,0.5,0.5,0.5,0.973108220796669,1.25604090225149,1,1,0,2C,3C,0.954247952872123,0.38333149886879,0.713414034306621,0.286585965693379,1,1,0.0457520471278765,0.0106756455241877,0.5,0.286706894996625,1.01804090225149,9.57434441549724,3.43256784380252,0.5,2.46667776127981,0.999999975250387,0.5,0.23333700226242,1.01243858908414,11.2188435276753,3.65751449883826,0.5,13.1246913685654
