ID,filename,session,trial,visStimLeft,visStimRight,correctKey,leftCorrect,rightCorrect,secondStim,mod2Type,mod2Stim,frequency,rewardAccurate,stimPairLeft,stimPairRight,pCorrectLeft,pCorrectRight,key,reactionTime,choiceLeft,choiceRight,choiceAccurate,reward,chosenPair,otherPair,triplet,surprise,0A belief,1A belief,2A belief,3A belief,0B belief,1B belief,2B belief,3B belief,0C belief,1C belief,2C belief,3C belief,0D belief,1D belief,2D belief,3D belief,beliefPairNorm,beliefOtherPairNorm,beliefPair,beliefOtherPair,lik,corrLik,rewardPE,update2,fitCBCsimpleRW_CBCdriftDiffusionLR_startBelief,fitCBCsimpleRW_CBCdriftDiffusionLR_alpha1,fitCBCsimpleRW_CBCdriftDiffusionLR_nonDecisionTime,fitCBCsimpleRW_CBCdriftDiffusionLR_weight,fitCBCsimpleRW_CBCdriftDiffusionLR_startingBoundary,fitCBCsimpleRW_CBCdriftDiffusionLR_startingPoint,fit_CBCsimpleRW_CBCdriftDiffusionLR_NLL
CBC_1127,CBC_1127_MSI_AV_v3_Vset1_Aset1_2024-06-26_16h04.31.880.csv,1,1,1,3,b,1,0,3,aud,B,27,1,1B,3B,1,0,b,2.65296259999741,1,0,1,1,1B,3B,B13,2.77258872223978,0.5,0.5,0.5,0.5,0.5,0.5,0.5,0.5,0.5,0.5,0.5,0.5,0.5,0.5,0.5,0.5,0.5,0.5,0.5,0.5,0.143462946169425,0.498768904169739,0.5,0.3122385496515,0.5,0.624477099303,1.07527382351549,0.981248647077698,3.14271135423485,0.5,79.784895099424
CBC_1127,CBC_1127_MSI_AV_v3_Vset1_Aset1_2024-06-26_16h04.31.880.csv,1,2,3,2,z,0,1,2,aud,C,63,1,3C,2C,0,1,z,3.68755939999755,0,1,1,1,2C,3C,C32,2.83321334405622,0.5,0.5,0.5,0.5,0.5,0.8122385496515,0.5,0.5,0.5,0.5,0.5,0.5,0.5,0.5,0.5,0.5,0.5,0.5,0.5,0.5,0.0860660655866213,0.499052207503339,0.5,0.3122385496515,0.5,0.624477099303,1.07527382351549,0.981248647077698,3.14271135423485,0.5,79.784895099424
CBC_1127,CBC_1127_MSI_AV_v3_Vset1_Aset1_2024-06-26_16h04.31.880.csv,1,3,3,2,b,1,0,1,aud,D,63,1,3D,2D,1,0,b,3.32977739999842,1,0,1,1,3D,2D,D32,2.89037175789616,0.5,0.5,0.5,0.5,0.5,0.8122385496515,0.5,0.5,0.5,0.5,0.8122385496515,0.5,0.5,0.5,0.5,0.5,0.5,0.5,0.5,0.5,0.103029964624999,0.499761033548193,0.5,0.3122385496515,0.5,0.624477099303,1.07527382351549,0.981248647077698,3.14271135423485,0.5,79.784895099424
CBC_1127,CBC_1127_MSI_AV_v3_Vset1_Aset1_2024-06-26_16h04.31.880.csv,1,4,0,1,z,0,1,3,aud,B,63,0,0B,1B,1,0,z,2.38271170000007,0,1,1,0,1B,0B,B01,2.94443897916644,0.5,0.5,0.5,0.5,0.5,0.8122385496515,0.5,0.5,0.5,0.5,0.8122385496515,0.5,0.5,0.5,0.5,0.8122385496515,0.618971718112695,0.381028281887305,0.8122385496515,0.5,0.227196075661419,0.676589868782453,-0.8122385496515,-0.507224373428444,0.5,0.624477099303,1.07527382351549,0.981248647077698,3.14271135423485,0.5,79.784895099424
CBC_1127,CBC_1127_MSI_AV_v3_Vset1_Aset1_2024-06-26_16h04.31.880.csv,1,5,0,3,b,1,0,0,aud,A,9,1,0A,3A,1,0,b,3.22346639999887,1,0,1,1,0A,3A,A03,2.99573227355399,0.5,0.5,0.5,0.5,0.5,0.305014176223056,0.5,0.5,0.5,0.5,0.8122385496515,0.5,0.5,0.5,0.5,0.8122385496515,0.5,0.5,0.5,0.5,0.108709098564114,0.500126911578793,0.5,0.3122385496515,0.5,0.624477099303,1.07527382351549,0.981248647077698,3.14271135423485,0.5,79.784895099424
CBC_1127,CBC_1127_MSI_AV_v3_Vset1_Aset1_2024-06-26_16h04.31.880.csv,1,6,3,2,b,1,0,1,aud,D,63,1,3D,2D,1,0,b,2.8236971999977,1,0,1,1,3D,2D,D32,2.35137525716348,0.8122385496515,0.5,0.5,0.5,0.5,0.305014176223056,0.5,0.5,0.5,0.5,0.8122385496515,0.5,0.5,0.5,0.5,0.8122385496515,0.618971718112695,0.381028281887305,0.8122385496515,0.5,0.182315863733018,0.675963300124601,0.1877614503485,0.117252725874556,0.5,0.624477099303,1.07527382351549,0.981248647077698,3.14271135423485,0.5,79.784895099424
CBC_1127,CBC_1127_MSI_AV_v3_Vset1_Aset1_2024-06-26_16h04.31.880.csv,1,7,0,2,z,0,1,2,aud,C,27,1,0C,2C,0,1,b,3.27912129999822,1,0,0,0,0C,2C,C02,3.09104245335832,0.8122385496515,0.5,0.5,0.5,0.5,0.305014176223056,0.5,0.5,0.5,0.5,0.8122385496515,0.5,0.5,0.5,0.5,0.929491275526055,0.381028281887305,0.618971718112695,0.5,0.8122385496515,0.0689238097726978,0.324114360531507,-0.5,-0.3122385496515,0.5,0.624477099303,1.07527382351549,0.981248647077698,3.14271135423485,0.5,79.784895099424
CBC_1127,CBC_1127_MSI_AV_v3_Vset1_Aset1_2024-06-26_16h04.31.880.csv,1,8,0,1,b,1,0,0,aud,A,63,1,0A,1A,1,0,b,3.43438419999802,1,0,1,1,0A,1A,A01,3.13549421592915,0.8122385496515,0.5,0.5,0.5,0.5,0.305014176223056,0.5,0.5,0.1877614503485,0.5,0.8122385496515,0.5,0.5,0.5,0.5,0.929491275526055,0.618971718112695,0.381028281887305,0.8122385496515,0.5,0.132237001420327,0.674726155216265,0.1877614503485,0.117252725874556,0.5,0.624477099303,1.07527382351549,0.981248647077698,3.14271135423485,0.5,79.784895099424
CBC_1127,CBC_1127_MSI_AV_v3_Vset1_Aset1_2024-06-26_16h04.31.880.csv,1,9,1,0,b,1,0,3,aud,B,63,1,1B,0B,1,0,b,2.51566019999518,1,0,1,1,1B,0B,B10,3.17805383034795,0.929491275526055,0.5,0.5,0.5,0.5,0.305014176223056,0.5,0.5,0.1877614503485,0.5,0.8122385496515,0.5,0.5,0.5,0.5,0.929491275526055,0.378892925406746,0.621107074593254,0.305014176223056,0.5,0.101384834152381,0.321476300306586,0.694985823776944,0.434002731288932,0.5,0.624477099303,1.07527382351549,0.981248647077698,3.14271135423485,0.5,79.784895099424
CBC_1127,CBC_1127_MSI_AV_v3_Vset1_Aset1_2024-06-26_16h04.31.880.csv,1,10,1,3,z,0,1,1,aud,D,27,1,1D,3D,0,1,b,3.66134969999985,1,0,0,0,1D,3D,D13,3.2188758248682,0.929491275526055,0.5,0.5,0.5,0.5,0.739016907511988,0.5,0.5,0.1877614503485,0.5,0.8122385496515,0.5,0.5,0.5,0.5,0.929491275526055,0.349774782512051,0.650225217487949,0.5,0.929491275526055,0.0491152589384691,0.28355387827929,-0.5,-0.3122385496515,0.5,0.624477099303,1.07527382351549,0.981248647077698,3.14271135423485,0.5,79.784895099424
CBC_1127,CBC_1127_MSI_AV_v3_Vset1_Aset1_2024-06-26_16h04.31.880.csv,1,11,3,2,z,0,1,2,aud,C,63,1,3C,2C,0,1,b,2.78124720000051,1,0,0,0,3C,2C,C32,2.56494935746154,0.929491275526055,0.5,0.5,0.5,0.5,0.739016907511988,0.5,0.5,0.1877614503485,0.5,0.8122385496515,0.5,0.5,0.1877614503485,0.5,0.929491275526055,0.381028281887305,0.618971718112695,0.5,0.8122385496515,0.0896631067113897,0.325346424276178,-0.5,-0.3122385496515,0.5,0.624477099303,1.07527382351549,0.981248647077698,3.14271135423485,0.5,79.784895099424
CBC_1127,CBC_1127_MSI_AV_v3_Vset1_Aset1_2024-06-26_16h04.31.880.csv,1,12,1,0,b,1,0,3,aud,B,63,1,1B,0B,1,0,z,2.39244589999726,0,1,0,0,0B,1B,B10,2.60268968544438,0.929491275526055,0.5,0.5,0.5,0.5,0.739016907511988,0.5,0.5,0.1877614503485,0.5,0.8122385496515,0.1877614503485,0.5,0.1877614503485,0.5,0.929491275526055,0.403545744185224,0.596454255814776,0.5,0.739016907511988,0.117809558706451,0.356125658691516,-0.5,-0.3122385496515,0.5,0.624477099303,1.07527382351549,0.981248647077698,3.14271135423485,0.5,79.784895099424
CBC_1127,CBC_1127_MSI_AV_v3_Vset1_Aset1_2024-06-26_16h04.31.880.csv,1,13,0,1,b,1,0,0,aud,A,63,1,0A,1A,1,0,z,3.22785310000108,0,1,0,0,1A,0A,A01,2.63905732961526,0.929491275526055,0.5,0.5,0.5,0.1877614503485,0.739016907511988,0.5,0.5,0.1877614503485,0.5,0.8122385496515,0.1877614503485,0.5,0.1877614503485,0.5,0.929491275526055,0.349774782512051,0.650225217487949,0.5,0.929491275526055,0.0621552715643021,0.283690022709875,-0.5,-0.3122385496515,0.5,0.624477099303,1.07527382351549,0.981248647077698,3.14271135423485,0.5,79.784895099424
CBC_1127,CBC_1127_MSI_AV_v3_Vset1_Aset1_2024-06-26_16h04.31.880.csv,1,14,1,2,z,0,1,2,aud,C,9,1,1C,2C,0,1,z,3.11704129999998,0,1,1,1,2C,1C,C12,3.36729582998647,0.929491275526055,0.1877614503485,0.5,0.5,0.1877614503485,0.739016907511988,0.5,0.5,0.1877614503485,0.5,0.8122385496515,0.1877614503485,0.5,0.1877614503485,0.5,0.929491275526055,0.618971718112695,0.381028281887305,0.8122385496515,0.5,0.156406898433456,0.675587587708523,0.1877614503485,0.117252725874556,0.5,0.624477099303,1.07527382351549,0.981248647077698,3.14271135423485,0.5,79.784895099424
CBC_1127,CBC_1127_MSI_AV_v3_Vset1_Aset1_2024-06-26_16h04.31.880.csv,1,15,1,0,z,0,1,0,aud,A,63,1,1A,0A,0,1,z,2.77684469999804,0,1,1,1,0A,1A,A10,3.40119738166216,0.929491275526055,0.1877614503485,0.5,0.5,0.1877614503485,0.739016907511988,0.5,0.5,0.1877614503485,0.5,0.929491275526055,0.1877614503485,0.5,0.1877614503485,0.5,0.929491275526055,0.831943618484774,0.168056381515226,0.929491275526055,0.1877614503485,0.262880747779561,0.885890925441311,0.0705087244739445,0.0440310837350433,0.5,0.624477099303,1.07527382351549,0.981248647077698,3.14271135423485,0.5,79.784895099424
CBC_1127,CBC_1127_MSI_AV_v3_Vset1_Aset1_2024-06-26_16h04.31.880.csv,1,16,3,1,b,1,0,1,aud,D,27,1,3D,1D,1,0,b,2.53046790000008,1,0,1,1,3D,1D,D31,3.43398720448515,0.973522359261099,0.1877614503485,0.5,0.5,0.1877614503485,0.739016907511988,0.5,0.5,0.1877614503485,0.5,0.929491275526055,0.1877614503485,0.5,0.1877614503485,0.5,0.929491275526055,0.831943618484774,0.168056381515226,0.929491275526055,0.1877614503485,0.311548190196981,0.885888724227832,0.0705087244739445,0.0440310837350433,0.5,0.624477099303,1.07527382351549,0.981248647077698,3.14271135423485,0.5,79.784895099424
CBC_1127,CBC_1127_MSI_AV_v3_Vset1_Aset1_2024-06-26_16h04.31.880.csv,1,17,0,1,z,0,1,3,aud,B,63,1,0B,1B,0,1,z,3.87127779999719,0,1,1,1,1B,0B,B01,2.77258872223978,0.973522359261099,0.1877614503485,0.5,0.5,0.1877614503485,0.739016907511988,0.5,0.5,0.1877614503485,0.5,0.929491275526055,0.1877614503485,0.5,0.1877614503485,0.5,0.973522359261099,0.797404148730926,0.202595851269074,0.739016907511988,0.1877614503485,0.122259555004062,0.862353877923464,0.260983092488012,0.16297796456404,0.5,0.624477099303,1.07527382351549,0.981248647077698,3.14271135423485,0.5,79.784895099424
CBC_1127,CBC_1127_MSI_AV_v3_Vset1_Aset1_2024-06-26_16h04.31.880.csv,1,18,2,3,b,1,0,2,aud,C,63,0,2C,3C,0,1,b,2.68908079999892,1,0,1,0,2C,3C,C23,3.49650756146648,0.973522359261099,0.1877614503485,0.5,0.5,0.1877614503485,0.901994872076028,0.5,0.5,0.1877614503485,0.5,0.929491275526055,0.1877614503485,0.5,0.1877614503485,0.5,0.973522359261099,0.831943618484774,0.168056381515226,0.929491275526055,0.1877614503485,0.279558801335324,0.886140538304978,-0.929491275526055,-0.580446015567957,0.5,0.624477099303,1.07527382351549,0.981248647077698,3.14271135423485,0.5,79.784895099424
CBC_1127,CBC_1127_MSI_AV_v3_Vset1_Aset1_2024-06-26_16h04.31.880.csv,1,19,2,0,z,0,1,0,aud,A,27,1,2A,0A,0,1,b,3.70147970000107,1,0,0,0,2A,0A,A20,3.52636052461616,0.973522359261099,0.1877614503485,0.5,0.5,0.1877614503485,0.901994872076028,0.5,0.5,0.1877614503485,0.5,0.349045259958099,0.1877614503485,0.5,0.1877614503485,0.5,0.973522359261099,0.339322981329395,0.660677018670605,0.5,0.973522359261099,0.0457754716122322,0.270651068346165,-0.5,-0.3122385496515,0.5,0.624477099303,1.07527382351549,0.981248647077698,3.14271135423485,0.5,79.784895099424
CBC_1127,CBC_1127_MSI_AV_v3_Vset1_Aset1_2024-06-26_16h04.31.880.csv,1,20,3,2,b,1,0,1,aud,D,63,1,3D,2D,1,0,z,3.22655649999797,0,1,0,0,2D,3D,D32,2.4567357728213,0.973522359261099,0.1877614503485,0.1877614503485,0.5,0.1877614503485,0.901994872076028,0.5,0.5,0.1877614503485,0.5,0.349045259958099,0.1877614503485,0.5,0.1877614503485,0.5,0.973522359261099,0.339322981329395,0.660677018670605,0.5,0.973522359261099,0.059510993596484,0.271192885091784,-0.5,-0.3122385496515,0.5,0.624477099303,1.07527382351549,0.981248647077698,3.14271135423485,0.5,79.784895099424
CBC_1127,CBC_1127_MSI_AV_v3_Vset1_Aset1_2024-06-26_16h04.31.880.csv,1,21,3,1,z,0,1,3,aud,B,27,1,3B,1B,0,1,z,2.40813069999786,0,1,1,1,1B,3B,B31,3.58351893845611,0.973522359261099,0.1877614503485,0.1877614503485,0.5,0.1877614503485,0.901994872076028,0.5,0.5,0.1877614503485,0.5,0.349045259958099,0.1877614503485,0.5,0.1877614503485,0.1877614503485,0.973522359261099,0.643365314696468,0.356634685303532,0.901994872076028,0.5,0.237989505745433,0.708340214757137,0.0980051279239719,0.0612019580027814,0.5,0.624477099303,1.07527382351549,0.981248647077698,3.14271135423485,0.5,79.784895099424
CBC_1127,CBC_1127_MSI_AV_v3_Vset1_Aset1_2024-06-26_16h04.31.880.csv,1,22,3,2,z,0,1,2,aud,C,63,1,3C,2C,0,1,b,2.6313018999972,1,0,0,0,3C,2C,C32,2.51230562397611,0.973522359261099,0.1877614503485,0.1877614503485,0.5,0.1877614503485,0.96319683007881,0.5,0.5,0.1877614503485,0.5,0.349045259958099,0.1877614503485,0.5,0.1877614503485,0.1877614503485,0.973522359261099,0.349774782512051,0.650225217487949,0.1877614503485,0.349045259958099,0.0856341407466866,0.284292668253912,-0.1877614503485,-0.117252725874556,0.5,0.624477099303,1.07527382351549,0.981248647077698,3.14271135423485,0.5,79.784895099424
CBC_1127,CBC_1127_MSI_AV_v3_Vset1_Aset1_2024-06-26_16h04.31.880.csv,1,23,0,1,b,1,0,0,aud,A,63,0,0A,1A,0,1,b,2.23618539999734,1,0,1,0,0A,1A,A01,2.53897387105828,0.973522359261099,0.1877614503485,0.1877614503485,0.5,0.1877614503485,0.96319683007881,0.5,0.5,0.1877614503485,0.5,0.349045259958099,0.0705087244739445,0.5,0.1877614503485,0.1877614503485,0.973522359261099,0.838315622077241,0.161684377922759,0.973522359261099,0.1877614503485,0.38064145110316,0.890192795567016,-0.973522359261099,-0.607942419017984,0.5,0.624477099303,1.07527382351549,0.981248647077698,3.14271135423485,0.5,79.784895099424
CBC_1127,CBC_1127_MSI_AV_v3_Vset1_Aset1_2024-06-26_16h04.31.880.csv,1,24,2,1,z,0,1,3,aud,B,9,1,2B,1B,0,1,z,3.66848489999757,0,1,1,1,1B,2B,B21,3.66356164612965,0.365579940243115,0.1877614503485,0.1877614503485,0.5,0.1877614503485,0.96319683007881,0.5,0.5,0.1877614503485,0.5,0.349045259958099,0.0705087244739445,0.5,0.1877614503485,0.1877614503485,0.973522359261099,0.658282474564226,0.341717525435774,0.96319683007881,0.5,0.12526024887419,0.727058143304952,0.0368031699211905,0.0229827367975404,0.5,0.624477099303,1.07527382351549,0.981248647077698,3.14271135423485,0.5,79.784895099424
CBC_1127,CBC_1127_MSI_AV_v3_Vset1_Aset1_2024-06-26_16h04.31.880.csv,1,25,2,3,b,1,0,2,aud,C,63,1,2C,3C,1,0,b,2.6794536999987,1,0,1,1,2C,3C,C23,2.99573227355399,0.365579940243115,0.1877614503485,0.1877614503485,0.5,0.1877614503485,0.98617956687635,0.5,0.5,0.1877614503485,0.5,0.349045259958099,0.0705087244739445,0.5,0.1877614503485,0.1877614503485,0.973522359261099,0.831943618484774,0.168056381515226,0.349045259958099,0.0705087244739445,0.281214854357945,0.885675400791913,0.650954740041901,0.406506327838905,0.5,0.624477099303,1.07527382351549,0.981248647077698,3.14271135423485,0.5,79.784895099424
CBC_1127,CBC_1127_MSI_AV_v3_Vset1_Aset1_2024-06-26_16h04.31.880.csv,1,26,2,3,z,0,1,1,aud,D,63,1,2D,3D,0,1,z,3.33417030000055,0,1,1,1,3D,2D,D23,3.71357206670431,0.365579940243115,0.1877614503485,0.1877614503485,0.5,0.1877614503485,0.98617956687635,0.5,0.5,0.1877614503485,0.5,0.755551587797004,0.0705087244739445,0.5,0.1877614503485,0.1877614503485,0.973522359261099,0.838315622077241,0.161684377922759,0.973522359261099,0.1877614503485,0.177437136263902,0.889169717963379,0.0264776407389012,0.016534680285016,0.5,0.624477099303,1.07527382351549,0.981248647077698,3.14271135423485,0.5,79.784895099424
CBC_1127,CBC_1127_MSI_AV_v3_Vset1_Aset1_2024-06-26_16h04.31.880.csv,1,27,0,1,z,0,1,3,aud,B,63,1,0B,1B,0,1,z,4.07322940000086,0,1,1,1,1B,0B,B01,2.63905732961526,0.365579940243115,0.1877614503485,0.1877614503485,0.5,0.1877614503485,0.98617956687635,0.5,0.5,0.1877614503485,0.5,0.755551587797004,0.0705087244739445,0.5,0.1877614503485,0.1877614503485,0.990057039546115,0.840058872129402,0.159941127870598,0.98617956687635,0.1877614503485,0.104194534733811,0.890056283458458,0.01382043312365,0.00863054398816805,0.5,0.624477099303,1.07527382351549,0.981248647077698,3.14271135423485,0.5,79.784895099424
CBC_1127,CBC_1127_MSI_AV_v3_Vset1_Aset1_2024-06-26_16h04.31.880.csv,1,28,0,2,b,1,0,0,aud,A,27,1,0A,2A,1,0,b,3.0904045999996,1,0,1,1,0A,2A,A02,3.76120011569356,0.365579940243115,0.1877614503485,0.1877614503485,0.5,0.1877614503485,0.994810110864518,0.5,0.5,0.1877614503485,0.5,0.755551587797004,0.0705087244739445,0.5,0.1877614503485,0.1877614503485,0.990057039546115,0.660677018670605,0.339322981329395,0.365579940243115,0.1877614503485,0.172289840558068,0.728856759600871,0.634420059756885,0.396180798656615,0.5,0.624477099303,1.07527382351549,0.981248647077698,3.14271135423485,0.5,79.784895099424
CBC_1127,CBC_1127_MSI_AV_v3_Vset1_Aset1_2024-06-26_16h04.31.880.csv,1,29,1,3,z,0,1,1,aud,D,27,1,1D,3D,0,1,z,2.42395529999703,0,1,1,1,3D,1D,D13,3.09104245335832,0.76176073889973,0.1877614503485,0.1877614503485,0.5,0.1877614503485,0.994810110864518,0.5,0.5,0.1877614503485,0.5,0.755551587797004,0.0705087244739445,0.5,0.1877614503485,0.1877614503485,0.990057039546115,0.840585411114322,0.159414588885678,0.990057039546115,0.1877614503485,0.33836280051678,0.891145872254346,0.00994296045388521,0.00620915110272667,0.5,0.624477099303,1.07527382351549,0.981248647077698,3.14271135423485,0.5,79.784895099424
CBC_1127,CBC_1127_MSI_AV_v3_Vset1_Aset1_2024-06-26_16h04.31.880.csv,1,30,1,0,z,0,1,0,aud,A,63,1,1A,0A,0,1,z,2.28555859999688,0,1,1,1,0A,1A,A10,3.11351530921037,0.76176073889973,0.1877614503485,0.1877614503485,0.5,0.1877614503485,0.994810110864518,0.5,0.5,0.1877614503485,0.5,0.755551587797004,0.0705087244739445,0.5,0.1877614503485,0.1877614503485,0.996266190648841,0.802256911450213,0.197743088549787,0.76176073889973,0.1877614503485,0.348228521160518,0.865848318335778,0.23823926110027,0.148774962711986,0.5,0.624477099303,1.07527382351549,0.981248647077698,3.14271135423485,0.5,79.784895099424
CBC_1127,CBC_1127_MSI_AV_v3_Vset1_Aset1_2024-06-26_16h04.31.880.csv,1,31,2,0,b,1,0,2,aud,C,27,1,2C,0C,1,0,b,3.17107289999694,1,0,1,1,2C,0C,C20,3.8286413964891,0.910535701611717,0.1877614503485,0.1877614503485,0.5,0.1877614503485,0.994810110864518,0.5,0.5,0.1877614503485,0.5,0.755551587797004,0.0705087244739445,0.5,0.1877614503485,0.1877614503485,0.996266190648841,0.800955310956342,0.199044689043658,0.755551587797004,0.1877614503485,0.195834140175985,0.865140280001061,0.244448412202996,0.152652435381751,0.5,0.624477099303,1.07527382351549,0.981248647077698,3.14271135423485,0.5,79.784895099424
CBC_1127,CBC_1127_MSI_AV_v3_Vset1_Aset1_2024-06-26_16h04.31.880.csv,1,32,2,3,z,0,1,1,aud,D,63,1,2D,3D,0,1,z,2.52231889999894,0,1,1,1,3D,2D,D23,3.15700042115011,0.910535701611717,0.1877614503485,0.1877614503485,0.5,0.1877614503485,0.994810110864518,0.5,0.5,0.1877614503485,0.5,0.908204023178755,0.0705087244739445,0.5,0.1877614503485,0.1877614503485,0.996266190648841,0.841421396049215,0.158578603950785,0.996266190648841,0.1877614503485,0.316912339100097,0.891736747887901,0.00373380935115852,0.00233167843296189,0.5,0.624477099303,1.07527382351549,0.981248647077698,3.14271135423485,0.5,79.784895099424
CBC_1127,CBC_1127_MSI_AV_v3_Vset1_Aset1_2024-06-26_16h04.31.880.csv,1,33,1,0,b,1,0,3,aud,B,63,1,1B,0B,1,0,b,2.3226399999985,1,0,1,1,1B,0B,B10,2.77258872223978,0.910535701611717,0.1877614503485,0.1877614503485,0.5,0.1877614503485,0.994810110864518,0.5,0.5,0.1877614503485,0.5,0.908204023178755,0.0705087244739445,0.5,0.1877614503485,0.1877614503485,0.998597869081803,0.84122614097374,0.15877385902626,0.994810110864518,0.1877614503485,0.361680650146685,0.891266984090301,0.00518988913548191,0.00324096691302989,0.5,0.624477099303,1.07527382351549,0.981248647077698,3.14271135423485,0.5,79.784895099424
CBC_1127,CBC_1127_MSI_AV_v3_Vset1_Aset1_2024-06-26_16h04.31.880.csv,1,34,0,1,b,1,0,0,aud,A,63,1,0A,1A,1,0,b,3.23395019999589,1,0,1,1,0A,1A,A01,2.50552593699074,0.910535701611717,0.1877614503485,0.1877614503485,0.5,0.1877614503485,0.998051077777548,0.5,0.5,0.1877614503485,0.5,0.908204023178755,0.0705087244739445,0.5,0.1877614503485,0.1877614503485,0.998597869081803,0.829043123699822,0.170956876300178,0.910535701611717,0.1877614503485,0.190145843066657,0.88377464536587,0.0894642983882833,0.0558684055486932,0.5,0.624477099303,1.07527382351549,0.981248647077698,3.14271135423485,0.5,79.784895099424
CBC_1127,CBC_1127_MSI_AV_v3_Vset1_Aset1_2024-06-26_16h04.31.880.csv,1,35,2,3,z,0,1,1,aud,D,63,0,2D,3D,NaN,NaN,[],NaN,NaN,NaN,NaN,NaN,,,D23,2.81341071676004,0.96640410716041,0.1877614503485,0.1877614503485,0.5,0.1877614503485,0.998051077777548,0.5,0.5,0.1877614503485,0.5,0.908204023178755,0.0705087244739445,0.5,0.1877614503485,0.1877614503485,0.998597869081803,0,0,0,0,NaN,0,0,0,0.5,0.624477099303,1.07527382351549,0.981248647077698,3.14271135423485,0.5,79.784895099424
CBC_1127,CBC_1127_MSI_AV_v3_Vset1_Aset1_2024-06-26_16h04.31.880.csv,1,36,2,0,b,1,0,2,aud,C,27,1,2C,0C,1,0,b,2.16909160000068,1,0,1,1,2C,0C,C20,3.23867845216438,0.96640410716041,0.1877614503485,0.1877614503485,0.5,0.1877614503485,0.998051077777548,0.5,0.5,0.1877614503485,0.5,0.908204023178755,0.0705087244739445,0.5,0.1877614503485,0.1877614503485,0.998597869081803,0.82867941109111,0.17132058890889,0.908204023178755,0.1877614503485,0.388595392140664,0.883363510987843,0.0917959768212452,0.0573244853330166,0.5,0.624477099303,1.07527382351549,0.981248647077698,3.14271135423485,0.5,79.784895099424
CBC_1127,CBC_1127_MSI_AV_v3_Vset1_Aset1_2024-06-26_16h04.31.880.csv,1,37,0,1,b,1,0,0,aud,A,63,1,0A,1A,1,0,b,2.18586909999794,1,0,1,1,0A,1A,A01,2.34180580614733,0.96640410716041,0.1877614503485,0.1877614503485,0.5,0.1877614503485,0.998051077777548,0.5,0.5,0.1877614503485,0.5,0.965528508511771,0.0705087244739445,0.5,0.1877614503485,0.1877614503485,0.998597869081803,0.837318442638546,0.162681557361454,0.96640410716041,0.1877614503485,0.390835968966676,0.889007478701298,0.0335958928395901,0.0209798657089616,0.5,0.624477099303,1.07527382351549,0.981248647077698,3.14271135423485,0.5,79.784895099424
CBC_1127,CBC_1127_MSI_AV_v3_Vset1_Aset1_2024-06-26_16h04.31.880.csv,1,38,1,3,b,1,0,3,aud,B,27,1,1B,3B,1,0,b,2.05673409999872,1,0,1,1,1B,3B,B13,3.27714473299218,0.987383972869372,0.1877614503485,0.1877614503485,0.5,0.1877614503485,0.998051077777548,0.5,0.5,0.1877614503485,0.5,0.965528508511771,0.0705087244739445,0.5,0.1877614503485,0.1877614503485,0.998597869081803,0.666233009396595,0.333766990603405,0.998051077777548,0.5,0.289892444388012,0.735170711105904,0.00194892222245202,0.00121705729624399,0.5,0.624477099303,1.07527382351549,0.981248647077698,3.14271135423485,0.5,79.784895099424
CBC_1127,CBC_1127_MSI_AV_v3_Vset1_Aset1_2024-06-26_16h04.31.880.csv,1,39,3,2,z,0,1,2,aud,C,63,1,3C,2C,0,1,b,2.86034049999944,1,0,0,0,3C,2C,C32,2.60268968544438,0.987383972869372,0.1877614503485,0.1877614503485,0.5,0.1877614503485,0.999268135073792,0.5,0.5,0.1877614503485,0.5,0.965528508511771,0.0705087244739445,0.5,0.1877614503485,0.1877614503485,0.998597869081803,0.0680561684745133,0.931943831525487,0.0705087244739445,0.965528508511771,0.0182274311700949,0.0656447159367867,-0.0705087244739445,-0.0440310837350433,0.5,0.624477099303,1.07527382351549,0.981248647077698,3.14271135423485,0.5,79.784895099424
CBC_1127,CBC_1127_MSI_AV_v3_Vset1_Aset1_2024-06-26_16h04.31.880.csv,1,40,3,2,b,1,0,1,aud,D,63,1,3D,2D,1,0,z,2.95267719999902,0,1,0,0,2D,3D,D32,2.62103882411258,0.987383972869372,0.1877614503485,0.1877614503485,0.5,0.1877614503485,0.999268135073792,0.5,0.5,0.1877614503485,0.5,0.965528508511771,0.0264776407389012,0.5,0.1877614503485,0.1877614503485,0.998597869081803,0.158266932516419,0.841733067483581,0.1877614503485,0.998597869081803,0.028440755471021,0.10848639390355,-0.1877614503485,-0.117252725874556,0.5,0.624477099303,1.07527382351549,0.981248647077698,3.14271135423485,0.5,79.784895099424
CBC_1127,CBC_1127_MSI_AV_v3_Vset1_Aset1_2024-06-26_16h04.31.880.csv,1,41,0,1,z,0,1,3,aud,B,63,1,0B,1B,0,1,z,1.70952559999932,0,1,1,1,1B,0B,B01,2.63905732961526,0.987383972869372,0.1877614503485,0.1877614503485,0.5,0.1877614503485,0.999268135073792,0.5,0.5,0.1877614503485,0.5,0.965528508511771,0.0264776407389012,0.5,0.1877614503485,0.0705087244739445,0.998597869081803,0.841822434205207,0.158177565794793,0.999268135073792,0.1877614503485,0.440677930146546,0.891622322244842,0.000731864926208026,0.000457032886199992,0.5,0.624477099303,1.07527382351549,0.981248647077698,3.14271135423485,0.5,79.784895099424
CBC_1127,CBC_1127_MSI_AV_v3_Vset1_Aset1_2024-06-26_16h04.31.880.csv,1,42,2,0,z,0,1,0,aud,A,27,1,2A,0A,0,1,z,2.64115239999956,0,1,1,1,0A,2A,A20,3.3499040872746,0.987383972869372,0.1877614503485,0.1877614503485,0.5,0.1877614503485,0.999725167959992,0.5,0.5,0.1877614503485,0.5,0.965528508511771,0.0264776407389012,0.5,0.1877614503485,0.0705087244739445,0.998597869081803,0.840222795716331,0.159777204283669,0.987383972869372,0.1877614503485,0.291258905209087,0.890685524608097,0.0126160271306285,0.00787842002726282,0.5,0.624477099303,1.07527382351549,0.981248647077698,3.14271135423485,0.5,79.784895099424
CBC_1127,CBC_1127_MSI_AV_v3_Vset1_Aset1_2024-06-26_16h04.31.880.csv,1,43,3,0,b,1,0,1,aud,D,9,1,3D,0D,1,0,b,2.58048989999952,1,0,1,1,3D,0D,D30,4.06044301054642,0.995262392896634,0.1877614503485,0.1877614503485,0.5,0.1877614503485,0.999725167959992,0.5,0.5,0.1877614503485,0.5,0.965528508511771,0.0264776407389012,0.5,0.1877614503485,0.0705087244739445,0.998597869081803,0.666354790490693,0.333645209509307,0.998597869081803,0.5,0.229413488907929,0.736049581742766,0.00140213091819663,0.000875598648638484,0.5,0.624477099303,1.07527382351549,0.981248647077698,3.14271135423485,0.5,79.784895099424
CBC_1127,CBC_1127_MSI_AV_v3_Vset1_Aset1_2024-06-26_16h04.31.880.csv,1,44,3,2,z,0,1,2,aud,C,63,1,3C,2C,0,1,z,2.46626649999962,0,1,1,1,2C,3C,C32,2.46809953147162,0.995262392896634,0.1877614503485,0.1877614503485,0.5,0.1877614503485,0.999725167959992,0.5,0.5,0.1877614503485,0.5,0.965528508511771,0.0264776407389012,0.5,0.1877614503485,0.0705087244739445,0.999473467730442,0.973308995353606,0.0266910046463941,0.965528508511771,0.0264776407389012,0.370558089751688,0.948676729394853,0.0344714914882286,0.021526657013217,0.5,0.624477099303,1.07527382351549,0.981248647077698,3.14271135423485,0.5,79.784895099424
CBC_1127,CBC_1127_MSI_TV_v3_Vset3_Tset3_2024-06-26_17h06.56.696.csv,2,1,0,1,z,0,1,3,tac,B,63,1,0B,1B,0,1,z,2.89067149999755,0,1,1,1,1B,0B,B01,2.77258872223978,0.5,0.5,0.5,0.5,0.5,0.5,0.5,0.5,0.5,0.5,0.5,0.5,0.5,0.5,0.5,0.5,0.5,0.5,0.5,0.5,0.126871359885544,0.497839127159068,0.5,0.0529479171551677,0.5,0.105895834310335,1.09406177697769,4.24956747796869,3.2886632922365,0.5,67.2932386050062
CBC_1127,CBC_1127_MSI_TV_v3_Vset3_Tset3_2024-06-26_17h06.56.696.csv,2,2,0,1,b,1,0,0,tac,A,63,1,0A,1A,1,0,b,2.46520139999484,1,0,1,1,0A,1A,A01,2.83321334405622,0.5,0.5,0.5,0.5,0.5,0.552947917155168,0.5,0.5,0.5,0.5,0.5,0.5,0.5,0.5,0.5,0.5,0.5,0.5,0.5,0.5,0.152190138641912,0.499773816410221,0.5,0.0529479171551677,0.5,0.105895834310335,1.09406177697769,4.24956747796869,3.2886632922365,0.5,67.2932386050062
CBC_1127,CBC_1127_MSI_TV_v3_Vset3_Tset3_2024-06-26_17h06.56.696.csv,2,3,2,3,z,0,1,1,tac,D,63,1,2D,3D,0,1,b,2.54071209999529,1,0,0,0,2D,3D,D23,2.89037175789616,0.552947917155168,0.5,0.5,0.5,0.5,0.552947917155168,0.5,0.5,0.5,0.5,0.5,0.5,0.5,0.5,0.5,0.5,0.5,0.5,0.5,0.5,0.14794444958215,0.500388033076037,-0.5,-0.0529479171551677,0.5,0.105895834310335,1.09406177697769,4.24956747796869,3.2886632922365,0.5,67.2932386050062
CBC_1127,CBC_1127_MSI_TV_v3_Vset3_Tset3_2024-06-26_17h06.56.696.csv,2,4,2,1,z,0,1,3,tac,B,9,1,2B,1B,0,1,b,4.14825919999566,1,0,0,0,2B,1B,B21,2.94443897916644,0.552947917155168,0.5,0.5,0.5,0.5,0.552947917155168,0.5,0.5,0.5,0.5,0.5,0.5,0.5,0.5,0.447052082844832,0.5,0.474857295269541,0.525142704730459,0.5,0.552947917155168,0.0474193771573547,0.331909456921902,-0.5,-0.0529479171551677,0.5,0.105895834310335,1.09406177697769,4.24956747796869,3.2886632922365,0.5,67.2932386050062
CBC_1127,CBC_1127_MSI_TV_v3_Vset3_Tset3_2024-06-26_17h06.56.696.csv,2,5,0,2,b,1,0,0,tac,A,27,1,0A,2A,1,0,z,3.26431399999274,0,1,0,0,2A,0A,A02,2.99573227355399,0.552947917155168,0.5,0.5,0.5,0.5,0.552947917155168,0.447052082844832,0.5,0.5,0.5,0.5,0.5,0.5,0.5,0.447052082844832,0.5,0.474857295269541,0.525142704730459,0.5,0.552947917155168,0.0721917219903523,0.331222760019399,-0.5,-0.0529479171551677,0.5,0.105895834310335,1.09406177697769,4.24956747796869,3.2886632922365,0.5,67.2932386050062
CBC_1127,CBC_1127_MSI_TV_v3_Vset3_Tset3_2024-06-26_17h06.56.696.csv,2,6,2,3,b,1,0,2,tac,C,63,1,2C,3C,1,0,b,2.39797499999986,1,0,1,1,2C,3C,C23,3.04452243772342,0.552947917155168,0.5,0.447052082844832,0.5,0.5,0.552947917155168,0.447052082844832,0.5,0.5,0.5,0.5,0.5,0.5,0.5,0.447052082844832,0.5,0.5,0.5,0.5,0.5,0.155780739633452,0.498958463022628,0.5,0.0529479171551677,0.5,0.105895834310335,1.09406177697769,4.24956747796869,3.2886632922365,0.5,67.2932386050062
CBC_1127,CBC_1127_MSI_TV_v3_Vset3_Tset3_2024-06-26_17h06.56.696.csv,2,7,1,3,z,0,1,1,tac,D,27,1,1D,3D,0,1,b,2.53561269999773,1,0,0,0,1D,3D,D13,3.09104245335832,0.552947917155168,0.5,0.447052082844832,0.5,0.5,0.552947917155168,0.447052082844832,0.5,0.5,0.5,0.552947917155168,0.5,0.5,0.5,0.447052082844832,0.5,0.5,0.5,0.5,0.5,0.148327742089115,0.500664184757582,-0.5,-0.0529479171551677,0.5,0.105895834310335,1.09406177697769,4.24956747796869,3.2886632922365,0.5,67.2932386050062
CBC_1127,CBC_1127_MSI_TV_v3_Vset3_Tset3_2024-06-26_17h06.56.696.csv,2,8,1,0,z,0,1,0,tac,A,63,1,1A,0A,0,1,b,2.80352129999665,1,0,0,0,1A,0A,A10,3.13549421592915,0.552947917155168,0.5,0.447052082844832,0.5,0.5,0.552947917155168,0.447052082844832,0.5,0.5,0.5,0.552947917155168,0.5,0.5,0.447052082844832,0.447052082844832,0.5,0.474857295269541,0.525142704730459,0.5,0.552947917155168,0.0896197691486606,0.331317338096563,-0.5,-0.0529479171551677,0.5,0.105895834310335,1.09406177697769,4.24956747796869,3.2886632922365,0.5,67.2932386050062
CBC_1127,CBC_1127_MSI_TV_v3_Vset3_Tset3_2024-06-26_17h06.56.696.csv,2,9,2,0,b,1,0,2,tac,C,27,1,2C,0C,1,0,z,3.76871739999478,0,1,0,0,0C,2C,C20,3.17805383034795,0.552947917155168,0.447052082844832,0.447052082844832,0.5,0.5,0.552947917155168,0.447052082844832,0.5,0.5,0.5,0.552947917155168,0.5,0.5,0.447052082844832,0.447052082844832,0.5,0.474857295269541,0.525142704730459,0.5,0.552947917155168,0.0567289320904325,0.331125818918746,-0.5,-0.0529479171551677,0.5,0.105895834310335,1.09406177697769,4.24956747796869,3.2886632922365,0.5,67.2932386050062
CBC_1127,CBC_1127_MSI_TV_v3_Vset3_Tset3_2024-06-26_17h06.56.696.csv,2,10,2,3,z,0,1,1,tac,D,63,1,2D,3D,0,1,z,2.41308659999777,0,1,1,1,3D,2D,D23,2.52572864430826,0.552947917155168,0.447052082844832,0.447052082844832,0.5,0.5,0.552947917155168,0.447052082844832,0.5,0.447052082844832,0.5,0.552947917155168,0.5,0.5,0.447052082844832,0.447052082844832,0.5,0.52795406826841,0.472045931731591,0.5,0.447052082844832,0.221461487399127,0.686901869299541,0.5,0.0529479171551677,0.5,0.105895834310335,1.09406177697769,4.24956747796869,3.2886632922365,0.5,67.2932386050062
CBC_1127,CBC_1127_MSI_TV_v3_Vset3_Tset3_2024-06-26_17h06.56.696.csv,2,11,1,0,b,1,0,3,tac,B,63,1,1B,0B,1,0,z,2.71140229999583,0,1,0,0,0B,1B,B10,3.25809653802148,0.552947917155168,0.447052082844832,0.447052082844832,0.5,0.5,0.552947917155168,0.447052082844832,0.5,0.447052082844832,0.5,0.552947917155168,0.5,0.5,0.447052082844832,0.447052082844832,0.552947917155168,0.474857295269541,0.525142704730459,0.5,0.552947917155168,0.0934006232129189,0.331150631289604,-0.5,-0.0529479171551677,0.5,0.105895834310335,1.09406177697769,4.24956747796869,3.2886632922365,0.5,67.2932386050062
CBC_1127,CBC_1127_MSI_TV_v3_Vset3_Tset3_2024-06-26_17h06.56.696.csv,2,12,0,1,b,1,0,0,tac,A,63,1,0A,1A,1,0,z,2.85999599999923,0,1,0,0,1A,0A,A01,2.60268968544438,0.552947917155168,0.447052082844832,0.447052082844832,0.5,0.447052082844832,0.552947917155168,0.447052082844832,0.5,0.447052082844832,0.5,0.552947917155168,0.5,0.5,0.447052082844832,0.447052082844832,0.552947917155168,0.447052082844832,0.552947917155168,0.447052082844832,0.552947917155168,0.0514078527874838,0.184944308998677,-0.447052082844832,-0.0473409532930267,0.5,0.105895834310335,1.09406177697769,4.24956747796869,3.2886632922365,0.5,67.2932386050062
CBC_1127,CBC_1127_MSI_TV_v3_Vset3_Tset3_2024-06-26_17h06.56.696.csv,2,13,2,3,z,0,1,1,tac,D,63,1,2D,3D,0,1,b,2.79924729999766,1,0,0,0,2D,3D,D23,2.23359222150709,0.552947917155168,0.399711129551806,0.447052082844832,0.5,0.447052082844832,0.552947917155168,0.447052082844832,0.5,0.447052082844832,0.5,0.552947917155168,0.5,0.5,0.447052082844832,0.447052082844832,0.552947917155168,0.447052082844832,0.552947917155168,0.447052082844832,0.552947917155168,0.0535139041030872,0.186479534771666,-0.447052082844832,-0.0473409532930267,0.5,0.105895834310335,1.09406177697769,4.24956747796869,3.2886632922365,0.5,67.2932386050062
CBC_1127,CBC_1127_MSI_TV_v3_Vset3_Tset3_2024-06-26_17h06.56.696.csv,2,14,2,0,b,1,0,2,tac,C,27,1,2C,0C,1,0,b,2.13409439999668,1,0,1,1,2C,0C,C20,2.67414864942653,0.552947917155168,0.399711129551806,0.447052082844832,0.5,0.447052082844832,0.552947917155168,0.447052082844832,0.5,0.447052082844832,0.5,0.552947917155168,0.5,0.5,0.447052082844832,0.399711129551806,0.552947917155168,0.552947917155168,0.447052082844832,0.552947917155168,0.447052082844832,0.317895146925906,0.81446021744751,0.447052082844832,0.0473409532930267,0.5,0.105895834310335,1.09406177697769,4.24956747796869,3.2886632922365,0.5,67.2932386050062
CBC_1127,CBC_1127_MSI_TV_v3_Vset3_Tset3_2024-06-26_17h06.56.696.csv,2,15,0,1,b,1,0,0,tac,A,63,1,0A,1A,1,0,z,2.66384799999651,0,1,0,0,1A,0A,A01,2.30258509299405,0.552947917155168,0.399711129551806,0.447052082844832,0.5,0.447052082844832,0.552947917155168,0.447052082844832,0.5,0.447052082844832,0.5,0.600288870448194,0.5,0.5,0.447052082844832,0.399711129551806,0.552947917155168,0.419574170773347,0.580425829226653,0.399711129551806,0.552947917155168,0.031614479699516,0.0954057887043774,-0.399711129551806,-0.042327743547015,0.5,0.105895834310335,1.09406177697769,4.24956747796869,3.2886632922365,0.5,67.2932386050062
CBC_1127,CBC_1127_MSI_TV_v3_Vset3_Tset3_2024-06-26_17h06.56.696.csv,2,16,1,3,b,1,0,3,tac,B,27,1,1B,3B,1,0,b,2.55127539999376,1,0,1,1,1B,3B,B13,3.43398720448515,0.552947917155168,0.357383386004791,0.447052082844832,0.5,0.447052082844832,0.552947917155168,0.447052082844832,0.5,0.447052082844832,0.5,0.600288870448194,0.5,0.5,0.447052082844832,0.399711129551806,0.552947917155168,0.525142704730459,0.474857295269541,0.552947917155168,0.5,0.202465856552981,0.669146507653708,0.447052082844832,0.0473409532930267,0.5,0.105895834310335,1.09406177697769,4.24956747796869,3.2886632922365,0.5,67.2932386050062
CBC_1127,CBC_1127_MSI_TV_v3_Vset3_Tset3_2024-06-26_17h06.56.696.csv,2,17,3,2,z,0,1,2,tac,C,63,1,3C,2C,0,1,z,3.00948159999825,0,1,1,1,2C,3C,C32,3.46573590279973,0.552947917155168,0.357383386004791,0.447052082844832,0.5,0.447052082844832,0.600288870448194,0.447052082844832,0.5,0.447052082844832,0.5,0.600288870448194,0.5,0.5,0.447052082844832,0.399711129551806,0.552947917155168,0.545573882069416,0.454426117930584,0.600288870448194,0.5,0.197773110126736,0.780836743973582,0.399711129551806,0.042327743547015,0.5,0.105895834310335,1.09406177697769,4.24956747796869,3.2886632922365,0.5,67.2932386050062
CBC_1127,CBC_1127_MSI_TV_v3_Vset3_Tset3_2024-06-26_17h06.56.696.csv,2,18,2,3,z,0,1,1,tac,D,63,0,2D,3D,1,0,z,2.59401439999783,0,1,1,0,3D,2D,D23,2.11021320034659,0.552947917155168,0.357383386004791,0.447052082844832,0.5,0.447052082844832,0.600288870448194,0.447052082844832,0.5,0.447052082844832,0.5,0.642616613995209,0.5,0.5,0.447052082844832,0.399711129551806,0.552947917155168,0.580425829226653,0.419574170773347,0.552947917155168,0.399711129551806,0.313373415737727,0.904178591484555,-0.552947917155168,-0.0585548810173087,0.5,0.105895834310335,1.09406177697769,4.24956747796869,3.2886632922365,0.5,67.2932386050062
CBC_1127,CBC_1127_MSI_TV_v3_Vset3_Tset3_2024-06-26_17h06.56.696.csv,2,19,1,0,b,1,0,3,tac,B,63,1,1B,0B,1,0,b,2.76213079999434,1,0,1,1,1B,0B,B10,2.83321334405622,0.552947917155168,0.357383386004791,0.447052082844832,0.5,0.447052082844832,0.600288870448194,0.447052082844832,0.5,0.447052082844832,0.5,0.642616613995209,0.5,0.5,0.447052082844832,0.399711129551806,0.494393036137859,0.573155158843717,0.426844841156283,0.600288870448194,0.447052082844832,0.271567256101072,0.885782987496171,0.399711129551806,0.042327743547015,0.5,0.105895834310335,1.09406177697769,4.24956747796869,3.2886632922365,0.5,67.2932386050062
CBC_1127,CBC_1127_MSI_TV_v3_Vset3_Tset3_2024-06-26_17h06.56.696.csv,2,20,2,0,z,0,1,0,tac,A,27,1,2A,0A,0,1,z,2.5063233999972,0,1,1,1,0A,2A,A20,3.55534806148941,0.552947917155168,0.357383386004791,0.447052082844832,0.5,0.447052082844832,0.642616613995209,0.447052082844832,0.5,0.447052082844832,0.5,0.642616613995209,0.5,0.5,0.447052082844832,0.399711129551806,0.494393036137859,0.552947917155168,0.447052082844832,0.552947917155168,0.447052082844832,0.272132317675673,0.814387027400108,0.447052082844832,0.0473409532930267,0.5,0.105895834310335,1.09406177697769,4.24956747796869,3.2886632922365,0.5,67.2932386050062
CBC_1127,CBC_1127_MSI_TV_v3_Vset3_Tset3_2024-06-26_17h06.56.696.csv,2,21,0,3,z,0,1,1,tac,D,9,1,0D,3D,0,1,z,2.32585249999829,0,1,1,1,3D,0D,D03,3.58351893845611,0.600288870448194,0.357383386004791,0.447052082844832,0.5,0.447052082844832,0.642616613995209,0.447052082844832,0.5,0.447052082844832,0.5,0.642616613995209,0.5,0.5,0.447052082844832,0.399711129551806,0.494393036137859,0.497180710414104,0.502819289585896,0.494393036137859,0.5,0.153852145191697,0.480446724183456,0.505606963862141,0.053541671271297,0.5,0.105895834310335,1.09406177697769,4.24956747796869,3.2886632922365,0.5,67.2932386050062
CBC_1127,CBC_1127_MSI_TV_v3_Vset3_Tset3_2024-06-26_17h06.56.696.csv,2,22,2,3,b,1,0,2,tac,C,63,1,2C,3C,1,0,b,2.4623239999928,1,0,1,1,2C,3C,C23,2.91777073208428,0.600288870448194,0.357383386004791,0.447052082844832,0.5,0.447052082844832,0.642616613995209,0.447052082844832,0.5,0.447052082844832,0.5,0.642616613995209,0.5,0.5,0.447052082844832,0.399711129551806,0.547934707409156,0.562407903162087,0.437592096837913,0.642616613995209,0.5,0.301044496415982,0.851635698828092,0.357383386004791,0.0378454118296299,0.5,0.105895834310335,1.09406177697769,4.24956747796869,3.2886632922365,0.5,67.2932386050062
CBC_1127,CBC_1127_MSI_TV_v3_Vset3_Tset3_2024-06-26_17h06.56.696.csv,2,23,3,1,z,0,1,3,tac,B,27,1,3B,1B,0,1,z,2.45899669999199,0,1,1,1,1B,3B,B31,3.63758615972639,0.600288870448194,0.357383386004791,0.447052082844832,0.5,0.447052082844832,0.642616613995209,0.447052082844832,0.5,0.447052082844832,0.5,0.680462025824839,0.5,0.5,0.447052082844832,0.399711129551806,0.547934707409156,0.562407903162087,0.437592096837913,0.642616613995209,0.5,0.301250096091724,0.851159970578697,0.357383386004791,0.0378454118296299,0.5,0.105895834310335,1.09406177697769,4.24956747796869,3.2886632922365,0.5,67.2932386050062
CBC_1127,CBC_1127_MSI_TV_v3_Vset3_Tset3_2024-06-26_17h06.56.696.csv,2,24,3,2,z,0,1,2,tac,C,63,1,3C,2C,0,1,z,2.47703969999566,0,1,1,1,2C,3C,C32,2.9704144655697,0.600288870448194,0.357383386004791,0.447052082844832,0.5,0.447052082844832,0.680462025824839,0.447052082844832,0.5,0.447052082844832,0.5,0.680462025824839,0.5,0.5,0.447052082844832,0.399711129551806,0.547934707409156,0.576437031381311,0.423562968618689,0.680462025824839,0.5,0.329653514508658,0.894645329799444,0.319537974175161,0.033837740369113,0.5,0.105895834310335,1.09406177697769,4.24956747796869,3.2886632922365,0.5,67.2932386050062
CBC_1127,CBC_1127_MSI_TV_v3_Vset3_Tset3_2024-06-26_17h06.56.696.csv,2,25,2,3,z,0,1,1,tac,D,63,1,2D,3D,0,1,z,2.66529969999101,0,1,1,1,3D,2D,D23,2.07944154167984,0.600288870448194,0.357383386004791,0.447052082844832,0.5,0.447052082844832,0.680462025824839,0.447052082844832,0.5,0.447052082844832,0.5,0.714299766193952,0.5,0.5,0.447052082844832,0.399711129551806,0.547934707409156,0.578206209575454,0.421793790424546,0.547934707409156,0.399711129551806,0.296255654956805,0.899221506215712,0.452065292590844,0.0478718313216533,0.5,0.105895834310335,1.09406177697769,4.24956747796869,3.2886632922365,0.5,67.2932386050062
CBC_1127,CBC_1127_MSI_TV_v3_Vset3_Tset3_2024-06-26_17h06.56.696.csv,2,26,1,0,b,1,0,3,tac,B,63,1,1B,0B,1,0,b,2.43587819999084,1,0,1,1,1B,0B,B10,2.6149597780362,0.600288870448194,0.357383386004791,0.447052082844832,0.5,0.447052082844832,0.680462025824839,0.447052082844832,0.5,0.447052082844832,0.5,0.714299766193952,0.5,0.5,0.447052082844832,0.399711129551806,0.595806538730809,0.603506440045971,0.396493559954029,0.680462025824839,0.447052082844832,0.389234579203018,0.947578449181153,0.319537974175161,0.033837740369113,0.5,0.105895834310335,1.09406177697769,4.24956747796869,3.2886632922365,0.5,67.2932386050062
CBC_1127,CBC_1127_MSI_TV_v3_Vset3_Tset3_2024-06-26_17h06.56.696.csv,2,27,0,3,b,1,0,0,tac,A,9,1,0A,3A,1,0,b,3.02411679999932,1,0,1,1,0A,3A,A03,3.73766961828337,0.600288870448194,0.357383386004791,0.447052082844832,0.5,0.447052082844832,0.714299766193952,0.447052082844832,0.5,0.447052082844832,0.5,0.714299766193952,0.5,0.5,0.447052082844832,0.399711129551806,0.595806538730809,0.545573882069416,0.454426117930584,0.600288870448194,0.5,0.196431639062918,0.781350404664237,0.399711129551806,0.042327743547015,0.5,0.105895834310335,1.09406177697769,4.24956747796869,3.2886632922365,0.5,67.2932386050062
CBC_1127,CBC_1127_MSI_TV_v3_Vset3_Tset3_2024-06-26_17h06.56.696.csv,2,28,2,3,z,0,1,1,tac,D,63,1,2D,3D,0,1,z,3.53532739999355,0,1,1,1,3D,2D,D23,1.96944064646551,0.642616613995209,0.357383386004791,0.447052082844832,0.5,0.447052082844832,0.714299766193952,0.447052082844832,0.5,0.447052082844832,0.5,0.714299766193952,0.5,0.5,0.447052082844832,0.399711129551806,0.595806538730809,0.598489165700741,0.401510834299259,0.595806538730809,0.399711129551806,0.160458912191299,0.940222040054996,0.404193461269191,0.0428024038038832,0.5,0.105895834310335,1.09406177697769,4.24956747796869,3.2886632922365,0.5,67.2932386050062
CBC_1127,CBC_1127_MSI_TV_v3_Vset3_Tset3_2024-06-26_17h06.56.696.csv,2,29,2,0,b,1,0,2,tac,C,27,1,2C,0C,1,0,b,2.57753569999477,1,0,1,1,2C,0C,C20,2.68557734525015,0.642616613995209,0.357383386004791,0.447052082844832,0.5,0.447052082844832,0.714299766193952,0.447052082844832,0.5,0.447052082844832,0.5,0.714299766193952,0.5,0.5,0.447052082844832,0.399711129551806,0.638608942534692,0.615058878827425,0.384941121172575,0.714299766193952,0.447052082844832,0.357814193401831,0.961512945678912,0.285700233806048,0.0302544646215493,0.5,0.105895834310335,1.09406177697769,4.24956747796869,3.2886632922365,0.5,67.2932386050062
CBC_1127,CBC_1127_MSI_TV_v3_Vset3_Tset3_2024-06-26_17h06.56.696.csv,2,30,1,0,z,0,1,0,tac,A,63,1,1A,0A,0,1,z,2.49318179999682,0,1,1,1,0A,1A,A10,3.11351530921037,0.642616613995209,0.357383386004791,0.447052082844832,0.5,0.447052082844832,0.714299766193952,0.447052082844832,0.5,0.447052082844832,0.5,0.744554230815502,0.5,0.5,0.447052082844832,0.399711129551806,0.638608942534692,0.642616613995209,0.357383386004791,0.642616613995209,0.357383386004791,0.395527996490228,0.98164497113401,0.357383386004791,0.0378454118296299,0.5,0.105895834310335,1.09406177697769,4.24956747796869,3.2886632922365,0.5,67.2932386050062
CBC_1127,CBC_1127_MSI_TV_v3_Vset3_Tset3_2024-06-26_17h06.56.696.csv,2,31,1,0,b,1,0,3,tac,B,63,1,1B,0B,1,0,b,2.39090539999597,1,0,1,1,1B,0B,B10,2.4423470353692,0.680462025824839,0.357383386004791,0.447052082844832,0.5,0.447052082844832,0.714299766193952,0.447052082844832,0.5,0.447052082844832,0.5,0.744554230815502,0.5,0.5,0.447052082844832,0.399711129551806,0.638608942534692,0.615058878827425,0.384941121172575,0.714299766193952,0.447052082844832,0.420181741625708,0.961335444522088,0.285700233806048,0.0302544646215493,0.5,0.105895834310335,1.09406177697769,4.24956747796869,3.2886632922365,0.5,67.2932386050062
CBC_1127,CBC_1127_MSI_TV_v3_Vset3_Tset3_2024-06-26_17h06.56.696.csv,2,32,3,1,b,1,0,1,tac,D,27,1,3D,1D,1,0,b,2.42130299999553,1,0,1,1,3D,1D,D31,3.85014760171006,0.680462025824839,0.357383386004791,0.447052082844832,0.5,0.447052082844832,0.744554230815502,0.447052082844832,0.5,0.447052082844832,0.5,0.744554230815502,0.5,0.5,0.447052082844832,0.399711129551806,0.638608942534692,0.588221302603589,0.411778697396411,0.638608942534692,0.447052082844832,0.365449164364683,0.921439474608463,0.361391057465308,0.0382698075425831,0.5,0.105895834310335,1.09406177697769,4.24956747796869,3.2886632922365,0.5,67.2932386050062
CBC_1127,CBC_1127_MSI_TV_v3_Vset3_Tset3_2024-06-26_17h06.56.696.csv,2,33,3,2,z,0,1,2,tac,C,63,1,3C,2C,0,1,z,2.47525169999426,0,1,1,1,2C,3C,C32,2.77258872223978,0.680462025824839,0.357383386004791,0.447052082844832,0.5,0.447052082844832,0.744554230815502,0.447052082844832,0.5,0.447052082844832,0.5,0.744554230815502,0.5,0.5,0.447052082844832,0.399711129551806,0.676878750077275,0.598249728601724,0.401750271398276,0.744554230815502,0.5,0.369675743714597,0.939451016062267,0.255445769184498,0.0270506428488378,0.5,0.105895834310335,1.09406177697769,4.24956747796869,3.2886632922365,0.5,67.2932386050062
CBC_1127,CBC_1127_MSI_TV_v3_Vset3_Tset3_2024-06-26_17h06.56.696.csv,2,34,1,0,b,1,0,3,tac,B,63,1,1B,0B,1,0,b,2.41919749999215,1,0,1,1,1B,0B,B10,2.28238238567653,0.680462025824839,0.357383386004791,0.447052082844832,0.5,0.447052082844832,0.744554230815502,0.447052082844832,0.5,0.447052082844832,0.5,0.771604873664339,0.5,0.5,0.447052082844832,0.399711129551806,0.676878750077275,0.624832398318205,0.375167601681795,0.744554230815502,0.447052082844832,0.420550982301762,0.970373799026133,0.255445769184498,0.0270506428488378,0.5,0.105895834310335,1.09406177697769,4.24956747796869,3.2886632922365,0.5,67.2932386050062
CBC_1127,CBC_1127_MSI_TV_v3_Vset3_Tset3_2024-06-26_17h06.56.696.csv,2,35,0,1,b,1,0,0,tac,A,63,1,0A,1A,1,0,b,2.1207327000011,1,0,1,1,0A,1A,A01,2.52572864430826,0.680462025824839,0.357383386004791,0.447052082844832,0.5,0.447052082844832,0.771604873664339,0.447052082844832,0.5,0.447052082844832,0.5,0.771604873664339,0.5,0.5,0.447052082844832,0.399711129551806,0.676878750077275,0.655648729636184,0.344351270363816,0.680462025824839,0.357383386004791,0.606125577828031,0.987319114182832,0.319537974175161,0.033837740369113,0.5,0.105895834310335,1.09406177697769,4.24956747796869,3.2886632922365,0.5,67.2932386050062
CBC_1127,CBC_1127_MSI_TV_v3_Vset3_Tset3_2024-06-26_17h06.56.696.csv,2,36,1,2,z,0,1,2,tac,C,9,1,1C,2C,0,1,z,2.27370689999225,0,1,1,1,2C,1C,C12,3.93182563272433,0.714299766193952,0.357383386004791,0.447052082844832,0.5,0.447052082844832,0.771604873664339,0.447052082844832,0.5,0.447052082844832,0.5,0.771604873664339,0.5,0.5,0.447052082844832,0.399711129551806,0.676878750077275,0.606796096527086,0.393203903472914,0.771604873664339,0.5,0.444881055599149,0.9516950192115,0.228395126335661,0.0241860924557292,0.5,0.105895834310335,1.09406177697769,4.24956747796869,3.2886632922365,0.5,67.2932386050062
CBC_1127,CBC_1127_MSI_TV_v3_Vset3_Tset3_2024-06-26_17h06.56.696.csv,2,37,1,0,z,0,1,0,tac,A,63,1,1A,0A,0,1,z,2.42601309999736,0,1,1,1,0A,1A,A10,2.85263142991332,0.714299766193952,0.357383386004791,0.447052082844832,0.5,0.447052082844832,0.771604873664339,0.447052082844832,0.5,0.447052082844832,0.5,0.795790966120069,0.5,0.5,0.447052082844832,0.399711129551806,0.676878750077275,0.666521410482607,0.333478589517393,0.714299766193952,0.357383386004791,0.417144324855929,0.990582647546381,0.285700233806048,0.0302544646215493,0.5,0.105895834310335,1.09406177697769,4.24956747796869,3.2886632922365,0.5,67.2932386050062
CBC_1127,CBC_1127_MSI_TV_v3_Vset3_Tset3_2024-06-26_17h06.56.696.csv,2,38,3,1,b,1,0,1,tac,D,27,1,3D,1D,1,0,b,2.74658610000188,1,0,1,1,3D,1D,D31,3.27714473299218,0.744554230815502,0.357383386004791,0.447052082844832,0.5,0.447052082844832,0.771604873664339,0.447052082844832,0.5,0.447052082844832,0.5,0.795790966120069,0.5,0.5,0.447052082844832,0.399711129551806,0.676878750077275,0.602242353577451,0.397757646422549,0.676878750077275,0.447052082844832,0.303454953686741,0.945712729681983,0.323121249922725,0.0342171943439653,0.5,0.105895834310335,1.09406177697769,4.24956747796869,3.2886632922365,0.5,67.2932386050062
CBC_1127,CBC_1127_MSI_TV_v3_Vset3_Tset3_2024-06-26_17h06.56.696.csv,2,39,0,1,z,0,1,3,tac,B,63,1,0B,1B,0,1,z,2.55318769999576,0,1,1,1,1B,0B,B01,3.29583686600433,0.744554230815502,0.357383386004791,0.447052082844832,0.5,0.447052082844832,0.771604873664339,0.447052082844832,0.5,0.447052082844832,0.5,0.795790966120069,0.5,0.5,0.447052082844832,0.399711129551806,0.711095944421241,0.633160028786602,0.366839971213399,0.771604873664339,0.447052082844832,0.371508216151657,0.976302356232944,0.228395126335661,0.0241860924557292,0.5,0.105895834310335,1.09406177697769,4.24956747796869,3.2886632922365,0.5,67.2932386050062
CBC_1127,CBC_1127_MSI_TV_v3_Vset3_Tset3_2024-06-26_17h06.56.696.csv,2,40,2,3,b,1,0,2,tac,C,63,0,2C,3C,0,1,b,2.44928709999658,1,0,1,0,2C,3C,C23,2.90872089656436,0.744554230815502,0.357383386004791,0.447052082844832,0.5,0.447052082844832,0.795790966120069,0.447052082844832,0.5,0.447052082844832,0.5,0.795790966120069,0.5,0.5,0.447052082844832,0.399711129551806,0.711095944421241,0.61413529413843,0.38586470586157,0.795790966120069,0.5,0.399070115637235,0.960488514283752,-0.795790966120069,-0.0842709482939125,0.5,0.105895834310335,1.09406177697769,4.24956747796869,3.2886632922365,0.5,67.2932386050062
CBC_1127,CBC_1127_MSI_TV_v3_Vset3_Tset3_2024-06-26_17h06.56.696.csv,2,41,2,0,z,0,1,0,tac,A,27,1,2A,0A,0,1,z,2.42005729999801,0,1,1,1,0A,2A,A20,3.3322045101752,0.744554230815502,0.357383386004791,0.447052082844832,0.5,0.447052082844832,0.795790966120069,0.447052082844832,0.5,0.447052082844832,0.5,0.711520017826156,0.5,0.5,0.447052082844832,0.399711129551806,0.711095944421241,0.624832398318205,0.375167601681795,0.744554230815502,0.447052082844832,0.420194104121039,0.970354258519249,0.255445769184498,0.0270506428488378,0.5,0.105895834310335,1.09406177697769,4.24956747796869,3.2886632922365,0.5,67.2932386050062
CBC_1127,CBC_1127_MSI_TV_v3_Vset3_Tset3_2024-06-26_17h06.56.696.csv,2,42,3,2,b,1,0,1,tac,D,63,1,3D,2D,1,0,b,2.44630339999276,1,0,1,1,3D,2D,D32,4.04305126783455,0.771604873664339,0.357383386004791,0.447052082844832,0.5,0.447052082844832,0.795790966120069,0.447052082844832,0.5,0.447052082844832,0.5,0.711520017826156,0.5,0.5,0.447052082844832,0.399711129551806,0.711095944421241,0.640161519567794,0.359838480432206,0.711095944421241,0.399711129551806,0.416596542096946,0.98056880851728,0.288904055578759,0.0305937360011522,0.5,0.105895834310335,1.09406177697769,4.24956747796869,3.2886632922365,0.5,67.2932386050062
CBC_1127,CBC_1127_MSI_TV_v3_Vset3_Tset3_2024-06-26_17h06.56.696.csv,2,43,3,1,z,0,1,3,tac,B,27,1,3B,1B,0,1,z,2.6413734999951,0,1,1,1,1B,3B,B31,3.36729582998647,0.771604873664339,0.357383386004791,0.447052082844832,0.5,0.447052082844832,0.795790966120069,0.447052082844832,0.5,0.447052082844832,0.5,0.711520017826156,0.5,0.5,0.447052082844832,0.399711129551806,0.741689680422393,0.61413529413843,0.38586470586157,0.795790966120069,0.5,0.337660340049874,0.960530149978384,0.204209033879931,0.0216248860164229,0.5,0.105895834310335,1.09406177697769,4.24956747796869,3.2886632922365,0.5,67.2932386050062
CBC_1127,CBC_1127_MSI_TV_v3_Vset3_Tset3_2024-06-26_17h06.56.696.csv,2,44,2,3,b,1,0,2,tac,C,63,1,2C,3C,1,0,z,2.6685284999985,0,1,0,0,3C,2C,C23,2.69124308278583,0.771604873664339,0.357383386004791,0.447052082844832,0.5,0.447052082844832,0.817415852136491,0.447052082844832,0.5,0.447052082844832,0.5,0.711520017826156,0.5,0.5,0.447052082844832,0.399711129551806,0.741689680422393,0.412704695459474,0.587295304540526,0.5,0.711520017826156,0.027003103420221,0.0806750003309173,-0.5,-0.0529479171551677,0.5,0.105895834310335,1.09406177697769,4.24956747796869,3.2886632922365,0.5,67.2932386050062
