ID,filename,session,trial,visStimLeft,visStimRight,correctKey,leftCorrect,rightCorrect,secondStim,mod2Type,mod2Stim,frequency,rewardAccurate,stimPairLeft,stimPairRight,pCorrectLeft,pCorrectRight,key,reactionTime,choiceLeft,choiceRight,choiceAccurate,reward,chosenPair,otherPair,triplet,surprise,0A belief,1A belief,2A belief,3A belief,0B belief,1B belief,2B belief,3B belief,0C belief,1C belief,2C belief,3C belief,0D belief,1D belief,2D belief,3D belief,beliefPairNorm,beliefOtherPairNorm,beliefPair,beliefOtherPair,lik,corrLik,rewardPE,update2,fitCBCsimpleRW_CBCdriftDiffusionLR_pwBelief_startBelief,fitCBCsimpleRW_CBCdriftDiffusionLR_pwBelief_alpha1,fitCBCsimpleRW_CBCdriftDiffusionLR_pwBelief_nonDecisionTime,fitCBCsimpleRW_CBCdriftDiffusionLR_pwBelief_weight,fitCBCsimpleRW_CBCdriftDiffusionLR_pwBelief_startingBoundary,fitCBCsimpleRW_CBCdriftDiffusionLR_pwBelief_startingPoint,fit_CBCsimpleRW_CBCdriftDiffusionLR_pwBelief_NLL
CBC_1127,CBC_1127_MSI_AV_v3_Vset1_Aset1_2024-06-26_16h04.31.880.csv,1,1,1,3,b,1,0,3,aud,B,27,1,1B,3B,1,0,b,2.65296259999741,1,0,1,1,1B,3B,B13,2.77258872223978,0.5,0.5,0.5,0.5,0.5,0.5,0.5,0.5,0.5,0.5,0.5,0.5,0.5,0.5,0.5,0.5,0.5,0.5,0.5,0.5,0.143762835262549,0.499530434719781,0.5,0.0266183621108239,0.5,0.0532367242216478,1.09039119849918,2.66361799598321,3.18194310954533,0.5,79.5041340405479
CBC_1127,CBC_1127_MSI_AV_v3_Vset1_Aset1_2024-06-26_16h04.31.880.csv,1,2,3,2,z,0,1,2,aud,C,63,1,3C,2C,0,1,z,3.68755939999755,0,1,1,1,2C,3C,C32,2.83321334405622,0.5,0.5,0.5,0.5,0.5,0.526618362110824,0.5,0.5,0.5,0.5,0.5,0.5,0.5,0.5,0.5,0.5,0.5,0.5,0.5,0.5,0.0877114235489845,0.501266196208056,0.5,0.0266183621108239,0.5,0.0532367242216478,1.09039119849918,2.66361799598321,3.18194310954533,0.5,79.5041340405479
CBC_1127,CBC_1127_MSI_AV_v3_Vset1_Aset1_2024-06-26_16h04.31.880.csv,1,3,3,2,b,1,0,1,aud,D,63,1,3D,2D,1,0,b,3.32977739999842,1,0,1,1,3D,2D,D32,2.89037175789616,0.5,0.5,0.5,0.5,0.5,0.526618362110824,0.5,0.5,0.5,0.5,0.526618362110824,0.5,0.5,0.5,0.5,0.5,0.5,0.5,0.5,0.5,0.104021155432533,0.499526598549836,0.5,0.0266183621108239,0.5,0.0532367242216478,1.09039119849918,2.66361799598321,3.18194310954533,0.5,79.5041340405479
CBC_1127,CBC_1127_MSI_AV_v3_Vset1_Aset1_2024-06-26_16h04.31.880.csv,1,4,0,1,z,0,1,3,aud,B,63,0,0B,1B,1,0,z,2.38271170000007,0,1,1,0,1B,0B,B01,2.94443897916644,0.5,0.5,0.5,0.5,0.5,0.526618362110824,0.5,0.5,0.5,0.5,0.526618362110824,0.5,0.5,0.5,0.5,0.526618362110824,0.526618362110824,0.473381637889176,0.526618362110824,0.5,0.20031963852296,0.610555125022688,-0.526618362110824,-0.0280354365137498,0.5,0.0532367242216478,1.09039119849918,2.66361799598321,3.18194310954533,0.5,79.5041340405479
CBC_1127,CBC_1127_MSI_AV_v3_Vset1_Aset1_2024-06-26_16h04.31.880.csv,1,5,0,3,b,1,0,0,aud,A,9,1,0A,3A,1,0,b,3.22346639999887,1,0,1,1,0A,3A,A03,2.99573227355399,0.5,0.5,0.5,0.5,0.5,0.498582925597074,0.5,0.5,0.5,0.5,0.526618362110824,0.5,0.5,0.5,0.5,0.526618362110824,0.5,0.5,0.5,0.5,0.109679257110399,0.500225880378608,0.5,0.0266183621108239,0.5,0.0532367242216478,1.09039119849918,2.66361799598321,3.18194310954533,0.5,79.5041340405479
CBC_1127,CBC_1127_MSI_AV_v3_Vset1_Aset1_2024-06-26_16h04.31.880.csv,1,6,3,2,b,1,0,1,aud,D,63,1,3D,2D,1,0,b,2.8236971999977,1,0,1,1,3D,2D,D32,2.35137525716348,0.526618362110824,0.5,0.5,0.5,0.5,0.498582925597074,0.5,0.5,0.5,0.5,0.526618362110824,0.5,0.5,0.5,0.5,0.526618362110824,0.526618362110824,0.473381637889176,0.526618362110824,0.5,0.163378435809962,0.610191171927285,0.473381637889176,0.025201287707898,0.5,0.0532367242216478,1.09039119849918,2.66361799598321,3.18194310954533,0.5,79.5041340405479
CBC_1127,CBC_1127_MSI_AV_v3_Vset1_Aset1_2024-06-26_16h04.31.880.csv,1,7,0,2,z,0,1,2,aud,C,27,1,0C,2C,0,1,b,3.27912129999822,1,0,0,0,0C,2C,C02,3.09104245335832,0.526618362110824,0.5,0.5,0.5,0.5,0.498582925597074,0.5,0.5,0.5,0.5,0.526618362110824,0.5,0.5,0.5,0.5,0.551819649818722,0.473381637889176,0.526618362110824,0.5,0.526618362110824,0.0834147526884282,0.389594711321244,-0.5,-0.0266183621108239,0.5,0.0532367242216478,1.09039119849918,2.66361799598321,3.18194310954533,0.5,79.5041340405479
CBC_1127,CBC_1127_MSI_AV_v3_Vset1_Aset1_2024-06-26_16h04.31.880.csv,1,8,0,1,b,1,0,0,aud,A,63,1,0A,1A,1,0,b,3.43438419999802,1,0,1,1,0A,1A,A01,3.13549421592915,0.526618362110824,0.5,0.5,0.5,0.5,0.498582925597074,0.5,0.5,0.473381637889176,0.5,0.526618362110824,0.5,0.5,0.5,0.5,0.551819649818722,0.526618362110824,0.473381637889176,0.526618362110824,0.5,0.121200457176953,0.611341137734904,0.473381637889176,0.025201287707898,0.5,0.0532367242216478,1.09039119849918,2.66361799598321,3.18194310954533,0.5,79.5041340405479
CBC_1127,CBC_1127_MSI_AV_v3_Vset1_Aset1_2024-06-26_16h04.31.880.csv,1,9,1,0,b,1,0,3,aud,B,63,1,1B,0B,1,0,b,2.51566019999518,1,0,1,1,1B,0B,B10,3.17805383034795,0.551819649818722,0.5,0.5,0.5,0.5,0.498582925597074,0.5,0.5,0.473381637889176,0.5,0.526618362110824,0.5,0.5,0.5,0.5,0.551819649818722,0.498582925597074,0.501417074402926,0.498582925597074,0.5,0.151043834110146,0.493220197604612,0.501417074402926,0.026693802510014,0.5,0.0532367242216478,1.09039119849918,2.66361799598321,3.18194310954533,0.5,79.5041340405479
CBC_1127,CBC_1127_MSI_AV_v3_Vset1_Aset1_2024-06-26_16h04.31.880.csv,1,10,1,3,z,0,1,1,aud,D,27,1,1D,3D,0,1,b,3.66134969999985,1,0,0,0,1D,3D,D13,3.2188758248682,0.551819649818722,0.5,0.5,0.5,0.5,0.525276728107088,0.5,0.5,0.473381637889176,0.5,0.526618362110824,0.5,0.5,0.5,0.5,0.551819649818722,0.448180350181278,0.551819649818722,0.5,0.551819649818722,0.0518045573553738,0.293611862733656,-0.5,-0.0266183621108239,0.5,0.0532367242216478,1.09039119849918,2.66361799598321,3.18194310954533,0.5,79.5041340405479
CBC_1127,CBC_1127_MSI_AV_v3_Vset1_Aset1_2024-06-26_16h04.31.880.csv,1,11,3,2,z,0,1,2,aud,C,63,1,3C,2C,0,1,b,2.78124720000051,1,0,0,0,3C,2C,C32,2.56494935746154,0.551819649818722,0.5,0.5,0.5,0.5,0.525276728107088,0.5,0.5,0.473381637889176,0.5,0.526618362110824,0.5,0.5,0.473381637889176,0.5,0.551819649818722,0.473381637889176,0.526618362110824,0.5,0.526618362110824,0.106244129243097,0.388694806432129,-0.5,-0.0266183621108239,0.5,0.0532367242216478,1.09039119849918,2.66361799598321,3.18194310954533,0.5,79.5041340405479
CBC_1127,CBC_1127_MSI_AV_v3_Vset1_Aset1_2024-06-26_16h04.31.880.csv,1,12,1,0,b,1,0,3,aud,B,63,1,1B,0B,1,0,z,2.39244589999726,0,1,0,0,0B,1B,B10,2.60268968544438,0.551819649818722,0.5,0.5,0.5,0.5,0.525276728107088,0.5,0.5,0.473381637889176,0.5,0.526618362110824,0.473381637889176,0.5,0.473381637889176,0.5,0.551819649818722,0.474723271892912,0.525276728107088,0.5,0.525276728107088,0.128935872588494,0.395080294726171,-0.5,-0.0266183621108239,0.5,0.0532367242216478,1.09039119849918,2.66361799598321,3.18194310954533,0.5,79.5041340405479
CBC_1127,CBC_1127_MSI_AV_v3_Vset1_Aset1_2024-06-26_16h04.31.880.csv,1,13,0,1,b,1,0,0,aud,A,63,1,0A,1A,1,0,z,3.22785310000108,0,1,0,0,1A,0A,A01,2.63905732961526,0.551819649818722,0.5,0.5,0.5,0.473381637889176,0.525276728107088,0.5,0.5,0.473381637889176,0.5,0.526618362110824,0.473381637889176,0.5,0.473381637889176,0.5,0.551819649818722,0.448180350181278,0.551819649818722,0.5,0.551819649818722,0.0647898686284675,0.292546621810362,-0.5,-0.0266183621108239,0.5,0.0532367242216478,1.09039119849918,2.66361799598321,3.18194310954533,0.5,79.5041340405479
CBC_1127,CBC_1127_MSI_AV_v3_Vset1_Aset1_2024-06-26_16h04.31.880.csv,1,14,1,2,z,0,1,2,aud,C,9,1,1C,2C,0,1,z,3.11704129999998,0,1,1,1,2C,1C,C12,3.36729582998647,0.551819649818722,0.473381637889176,0.5,0.5,0.473381637889176,0.525276728107088,0.5,0.5,0.473381637889176,0.5,0.526618362110824,0.473381637889176,0.5,0.473381637889176,0.5,0.551819649818722,0.526618362110824,0.473381637889176,0.526618362110824,0.5,0.142013517301158,0.612140597965839,0.473381637889176,0.025201287707898,0.5,0.0532367242216478,1.09039119849918,2.66361799598321,3.18194310954533,0.5,79.5041340405479
CBC_1127,CBC_1127_MSI_AV_v3_Vset1_Aset1_2024-06-26_16h04.31.880.csv,1,15,1,0,z,0,1,0,aud,A,63,1,1A,0A,0,1,z,2.77684469999804,0,1,1,1,0A,1A,A10,3.40119738166216,0.551819649818722,0.473381637889176,0.5,0.5,0.473381637889176,0.525276728107088,0.5,0.5,0.473381637889176,0.5,0.551819649818722,0.473381637889176,0.5,0.473381637889176,0.5,0.551819649818722,0.578007611422715,0.421992388577285,0.551819649818722,0.473381637889176,0.227325508276903,0.789277527999042,0.448180350181278,0.0238596537041623,0.5,0.0532367242216478,1.09039119849918,2.66361799598321,3.18194310954533,0.5,79.5041340405479
CBC_1127,CBC_1127_MSI_AV_v3_Vset1_Aset1_2024-06-26_16h04.31.880.csv,1,16,3,1,b,1,0,1,aud,D,27,1,3D,1D,1,0,b,2.53046790000008,1,0,1,1,3D,1D,D31,3.43398720448515,0.575679303522884,0.473381637889176,0.5,0.5,0.473381637889176,0.525276728107088,0.5,0.5,0.473381637889176,0.5,0.551819649818722,0.473381637889176,0.5,0.473381637889176,0.5,0.551819649818722,0.578007611422715,0.421992388577285,0.551819649818722,0.473381637889176,0.260059077197199,0.789288529822031,0.448180350181278,0.0238596537041623,0.5,0.0532367242216478,1.09039119849918,2.66361799598321,3.18194310954533,0.5,79.5041340405479
CBC_1127,CBC_1127_MSI_AV_v3_Vset1_Aset1_2024-06-26_16h04.31.880.csv,1,17,0,1,z,0,1,3,aud,B,63,1,0B,1B,0,1,z,3.87127779999719,0,1,1,1,1B,0B,B01,2.77258872223978,0.575679303522884,0.473381637889176,0.5,0.5,0.473381637889176,0.525276728107088,0.5,0.5,0.473381637889176,0.5,0.551819649818722,0.473381637889176,0.5,0.473381637889176,0.5,0.575679303522884,0.551755799812815,0.448244200187185,0.525276728107088,0.473381637889176,0.111539926647986,0.705774191339448,0.474723271892912,0.0252727119073613,0.5,0.0532367242216478,1.09039119849918,2.66361799598321,3.18194310954533,0.5,79.5041340405479
CBC_1127,CBC_1127_MSI_AV_v3_Vset1_Aset1_2024-06-26_16h04.31.880.csv,1,18,2,3,b,1,0,2,aud,C,63,0,2C,3C,0,1,b,2.68908079999892,1,0,1,0,2C,3C,C23,3.49650756146648,0.575679303522884,0.473381637889176,0.5,0.5,0.473381637889176,0.550549440014449,0.5,0.5,0.473381637889176,0.5,0.551819649818722,0.473381637889176,0.5,0.473381637889176,0.5,0.575679303522884,0.578007611422715,0.421992388577285,0.551819649818722,0.473381637889176,0.238540780251843,0.789013674150476,-0.551819649818722,-0.0293770705174856,0.5,0.0532367242216478,1.09039119849918,2.66361799598321,3.18194310954533,0.5,79.5041340405479
CBC_1127,CBC_1127_MSI_AV_v3_Vset1_Aset1_2024-06-26_16h04.31.880.csv,1,19,2,0,z,0,1,0,aud,A,27,1,2A,0A,0,1,b,3.70147970000107,1,0,0,0,2A,0A,A20,3.52636052461616,0.575679303522884,0.473381637889176,0.5,0.5,0.473381637889176,0.550549440014449,0.5,0.5,0.473381637889176,0.5,0.522442579301236,0.473381637889176,0.5,0.473381637889176,0.5,0.575679303522884,0.424320696477116,0.575679303522884,0.5,0.575679303522884,0.0371766392247597,0.218001995468894,-0.5,-0.0266183621108239,0.5,0.0532367242216478,1.09039119849918,2.66361799598321,3.18194310954533,0.5,79.5041340405479
CBC_1127,CBC_1127_MSI_AV_v3_Vset1_Aset1_2024-06-26_16h04.31.880.csv,1,20,3,2,b,1,0,1,aud,D,63,1,3D,2D,1,0,z,3.22655649999797,0,1,0,0,2D,3D,D32,2.4567357728213,0.575679303522884,0.473381637889176,0.473381637889176,0.5,0.473381637889176,0.550549440014449,0.5,0.5,0.473381637889176,0.5,0.522442579301236,0.473381637889176,0.5,0.473381637889176,0.5,0.575679303522884,0.424320696477116,0.575679303522884,0.5,0.575679303522884,0.0484266640615435,0.216949329917156,-0.5,-0.0266183621108239,0.5,0.0532367242216478,1.09039119849918,2.66361799598321,3.18194310954533,0.5,79.5041340405479
CBC_1127,CBC_1127_MSI_AV_v3_Vset1_Aset1_2024-06-26_16h04.31.880.csv,1,21,3,1,z,0,1,3,aud,B,27,1,3B,1B,0,1,z,2.40813069999786,0,1,1,1,1B,3B,B31,3.58351893845611,0.575679303522884,0.473381637889176,0.473381637889176,0.5,0.473381637889176,0.550549440014449,0.5,0.5,0.473381637889176,0.5,0.522442579301236,0.473381637889176,0.5,0.473381637889176,0.473381637889176,0.575679303522884,0.550549440014449,0.449450559985551,0.550549440014449,0.5,0.234145554040741,0.700828895012977,0.449450559985551,0.0239272755132159,0.5,0.0532367242216478,1.09039119849918,2.66361799598321,3.18194310954533,0.5,79.5041340405479
CBC_1127,CBC_1127_MSI_AV_v3_Vset1_Aset1_2024-06-26_16h04.31.880.csv,1,22,3,2,z,0,1,2,aud,C,63,1,3C,2C,0,1,b,2.6313018999972,1,0,0,0,3C,2C,C32,2.51230562397611,0.575679303522884,0.473381637889176,0.473381637889176,0.5,0.473381637889176,0.574476715527665,0.5,0.5,0.473381637889176,0.5,0.522442579301236,0.473381637889176,0.5,0.473381637889176,0.473381637889176,0.575679303522884,0.45105601214644,0.54894398785356,0.473381637889176,0.522442579301236,0.0911005760726578,0.303755317204135,-0.473381637889176,-0.025201287707898,0.5,0.0532367242216478,1.09039119849918,2.66361799598321,3.18194310954533,0.5,79.5041340405479
CBC_1127,CBC_1127_MSI_AV_v3_Vset1_Aset1_2024-06-26_16h04.31.880.csv,1,23,0,1,b,1,0,0,aud,A,63,0,0A,1A,0,1,b,2.23618539999734,1,0,1,0,0A,1A,A01,2.53897387105828,0.575679303522884,0.473381637889176,0.473381637889176,0.5,0.473381637889176,0.574476715527665,0.5,0.5,0.473381637889176,0.5,0.522442579301236,0.448180350181278,0.5,0.473381637889176,0.473381637889176,0.575679303522884,0.601479956742181,0.398520043257819,0.575679303522884,0.473381637889176,0.342825388594888,0.848380745141432,-0.575679303522884,-0.0306472803217581,0.5,0.0532367242216478,1.09039119849918,2.66361799598321,3.18194310954533,0.5,79.5041340405479
CBC_1127,CBC_1127_MSI_AV_v3_Vset1_Aset1_2024-06-26_16h04.31.880.csv,1,24,2,1,z,0,1,3,aud,B,9,1,2B,1B,0,1,z,3.66848489999757,0,1,1,1,1B,2B,B21,3.66356164612965,0.545032023201126,0.473381637889176,0.473381637889176,0.5,0.473381637889176,0.574476715527665,0.5,0.5,0.473381637889176,0.5,0.522442579301236,0.448180350181278,0.5,0.473381637889176,0.473381637889176,0.575679303522884,0.574476715527665,0.425523284472335,0.574476715527665,0.5,0.135444536096998,0.778909740274193,0.425523284472335,0.0226534657453435,0.5,0.0532367242216478,1.09039119849918,2.66361799598321,3.18194310954533,0.5,79.5041340405479
CBC_1127,CBC_1127_MSI_AV_v3_Vset1_Aset1_2024-06-26_16h04.31.880.csv,1,25,2,3,b,1,0,2,aud,C,63,1,2C,3C,1,0,b,2.6794536999987,1,0,1,1,2C,3C,C23,2.99573227355399,0.545032023201126,0.473381637889176,0.473381637889176,0.5,0.473381637889176,0.597130181273009,0.5,0.5,0.473381637889176,0.5,0.522442579301236,0.448180350181278,0.5,0.473381637889176,0.473381637889176,0.575679303522884,0.573918370734671,0.426081629265329,0.522442579301236,0.448180350181278,0.235261935181511,0.778127773501392,0.477557420698764,0.0254235927057415,0.5,0.0532367242216478,1.09039119849918,2.66361799598321,3.18194310954533,0.5,79.5041340405479
CBC_1127,CBC_1127_MSI_AV_v3_Vset1_Aset1_2024-06-26_16h04.31.880.csv,1,26,2,3,z,0,1,1,aud,D,63,1,2D,3D,0,1,z,3.33417030000055,0,1,1,1,3D,2D,D23,3.71357206670431,0.545032023201126,0.473381637889176,0.473381637889176,0.5,0.473381637889176,0.597130181273009,0.5,0.5,0.473381637889176,0.5,0.547866172006978,0.448180350181278,0.5,0.473381637889176,0.473381637889176,0.575679303522884,0.601479956742181,0.398520043257819,0.575679303522884,0.473381637889176,0.176922779680039,0.848253265574437,0.424320696477116,0.0225894438998898,0.5,0.0532367242216478,1.09039119849918,2.66361799598321,3.18194310954533,0.5,79.5041340405479
CBC_1127,CBC_1127_MSI_AV_v3_Vset1_Aset1_2024-06-26_16h04.31.880.csv,1,27,0,1,z,0,1,3,aud,B,63,1,0B,1B,0,1,z,4.07322940000086,0,1,1,1,1B,0B,B01,2.63905732961526,0.545032023201126,0.473381637889176,0.473381637889176,0.5,0.473381637889176,0.597130181273009,0.5,0.5,0.473381637889176,0.5,0.547866172006978,0.448180350181278,0.5,0.473381637889176,0.473381637889176,0.598268747422774,0.622481862255357,0.377518137744643,0.597130181273009,0.473381637889176,0.108484928158461,0.888709623207336,0.402869818726991,0.0214474694367941,0.5,0.0532367242216478,1.09039119849918,2.66361799598321,3.18194310954533,0.5,79.5041340405479
CBC_1127,CBC_1127_MSI_AV_v3_Vset1_Aset1_2024-06-26_16h04.31.880.csv,1,28,0,2,b,1,0,0,aud,A,27,1,0A,2A,1,0,b,3.0904045999996,1,0,1,1,0A,2A,A02,3.76120011569356,0.545032023201126,0.473381637889176,0.473381637889176,0.5,0.473381637889176,0.618577650709803,0.5,0.5,0.473381637889176,0.5,0.547866172006978,0.448180350181278,0.5,0.473381637889176,0.473381637889176,0.598268747422774,0.571308481480387,0.428691518519613,0.545032023201126,0.473381637889176,0.185208204781657,0.770043712014282,0.454967976798874,0.0242210047105227,0.5,0.0532367242216478,1.09039119849918,2.66361799598321,3.18194310954533,0.5,79.5041340405479
CBC_1127,CBC_1127_MSI_AV_v3_Vset1_Aset1_2024-06-26_16h04.31.880.csv,1,29,1,3,z,0,1,1,aud,D,27,1,1D,3D,0,1,z,2.42395529999703,0,1,1,1,3D,1D,D13,3.09104245335832,0.569253027911649,0.473381637889176,0.473381637889176,0.5,0.473381637889176,0.618577650709803,0.5,0.5,0.473381637889176,0.5,0.547866172006978,0.448180350181278,0.5,0.473381637889176,0.473381637889176,0.598268747422774,0.623593944557606,0.376406055442394,0.598268747422774,0.473381637889176,0.340082213295442,0.89037311226569,0.401731252577226,0.0213868559046709,0.5,0.0532367242216478,1.09039119849918,2.66361799598321,3.18194310954533,0.5,79.5041340405479
CBC_1127,CBC_1127_MSI_AV_v3_Vset1_Aset1_2024-06-26_16h04.31.880.csv,1,30,1,0,z,0,1,0,aud,A,63,1,1A,0A,0,1,z,2.28555859999688,0,1,1,1,0A,1A,A10,3.11351530921037,0.569253027911649,0.473381637889176,0.473381637889176,0.5,0.473381637889176,0.618577650709803,0.5,0.5,0.473381637889176,0.5,0.547866172006978,0.448180350181278,0.5,0.473381637889176,0.473381637889176,0.619655603327445,0.595169646290902,0.404830353709098,0.569253027911649,0.473381637889176,0.323575421112805,0.833969374075874,0.430746972088351,0.0229315577623774,0.5,0.0532367242216478,1.09039119849918,2.66361799598321,3.18194310954533,0.5,79.5041340405479
CBC_1127,CBC_1127_MSI_AV_v3_Vset1_Aset1_2024-06-26_16h04.31.880.csv,1,31,2,0,b,1,0,2,aud,C,27,1,2C,0C,1,0,b,3.17107289999694,1,0,1,1,2C,0C,C20,3.8286413964891,0.592184585674026,0.473381637889176,0.473381637889176,0.5,0.473381637889176,0.618577650709803,0.5,0.5,0.473381637889176,0.5,0.547866172006978,0.448180350181278,0.5,0.473381637889176,0.473381637889176,0.619655603327445,0.574106850304343,0.425893149695657,0.547866172006978,0.473381637889176,0.179166024901684,0.778286232043343,0.452133827993022,0.0240701239121425,0.5,0.0532367242216478,1.09039119849918,2.66361799598321,3.18194310954533,0.5,79.5041340405479
CBC_1127,CBC_1127_MSI_AV_v3_Vset1_Aset1_2024-06-26_16h04.31.880.csv,1,32,2,3,z,0,1,1,aud,D,63,1,2D,3D,0,1,z,2.52231889999894,0,1,1,1,3D,2D,D23,3.15700042115011,0.592184585674026,0.473381637889176,0.473381637889176,0.5,0.473381637889176,0.618577650709803,0.5,0.5,0.473381637889176,0.5,0.57193629591912,0.448180350181278,0.5,0.473381637889176,0.473381637889176,0.619655603327445,0.644433857196299,0.355566142803701,0.619655603327445,0.473381637889176,0.339946567798102,0.920567708441077,0.380344396672555,0.0202482897549059,0.5,0.0532367242216478,1.09039119849918,2.66361799598321,3.18194310954533,0.5,79.5041340405479
CBC_1127,CBC_1127_MSI_AV_v3_Vset1_Aset1_2024-06-26_16h04.31.880.csv,1,33,1,0,b,1,0,3,aud,B,63,1,1B,0B,1,0,b,2.3226399999985,1,0,1,1,1B,0B,B10,2.77258872223978,0.592184585674026,0.473381637889176,0.473381637889176,0.5,0.473381637889176,0.618577650709803,0.5,0.5,0.473381637889176,0.5,0.57193629591912,0.448180350181278,0.5,0.473381637889176,0.473381637889176,0.639903893082351,0.643385714919273,0.356614285080727,0.618577650709803,0.473381637889176,0.390376987654689,0.918874175413768,0.381422349290197,0.0203056764211353,0.5,0.0532367242216478,1.09039119849918,2.66361799598321,3.18194310954533,0.5,79.5041340405479
CBC_1127,CBC_1127_MSI_AV_v3_Vset1_Aset1_2024-06-26_16h04.31.880.csv,1,34,0,1,b,1,0,0,aud,A,63,1,0A,1A,1,0,b,3.23395019999589,1,0,1,1,0A,1A,A01,2.50552593699074,0.592184585674026,0.473381637889176,0.473381637889176,0.5,0.473381637889176,0.638883327130938,0.5,0.5,0.473381637889176,0.5,0.57193629591912,0.448180350181278,0.5,0.473381637889176,0.473381637889176,0.639903893082351,0.617648205852399,0.382351794147601,0.592184585674026,0.473381637889176,0.194048558503823,0.880128455121508,0.407815414325974,0.0217107567458089,0.5,0.0532367242216478,1.09039119849918,2.66361799598321,3.18194310954533,0.5,79.5041340405479
CBC_1127,CBC_1127_MSI_AV_v3_Vset1_Aset1_2024-06-26_16h04.31.880.csv,1,35,2,3,z,0,1,1,aud,D,63,0,2D,3D,NaN,NaN,[],NaN,NaN,NaN,NaN,NaN,,,D23,2.81341071676004,0.613895342419835,0.473381637889176,0.473381637889176,0.5,0.473381637889176,0.638883327130938,0.5,0.5,0.473381637889176,0.5,0.57193629591912,0.448180350181278,0.5,0.473381637889176,0.473381637889176,0.639903893082351,0,0,0,0,NaN,0,0,0,0.5,0.0532367242216478,1.09039119849918,2.66361799598321,3.18194310954533,0.5,79.5041340405479
CBC_1127,CBC_1127_MSI_AV_v3_Vset1_Aset1_2024-06-26_16h04.31.880.csv,1,36,2,0,b,1,0,2,aud,C,27,1,2C,0C,1,0,b,2.16909160000068,1,0,1,1,2C,0C,C20,3.23867845216438,0.613895342419835,0.473381637889176,0.473381637889176,0.5,0.473381637889176,0.638883327130938,0.5,0.5,0.473381637889176,0.5,0.57193629591912,0.448180350181278,0.5,0.473381637889176,0.473381637889176,0.639903893082351,0.597805535554058,0.402194464445942,0.57193629591912,0.473381637889176,0.346893059312833,0.840152125445527,0.42806370408088,0.0227887093634509,0.5,0.0532367242216478,1.09039119849918,2.66361799598321,3.18194310954533,0.5,79.5041340405479
CBC_1127,CBC_1127_MSI_AV_v3_Vset1_Aset1_2024-06-26_16h04.31.880.csv,1,37,0,1,b,1,0,0,aud,A,63,1,0A,1A,1,0,b,2.18586909999794,1,0,1,1,0A,1A,A01,2.34180580614733,0.613895342419835,0.473381637889176,0.473381637889176,0.5,0.473381637889176,0.638883327130938,0.5,0.5,0.473381637889176,0.5,0.594725005282571,0.448180350181278,0.5,0.473381637889176,0.473381637889176,0.639903893082351,0.638830135101582,0.361169864898418,0.613895342419835,0.473381637889176,0.418467472899899,0.9127938522415,0.386104657580165,0.020554947176289,0.5,0.0532367242216478,1.09039119849918,2.66361799598321,3.18194310954533,0.5,79.5041340405479
CBC_1127,CBC_1127_MSI_AV_v3_Vset1_Aset1_2024-06-26_16h04.31.880.csv,1,38,1,3,b,1,0,3,aud,B,27,1,1B,3B,1,0,b,2.05673409999872,1,0,1,1,1B,3B,B13,3.27714473299218,0.634450289596124,0.473381637889176,0.473381637889176,0.5,0.473381637889176,0.638883327130938,0.5,0.5,0.473381637889176,0.5,0.594725005282571,0.448180350181278,0.5,0.473381637889176,0.473381637889176,0.639903893082351,0.638883327130938,0.361116672869062,0.638883327130938,0.5,0.44942891600393,0.913442087768499,0.361116672869062,0.0192246687253693,0.5,0.0532367242216478,1.09039119849918,2.66361799598321,3.18194310954533,0.5,79.5041340405479
CBC_1127,CBC_1127_MSI_AV_v3_Vset1_Aset1_2024-06-26_16h04.31.880.csv,1,39,3,2,z,0,1,2,aud,C,63,1,3C,2C,0,1,b,2.86034049999944,1,0,0,0,3C,2C,C32,2.60268968544438,0.634450289596124,0.473381637889176,0.473381637889176,0.5,0.473381637889176,0.658107995856307,0.5,0.5,0.473381637889176,0.5,0.594725005282571,0.448180350181278,0.5,0.473381637889176,0.473381637889176,0.639903893082351,0.356277264128709,0.643722735871291,0.448180350181278,0.594725005282571,0.0228825140805083,0.0800897007334008,-0.448180350181278,-0.0238596537041623,0.5,0.0532367242216478,1.09039119849918,2.66361799598321,3.18194310954533,0.5,79.5041340405479
CBC_1127,CBC_1127_MSI_AV_v3_Vset1_Aset1_2024-06-26_16h04.31.880.csv,1,40,3,2,b,1,0,1,aud,D,63,1,3D,2D,1,0,z,2.95267719999902,0,1,0,0,2D,3D,D32,2.62103882411258,0.634450289596124,0.473381637889176,0.473381637889176,0.5,0.473381637889176,0.658107995856307,0.5,0.5,0.473381637889176,0.5,0.594725005282571,0.424320696477116,0.5,0.473381637889176,0.473381637889176,0.639903893082351,0.335921860961178,0.664078139038822,0.473381637889176,0.639903893082351,0.015321222057796,0.0585387254486206,-0.473381637889176,-0.025201287707898,0.5,0.0532367242216478,1.09039119849918,2.66361799598321,3.18194310954533,0.5,79.5041340405479
CBC_1127,CBC_1127_MSI_AV_v3_Vset1_Aset1_2024-06-26_16h04.31.880.csv,1,41,0,1,z,0,1,3,aud,B,63,1,0B,1B,0,1,z,1.70952559999932,0,1,1,1,1B,0B,B01,2.63905732961526,0.634450289596124,0.473381637889176,0.473381637889176,0.5,0.473381637889176,0.658107995856307,0.5,0.5,0.473381637889176,0.5,0.594725005282571,0.424320696477116,0.5,0.473381637889176,0.448180350181278,0.639903893082351,0.681668101993675,0.318331898006325,0.658107995856307,0.473381637889176,0.588537482702464,0.955994844820047,0.341892004143693,0.0182012103381842,0.5,0.0532367242216478,1.09039119849918,2.66361799598321,3.18194310954533,0.5,79.5041340405479
CBC_1127,CBC_1127_MSI_AV_v3_Vset1_Aset1_2024-06-26_16h04.31.880.csv,1,42,2,0,z,0,1,0,aud,A,27,1,2A,0A,0,1,z,2.64115239999956,0,1,1,1,0A,2A,A20,3.3499040872746,0.634450289596124,0.473381637889176,0.473381637889176,0.5,0.473381637889176,0.676309206194492,0.5,0.5,0.473381637889176,0.5,0.594725005282571,0.424320696477116,0.5,0.473381637889176,0.448180350181278,0.639903893082351,0.65879543378091,0.34120456621909,0.634450289596124,0.473381637889176,0.318970253500302,0.936243581770451,0.365549710403876,0.0194606691220744,0.5,0.0532367242216478,1.09039119849918,2.66361799598321,3.18194310954533,0.5,79.5041340405479
CBC_1127,CBC_1127_MSI_AV_v3_Vset1_Aset1_2024-06-26_16h04.31.880.csv,1,43,3,0,b,1,0,1,aud,D,9,1,3D,0D,1,0,b,2.58048989999952,1,0,1,1,3D,0D,D30,4.06044301054642,0.653910958718198,0.473381637889176,0.473381637889176,0.5,0.473381637889176,0.676309206194492,0.5,0.5,0.473381637889176,0.5,0.594725005282571,0.424320696477116,0.5,0.473381637889176,0.448180350181278,0.639903893082351,0.639903893082351,0.360096106917649,0.639903893082351,0.5,0.321591869270875,0.91420919897398,0.360096106917649,0.0191703371372639,0.5,0.0532367242216478,1.09039119849918,2.66361799598321,3.18194310954533,0.5,79.5041340405479
CBC_1127,CBC_1127_MSI_AV_v3_Vset1_Aset1_2024-06-26_16h04.31.880.csv,1,44,3,2,z,0,1,2,aud,C,63,1,3C,2C,0,1,z,2.46626649999962,0,1,1,1,2C,3C,C32,2.46809953147162,0.653910958718198,0.473381637889176,0.473381637889176,0.5,0.473381637889176,0.676309206194492,0.5,0.5,0.473381637889176,0.5,0.594725005282571,0.424320696477116,0.5,0.473381637889176,0.448180350181278,0.659074230219615,0.665654193089615,0.334345806910385,0.594725005282571,0.424320696477116,0.372728083743616,0.943028780350446,0.405274994717429,0.0215755131277015,0.5,0.0532367242216478,1.09039119849918,2.66361799598321,3.18194310954533,0.5,79.5041340405479
CBC_1127,CBC_1127_MSI_TV_v3_Vset3_Tset3_2024-06-26_17h06.56.696.csv,2,1,0,1,z,0,1,3,tac,B,63,1,0B,1B,0,1,z,2.89067149999755,0,1,1,1,1B,0B,B01,2.77258872223978,0.5,0.5,0.5,0.5,0.5,0.5,0.5,0.5,0.5,0.5,0.5,0.5,0.5,0.5,0.5,0.5,0.5,0.5,0.5,0.5,0.127550211125614,0.500664837742239,0.5,0.0848769451453199,0.5,0.16975389029064,1.09627979763262,1.45789750206919,3.29872387198352,0.5,66.8314543500849
CBC_1127,CBC_1127_MSI_TV_v3_Vset3_Tset3_2024-06-26_17h06.56.696.csv,2,2,0,1,b,1,0,0,tac,A,63,1,0A,1A,1,0,b,2.46520139999484,1,0,1,1,0A,1A,A01,2.83321334405622,0.5,0.5,0.5,0.5,0.5,0.58487694514532,0.5,0.5,0.5,0.5,0.5,0.5,0.5,0.5,0.5,0.5,0.5,0.5,0.5,0.5,0.151844607133288,0.499686989797679,0.5,0.0848769451453199,0.5,0.16975389029064,1.09627979763262,1.45789750206919,3.29872387198352,0.5,66.8314543500849
CBC_1127,CBC_1127_MSI_TV_v3_Vset3_Tset3_2024-06-26_17h06.56.696.csv,2,3,2,3,z,0,1,1,tac,D,63,1,2D,3D,0,1,b,2.54071209999529,1,0,0,0,2D,3D,D23,2.89037175789616,0.58487694514532,0.5,0.5,0.5,0.5,0.58487694514532,0.5,0.5,0.5,0.5,0.5,0.5,0.5,0.5,0.5,0.5,0.5,0.5,0.5,0.5,0.147704080686335,0.5004346485414,-0.5,-0.0848769451453199,0.5,0.16975389029064,1.09627979763262,1.45789750206919,3.29872387198352,0.5,66.8314543500849
CBC_1127,CBC_1127_MSI_TV_v3_Vset3_Tset3_2024-06-26_17h06.56.696.csv,2,4,2,1,z,0,1,3,tac,B,9,1,2B,1B,0,1,b,4.14825919999566,1,0,0,0,2B,1B,B21,2.94443897916644,0.58487694514532,0.5,0.5,0.5,0.5,0.58487694514532,0.5,0.5,0.5,0.5,0.5,0.5,0.5,0.5,0.41512305485468,0.5,0.41512305485468,0.58487694514532,0.5,0.58487694514532,0.0439617191086746,0.307607935322899,-0.5,-0.0848769451453199,0.5,0.16975389029064,1.09627979763262,1.45789750206919,3.29872387198352,0.5,66.8314543500849
CBC_1127,CBC_1127_MSI_TV_v3_Vset3_Tset3_2024-06-26_17h06.56.696.csv,2,5,0,2,b,1,0,0,tac,A,27,1,0A,2A,1,0,z,3.26431399999274,0,1,0,0,2A,0A,A02,2.99573227355399,0.58487694514532,0.5,0.5,0.5,0.5,0.58487694514532,0.41512305485468,0.5,0.5,0.5,0.5,0.5,0.5,0.5,0.41512305485468,0.5,0.41512305485468,0.58487694514532,0.5,0.58487694514532,0.0671071826701771,0.306474182931812,-0.5,-0.0848769451453199,0.5,0.16975389029064,1.09627979763262,1.45789750206919,3.29872387198352,0.5,66.8314543500849
CBC_1127,CBC_1127_MSI_TV_v3_Vset3_Tset3_2024-06-26_17h06.56.696.csv,2,6,2,3,b,1,0,2,tac,C,63,1,2C,3C,1,0,b,2.39797499999986,1,0,1,1,2C,3C,C23,3.04452243772342,0.58487694514532,0.5,0.41512305485468,0.5,0.5,0.58487694514532,0.41512305485468,0.5,0.5,0.5,0.5,0.5,0.5,0.5,0.41512305485468,0.5,0.5,0.5,0.5,0.5,0.155669778034914,0.499839317639797,0.5,0.0848769451453199,0.5,0.16975389029064,1.09627979763262,1.45789750206919,3.29872387198352,0.5,66.8314543500849
CBC_1127,CBC_1127_MSI_TV_v3_Vset3_Tset3_2024-06-26_17h06.56.696.csv,2,7,1,3,z,0,1,1,tac,D,27,1,1D,3D,0,1,b,2.53561269999773,1,0,0,0,1D,3D,D13,3.09104245335832,0.58487694514532,0.5,0.41512305485468,0.5,0.5,0.58487694514532,0.41512305485468,0.5,0.5,0.5,0.58487694514532,0.5,0.5,0.5,0.41512305485468,0.5,0.5,0.5,0.5,0.5,0.147826562513191,0.499843511812632,-0.5,-0.0848769451453199,0.5,0.16975389029064,1.09627979763262,1.45789750206919,3.29872387198352,0.5,66.8314543500849
CBC_1127,CBC_1127_MSI_TV_v3_Vset3_Tset3_2024-06-26_17h06.56.696.csv,2,8,1,0,z,0,1,0,tac,A,63,1,1A,0A,0,1,b,2.80352129999665,1,0,0,0,1A,0A,A10,3.13549421592915,0.58487694514532,0.5,0.41512305485468,0.5,0.5,0.58487694514532,0.41512305485468,0.5,0.5,0.5,0.58487694514532,0.5,0.5,0.41512305485468,0.41512305485468,0.5,0.41512305485468,0.58487694514532,0.5,0.58487694514532,0.0834414675120438,0.306391765441762,-0.5,-0.0848769451453199,0.5,0.16975389029064,1.09627979763262,1.45789750206919,3.29872387198352,0.5,66.8314543500849
CBC_1127,CBC_1127_MSI_TV_v3_Vset3_Tset3_2024-06-26_17h06.56.696.csv,2,9,2,0,b,1,0,2,tac,C,27,1,2C,0C,1,0,z,3.76871739999478,0,1,0,0,0C,2C,C20,3.17805383034795,0.58487694514532,0.41512305485468,0.41512305485468,0.5,0.5,0.58487694514532,0.41512305485468,0.5,0.5,0.5,0.58487694514532,0.5,0.5,0.41512305485468,0.41512305485468,0.5,0.41512305485468,0.58487694514532,0.5,0.58487694514532,0.0525795472462459,0.306253861125287,-0.5,-0.0848769451453199,0.5,0.16975389029064,1.09627979763262,1.45789750206919,3.29872387198352,0.5,66.8314543500849
CBC_1127,CBC_1127_MSI_TV_v3_Vset3_Tset3_2024-06-26_17h06.56.696.csv,2,10,2,3,z,0,1,1,tac,D,63,1,2D,3D,0,1,z,2.41308659999777,0,1,1,1,3D,2D,D23,2.52572864430826,0.58487694514532,0.41512305485468,0.41512305485468,0.5,0.5,0.58487694514532,0.41512305485468,0.5,0.41512305485468,0.5,0.58487694514532,0.5,0.5,0.41512305485468,0.41512305485468,0.5,0.58487694514532,0.41512305485468,0.5,0.41512305485468,0.22325037146888,0.692282421475649,0.5,0.0848769451453199,0.5,0.16975389029064,1.09627979763262,1.45789750206919,3.29872387198352,0.5,66.8314543500849
CBC_1127,CBC_1127_MSI_TV_v3_Vset3_Tset3_2024-06-26_17h06.56.696.csv,2,11,1,0,b,1,0,3,tac,B,63,1,1B,0B,1,0,z,2.71140229999583,0,1,0,0,0B,1B,B10,3.25809653802148,0.58487694514532,0.41512305485468,0.41512305485468,0.5,0.5,0.58487694514532,0.41512305485468,0.5,0.41512305485468,0.5,0.58487694514532,0.5,0.5,0.41512305485468,0.41512305485468,0.58487694514532,0.41512305485468,0.58487694514532,0.5,0.58487694514532,0.087212851908135,0.307094899530599,-0.5,-0.0848769451453199,0.5,0.16975389029064,1.09627979763262,1.45789750206919,3.29872387198352,0.5,66.8314543500849
CBC_1127,CBC_1127_MSI_TV_v3_Vset3_Tset3_2024-06-26_17h06.56.696.csv,2,12,0,1,b,1,0,0,tac,A,63,1,0A,1A,1,0,z,2.85999599999923,0,1,0,0,1A,0A,A01,2.60268968544438,0.58487694514532,0.41512305485468,0.41512305485468,0.5,0.41512305485468,0.58487694514532,0.41512305485468,0.5,0.41512305485468,0.5,0.58487694514532,0.5,0.5,0.41512305485468,0.41512305485468,0.58487694514532,0.335000790178623,0.664999209821377,0.41512305485468,0.58487694514532,0.0474934489158635,0.169366860069232,-0.41512305485468,-0.0704687535109166,0.5,0.16975389029064,1.09627979763262,1.45789750206919,3.29872387198352,0.5,66.8314543500849
CBC_1127,CBC_1127_MSI_TV_v3_Vset3_Tset3_2024-06-26_17h06.56.696.csv,2,13,2,3,z,0,1,1,tac,D,63,1,2D,3D,0,1,b,2.79924729999766,1,0,0,0,2D,3D,D23,2.23359222150709,0.58487694514532,0.344654301343764,0.41512305485468,0.5,0.41512305485468,0.58487694514532,0.41512305485468,0.5,0.41512305485468,0.5,0.58487694514532,0.5,0.5,0.41512305485468,0.41512305485468,0.58487694514532,0.335000790178623,0.664999209821377,0.41512305485468,0.58487694514532,0.0492200564778023,0.169806952184716,-0.41512305485468,-0.0704687535109166,0.5,0.16975389029064,1.09627979763262,1.45789750206919,3.29872387198352,0.5,66.8314543500849
CBC_1127,CBC_1127_MSI_TV_v3_Vset3_Tset3_2024-06-26_17h06.56.696.csv,2,14,2,0,b,1,0,2,tac,C,27,1,2C,0C,1,0,b,2.13409439999668,1,0,1,1,2C,0C,C20,2.67414864942653,0.58487694514532,0.344654301343764,0.41512305485468,0.5,0.41512305485468,0.58487694514532,0.41512305485468,0.5,0.41512305485468,0.5,0.58487694514532,0.5,0.5,0.41512305485468,0.344654301343764,0.58487694514532,0.664999209821377,0.335000790178623,0.58487694514532,0.41512305485468,0.329157310424895,0.830326505310492,0.41512305485468,0.0704687535109166,0.5,0.16975389029064,1.09627979763262,1.45789750206919,3.29872387198352,0.5,66.8314543500849
CBC_1127,CBC_1127_MSI_TV_v3_Vset3_Tset3_2024-06-26_17h06.56.696.csv,2,15,0,1,b,1,0,0,tac,A,63,1,0A,1A,1,0,z,2.66384799999651,0,1,0,0,1A,0A,A01,2.30258509299405,0.58487694514532,0.344654301343764,0.41512305485468,0.5,0.41512305485468,0.58487694514532,0.41512305485468,0.5,0.41512305485468,0.5,0.655345698656237,0.5,0.5,0.41512305485468,0.344654301343764,0.58487694514532,0.27181222441361,0.72818777558639,0.344654301343764,0.58487694514532,0.0331465925531839,0.100330169013956,-0.344654301343764,-0.0585064084585063,0.5,0.16975389029064,1.09627979763262,1.45789750206919,3.29872387198352,0.5,66.8314543500849
CBC_1127,CBC_1127_MSI_TV_v3_Vset3_Tset3_2024-06-26_17h06.56.696.csv,2,16,1,3,b,1,0,3,tac,B,27,1,1B,3B,1,0,b,2.55127539999376,1,0,1,1,1B,3B,B13,3.43398720448515,0.58487694514532,0.286147892885257,0.41512305485468,0.5,0.41512305485468,0.58487694514532,0.41512305485468,0.5,0.41512305485468,0.5,0.655345698656237,0.5,0.5,0.41512305485468,0.344654301343764,0.58487694514532,0.58487694514532,0.41512305485468,0.58487694514532,0.5,0.211082966526282,0.69263020993085,0.41512305485468,0.0704687535109166,0.5,0.16975389029064,1.09627979763262,1.45789750206919,3.29872387198352,0.5,66.8314543500849
CBC_1127,CBC_1127_MSI_TV_v3_Vset3_Tset3_2024-06-26_17h06.56.696.csv,2,17,3,2,z,0,1,2,tac,C,63,1,3C,2C,0,1,z,3.00948159999825,0,1,1,1,2C,3C,C32,3.46573590279973,0.58487694514532,0.286147892885257,0.41512305485468,0.5,0.41512305485468,0.655345698656237,0.41512305485468,0.5,0.41512305485468,0.5,0.655345698656237,0.5,0.5,0.41512305485468,0.344654301343764,0.58487694514532,0.655345698656237,0.344654301343763,0.655345698656237,0.5,0.20974774942843,0.816838304812783,0.344654301343763,0.0585064084585063,0.5,0.16975389029064,1.09627979763262,1.45789750206919,3.29872387198352,0.5,66.8314543500849
CBC_1127,CBC_1127_MSI_TV_v3_Vset3_Tset3_2024-06-26_17h06.56.696.csv,2,18,2,3,z,0,1,1,tac,D,63,0,2D,3D,1,0,z,2.59401439999783,0,1,1,0,3D,2D,D23,2.11021320034659,0.58487694514532,0.286147892885257,0.41512305485468,0.5,0.41512305485468,0.655345698656237,0.41512305485468,0.5,0.41512305485468,0.5,0.713852107114743,0.5,0.5,0.41512305485468,0.344654301343764,0.58487694514532,0.72818777558639,0.27181222441361,0.58487694514532,0.344654301343764,0.310800304512082,0.899900368138404,-0.58487694514532,-0.0992851367797232,0.5,0.16975389029064,1.09627979763262,1.45789750206919,3.29872387198352,0.5,66.8314543500849
CBC_1127,CBC_1127_MSI_TV_v3_Vset3_Tset3_2024-06-26_17h06.56.696.csv,2,19,1,0,b,1,0,3,tac,B,63,1,1B,0B,1,0,b,2.76213079999434,1,0,1,1,1B,0B,B10,2.83321334405622,0.58487694514532,0.286147892885257,0.41512305485468,0.5,0.41512305485468,0.655345698656237,0.41512305485468,0.5,0.41512305485468,0.5,0.713852107114743,0.5,0.5,0.41512305485468,0.344654301343764,0.485591808365597,0.72818777558639,0.27181222441361,0.655345698656237,0.41512305485468,0.279152252368358,0.899934338359539,0.344654301343763,0.0585064084585063,0.5,0.16975389029064,1.09627979763262,1.45789750206919,3.29872387198352,0.5,66.8314543500849
CBC_1127,CBC_1127_MSI_TV_v3_Vset3_Tset3_2024-06-26_17h06.56.696.csv,2,20,2,0,z,0,1,0,tac,A,27,1,2A,0A,0,1,z,2.5063233999972,0,1,1,1,0A,2A,A20,3.55534806148941,0.58487694514532,0.286147892885257,0.41512305485468,0.5,0.41512305485468,0.713852107114743,0.41512305485468,0.5,0.41512305485468,0.5,0.713852107114743,0.5,0.5,0.41512305485468,0.344654301343764,0.485591808365597,0.664999209821377,0.335000790178623,0.58487694514532,0.41512305485468,0.280918105119521,0.830171259937363,0.41512305485468,0.0704687535109166,0.5,0.16975389029064,1.09627979763262,1.45789750206919,3.29872387198352,0.5,66.8314543500849
CBC_1127,CBC_1127_MSI_TV_v3_Vset3_Tset3_2024-06-26_17h06.56.696.csv,2,21,0,3,z,0,1,1,tac,D,9,1,0D,3D,0,1,z,2.32585249999829,0,1,1,1,3D,0D,D03,3.58351893845611,0.655345698656237,0.286147892885257,0.41512305485468,0.5,0.41512305485468,0.713852107114743,0.41512305485468,0.5,0.41512305485468,0.5,0.713852107114743,0.5,0.5,0.41512305485468,0.344654301343764,0.485591808365597,0.485591808365597,0.514408191634403,0.485591808365597,0.5,0.148413216315654,0.46436701380489,0.514408191634403,0.0873227917273129,0.5,0.16975389029064,1.09627979763262,1.45789750206919,3.29872387198352,0.5,66.8314543500849
CBC_1127,CBC_1127_MSI_TV_v3_Vset3_Tset3_2024-06-26_17h06.56.696.csv,2,22,2,3,b,1,0,2,tac,C,63,1,2C,3C,1,0,b,2.4623239999928,1,0,1,1,2C,3C,C23,2.91777073208428,0.655345698656237,0.286147892885257,0.41512305485468,0.5,0.41512305485468,0.713852107114743,0.41512305485468,0.5,0.41512305485468,0.5,0.713852107114743,0.5,0.5,0.41512305485468,0.344654301343764,0.57291460009291,0.713852107114743,0.286147892885257,0.713852107114743,0.5,0.326249587421759,0.886731087261402,0.286147892885257,0.0485747180157417,0.5,0.16975389029064,1.09627979763262,1.45789750206919,3.29872387198352,0.5,66.8314543500849
CBC_1127,CBC_1127_MSI_TV_v3_Vset3_Tset3_2024-06-26_17h06.56.696.csv,2,23,3,1,z,0,1,3,tac,B,27,1,3B,1B,0,1,z,2.45899669999199,0,1,1,1,1B,3B,B31,3.63758615972639,0.655345698656237,0.286147892885257,0.41512305485468,0.5,0.41512305485468,0.713852107114743,0.41512305485468,0.5,0.41512305485468,0.5,0.762426825130485,0.5,0.5,0.41512305485468,0.344654301343764,0.57291460009291,0.713852107114743,0.286147892885257,0.713852107114743,0.5,0.326881217649034,0.886747614116557,0.286147892885257,0.0485747180157417,0.5,0.16975389029064,1.09627979763262,1.45789750206919,3.29872387198352,0.5,66.8314543500849
CBC_1127,CBC_1127_MSI_TV_v3_Vset3_Tset3_2024-06-26_17h06.56.696.csv,2,24,3,2,z,0,1,2,tac,C,63,1,3C,2C,0,1,z,2.47703969999566,0,1,1,1,2C,3C,C32,2.9704144655697,0.655345698656237,0.286147892885257,0.41512305485468,0.5,0.41512305485468,0.762426825130485,0.41512305485468,0.5,0.41512305485468,0.5,0.762426825130485,0.5,0.5,0.41512305485468,0.344654301343764,0.57291460009291,0.762426825130485,0.237573174869515,0.762426825130485,0.5,0.356481794921169,0.925597506610323,0.237573174869515,0.0403289706627987,0.5,0.16975389029064,1.09627979763262,1.45789750206919,3.29872387198352,0.5,66.8314543500849
CBC_1127,CBC_1127_MSI_TV_v3_Vset3_Tset3_2024-06-26_17h06.56.696.csv,2,25,2,3,z,0,1,1,tac,D,63,1,2D,3D,0,1,z,2.66529969999101,0,1,1,1,3D,2D,D23,2.07944154167984,0.655345698656237,0.286147892885257,0.41512305485468,0.5,0.41512305485468,0.762426825130485,0.41512305485468,0.5,0.41512305485468,0.5,0.802755795793283,0.5,0.5,0.41512305485468,0.344654301343764,0.57291460009291,0.718366572718657,0.281633427281343,0.57291460009291,0.344654301343764,0.291856427842517,0.891152179039292,0.42708539990709,0.0724994081205622,0.5,0.16975389029064,1.09627979763262,1.45789750206919,3.29872387198352,0.5,66.8314543500849
CBC_1127,CBC_1127_MSI_TV_v3_Vset3_Tset3_2024-06-26_17h06.56.696.csv,2,26,1,0,b,1,0,3,tac,B,63,1,1B,0B,1,0,b,2.43587819999084,1,0,1,1,1B,0B,B10,2.6149597780362,0.655345698656237,0.286147892885257,0.41512305485468,0.5,0.41512305485468,0.762426825130485,0.41512305485468,0.5,0.41512305485468,0.5,0.802755795793283,0.5,0.5,0.41512305485468,0.344654301343764,0.645414008213472,0.818891802513676,0.181108197486324,0.762426825130485,0.41512305485468,0.398939730682305,0.955486318438187,0.237573174869515,0.0403289706627987,0.5,0.16975389029064,1.09627979763262,1.45789750206919,3.29872387198352,0.5,66.8314543500849
CBC_1127,CBC_1127_MSI_TV_v3_Vset3_Tset3_2024-06-26_17h06.56.696.csv,2,27,0,3,b,1,0,0,tac,A,9,1,0A,3A,1,0,b,3.02411679999932,1,0,1,1,0A,3A,A03,3.73766961828337,0.655345698656237,0.286147892885257,0.41512305485468,0.5,0.41512305485468,0.802755795793283,0.41512305485468,0.5,0.41512305485468,0.5,0.802755795793283,0.5,0.5,0.41512305485468,0.344654301343764,0.645414008213472,0.655345698656237,0.344654301343763,0.655345698656237,0.5,0.207754155207053,0.815845770066136,0.344654301343763,0.0585064084585063,0.5,0.16975389029064,1.09627979763262,1.45789750206919,3.29872387198352,0.5,66.8314543500849
CBC_1127,CBC_1127_MSI_TV_v3_Vset3_Tset3_2024-06-26_17h06.56.696.csv,2,28,2,3,z,0,1,1,tac,D,63,1,2D,3D,0,1,z,3.53532739999355,0,1,1,1,3D,2D,D23,1.96944064646551,0.713852107114743,0.286147892885257,0.41512305485468,0.5,0.41512305485468,0.802755795793283,0.41512305485468,0.5,0.41512305485468,0.5,0.802755795793283,0.5,0.5,0.41512305485468,0.344654301343764,0.645414008213472,0.775835800991602,0.224164199008398,0.645414008213472,0.344654301343764,0.163417626465918,0.934359750164831,0.354585991786528,0.060192351548328,0.5,0.16975389029064,1.09627979763262,1.45789750206919,3.29872387198352,0.5,66.8314543500849
CBC_1127,CBC_1127_MSI_TV_v3_Vset3_Tset3_2024-06-26_17h06.56.696.csv,2,29,2,0,b,1,0,2,tac,C,27,1,2C,0C,1,0,b,2.57753569999477,1,0,1,1,2C,0C,C20,2.68557734525015,0.713852107114743,0.286147892885257,0.41512305485468,0.5,0.41512305485468,0.802755795793283,0.41512305485468,0.5,0.41512305485468,0.5,0.802755795793283,0.5,0.5,0.41512305485468,0.344654301343764,0.7056063597618,0.851502518267825,0.148497481732175,0.802755795793283,0.41512305485468,0.362169355578567,0.967094332506781,0.197244204206717,0.0334829710013715,0.5,0.16975389029064,1.09627979763262,1.45789750206919,3.29872387198352,0.5,66.8314543500849
CBC_1127,CBC_1127_MSI_TV_v3_Vset3_Tset3_2024-06-26_17h06.56.696.csv,2,30,1,0,z,0,1,0,tac,A,63,1,1A,0A,0,1,z,2.49318179999682,0,1,1,1,0A,1A,A10,3.11351530921037,0.713852107114743,0.286147892885257,0.41512305485468,0.5,0.41512305485468,0.802755795793283,0.41512305485468,0.5,0.41512305485468,0.5,0.836238766794655,0.5,0.5,0.41512305485468,0.344654301343764,0.7056063597618,0.861563144630364,0.138436855369636,0.713852107114743,0.286147892885257,0.393596189245527,0.970003261073205,0.286147892885257,0.0485747180157417,0.5,0.16975389029064,1.09627979763262,1.45789750206919,3.29872387198352,0.5,66.8314543500849
CBC_1127,CBC_1127_MSI_TV_v3_Vset3_Tset3_2024-06-26_17h06.56.696.csv,2,31,1,0,b,1,0,3,tac,B,63,1,1B,0B,1,0,b,2.39090539999597,1,0,1,1,1B,0B,B10,2.4423470353692,0.762426825130485,0.286147892885257,0.41512305485468,0.5,0.41512305485468,0.802755795793283,0.41512305485468,0.5,0.41512305485468,0.5,0.836238766794655,0.5,0.5,0.41512305485468,0.344654301343764,0.7056063597618,0.851502518267825,0.148497481732175,0.802755795793283,0.41512305485468,0.428831869560222,0.967111404061465,0.197244204206717,0.0334829710013715,0.5,0.16975389029064,1.09627979763262,1.45789750206919,3.29872387198352,0.5,66.8314543500849
CBC_1127,CBC_1127_MSI_TV_v3_Vset3_Tset3_2024-06-26_17h06.56.696.csv,2,32,3,1,b,1,0,1,tac,D,27,1,3D,1D,1,0,b,2.42130299999553,1,0,1,1,3D,1D,D31,3.85014760171006,0.762426825130485,0.286147892885257,0.41512305485468,0.5,0.41512305485468,0.836238766794655,0.41512305485468,0.5,0.41512305485468,0.5,0.836238766794655,0.5,0.5,0.41512305485468,0.344654301343764,0.7056063597618,0.771529218944998,0.228470781055002,0.7056063597618,0.41512305485468,0.37615923207751,0.931523009498497,0.2943936402382,0.0499744657072575,0.5,0.16975389029064,1.09627979763262,1.45789750206919,3.29872387198352,0.5,66.8314543500849
CBC_1127,CBC_1127_MSI_TV_v3_Vset3_Tset3_2024-06-26_17h06.56.696.csv,2,33,3,2,z,0,1,2,tac,C,63,1,3C,2C,0,1,z,2.47525169999426,0,1,1,1,2C,3C,C32,2.77258872223978,0.762426825130485,0.286147892885257,0.41512305485468,0.5,0.41512305485468,0.836238766794655,0.41512305485468,0.5,0.41512305485468,0.5,0.836238766794655,0.5,0.5,0.41512305485468,0.344654301343764,0.755580825469057,0.836238766794655,0.163761233205345,0.836238766794655,0.5,0.393085586702077,0.962106907759474,0.163761233205345,0.0277991064154,0.5,0.16975389029064,1.09627979763262,1.45789750206919,3.29872387198352,0.5,66.8314543500849
CBC_1127,CBC_1127_MSI_TV_v3_Vset3_Tset3_2024-06-26_17h06.56.696.csv,2,34,1,0,b,1,0,3,tac,B,63,1,1B,0B,1,0,b,2.41919749999215,1,0,1,1,1B,0B,B10,2.28238238567653,0.762426825130485,0.286147892885257,0.41512305485468,0.5,0.41512305485468,0.836238766794655,0.41512305485468,0.5,0.41512305485468,0.5,0.864037873210055,0.5,0.5,0.41512305485468,0.344654301343764,0.755580825469057,0.877968465681632,0.122031534318368,0.836238766794655,0.41512305485468,0.426088194063102,0.97424121103014,0.163761233205345,0.0277991064154,0.5,0.16975389029064,1.09627979763262,1.45789750206919,3.29872387198352,0.5,66.8314543500849
CBC_1127,CBC_1127_MSI_TV_v3_Vset3_Tset3_2024-06-26_17h06.56.696.csv,2,35,0,1,b,1,0,0,tac,A,63,1,0A,1A,1,0,b,2.1207327000011,1,0,1,1,0A,1A,A01,2.52572864430826,0.762426825130485,0.286147892885257,0.41512305485468,0.5,0.41512305485468,0.864037873210055,0.41512305485468,0.5,0.41512305485468,0.5,0.864037873210055,0.5,0.5,0.41512305485468,0.344654301343764,0.755580825469057,0.888963566896177,0.111036433103823,0.762426825130485,0.286147892885257,0.565317453618181,0.976898055505067,0.237573174869515,0.0403289706627987,0.5,0.16975389029064,1.09627979763262,1.45789750206919,3.29872387198352,0.5,66.8314543500849
CBC_1127,CBC_1127_MSI_TV_v3_Vset3_Tset3_2024-06-26_17h06.56.696.csv,2,36,1,2,z,0,1,2,tac,C,9,1,1C,2C,0,1,z,2.27370689999225,0,1,1,1,2C,1C,C12,3.93182563272433,0.802755795793283,0.286147892885257,0.41512305485468,0.5,0.41512305485468,0.864037873210055,0.41512305485468,0.5,0.41512305485468,0.5,0.864037873210055,0.5,0.5,0.41512305485468,0.344654301343764,0.755580825469057,0.864037873210055,0.135962126789945,0.864037873210055,0.5,0.481180127133095,0.970758335186064,0.135962126789945,0.0230800999547824,0.5,0.16975389029064,1.09627979763262,1.45789750206919,3.29872387198352,0.5,66.8314543500849
CBC_1127,CBC_1127_MSI_TV_v3_Vset3_Tset3_2024-06-26_17h06.56.696.csv,2,37,1,0,z,0,1,0,tac,A,63,1,1A,0A,0,1,z,2.42601309999736,0,1,1,1,0A,1A,A10,2.85263142991332,0.802755795793283,0.286147892885257,0.41512305485468,0.5,0.41512305485468,0.864037873210055,0.41512305485468,0.5,0.41512305485468,0.5,0.887117973164837,0.5,0.5,0.41512305485468,0.344654301343764,0.755580825469057,0.910338496692699,0.0896615033073006,0.802755795793283,0.286147892885257,0.428180890557093,0.980974989859711,0.197244204206717,0.0334829710013715,0.5,0.16975389029064,1.09627979763262,1.45789750206919,3.29872387198352,0.5,66.8314543500849
CBC_1127,CBC_1127_MSI_TV_v3_Vset3_Tset3_2024-06-26_17h06.56.696.csv,2,38,3,1,b,1,0,1,tac,D,27,1,3D,1D,1,0,b,2.74658610000188,1,0,1,1,3D,1D,D31,3.27714473299218,0.836238766794655,0.286147892885257,0.41512305485468,0.5,0.41512305485468,0.864037873210055,0.41512305485468,0.5,0.41512305485468,0.5,0.887117973164837,0.5,0.5,0.41512305485468,0.344654301343764,0.755580825469057,0.813274423001048,0.186725576998952,0.755580825469057,0.41512305485468,0.307191001758729,0.953085929723016,0.244419174530943,0.0414911057382544,0.5,0.16975389029064,1.09627979763262,1.45789750206919,3.29872387198352,0.5,66.8314543500849
CBC_1127,CBC_1127_MSI_TV_v3_Vset3_Tset3_2024-06-26_17h06.56.696.csv,2,39,0,1,z,0,1,3,tac,B,63,1,0B,1B,0,1,z,2.55318769999576,0,1,1,1,1B,0B,B01,3.29583686600433,0.836238766794655,0.286147892885257,0.41512305485468,0.5,0.41512305485468,0.864037873210055,0.41512305485468,0.5,0.41512305485468,0.5,0.887117973164837,0.5,0.5,0.41512305485468,0.344654301343764,0.797071931207312,0.899534833809117,0.100465166190883,0.864037873210055,0.41512305485468,0.37324242403014,0.979022050530943,0.135962126789945,0.0230800999547824,0.5,0.16975389029064,1.09627979763262,1.45789750206919,3.29872387198352,0.5,66.8314543500849
CBC_1127,CBC_1127_MSI_TV_v3_Vset3_Tset3_2024-06-26_17h06.56.696.csv,2,40,2,3,b,1,0,2,tac,C,63,0,2C,3C,0,1,b,2.44928709999658,1,0,1,0,2C,3C,C23,2.90872089656436,0.836238766794655,0.286147892885257,0.41512305485468,0.5,0.41512305485468,0.887117973164837,0.41512305485468,0.5,0.41512305485468,0.5,0.887117973164837,0.5,0.5,0.41512305485468,0.344654301343764,0.797071931207312,0.887117973164837,0.112882026835163,0.887117973164837,0.5,0.415380655986785,0.976396271554683,-0.887117973164837,-0.150591727091479,0.5,0.16975389029064,1.09627979763262,1.45789750206919,3.29872387198352,0.5,66.8314543500849
CBC_1127,CBC_1127_MSI_TV_v3_Vset3_Tset3_2024-06-26_17h06.56.696.csv,2,41,2,0,z,0,1,0,tac,A,27,1,2A,0A,0,1,z,2.42005729999801,0,1,1,1,0A,2A,A20,3.3322045101752,0.836238766794655,0.286147892885257,0.41512305485468,0.5,0.41512305485468,0.887117973164837,0.41512305485468,0.5,0.41512305485468,0.5,0.736526246073359,0.5,0.5,0.41512305485468,0.344654301343764,0.797071931207312,0.877968465681632,0.122031534318368,0.836238766794655,0.41512305485468,0.425722548812581,0.974229960000932,0.163761233205345,0.0277991064154,0.5,0.16975389029064,1.09627979763262,1.45789750206919,3.29872387198352,0.5,66.8314543500849
CBC_1127,CBC_1127_MSI_TV_v3_Vset3_Tset3_2024-06-26_17h06.56.696.csv,2,42,3,2,b,1,0,1,tac,D,63,1,3D,2D,1,0,b,2.44630339999276,1,0,1,1,3D,2D,D32,4.04305126783455,0.864037873210055,0.286147892885257,0.41512305485468,0.5,0.41512305485468,0.887117973164837,0.41512305485468,0.5,0.41512305485468,0.5,0.736526246073359,0.5,0.5,0.41512305485468,0.344654301343764,0.797071931207312,0.881917433494927,0.118082566505073,0.797071931207312,0.344654301343764,0.415755886669549,0.975194433871382,0.202928068792688,0.0344478291267254,0.5,0.16975389029064,1.09627979763262,1.45789750206919,3.29872387198352,0.5,66.8314543500849
CBC_1127,CBC_1127_MSI_TV_v3_Vset3_Tset3_2024-06-26_17h06.56.696.csv,2,43,3,1,z,0,1,3,tac,B,27,1,3B,1B,0,1,z,2.6413734999951,0,1,1,1,1B,3B,B31,3.36729582998647,0.864037873210055,0.286147892885257,0.41512305485468,0.5,0.41512305485468,0.887117973164837,0.41512305485468,0.5,0.41512305485468,0.5,0.736526246073359,0.5,0.5,0.41512305485468,0.344654301343764,0.831519760334037,0.887117973164837,0.112882026835163,0.887117973164837,0.5,0.340681509348686,0.976502555362785,0.112882026835163,0.0191621631991613,0.5,0.16975389029064,1.09627979763262,1.45789750206919,3.29872387198352,0.5,66.8314543500849
CBC_1127,CBC_1127_MSI_TV_v3_Vset3_Tset3_2024-06-26_17h06.56.696.csv,2,44,2,3,b,1,0,2,tac,C,63,1,2C,3C,1,0,z,2.6685284999985,0,1,0,0,3C,2C,C23,2.69124308278583,0.864037873210055,0.286147892885257,0.41512305485468,0.5,0.41512305485468,0.906280136363999,0.41512305485468,0.5,0.41512305485468,0.5,0.736526246073359,0.5,0.5,0.41512305485468,0.344654301343764,0.831519760334037,0.263473753926641,0.736526246073359,0.5,0.736526246073359,0.0308754743445964,0.0931144627036847,-0.5,-0.0848769451453199,0.5,0.16975389029064,1.09627979763262,1.45789750206919,3.29872387198352,0.5,66.8314543500849
