ID,session,trialNr,mod2Stim,visStimLeft,visStimRight,correctKey,frequency,rewardAccurate,probFB,stimPairLeft,stimPairRight,leftCorrect,rightCorrect,pCorrectLeft,pCorrectRight,triplet,rt,surprise,0A belief,1A belief,2A belief,3A belief,0B belief,1B belief,2B belief,3B belief,0C belief,1C belief,2C belief,3C belief,0D belief,1D belief,2D belief,3D belief,reactionTime,choice,choiceLeft,choiceRight,chosenPair,otherPair,beliefPair,beliefOtherPair,beliefPairNorm,beliefOtherPairNorm,choiceAccurate,reward,rewardPE,update2,sim_CBCsimpleRW_CBCdriftDiffusionLR_startBelief,sim_CBCsimpleRW_CBCdriftDiffusionLR_alpha1,sim_CBCsimpleRW_CBCdriftDiffusionLR_nonDecisionTime,sim_CBCsimpleRW_CBCdriftDiffusionLR_weight,sim_CBCsimpleRW_CBCdriftDiffusionLR_startingBoundary,sim_CBCsimpleRW_CBCdriftDiffusionLR_startingPoint,lik,corrLik,fitCBCsimpleRW_CBCdriftDiffusionLR_startBelief,fitCBCsimpleRW_CBCdriftDiffusionLR_alpha1,fitCBCsimpleRW_CBCdriftDiffusionLR_nonDecisionTime,fitCBCsimpleRW_CBCdriftDiffusionLR_weight,fitCBCsimpleRW_CBCdriftDiffusionLR_startingBoundary,fitCBCsimpleRW_CBCdriftDiffusionLR_startingPoint,fit_CBCsimpleRW_CBCdriftDiffusionLR_NLL
193,1,1,A,1,0,l,63,1,0.95,1A,0A,0,1,0,1,A10,0.692131440190361,2.77258872223978,0.5,0.5,0.5,0.5,0.5,0.5,0.5,0.5,0.5,0.5,0.5,0.5,0.5,0.5,0.5,0.5,3.5596889973576,0,0,1,0A,1A,0.5,0.5,0.5,0.5,1,1,0.5,0.0630311293406001,0.5,0.16662818404817,0.987688997357602,10.5245303054785,3.34721117529167,0.5,0.0899157081427794,0.500562757999633,0.5,0.1260622586812,0.956553029727309,12.0289365117618,3.50510492799135,0.5,31.5552231419173
193,1,2,D,3,2,a,63,1,0.95,3D,2D,1,0,1,0,D32,0.591437476250811,2.83321334405622,0.5630311293406,0.5,0.5,0.5,0.5,0.5,0.5,0.5,0.5,0.5,0.5,0.5,0.5,0.5,0.5,0.5,1.8906889973576,1,1,0,3D,2D,0.5,0.5,0.5,0.5,1,1,0.5,0.0630311293406001,0.5,0.16662818404817,0.987688997357602,10.5245303054785,3.34721117529167,0.5,0.150214421919627,0.501991304889573,0.5,0.1260622586812,0.956553029727309,12.0289365117618,3.50510492799135,0.5,31.5552231419173
193,1,3,C,2,0,a,27,1,0.95,2C,0C,1,0,1,0,C20,1.22938080949863,2.89037175789616,0.5630311293406,0.5,0.5,0.5,0.5,0.5,0.5,0.5,0.5,0.5,0.5,0.5,0.5,0.5,0.5,0.5630311293406,5.1506889973576,0,0,1,0C,2C,0.5,0.5,0.5,0.5,0,0,-0.5,-0.0630311293406001,0.5,0.16662818404817,0.987688997357602,10.5245303054785,3.34721117529167,0.5,0.0475033338745726,0.500706619787011,0.5,0.1260622586812,0.956553029727309,12.0289365117618,3.50510492799135,0.5,31.5552231419173
193,1,4,A,1,0,l,63,1,0.95,1A,0A,0,1,0,1,A10,2.25594465763332,2.2512917986065,0.5630311293406,0.5,0.5,0.5,0.5,0.5,0.5,0.5,0.4369688706594,0.5,0.5,0.5,0.5,0.5,0.5,0.5630311293406,5.0156889973576,0,0,1,0A,1A,0.5630311293406,0.5,0.529646887847818,0.470353112152182,1,1,0.4369688706594,0.0550852828086972,0.5,0.16662818404817,0.987688997357602,10.5245303054785,3.34721117529167,0.5,0.0621997961280766,0.924309065496103,0.5,0.1260622586812,0.956553029727309,12.0289365117618,3.50510492799135,0.5,31.5552231419173
193,1,5,B,3,1,l,27,1,0.95,3B,1B,0,1,0,1,B31,1.16873206174241,2.99573227355399,0.618116412149297,0.5,0.5,0.5,0.5,0.5,0.5,0.5,0.4369688706594,0.5,0.5,0.5,0.5,0.5,0.5,0.5630311293406,3.3856889973576,1,1,0,3B,1B,0.5,0.5,0.5,0.5,0,0,-0.5,-0.0630311293406001,0.5,0.16662818404817,0.987688997357602,10.5245303054785,3.34721117529167,0.5,0.0962072560699776,0.499695466871205,0.5,0.1260622586812,0.956553029727309,12.0289365117618,3.50510492799135,0.5,31.5552231419173
193,1,6,C,2,3,a,63,1,0.95,2C,3C,1,0,1,0,C23,3.37130623673042,3.04452243772342,0.618116412149297,0.5,0.5,0.5,0.5,0.5,0.5,0.4369688706594,0.4369688706594,0.5,0.5,0.5,0.5,0.5,0.5,0.5630311293406,3.2576889973576,1,1,0,2C,3C,0.5,0.5,0.5,0.5,1,1,0.5,0.0630311293406001,0.5,0.16662818404817,0.987688997357602,10.5245303054785,3.34721117529167,0.5,0.101244374732337,0.49981623811394,0.5,0.1260622586812,0.956553029727309,12.0289365117618,3.50510492799135,0.5,31.5552231419173
193,1,7,D,2,3,l,63,1,0.95,2D,3D,0,1,0,1,D23,1.85663184682565,3.09104245335832,0.618116412149297,0.5,0.5,0.5,0.5,0.5,0.5,0.4369688706594,0.4369688706594,0.5,0.5630311293406,0.5,0.5,0.5,0.5,0.5630311293406,2.6076889973576,0,0,1,3D,2D,0.5630311293406,0.5,0.529646887847818,0.470353112152182,1,1,0.4369688706594,0.0550852828086972,0.5,0.16662818404817,0.987688997357602,10.5245303054785,3.34721117529167,0.5,0.297648015844651,0.924167517438651,0.5,0.1260622586812,0.956553029727309,12.0289365117618,3.50510492799135,0.5,31.5552231419173
193,1,8,B,1,0,a,63,1,0.95,1B,0B,1,0,1,0,B10,2.56595416930592,3.13549421592915,0.618116412149297,0.5,0.5,0.5,0.5,0.5,0.5,0.4369688706594,0.4369688706594,0.5,0.5630311293406,0.5,0.5,0.5,0.5,0.618116412149297,3.4576889973576,0,0,1,0B,1B,0.5,0.5,0.5,0.5,0,0,-0.5,-0.0630311293406001,0.5,0.16662818404817,0.987688997357602,10.5245303054785,3.34721117529167,0.5,0.0936187543050802,0.500392189836087,0.5,0.1260622586812,0.956553029727309,12.0289365117618,3.50510492799135,0.5,31.5552231419173
193,1,9,A,0,2,a,27,1,0.95,0A,2A,1,0,1,0,A02,0.852936125192744,3.17805383034795,0.618116412149297,0.5,0.5,0.5,0.4369688706594,0.5,0.5,0.4369688706594,0.4369688706594,0.5,0.5630311293406,0.5,0.5,0.5,0.5,0.618116412149297,1.7226889973576,1,1,0,0A,2A,0.618116412149297,0.5,0.552819371429424,0.447180628570576,1,1,0.381883587850703,0.0481411076377401,0.5,0.16662818404817,0.987688997357602,10.5245303054785,3.34721117529167,0.5,0.701903867428014,0.988520363369435,0.5,0.1260622586812,0.956553029727309,12.0289365117618,3.50510492799135,0.5,31.5552231419173
193,1,10,D,0,3,l,9,1,0.95,0D,3D,0,1,0,1,D03,2.55056465335577,3.2188758248682,0.666257519787037,0.5,0.5,0.5,0.4369688706594,0.5,0.5,0.4369688706594,0.4369688706594,0.5,0.5630311293406,0.5,0.5,0.5,0.5,0.618116412149297,1.3726889973576,0,0,1,3D,0D,0.618116412149297,0.5,0.552819371429424,0.447180628570576,1,1,0.381883587850703,0.0481411076377401,0.5,0.16662818404817,0.987688997357602,10.5245303054785,3.34721117529167,0.5,0.430365619806607,0.988470225487924,0.5,0.1260622586812,0.956553029727309,12.0289365117618,3.50510492799135,0.5,31.5552231419173
193,1,11,C,3,2,l,63,1,0.95,3C,2C,0,1,0,1,C32,2.04542104370895,3.25809653802148,0.666257519787037,0.5,0.5,0.5,0.4369688706594,0.5,0.5,0.4369688706594,0.4369688706594,0.5,0.5630311293406,0.5,0.5,0.5,0.5,0.666257519787037,2.9486889973576,0,0,1,2C,3C,0.5630311293406,0.5,0.529646887847818,0.470353112152182,1,1,0.4369688706594,0.0550852828086972,0.5,0.16662818404817,0.987688997357602,10.5245303054785,3.34721117529167,0.5,0.2404384819941,0.924369473242968,0.5,0.1260622586812,0.956553029727309,12.0289365117618,3.50510492799135,0.5,31.5552231419173
193,1,12,B,1,0,a,63,1,0.95,1B,0B,1,0,1,0,B10,1.5800532044511,2.60268968544438,0.666257519787037,0.5,0.5,0.5,0.4369688706594,0.5,0.5,0.4369688706594,0.4369688706594,0.5,0.618116412149297,0.5,0.5,0.5,0.5,0.666257519787037,1.8626889973576,1,1,0,1B,0B,0.5,0.4369688706594,0.533635658192273,0.466364341807727,1,1,0.5,0.0630311293406001,0.5,0.16662818404817,0.987688997357602,10.5245303054785,3.34721117529167,0.5,0.456830022931679,0.944586713765716,0.5,0.1260622586812,0.956553029727309,12.0289365117618,3.50510492799135,0.5,31.5552231419173
193,1,13,D,3,2,a,63,1,0.95,3D,2D,1,0,1,0,D32,0.0931187855660874,2.63905732961526,0.666257519787037,0.5,0.5,0.5,0.4369688706594,0.5630311293406,0.5,0.4369688706594,0.4369688706594,0.5,0.618116412149297,0.5,0.5,0.5,0.5,0.666257519787037,1.9856889973576,1,1,0,3D,2D,0.666257519787037,0.5,0.571278219846933,0.428721780153067,1,1,0.333742480212963,0.0420723308735118,0.5,0.16662818404817,0.987688997357602,10.5245303054785,3.34721117529167,0.5,0.669625485458175,0.997553288494386,0.5,0.1260622586812,0.956553029727309,12.0289365117618,3.50510492799135,0.5,31.5552231419173
193,1,14,C,3,2,l,63,1,0.95,3C,2C,0,1,0,1,C32,1.55772969718322,2.67414864942653,0.666257519787037,0.5,0.5,0.5,0.4369688706594,0.5630311293406,0.5,0.4369688706594,0.4369688706594,0.5,0.618116412149297,0.5,0.5,0.5,0.5,0.708329850660549,4.4226889973576,0,0,1,2C,3C,0.618116412149297,0.5,0.552819371429424,0.447180628570576,1,1,0.381883587850703,0.0481411076377401,0.5,0.16662818404817,0.987688997357602,10.5245303054785,3.34721117529167,0.5,0.0359085751312596,0.988492181868342,0.5,0.1260622586812,0.956553029727309,12.0289365117618,3.50510492799135,0.5,31.5552231419173
193,1,15,B,1,3,a,27,1,0.95,1B,3B,1,0,1,0,B13,0.0780367203771884,3.40119738166216,0.666257519787037,0.5,0.5,0.5,0.4369688706594,0.5630311293406,0.5,0.4369688706594,0.4369688706594,0.5,0.666257519787037,0.5,0.5,0.5,0.5,0.708329850660549,1.3086889973576,1,1,0,1B,3B,0.5630311293406,0.4369688706594,0.5630311293406,0.4369688706594,1,1,0.4369688706594,0.0550852828086972,0.5,0.16662818404817,0.987688997357602,10.5245303054785,3.34721117529167,0.5,0.406602463108154,0.995118492058081,0.5,0.1260622586812,0.956553029727309,12.0289365117618,3.50510492799135,0.5,31.5552231419173
193,1,16,A,3,0,l,9,1,0.95,3A,0A,0,1,0,1,A30,1.742064639101,3.43398720448515,0.666257519787037,0.5,0.5,0.5,0.4369688706594,0.618116412149297,0.5,0.4369688706594,0.4369688706594,0.5,0.666257519787037,0.5,0.5,0.5,0.5,0.708329850660549,1.2876889973576,0,0,1,0A,3A,0.666257519787037,0.5,0.571278219846933,0.428721780153067,1,1,0.333742480212963,0.0420723308735118,0.5,0.16662818404817,0.987688997357602,10.5245303054785,3.34721117529167,0.5,0.441644099407588,0.9975683198849,0.5,0.1260622586812,0.956553029727309,12.0289365117618,3.50510492799135,0.5,31.5552231419173
193,1,17,D,3,2,a,63,1,0.95,3D,2D,1,0,1,0,D32,1.49634982974738,2.36712361413162,0.708329850660549,0.5,0.5,0.5,0.4369688706594,0.618116412149297,0.5,0.4369688706594,0.4369688706594,0.5,0.666257519787037,0.5,0.5,0.5,0.5,0.708329850660549,1.6286889973576,1,1,0,3D,2D,0.708329850660549,0.5,0.586205703908855,0.413794296091145,1,1,0.291670149339451,0.0367685978156142,0.5,0.16662818404817,0.987688997357602,10.5245303054785,3.34721117529167,0.5,1.15315048271314,0.999304432754308,0.5,0.1260622586812,0.956553029727309,12.0289365117618,3.50510492799135,0.5,31.5552231419173
193,1,18,C,2,0,a,27,1,0.95,2C,0C,1,0,1,0,C20,3.21913710317246,2.80336038090653,0.708329850660549,0.5,0.5,0.5,0.4369688706594,0.618116412149297,0.5,0.4369688706594,0.4369688706594,0.5,0.666257519787037,0.5,0.5,0.5,0.5,0.745098448476163,1.5926889973576,1,1,0,2C,0C,0.666257519787037,0.4369688706594,0.603917315209824,0.396082684790176,1,1,0.333742480212963,0.0420723308735118,0.5,0.16662818404817,0.987688997357602,10.5245303054785,3.34721117529167,0.5,1.34959507774397,0.999843022799853,0.5,0.1260622586812,0.956553029727309,12.0289365117618,3.50510492799135,0.5,31.5552231419173
193,1,19,A,1,0,l,63,1,0.95,1A,0A,0,1,0,1,A10,0.22734257167657,2.42774823594805,0.708329850660549,0.5,0.5,0.5,0.4369688706594,0.618116412149297,0.5,0.4369688706594,0.4369688706594,0.5,0.708329850660549,0.5,0.5,0.5,0.5,0.745098448476163,1.4826889973576,0,0,1,0A,1A,0.708329850660549,0.5,0.586205703908855,0.413794296091145,1,1,0.291670149339451,0.0367685978156142,0.5,0.16662818404817,0.987688997357602,10.5245303054785,3.34721117529167,0.5,1.21001136906418,0.999307226950783,0.5,0.1260622586812,0.956553029727309,12.0289365117618,3.50510492799135,0.5,31.5552231419173
193,1,20,B,0,1,l,63,0,0.95,0B,1B,0,1,1,0,B01,2.98923816941028,3.55534806148941,0.745098448476163,0.5,0.5,0.5,0.4369688706594,0.618116412149297,0.5,0.4369688706594,0.4369688706594,0.5,0.708329850660549,0.5,0.5,0.5,0.5,0.745098448476163,2.0936889973576,0,0,1,1B,0B,0.618116412149297,0.4369688706594,0.585844975966148,0.414155024033852,1,0,-0.618116412149297,-0.0779211510434601,0.5,0.16662818404817,0.987688997357602,10.5245303054785,3.34721117529167,0.5,0.493512885800228,0.999279741922013,0.5,0.1260622586812,0.956553029727309,12.0289365117618,3.50510492799135,0.5,31.5552231419173
193,1,21,D,1,3,l,27,1,0.95,1D,3D,0,1,0,1,D13,0.134183746616321,3.58351893845611,0.745098448476163,0.5,0.5,0.5,0.4369688706594,0.540195261105837,0.5,0.4369688706594,0.4369688706594,0.5,0.708329850660549,0.5,0.5,0.5,0.5,0.745098448476163,1.3126889973576,0,0,1,3D,1D,0.745098448476163,0.5,0.59842532884694,0.40157467115306,1,1,0.254901551523837,0.0321334653264372,0.5,0.16662818404817,0.987688997357602,10.5245303054785,3.34721117529167,0.5,1.02877101399135,0.999749836209884,0.5,0.1260622586812,0.956553029727309,12.0289365117618,3.50510492799135,0.5,31.5552231419173
193,1,22,C,2,3,a,63,1,0.95,2C,3C,1,0,1,0,C23,2.97840694001648,2.91777073208428,0.745098448476163,0.5,0.5,0.5,0.4369688706594,0.540195261105837,0.5,0.4369688706594,0.4369688706594,0.5,0.708329850660549,0.5,0.5,0.5,0.5,0.777231913802601,2.4706889973576,1,1,0,2C,3C,0.708329850660549,0.5,0.586205703908855,0.413794296091145,1,1,0.291670149339451,0.0367685978156142,0.5,0.16662818404817,0.987688997357602,10.5245303054785,3.34721117529167,0.5,0.198812532913661,0.99930125167757,0.5,0.1260622586812,0.956553029727309,12.0289365117618,3.50510492799135,0.5,31.5552231419173
193,1,23,B,1,0,a,63,1,0.95,1B,0B,1,0,1,0,B10,1.37810881452727,2.53897387105828,0.745098448476163,0.5,0.5,0.5,0.4369688706594,0.540195261105837,0.5,0.4369688706594,0.4369688706594,0.5,0.745098448476163,0.5,0.5,0.5,0.5,0.777231913802601,2.3076889973576,1,1,0,1B,0B,0.540195261105837,0.4369688706594,0.552819371429424,0.447180628570576,1,1,0.459804738894163,0.0579640239373177,0.5,0.16662818404817,0.987688997357602,10.5245303054785,3.34721117529167,0.5,0.444814082759618,0.988493342343617,0.5,0.1260622586812,0.956553029727309,12.0289365117618,3.50510492799135,0.5,31.5552231419173
193,1,24,A,2,0,l,27,1,0.95,2A,0A,0,1,0,1,A20,1.32463387500464,3.66356164612965,0.745098448476163,0.5,0.5,0.5,0.4369688706594,0.598159285043155,0.5,0.4369688706594,0.4369688706594,0.5,0.745098448476163,0.5,0.5,0.5,0.5,0.777231913802601,1.6296889973576,0,0,1,0A,2A,0.745098448476163,0.5,0.59842532884694,0.40157467115306,1,1,0.254901551523837,0.0321334653264372,0.5,0.16662818404817,0.987688997357602,10.5245303054785,3.34721117529167,0.5,1.24267288761078,0.999752084551748,0.5,0.1260622586812,0.956553029727309,12.0289365117618,3.50510492799135,0.5,31.5552231419173
193,1,25,D,2,3,l,63,1,0.95,2D,3D,0,1,0,1,D23,1.91457363576147,2.99573227355399,0.777231913802601,0.5,0.5,0.5,0.4369688706594,0.598159285043155,0.5,0.4369688706594,0.4369688706594,0.5,0.745098448476163,0.5,0.5,0.5,0.5,0.777231913802601,1.3736889973576,0,0,1,3D,2D,0.777231913802601,0.5,0.608528416337962,0.391471583662038,1,1,0.222768086197399,0.0280826481081325,0.5,0.16662818404817,0.987688997357602,10.5245303054785,3.34721117529167,0.5,1.53140005356368,0.999894027530684,0.5,0.1260622586812,0.956553029727309,12.0289365117618,3.50510492799135,0.5,31.5552231419173
193,1,26,C,2,0,a,27,1,0.95,2C,0C,1,0,1,0,C20,1.11697776494476,2.6149597780362,0.777231913802601,0.5,0.5,0.5,0.4369688706594,0.598159285043155,0.5,0.4369688706594,0.4369688706594,0.5,0.745098448476163,0.5,0.5,0.5,0.5,0.805314561910733,1.4436889973576,1,1,0,2C,0C,0.745098448476163,0.4369688706594,0.630335037957947,0.369664962042053,1,1,0.254901551523837,0.0321334653264372,0.5,0.16662818404817,0.987688997357602,10.5245303054785,3.34721117529167,0.5,1.95305353009082,0.999983257445434,0.5,0.1260622586812,0.956553029727309,12.0289365117618,3.50510492799135,0.5,31.5552231419173
193,1,27,B,1,0,a,63,1,0.95,1B,0B,1,0,1,0,B10,2.45239696134014,2.35137525716348,0.777231913802601,0.5,0.5,0.5,0.4369688706594,0.598159285043155,0.5,0.4369688706594,0.4369688706594,0.5,0.777231913802601,0.5,0.5,0.5,0.5,0.805314561910733,1.5796889973576,1,1,0,1B,0B,0.598159285043155,0.4369688706594,0.577860124611504,0.422139875388496,1,1,0.401840714956845,0.0506569481575283,0.5,0.16662818404817,0.987688997357602,10.5245303054785,3.34721117529167,0.5,1.07987071252419,0.998595035775465,0.5,0.1260622586812,0.956553029727309,12.0289365117618,3.50510492799135,0.5,31.5552231419173
193,1,28,A,0,1,a,63,1,0.95,0A,1A,1,0,1,0,A01,1.08205178374019,3.76120011569356,0.777231913802601,0.5,0.5,0.5,0.4369688706594,0.648816233200683,0.5,0.4369688706594,0.4369688706594,0.5,0.777231913802601,0.5,0.5,0.5,0.5,0.805314561910733,1.5136889973576,1,1,0,0A,1A,0.777231913802601,0.5,0.608528416337962,0.391471583662038,1,1,0.222768086197399,0.0280826481081325,0.5,0.16662818404817,0.987688997357602,10.5245303054785,3.34721117529167,0.5,1.55272601259882,0.999894092811574,0.5,0.1260622586812,0.956553029727309,12.0289365117618,3.50510492799135,0.5,31.5552231419173
193,1,29,C,3,2,l,63,1,0.95,3C,2C,0,1,0,1,C32,2.26321906921292,2.68557734525015,0.805314561910733,0.5,0.5,0.5,0.4369688706594,0.648816233200683,0.5,0.4369688706594,0.4369688706594,0.5,0.777231913802601,0.5,0.5,0.5,0.5,0.805314561910733,1.1986889973576,0,0,1,2C,3C,0.777231913802601,0.5,0.608528416337962,0.391471583662038,1,1,0.222768086197399,0.0280826481081325,0.5,0.16662818404817,0.987688997357602,10.5245303054785,3.34721117529167,0.5,0.439558810251527,0.999894094843701,0.5,0.1260622586812,0.956553029727309,12.0289365117618,3.50510492799135,0.5,31.5552231419173
193,1,30,D,3,1,a,27,1,0.95,3D,1D,1,0,1,0,D31,3.14629743903145,3.80666248977032,0.805314561910733,0.5,0.5,0.5,0.4369688706594,0.648816233200683,0.5,0.4369688706594,0.4369688706594,0.5,0.805314561910733,0.5,0.5,0.5,0.5,0.805314561910733,1.5586889973576,1,1,0,3D,1D,0.805314561910733,0.5,0.616950569165416,0.383049430834583,1,1,0.194685438089267,0.024542486057872,0.5,0.16662818404817,0.987688997357602,10.5245303054785,3.34721117529167,0.5,1.4920396743525,0.999947670025847,0.5,0.1260622586812,0.956553029727309,12.0289365117618,3.50510492799135,0.5,31.5552231419173
193,1,31,A,1,0,l,63,1,0.95,1A,0A,0,1,0,1,A10,2.65105416562364,2.4423470353692,0.805314561910733,0.5,0.5,0.5,0.4369688706594,0.648816233200683,0.5,0.4369688706594,0.4369688706594,0.5,0.805314561910733,0.5,0.5,0.5,0.5,0.829857047968605,1.9586889973576,0,0,1,0A,1A,0.805314561910733,0.5,0.616950569165416,0.383049430834583,1,1,0.194685438089267,0.024542486057872,0.5,0.16662818404817,0.987688997357602,10.5245303054785,3.34721117529167,0.5,0.395043894891074,0.999947811887681,0.5,0.1260622586812,0.956553029727309,12.0289365117618,3.50510492799135,0.5,31.5552231419173
193,1,32,D,3,2,a,63,1,0.95,3D,2D,1,0,1,0,D32,2.00799727439737,2.46385324059017,0.829857047968605,0.5,0.5,0.5,0.4369688706594,0.648816233200683,0.5,0.4369688706594,0.4369688706594,0.5,0.805314561910733,0.5,0.5,0.5,0.5,0.829857047968605,1.4106889973576,1,1,0,3D,2D,0.829857047968605,0.5,0.624019738990921,0.375980261009079,1,1,0.170142952031395,0.0214486048317648,0.5,0.16662818404817,0.987688997357602,10.5245303054785,3.34721117529167,0.5,1.91969555085059,0.999971288078411,0.5,0.1260622586812,0.956553029727309,12.0289365117618,3.50510492799135,0.5,31.5552231419173
193,1,33,B,2,1,l,9,1,0.95,2B,1B,0,1,0,1,B21,1.72480523215152,3.87120101090789,0.829857047968605,0.5,0.5,0.5,0.4369688706594,0.648816233200683,0.5,0.4369688706594,0.4369688706594,0.5,0.805314561910733,0.5,0.5,0.5,0.5,0.85130565280037,1.9496889973576,0,0,1,1B,2B,0.648816233200683,0.5,0.564769381255203,0.435230618744797,1,1,0.351183766799317,0.0442710188548938,0.5,0.16662818404817,0.987688997357602,10.5245303054785,3.34721117529167,0.5,0.691430855658216,0.995751437240825,0.5,0.1260622586812,0.956553029727309,12.0289365117618,3.50510492799135,0.5,31.5552231419173
193,1,34,A,1,0,l,63,1,0.95,1A,0A,0,1,0,1,A10,2.15524368159514,2.28238238567653,0.829857047968605,0.5,0.5,0.5,0.4369688706594,0.693087252055577,0.5,0.4369688706594,0.4369688706594,0.5,0.805314561910733,0.5,0.5,0.5,0.5,0.85130565280037,1.2656889973576,0,0,1,0A,1A,0.829857047968605,0.5,0.624019738990921,0.375980261009079,1,1,0.170142952031395,0.0214486048317648,0.5,0.16662818404817,0.987688997357602,10.5245303054785,3.34721117529167,0.5,1.33292611467684,0.99997116795973,0.5,0.1260622586812,0.956553029727309,12.0289365117618,3.50510492799135,0.5,31.5552231419173
193,1,35,C,2,1,a,9,1,0.95,2C,1C,1,0,1,0,C21,1.89055062876767,3.91202300542815,0.85130565280037,0.5,0.5,0.5,0.4369688706594,0.693087252055577,0.5,0.4369688706594,0.4369688706594,0.5,0.805314561910733,0.5,0.5,0.5,0.5,0.85130565280037,2.6016889973576,1,1,0,2C,1C,0.805314561910733,0.5,0.616950569165416,0.383049430834583,1,1,0.194685438089267,0.024542486057872,0.5,0.16662818404817,0.987688997357602,10.5245303054785,3.34721117529167,0.5,0.0268447443733598,0.999947700084724,0.5,0.1260622586812,0.956553029727309,12.0289365117618,3.50510492799135,0.5,31.5552231419173
193,1,36,B,1,0,a,63,1,0.95,1B,0B,1,0,1,0,B10,0.567609255238037,2.32238772029023,0.85130565280037,0.5,0.5,0.5,0.4369688706594,0.693087252055577,0.5,0.4369688706594,0.4369688706594,0.5,0.829857047968605,0.5,0.5,0.5,0.5,0.85130565280037,2.0446889973576,1,1,0,1B,0B,0.693087252055577,0.4369688706594,0.613321089213184,0.386678910786816,1,1,0.306912747944423,0.0386901142239279,0.5,0.16662818404817,0.987688997357602,10.5245303054785,3.34721117529167,0.5,0.312521909580021,0.999929478351068,0.5,0.1260622586812,0.956553029727309,12.0289365117618,3.50510492799135,0.5,31.5552231419173
193,1,37,A,0,1,a,63,0,0.95,0A,1A,1,0,0,1,A01,1.76364850969756,3.25809653802148,0.85130565280037,0.5,0.5,0.5,0.4369688706594,0.731777366279505,0.5,0.4369688706594,0.4369688706594,0.5,0.829857047968605,0.5,0.5,0.5,0.5,0.85130565280037,1.5436889973576,1,1,0,0A,1A,0.85130565280037,0.5,0.629987487313601,0.370012512686399,1,0,-0.85130565280037,-0.107317513420088,0.5,0.16662818404817,0.987688997357602,10.5245303054785,3.34721117529167,0.5,1.54469419395665,0.999982719664718,0.5,0.1260622586812,0.956553029727309,12.0289365117618,3.50510492799135,0.5,31.5552231419173
193,1,38,B,0,1,l,63,1,0.95,0B,1B,0,1,0,1,B01,2.65095090294804,3.27714473299218,0.743988139380282,0.5,0.5,0.5,0.4369688706594,0.731777366279505,0.5,0.4369688706594,0.4369688706594,0.5,0.829857047968605,0.5,0.5,0.5,0.5,0.85130565280037,1.6626889973576,0,0,1,1B,0B,0.731777366279505,0.4369688706594,0.626121687626668,0.373878312373332,1,1,0.268222633720495,0.0338127510362259,0.5,0.16662818404817,0.987688997357602,10.5245303054785,3.34721117529167,0.5,1.05749055886061,0.999976044249626,0.5,0.1260622586812,0.956553029727309,12.0289365117618,3.50510492799135,0.5,31.5552231419173
193,1,39,D,1,3,l,27,1,0.95,1D,3D,0,1,0,1,D13,3.2952326873632,3.29583686600433,0.743988139380282,0.5,0.5,0.5,0.4369688706594,0.765590117315731,0.5,0.4369688706594,0.4369688706594,0.5,0.829857047968605,0.5,0.5,0.5,0.5,0.85130565280037,1.6856889973576,0,0,1,3D,1D,0.85130565280037,0.5,0.629987487313601,0.370012512686399,1,1,0.14869434719963,0.018744745261112,0.5,0.16662818404817,0.987688997357602,10.5245303054785,3.34721117529167,0.5,0.92903469733547,0.999982486425401,0.5,0.1260622586812,0.956553029727309,12.0289365117618,3.50510492799135,0.5,31.5552231419173
193,1,40,C,3,2,l,63,1,0.95,3C,2C,0,1,0,1,C32,0.75450477310759,2.62103882411258,0.743988139380282,0.5,0.5,0.5,0.4369688706594,0.765590117315731,0.5,0.4369688706594,0.4369688706594,0.5,0.829857047968605,0.5,0.5,0.5,0.5,0.870050398061482,1.6436889973576,0,0,1,2C,3C,0.829857047968605,0.5,0.624019738990921,0.375980261009079,1,1,0.170142952031395,0.0214486048317648,0.5,0.16662818404817,0.987688997357602,10.5245303054785,3.34721117529167,0.5,1.15082993339671,0.999971294005962,0.5,0.1260622586812,0.956553029727309,12.0289365117618,3.50510492799135,0.5,31.5552231419173
193,1,41,A,0,2,a,27,1,0.95,0A,2A,1,0,1,0,A02,0.310838734602936,3.3322045101752,0.743988139380282,0.5,0.5,0.5,0.4369688706594,0.765590117315731,0.5,0.4369688706594,0.4369688706594,0.5,0.85130565280037,0.5,0.5,0.5,0.5,0.870050398061482,1.7846889973576,1,1,0,0A,2A,0.743988139380282,0.5,0.598066907415142,0.401933092584858,1,1,0.256011860619718,0.0322734333988983,0.5,0.16662818404817,0.987688997357602,10.5245303054785,3.34721117529167,0.5,0.905423175673131,0.999743408969166,0.5,0.1260622586812,0.956553029727309,12.0289365117618,3.50510492799135,0.5,31.5552231419173
193,1,42,D,2,3,l,63,1,0.95,2D,3D,0,1,0,1,D23,1.252439656024,2.94443897916644,0.77626157277918,0.5,0.5,0.5,0.4369688706594,0.765590117315731,0.5,0.4369688706594,0.4369688706594,0.5,0.85130565280037,0.5,0.5,0.5,0.5,0.870050398061482,1.4366889973576,0,0,1,3D,2D,0.870050398061482,0.5,0.635049921734658,0.364950078265341,1,1,0.129949601938518,0.0163817403350925,0.5,0.16662818404817,0.987688997357602,10.5245303054785,3.34721117529167,0.5,2.02228646003396,0.999988709787648,0.5,0.1260622586812,0.956553029727309,12.0289365117618,3.50510492799135,0.5,31.5552231419173
193,1,43,B,1,3,a,27,1,0.95,1B,3B,1,0,1,0,B13,2.19281834506474,3.36729582998647,0.77626157277918,0.5,0.5,0.5,0.4369688706594,0.765590117315731,0.5,0.4369688706594,0.4369688706594,0.5,0.85130565280037,0.5,0.5,0.5,0.5,0.886432138396574,1.2306889973576,1,1,0,1B,3B,0.765590117315731,0.4369688706594,0.636634148487661,0.363365851512339,1,1,0.234409882684269,0.0295502392683742,0.5,0.16662818404817,0.987688997357602,10.5245303054785,3.34721117529167,0.5,1.29790026397273,0.999990072979149,0.5,0.1260622586812,0.956553029727309,12.0289365117618,3.50510492799135,0.5,31.5552231419173
193,1,44,C,3,2,l,63,1,0.95,3C,2C,0,1,0,1,C32,2.82073877481849,2.46809953147162,0.77626157277918,0.5,0.5,0.5,0.4369688706594,0.795140356584105,0.5,0.4369688706594,0.4369688706594,0.5,0.85130565280037,0.5,0.5,0.5,0.5,0.886432138396574,1.5496889973576,0,0,1,2C,3C,0.85130565280037,0.5,0.629987487313601,0.370012512686399,1,1,0.14869434719963,0.018744745261112,0.5,0.16662818404817,0.987688997357602,10.5245303054785,3.34721117529167,0.5,1.51696265224012,0.999982696249438,0.5,0.1260622586812,0.956553029727309,12.0289365117618,3.50510492799135,0.5,31.5552231419173
