ID,session,trialNr,mod2Stim,visStimLeft,visStimRight,correctKey,frequency,rewardAccurate,probFB,stimPairLeft,stimPairRight,leftCorrect,rightCorrect,pCorrectLeft,pCorrectRight,triplet,rt,surprise,0A belief,1A belief,2A belief,3A belief,0B belief,1B belief,2B belief,3B belief,0C belief,1C belief,2C belief,3C belief,0D belief,1D belief,2D belief,3D belief,reactionTime,choice,choiceLeft,choiceRight,chosenPair,otherPair,beliefPair,beliefOtherPair,beliefPairNorm,beliefOtherPairNorm,choiceAccurate,reward,rewardPE,update2,sim_CBCsimpleRW_CBCdriftDiffusionLR_startBelief,sim_CBCsimpleRW_CBCdriftDiffusionLR_alpha1,sim_CBCsimpleRW_CBCdriftDiffusionLR_nonDecisionTime,sim_CBCsimpleRW_CBCdriftDiffusionLR_weight,sim_CBCsimpleRW_CBCdriftDiffusionLR_startingBoundary,sim_CBCsimpleRW_CBCdriftDiffusionLR_startingPoint,lik,corrLik,fitCBCsimpleRW_CBCdriftDiffusionLR_startBelief,fitCBCsimpleRW_CBCdriftDiffusionLR_alpha1,fitCBCsimpleRW_CBCdriftDiffusionLR_nonDecisionTime,fitCBCsimpleRW_CBCdriftDiffusionLR_weight,fitCBCsimpleRW_CBCdriftDiffusionLR_startingBoundary,fitCBCsimpleRW_CBCdriftDiffusionLR_startingPoint,fit_CBCsimpleRW_CBCdriftDiffusionLR_NLL
196,1,1,A,0,1,a,63,1,0.95,0A,1A,1,0,1,0,A01,0.574607338307046,2.77258872223978,0.5,0.5,0.5,0.5,0.5,0.5,0.5,0.5,0.5,0.5,0.5,0.5,0.5,0.5,0.5,0.5,1.46468408122436,0,0,1,1A,0A,0.5,0.5,0.5,0.5,0,0,-0.5,-0.486741107352547,0.5,0.940846488165358,0.840684081224361,8.91238306344597,2.24203705906687,0.5,0.261046865114134,0.501034323978028,0.5,0.973482214705093,0.814815284046022,8.87578798191634,2.65507062558161,0.5,-22.7033911387599
196,1,2,D,2,3,l,63,1,0.95,2D,3D,0,1,0,1,D23,1.25893441661291,2.83321334405622,0.5,0.0132588926474533,0.5,0.5,0.5,0.5,0.5,0.5,0.5,0.5,0.5,0.5,0.5,0.5,0.5,0.5,1.51968408122436,1,1,0,2D,3D,0.5,0.5,0.5,0.5,0,0,-0.5,-0.486741107352547,0.5,0.940846488165358,0.840684081224361,8.91238306344597,2.24203705906687,0.5,0.256245585327703,0.499821229056287,0.5,0.973482214705093,0.814815284046022,8.87578798191634,2.65507062558161,0.5,-22.7033911387599
196,1,3,C,0,2,l,27,1,0.95,0C,2C,0,1,0,1,C02,0.954542611301431,2.89037175789616,0.5,0.0132588926474533,0.5,0.5,0.5,0.5,0.5,0.5,0.5,0.5,0.5,0.5,0.5,0.5,0.0132588926474533,0.5,5.72468408122436,0,0,1,2C,0C,0.5,0.5,0.5,0.5,1,1,0.5,0.486741107352547,0.5,0.940846488165358,0.840684081224361,8.91238306344597,2.24203705906687,0.5,0.0143168689879797,0.499480125028789,0.5,0.973482214705093,0.814815284046022,8.87578798191634,2.65507062558161,0.5,-22.7033911387599
196,1,4,A,0,1,a,63,1,0.95,0A,1A,1,0,1,0,A01,3.32918004407403,2.2512917986065,0.5,0.0132588926474533,0.5,0.5,0.5,0.5,0.5,0.5,0.5,0.5,0.986741107352547,0.5,0.5,0.5,0.0132588926474533,0.5,1.00568408122436,1,1,0,0A,1A,0.5,0.0132588926474533,0.974167242229234,0.0258327577707661,1,1,0.5,0.486741107352547,0.5,0.940846488165358,0.840684081224361,8.91238306344597,2.24203705906687,0.5,5.18160009028843,0.999999999802235,0.5,0.973482214705093,0.814815284046022,8.87578798191634,2.65507062558161,0.5,-22.7033911387599
196,1,5,B,1,3,a,27,1,0.95,1B,3B,1,0,1,0,B13,2.97870395262061,2.99573227355399,0.986741107352547,0.0132588926474533,0.5,0.5,0.5,0.5,0.5,0.5,0.5,0.5,0.986741107352547,0.5,0.5,0.5,0.0132588926474533,0.5,4.43368408122436,1,1,0,1B,3B,0.5,0.5,0.5,0.5,1,1,0.5,0.486741107352547,0.5,0.940846488165358,0.840684081224361,8.91238306344597,2.24203705906687,0.5,0.0354253344384352,0.500604146050319,0.5,0.973482214705093,0.814815284046022,8.87578798191634,2.65507062558161,0.5,-22.7033911387599
196,1,6,C,3,2,l,63,1,0.95,3C,2C,0,1,0,1,C32,2.75670016250954,3.04452243772342,0.986741107352547,0.0132588926474533,0.5,0.5,0.5,0.986741107352547,0.5,0.5,0.5,0.5,0.986741107352547,0.5,0.5,0.5,0.0132588926474533,0.5,0.997684081224361,0,0,1,2C,3C,0.986741107352547,0.5,0.663693969631098,0.336306030368902,1,1,0.0132588926474533,0.0129072961789799,0.5,0.940846488165358,0.840684081224361,8.91238306344597,2.24203705906687,0.5,1.19790943693842,0.999555379458543,0.5,0.973482214705093,0.814815284046022,8.87578798191634,2.65507062558161,0.5,-22.7033911387599
196,1,7,D,3,2,a,63,1,0.95,3D,2D,1,0,1,0,D32,3.17883964333858,3.09104245335832,0.986741107352547,0.0132588926474533,0.5,0.5,0.5,0.986741107352547,0.5,0.5,0.5,0.5,0.999648403531527,0.5,0.5,0.5,0.0132588926474533,0.5,0.941684081224361,1,1,0,3D,2D,0.5,0.0132588926474533,0.974167242229234,0.0258327577707661,1,1,0.5,0.486741107352547,0.5,0.940846488165358,0.840684081224361,8.91238306344597,2.24203705906687,0.5,8.98764972805636,0.999999999803639,0.5,0.973482214705093,0.814815284046022,8.87578798191634,2.65507062558161,0.5,-22.7033911387599
196,1,8,B,0,1,l,63,1,0.95,0B,1B,0,1,0,1,B01,2.97921438313796,3.13549421592915,0.986741107352547,0.0132588926474533,0.5,0.5,0.5,0.986741107352547,0.5,0.5,0.5,0.5,0.999648403531527,0.5,0.5,0.5,0.0132588926474533,0.986741107352547,1.01468408122436,0,0,1,1B,0B,0.986741107352547,0.5,0.663693969631098,0.336306030368902,1,1,0.0132588926474533,0.0129072961789799,0.5,0.940846488165358,0.840684081224361,8.91238306344597,2.24203705906687,0.5,1.46780150838518,0.999552997940836,0.5,0.973482214705093,0.814815284046022,8.87578798191634,2.65507062558161,0.5,-22.7033911387599
196,1,9,A,2,0,l,27,1,0.95,2A,0A,0,1,0,1,A20,2.88385728206855,3.17805383034795,0.986741107352547,0.0132588926474533,0.5,0.5,0.5,0.999648403531527,0.5,0.5,0.5,0.5,0.999648403531527,0.5,0.5,0.5,0.0132588926474533,0.986741107352547,0.974684081224361,0,0,1,0A,2A,0.986741107352547,0.5,0.663693969631098,0.336306030368902,1,1,0.0132588926474533,0.0129072961789799,0.5,0.940846488165358,0.840684081224361,8.91238306344597,2.24203705906687,0.5,0.807291493680808,0.999555108710233,0.5,0.973482214705093,0.814815284046022,8.87578798191634,2.65507062558161,0.5,-22.7033911387599
196,1,10,D,3,0,a,9,1,0.95,3D,0D,1,0,1,0,D30,1.02579001056096,3.2188758248682,0.999648403531527,0.0132588926474533,0.5,0.5,0.5,0.999648403531527,0.5,0.5,0.5,0.5,0.999648403531527,0.5,0.5,0.5,0.0132588926474533,0.986741107352547,1.38068408122436,1,1,0,3D,0D,0.986741107352547,0.5,0.663693969631098,0.336306030368902,1,1,0.0132588926474533,0.0129072961789799,0.5,0.940846488165358,0.840684081224361,8.91238306344597,2.24203705906687,0.5,1.1389705256183,0.99955295345115,0.5,0.973482214705093,0.814815284046022,8.87578798191634,2.65507062558161,0.5,-22.7033911387599
196,1,11,C,2,3,a,63,1,0.95,2C,3C,1,0,1,0,C23,1.37074646365502,3.25809653802148,0.999648403531527,0.0132588926474533,0.5,0.5,0.5,0.999648403531527,0.5,0.5,0.5,0.5,0.999648403531527,0.5,0.5,0.5,0.0132588926474533,0.999648403531527,1.32168408122436,1,1,0,2C,3C,0.999648403531527,0.5,0.666588515799738,0.333411484200262,1,1,0.000351596468473381,0.000342272908811956,0.5,0.940846488165358,0.840684081224361,8.91238306344597,2.24203705906687,0.5,1.42532932203405,0.999612586989265,0.5,0.973482214705093,0.814815284046022,8.87578798191634,2.65507062558161,0.5,-22.7033911387599
196,1,12,B,0,1,l,63,1,0.95,0B,1B,0,1,0,1,B01,2.04931331863297,2.60268968544438,0.999648403531527,0.0132588926474533,0.5,0.5,0.5,0.999648403531527,0.5,0.5,0.5,0.5,0.999990676440339,0.5,0.5,0.5,0.0132588926474533,0.999648403531527,1.43068408122436,0,0,1,1B,0B,0.999648403531527,0.5,0.666588515799738,0.333411484200262,1,1,0.000351596468473381,0.000342272908811956,0.5,0.940846488165358,0.840684081224361,8.91238306344597,2.24203705906687,0.5,0.89921870803444,0.999610535784459,0.5,0.973482214705093,0.814815284046022,8.87578798191634,2.65507062558161,0.5,-22.7033911387599
196,1,13,D,2,3,l,63,1,0.95,2D,3D,0,1,0,1,D23,0.998066256405427,2.63905732961526,0.999648403531527,0.0132588926474533,0.5,0.5,0.5,0.999990676440339,0.5,0.5,0.5,0.5,0.999990676440339,0.5,0.5,0.5,0.0132588926474533,0.999648403531527,0.948684081224361,0,0,1,3D,2D,0.999648403531527,0.0132588926474533,0.986910063045779,0.013089936954221,1,1,0.000351596468473381,0.000342272908811956,0.5,0.940846488165358,0.840684081224361,8.91238306344597,2.24203705906687,0.5,9.70108049812714,0.999999999892041,0.5,0.973482214705093,0.814815284046022,8.87578798191634,2.65507062558161,0.5,-22.7033911387599
196,1,14,C,2,3,a,63,1,0.95,2C,3C,1,0,1,0,C23,0.693909874004813,2.67414864942653,0.999648403531527,0.0132588926474533,0.5,0.5,0.5,0.999990676440339,0.5,0.5,0.5,0.5,0.999990676440339,0.5,0.5,0.5,0.0132588926474533,0.999990676440339,1.09468408122436,1,1,0,2C,3C,0.999990676440339,0.5,0.666664594751641,0.333335405248359,1,1,9.32355966143383e-06,9.07631950814768e-06,0.5,0.940846488165358,0.840684081224361,8.91238306344597,2.24203705906687,0.5,2.28916657740752,0.999611266647532,0.5,0.973482214705093,0.814815284046022,8.87578798191634,2.65507062558161,0.5,-22.7033911387599
196,1,15,B,3,1,l,27,1,0.95,3B,1B,0,1,0,1,B31,1.40439650221771,3.40119738166216,0.999648403531527,0.0132588926474533,0.5,0.5,0.5,0.999990676440339,0.5,0.5,0.5,0.5,0.999999752759847,0.5,0.5,0.5,0.0132588926474533,0.999990676440339,1.46868408122436,0,0,1,1B,3B,0.999990676440339,0.5,0.666664594751641,0.333335405248359,1,1,9.32355966143383e-06,9.07631950814768e-06,0.5,0.940846488165358,0.840684081224361,8.91238306344597,2.24203705906687,0.5,0.755790444870605,0.999612185725986,0.5,0.973482214705093,0.814815284046022,8.87578798191634,2.65507062558161,0.5,-22.7033911387599
196,1,16,A,0,3,a,9,1,0.95,0A,3A,1,0,1,0,A03,0.388407213059608,3.43398720448515,0.999648403531527,0.0132588926474533,0.5,0.5,0.5,0.999999752759847,0.5,0.5,0.5,0.5,0.999999752759847,0.5,0.5,0.5,0.0132588926474533,0.999990676440339,1.26368408122436,1,1,0,0A,3A,0.999648403531527,0.5,0.666588515799738,0.333411484200262,1,1,0.000351596468473381,0.000342272908811956,0.5,0.940846488165358,0.840684081224361,8.91238306344597,2.24203705906687,0.5,1.76106939530013,0.999609358771326,0.5,0.973482214705093,0.814815284046022,8.87578798191634,2.65507062558161,0.5,-22.7033911387599
196,1,17,D,2,3,l,63,1,0.95,2D,3D,0,1,0,1,D23,0.140486689012286,2.36712361413162,0.999990676440339,0.0132588926474533,0.5,0.5,0.5,0.999999752759847,0.5,0.5,0.5,0.5,0.999999752759847,0.5,0.5,0.5,0.0132588926474533,0.999990676440339,0.979684081224361,0,0,1,3D,2D,0.999990676440339,0.0132588926474533,0.986914484790366,0.0130855152096339,1,1,9.32355966143383e-06,9.07631950814768e-06,0.5,0.940846488165358,0.840684081224361,8.91238306344597,2.24203705906687,0.5,7.6876052275983,0.999999999891579,0.5,0.973482214705093,0.814815284046022,8.87578798191634,2.65507062558161,0.5,-22.7033911387599
196,1,18,C,0,2,l,27,1,0.95,0C,2C,0,1,0,1,C02,1.95009215052092,2.80336038090653,0.999990676440339,0.0132588926474533,0.5,0.5,0.5,0.999999752759847,0.5,0.5,0.5,0.5,0.999999752759847,0.5,0.5,0.5,0.0132588926474533,0.999999752759847,0.954684081224361,0,0,1,2C,0C,0.999999752759847,0.5,0.666666611724401,0.333333388275599,1,1,2.47240153239403e-07,2.40683891939521e-07,0.5,0.940846488165358,0.840684081224361,8.91238306344597,2.24203705906687,0.5,0.512602656541609,0.999613924655161,0.5,0.973482214705093,0.814815284046022,8.87578798191634,2.65507062558161,0.5,-22.7033911387599
196,1,19,A,0,1,a,63,1,0.95,0A,1A,1,0,1,0,A01,2.6601553461617,2.42774823594805,0.999990676440339,0.0132588926474533,0.5,0.5,0.5,0.999999752759847,0.5,0.5,0.5,0.5,0.999999993443739,0.5,0.5,0.5,0.0132588926474533,0.999999752759847,0.960684081224361,1,1,0,0A,1A,0.999990676440339,0.0132588926474533,0.986914484790366,0.0130855152096339,1,1,9.32355966143383e-06,9.07631950814768e-06,0.5,0.940846488165358,0.840684081224361,8.91238306344597,2.24203705906687,0.5,9.36379267866804,0.999999999892673,0.5,0.973482214705093,0.814815284046022,8.87578798191634,2.65507062558161,0.5,-22.7033911387599
196,1,20,B,1,0,a,63,0,0.95,1B,0B,1,0,0,1,B10,2.20710459082748,3.55534806148941,0.999999752759847,0.0132588926474533,0.5,0.5,0.5,0.999999752759847,0.5,0.5,0.5,0.5,0.999999993443739,0.5,0.5,0.5,0.0132588926474533,0.999999752759847,1.15068408122436,1,1,0,1B,0B,0.999999752759847,0.5,0.666666611724401,0.333333388275599,1,0,-0.999999752759847,-0.973481974021202,0.5,0.940846488165358,0.840684081224361,8.91238306344597,2.24203705906687,0.5,2.30538195523834,0.999613115814013,0.5,0.973482214705093,0.814815284046022,8.87578798191634,2.65507062558161,0.5,-22.7033911387599
196,1,21,D,3,1,a,27,1,0.95,3D,1D,1,0,1,0,D31,1.25557447283416,3.58351893845611,0.999999752759847,0.0132588926474533,0.5,0.5,0.5,0.0265177787386452,0.5,0.5,0.5,0.5,0.999999993443739,0.5,0.5,0.5,0.0132588926474533,0.999999752759847,1.21368408122436,1,1,0,3D,1D,0.999999752759847,0.5,0.666666611724401,0.333333388275599,1,1,2.47240153239403e-07,2.40683891939521e-07,0.5,0.940846488165358,0.840684081224361,8.91238306344597,2.24203705906687,0.5,2.04537909223095,0.999610813147025,0.5,0.973482214705093,0.814815284046022,8.87578798191634,2.65507062558161,0.5,-22.7033911387599
196,1,22,C,3,2,l,63,1,0.95,3C,2C,0,1,0,1,C32,1.33700784635756,2.91777073208428,0.999999752759847,0.0132588926474533,0.5,0.5,0.5,0.0265177787386452,0.5,0.5,0.5,0.5,0.999999993443739,0.5,0.5,0.5,0.0132588926474533,0.999999993443739,1.16168408122436,0,0,1,2C,3C,0.999999993443739,0.5,0.66666666520972,0.33333333479028,1,1,6.5562613116299e-09,6.38240378183079e-09,0.5,0.940846488165358,0.840684081224361,8.91238306344597,2.24203705906687,0.5,2.27434351644502,0.99961225878819,0.5,0.973482214705093,0.814815284046022,8.87578798191634,2.65507062558161,0.5,-22.7033911387599
196,1,23,B,0,1,l,63,1,0.95,0B,1B,0,1,0,1,B01,1.11763079119708,2.53897387105828,0.999999752759847,0.0132588926474533,0.5,0.5,0.5,0.0265177787386452,0.5,0.5,0.5,0.5,0.999999999826143,0.5,0.5,0.5,0.0132588926474533,0.999999993443739,1.01668408122436,1,1,0,0B,1B,0.5,0.0265177787386452,0.949635549245511,0.0503644507544886,0,0,-0.5,-0.486741107352547,0.5,0.940846488165358,0.840684081224361,8.91238306344597,2.24203705906687,0.5,4.78268624965673,0.999999999375411,0.5,0.973482214705093,0.814815284046022,8.87578798191634,2.65507062558161,0.5,-22.7033911387599
196,1,24,A,0,2,a,27,1,0.95,0A,2A,1,0,1,0,A02,3.11132466944179,3.66356164612965,0.999999752759847,0.0132588926474533,0.5,0.5,0.0132588926474533,0.0265177787386452,0.5,0.5,0.5,0.5,0.999999999826143,0.5,0.5,0.5,0.0132588926474533,0.999999993443739,1.71768408122436,1,1,0,0A,2A,0.999999752759847,0.5,0.666666611724401,0.333333388275599,1,1,2.47240153239403e-07,2.40683891939521e-07,0.5,0.940846488165358,0.840684081224361,8.91238306344597,2.24203705906687,0.5,0.227073647986652,0.999611719362652,0.5,0.973482214705093,0.814815284046022,8.87578798191634,2.65507062558161,0.5,-22.7033911387599
196,1,25,D,3,2,a,63,1,0.95,3D,2D,1,0,1,0,D32,3.02629997984038,2.99573227355399,0.999999993443739,0.0132588926474533,0.5,0.5,0.0132588926474533,0.0265177787386452,0.5,0.5,0.5,0.5,0.999999999826143,0.5,0.5,0.5,0.0132588926474533,0.999999993443739,0.993684081224361,1,1,0,3D,2D,0.999999993443739,0.0132588926474533,0.986914605112814,0.0130853948871858,1,1,6.5562613116299e-09,6.38240378183079e-09,0.5,0.940846488165358,0.840684081224361,8.91238306344597,2.24203705906687,0.5,6.12512454444446,0.999999999892237,0.5,0.973482214705093,0.814815284046022,8.87578798191634,2.65507062558161,0.5,-22.7033911387599
196,1,26,C,0,2,l,27,1,0.95,0C,2C,0,1,0,1,C02,2.49777780484487,2.6149597780362,0.999999993443739,0.0132588926474533,0.5,0.5,0.0132588926474533,0.0265177787386452,0.5,0.5,0.5,0.5,0.999999999826143,0.5,0.5,0.5,0.0132588926474533,0.999999999826143,1.12768408122436,0,0,1,2C,0C,0.999999999826143,0.5,0.666666666628032,0.333333333371968,1,1,1.73857483964923e-10,1.69247168533229e-10,0.5,0.940846488165358,0.840684081224361,8.91238306344597,2.24203705906687,0.5,2.33713803422825,0.999611672081569,0.5,0.973482214705093,0.814815284046022,8.87578798191634,2.65507062558161,0.5,-22.7033911387599
196,1,27,B,0,1,l,63,1,0.95,0B,1B,0,1,0,1,B01,2.13818723931522,2.35137525716348,0.999999993443739,0.0132588926474533,0.5,0.5,0.0132588926474533,0.0265177787386452,0.5,0.5,0.5,0.5,0.99999999999539,0.5,0.5,0.5,0.0132588926474533,0.999999999826143,1.13468408122436,0,0,1,1B,0B,0.0265177787386452,0.0132588926474533,0.666666611724401,0.333333388275599,1,1,0.973482221261355,0.947667628729537,0.5,0.940846488165358,0.840684081224361,8.91238306344597,2.24203705906687,0.5,2.33285885565886,0.999612600519456,0.5,0.973482214705093,0.814815284046022,8.87578798191634,2.65507062558161,0.5,-22.7033911387599
196,1,28,A,1,0,l,63,1,0.95,1A,0A,0,1,0,1,A10,0.259135511298178,3.76120011569356,0.999999993443739,0.0132588926474533,0.5,0.5,0.0132588926474533,0.974185407468183,0.5,0.5,0.5,0.5,0.99999999999539,0.5,0.5,0.5,0.0132588926474533,0.999999999826143,1.13368408122436,0,0,1,0A,1A,0.999999993443739,0.0132588926474533,0.986914605112814,0.0130853948871858,1,1,6.5562613116299e-09,6.38240378183079e-09,0.5,0.940846488165358,0.840684081224361,8.91238306344597,2.24203705906687,0.5,0.119965080020214,0.999999999891853,0.5,0.973482214705093,0.814815284046022,8.87578798191634,2.65507062558161,0.5,-22.7033911387599
196,1,29,C,2,3,a,63,1,0.95,2C,3C,1,0,1,0,C23,1.9537658224297,2.68557734525015,0.999999999826143,0.0132588926474533,0.5,0.5,0.0132588926474533,0.974185407468183,0.5,0.5,0.5,0.5,0.99999999999539,0.5,0.5,0.5,0.0132588926474533,0.999999999826143,0.964684081224361,1,1,0,2C,3C,0.99999999999539,0.5,0.666666666665642,0.333333333334358,1,1,4.61031213205843e-12,4.488056864798e-12,0.5,0.940846488165358,0.840684081224361,8.91238306344597,2.24203705906687,0.5,0.673049408644806,0.999613160405754,0.5,0.973482214705093,0.814815284046022,8.87578798191634,2.65507062558161,0.5,-22.7033911387599
196,1,30,D,1,3,l,27,1,0.95,1D,3D,0,1,0,1,D13,0.825522493474031,3.80666248977032,0.999999999826143,0.0132588926474533,0.5,0.5,0.0132588926474533,0.974185407468183,0.5,0.5,0.5,0.5,0.999999999999878,0.5,0.5,0.5,0.0132588926474533,0.999999999826143,1.45168408122436,0,0,1,3D,1D,0.999999999826143,0.5,0.666666666628032,0.333333333371968,1,1,1.73857483964923e-10,1.69247168533229e-10,0.5,0.940846488165358,0.840684081224361,8.91238306344597,2.24203705906687,0.5,0.817733204871646,0.999610656931205,0.5,0.973482214705093,0.814815284046022,8.87578798191634,2.65507062558161,0.5,-22.7033911387599
196,1,31,A,0,1,a,63,1,0.95,0A,1A,1,0,1,0,A01,2.2143856417831,2.4423470353692,0.999999999826143,0.0132588926474533,0.5,0.5,0.0132588926474533,0.974185407468183,0.5,0.5,0.5,0.5,0.999999999999878,0.5,0.5,0.5,0.0132588926474533,0.99999999999539,0.974684081224361,1,1,0,0A,1A,0.999999999826143,0.0132588926474533,0.986914605195238,0.0130853948047624,1,1,1.73857483964923e-10,1.69247168533229e-10,0.5,0.940846488165358,0.840684081224361,8.91238306344597,2.24203705906687,0.5,8.20866505861066,0.999999999892441,0.5,0.973482214705093,0.814815284046022,8.87578798191634,2.65507062558161,0.5,-22.7033911387599
196,1,32,D,2,3,l,63,1,0.95,2D,3D,0,1,0,1,D23,2.99271364801026,2.46385324059017,0.99999999999539,0.0132588926474533,0.5,0.5,0.0132588926474533,0.974185407468183,0.5,0.5,0.5,0.5,0.999999999999878,0.5,0.5,0.5,0.0132588926474533,0.99999999999539,0.909684081224361,0,0,1,3D,2D,0.99999999999539,0.0132588926474533,0.986914605197423,0.0130853948025767,1,1,4.61031213205843e-12,4.488056864798e-12,0.5,0.940846488165358,0.840684081224361,8.91238306344597,2.24203705906687,0.5,4.66429250546434,0.999999999892187,0.5,0.973482214705093,0.814815284046022,8.87578798191634,2.65507062558161,0.5,-22.7033911387599
196,1,33,B,1,2,a,9,1,0.95,1B,2B,1,0,1,0,B12,1.33725429076208,3.87120101090789,0.99999999999539,0.0132588926474533,0.5,0.5,0.0132588926474533,0.974185407468183,0.5,0.5,0.5,0.5,0.999999999999878,0.5,0.5,0.5,0.0132588926474533,0.999999999999878,1.09468408122436,1,1,0,1B,2B,0.974185407468183,0.5,0.660829636850959,0.339170363149041,1,1,0.0258145925318173,0.0251300467095831,0.5,0.940846488165358,0.840684081224361,8.91238306344597,2.24203705906687,0.5,2.17267843100246,0.999490961517288,0.5,0.973482214705093,0.814815284046022,8.87578798191634,2.65507062558161,0.5,-22.7033911387599
196,1,34,A,0,1,a,63,1,0.95,0A,1A,1,0,1,0,A01,0.623764259651193,2.28238238567653,0.99999999999539,0.0132588926474533,0.5,0.5,0.0132588926474533,0.999315454177766,0.5,0.5,0.5,0.5,0.999999999999878,0.5,0.5,0.5,0.0132588926474533,0.999999999999878,0.997684081224361,1,1,0,0A,1A,0.99999999999539,0.0132588926474533,0.986914605197423,0.0130853948025767,1,1,4.61031213205843e-12,4.488056864798e-12,0.5,0.940846488165358,0.840684081224361,8.91238306344597,2.24203705906687,0.5,5.68633081775459,0.999999999891637,0.5,0.973482214705093,0.814815284046022,8.87578798191634,2.65507062558161,0.5,-22.7033911387599
196,1,35,C,1,2,l,9,1,0.95,1C,2C,0,1,0,1,C12,3.01321458898161,3.91202300542815,0.999999999999878,0.0132588926474533,0.5,0.5,0.0132588926474533,0.999315454177766,0.5,0.5,0.5,0.5,0.999999999999878,0.5,0.5,0.5,0.0132588926474533,0.999999999999878,1.22968408122436,0,0,1,2C,1C,0.999999999999878,0.5,0.666666666666639,0.33333333333336,1,1,1.2223555501123e-13,1.18994138808038e-13,0.5,0.940846488165358,0.840684081224361,8.91238306344597,2.24203705906687,0.5,1.95803916761379,0.999611899669914,0.5,0.973482214705093,0.814815284046022,8.87578798191634,2.65507062558161,0.5,-22.7033911387599
196,1,36,B,0,1,l,63,1,0.95,0B,1B,0,1,0,1,B01,0.921233776849618,2.32238772029023,0.999999999999878,0.0132588926474533,0.5,0.5,0.0132588926474533,0.999315454177766,0.5,0.5,0.5,0.5,0.999999999999997,0.5,0.5,0.5,0.0132588926474533,0.999999999999878,0.910684081224361,0,0,1,1B,0B,0.999315454177766,0.0132588926474533,0.98690575888178,0.0130942411182197,1,1,0.000684545822234206,0.000666393183095674,0.5,0.940846488165358,0.840684081224361,8.91238306344597,2.24203705906687,0.5,4.87268923446959,0.999999999892137,0.5,0.973482214705093,0.814815284046022,8.87578798191634,2.65507062558161,0.5,-22.7033911387599
196,1,37,A,1,0,l,63,0,0.95,1A,0A,0,1,1,0,A10,1.12286070256526,3.25809653802148,0.999999999999878,0.0132588926474533,0.5,0.5,0.0132588926474533,0.999981847360861,0.5,0.5,0.5,0.5,0.999999999999997,0.5,0.5,0.5,0.0132588926474533,0.999999999999878,1.01368408122436,0,0,1,0A,1A,0.999999999999878,0.0132588926474533,0.986914605197481,0.0130853948025187,1,0,-0.999999999999878,-0.973482214704974,0.5,0.940846488165358,0.840684081224361,8.91238306344597,2.24203705906687,0.5,4.06420103754405,0.999999999891799,0.5,0.973482214705093,0.814815284046022,8.87578798191634,2.65507062558161,0.5,-22.7033911387599
196,1,38,B,1,0,a,63,1,0.95,1B,0B,1,0,1,0,B10,0.777199947132128,3.27714473299218,0.0265177852949033,0.0132588926474533,0.5,0.5,0.0132588926474533,0.999981847360861,0.5,0.5,0.5,0.5,0.999999999999997,0.5,0.5,0.5,0.0132588926474533,0.999999999999878,0.958684081224361,1,1,0,1B,0B,0.999981847360861,0.0132588926474533,0.986914370767065,0.0130856292329348,1,1,1.81526391385134e-05,1.76712713513024e-05,0.5,0.940846488165358,0.840684081224361,8.91238306344597,2.24203705906687,0.5,9.46975085983259,0.999999999891894,0.5,0.973482214705093,0.814815284046022,8.87578798191634,2.65507062558161,0.5,-22.7033911387599
196,1,39,D,3,1,a,27,1,0.95,3D,1D,1,0,1,0,D31,2.49639181884935,3.29583686600433,0.0265177852949033,0.0132588926474533,0.5,0.5,0.0132588926474533,0.999999518632213,0.5,0.5,0.5,0.5,0.999999999999997,0.5,0.5,0.5,0.0132588926474533,0.999999999999878,1.14568408122436,1,1,0,3D,1D,0.999999999999878,0.5,0.666666666666639,0.33333333333336,1,1,1.2223555501123e-13,1.18994138808038e-13,0.5,0.940846488165358,0.840684081224361,8.91238306344597,2.24203705906687,0.5,2.31471991669713,0.99961104391156,0.5,0.973482214705093,0.814815284046022,8.87578798191634,2.65507062558161,0.5,-22.7033911387599
196,1,40,C,2,3,a,63,1,0.95,2C,3C,1,0,1,0,C23,1.9845146562,2.62103882411258,0.0265177852949033,0.0132588926474533,0.5,0.5,0.0132588926474533,0.999999518632213,0.5,0.5,0.5,0.5,0.999999999999997,0.5,0.5,0.5,0.0132588926474533,0.999999999999997,1.17268408122436,1,1,0,2C,3C,0.999999999999997,0.5,0.666666666666666,0.333333333333334,1,1,3.21964677141295e-15,3.13426886960319e-15,0.5,0.940846488165358,0.840684081224361,8.91238306344597,2.24203705906687,0.5,2.23663731216949,0.999612887036386,0.5,0.973482214705093,0.814815284046022,8.87578798191634,2.65507062558161,0.5,-22.7033911387599
196,1,41,A,2,0,l,27,1,0.95,2A,0A,0,1,0,1,A20,1.0238313266975,3.3322045101752,0.0265177852949033,0.0132588926474533,0.5,0.5,0.0132588926474533,0.999999518632213,0.5,0.5,0.5,0.5,1,0.5,0.5,0.5,0.0132588926474533,0.999999999999997,0.938684081224361,1,1,0,2A,0A,0.5,0.0265177852949033,0.949635537420544,0.0503644625794563,0,0,-0.5,-0.486741107352547,0.5,0.940846488165358,0.840684081224361,8.91238306344597,2.24203705906687,0.5,7.64796593235247,0.999999999377772,0.5,0.973482214705093,0.814815284046022,8.87578798191634,2.65507062558161,0.5,-22.7033911387599
196,1,42,D,3,2,a,63,1,0.95,3D,2D,1,0,1,0,D32,2.6546257630563,2.94443897916644,0.0265177852949033,0.0132588926474533,0.0132588926474533,0.5,0.0132588926474533,0.999999518632213,0.5,0.5,0.5,0.5,1,0.5,0.5,0.5,0.0132588926474533,0.999999999999997,0.992684081224361,1,1,0,3D,2D,0.999999999999997,0.0132588926474533,0.986914605197483,0.0130853948025172,1,1,3.21964677141295e-15,3.13426886960319e-15,0.5,0.940846488165358,0.840684081224361,8.91238306344597,2.24203705906687,0.5,6.23766102134201,0.999999999892058,0.5,0.973482214705093,0.814815284046022,8.87578798191634,2.65507062558161,0.5,-22.7033911387599
196,1,43,B,3,1,l,27,1,0.95,3B,1B,0,1,0,1,B31,1.48032246735146,3.36729582998647,0.0265177852949033,0.0132588926474533,0.0132588926474533,0.5,0.0132588926474533,0.999999518632213,0.5,0.5,0.5,0.5,1,0.5,0.5,0.5,0.0132588926474533,1,1.31468408122436,0,0,1,1B,3B,0.999999518632213,0.5,0.666666559696013,0.333333440303987,1,1,4.81367787186215e-07,4.68602979557727e-07,0.5,0.940846488165358,0.840684081224361,8.91238306344597,2.24203705906687,0.5,1.46462681285901,0.99961229484128,0.5,0.973482214705093,0.814815284046022,8.87578798191634,2.65507062558161,0.5,-22.7033911387599
196,1,44,C,2,3,a,63,1,0.95,2C,3C,1,0,1,0,C23,1.61291824953281,2.46809953147162,0.0265177852949033,0.0132588926474533,0.0132588926474533,0.5,0.0132588926474533,0.999999987235192,0.5,0.5,0.5,0.5,1,0.5,0.5,0.5,0.0132588926474533,1,1.35368408122436,1,1,0,2C,3C,1,0.5,0.666666666666667,0.333333333333333,1,1,1.11022302462516e-16,1.08078236882868e-16,0.5,0.940846488165358,0.840684081224361,8.91238306344597,2.24203705906687,0.5,1.25383261482212,0.999610791515262,0.5,0.973482214705093,0.814815284046022,8.87578798191634,2.65507062558161,0.5,-22.7033911387599
