ID,filename,session,trial,visStimLeft,visStimRight,correctKey,leftCorrect,rightCorrect,secondStim,mod2Type,mod2Stim,frequency,rewardAccurate,stimPairLeft,stimPairRight,pCorrectLeft,pCorrectRight,key,reactionTime,choiceLeft,choiceRight,choiceAccurate,reward,chosenPair,otherPair,triplet,surprise,0A belief,1A belief,2A belief,3A belief,0B belief,1B belief,2B belief,3B belief,0C belief,1C belief,2C belief,3C belief,0D belief,1D belief,2D belief,3D belief,beliefPairNorm,beliefOtherPairNorm,beliefPair,beliefOtherPair,lik,corrLik,rewardPE,update2,fitCBCsimpleRW_CBCdriftDiffusionLR_startBelief,fitCBCsimpleRW_CBCdriftDiffusionLR_alpha1,fitCBCsimpleRW_CBCdriftDiffusionLR_nonDecisionTime,fitCBCsimpleRW_CBCdriftDiffusionLR_weight,fitCBCsimpleRW_CBCdriftDiffusionLR_startingBoundary,fitCBCsimpleRW_CBCdriftDiffusionLR_startingPoint,fit_CBCsimpleRW_CBCdriftDiffusionLR_NLL
CBC_1108,CBC_1108_MSI_TV_v3_Vset5_Tset3_2024-05-11_13h20.10.697.csv,1,1,0,1,b,1,0,2,tac,A,63,1,0A,1A,1,0,z,2.40014940000037,0,1,0,0,1A,0A,A01,2.77258872223978,0.5,0.5,0.5,0.5,0.5,0.5,0.5,0.5,0.5,0.5,0.5,0.5,0.5,0.5,0.5,0.5,0.5,0.5,0.5,0.5,0.176733164950921,0.500044586430886,-0.5,-0.0194961103885395,0.5,0.0389922207770791,1.099150253955,4.17638094747494,2.76839643285915,0.5,80.4565038048656
CBC_1108,CBC_1108_MSI_TV_v3_Vset5_Tset3_2024-05-11_13h20.10.697.csv,1,2,3,2,z,0,1,3,tac,C,63,1,3C,2C,0,1,z,2.82900449999943,0,1,1,1,2C,3C,C32,2.83321334405622,0.5,0.48050388961146,0.5,0.5,0.5,0.5,0.5,0.5,0.5,0.5,0.5,0.5,0.5,0.5,0.5,0.5,0.5,0.5,0.5,0.5,0.134627228408664,0.500402957365924,0.5,0.0194961103885395,0.5,0.0389922207770791,1.099150253955,4.17638094747494,2.76839643285915,0.5,80.4565038048656
CBC_1108,CBC_1108_MSI_TV_v3_Vset5_Tset3_2024-05-11_13h20.10.697.csv,1,3,0,2,b,1,0,2,tac,A,27,1,0A,2A,1,0,z,2.85024659999908,0,1,0,0,2A,0A,A02,2.89037175789616,0.5,0.48050388961146,0.5,0.5,0.5,0.5,0.5,0.5,0.5,0.5,0.51949611038854,0.5,0.5,0.5,0.5,0.5,0.5,0.5,0.5,0.5,0.132885722493937,0.500711018299417,-0.5,-0.0194961103885395,0.5,0.0389922207770791,1.099150253955,4.17638094747494,2.76839643285915,0.5,80.4565038048656
CBC_1108,CBC_1108_MSI_TV_v3_Vset5_Tset3_2024-05-11_13h20.10.697.csv,1,4,1,0,b,1,0,0,tac,B,63,1,1B,0B,1,0,b,2.38600299999962,1,0,1,1,1B,0B,B10,2.94443897916644,0.5,0.48050388961146,0.48050388961146,0.5,0.5,0.5,0.5,0.5,0.5,0.5,0.51949611038854,0.5,0.5,0.5,0.5,0.5,0.5,0.5,0.5,0.5,0.177877594363483,0.498858254276582,0.5,0.0194961103885395,0.5,0.0389922207770791,1.099150253955,4.17638094747494,2.76839643285915,0.5,80.4565038048656
CBC_1108,CBC_1108_MSI_TV_v3_Vset5_Tset3_2024-05-11_13h20.10.697.csv,1,5,0,1,z,0,1,0,tac,B,63,1,0B,1B,0,1,z,3.93029670000033,0,1,1,1,1B,0B,B01,2.99573227355399,0.5,0.48050388961146,0.48050388961146,0.5,0.5,0.51949611038854,0.5,0.5,0.5,0.5,0.51949611038854,0.5,0.5,0.5,0.5,0.5,0.509561640397583,0.490438359602417,0.51949611038854,0.5,0.0733697383580306,0.555639940416435,0.48050388961146,0.0187359137479753,0.5,0.0389922207770791,1.099150253955,4.17638094747494,2.76839643285915,0.5,80.4565038048656
CBC_1108,CBC_1108_MSI_TV_v3_Vset5_Tset3_2024-05-11_13h20.10.697.csv,1,6,3,2,z,0,1,3,tac,C,63,1,3C,2C,0,1,b,2.19211160000123,1,0,0,0,3C,2C,C32,2.35137525716348,0.5,0.48050388961146,0.48050388961146,0.5,0.5,0.538232024136515,0.5,0.5,0.5,0.5,0.51949611038854,0.5,0.5,0.5,0.5,0.5,0.490438359602417,0.509561640397583,0.5,0.51949611038854,0.179375162888272,0.445944078239903,-0.5,-0.0194961103885395,0.5,0.0389922207770791,1.099150253955,4.17638094747494,2.76839643285915,0.5,80.4565038048656
CBC_1108,CBC_1108_MSI_TV_v3_Vset5_Tset3_2024-05-11_13h20.10.697.csv,1,7,3,1,b,1,0,1,tac,D,27,1,3D,1D,1,0,b,4.67104699999982,1,0,1,1,3D,1D,D31,3.09104245335832,0.5,0.48050388961146,0.48050388961146,0.5,0.5,0.538232024136515,0.5,0.5,0.5,0.5,0.51949611038854,0.48050388961146,0.5,0.5,0.5,0.5,0.5,0.5,0.5,0.5,0.0411587780119654,0.500703503006439,0.5,0.0194961103885395,0.5,0.0389922207770791,1.099150253955,4.17638094747494,2.76839643285915,0.5,80.4565038048656
CBC_1108,CBC_1108_MSI_TV_v3_Vset5_Tset3_2024-05-11_13h20.10.697.csv,1,8,1,2,z,0,1,3,tac,C,9,1,1C,2C,0,1,z,2.3981332000003,0,1,1,1,2C,1C,C12,3.13549421592915,0.5,0.48050388961146,0.48050388961146,0.5,0.5,0.538232024136515,0.5,0.5,0.5,0.5,0.51949611038854,0.48050388961146,0.5,0.5,0.5,0.51949611038854,0.509561640397583,0.490438359602417,0.51949611038854,0.5,0.196978629340158,0.555519088929886,0.48050388961146,0.0187359137479753,0.5,0.0389922207770791,1.099150253955,4.17638094747494,2.76839643285915,0.5,80.4565038048656
CBC_1108,CBC_1108_MSI_TV_v3_Vset5_Tset3_2024-05-11_13h20.10.697.csv,1,9,3,1,z,0,1,0,tac,B,27,1,3B,1B,0,1,b,3.3246610999995,1,0,0,0,3B,1B,B31,3.17805383034795,0.5,0.48050388961146,0.48050388961146,0.5,0.5,0.538232024136515,0.5,0.5,0.5,0.5,0.538232024136515,0.48050388961146,0.5,0.5,0.5,0.51949611038854,0.481587919054841,0.518412080945159,0.5,0.538232024136515,0.0772132354114105,0.396230149612313,-0.5,-0.0194961103885395,0.5,0.0389922207770791,1.099150253955,4.17638094747494,2.76839643285915,0.5,80.4565038048656
CBC_1108,CBC_1108_MSI_TV_v3_Vset5_Tset3_2024-05-11_13h20.10.697.csv,1,10,3,2,b,1,0,1,tac,D,63,1,3D,2D,1,0,b,2.76096709999911,1,0,1,1,3D,2D,D32,3.2188758248682,0.5,0.48050388961146,0.48050388961146,0.5,0.5,0.538232024136515,0.5,0.48050388961146,0.5,0.5,0.538232024136515,0.48050388961146,0.5,0.5,0.5,0.51949611038854,0.509561640397583,0.490438359602417,0.51949611038854,0.5,0.156187722258996,0.555305434389955,0.48050388961146,0.0187359137479753,0.5,0.0389922207770791,1.099150253955,4.17638094747494,2.76839643285915,0.5,80.4565038048656
CBC_1108,CBC_1108_MSI_TV_v3_Vset5_Tset3_2024-05-11_13h20.10.697.csv,1,11,1,0,b,1,0,0,tac,B,63,1,1B,0B,1,0,z,2.39872549999927,0,1,0,0,0B,1B,B10,2.56494935746154,0.5,0.48050388961146,0.48050388961146,0.5,0.5,0.538232024136515,0.5,0.48050388961146,0.5,0.5,0.538232024136515,0.48050388961146,0.5,0.5,0.5,0.538232024136515,0.481587919054841,0.518412080945159,0.5,0.538232024136515,0.140801432548735,0.395205301142609,-0.5,-0.0194961103885395,0.5,0.0389922207770791,1.099150253955,4.17638094747494,2.76839643285915,0.5,80.4565038048656
CBC_1108,CBC_1108_MSI_TV_v3_Vset5_Tset3_2024-05-11_13h20.10.697.csv,1,12,0,2,z,0,1,3,tac,C,27,1,0C,2C,0,1,b,3.50285860000076,1,0,0,0,0C,2C,C02,3.29583686600433,0.5,0.48050388961146,0.48050388961146,0.5,0.48050388961146,0.538232024136515,0.5,0.48050388961146,0.5,0.5,0.538232024136515,0.48050388961146,0.5,0.5,0.5,0.538232024136515,0.481587919054841,0.518412080945159,0.5,0.538232024136515,0.0685708146797044,0.39550412991921,-0.5,-0.0194961103885395,0.5,0.0389922207770791,1.099150253955,4.17638094747494,2.76839643285915,0.5,80.4565038048656
CBC_1108,CBC_1108_MSI_TV_v3_Vset5_Tset3_2024-05-11_13h20.10.697.csv,1,13,3,2,b,1,0,1,tac,D,63,0,3D,2D,0,1,b,2.65708040000027,1,0,1,0,3D,2D,D32,2.63905732961526,0.5,0.48050388961146,0.48050388961146,0.5,0.48050388961146,0.538232024136515,0.5,0.48050388961146,0.48050388961146,0.5,0.538232024136515,0.48050388961146,0.5,0.5,0.5,0.538232024136515,0.518412080945159,0.481587919054841,0.538232024136515,0.5,0.182578500814433,0.605379367599487,-0.538232024136515,-0.0209868619144252,0.5,0.0389922207770791,1.099150253955,4.17638094747494,2.76839643285915,0.5,80.4565038048656
CBC_1108,CBC_1108_MSI_TV_v3_Vset5_Tset3_2024-05-11_13h20.10.697.csv,1,14,1,0,z,0,1,2,tac,A,63,1,1A,0A,0,1,b,2.59517359999882,1,0,0,0,1A,0A,A10,3.36729582998647,0.5,0.48050388961146,0.48050388961146,0.5,0.48050388961146,0.538232024136515,0.5,0.48050388961146,0.48050388961146,0.5,0.538232024136515,0.48050388961146,0.5,0.5,0.5,0.51724516222209,0.490058116752466,0.509941883247534,0.48050388961146,0.5,0.138370877809061,0.44220038715824,-0.48050388961146,-0.0187359137479753,0.5,0.0389922207770791,1.099150253955,4.17638094747494,2.76839643285915,0.5,80.4565038048656
CBC_1108,CBC_1108_MSI_TV_v3_Vset5_Tset3_2024-05-11_13h20.10.697.csv,1,15,2,3,b,1,0,3,tac,C,63,1,2C,3C,1,0,z,2.36852129999897,0,1,0,0,3C,2C,C23,3.40119738166216,0.5,0.461767975863485,0.48050388961146,0.5,0.48050388961146,0.538232024136515,0.5,0.48050388961146,0.48050388961146,0.5,0.538232024136515,0.48050388961146,0.5,0.5,0.5,0.51724516222209,0.471666781475942,0.528333218524058,0.48050388961146,0.538232024136515,0.125234301072936,0.341476936389782,-0.48050388961146,-0.0187359137479753,0.5,0.0389922207770791,1.099150253955,4.17638094747494,2.76839643285915,0.5,80.4565038048656
CBC_1108,CBC_1108_MSI_TV_v3_Vset5_Tset3_2024-05-11_13h20.10.697.csv,1,16,0,2,b,1,0,2,tac,A,27,1,0A,2A,1,0,z,3.39049950000117,0,1,0,0,2A,0A,A02,2.7408400239252,0.5,0.461767975863485,0.48050388961146,0.5,0.48050388961146,0.538232024136515,0.5,0.48050388961146,0.48050388961146,0.5,0.538232024136515,0.461767975863485,0.5,0.5,0.5,0.51724516222209,0.490058116752466,0.509941883247534,0.48050388961146,0.5,0.0830638229883722,0.443608920902701,-0.48050388961146,-0.0187359137479753,0.5,0.0389922207770791,1.099150253955,4.17638094747494,2.76839643285915,0.5,80.4565038048656
CBC_1108,CBC_1108_MSI_TV_v3_Vset5_Tset3_2024-05-11_13h20.10.697.csv,1,17,2,3,z,0,1,1,tac,D,63,1,2D,3D,0,1,z,2.63828650000141,0,1,1,1,3D,2D,D23,3.46573590279973,0.5,0.461767975863485,0.461767975863485,0.5,0.48050388961146,0.538232024136515,0.5,0.48050388961146,0.48050388961146,0.5,0.538232024136515,0.461767975863485,0.5,0.5,0.5,0.51724516222209,0.508476404146479,0.491523595853521,0.51724516222209,0.5,0.167184811573053,0.54945050626804,0.48275483777791,0.0188236832158393,0.5,0.0389922207770791,1.099150253955,4.17638094747494,2.76839643285915,0.5,80.4565038048656
CBC_1108,CBC_1108_MSI_TV_v3_Vset5_Tset3_2024-05-11_13h20.10.697.csv,1,18,3,2,b,1,0,1,tac,D,63,1,3D,2D,1,0,z,2.71328549999816,0,1,0,0,2D,3D,D32,2.39789527279837,0.5,0.461767975863485,0.461767975863485,0.5,0.48050388961146,0.538232024136515,0.5,0.48050388961146,0.48050388961146,0.5,0.538232024136515,0.461767975863485,0.5,0.5,0.5,0.536068845437929,0.482593412784899,0.517406587215101,0.5,0.536068845437929,0.116259776042746,0.399994950467157,-0.5,-0.0194961103885395,0.5,0.0389922207770791,1.099150253955,4.17638094747494,2.76839643285915,0.5,80.4565038048656
CBC_1108,CBC_1108_MSI_TV_v3_Vset5_Tset3_2024-05-11_13h20.10.697.csv,1,19,3,1,z,0,1,0,tac,B,27,1,3B,1B,0,1,z,2.74143259999983,0,1,1,1,1B,3B,B31,2.83321334405622,0.5,0.461767975863485,0.461767975863485,0.5,0.48050388961146,0.538232024136515,0.5,0.48050388961146,0.48050388961146,0.5,0.538232024136515,0.461767975863485,0.5,0.5,0.48050388961146,0.536068845437929,0.528333218524058,0.471666781475942,0.538232024136515,0.48050388961146,0.188519061760597,0.658014845685537,0.461767975863485,0.0180053588626539,0.5,0.0389922207770791,1.099150253955,4.17638094747494,2.76839643285915,0.5,80.4565038048656
CBC_1108,CBC_1108_MSI_TV_v3_Vset5_Tset3_2024-05-11_13h20.10.697.csv,1,20,0,3,z,0,1,1,tac,D,9,1,0D,3D,0,1,z,2.5416484999987,0,1,1,1,3D,0D,D03,3.55534806148941,0.5,0.461767975863485,0.461767975863485,0.5,0.48050388961146,0.556237382999169,0.5,0.48050388961146,0.48050388961146,0.5,0.538232024136515,0.461767975863485,0.5,0.5,0.48050388961146,0.536068845437929,0.517406587215101,0.482593412784899,0.536068845437929,0.5,0.194664078139807,0.599240928079206,0.463931154562071,0.0180897060040495,0.5,0.0389922207770791,1.099150253955,4.17638094747494,2.76839643285915,0.5,80.4565038048656
CBC_1108,CBC_1108_MSI_TV_v3_Vset5_Tset3_2024-05-11_13h20.10.697.csv,1,21,1,0,b,1,0,0,tac,B,63,1,1B,0B,1,0,z,3.83956669999679,0,1,0,0,0B,1B,B10,2.484906649788,0.5,0.461767975863485,0.461767975863485,0.5,0.48050388961146,0.556237382999169,0.5,0.48050388961146,0.48050388961146,0.5,0.538232024136515,0.461767975863485,0.5,0.5,0.48050388961146,0.554158551441979,0.463475220197898,0.536524779802102,0.48050388961146,0.556237382999169,0.0404945433828234,0.30045926854865,-0.48050388961146,-0.0187359137479753,0.5,0.0389922207770791,1.099150253955,4.17638094747494,2.76839643285915,0.5,80.4565038048656
CBC_1108,CBC_1108_MSI_TV_v3_Vset5_Tset3_2024-05-11_13h20.10.697.csv,1,22,1,0,z,0,1,2,tac,A,63,1,1A,0A,0,1,z,3.59445899999992,0,1,1,1,0A,1A,A10,2.91777073208428,0.5,0.461767975863485,0.461767975863485,0.5,0.461767975863485,0.556237382999169,0.5,0.48050388961146,0.48050388961146,0.5,0.538232024136515,0.461767975863485,0.5,0.5,0.48050388961146,0.554158551441979,0.519875908273089,0.480124091726911,0.5,0.461767975863485,0.0998025454806909,0.611938872996853,0.5,0.0194961103885395,0.5,0.0389922207770791,1.099150253955,4.17638094747494,2.76839643285915,0.5,80.4565038048656
CBC_1108,CBC_1108_MSI_TV_v3_Vset5_Tset3_2024-05-11_13h20.10.697.csv,1,23,2,3,b,1,0,3,tac,C,63,1,2C,3C,1,0,z,2.7963213999974,0,1,0,0,3C,2C,C23,2.94443897916644,0.51949611038854,0.461767975863485,0.461767975863485,0.5,0.461767975863485,0.556237382999169,0.5,0.48050388961146,0.48050388961146,0.5,0.538232024136515,0.461767975863485,0.5,0.5,0.48050388961146,0.554158551441979,0.461767975863485,0.538232024136515,0.461767975863485,0.538232024136515,0.0806681263095836,0.291220350445765,-0.461767975863485,-0.0180053588626539,0.5,0.0389922207770791,1.099150253955,4.17638094747494,2.76839643285915,0.5,80.4565038048656
CBC_1108,CBC_1108_MSI_TV_v3_Vset5_Tset3_2024-05-11_13h20.10.697.csv,1,24,0,2,b,1,0,2,tac,A,27,1,0A,2A,NaN,NaN,None,NaN,NaN,NaN,NaN,NaN,,,A02,2.56494935746154,0.51949611038854,0.461767975863485,0.461767975863485,0.5,0.461767975863485,0.556237382999169,0.5,0.48050388961146,0.48050388961146,0.5,0.538232024136515,0.443762617000831,0.5,0.5,0.48050388961146,0.554158551441979,0,0,0,0,NaN,0,0,0,0.5,0.0389922207770791,1.099150253955,4.17638094747494,2.76839643285915,0.5,80.4565038048656
CBC_1108,CBC_1108_MSI_TV_v3_Vset5_Tset3_2024-05-11_13h20.10.697.csv,1,25,1,0,b,1,0,0,tac,B,63,1,1B,0B,1,0,b,1.64885910000157,1,0,1,1,1B,0B,B10,2.30258509299405,0.51949611038854,0.461767975863485,0.461767975863485,0.5,0.461767975863485,0.556237382999169,0.5,0.48050388961146,0.48050388961146,0.5,0.538232024136515,0.443762617000831,0.5,0.5,0.48050388961146,0.554158551441979,0.54639926809483,0.45360073190517,0.556237382999169,0.461767975863485,0.38872959705065,0.744688372074635,0.443762617000831,0.0173032899347108,0.5,0.0389922207770791,1.099150253955,4.17638094747494,2.76839643285915,0.5,80.4565038048656
CBC_1108,CBC_1108_MSI_TV_v3_Vset5_Tset3_2024-05-11_13h20.10.697.csv,1,26,2,3,z,0,1,1,tac,D,63,1,2D,3D,0,1,z,1.63606199999776,0,1,1,1,3D,2D,D23,3.02042488614436,0.51949611038854,0.461767975863485,0.461767975863485,0.5,0.461767975863485,0.57354067293388,0.5,0.48050388961146,0.48050388961146,0.5,0.538232024136515,0.443762617000831,0.5,0.5,0.48050388961146,0.554158551441979,0.535593570863327,0.464406429136672,0.554158551441979,0.48050388961146,0.347075591472369,0.69450489168932,0.445841448558021,0.0173843481937471,0.5,0.0389922207770791,1.099150253955,4.17638094747494,2.76839643285915,0.5,80.4565038048656
CBC_1108,CBC_1108_MSI_TV_v3_Vset5_Tset3_2024-05-11_13h20.10.697.csv,1,27,1,2,b,1,0,0,tac,B,9,1,1B,2B,1,0,b,2.32068110000182,1,0,1,1,1B,2B,B12,3.73766961828337,0.51949611038854,0.461767975863485,0.461767975863485,0.5,0.461767975863485,0.57354067293388,0.5,0.48050388961146,0.48050388961146,0.5,0.538232024136515,0.443762617000831,0.5,0.5,0.48050388961146,0.571542899635726,0.534251460977673,0.465748539022327,0.57354067293388,0.5,0.262171627545453,0.687767119012355,0.42645932706612,0.0166285962334067,0.5,0.0389922207770791,1.099150253955,4.17638094747494,2.76839643285915,0.5,80.4565038048656
CBC_1108,CBC_1108_MSI_TV_v3_Vset5_Tset3_2024-05-11_13h20.10.697.csv,1,28,1,3,z,0,1,1,tac,D,27,1,1D,3D,0,1,z,2.72731520000161,0,1,1,1,3D,1D,D13,3.76120011569356,0.51949611038854,0.461767975863485,0.461767975863485,0.5,0.461767975863485,0.590169269167286,0.5,0.48050388961146,0.48050388961146,0.5,0.538232024136515,0.443762617000831,0.5,0.5,0.48050388961146,0.571542899635726,0.533383124306104,0.466616875693896,0.571542899635726,0.5,0.198097563159472,0.683415524755009,0.428457100364274,0.0167064938509109,0.5,0.0389922207770791,1.099150253955,4.17638094747494,2.76839643285915,0.5,80.4565038048656
CBC_1108,CBC_1108_MSI_TV_v3_Vset5_Tset3_2024-05-11_13h20.10.697.csv,1,29,1,0,z,0,1,2,tac,A,63,1,1A,0A,0,1,z,2.61120890000166,0,1,1,1,0A,1A,A10,2.68557734525015,0.51949611038854,0.461767975863485,0.461767975863485,0.5,0.461767975863485,0.590169269167286,0.5,0.48050388961146,0.48050388961146,0.5,0.538232024136515,0.443762617000831,0.5,0.5,0.48050388961146,0.588249393486637,0.529415187681814,0.470584812318186,0.51949611038854,0.461767975863485,0.207854288754411,0.66456226918139,0.48050388961146,0.0187359137479753,0.5,0.0389922207770791,1.099150253955,4.17638094747494,2.76839643285915,0.5,80.4565038048656
CBC_1108,CBC_1108_MSI_TV_v3_Vset5_Tset3_2024-05-11_13h20.10.697.csv,1,30,0,1,b,1,0,2,tac,A,63,1,0A,1A,1,0,z,3.27963830000226,0,1,0,0,1A,0A,A01,3.11351530921037,0.538232024136515,0.461767975863485,0.461767975863485,0.5,0.461767975863485,0.590169269167286,0.5,0.48050388961146,0.48050388961146,0.5,0.538232024136515,0.443762617000831,0.5,0.5,0.48050388961146,0.588249393486637,0.461767975863485,0.538232024136515,0.461767975863485,0.538232024136515,0.0579332520935317,0.292500421737919,-0.461767975863485,-0.0180053588626539,0.5,0.0389922207770791,1.099150253955,4.17638094747494,2.76839643285915,0.5,80.4565038048656
CBC_1108,CBC_1108_MSI_TV_v3_Vset5_Tset3_2024-05-11_13h20.10.697.csv,1,31,0,2,z,0,1,3,tac,C,27,1,0C,2C,0,1,z,2.50479859999905,0,1,1,1,2C,0C,C02,3.13549421592915,0.538232024136515,0.443762617000831,0.461767975863485,0.5,0.461767975863485,0.590169269167286,0.5,0.48050388961146,0.48050388961146,0.5,0.538232024136515,0.443762617000831,0.5,0.5,0.48050388961146,0.588249393486637,0.528333218524058,0.471666781475942,0.538232024136515,0.48050388961146,0.220459090212883,0.657452848265599,0.461767975863485,0.0180053588626539,0.5,0.0389922207770791,1.099150253955,4.17638094747494,2.76839643285915,0.5,80.4565038048656
CBC_1108,CBC_1108_MSI_TV_v3_Vset5_Tset3_2024-05-11_13h20.10.697.csv,1,32,1,0,z,0,1,2,tac,A,63,1,1A,0A,0,1,b,3.86954339999647,1,0,0,0,1A,0A,A10,2.46385324059017,0.538232024136515,0.443762617000831,0.461767975863485,0.5,0.461767975863485,0.590169269167286,0.5,0.48050388961146,0.48050388961146,0.5,0.556237382999169,0.443762617000831,0.5,0.5,0.48050388961146,0.588249393486637,0.451899224711517,0.548100775288483,0.443762617000831,0.538232024136515,0.0315520721725576,0.247296038857298,-0.443762617000831,-0.0173032899347108,0.5,0.0389922207770791,1.099150253955,4.17638094747494,2.76839643285915,0.5,80.4565038048656
CBC_1108,CBC_1108_MSI_TV_v3_Vset5_Tset3_2024-05-11_13h20.10.697.csv,1,33,1,0,b,1,0,0,tac,B,63,1,1B,0B,1,0,b,3.1176736999987,1,0,1,1,1B,0B,B10,2.26176309847379,0.538232024136515,0.42645932706612,0.461767975863485,0.5,0.461767975863485,0.590169269167286,0.5,0.48050388961146,0.48050388961146,0.5,0.556237382999169,0.443762617000831,0.5,0.5,0.48050388961146,0.588249393486637,0.561030871333035,0.438969128666965,0.590169269167286,0.461767975863485,0.173996897776387,0.803400464903117,0.409830730832714,0.0159802103378608,0.5,0.0389922207770791,1.099150253955,4.17638094747494,2.76839643285915,0.5,80.4565038048656
CBC_1108,CBC_1108_MSI_TV_v3_Vset5_Tset3_2024-05-11_13h20.10.697.csv,1,34,3,2,b,1,0,1,tac,D,63,1,3D,2D,1,0,b,1.70956830000068,1,0,1,1,3D,2D,D32,2.50552593699074,0.538232024136515,0.42645932706612,0.461767975863485,0.5,0.461767975863485,0.606149479505147,0.5,0.48050388961146,0.48050388961146,0.5,0.556237382999169,0.443762617000831,0.5,0.5,0.48050388961146,0.588249393486637,0.550407098429136,0.449592901570864,0.588249393486637,0.48050388961146,0.408918015126051,0.762302498955972,0.411750606513363,0.0160550705542653,0.5,0.0389922207770791,1.099150253955,4.17638094747494,2.76839643285915,0.5,80.4565038048656
CBC_1108,CBC_1108_MSI_TV_v3_Vset5_Tset3_2024-05-11_13h20.10.697.csv,1,35,3,1,z,0,1,0,tac,B,27,1,3B,1B,0,1,z,2.79611339999974,0,1,1,1,1B,3B,B31,2.81341071676004,0.538232024136515,0.42645932706612,0.461767975863485,0.5,0.461767975863485,0.606149479505147,0.5,0.48050388961146,0.48050388961146,0.5,0.556237382999169,0.443762617000831,0.5,0.5,0.48050388961146,0.604304464040902,0.557813095447277,0.442186904552723,0.606149479505147,0.48050388961146,0.219970127863102,0.792065179237142,0.393850520494853,0.0153571064483028,0.5,0.0389922207770791,1.099150253955,4.17638094747494,2.76839643285915,0.5,80.4565038048656
CBC_1108,CBC_1108_MSI_TV_v3_Vset5_Tset3_2024-05-11_13h20.10.697.csv,1,36,3,2,z,0,1,3,tac,C,63,1,3C,2C,0,1,b,1.4362641000007,1,0,0,0,3C,2C,C32,2.83321334405622,0.538232024136515,0.42645932706612,0.461767975863485,0.5,0.461767975863485,0.62150658595345,0.5,0.48050388961146,0.48050388961146,0.5,0.556237382999169,0.443762617000831,0.5,0.5,0.48050388961146,0.604304464040902,0.443762617000831,0.556237382999169,0.443762617000831,0.556237382999169,0.0829315283945454,0.214776245562355,-0.443762617000831,-0.0173032899347108,0.5,0.0389922207770791,1.099150253955,4.17638094747494,2.76839643285915,0.5,80.4565038048656
CBC_1108,CBC_1108_MSI_TV_v3_Vset5_Tset3_2024-05-11_13h20.10.697.csv,1,37,2,0,b,1,0,3,tac,C,27,1,2C,0C,1,0,b,3.62792619999891,1,0,1,1,2C,0C,C20,3.95124371858143,0.538232024136515,0.42645932706612,0.461767975863485,0.5,0.461767975863485,0.62150658595345,0.5,0.48050388961146,0.48050388961146,0.5,0.556237382999169,0.42645932706612,0.5,0.5,0.48050388961146,0.604304464040902,0.536524779802102,0.463475220197898,0.556237382999169,0.48050388961146,0.109111145682686,0.699500112838041,0.443762617000831,0.0173032899347108,0.5,0.0389922207770791,1.099150253955,4.17638094747494,2.76839643285915,0.5,80.4565038048656
CBC_1108,CBC_1108_MSI_TV_v3_Vset5_Tset3_2024-05-11_13h20.10.697.csv,1,38,1,0,b,1,0,0,tac,B,63,1,1B,0B,1,0,b,3.80772390000129,1,0,1,1,1B,0B,B10,2.17853244432407,0.538232024136515,0.42645932706612,0.461767975863485,0.5,0.461767975863485,0.62150658595345,0.5,0.48050388961146,0.48050388961146,0.5,0.57354067293388,0.42645932706612,0.5,0.5,0.48050388961146,0.604304464040902,0.573729512221741,0.426270487778259,0.62150658595345,0.461767975863485,0.100515077899769,0.846711017117783,0.37849341404655,0.0147582987631735,0.5,0.0389922207770791,1.099150253955,4.17638094747494,2.76839643285915,0.5,80.4565038048656
CBC_1108,CBC_1108_MSI_TV_v3_Vset5_Tset3_2024-05-11_13h20.10.697.csv,1,39,3,0,z,0,1,2,tac,A,9,1,3A,0A,0,1,b,1.80147760000182,1,0,0,0,3A,0A,A30,3.98898404656427,0.538232024136515,0.42645932706612,0.461767975863485,0.5,0.461767975863485,0.636264884716623,0.5,0.48050388961146,0.48050388961146,0.5,0.57354067293388,0.42645932706612,0.5,0.5,0.48050388961146,0.604304464040902,0.481587919054841,0.518412080945159,0.5,0.538232024136515,0.191906393537161,0.394393252730935,-0.5,-0.0194961103885395,0.5,0.0389922207770791,1.099150253955,4.17638094747494,2.76839643285915,0.5,80.4565038048656
CBC_1108,CBC_1108_MSI_TV_v3_Vset5_Tset3_2024-05-11_13h20.10.697.csv,1,40,3,2,z,0,1,3,tac,C,63,0,3C,2C,1,0,z,2.48182290000113,0,1,1,0,2C,3C,C32,2.62103882411258,0.538232024136515,0.42645932706612,0.461767975863485,0.48050388961146,0.461767975863485,0.636264884716623,0.5,0.48050388961146,0.48050388961146,0.5,0.57354067293388,0.42645932706612,0.5,0.5,0.48050388961146,0.604304464040902,0.57354067293388,0.42645932706612,0.57354067293388,0.42645932706612,0.302707472778194,0.845688640030542,-0.57354067293388,-0.0223636245436723,0.5,0.0389922207770791,1.099150253955,4.17638094747494,2.76839643285915,0.5,80.4565038048656
CBC_1108,CBC_1108_MSI_TV_v3_Vset5_Tset3_2024-05-11_13h20.10.697.csv,1,41,1,0,z,0,1,2,tac,A,63,1,1A,0A,NaN,NaN,None,NaN,NaN,NaN,NaN,NaN,,,A10,2.41591377830105,0.538232024136515,0.42645932706612,0.461767975863485,0.48050388961146,0.461767975863485,0.636264884716623,0.5,0.48050388961146,0.48050388961146,0.5,0.551177048390207,0.42645932706612,0.5,0.5,0.48050388961146,0.604304464040902,0,0,0,0,NaN,0,0,0,0.5,0.0389922207770791,1.099150253955,4.17638094747494,2.76839643285915,0.5,80.4565038048656
CBC_1108,CBC_1108_MSI_TV_v3_Vset5_Tset3_2024-05-11_13h20.10.697.csv,1,42,3,2,b,1,0,1,tac,D,63,1,3D,2D,1,0,b,1.93873879999956,1,0,1,1,3D,2D,D32,2.43361335540045,0.538232024136515,0.42645932706612,0.461767975863485,0.48050388961146,0.461767975863485,0.636264884716623,0.5,0.48050388961146,0.48050388961146,0.5,0.551177048390207,0.42645932706612,0.5,0.5,0.48050388961146,0.604304464040902,0.557061034795974,0.442938965204026,0.604304464040902,0.48050388961146,0.403391432678123,0.789419287946835,0.395695535959098,0.0154290476986218,0.5,0.0389922207770791,1.099150253955,4.17638094747494,2.76839643285915,0.5,80.4565038048656
CBC_1108,CBC_1108_MSI_TV_v3_Vset5_Tset3_2024-05-11_13h20.10.697.csv,1,43,2,3,b,1,0,3,tac,C,63,1,2C,3C,1,0,b,1.72726820000025,1,0,1,1,2C,3C,C23,2.96183072187831,0.538232024136515,0.42645932706612,0.461767975863485,0.48050388961146,0.461767975863485,0.636264884716623,0.5,0.48050388961146,0.48050388961146,0.5,0.551177048390207,0.42645932706612,0.5,0.5,0.48050388961146,0.619733511739524,0.563785331875501,0.436214668124499,0.551177048390207,0.42645932706612,0.462228808896214,0.814393183993677,0.448822951609793,0.0175006036189893,0.5,0.0389922207770791,1.099150253955,4.17638094747494,2.76839643285915,0.5,80.4565038048656
CBC_1108,CBC_1108_MSI_TV_v3_Vset5_Tset3_2024-05-11_13h20.10.697.csv,1,44,1,3,z,0,1,1,tac,D,27,1,1D,3D,0,1,z,2.39298309999867,0,1,1,1,3D,1D,D13,3.38439026334577,0.538232024136515,0.42645932706612,0.461767975863485,0.48050388961146,0.461767975863485,0.636264884716623,0.5,0.48050388961146,0.48050388961146,0.5,0.568677652009197,0.42645932706612,0.5,0.5,0.48050388961146,0.619733511739524,0.553465181886677,0.446534818113322,0.619733511739524,0.5,0.289018791807985,0.773919079296803,0.380266488260476,0.014827434864377,0.5,0.0389922207770791,1.099150253955,4.17638094747494,2.76839643285915,0.5,80.4565038048656
CBC_1108,CBC_1108_MSI_AV_v3_Vset6_Aset1_2024-05-11_15h05.16.460.csv,2,1,1,0,b,1,0,0,aud,B,63,1,1B,0B,1,0,b,1.59779269999854,1,0,1,1,1B,0B,B10,2.77258872223978,0.5,0.5,0.5,0.5,0.5,0.5,0.5,0.5,0.5,0.5,0.5,0.5,0.5,0.5,0.5,0.5,0.5,0.5,0.5,0.5,0.18908794097421,0.499627351999502,0.5,0.168115992268145,0.5,0.33623198453629,0.440723329317092,0.243569887400047,2.85405458633605,0.5,138.547542842705
CBC_1108,CBC_1108_MSI_AV_v3_Vset6_Aset1_2024-05-11_15h05.16.460.csv,2,2,1,0,z,0,1,2,aud,A,63,1,1A,0A,0,1,z,1.79915669999536,0,1,1,1,0A,1A,A10,2.83321334405622,0.5,0.5,0.5,0.5,0.5,0.668115992268145,0.5,0.5,0.5,0.5,0.5,0.5,0.5,0.5,0.5,0.5,0.5,0.5,0.5,0.5,0.16873590472836,0.50022834071266,0.5,0.168115992268145,0.5,0.33623198453629,0.440723329317092,0.243569887400047,2.85405458633605,0.5,138.547542842705
CBC_1108,CBC_1108_MSI_AV_v3_Vset6_Aset1_2024-05-11_15h05.16.460.csv,2,3,3,2,b,1,0,1,aud,D,63,1,3D,2D,1,0,b,2.37215359999755,1,0,1,1,3D,2D,D32,2.89037175789616,0.668115992268145,0.5,0.5,0.5,0.5,0.668115992268145,0.5,0.5,0.5,0.5,0.5,0.5,0.5,0.5,0.5,0.5,0.5,0.5,0.5,0.5,0.119774425916219,0.500484128799988,0.5,0.168115992268145,0.5,0.33623198453629,0.440723329317092,0.243569887400047,2.85405458633605,0.5,138.547542842705
CBC_1108,CBC_1108_MSI_AV_v3_Vset6_Aset1_2024-05-11_15h05.16.460.csv,2,4,1,2,b,1,0,0,aud,B,9,1,1B,2B,1,0,z,1.91682199999923,0,1,0,0,2B,1B,B12,2.94443897916644,0.668115992268145,0.5,0.5,0.5,0.5,0.668115992268145,0.5,0.5,0.5,0.5,0.5,0.5,0.5,0.5,0.5,0.668115992268145,0.428039683823816,0.571960316176184,0.5,0.668115992268145,0.149848685907455,0.476046588063504,-0.5,-0.168115992268145,0.5,0.33623198453629,0.440723329317092,0.243569887400047,2.85405458633605,0.5,138.547542842705
CBC_1108,CBC_1108_MSI_AV_v3_Vset6_Aset1_2024-05-11_15h05.16.460.csv,2,5,2,0,z,0,1,2,aud,A,27,1,2A,0A,0,1,b,4.10026529999959,1,0,0,0,2A,0A,A20,2.99573227355399,0.668115992268145,0.5,0.5,0.5,0.5,0.668115992268145,0.331884007731855,0.5,0.5,0.5,0.5,0.5,0.5,0.5,0.5,0.668115992268145,0.428039683823816,0.571960316176184,0.5,0.668115992268145,0.0398863766015806,0.475162339695109,-0.5,-0.168115992268145,0.5,0.33623198453629,0.440723329317092,0.243569887400047,2.85405458633605,0.5,138.547542842705
CBC_1108,CBC_1108_MSI_AV_v3_Vset6_Aset1_2024-05-11_15h05.16.460.csv,2,6,3,2,z,0,1,3,aud,C,63,1,3C,2C,0,1,b,2.36704179999651,1,0,0,0,3C,2C,C32,3.04452243772342,0.668115992268145,0.5,0.331884007731855,0.5,0.5,0.668115992268145,0.331884007731855,0.5,0.5,0.5,0.5,0.5,0.5,0.5,0.5,0.668115992268145,0.5,0.5,0.5,0.5,0.120125114952541,0.500400692463887,-0.5,-0.168115992268145,0.5,0.33623198453629,0.440723329317092,0.243569887400047,2.85405458633605,0.5,138.547542842705
CBC_1108,CBC_1108_MSI_AV_v3_Vset6_Aset1_2024-05-11_15h05.16.460.csv,2,7,3,1,b,1,0,1,aud,D,27,1,3D,1D,1,0,b,2.8876317999966,1,0,1,1,3D,1D,D31,3.09104245335832,0.668115992268145,0.5,0.331884007731855,0.5,0.5,0.668115992268145,0.331884007731855,0.5,0.5,0.5,0.5,0.331884007731855,0.5,0.5,0.5,0.668115992268145,0.571960316176184,0.428039683823816,0.668115992268145,0.5,0.0920300235466078,0.525523815700738,0.331884007731855,0.111590018555539,0.5,0.33623198453629,0.440723329317092,0.243569887400047,2.85405458633605,0.5,138.547542842705
CBC_1108,CBC_1108_MSI_AV_v3_Vset6_Aset1_2024-05-11_15h05.16.460.csv,2,8,0,1,b,1,0,2,aud,A,63,0,0A,1A,0,1,b,3.30610989999695,1,0,1,0,0A,1A,A01,3.13549421592915,0.668115992268145,0.5,0.331884007731855,0.5,0.5,0.668115992268145,0.331884007731855,0.5,0.5,0.5,0.5,0.331884007731855,0.5,0.5,0.5,0.779706010823684,0.571960316176184,0.428039683823816,0.668115992268145,0.5,0.0714436710900729,0.525828920220736,-0.668115992268145,-0.224641965980751,0.5,0.33623198453629,0.440723329317092,0.243569887400047,2.85405458633605,0.5,138.547542842705
CBC_1108,CBC_1108_MSI_AV_v3_Vset6_Aset1_2024-05-11_15h05.16.460.csv,2,9,0,2,z,0,1,3,aud,C,27,1,0C,2C,0,1,b,2.36951020000197,1,0,0,0,0C,2C,C02,3.17805383034795,0.443474026287394,0.5,0.331884007731855,0.5,0.5,0.668115992268145,0.331884007731855,0.5,0.5,0.5,0.5,0.331884007731855,0.5,0.5,0.5,0.779706010823684,0.5,0.5,0.5,0.5,0.1201050082157,0.501064045908508,-0.5,-0.168115992268145,0.5,0.33623198453629,0.440723329317092,0.243569887400047,2.85405458633605,0.5,138.547542842705
CBC_1108,CBC_1108_MSI_AV_v3_Vset6_Aset1_2024-05-11_15h05.16.460.csv,2,10,3,2,b,1,0,1,aud,D,63,1,3D,2D,1,0,b,2.0974529999985,1,0,1,1,3D,2D,D32,2.52572864430826,0.443474026287394,0.5,0.331884007731855,0.5,0.5,0.668115992268145,0.331884007731855,0.5,0.331884007731855,0.5,0.5,0.331884007731855,0.5,0.5,0.5,0.779706010823684,0.609285261012274,0.390714738987726,0.779706010823684,0.5,0.15204845834007,0.538036297763503,0.220293989176316,0.0740698851621687,0.5,0.33623198453629,0.440723329317092,0.243569887400047,2.85405458633605,0.5,138.547542842705
CBC_1108,CBC_1108_MSI_AV_v3_Vset6_Aset1_2024-05-11_15h05.16.460.csv,2,11,0,1,z,0,1,0,aud,B,63,0,0B,1B,1,0,z,3.45098549999602,0,1,1,0,1B,0B,B01,3.25809653802148,0.443474026287394,0.5,0.331884007731855,0.5,0.5,0.668115992268145,0.331884007731855,0.5,0.331884007731855,0.5,0.5,0.331884007731855,0.5,0.5,0.5,0.853775895985853,0.571960316176184,0.428039683823816,0.668115992268145,0.5,0.0653268722802484,0.524942823754511,-0.668115992268145,-0.224641965980751,0.5,0.33623198453629,0.440723329317092,0.243569887400047,2.85405458633605,0.5,138.547542842705
CBC_1108,CBC_1108_MSI_AV_v3_Vset6_Aset1_2024-05-11_15h05.16.460.csv,2,12,1,0,z,0,1,2,aud,A,63,1,1A,0A,0,1,b,2.34035170000061,1,0,0,0,1A,0A,A10,2.60268968544438,0.443474026287394,0.5,0.331884007731855,0.5,0.5,0.443474026287394,0.331884007731855,0.5,0.331884007731855,0.5,0.5,0.331884007731855,0.5,0.5,0.5,0.853775895985853,0.529956295635948,0.470043704364052,0.5,0.443474026287394,0.124459295973535,0.510151292973367,-0.5,-0.168115992268145,0.5,0.33623198453629,0.440723329317092,0.243569887400047,2.85405458633605,0.5,138.547542842705
CBC_1108,CBC_1108_MSI_AV_v3_Vset6_Aset1_2024-05-11_15h05.16.460.csv,2,13,3,2,b,1,0,1,aud,D,63,1,3D,2D,1,0,z,2.09083879999889,0,1,0,0,2D,3D,D32,2.23359222150709,0.443474026287394,0.331884007731855,0.331884007731855,0.5,0.5,0.443474026287394,0.331884007731855,0.5,0.331884007731855,0.5,0.5,0.331884007731855,0.5,0.5,0.5,0.853775895985853,0.369337348583746,0.630662651416254,0.5,0.853775895985853,0.129108044072306,0.454942520260533,-0.5,-0.168115992268145,0.5,0.33623198453629,0.440723329317092,0.243569887400047,2.85405458633605,0.5,138.547542842705
CBC_1108,CBC_1108_MSI_AV_v3_Vset6_Aset1_2024-05-11_15h05.16.460.csv,2,14,0,2,z,0,1,3,aud,C,27,0,0C,2C,1,0,z,3.58201889999691,0,1,1,0,2C,0C,C02,2.67414864942653,0.443474026287394,0.331884007731855,0.331884007731855,0.5,0.5,0.443474026287394,0.331884007731855,0.5,0.331884007731855,0.5,0.5,0.331884007731855,0.5,0.5,0.331884007731855,0.853775895985853,0.60104533246559,0.39895466753441,0.5,0.331884007731855,0.0613503877816467,0.534076396881127,-0.5,-0.168115992268145,0.5,0.33623198453629,0.440723329317092,0.243569887400047,2.85405458633605,0.5,138.547542842705
CBC_1108,CBC_1108_MSI_AV_v3_Vset6_Aset1_2024-05-11_15h05.16.460.csv,2,15,1,0,z,0,1,2,aud,A,63,1,1A,0A,0,1,b,2.75063510000109,1,0,0,0,1A,0A,A10,2.30258509299405,0.443474026287394,0.331884007731855,0.331884007731855,0.5,0.5,0.443474026287394,0.331884007731855,0.5,0.331884007731855,0.5,0.331884007731855,0.331884007731855,0.5,0.5,0.331884007731855,0.853775895985853,0.428039683823816,0.571960316176184,0.331884007731855,0.443474026287394,0.090435475001516,0.475251073633123,-0.331884007731855,-0.111590018555539,0.5,0.33623198453629,0.440723329317092,0.243569887400047,2.85405458633605,0.5,138.547542842705
CBC_1108,CBC_1108_MSI_AV_v3_Vset6_Aset1_2024-05-11_15h05.16.460.csv,2,16,3,1,z,0,1,0,aud,B,27,1,3B,1B,0,1,z,2.45242159999907,0,1,1,1,1B,3B,B31,3.43398720448515,0.443474026287394,0.220293989176316,0.331884007731855,0.5,0.5,0.443474026287394,0.331884007731855,0.5,0.331884007731855,0.5,0.331884007731855,0.331884007731855,0.5,0.5,0.331884007731855,0.853775895985853,0.470043704364052,0.529956295635948,0.443474026287394,0.5,0.111757575098436,0.490213185927905,0.556525973712606,0.187121832587381,0.5,0.33623198453629,0.440723329317092,0.243569887400047,2.85405458633605,0.5,138.547542842705
CBC_1108,CBC_1108_MSI_AV_v3_Vset6_Aset1_2024-05-11_15h05.16.460.csv,2,17,2,3,b,1,0,3,aud,C,63,1,2C,3C,1,0,b,1.48634619999575,1,0,1,1,2C,3C,C23,3.46573590279973,0.443474026287394,0.220293989176316,0.331884007731855,0.5,0.5,0.630595858874775,0.331884007731855,0.5,0.331884007731855,0.5,0.331884007731855,0.331884007731855,0.5,0.5,0.331884007731855,0.853775895985853,0.5,0.5,0.331884007731855,0.331884007731855,0.200557957493436,0.499315842574346,0.668115992268145,0.224641965980751,0.5,0.33623198453629,0.440723329317092,0.243569887400047,2.85405458633605,0.5,138.547542842705
CBC_1108,CBC_1108_MSI_AV_v3_Vset6_Aset1_2024-05-11_15h05.16.460.csv,2,18,3,2,b,1,0,1,aud,D,63,0,3D,2D,0,1,z,2.58074309999938,0,1,0,1,2D,3D,D32,2.11021320034659,0.443474026287394,0.220293989176316,0.331884007731855,0.5,0.5,0.630595858874775,0.331884007731855,0.5,0.331884007731855,0.5,0.556525973712606,0.331884007731855,0.5,0.5,0.331884007731855,0.853775895985853,0.279915013311332,0.720084986688668,0.331884007731855,0.853775895985853,0.0892936036986318,0.423583140369531,0.668115992268145,0.224641965980751,0.5,0.33623198453629,0.440723329317092,0.243569887400047,2.85405458633605,0.5,138.547542842705
CBC_1108,CBC_1108_MSI_AV_v3_Vset6_Aset1_2024-05-11_15h05.16.460.csv,2,19,0,1,z,0,1,0,aud,B,63,1,0B,1B,0,1,b,2.18446200000108,1,0,0,0,0B,1B,B01,2.83321334405622,0.443474026287394,0.220293989176316,0.331884007731855,0.5,0.5,0.630595858874775,0.331884007731855,0.5,0.331884007731855,0.5,0.556525973712606,0.331884007731855,0.5,0.5,0.556525973712606,0.853775895985853,0.44224467662355,0.55775532337645,0.5,0.630595858874775,0.128823537279191,0.480571558901557,-0.5,-0.168115992268145,0.5,0.33623198453629,0.440723329317092,0.243569887400047,2.85405458633605,0.5,138.547542842705
CBC_1108,CBC_1108_MSI_AV_v3_Vset6_Aset1_2024-05-11_15h05.16.460.csv,2,20,0,2,b,1,0,2,aud,A,27,1,0A,2A,1,0,z,3.22273929999938,0,1,0,0,2A,0A,A02,3.55534806148941,0.443474026287394,0.220293989176316,0.331884007731855,0.5,0.331884007731855,0.630595858874775,0.331884007731855,0.5,0.331884007731855,0.5,0.556525973712606,0.331884007731855,0.5,0.5,0.556525973712606,0.853775895985853,0.428039683823816,0.571960316176184,0.331884007731855,0.443474026287394,0.0678969319030058,0.475070269195576,-0.331884007731855,-0.111590018555539,0.5,0.33623198453629,0.440723329317092,0.243569887400047,2.85405458633605,0.5,138.547542842705
CBC_1108,CBC_1108_MSI_AV_v3_Vset6_Aset1_2024-05-11_15h05.16.460.csv,2,21,3,0,b,1,0,1,aud,D,9,1,3D,0D,1,0,b,1.69697629999791,1,0,1,1,3D,0D,D30,3.58351893845611,0.443474026287394,0.220293989176316,0.220293989176316,0.5,0.331884007731855,0.630595858874775,0.331884007731855,0.5,0.331884007731855,0.5,0.556525973712606,0.331884007731855,0.5,0.5,0.556525973712606,0.853775895985853,0.630662651416254,0.369337348583746,0.853775895985853,0.5,0.195355977052007,0.544990955567632,0.146224104014147,0.0491652206797176,0.5,0.33623198453629,0.440723329317092,0.243569887400047,2.85405458633605,0.5,138.547542842705
CBC_1108,CBC_1108_MSI_AV_v3_Vset6_Aset1_2024-05-11_15h05.16.460.csv,2,22,3,2,z,0,1,3,aud,C,63,1,3C,2C,0,1,z,1.01559319999797,0,1,1,1,2C,3C,C32,2.91777073208428,0.443474026287394,0.220293989176316,0.220293989176316,0.5,0.331884007731855,0.630595858874775,0.331884007731855,0.5,0.331884007731855,0.5,0.556525973712606,0.331884007731855,0.5,0.5,0.556525973712606,0.90294111666557,0.626429222246865,0.373570777753134,0.556525973712606,0.331884007731855,0.242617673886819,0.544367029583793,0.443474026287394,0.149110151948909,0.5,0.33623198453629,0.440723329317092,0.243569887400047,2.85405458633605,0.5,138.547542842705
CBC_1108,CBC_1108_MSI_AV_v3_Vset6_Aset1_2024-05-11_15h05.16.460.csv,2,23,1,3,b,1,0,0,aud,B,27,1,1B,3B,1,0,b,2.26959669999997,1,0,1,1,1B,3B,B13,3.63758615972639,0.443474026287394,0.220293989176316,0.220293989176316,0.5,0.331884007731855,0.630595858874775,0.331884007731855,0.5,0.331884007731855,0.5,0.705636125661515,0.331884007731855,0.5,0.5,0.556525973712606,0.90294111666557,0.55775532337645,0.44224467662355,0.630595858874775,0.5,0.132397204919816,0.519946678592926,0.369404141125225,0.124205487466458,0.5,0.33623198453629,0.440723329317092,0.243569887400047,2.85405458633605,0.5,138.547542842705
CBC_1108,CBC_1108_MSI_AV_v3_Vset6_Aset1_2024-05-11_15h05.16.460.csv,2,24,2,3,b,1,0,3,aud,C,63,1,2C,3C,1,0,b,1.52097009999852,1,0,1,1,2C,3C,C23,2.9704144655697,0.443474026287394,0.220293989176316,0.220293989176316,0.5,0.331884007731855,0.754801346341233,0.331884007731855,0.5,0.331884007731855,0.5,0.705636125661515,0.331884007731855,0.5,0.5,0.556525973712606,0.90294111666557,0.680118007304227,0.319881992695773,0.705636125661515,0.331884007731855,0.222861535374544,0.562824711925599,0.294363874338485,0.0989745496446198,0.5,0.33623198453629,0.440723329317092,0.243569887400047,2.85405458633605,0.5,138.547542842705
CBC_1108,CBC_1108_MSI_AV_v3_Vset6_Aset1_2024-05-11_15h05.16.460.csv,2,25,3,2,b,1,0,1,aud,D,63,1,3D,2D,1,0,z,1.37950659999842,0,1,0,0,2D,3D,D32,2.07944154167984,0.443474026287394,0.220293989176316,0.220293989176316,0.5,0.331884007731855,0.754801346341233,0.331884007731855,0.5,0.331884007731855,0.5,0.804610675306135,0.331884007731855,0.5,0.5,0.556525973712606,0.90294111666557,0.381321358584659,0.618678641415341,0.556525973712606,0.90294111666557,0.194362822655285,0.458718946217763,-0.556525973712606,-0.187121832587381,0.5,0.33623198453629,0.440723329317092,0.243569887400047,2.85405458633605,0.5,138.547542842705
CBC_1108,CBC_1108_MSI_AV_v3_Vset6_Aset1_2024-05-11_15h05.16.460.csv,2,26,0,1,z,0,1,0,aud,B,63,1,0B,1B,0,1,b,2.06390199999805,1,0,0,0,0B,1B,B01,2.6149597780362,0.443474026287394,0.220293989176316,0.220293989176316,0.5,0.331884007731855,0.754801346341233,0.331884007731855,0.5,0.331884007731855,0.5,0.804610675306135,0.331884007731855,0.5,0.5,0.369404141125225,0.90294111666557,0.305409478914844,0.694590521085156,0.331884007731855,0.754801346341233,0.124758013175426,0.432084822583246,-0.331884007731855,-0.111590018555539,0.5,0.33623198453629,0.440723329317092,0.243569887400047,2.85405458633605,0.5,138.547542842705
CBC_1108,CBC_1108_MSI_AV_v3_Vset6_Aset1_2024-05-11_15h05.16.460.csv,2,27,3,0,z,0,1,2,aud,A,9,1,3A,0A,0,1,z,1.76301969999986,0,1,1,1,0A,3A,A30,3.73766961828337,0.443474026287394,0.220293989176316,0.220293989176316,0.5,0.220293989176316,0.754801346341233,0.331884007731855,0.5,0.331884007731855,0.5,0.804610675306135,0.331884007731855,0.5,0.5,0.369404141125225,0.90294111666557,0.470043704364052,0.529956295635948,0.443474026287394,0.5,0.168805570699462,0.489954095340976,0.556525973712606,0.187121832587381,0.5,0.33623198453629,0.440723329317092,0.243569887400047,2.85405458633605,0.5,138.547542842705
CBC_1108,CBC_1108_MSI_AV_v3_Vset6_Aset1_2024-05-11_15h05.16.460.csv,2,28,3,2,b,1,0,1,aud,D,63,0,3D,2D,0,1,b,2.35078709999652,1,0,1,0,3D,2D,D32,1.96944064646551,0.630595858874775,0.220293989176316,0.220293989176316,0.5,0.220293989176316,0.754801346341233,0.331884007731855,0.5,0.331884007731855,0.5,0.804610675306135,0.331884007731855,0.5,0.5,0.369404141125225,0.90294111666557,0.709666744255698,0.290333255744302,0.90294111666557,0.369404141125225,0.138867877770142,0.572463693097363,-0.90294111666557,-0.303597683575878,0.5,0.33623198453629,0.440723329317092,0.243569887400047,2.85405458633605,0.5,138.547542842705
CBC_1108,CBC_1108_MSI_AV_v3_Vset6_Aset1_2024-05-11_15h05.16.460.csv,2,29,0,2,z,0,1,3,aud,C,27,1,0C,2C,0,1,z,2.51215439999578,0,1,1,1,2C,0C,C02,2.68557734525015,0.630595858874775,0.220293989176316,0.220293989176316,0.5,0.220293989176316,0.754801346341233,0.331884007731855,0.5,0.331884007731855,0.5,0.804610675306135,0.331884007731855,0.5,0.5,0.369404141125225,0.599343433089692,0.707975749745975,0.292024250254025,0.804610675306135,0.331884007731855,0.125584535970285,0.571260598999893,0.195389324693865,0.0656961403990237,0.5,0.33623198453629,0.440723329317092,0.243569887400047,2.85405458633605,0.5,138.547542842705
CBC_1108,CBC_1108_MSI_AV_v3_Vset6_Aset1_2024-05-11_15h05.16.460.csv,2,30,0,1,b,1,0,2,aud,A,63,0,0A,1A,0,1,b,1.83776320000106,1,0,1,0,0A,1A,A01,3.11351530921037,0.630595858874775,0.220293989176316,0.220293989176316,0.5,0.220293989176316,0.754801346341233,0.331884007731855,0.5,0.331884007731855,0.5,0.870306815705159,0.331884007731855,0.5,0.5,0.369404141125225,0.599343433089692,0.741101636503379,0.258898363496621,0.630595858874775,0.220293989176316,0.193282713538342,0.583567632148875,-0.630595858874775,-0.212026497069832,0.5,0.33623198453629,0.440723329317092,0.243569887400047,2.85405458633605,0.5,138.547542842705
CBC_1108,CBC_1108_MSI_AV_v3_Vset6_Aset1_2024-05-11_15h05.16.460.csv,2,31,0,1,z,0,1,0,aud,B,63,1,0B,1B,0,1,z,0.292226099998516,0,1,1,1,1B,0B,B01,2.4423470353692,0.418569361804943,0.220293989176316,0.220293989176316,0.5,0.220293989176316,0.754801346341233,0.331884007731855,0.5,0.331884007731855,0.5,0.870306815705159,0.331884007731855,0.5,0.5,0.369404141125225,0.599343433089692,0.774079537505539,0.225920462494461,0.754801346341233,0.220293989176316,1e-20,0.5,0.245198653658767,0.0824436299253137,0.5,0.33623198453629,0.440723329317092,0.243569887400047,2.85405458633605,0.5,138.547542842705
CBC_1108,CBC_1108_MSI_AV_v3_Vset6_Aset1_2024-05-11_15h05.16.460.csv,2,32,1,3,z,0,1,1,aud,D,27,1,1D,3D,0,1,z,2.71808679999958,0,1,1,1,3D,1D,D13,3.85014760171006,0.418569361804943,0.220293989176316,0.220293989176316,0.5,0.220293989176316,0.837244976266547,0.331884007731855,0.5,0.331884007731855,0.5,0.870306815705159,0.331884007731855,0.5,0.5,0.369404141125225,0.599343433089692,0.545183074778774,0.454816925221226,0.599343433089692,0.5,0.100148688942197,0.515968817742281,0.400656566910308,0.13471355260975,0.5,0.33623198453629,0.440723329317092,0.243569887400047,2.85405458633605,0.5,138.547542842705
CBC_1108,CBC_1108_MSI_AV_v3_Vset6_Aset1_2024-05-11_15h05.16.460.csv,2,33,2,3,b,1,0,3,aud,C,63,1,2C,3C,1,0,b,2.60342279999895,1,0,1,1,2C,3C,C23,2.77258872223978,0.418569361804943,0.220293989176316,0.220293989176316,0.5,0.220293989176316,0.837244976266547,0.331884007731855,0.5,0.331884007731855,0.5,0.870306815705159,0.331884007731855,0.5,0.5,0.369404141125225,0.734056985699442,0.723934003436316,0.276065996563684,0.870306815705159,0.331884007731855,0.119897526549603,0.576702139910154,0.129693184294841,0.0436069967362853,0.5,0.33623198453629,0.440723329317092,0.243569887400047,2.85405458633605,0.5,138.547542842705
CBC_1108,CBC_1108_MSI_AV_v3_Vset6_Aset1_2024-05-11_15h05.16.460.csv,2,34,0,1,z,0,1,0,aud,B,63,0,0B,1B,1,0,b,3.04003109999758,1,0,0,1,0B,1B,B01,2.28238238567653,0.418569361804943,0.220293989176316,0.220293989176316,0.5,0.220293989176316,0.837244976266547,0.331884007731855,0.5,0.331884007731855,0.5,0.913913812441444,0.331884007731855,0.5,0.5,0.369404141125225,0.734056985699442,0.208308153528947,0.791691846471053,0.220293989176316,0.837244976266547,0.0635427350283256,0.400152798514067,0.779706010823684,0.262162099374121,0.5,0.33623198453629,0.440723329317092,0.243569887400047,2.85405458633605,0.5,138.547542842705
CBC_1108,CBC_1108_MSI_AV_v3_Vset6_Aset1_2024-05-11_15h05.16.460.csv,2,35,1,0,z,0,1,2,aud,A,63,1,1A,0A,0,1,z,3.26334940000015,0,1,1,1,0A,1A,A10,2.52572864430826,0.418569361804943,0.220293989176316,0.220293989176316,0.5,0.482456088550437,0.837244976266547,0.331884007731855,0.5,0.331884007731855,0.5,0.913913812441444,0.331884007731855,0.5,0.5,0.369404141125225,0.734056985699442,0.655178233595719,0.344821766404281,0.418569361804943,0.220293989176316,0.0770298703938709,0.553376313058313,0.581430638195057,0.195495577350526,0.5,0.33623198453629,0.440723329317092,0.243569887400047,2.85405458633605,0.5,138.547542842705
CBC_1108,CBC_1108_MSI_AV_v3_Vset6_Aset1_2024-05-11_15h05.16.460.csv,2,36,2,1,b,1,0,3,aud,C,9,1,2C,1C,1,0,z,2.44073659999776,0,1,0,0,1C,2C,C21,3.93182563272433,0.614064939155469,0.220293989176316,0.220293989176316,0.5,0.482456088550437,0.837244976266547,0.331884007731855,0.5,0.331884007731855,0.5,0.913913812441444,0.331884007731855,0.5,0.5,0.369404141125225,0.734056985699442,0.353628343962944,0.646371656037056,0.5,0.913913812441444,0.103023544468255,0.448681790655702,-0.5,-0.168115992268145,0.5,0.33623198453629,0.440723329317092,0.243569887400047,2.85405458633605,0.5,138.547542842705
CBC_1108,CBC_1108_MSI_AV_v3_Vset6_Aset1_2024-05-11_15h05.16.460.csv,2,37,0,1,b,1,0,2,aud,A,63,1,0A,1A,1,0,b,2.66908079999848,1,0,1,1,0A,1A,A01,2.85263142991332,0.614064939155469,0.220293989176316,0.220293989176316,0.5,0.482456088550437,0.837244976266547,0.331884007731855,0.5,0.331884007731855,0.331884007731855,0.913913812441444,0.331884007731855,0.5,0.5,0.369404141125225,0.734056985699442,0.735972155752236,0.264027844247764,0.614064939155469,0.220293989176316,0.116094883805897,0.58137307172837,0.385935060844531,0.129763711409891,0.5,0.33623198453629,0.440723329317092,0.243569887400047,2.85405458633605,0.5,138.547542842705
CBC_1108,CBC_1108_MSI_AV_v3_Vset6_Aset1_2024-05-11_15h05.16.460.csv,2,38,1,3,z,0,1,1,aud,D,27,1,1D,3D,0,1,z,2.31802809999863,0,1,1,1,3D,1D,D13,3.27714473299218,0.743828650565359,0.220293989176316,0.220293989176316,0.5,0.482456088550437,0.837244976266547,0.331884007731855,0.5,0.331884007731855,0.331884007731855,0.913913812441444,0.331884007731855,0.5,0.5,0.369404141125225,0.734056985699442,0.594832324767718,0.405167675232282,0.734056985699442,0.5,0.131675036456312,0.532416769159216,0.265943014300558,0.0894185474718397,0.5,0.33623198453629,0.440723329317092,0.243569887400047,2.85405458633605,0.5,138.547542842705
CBC_1108,CBC_1108_MSI_AV_v3_Vset6_Aset1_2024-05-11_15h05.16.460.csv,2,39,1,0,b,1,0,0,aud,B,63,1,1B,0B,1,0,b,1.24735149999833,1,0,1,1,1B,0B,B10,3.29583686600433,0.743828650565359,0.220293989176316,0.220293989176316,0.5,0.482456088550437,0.837244976266547,0.331884007731855,0.5,0.331884007731855,0.331884007731855,0.913913812441444,0.331884007731855,0.5,0.5,0.369404141125225,0.823475533171281,0.63442017180054,0.36557982819946,0.837244976266547,0.482456088550437,0.244172005851291,0.547527942266046,0.162755023733453,0.05472344462315,0.5,0.33623198453629,0.440723329317092,0.243569887400047,2.85405458633605,0.5,138.547542842705
CBC_1108,CBC_1108_MSI_AV_v3_Vset6_Aset1_2024-05-11_15h05.16.460.csv,2,40,3,2,z,0,1,3,aud,C,63,0,3C,2C,1,0,b,2.83424200000081,1,0,0,1,3C,2C,C32,2.90872089656436,0.743828650565359,0.220293989176316,0.220293989176316,0.5,0.482456088550437,0.891968420889697,0.331884007731855,0.5,0.331884007731855,0.331884007731855,0.913913812441444,0.331884007731855,0.5,0.5,0.369404141125225,0.823475533171281,0.266402784109614,0.733597215890386,0.331884007731855,0.913913812441444,0.0757951777019663,0.41991742783751,0.668115992268145,0.224641965980751,0.5,0.33623198453629,0.440723329317092,0.243569887400047,2.85405458633605,0.5,138.547542842705
CBC_1108,CBC_1108_MSI_AV_v3_Vset6_Aset1_2024-05-11_15h05.16.460.csv,2,41,0,2,b,1,0,2,aud,A,27,1,0A,2A,1,0,z,2.31086789999972,0,1,0,0,2A,0A,A02,3.3322045101752,0.743828650565359,0.220293989176316,0.220293989176316,0.5,0.482456088550437,0.891968420889697,0.331884007731855,0.5,0.331884007731855,0.331884007731855,0.913913812441444,0.556525973712606,0.5,0.5,0.369404141125225,0.823475533171281,0.228491667030391,0.771508332969609,0.220293989176316,0.743828650565359,0.100957190495268,0.405959175767997,-0.220293989176316,-0.0740698851621687,0.5,0.33623198453629,0.440723329317092,0.243569887400047,2.85405458633605,0.5,138.547542842705
CBC_1108,CBC_1108_MSI_AV_v3_Vset6_Aset1_2024-05-11_15h05.16.460.csv,2,42,2,3,z,0,1,1,aud,D,63,1,2D,3D,0,1,b,1.83770949999962,1,0,0,0,2D,3D,D23,4.04305126783455,0.743828650565359,0.220293989176316,0.146224104014147,0.5,0.482456088550437,0.891968420889697,0.331884007731855,0.5,0.331884007731855,0.331884007731855,0.913913812441444,0.556525973712606,0.5,0.5,0.369404141125225,0.823475533171281,0.309674268985327,0.690325731014673,0.369404141125225,0.823475533171281,0.143679804720898,0.434530314263656,-0.369404141125225,-0.124205487466458,0.5,0.33623198453629,0.440723329317092,0.243569887400047,2.85405458633605,0.5,138.547542842705
CBC_1108,CBC_1108_MSI_AV_v3_Vset6_Aset1_2024-05-11_15h05.16.460.csv,2,43,1,3,b,1,0,0,aud,B,27,1,1B,3B,1,0,b,0.622319999998581,1,0,1,1,1B,3B,B13,3.36729582998647,0.743828650565359,0.220293989176316,0.146224104014147,0.5,0.482456088550437,0.891968420889697,0.331884007731855,0.5,0.331884007731855,0.331884007731855,0.913913812441444,0.556525973712606,0.5,0.5,0.245198653658767,0.823475533171281,0.640796448758214,0.359203551241786,0.891968420889697,0.5,0.029778644873272,0.548748203094426,0.108031579110303,0.0363236722368465,0.5,0.33623198453629,0.440723329317092,0.243569887400047,2.85405458633605,0.5,138.547542842705
CBC_1108,CBC_1108_MSI_AV_v3_Vset6_Aset1_2024-05-11_15h05.16.460.csv,2,44,3,2,z,0,1,3,aud,C,63,1,3C,2C,0,1,z,2.27132699999856,0,1,1,1,2C,3C,C32,2.69124308278583,0.743828650565359,0.220293989176316,0.146224104014147,0.5,0.482456088550437,0.928292093126543,0.331884007731855,0.5,0.331884007731855,0.331884007731855,0.913913812441444,0.556525973712606,0.5,0.5,0.245198653658767,0.823475533171281,0.62152413247182,0.37847586752818,0.913913812441444,0.556525973712606,0.137959162953412,0.542205796337706,0.086086187558556,0.0289449296839766,0.5,0.33623198453629,0.440723329317092,0.243569887400047,2.85405458633605,0.5,138.547542842705
