ID,filename,session,trial,visStimLeft,visStimRight,correctKey,leftCorrect,rightCorrect,secondStim,mod2Type,mod2Stim,frequency,rewardAccurate,stimPairLeft,stimPairRight,pCorrectLeft,pCorrectRight,key,reactionTime,choiceLeft,choiceRight,choiceAccurate,reward,chosenPair,otherPair,triplet,surprise,0A belief,1A belief,2A belief,3A belief,0B belief,1B belief,2B belief,3B belief,0C belief,1C belief,2C belief,3C belief,0D belief,1D belief,2D belief,3D belief,beliefPairNorm,beliefOtherPairNorm,beliefPair,beliefOtherPair,lik,corrLik,rewardPE,update2,fitCBCsimpleRW_CBCdriftDiffusionLR_startBelief,fitCBCsimpleRW_CBCdriftDiffusionLR_alpha1,fitCBCsimpleRW_CBCdriftDiffusionLR_nonDecisionTime,fitCBCsimpleRW_CBCdriftDiffusionLR_weight,fitCBCsimpleRW_CBCdriftDiffusionLR_startingBoundary,fitCBCsimpleRW_CBCdriftDiffusionLR_startingPoint,fit_CBCsimpleRW_CBCdriftDiffusionLR_NLL
CBC_1146,CBC_1146_MSI_AV_v3_Vset4_Aset3_2024-09-11_14h37.04.530.csv,1,1,0,1,b,1,0,0,aud,A,63,1,0A,1A,1,0,z,2.19752070000141,0,1,0,0,1A,0A,A01,2.77258872223978,0.5,0.5,0.5,0.5,0.5,0.5,0.5,0.5,0.5,0.5,0.5,0.5,0.5,0.5,0.5,0.5,0.5,0.5,0.5,0.5,0.175825128626827,0.498439438090203,-0.5,-0.0274366773179501,0.5,0.0548733546359003,0.898098568891884,2.69374671363214,2.78915830803793,0.5,86.6757419962279
CBC_1146,CBC_1146_MSI_AV_v3_Vset4_Aset3_2024-09-11_14h37.04.530.csv,1,2,2,3,z,0,1,1,aud,D,63,1,2D,3D,0,1,z,1.70673490000081,0,1,1,1,3D,2D,D23,2.83321334405622,0.5,0.47256332268205,0.5,0.5,0.5,0.5,0.5,0.5,0.5,0.5,0.5,0.5,0.5,0.5,0.5,0.5,0.5,0.5,0.5,0.5,0.230282885355811,0.50101994766836,0.5,0.0274366773179501,0.5,0.0548733546359003,0.898098568891884,2.69374671363214,2.78915830803793,0.5,86.6757419962279
CBC_1146,CBC_1146_MSI_AV_v3_Vset4_Aset3_2024-09-11_14h37.04.530.csv,1,3,0,2,z,0,1,3,aud,C,27,1,0C,2C,0,1,z,3.02499900000112,0,1,1,1,2C,0C,C02,2.89037175789616,0.5,0.47256332268205,0.5,0.5,0.5,0.5,0.5,0.5,0.5,0.5,0.5,0.5,0.5,0.5,0.5,0.52743667731795,0.5,0.5,0.5,0.5,0.104737761274051,0.499849033038078,0.5,0.0274366773179501,0.5,0.0548733546359003,0.898098568891884,2.69374671363214,2.78915830803793,0.5,86.6757419962279
CBC_1146,CBC_1146_MSI_AV_v3_Vset4_Aset3_2024-09-11_14h37.04.530.csv,1,4,0,1,b,1,0,0,aud,A,63,1,0A,1A,1,0,b,2.02376660000027,1,0,1,1,0A,1A,A01,2.2512917986065,0.5,0.47256332268205,0.5,0.5,0.5,0.5,0.5,0.5,0.5,0.5,0.52743667731795,0.5,0.5,0.5,0.5,0.52743667731795,0.514105342386493,0.485894657613508,0.5,0.47256332268205,0.21727291831947,0.553551498479781,0.5,0.0274366773179501,0.5,0.0548733546359003,0.898098568891884,2.69374671363214,2.78915830803793,0.5,86.6757419962279
CBC_1146,CBC_1146_MSI_AV_v3_Vset4_Aset3_2024-09-11_14h37.04.530.csv,1,5,1,3,b,1,0,2,aud,B,27,1,1B,3B,1,0,b,2.13415420000092,1,0,1,1,1B,3B,B13,2.99573227355399,0.52743667731795,0.47256332268205,0.5,0.5,0.5,0.5,0.5,0.5,0.5,0.5,0.52743667731795,0.5,0.5,0.5,0.5,0.52743667731795,0.5,0.5,0.5,0.5,0.183687569811078,0.500995878579362,0.5,0.0274366773179501,0.5,0.0548733546359003,0.898098568891884,2.69374671363214,2.78915830803793,0.5,86.6757419962279
CBC_1146,CBC_1146_MSI_AV_v3_Vset4_Aset3_2024-09-11_14h37.04.530.csv,1,6,3,2,z,0,1,3,aud,C,63,1,3C,2C,0,1,z,3.51847860000089,0,1,1,1,2C,3C,C32,3.04452243772342,0.52743667731795,0.47256332268205,0.5,0.5,0.5,0.52743667731795,0.5,0.5,0.5,0.5,0.52743667731795,0.5,0.5,0.5,0.5,0.52743667731795,0.51335200403278,0.48664799596722,0.52743667731795,0.5,0.0841561821305645,0.550193253138857,0.47256332268205,0.0259311347934515,0.5,0.0548733546359003,0.898098568891884,2.69374671363214,2.78915830803793,0.5,86.6757419962279
CBC_1146,CBC_1146_MSI_AV_v3_Vset4_Aset3_2024-09-11_14h37.04.530.csv,1,7,3,2,b,1,0,1,aud,D,63,1,3D,2D,1,0,b,1.83479660000103,1,0,1,1,3D,2D,D32,3.09104245335832,0.52743667731795,0.47256332268205,0.5,0.5,0.5,0.52743667731795,0.5,0.5,0.5,0.5,0.553367812111402,0.5,0.5,0.5,0.5,0.52743667731795,0.51335200403278,0.48664799596722,0.52743667731795,0.5,0.23944306557064,0.549889565829097,0.47256332268205,0.0259311347934515,0.5,0.0548733546359003,0.898098568891884,2.69374671363214,2.78915830803793,0.5,86.6757419962279
CBC_1146,CBC_1146_MSI_AV_v3_Vset4_Aset3_2024-09-11_14h37.04.530.csv,1,8,0,1,z,0,1,2,aud,B,63,1,0B,1B,0,1,z,1.48052740000003,0,1,1,1,1B,0B,B01,3.13549421592915,0.52743667731795,0.47256332268205,0.5,0.5,0.5,0.52743667731795,0.5,0.5,0.5,0.5,0.553367812111402,0.5,0.5,0.5,0.5,0.553367812111402,0.51335200403278,0.48664799596722,0.52743667731795,0.5,0.26023055129534,0.550059680795654,0.47256332268205,0.0259311347934515,0.5,0.0548733546359003,0.898098568891884,2.69374671363214,2.78915830803793,0.5,86.6757419962279
CBC_1146,CBC_1146_MSI_AV_v3_Vset4_Aset3_2024-09-11_14h37.04.530.csv,1,9,2,0,z,0,1,0,aud,A,27,1,2A,0A,0,1,z,1.79923280000094,0,1,1,1,0A,2A,A20,3.17805383034795,0.52743667731795,0.47256332268205,0.5,0.5,0.5,0.553367812111402,0.5,0.5,0.5,0.5,0.553367812111402,0.5,0.5,0.5,0.5,0.553367812111402,0.51335200403278,0.48664799596722,0.52743667731795,0.5,0.243760271307086,0.550139435152948,0.47256332268205,0.0259311347934515,0.5,0.0548733546359003,0.898098568891884,2.69374671363214,2.78915830803793,0.5,86.6757419962279
CBC_1146,CBC_1146_MSI_AV_v3_Vset4_Aset3_2024-09-11_14h37.04.530.csv,1,10,3,0,b,1,0,1,aud,D,9,1,3D,0D,1,0,b,3.11540320000131,1,0,1,1,3D,0D,D30,3.2188758248682,0.553367812111402,0.47256332268205,0.5,0.5,0.5,0.553367812111402,0.5,0.5,0.5,0.5,0.553367812111402,0.5,0.5,0.5,0.5,0.553367812111402,0.525331993012217,0.474668006987783,0.553367812111402,0.5,0.117307266974082,0.594451142608737,0.446632187888598,0.0245082064378191,0.5,0.0548733546359003,0.898098568891884,2.69374671363214,2.78915830803793,0.5,86.6757419962279
CBC_1146,CBC_1146_MSI_AV_v3_Vset4_Aset3_2024-09-11_14h37.04.530.csv,1,11,2,3,b,1,0,3,aud,C,63,1,2C,3C,1,0,b,1.43817010000021,1,0,1,1,2C,3C,C23,3.25809653802148,0.553367812111402,0.47256332268205,0.5,0.5,0.5,0.553367812111402,0.5,0.5,0.5,0.5,0.553367812111402,0.5,0.5,0.5,0.5,0.577876018549221,0.525331993012217,0.474668006987783,0.553367812111402,0.5,0.278752960742833,0.594076531267727,0.446632187888598,0.0245082064378191,0.5,0.0548733546359003,0.898098568891884,2.69374671363214,2.78915830803793,0.5,86.6757419962279
CBC_1146,CBC_1146_MSI_AV_v3_Vset4_Aset3_2024-09-11_14h37.04.530.csv,1,12,0,1,z,0,1,2,aud,B,63,1,0B,1B,0,1,z,1.6061021000005,0,1,1,1,1B,0B,B01,2.60268968544438,0.553367812111402,0.47256332268205,0.5,0.5,0.5,0.553367812111402,0.5,0.5,0.5,0.5,0.577876018549221,0.5,0.5,0.5,0.5,0.577876018549221,0.525331993012217,0.474668006987783,0.553367812111402,0.5,0.284628146534478,0.594863952593502,0.446632187888598,0.0245082064378191,0.5,0.0548733546359003,0.898098568891884,2.69374671363214,2.78915830803793,0.5,86.6757419962279
CBC_1146,CBC_1146_MSI_AV_v3_Vset4_Aset3_2024-09-11_14h37.04.530.csv,1,13,2,3,z,0,1,1,aud,D,63,1,2D,3D,0,1,z,1.76682100000107,0,1,1,1,3D,2D,D23,2.63905732961526,0.553367812111402,0.47256332268205,0.5,0.5,0.5,0.577876018549221,0.5,0.5,0.5,0.5,0.577876018549221,0.5,0.5,0.5,0.5,0.577876018549221,0.536124757026341,0.463875242973659,0.577876018549221,0.5,0.289435654543688,0.632589669678481,0.422123981450779,0.0231633589344668,0.5,0.0548733546359003,0.898098568891884,2.69374671363214,2.78915830803793,0.5,86.6757419962279
CBC_1146,CBC_1146_MSI_AV_v3_Vset4_Aset3_2024-09-11_14h37.04.530.csv,1,14,2,3,b,1,0,3,aud,C,63,1,2C,3C,1,0,z,4.82319310000003,0,1,0,0,3C,2C,C23,2.67414864942653,0.553367812111402,0.47256332268205,0.5,0.5,0.5,0.577876018549221,0.5,0.5,0.5,0.5,0.577876018549221,0.5,0.5,0.5,0.5,0.601039377483688,0.463875242973659,0.536124757026341,0.5,0.577876018549221,0.0237527512550312,0.368220201816253,-0.5,-0.0274366773179501,0.5,0.0548733546359003,0.898098568891884,2.69374671363214,2.78915830803793,0.5,86.6757419962279
CBC_1146,CBC_1146_MSI_AV_v3_Vset4_Aset3_2024-09-11_14h37.04.530.csv,1,15,3,1,z,0,1,2,aud,B,27,1,3B,1B,0,1,z,1.10946920000151,0,1,1,1,1B,3B,B31,3.40119738166216,0.553367812111402,0.47256332268205,0.5,0.5,0.5,0.577876018549221,0.5,0.5,0.5,0.5,0.577876018549221,0.47256332268205,0.5,0.5,0.5,0.601039377483688,0.536124757026341,0.463875242973659,0.577876018549221,0.5,0.0752255007500452,0.632962033468713,0.422123981450779,0.0231633589344668,0.5,0.0548733546359003,0.898098568891884,2.69374671363214,2.78915830803793,0.5,86.6757419962279
CBC_1146,CBC_1146_MSI_AV_v3_Vset4_Aset3_2024-09-11_14h37.04.530.csv,1,16,0,3,b,1,0,0,aud,A,9,1,0A,3A,1,0,b,2.91496190000089,1,0,1,1,0A,3A,A03,3.43398720448515,0.553367812111402,0.47256332268205,0.5,0.5,0.5,0.601039377483688,0.5,0.5,0.5,0.5,0.577876018549221,0.47256332268205,0.5,0.5,0.5,0.601039377483688,0.525331993012217,0.474668006987783,0.553367812111402,0.5,0.133466584880147,0.594505894713423,0.446632187888598,0.0245082064378191,0.5,0.0548733546359003,0.898098568891884,2.69374671363214,2.78915830803793,0.5,86.6757419962279
CBC_1146,CBC_1146_MSI_AV_v3_Vset4_Aset3_2024-09-11_14h37.04.530.csv,1,17,2,3,z,0,1,1,aud,D,63,1,2D,3D,0,1,z,1.44117420000111,0,1,1,1,3D,2D,D23,2.36712361413162,0.577876018549221,0.47256332268205,0.5,0.5,0.5,0.601039377483688,0.5,0.5,0.5,0.5,0.577876018549221,0.47256332268205,0.5,0.5,0.5,0.601039377483688,0.545883634840837,0.454116365159163,0.601039377483688,0.5,0.322758960353598,0.666924525222021,0.398960622516312,0.0218923077250971,0.5,0.0548733546359003,0.898098568891884,2.69374671363214,2.78915830803793,0.5,86.6757419962279
CBC_1146,CBC_1146_MSI_AV_v3_Vset4_Aset3_2024-09-11_14h37.04.530.csv,1,18,0,2,z,0,1,3,aud,C,27,1,0C,2C,0,1,z,3.10697590000109,0,1,1,1,2C,0C,C02,2.80336038090653,0.577876018549221,0.47256332268205,0.5,0.5,0.5,0.601039377483688,0.5,0.5,0.5,0.5,0.577876018549221,0.47256332268205,0.5,0.5,0.5,0.622931685208785,0.536124757026341,0.463875242973659,0.577876018549221,0.5,0.125181151305162,0.63273874768961,0.422123981450779,0.0231633589344668,0.5,0.0548733546359003,0.898098568891884,2.69374671363214,2.78915830803793,0.5,86.6757419962279
CBC_1146,CBC_1146_MSI_AV_v3_Vset4_Aset3_2024-09-11_14h37.04.530.csv,1,19,0,1,b,1,0,0,aud,A,63,1,0A,1A,1,0,z,2.74869519999993,0,1,0,0,1A,0A,A01,2.42774823594805,0.577876018549221,0.47256332268205,0.5,0.5,0.5,0.601039377483688,0.5,0.5,0.5,0.5,0.601039377483688,0.47256332268205,0.5,0.5,0.5,0.622931685208785,0.449872071744891,0.550127928255109,0.47256332268205,0.577876018549221,0.0802983647239889,0.321081618089576,-0.47256332268205,-0.0259311347934515,0.5,0.0548733546359003,0.898098568891884,2.69374671363214,2.78915830803793,0.5,86.6757419962279
CBC_1146,CBC_1146_MSI_AV_v3_Vset4_Aset3_2024-09-11_14h37.04.530.csv,1,20,1,0,b,1,0,2,aud,B,63,0,1B,0B,0,1,b,3.290882100001,1,0,1,0,1B,0B,B10,3.55534806148941,0.577876018549221,0.446632187888598,0.5,0.5,0.5,0.601039377483688,0.5,0.5,0.5,0.5,0.601039377483688,0.47256332268205,0.5,0.5,0.5,0.622931685208785,0.545883634840837,0.454116365159163,0.601039377483688,0.5,0.116234862798004,0.666497344620071,-0.601039377483688,-0.0329810469108031,0.5,0.0548733546359003,0.898098568891884,2.69374671363214,2.78915830803793,0.5,86.6757419962279
CBC_1146,CBC_1146_MSI_AV_v3_Vset4_Aset3_2024-09-11_14h37.04.530.csv,1,21,3,1,b,1,0,1,aud,D,27,1,3D,1D,1,0,b,2.87000950000129,1,0,1,1,3D,1D,D31,3.58351893845611,0.577876018549221,0.446632187888598,0.5,0.5,0.5,0.568058330572884,0.5,0.5,0.5,0.5,0.601039377483688,0.47256332268205,0.5,0.5,0.5,0.622931685208785,0.554736938510168,0.445263061489832,0.622931685208785,0.5,0.159893804520345,0.694036530438286,0.377068314791215,0.0206910033594996,0.5,0.0548733546359003,0.898098568891884,2.69374671363214,2.78915830803793,0.5,86.6757419962279
CBC_1146,CBC_1146_MSI_AV_v3_Vset4_Aset3_2024-09-11_14h37.04.530.csv,1,22,3,2,z,0,1,3,aud,C,63,1,3C,2C,0,1,z,2.12795320000077,0,1,1,1,2C,3C,C32,2.91777073208428,0.577876018549221,0.446632187888598,0.5,0.5,0.5,0.568058330572884,0.5,0.5,0.5,0.5,0.601039377483688,0.47256332268205,0.5,0.5,0.5,0.643622688568284,0.559834077718789,0.440165922281211,0.601039377483688,0.47256332268205,0.270641901094569,0.710849606819504,0.398960622516312,0.0218923077250971,0.5,0.0548733546359003,0.898098568891884,2.69374671363214,2.78915830803793,0.5,86.6757419962279
CBC_1146,CBC_1146_MSI_AV_v3_Vset4_Aset3_2024-09-11_14h37.04.530.csv,1,23,0,1,z,0,1,2,aud,B,63,1,0B,1B,0,1,z,4.25660460000108,0,1,1,1,1B,0B,B01,2.53897387105828,0.577876018549221,0.446632187888598,0.5,0.5,0.5,0.568058330572884,0.5,0.5,0.5,0.5,0.622931685208785,0.47256332268205,0.5,0.5,0.5,0.643622688568284,0.531860774184674,0.468139225815326,0.568058330572884,0.5,0.0580237272841832,0.617765445689265,0.431941669427116,0.0237020884084969,0.5,0.0548733546359003,0.898098568891884,2.69374671363214,2.78915830803793,0.5,86.6757419962279
CBC_1146,CBC_1146_MSI_AV_v3_Vset4_Aset3_2024-09-11_14h37.04.530.csv,1,24,0,2,b,1,0,0,aud,A,27,1,0A,2A,1,0,b,2.77974890000041,1,0,1,1,0A,2A,A02,3.66356164612965,0.577876018549221,0.446632187888598,0.5,0.5,0.5,0.591760418981381,0.5,0.5,0.5,0.5,0.622931685208785,0.47256332268205,0.5,0.5,0.5,0.643622688568284,0.536124757026341,0.463875242973659,0.577876018549221,0.5,0.154969040260587,0.632637350765401,0.422123981450779,0.0231633589344668,0.5,0.0548733546359003,0.898098568891884,2.69374671363214,2.78915830803793,0.5,86.6757419962279
CBC_1146,CBC_1146_MSI_AV_v3_Vset4_Aset3_2024-09-11_14h37.04.530.csv,1,25,3,2,b,1,0,1,aud,D,63,1,3D,2D,1,0,b,1.62721040000088,1,0,1,1,3D,2D,D32,2.99573227355399,0.601039377483688,0.446632187888598,0.5,0.5,0.5,0.591760418981381,0.5,0.5,0.5,0.5,0.622931685208785,0.47256332268205,0.5,0.5,0.5,0.643622688568284,0.562792864291669,0.437207135708331,0.643622688568284,0.5,0.362087817841773,0.719969340528105,0.356377311431716,0.0195556185943812,0.5,0.0548733546359003,0.898098568891884,2.69374671363214,2.78915830803793,0.5,86.6757419962279
CBC_1146,CBC_1146_MSI_AV_v3_Vset4_Aset3_2024-09-11_14h37.04.530.csv,1,26,0,2,z,0,1,3,aud,C,27,1,0C,2C,0,1,z,3.68946210000013,0,1,1,1,2C,0C,C02,2.6149597780362,0.601039377483688,0.446632187888598,0.5,0.5,0.5,0.591760418981381,0.5,0.5,0.5,0.5,0.622931685208785,0.47256332268205,0.5,0.5,0.5,0.663178307162666,0.554736938510168,0.445263061489832,0.622931685208785,0.5,0.0918974442950045,0.695252972663445,0.377068314791215,0.0206910033594996,0.5,0.0548733546359003,0.898098568891884,2.69374671363214,2.78915830803793,0.5,86.6757419962279
CBC_1146,CBC_1146_MSI_AV_v3_Vset4_Aset3_2024-09-11_14h37.04.530.csv,1,27,0,1,z,0,1,2,aud,B,63,1,0B,1B,0,1,b,3.74363210000047,1,0,0,0,0B,1B,B01,2.35137525716348,0.601039377483688,0.446632187888598,0.5,0.5,0.5,0.591760418981381,0.5,0.5,0.5,0.5,0.643622688568284,0.47256332268205,0.5,0.5,0.5,0.663178307162666,0.457975936209982,0.542024063790018,0.5,0.591760418981381,0.0450311712877797,0.347194382851689,-0.5,-0.0274366773179501,0.5,0.0548733546359003,0.898098568891884,2.69374671363214,2.78915830803793,0.5,86.6757419962279
CBC_1146,CBC_1146_MSI_AV_v3_Vset4_Aset3_2024-09-11_14h37.04.530.csv,1,28,1,0,z,0,1,0,aud,A,63,1,1A,0A,0,1,z,2.93708040000092,0,1,1,1,0A,1A,A10,3.76120011569356,0.601039377483688,0.446632187888598,0.5,0.5,0.47256332268205,0.591760418981381,0.5,0.5,0.5,0.5,0.643622688568284,0.47256332268205,0.5,0.5,0.5,0.663178307162666,0.57369064633353,0.42630935366647,0.601039377483688,0.446632187888598,0.164158245982567,0.751950895801635,0.398960622516312,0.0218923077250971,0.5,0.0548733546359003,0.898098568891884,2.69374671363214,2.78915830803793,0.5,86.6757419962279
CBC_1146,CBC_1146_MSI_AV_v3_Vset4_Aset3_2024-09-11_14h37.04.530.csv,1,29,2,3,b,1,0,3,aud,C,63,1,2C,3C,1,0,b,1.60406720000083,1,0,1,1,2C,3C,C23,2.68557734525015,0.622931685208785,0.446632187888598,0.5,0.5,0.47256332268205,0.591760418981381,0.5,0.5,0.5,0.5,0.643622688568284,0.47256332268205,0.5,0.5,0.5,0.663178307162666,0.576626728951125,0.423373271048875,0.643622688568284,0.47256332268205,0.396035531588725,0.759653447545633,0.356377311431716,0.0195556185943812,0.5,0.0548733546359003,0.898098568891884,2.69374671363214,2.78915830803793,0.5,86.6757419962279
CBC_1146,CBC_1146_MSI_AV_v3_Vset4_Aset3_2024-09-11_14h37.04.530.csv,1,30,1,3,z,0,1,1,aud,D,27,1,1D,3D,0,1,z,1.40808300000026,0,1,1,1,3D,1D,D13,3.80666248977032,0.622931685208785,0.446632187888598,0.5,0.5,0.47256332268205,0.591760418981381,0.5,0.5,0.5,0.5,0.663178307162666,0.47256332268205,0.5,0.5,0.5,0.663178307162666,0.570143290223795,0.429856709776206,0.663178307162666,0.5,0.371069858633007,0.74203458133556,0.336821692837334,0.0184825362001273,0.5,0.0548733546359003,0.898098568891884,2.69374671363214,2.78915830803793,0.5,86.6757419962279
CBC_1146,CBC_1146_MSI_AV_v3_Vset4_Aset3_2024-09-11_14h37.04.530.csv,1,31,0,1,b,1,0,0,aud,A,63,1,0A,1A,1,0,z,5.41295540000101,0,1,0,0,1A,0A,A01,2.4423470353692,0.622931685208785,0.446632187888598,0.5,0.5,0.47256332268205,0.591760418981381,0.5,0.5,0.5,0.5,0.663178307162666,0.47256332268205,0.5,0.5,0.5,0.681660843362793,0.417583464739869,0.582416535260131,0.446632187888598,0.622931685208785,0.00795740387587483,0.224899211007401,-0.446632187888598,-0.0245082064378191,0.5,0.0548733546359003,0.898098568891884,2.69374671363214,2.78915830803793,0.5,86.6757419962279
CBC_1146,CBC_1146_MSI_AV_v3_Vset4_Aset3_2024-09-11_14h37.04.530.csv,1,32,2,3,z,0,1,1,aud,D,63,1,2D,3D,0,1,z,3.68417540000064,0,1,1,1,3D,2D,D23,2.46385324059017,0.622931685208785,0.422123981450779,0.5,0.5,0.47256332268205,0.591760418981381,0.5,0.5,0.5,0.5,0.663178307162666,0.47256332268205,0.5,0.5,0.5,0.681660843362793,0.576866744118312,0.423133255881688,0.681660843362793,0.5,0.0967618518364159,0.760329090298792,0.318339156637207,0.0174683374366469,0.5,0.0548733546359003,0.898098568891884,2.69374671363214,2.78915830803793,0.5,86.6757419962279
CBC_1146,CBC_1146_MSI_AV_v3_Vset4_Aset3_2024-09-11_14h37.04.530.csv,1,33,1,2,b,1,0,2,aud,B,9,1,1B,2B,NaN,NaN,[],NaN,NaN,NaN,NaN,NaN,,,B12,3.87120101090789,0.622931685208785,0.422123981450779,0.5,0.5,0.47256332268205,0.591760418981381,0.5,0.5,0.5,0.5,0.663178307162666,0.47256332268205,0.5,0.5,0.5,0.69912918079944,0,0,0,0,NaN,0,0,0,0.5,0.0548733546359003,0.898098568891884,2.69374671363214,2.78915830803793,0.5,86.6757419962279
CBC_1146,CBC_1146_MSI_AV_v3_Vset4_Aset3_2024-09-11_14h37.04.530.csv,1,34,0,1,b,1,0,0,aud,A,63,1,0A,1A,1,0,z,5.58366510000087,0,1,0,0,1A,0A,A01,2.28238238567653,0.622931685208785,0.422123981450779,0.5,0.5,0.47256332268205,0.591760418981381,0.5,0.5,0.5,0.5,0.663178307162666,0.47256332268205,0.5,0.5,0.5,0.69912918079944,0.403924876844182,0.596075123155818,0.422123981450779,0.622931685208785,0.00534432914098364,0.190614051031121,-0.422123981450779,-0.0231633589344668,0.5,0.0548733546359003,0.898098568891884,2.69374671363214,2.78915830803793,0.5,86.6757419962279
CBC_1146,CBC_1146_MSI_AV_v3_Vset4_Aset3_2024-09-11_14h37.04.530.csv,1,35,1,2,z,0,1,3,aud,C,9,1,1C,2C,0,1,z,2.76252000000022,0,1,1,1,2C,1C,C12,3.91202300542815,0.622931685208785,0.398960622516312,0.5,0.5,0.47256332268205,0.591760418981381,0.5,0.5,0.5,0.5,0.663178307162666,0.47256332268205,0.5,0.5,0.5,0.69912918079944,0.570143290223795,0.429856709776206,0.663178307162666,0.5,0.183527435263021,0.741848066425587,0.336821692837334,0.0184825362001273,0.5,0.0548733546359003,0.898098568891884,2.69374671363214,2.78915830803793,0.5,86.6757419962279
CBC_1146,CBC_1146_MSI_AV_v3_Vset4_Aset3_2024-09-11_14h37.04.530.csv,1,36,0,1,z,0,1,2,aud,B,63,1,0B,1B,0,1,z,2.47056850000081,0,1,1,1,1B,0B,B01,2.32238772029023,0.622931685208785,0.398960622516312,0.5,0.5,0.47256332268205,0.591760418981381,0.5,0.5,0.5,0.5,0.681660843362793,0.47256332268205,0.5,0.5,0.5,0.69912918079944,0.555996635061921,0.444003364938079,0.591760418981381,0.47256332268205,0.211148650987282,0.699345975417861,0.408239581018619,0.022401475305646,0.5,0.0548733546359003,0.898098568891884,2.69374671363214,2.78915830803793,0.5,86.6757419962279
CBC_1146,CBC_1146_MSI_AV_v3_Vset4_Aset3_2024-09-11_14h37.04.530.csv,1,37,1,0,z,0,1,0,aud,A,63,0,1A,0A,1,0,b,3.83666900000026,1,0,0,1,1A,0A,A10,3.25809653802148,0.622931685208785,0.398960622516312,0.5,0.5,0.47256332268205,0.614161894287027,0.5,0.5,0.5,0.5,0.681660843362793,0.47256332268205,0.5,0.5,0.5,0.69912918079944,0.390413568533915,0.609586431466085,0.398960622516312,0.622931685208785,0.0164739885867397,0.161594907504175,0.601039377483688,0.0329810469108031,0.5,0.0548733546359003,0.898098568891884,2.69374671363214,2.78915830803793,0.5,86.6757419962279
CBC_1146,CBC_1146_MSI_AV_v3_Vset4_Aset3_2024-09-11_14h37.04.530.csv,1,38,1,0,b,1,0,2,aud,B,63,1,1B,0B,1,0,b,1.41451469999993,1,0,1,1,1B,0B,B10,3.27714473299218,0.622931685208785,0.431941669427116,0.5,0.5,0.47256332268205,0.614161894287027,0.5,0.5,0.5,0.5,0.681660843362793,0.47256332268205,0.5,0.5,0.5,0.69912918079944,0.565149206714786,0.434850793285214,0.614161894287027,0.47256332268205,0.36032269786845,0.72675763086274,0.385838105712973,0.0211722312068319,0.5,0.0548733546359003,0.898098568891884,2.69374671363214,2.78915830803793,0.5,86.6757419962279
CBC_1146,CBC_1146_MSI_AV_v3_Vset4_Aset3_2024-09-11_14h37.04.530.csv,1,39,3,1,b,1,0,1,aud,D,27,1,3D,1D,1,0,z,3.33643690000008,0,1,0,0,1D,3D,D31,3.29583686600433,0.622931685208785,0.431941669427116,0.5,0.5,0.47256332268205,0.635334125493859,0.5,0.5,0.5,0.5,0.681660843362793,0.47256332268205,0.5,0.5,0.5,0.69912918079944,0.416969254027042,0.583030745972958,0.5,0.69912918079944,0.0360800498510532,0.222964066604277,-0.5,-0.0274366773179501,0.5,0.0548733546359003,0.898098568891884,2.69374671363214,2.78915830803793,0.5,86.6757419962279
CBC_1146,CBC_1146_MSI_AV_v3_Vset4_Aset3_2024-09-11_14h37.04.530.csv,1,40,2,3,b,1,0,3,aud,C,63,1,2C,3C,1,0,b,1.42612160000044,1,0,1,1,2C,3C,C23,2.62103882411258,0.622931685208785,0.431941669427116,0.5,0.5,0.47256332268205,0.635334125493859,0.5,0.5,0.5,0.5,0.681660843362793,0.47256332268205,0.5,0.47256332268205,0.5,0.69912918079944,0.590579250908103,0.409420749091897,0.681660843362793,0.47256332268205,0.42624737118238,0.795796981619626,0.318339156637207,0.0174683374366469,0.5,0.0548733546359003,0.898098568891884,2.69374671363214,2.78915830803793,0.5,86.6757419962279
CBC_1146,CBC_1146_MSI_AV_v3_Vset4_Aset3_2024-09-11_14h37.04.530.csv,1,41,2,0,z,0,1,0,aud,A,27,1,2A,0A,0,1,z,3.99596939999992,0,1,1,1,0A,2A,A20,3.3322045101752,0.622931685208785,0.431941669427116,0.5,0.5,0.47256332268205,0.635334125493859,0.5,0.5,0.5,0.5,0.69912918079944,0.47256332268205,0.5,0.47256332268205,0.5,0.69912918079944,0.554736938510168,0.445263061489832,0.622931685208785,0.5,0.0745842708093207,0.694130793234632,0.377068314791215,0.0206910033594996,0.5,0.0548733546359003,0.898098568891884,2.69374671363214,2.78915830803793,0.5,86.6757419962279
CBC_1146,CBC_1146_MSI_AV_v3_Vset4_Aset3_2024-09-11_14h37.04.530.csv,1,42,3,2,b,1,0,1,aud,D,63,1,3D,2D,1,0,b,1.69074450000062,1,0,1,1,3D,2D,D32,2.94443897916644,0.643622688568284,0.431941669427116,0.5,0.5,0.47256332268205,0.635334125493859,0.5,0.5,0.5,0.5,0.69912918079944,0.47256332268205,0.5,0.47256332268205,0.5,0.69912918079944,0.583030745972958,0.416969254027042,0.69912918079944,0.5,0.398327894341747,0.776776258346593,0.30087081920056,0.0165097911615862,0.5,0.0548733546359003,0.898098568891884,2.69374671363214,2.78915830803793,0.5,86.6757419962279
CBC_1146,CBC_1146_MSI_AV_v3_Vset4_Aset3_2024-09-11_14h37.04.530.csv,1,43,3,1,z,0,1,2,aud,B,27,1,3B,1B,0,1,z,1.77465770000072,0,1,1,1,1B,3B,B31,3.36729582998647,0.643622688568284,0.431941669427116,0.5,0.5,0.47256332268205,0.635334125493859,0.5,0.5,0.5,0.5,0.69912918079944,0.47256332268205,0.5,0.47256332268205,0.5,0.715638971961026,0.559601011920165,0.440398988079835,0.635334125493859,0.5,0.333866025274107,0.70946607816339,0.364665874506141,0.0200104398553862,0.5,0.0548733546359003,0.898098568891884,2.69374671363214,2.78915830803793,0.5,86.6757419962279
CBC_1146,CBC_1146_MSI_AV_v3_Vset4_Aset3_2024-09-11_14h37.04.530.csv,1,44,2,3,b,1,0,3,aud,C,63,1,2C,3C,1,0,b,2.67852420000054,1,0,1,1,2C,3C,C23,2.46809953147162,0.643622688568284,0.431941669427116,0.5,0.5,0.47256332268205,0.655344565349245,0.5,0.5,0.5,0.5,0.69912918079944,0.47256332268205,0.5,0.47256332268205,0.5,0.715638971961026,0.596683155966342,0.403316844033658,0.69912918079944,0.47256332268205,0.211824909636007,0.810093668665749,0.30087081920056,0.0165097911615862,0.5,0.0548733546359003,0.898098568891884,2.69374671363214,2.78915830803793,0.5,86.6757419962279
CBC_1146,CBC_1146_MSI_TV_v3_Vset6_Tset1_2024-09-11_14h45.07.369.csv,2,1,0,1,z,0,1,2,tac,B,63,1,0B,1B,0,1,z,2.4870549999996,0,1,1,1,1B,0B,B01,2.77258872223978,0.5,0.5,0.5,0.5,0.5,0.5,0.5,0.5,0.5,0.5,0.5,0.5,0.5,0.5,0.5,0.5,0.5,0.5,0.5,0.5,0.162892340967396,0.500408056198529,0.5,0.00468281091987333,0.5,0.00936562183974665,1.09625725042683,3.28697913177785,2.96455586564669,0.5,81.8798684945235
CBC_1146,CBC_1146_MSI_TV_v3_Vset6_Tset1_2024-09-11_14h45.07.369.csv,2,2,0,1,b,1,0,0,tac,A,63,1,0A,1A,1,0,b,2.59410250000019,1,0,1,1,0A,1A,A01,2.83321334405622,0.5,0.5,0.5,0.5,0.5,0.504682810919873,0.5,0.5,0.5,0.5,0.5,0.5,0.5,0.5,0.5,0.5,0.5,0.5,0.5,0.5,0.153404191043497,0.499341805240062,0.5,0.00468281091987333,0.5,0.00936562183974665,1.09625725042683,3.28697913177785,2.96455586564669,0.5,81.8798684945235
CBC_1146,CBC_1146_MSI_TV_v3_Vset6_Tset1_2024-09-11_14h45.07.369.csv,2,3,2,3,z,0,1,1,tac,D,63,1,2D,3D,0,1,z,2.6349768,0,1,1,1,3D,2D,D23,2.89037175789616,0.504682810919873,0.5,0.5,0.5,0.5,0.504682810919873,0.5,0.5,0.5,0.5,0.5,0.5,0.5,0.5,0.5,0.5,0.5,0.5,0.5,0.5,0.150097337215073,0.499618938612954,0.5,0.00468281091987333,0.5,0.00936562183974665,1.09625725042683,3.28697913177785,2.96455586564669,0.5,81.8798684945235
CBC_1146,CBC_1146_MSI_TV_v3_Vset6_Tset1_2024-09-11_14h45.07.369.csv,2,4,2,1,z,0,1,2,tac,B,9,1,2B,1B,0,1,z,2.62006930000007,0,1,1,1,1B,2B,B21,2.94443897916644,0.504682810919873,0.5,0.5,0.5,0.5,0.504682810919873,0.5,0.5,0.5,0.5,0.5,0.5,0.5,0.5,0.5,0.504682810919873,0.502330492205588,0.497669507794412,0.504682810919873,0.5,0.154529810752026,0.510159035800782,0.495317189080127,0.00463895348365076,0.5,0.00936562183974665,1.09625725042683,3.28697913177785,2.96455586564669,0.5,81.8798684945235
CBC_1146,CBC_1146_MSI_TV_v3_Vset6_Tset1_2024-09-11_14h45.07.369.csv,2,5,0,2,b,1,0,0,tac,A,27,1,0A,2A,1,0,b,2.66796599999998,1,0,1,1,0A,2A,A02,2.99573227355399,0.504682810919873,0.5,0.5,0.5,0.5,0.509321764403524,0.5,0.5,0.5,0.5,0.5,0.5,0.5,0.5,0.5,0.504682810919873,0.502330492205588,0.497669507794412,0.504682810919873,0.5,0.151008617849773,0.511798136838509,0.495317189080127,0.00463895348365076,0.5,0.00936562183974665,1.09625725042683,3.28697913177785,2.96455586564669,0.5,81.8798684945235
CBC_1146,CBC_1146_MSI_TV_v3_Vset6_Tset1_2024-09-11_14h45.07.369.csv,2,6,2,3,b,1,0,3,tac,C,63,1,2C,3C,1,0,z,3.09747549999975,0,1,0,0,3C,2C,C23,3.04452243772342,0.509321764403524,0.5,0.5,0.5,0.5,0.509321764403524,0.5,0.5,0.5,0.5,0.5,0.5,0.5,0.5,0.5,0.504682810919873,0.5,0.5,0.5,0.5,0.11608407612275,0.499672155806612,-0.5,-0.00468281091987333,0.5,0.00936562183974665,1.09625725042683,3.28697913177785,2.96455586564669,0.5,81.8798684945235
CBC_1146,CBC_1146_MSI_TV_v3_Vset6_Tset1_2024-09-11_14h45.07.369.csv,2,7,1,3,z,0,1,1,tac,D,27,1,1D,3D,0,1,b,2.8078990999993,1,0,0,0,1D,3D,D13,3.09104245335832,0.509321764403524,0.5,0.5,0.5,0.5,0.509321764403524,0.5,0.5,0.5,0.5,0.5,0.495317189080127,0.5,0.5,0.5,0.504682810919873,0.497669507794412,0.502330492205588,0.5,0.504682810919873,0.133405064031202,0.488516149935366,-0.5,-0.00468281091987333,0.5,0.00936562183974665,1.09625725042683,3.28697913177785,2.96455586564669,0.5,81.8798684945235
CBC_1146,CBC_1146_MSI_TV_v3_Vset6_Tset1_2024-09-11_14h45.07.369.csv,2,8,1,0,z,0,1,0,tac,A,63,1,1A,0A,0,1,b,2.68734249999943,1,0,0,0,1A,0A,A10,3.13549421592915,0.509321764403524,0.5,0.5,0.5,0.5,0.509321764403524,0.5,0.5,0.5,0.5,0.5,0.495317189080127,0.5,0.495317189080127,0.5,0.504682810919873,0.495382164175845,0.504617835824155,0.5,0.509321764403524,0.139531085859734,0.477877619715033,-0.5,-0.00468281091987333,0.5,0.00936562183974665,1.09625725042683,3.28697913177785,2.96455586564669,0.5,81.8798684945235
CBC_1146,CBC_1146_MSI_TV_v3_Vset6_Tset1_2024-09-11_14h45.07.369.csv,2,9,2,0,b,1,0,3,tac,C,27,1,2C,0C,1,0,b,3.00280629999997,1,0,1,1,2C,0C,C20,3.17805383034795,0.509321764403524,0.495317189080127,0.5,0.5,0.5,0.509321764403524,0.5,0.5,0.5,0.5,0.5,0.495317189080127,0.5,0.495317189080127,0.5,0.504682810919873,0.5,0.5,0.5,0.5,0.122484834090211,0.500029076155396,0.5,0.00468281091987333,0.5,0.00936562183974665,1.09625725042683,3.28697913177785,2.96455586564669,0.5,81.8798684945235
CBC_1146,CBC_1146_MSI_TV_v3_Vset6_Tset1_2024-09-11_14h45.07.369.csv,2,10,2,3,z,0,1,1,tac,D,63,1,2D,3D,0,1,b,2.7466658000003,1,0,0,0,2D,3D,D23,2.52572864430826,0.509321764403524,0.495317189080127,0.5,0.5,0.5,0.509321764403524,0.5,0.5,0.5,0.5,0.504682810919873,0.495317189080127,0.5,0.495317189080127,0.5,0.504682810919873,0.497669507794412,0.502330492205588,0.5,0.504682810919873,0.138091037122577,0.488795659978672,-0.5,-0.00468281091987333,0.5,0.00936562183974665,1.09625725042683,3.28697913177785,2.96455586564669,0.5,81.8798684945235
CBC_1146,CBC_1146_MSI_TV_v3_Vset6_Tset1_2024-09-11_14h45.07.369.csv,2,11,1,0,b,1,0,2,tac,B,63,1,1B,0B,1,0,z,3.34286979999979,0,1,0,0,0B,1B,B10,3.25809653802148,0.509321764403524,0.495317189080127,0.5,0.5,0.5,0.509321764403524,0.5,0.5,0.5,0.5,0.504682810919873,0.495317189080127,0.5,0.495317189080127,0.495317189080127,0.504682810919873,0.495382164175845,0.504617835824155,0.5,0.509321764403524,0.0966719359488635,0.477480354729773,-0.5,-0.00468281091987333,0.5,0.00936562183974665,1.09625725042683,3.28697913177785,2.96455586564669,0.5,81.8798684945235
CBC_1146,CBC_1146_MSI_TV_v3_Vset6_Tset1_2024-09-11_14h45.07.369.csv,2,12,0,1,b,1,0,0,tac,A,63,1,0A,1A,1,0,z,3.1991881999993,0,1,0,0,1A,0A,A01,2.60268968544438,0.509321764403524,0.495317189080127,0.5,0.5,0.495317189080127,0.509321764403524,0.5,0.5,0.5,0.5,0.504682810919873,0.495317189080127,0.5,0.495317189080127,0.495317189080127,0.504682810919873,0.493030045632396,0.506969954367604,0.495317189080127,0.509321764403524,0.102392682892728,0.466534795193588,-0.495317189080127,-0.00463895348365076,0.5,0.00936562183974665,1.09625725042683,3.28697913177785,2.96455586564669,0.5,81.8798684945235
CBC_1146,CBC_1146_MSI_TV_v3_Vset6_Tset1_2024-09-11_14h45.07.369.csv,2,13,2,3,z,0,1,1,tac,D,63,1,2D,3D,0,1,z,2.77627959999973,0,1,1,1,3D,2D,D23,2.23359222150709,0.509321764403524,0.490678235596476,0.5,0.5,0.495317189080127,0.509321764403524,0.5,0.5,0.5,0.5,0.504682810919873,0.495317189080127,0.5,0.495317189080127,0.495317189080127,0.504682810919873,0.504682810919873,0.495317189080127,0.504682810919873,0.495317189080127,0.145242554851488,0.522519741427703,0.495317189080127,0.00463895348365076,0.5,0.00936562183974665,1.09625725042683,3.28697913177785,2.96455586564669,0.5,81.8798684945235
CBC_1146,CBC_1146_MSI_TV_v3_Vset6_Tset1_2024-09-11_14h45.07.369.csv,2,14,2,0,b,1,0,3,tac,C,27,1,2C,0C,1,0,z,3.1434049999998,0,1,0,0,0C,2C,C20,2.67414864942653,0.509321764403524,0.490678235596476,0.5,0.5,0.495317189080127,0.509321764403524,0.5,0.5,0.5,0.5,0.504682810919873,0.495317189080127,0.5,0.495317189080127,0.495317189080127,0.509321764403524,0.497669507794412,0.502330492205588,0.5,0.504682810919873,0.110679988414675,0.488814541822338,-0.5,-0.00468281091987333,0.5,0.00936562183974665,1.09625725042683,3.28697913177785,2.96455586564669,0.5,81.8798684945235
CBC_1146,CBC_1146_MSI_TV_v3_Vset6_Tset1_2024-09-11_14h45.07.369.csv,2,15,0,1,b,1,0,0,tac,A,63,1,0A,1A,1,0,z,2.54828169999928,0,1,0,0,1A,0A,A01,2.30258509299405,0.509321764403524,0.490678235596476,0.5,0.5,0.495317189080127,0.509321764403524,0.5,0.5,0.495317189080127,0.5,0.504682810919873,0.495317189080127,0.5,0.495317189080127,0.495317189080127,0.509321764403524,0.490678235596476,0.509321764403524,0.490678235596476,0.509321764403524,0.143489428180885,0.45495256622748,-0.490678235596476,-0.00459550679959071,0.5,0.00936562183974665,1.09625725042683,3.28697913177785,2.96455586564669,0.5,81.8798684945235
CBC_1146,CBC_1146_MSI_TV_v3_Vset6_Tset1_2024-09-11_14h45.07.369.csv,2,16,1,3,b,1,0,2,tac,B,27,1,1B,3B,1,0,z,3.00960209999994,0,1,0,0,3B,1B,B13,3.43398720448515,0.509321764403524,0.486082728796885,0.5,0.5,0.495317189080127,0.509321764403524,0.5,0.5,0.495317189080127,0.5,0.504682810919873,0.495317189080127,0.5,0.495317189080127,0.495317189080127,0.509321764403524,0.495382164175845,0.504617835824155,0.5,0.509321764403524,0.116524641093067,0.477445093087607,-0.5,-0.00468281091987333,0.5,0.00936562183974665,1.09625725042683,3.28697913177785,2.96455586564669,0.5,81.8798684945235
CBC_1146,CBC_1146_MSI_TV_v3_Vset6_Tset1_2024-09-11_14h45.07.369.csv,2,17,3,2,z,0,1,3,tac,C,63,1,3C,2C,0,1,z,3.07084939999913,0,1,1,1,2C,3C,C32,3.46573590279973,0.509321764403524,0.486082728796885,0.5,0.5,0.495317189080127,0.509321764403524,0.5,0.495317189080127,0.495317189080127,0.5,0.504682810919873,0.495317189080127,0.5,0.495317189080127,0.495317189080127,0.509321764403524,0.504682810919873,0.495317189080127,0.504682810919873,0.495317189080127,0.12325745365288,0.522646882650736,0.495317189080127,0.00463895348365076,0.5,0.00936562183974665,1.09625725042683,3.28697913177785,2.96455586564669,0.5,81.8798684945235
CBC_1146,CBC_1146_MSI_TV_v3_Vset6_Tset1_2024-09-11_14h45.07.369.csv,2,18,2,3,z,0,1,1,tac,D,63,0,2D,3D,1,0,z,2.88326460000008,0,1,1,0,3D,2D,D23,2.11021320034659,0.509321764403524,0.486082728796885,0.5,0.5,0.495317189080127,0.509321764403524,0.5,0.495317189080127,0.495317189080127,0.5,0.509321764403524,0.495317189080127,0.5,0.495317189080127,0.495317189080127,0.509321764403524,0.506969954367604,0.493030045632396,0.509321764403524,0.495317189080127,0.139928696866947,0.534142005178837,-0.509321764403524,-0.00477011504015594,0.5,0.00936562183974665,1.09625725042683,3.28697913177785,2.96455586564669,0.5,81.8798684945235
CBC_1146,CBC_1146_MSI_TV_v3_Vset6_Tset1_2024-09-11_14h45.07.369.csv,2,19,1,0,b,1,0,2,tac,B,63,1,1B,0B,1,0,z,4.17636949999996,0,1,0,0,0B,1B,B10,2.83321334405622,0.509321764403524,0.486082728796885,0.5,0.5,0.495317189080127,0.509321764403524,0.5,0.495317189080127,0.495317189080127,0.5,0.509321764403524,0.495317189080127,0.5,0.495317189080127,0.495317189080127,0.504551649363368,0.493030045632396,0.506969954367604,0.495317189080127,0.509321764403524,0.0590475803318235,0.46607174697734,-0.495317189080127,-0.00463895348365076,0.5,0.00936562183974665,1.09625725042683,3.28697913177785,2.96455586564669,0.5,81.8798684945235
CBC_1146,CBC_1146_MSI_TV_v3_Vset6_Tset1_2024-09-11_14h45.07.369.csv,2,20,2,0,z,0,1,0,tac,A,27,1,2A,0A,0,1,b,2.25129970000035,1,0,0,0,2A,0A,A20,3.55534806148941,0.509321764403524,0.486082728796885,0.5,0.5,0.490678235596476,0.509321764403524,0.5,0.495317189080127,0.495317189080127,0.5,0.509321764403524,0.495317189080127,0.5,0.495317189080127,0.495317189080127,0.504551649363368,0.495382164175845,0.504617835824155,0.5,0.509321764403524,0.175743381530551,0.477986424776246,-0.5,-0.00468281091987333,0.5,0.00936562183974665,1.09625725042683,3.28697913177785,2.96455586564669,0.5,81.8798684945235
CBC_1146,CBC_1146_MSI_TV_v3_Vset6_Tset1_2024-09-11_14h45.07.369.csv,2,21,0,3,z,0,1,1,tac,D,9,1,0D,3D,0,1,z,2.413648499999,0,1,1,1,3D,0D,D03,3.58351893845611,0.509321764403524,0.486082728796885,0.495317189080127,0.5,0.490678235596476,0.509321764403524,0.5,0.495317189080127,0.495317189080127,0.5,0.509321764403524,0.495317189080127,0.5,0.495317189080127,0.495317189080127,0.504551649363368,0.50226551286151,0.49773448713849,0.504551649363368,0.5,0.172740003085793,0.510352728724146,0.495448350636632,0.0046401818931889,0.5,0.00936562183974665,1.09625725042683,3.28697913177785,2.96455586564669,0.5,81.8798684945235
CBC_1146,CBC_1146_MSI_TV_v3_Vset6_Tset1_2024-09-11_14h45.07.369.csv,2,22,2,3,b,1,0,3,tac,C,63,1,2C,3C,1,0,z,2.42089729999952,0,1,0,0,3C,2C,C23,2.91777073208428,0.509321764403524,0.486082728796885,0.495317189080127,0.5,0.490678235596476,0.509321764403524,0.5,0.495317189080127,0.495317189080127,0.5,0.509321764403524,0.495317189080127,0.5,0.495317189080127,0.495317189080127,0.509191831256557,0.493030045632396,0.506969954367604,0.495317189080127,0.509321764403524,0.157190499383833,0.465791349591807,-0.495317189080127,-0.00463895348365076,0.5,0.00936562183974665,1.09625725042683,3.28697913177785,2.96455586564669,0.5,81.8798684945235
CBC_1146,CBC_1146_MSI_TV_v3_Vset6_Tset1_2024-09-11_14h45.07.369.csv,2,23,3,1,z,0,1,2,tac,B,27,1,3B,1B,NaN,NaN,None,NaN,NaN,NaN,NaN,NaN,,,B31,3.63758615972639,0.509321764403524,0.486082728796885,0.495317189080127,0.5,0.490678235596476,0.509321764403524,0.5,0.495317189080127,0.495317189080127,0.5,0.509321764403524,0.490678235596476,0.5,0.495317189080127,0.495317189080127,0.509191831256557,0,0,0,0,NaN,0,0,0,0.5,0.00936562183974665,1.09625725042683,3.28697913177785,2.96455586564669,0.5,81.8798684945235
CBC_1146,CBC_1146_MSI_TV_v3_Vset6_Tset1_2024-09-11_14h45.07.369.csv,2,24,3,2,z,0,1,3,tac,C,63,1,3C,2C,0,1,b,2.42598879999969,1,0,0,0,3C,2C,C32,2.9704144655697,0.509321764403524,0.486082728796885,0.495317189080127,0.5,0.490678235596476,0.509321764403524,0.5,0.495317189080127,0.495317189080127,0.5,0.509321764403524,0.490678235596476,0.5,0.495317189080127,0.495317189080127,0.509191831256557,0.490678235596476,0.509321764403524,0.490678235596476,0.509321764403524,0.153635245564236,0.456210821132687,-0.490678235596476,-0.00459550679959071,0.5,0.00936562183974665,1.09625725042683,3.28697913177785,2.96455586564669,0.5,81.8798684945235
CBC_1146,CBC_1146_MSI_TV_v3_Vset6_Tset1_2024-09-11_14h45.07.369.csv,2,25,2,3,z,0,1,1,tac,D,63,1,2D,3D,0,1,z,2.4831836000003,0,1,1,1,3D,2D,D23,2.07944154167984,0.509321764403524,0.486082728796885,0.495317189080127,0.5,0.490678235596476,0.509321764403524,0.5,0.495317189080127,0.495317189080127,0.5,0.509321764403524,0.486082728796885,0.5,0.495317189080127,0.495317189080127,0.509191831256557,0.506906180977738,0.493093819022262,0.509191831256557,0.495317189080127,0.174480218150445,0.534429274111486,0.490808168743443,0.00459672370430965,0.5,0.00936562183974665,1.09625725042683,3.28697913177785,2.96455586564669,0.5,81.8798684945235
CBC_1146,CBC_1146_MSI_TV_v3_Vset6_Tset1_2024-09-11_14h45.07.369.csv,2,26,1,0,b,1,0,2,tac,B,63,1,1B,0B,1,0,b,2.69166119999954,1,0,1,1,1B,0B,B10,2.6149597780362,0.509321764403524,0.486082728796885,0.495317189080127,0.5,0.490678235596476,0.509321764403524,0.5,0.495317189080127,0.495317189080127,0.5,0.509321764403524,0.486082728796885,0.5,0.495317189080127,0.495317189080127,0.513788554960867,0.509321764403524,0.490678235596476,0.509321764403524,0.490678235596476,0.159030281729492,0.545486236630281,0.490678235596476,0.00459550679959071,0.5,0.00936562183974665,1.09625725042683,3.28697913177785,2.96455586564669,0.5,81.8798684945235
CBC_1146,CBC_1146_MSI_TV_v3_Vset6_Tset1_2024-09-11_14h45.07.369.csv,2,27,0,3,b,1,0,0,tac,A,9,1,0A,3A,1,0,b,3.99195229999987,1,0,1,1,0A,3A,A03,3.73766961828337,0.509321764403524,0.486082728796885,0.495317189080127,0.5,0.490678235596476,0.513917271203115,0.5,0.495317189080127,0.495317189080127,0.5,0.509321764403524,0.486082728796885,0.5,0.495317189080127,0.495317189080127,0.513788554960867,0.504617835824155,0.495382164175845,0.509321764403524,0.5,0.0733682654125073,0.521815646174764,0.490678235596476,0.00459550679959071,0.5,0.00936562183974665,1.09625725042683,3.28697913177785,2.96455586564669,0.5,81.8798684945235
CBC_1146,CBC_1146_MSI_TV_v3_Vset6_Tset1_2024-09-11_14h45.07.369.csv,2,28,2,3,z,0,1,1,tac,D,63,1,2D,3D,0,1,z,2.84519699999964,0,1,1,1,3D,2D,D23,1.96944064646551,0.513917271203115,0.486082728796885,0.495317189080127,0.5,0.490678235596476,0.513917271203115,0.5,0.495317189080127,0.495317189080127,0.5,0.509321764403524,0.486082728796885,0.5,0.495317189080127,0.495317189080127,0.513788554960867,0.509152344038183,0.490847655961817,0.513788554960867,0.495317189080127,0.146202756395684,0.546152269481889,0.486211445039133,0.00455367252839329,0.5,0.00936562183974665,1.09625725042683,3.28697913177785,2.96455586564669,0.5,81.8798684945235
CBC_1146,CBC_1146_MSI_TV_v3_Vset6_Tset1_2024-09-11_14h45.07.369.csv,2,29,2,0,b,1,0,3,tac,C,27,1,2C,0C,NaN,NaN,None,NaN,NaN,NaN,NaN,NaN,,,C20,2.68557734525015,0.513917271203115,0.486082728796885,0.495317189080127,0.5,0.490678235596476,0.513917271203115,0.5,0.495317189080127,0.495317189080127,0.5,0.509321764403524,0.486082728796885,0.5,0.495317189080127,0.495317189080127,0.51834222748926,0,0,0,0,NaN,0,0,0,0.5,0.00936562183974665,1.09625725042683,3.28697913177785,2.96455586564669,0.5,81.8798684945235
CBC_1146,CBC_1146_MSI_TV_v3_Vset6_Tset1_2024-09-11_14h45.07.369.csv,2,30,1,0,z,0,1,0,tac,A,63,1,1A,0A,0,1,z,2.48258040000019,0,1,1,1,0A,1A,A10,3.11351530921037,0.513917271203115,0.486082728796885,0.495317189080127,0.5,0.490678235596476,0.513917271203115,0.5,0.495317189080127,0.495317189080127,0.5,0.509321764403524,0.486082728796885,0.5,0.495317189080127,0.495317189080127,0.51834222748926,0.513917271203115,0.486082728796885,0.513917271203115,0.486082728796885,0.185879453000901,0.567726676829428,0.486082728796885,0.00455246702074376,0.5,0.00936562183974665,1.09625725042683,3.28697913177785,2.96455586564669,0.5,81.8798684945235
CBC_1146,CBC_1146_MSI_TV_v3_Vset6_Tset1_2024-09-11_14h45.07.369.csv,2,31,1,0,b,1,0,2,tac,B,63,1,1B,0B,1,0,b,2.80094170000029,1,0,1,1,1B,0B,B10,2.4423470353692,0.518469738223859,0.486082728796885,0.495317189080127,0.5,0.490678235596476,0.513917271203115,0.5,0.495317189080127,0.495317189080127,0.5,0.509321764403524,0.486082728796885,0.5,0.495317189080127,0.495317189080127,0.51834222748926,0.511566364496629,0.488433635503371,0.513917271203115,0.490678235596476,0.152704896099265,0.556277231497052,0.486082728796885,0.00455246702074376,0.5,0.00936562183974665,1.09625725042683,3.28697913177785,2.96455586564669,0.5,81.8798684945235
CBC_1146,CBC_1146_MSI_TV_v3_Vset6_Tset1_2024-09-11_14h45.07.369.csv,2,32,3,1,b,1,0,1,tac,D,27,1,3D,1D,1,0,z,5.52723789999982,0,1,0,0,1D,3D,D31,3.85014760171006,0.518469738223859,0.486082728796885,0.495317189080127,0.5,0.490678235596476,0.518469738223859,0.5,0.495317189080127,0.495317189080127,0.5,0.509321764403524,0.486082728796885,0.5,0.495317189080127,0.495317189080127,0.51834222748926,0.488642616034161,0.511357383965839,0.495317189080127,0.51834222748926,0.0262874137954838,0.445326021795911,-0.495317189080127,-0.00463895348365076,0.5,0.00936562183974665,1.09625725042683,3.28697913177785,2.96455586564669,0.5,81.8798684945235
CBC_1146,CBC_1146_MSI_TV_v3_Vset6_Tset1_2024-09-11_14h45.07.369.csv,2,33,3,2,z,0,1,3,tac,C,63,1,3C,2C,0,1,b,3.50069499999972,1,0,0,0,3C,2C,C32,2.77258872223978,0.518469738223859,0.486082728796885,0.495317189080127,0.5,0.490678235596476,0.518469738223859,0.5,0.495317189080127,0.495317189080127,0.5,0.509321764403524,0.486082728796885,0.5,0.490678235596476,0.495317189080127,0.51834222748926,0.488326838101805,0.511673161898195,0.486082728796885,0.509321764403524,0.082243937221193,0.444091312369383,-0.486082728796885,-0.00455246702074376,0.5,0.00936562183974665,1.09625725042683,3.28697913177785,2.96455586564669,0.5,81.8798684945235
CBC_1146,CBC_1146_MSI_TV_v3_Vset6_Tset1_2024-09-11_14h45.07.369.csv,2,34,1,0,b,1,0,2,tac,B,63,1,1B,0B,1,0,b,2.44027569999889,1,0,1,1,1B,0B,B10,2.28238238567653,0.518469738223859,0.486082728796885,0.495317189080127,0.5,0.490678235596476,0.518469738223859,0.5,0.495317189080127,0.495317189080127,0.5,0.509321764403524,0.481530261776141,0.5,0.490678235596476,0.495317189080127,0.51834222748926,0.513769785674826,0.486230214325174,0.518469738223859,0.490678235596476,0.189651387482446,0.566337496775263,0.481530261776141,0.00450983033618955,0.5,0.00936562183974665,1.09625725042683,3.28697913177785,2.96455586564669,0.5,81.8798684945235
CBC_1146,CBC_1146_MSI_TV_v3_Vset6_Tset1_2024-09-11_14h45.07.369.csv,2,35,0,1,b,1,0,0,tac,A,63,1,0A,1A,1,0,b,2.92785290000029,1,0,1,1,0A,1A,A01,2.52572864430826,0.518469738223859,0.486082728796885,0.495317189080127,0.5,0.490678235596476,0.522979568560048,0.5,0.495317189080127,0.495317189080127,0.5,0.509321764403524,0.481530261776141,0.5,0.490678235596476,0.495317189080127,0.51834222748926,0.516120118406073,0.483879881593927,0.518469738223859,0.486082728796885,0.147928483866721,0.577983009417744,0.481530261776141,0.00450983033618955,0.5,0.00936562183974665,1.09625725042683,3.28697913177785,2.96455586564669,0.5,81.8798684945235
CBC_1146,CBC_1146_MSI_TV_v3_Vset6_Tset1_2024-09-11_14h45.07.369.csv,2,36,1,2,z,0,1,3,tac,C,9,1,1C,2C,0,1,z,3.00927489999958,0,1,1,1,2C,1C,C12,3.93182563272433,0.522979568560048,0.486082728796885,0.495317189080127,0.5,0.490678235596476,0.522979568560048,0.5,0.495317189080127,0.495317189080127,0.5,0.509321764403524,0.481530261776141,0.5,0.490678235596476,0.495317189080127,0.51834222748926,0.504617835824155,0.495382164175845,0.509321764403524,0.5,0.127302692182388,0.521517481455488,0.490678235596476,0.00459550679959071,0.5,0.00936562183974665,1.09625725042683,3.28697913177785,2.96455586564669,0.5,81.8798684945235
CBC_1146,CBC_1146_MSI_TV_v3_Vset6_Tset1_2024-09-11_14h45.07.369.csv,2,37,1,0,z,0,1,0,tac,A,63,1,1A,0A,NaN,NaN,None,NaN,NaN,NaN,NaN,NaN,,,A10,2.85263142991332,0.522979568560048,0.486082728796885,0.495317189080127,0.5,0.490678235596476,0.522979568560048,0.5,0.495317189080127,0.495317189080127,0.5,0.513917271203115,0.481530261776141,0.5,0.490678235596476,0.495317189080127,0.51834222748926,0,0,0,0,NaN,0,0,0,0.5,0.00936562183974665,1.09625725042683,3.28697913177785,2.96455586564669,0.5,81.8798684945235
CBC_1146,CBC_1146_MSI_TV_v3_Vset6_Tset1_2024-09-11_14h45.07.369.csv,2,38,3,1,b,1,0,1,tac,D,27,1,3D,1D,1,0,z,2.46923830000014,0,1,0,0,1D,3D,D31,3.27714473299218,0.522979568560048,0.486082728796885,0.495317189080127,0.5,0.490678235596476,0.522979568560048,0.5,0.495317189080127,0.495317189080127,0.5,0.513917271203115,0.481530261776141,0.5,0.490678235596476,0.495317189080127,0.51834222748926,0.486291659631865,0.513708340368135,0.490678235596476,0.51834222748926,0.142803035303393,0.433074497747646,-0.490678235596476,-0.00459550679959071,0.5,0.00936562183974665,1.09625725042683,3.28697913177785,2.96455586564669,0.5,81.8798684945235
CBC_1146,CBC_1146_MSI_TV_v3_Vset6_Tset1_2024-09-11_14h45.07.369.csv,2,39,0,1,z,0,1,2,tac,B,63,1,0B,1B,0,1,z,2.35598240000036,0,1,1,1,1B,0B,B01,3.29583686600433,0.522979568560048,0.486082728796885,0.495317189080127,0.5,0.490678235596476,0.522979568560048,0.5,0.495317189080127,0.495317189080127,0.5,0.513917271203115,0.481530261776141,0.5,0.486082728796885,0.495317189080127,0.51834222748926,0.515933055924356,0.484066944075644,0.522979568560048,0.490678235596476,0.202132999145596,0.576689932421256,0.477020431439952,0.00446759297069938,0.5,0.00936562183974665,1.09625725042683,3.28697913177785,2.96455586564669,0.5,81.8798684945235
CBC_1146,CBC_1146_MSI_TV_v3_Vset6_Tset1_2024-09-11_14h45.07.369.csv,2,40,2,3,b,1,0,3,tac,C,63,0,2C,3C,0,1,z,3.92784649999976,0,1,0,1,3C,2C,C23,2.90872089656436,0.522979568560048,0.486082728796885,0.495317189080127,0.5,0.490678235596476,0.527447161530748,0.5,0.495317189080127,0.495317189080127,0.5,0.513917271203115,0.481530261776141,0.5,0.486082728796885,0.495317189080127,0.51834222748926,0.483732437745843,0.516267562254157,0.481530261776141,0.513917271203115,0.0613752737820905,0.422466933491831,0.518469738223859,0.0048557915035571,0.5,0.00936562183974665,1.09625725042683,3.28697913177785,2.96455586564669,0.5,81.8798684945235
CBC_1146,CBC_1146_MSI_TV_v3_Vset6_Tset1_2024-09-11_14h45.07.369.csv,2,41,2,0,z,0,1,0,tac,A,27,1,2A,0A,0,1,z,1.89875789999951,0,1,1,1,0A,2A,A20,3.3322045101752,0.522979568560048,0.486082728796885,0.495317189080127,0.5,0.490678235596476,0.527447161530748,0.5,0.495317189080127,0.495317189080127,0.5,0.513917271203115,0.486386053279699,0.5,0.486082728796885,0.495317189080127,0.51834222748926,0.513582670902354,0.486417329097646,0.522979568560048,0.495317189080127,0.238007943947071,0.565643246270914,0.477020431439952,0.00446759297069938,0.5,0.00936562183974665,1.09625725042683,3.28697913177785,2.96455586564669,0.5,81.8798684945235
CBC_1146,CBC_1146_MSI_TV_v3_Vset6_Tset1_2024-09-11_14h45.07.369.csv,2,42,3,2,b,1,0,1,tac,D,63,1,3D,2D,1,0,z,3.55442080000012,0,1,0,0,2D,3D,D32,4.04305126783455,0.527447161530748,0.486082728796885,0.495317189080127,0.5,0.490678235596476,0.527447161530748,0.5,0.495317189080127,0.495317189080127,0.5,0.513917271203115,0.486386053279699,0.5,0.486082728796885,0.495317189080127,0.51834222748926,0.488642616034161,0.511357383965839,0.495317189080127,0.51834222748926,0.0800476803941705,0.445515412119219,-0.495317189080127,-0.00463895348365076,0.5,0.00936562183974665,1.09625725042683,3.28697913177785,2.96455586564669,0.5,81.8798684945235
CBC_1146,CBC_1146_MSI_TV_v3_Vset6_Tset1_2024-09-11_14h45.07.369.csv,2,43,3,1,z,0,1,2,tac,B,27,1,3B,1B,0,1,z,3.41243269999995,0,1,1,1,1B,3B,B31,3.36729582998647,0.527447161530748,0.486082728796885,0.495317189080127,0.5,0.490678235596476,0.527447161530748,0.5,0.495317189080127,0.495317189080127,0.5,0.513917271203115,0.486386053279699,0.5,0.486082728796885,0.490678235596476,0.51834222748926,0.515707417075806,0.484292582924194,0.527447161530748,0.495317189080127,0.111889909818301,0.575006003500385,0.472552838469252,0.0044257511844019,0.5,0.00936562183974665,1.09625725042683,3.28697913177785,2.96455586564669,0.5,81.8798684945235
CBC_1146,CBC_1146_MSI_TV_v3_Vset6_Tset1_2024-09-11_14h45.07.369.csv,2,44,2,3,b,1,0,3,tac,C,63,1,2C,3C,1,0,z,4.51166550000016,0,1,0,0,3C,2C,C23,2.69124308278583,0.527447161530748,0.486082728796885,0.495317189080127,0.5,0.490678235596476,0.531872912715149,0.5,0.495317189080127,0.495317189080127,0.5,0.513917271203115,0.486386053279699,0.5,0.486082728796885,0.490678235596476,0.51834222748926,0.48623856521838,0.51376143478162,0.486386053279699,0.513917271203115,0.0454105569621682,0.434385568791181,-0.486386053279699,-0.00455530784314452,0.5,0.00936562183974665,1.09625725042683,3.28697913177785,2.96455586564669,0.5,81.8798684945235
