ID,filename,session,trial,visStimLeft,visStimRight,correctKey,leftCorrect,rightCorrect,secondStim,mod2Type,mod2Stim,frequency,rewardAccurate,stimPairLeft,stimPairRight,pCorrectLeft,pCorrectRight,key,reactionTime,choiceLeft,choiceRight,choiceAccurate,reward,chosenPair,otherPair,triplet,surprise,0A belief,1A belief,2A belief,3A belief,0B belief,1B belief,2B belief,3B belief,0C belief,1C belief,2C belief,3C belief,0D belief,1D belief,2D belief,3D belief,beliefPairNorm,beliefOtherPairNorm,beliefPair,beliefOtherPair,lik,corrLik,rewardPE,update2,fitCBCsimpleRW_CBCdriftDiffusionLR_pwBelief_startBelief,fitCBCsimpleRW_CBCdriftDiffusionLR_pwBelief_alpha1,fitCBCsimpleRW_CBCdriftDiffusionLR_pwBelief_nonDecisionTime,fitCBCsimpleRW_CBCdriftDiffusionLR_pwBelief_weight,fitCBCsimpleRW_CBCdriftDiffusionLR_pwBelief_startingBoundary,fitCBCsimpleRW_CBCdriftDiffusionLR_pwBelief_startingPoint,fit_CBCsimpleRW_CBCdriftDiffusionLR_pwBelief_NLL
CBC_1038,CBC_1038_MSI_AV_v3_Vset4_Aset1_2024-05-04_09h31.10.662.csv,1,1,3,1,z,0,1,1,aud,B,27,1,3B,1B,0,1,z,2.88622609999993,0,1,1,1,1B,3B,B31,2.77258872223978,0.5,0.5,0.5,0.5,0.5,0.5,0.5,0.5,0.5,0.5,0.5,0.5,0.5,0.5,0.5,0.5,0.5,0.5,0.5,0.5,0.0658249966032066,0.500275573444425,0.5,0.00048828125,0.5,0.0009765625,0.649149803505932,2.11828309834502,2.19298592952099,0.5,64.6895274053637
CBC_1038,CBC_1038_MSI_AV_v3_Vset4_Aset1_2024-05-04_09h31.10.662.csv,1,2,2,3,b,1,0,3,aud,C,63,1,2C,3C,1,0,b,1.37158779999982,1,0,1,1,2C,3C,C23,2.83321334405622,0.5,0.5,0.5,0.5,0.5,0.50048828125,0.5,0.5,0.5,0.5,0.5,0.5,0.5,0.5,0.5,0.5,0.5,0.5,0.5,0.5,0.309080567839184,0.500478357957779,0.5,0.00048828125,0.5,0.0009765625,0.649149803505932,2.11828309834502,2.19298592952099,0.5,64.6895274053637
CBC_1038,CBC_1038_MSI_AV_v3_Vset4_Aset1_2024-05-04_09h31.10.662.csv,1,3,2,3,z,0,1,0,aud,D,63,1,2D,3D,0,1,z,1.72719280000047,0,1,1,1,3D,2D,D23,2.89037175789616,0.5,0.5,0.5,0.5,0.5,0.50048828125,0.5,0.5,0.5,0.5,0.50048828125,0.5,0.5,0.5,0.5,0.5,0.5,0.5,0.5,0.5,0.215631247254933,0.499122865694687,0.5,0.00048828125,0.5,0.0009765625,0.649149803505932,2.11828309834502,2.19298592952099,0.5,64.6895274053637
CBC_1038,CBC_1038_MSI_AV_v3_Vset4_Aset1_2024-05-04_09h31.10.662.csv,1,4,1,0,b,1,0,1,aud,B,63,1,1B,0B,1,0,z,4.27475170000025,0,1,0,0,0B,1B,B10,2.94443897916644,0.5,0.5,0.5,0.5,0.5,0.50048828125,0.5,0.5,0.5,0.5,0.50048828125,0.5,0.5,0.5,0.5,0.50048828125,0.49951171875,0.50048828125,0.5,0.50048828125,0.0157752152144132,0.498400130579448,-0.5,-0.00048828125,0.5,0.0009765625,0.649149803505932,2.11828309834502,2.19298592952099,0.5,64.6895274053637
CBC_1038,CBC_1038_MSI_AV_v3_Vset4_Aset1_2024-05-04_09h31.10.662.csv,1,5,3,0,z,0,1,2,aud,A,9,1,3A,0A,0,1,z,1.77118220000057,0,1,1,1,0A,3A,A30,2.99573227355399,0.5,0.5,0.5,0.5,0.49951171875,0.50048828125,0.5,0.5,0.5,0.5,0.50048828125,0.5,0.5,0.5,0.5,0.50048828125,0.5,0.5,0.5,0.5,0.206357612616457,0.499646694963899,0.5,0.00048828125,0.5,0.0009765625,0.649149803505932,2.11828309834502,2.19298592952099,0.5,64.6895274053637
CBC_1038,CBC_1038_MSI_AV_v3_Vset4_Aset1_2024-05-04_09h31.10.662.csv,1,6,2,3,z,0,1,0,aud,D,63,1,2D,3D,NaN,NaN,[],NaN,NaN,NaN,NaN,NaN,,,D23,2.35137525716348,0.50048828125,0.5,0.5,0.5,0.49951171875,0.50048828125,0.5,0.5,0.5,0.5,0.50048828125,0.5,0.5,0.5,0.5,0.50048828125,0,0,0,0,NaN,0,0,0,0.5,0.0009765625,0.649149803505932,2.11828309834502,2.19298592952099,0.5,64.6895274053637
CBC_1038,CBC_1038_MSI_AV_v3_Vset4_Aset1_2024-05-04_09h31.10.662.csv,1,7,2,0,b,1,0,3,aud,C,27,1,2C,0C,1,0,b,1.20315030000029,1,0,1,1,2C,0C,C20,3.09104245335832,0.50048828125,0.5,0.5,0.5,0.49951171875,0.50048828125,0.5,0.5,0.5,0.5,0.50048828125,0.5,0.5,0.5,0.5,0.50048828125,0.50048828125,0.49951171875,0.50048828125,0.5,0.35908649648877,0.501180216431731,0.49951171875,0.000487804412841797,0.5,0.0009765625,0.649149803505932,2.11828309834502,2.19298592952099,0.5,64.6895274053637
CBC_1038,CBC_1038_MSI_AV_v3_Vset4_Aset1_2024-05-04_09h31.10.662.csv,1,8,1,0,z,0,1,2,aud,A,63,1,1A,0A,0,1,b,2.7398289000007,1,0,0,0,1A,0A,A10,3.13549421592915,0.50048828125,0.5,0.5,0.5,0.49951171875,0.50048828125,0.5,0.5,0.5,0.5,0.500976085662842,0.5,0.5,0.5,0.5,0.50048828125,0.49951171875,0.50048828125,0.5,0.50048828125,0.0763150529036112,0.499101617603923,-0.5,-0.00048828125,0.5,0.0009765625,0.649149803505932,2.11828309834502,2.19298592952099,0.5,64.6895274053637
CBC_1038,CBC_1038_MSI_AV_v3_Vset4_Aset1_2024-05-04_09h31.10.662.csv,1,9,0,1,z,0,1,1,aud,B,63,1,0B,1B,0,1,b,2.91651279999996,1,0,0,0,0B,1B,B01,3.17805383034795,0.50048828125,0.49951171875,0.5,0.5,0.49951171875,0.50048828125,0.5,0.5,0.5,0.5,0.500976085662842,0.5,0.5,0.5,0.5,0.50048828125,0.499023438431322,0.500976561568678,0.49951171875,0.50048828125,0.0634726247382817,0.497629461408325,-0.49951171875,-0.000487804412841797,0.5,0.0009765625,0.649149803505932,2.11828309834502,2.19298592952099,0.5,64.6895274053637
CBC_1038,CBC_1038_MSI_AV_v3_Vset4_Aset1_2024-05-04_09h31.10.662.csv,1,10,3,1,b,1,0,0,aud,D,27,1,3D,1D,1,0,b,2.05542230000037,1,0,1,1,3D,1D,D31,3.2188758248682,0.50048828125,0.49951171875,0.5,0.5,0.499023914337158,0.50048828125,0.5,0.5,0.5,0.5,0.500976085662842,0.5,0.5,0.5,0.5,0.50048828125,0.50048828125,0.49951171875,0.50048828125,0.5,0.154705684867349,0.501302256947869,0.49951171875,0.000487804412841797,0.5,0.0009765625,0.649149803505932,2.11828309834502,2.19298592952099,0.5,64.6895274053637
CBC_1038,CBC_1038_MSI_AV_v3_Vset4_Aset1_2024-05-04_09h31.10.662.csv,1,11,2,3,b,1,0,3,aud,C,63,1,2C,3C,NaN,NaN,[],NaN,NaN,NaN,NaN,NaN,,,C23,2.56494935746154,0.50048828125,0.49951171875,0.5,0.5,0.499023914337158,0.50048828125,0.5,0.5,0.5,0.5,0.500976085662842,0.5,0.5,0.5,0.5,0.500976085662842,0,0,0,0,NaN,0,0,0,0.5,0.0009765625,0.649149803505932,2.11828309834502,2.19298592952099,0.5,64.6895274053637
CBC_1038,CBC_1038_MSI_AV_v3_Vset4_Aset1_2024-05-04_09h31.10.662.csv,1,12,0,1,z,0,1,1,aud,B,63,1,0B,1B,0,1,b,0.938377100000707,1,0,0,0,0B,1B,B01,2.60268968544438,0.50048828125,0.49951171875,0.5,0.5,0.499023914337158,0.50048828125,0.5,0.5,0.5,0.5,0.500976085662842,0.5,0.5,0.5,0.5,0.500976085662842,0.498535635878847,0.501464364121153,0.499023914337158,0.50048828125,0.350074854542681,0.497433388956243,-0.499023914337158,-0.000487328041344881,0.5,0.0009765625,0.649149803505932,2.11828309834502,2.19298592952099,0.5,64.6895274053637
CBC_1038,CBC_1038_MSI_AV_v3_Vset4_Aset1_2024-05-04_09h31.10.662.csv,1,13,1,0,z,0,1,2,aud,A,63,1,1A,0A,0,1,b,2.99172370000042,1,0,0,0,1A,0A,A10,2.63905732961526,0.50048828125,0.49951171875,0.5,0.5,0.498536586295813,0.50048828125,0.5,0.5,0.5,0.5,0.500976085662842,0.5,0.5,0.5,0.5,0.500976085662842,0.499023438431322,0.500976561568678,0.49951171875,0.50048828125,0.058681730827948,0.49698416591549,-0.49951171875,-0.000487804412841797,0.5,0.0009765625,0.649149803505932,2.11828309834502,2.19298592952099,0.5,64.6895274053637
CBC_1038,CBC_1038_MSI_AV_v3_Vset4_Aset1_2024-05-04_09h31.10.662.csv,1,14,2,1,b,1,0,3,aud,C,9,1,2C,1C,1,0,z,1.90926770000033,0,1,0,0,1C,2C,C21,3.36729582998647,0.50048828125,0.499023914337158,0.5,0.5,0.498536586295813,0.50048828125,0.5,0.5,0.5,0.5,0.500976085662842,0.5,0.5,0.5,0.5,0.500976085662842,0.499023914337158,0.500976085662842,0.5,0.500976085662842,0.178621167464175,0.498222596947675,-0.5,-0.00048828125,0.5,0.0009765625,0.649149803505932,2.11828309834502,2.19298592952099,0.5,64.6895274053637
CBC_1038,CBC_1038_MSI_AV_v3_Vset4_Aset1_2024-05-04_09h31.10.662.csv,1,15,0,1,b,1,0,2,aud,A,63,1,0A,1A,1,0,b,3.04523440000003,1,0,1,1,0A,1A,A01,3.40119738166216,0.50048828125,0.499023914337158,0.5,0.5,0.498536586295813,0.50048828125,0.5,0.5,0.5,0.49951171875,0.500976085662842,0.5,0.5,0.5,0.5,0.500976085662842,0.501464364121153,0.498535635878847,0.50048828125,0.499023914337158,0.0561855603965734,0.502700781161999,0.49951171875,0.000487804412841797,0.5,0.0009765625,0.649149803505932,2.11828309834502,2.19298592952099,0.5,64.6895274053637
CBC_1038,CBC_1038_MSI_AV_v3_Vset4_Aset1_2024-05-04_09h31.10.662.csv,1,16,1,3,z,0,1,0,aud,D,27,1,1D,3D,0,1,b,1.93010869999989,1,0,0,0,1D,3D,D13,3.43398720448515,0.500976085662842,0.499023914337158,0.5,0.5,0.498536586295813,0.50048828125,0.5,0.5,0.5,0.49951171875,0.500976085662842,0.5,0.5,0.5,0.5,0.500976085662842,0.499023914337158,0.500976085662842,0.5,0.500976085662842,0.174644169940318,0.497651964992268,-0.5,-0.00048828125,0.5,0.0009765625,0.649149803505932,2.11828309834502,2.19298592952099,0.5,64.6895274053637
CBC_1038,CBC_1038_MSI_AV_v3_Vset4_Aset1_2024-05-04_09h31.10.662.csv,1,17,1,0,b,1,0,1,aud,B,63,1,1B,0B,1,0,b,1.11903839999968,1,0,1,1,1B,0B,B10,2.77258872223978,0.500976085662842,0.499023914337158,0.5,0.5,0.498536586295813,0.50048828125,0.5,0.5,0.5,0.49951171875,0.500976085662842,0.5,0.5,0.49951171875,0.5,0.500976085662842,0.50195168937581,0.49804831062419,0.50048828125,0.498536586295813,0.38151041449164,0.504891792531296,0.49951171875,0.000487804412841797,0.5,0.0009765625,0.649149803505932,2.11828309834502,2.19298592952099,0.5,64.6895274053637
CBC_1038,CBC_1038_MSI_AV_v3_Vset4_Aset1_2024-05-04_09h31.10.662.csv,1,18,3,2,z,0,1,3,aud,C,63,0,3C,2C,1,0,z,1.85573830000021,0,1,1,0,2C,3C,C32,3.49650756146648,0.500976085662842,0.499023914337158,0.5,0.5,0.498536586295813,0.500976085662842,0.5,0.5,0.5,0.49951171875,0.500976085662842,0.5,0.5,0.49951171875,0.5,0.500976085662842,0.500976085662842,0.499023914337158,0.500976085662842,0.5,0.189813335067233,0.501170480690215,-0.500976085662842,-0.000489234458655119,0.5,0.0009765625,0.649149803505932,2.11828309834502,2.19298592952099,0.5,64.6895274053637
CBC_1038,CBC_1038_MSI_AV_v3_Vset4_Aset1_2024-05-04_09h31.10.662.csv,1,19,0,2,b,1,0,2,aud,A,27,1,0A,2A,1,0,b,2.30683960000033,1,0,1,1,0A,2A,A02,3.52636052461616,0.500976085662842,0.499023914337158,0.5,0.5,0.498536586295813,0.500976085662842,0.5,0.5,0.5,0.49951171875,0.500486851204187,0.5,0.5,0.49951171875,0.5,0.500976085662842,0.500976085662842,0.499023914337158,0.500976085662842,0.5,0.119724276929585,0.502119345257203,0.499023914337158,0.000487328041344881,0.5,0.0009765625,0.649149803505932,2.11828309834502,2.19298592952099,0.5,64.6895274053637
CBC_1038,CBC_1038_MSI_AV_v3_Vset4_Aset1_2024-05-04_09h31.10.662.csv,1,20,2,3,z,0,1,0,aud,D,63,1,2D,3D,0,1,b,1.26831309999989,1,0,0,0,2D,3D,D23,2.4567357728213,0.501463413704187,0.499023914337158,0.5,0.5,0.498536586295813,0.500976085662842,0.5,0.5,0.5,0.49951171875,0.500486851204187,0.5,0.5,0.49951171875,0.5,0.500976085662842,0.499023914337158,0.500976085662842,0.5,0.500976085662842,0.338186488580471,0.497882290063182,-0.5,-0.00048828125,0.5,0.0009765625,0.649149803505932,2.11828309834502,2.19298592952099,0.5,64.6895274053637
CBC_1038,CBC_1038_MSI_AV_v3_Vset4_Aset1_2024-05-04_09h31.10.662.csv,1,21,1,3,b,1,0,1,aud,B,27,1,1B,3B,1,0,z,1.22028670000009,0,1,0,0,3B,1B,B13,3.58351893845611,0.501463413704187,0.499023914337158,0.5,0.5,0.498536586295813,0.500976085662842,0.5,0.5,0.5,0.49951171875,0.500486851204187,0.5,0.5,0.49951171875,0.49951171875,0.500976085662842,0.499023914337158,0.500976085662842,0.5,0.500976085662842,0.352059592247351,0.497944768459982,-0.5,-0.00048828125,0.5,0.0009765625,0.649149803505932,2.11828309834502,2.19298592952099,0.5,64.6895274053637
CBC_1038,CBC_1038_MSI_AV_v3_Vset4_Aset1_2024-05-04_09h31.10.662.csv,1,22,2,3,b,1,0,3,aud,C,63,1,2C,3C,NaN,NaN,[],NaN,NaN,NaN,NaN,NaN,,,C23,2.51230562397611,0.501463413704187,0.499023914337158,0.5,0.5,0.498536586295813,0.500976085662842,0.5,0.49951171875,0.5,0.49951171875,0.500486851204187,0.5,0.5,0.49951171875,0.49951171875,0.500976085662842,0,0,0,0,NaN,0,0,0,0.5,0.0009765625,0.649149803505932,2.11828309834502,2.19298592952099,0.5,64.6895274053637
CBC_1038,CBC_1038_MSI_AV_v3_Vset4_Aset1_2024-05-04_09h31.10.662.csv,1,23,1,0,z,0,1,2,aud,A,63,1,1A,0A,0,1,z,1.38008330000093,0,1,1,1,0A,1A,A10,2.53897387105828,0.501463413704187,0.499023914337158,0.5,0.5,0.498536586295813,0.500976085662842,0.5,0.49951171875,0.5,0.49951171875,0.500486851204187,0.5,0.5,0.49951171875,0.49951171875,0.500976085662842,0.502439485428617,0.497560514571383,0.501463413704187,0.499023914337158,0.310076666701542,0.506198184966401,0.498536586295813,0.000486852135054505,0.5,0.0009765625,0.649149803505932,2.11828309834502,2.19298592952099,0.5,64.6895274053637
CBC_1038,CBC_1038_MSI_AV_v3_Vset4_Aset1_2024-05-04_09h31.10.662.csv,1,24,1,2,b,1,0,1,aud,B,9,1,1B,2B,1,0,z,3.51956000000018,0,1,0,0,2B,1B,B12,3.66356164612965,0.501950265839241,0.499023914337158,0.5,0.5,0.498536586295813,0.500976085662842,0.5,0.49951171875,0.5,0.49951171875,0.500486851204187,0.5,0.5,0.49951171875,0.49951171875,0.500976085662842,0.499023914337158,0.500976085662842,0.5,0.500976085662842,0.0342374465623817,0.498380068210836,-0.5,-0.00048828125,0.5,0.0009765625,0.649149803505932,2.11828309834502,2.19298592952099,0.5,64.6895274053637
CBC_1038,CBC_1038_MSI_AV_v3_Vset4_Aset1_2024-05-04_09h31.10.662.csv,1,25,3,2,z,0,1,3,aud,C,63,1,3C,2C,0,1,b,1.00220390000004,1,0,0,0,3C,2C,C32,2.99573227355399,0.501950265839241,0.499023914337158,0.5,0.5,0.498536586295813,0.500976085662842,0.49951171875,0.49951171875,0.5,0.49951171875,0.500486851204187,0.5,0.5,0.49951171875,0.49951171875,0.500976085662842,0.499513148795813,0.500486851204187,0.5,0.500486851204187,0.378371815519187,0.497978941162067,-0.5,-0.00048828125,0.5,0.0009765625,0.649149803505932,2.11828309834502,2.19298592952099,0.5,64.6895274053637
CBC_1038,CBC_1038_MSI_AV_v3_Vset4_Aset1_2024-05-04_09h31.10.662.csv,1,26,3,2,b,1,0,0,aud,D,63,1,3D,2D,NaN,NaN,[],NaN,NaN,NaN,NaN,NaN,,,D32,3.71357206670431,0.501950265839241,0.499023914337158,0.5,0.5,0.498536586295813,0.500976085662842,0.49951171875,0.49951171875,0.5,0.49951171875,0.500486851204187,0.49951171875,0.5,0.49951171875,0.49951171875,0.500976085662842,0,0,0,0,NaN,0,0,0,0.5,0.0009765625,0.649149803505932,2.11828309834502,2.19298592952099,0.5,64.6895274053637
CBC_1038,CBC_1038_MSI_AV_v3_Vset4_Aset1_2024-05-04_09h31.10.662.csv,1,27,1,0,b,1,0,1,aud,B,63,1,1B,0B,1,0,b,1.15352310000026,1,0,1,1,1B,0B,B10,2.63905732961526,0.501950265839241,0.499023914337158,0.5,0.5,0.498536586295813,0.500976085662842,0.49951171875,0.49951171875,0.5,0.49951171875,0.500486851204187,0.49951171875,0.5,0.49951171875,0.49951171875,0.500976085662842,0.502439485428617,0.497560514571383,0.500976085662842,0.498536586295813,0.374544003343056,0.505114100975723,0.499023914337158,0.000487328041344881,0.5,0.0009765625,0.649149803505932,2.11828309834502,2.19298592952099,0.5,64.6895274053637
CBC_1038,CBC_1038_MSI_AV_v3_Vset4_Aset1_2024-05-04_09h31.10.662.csv,1,28,2,0,z,0,1,2,aud,A,27,1,2A,0A,0,1,z,2.05855070000007,0,1,1,1,0A,2A,A20,3.76120011569356,0.501950265839241,0.499023914337158,0.5,0.5,0.498536586295813,0.501463413704187,0.49951171875,0.49951171875,0.5,0.49951171875,0.500486851204187,0.49951171875,0.5,0.49951171875,0.49951171875,0.500976085662842,0.501950265839241,0.498049734160759,0.501950265839241,0.5,0.154912688331716,0.503588575526237,0.498049734160759,0.000486376693516366,0.5,0.0009765625,0.649149803505932,2.11828309834502,2.19298592952099,0.5,64.6895274053637
CBC_1038,CBC_1038_MSI_AV_v3_Vset4_Aset1_2024-05-04_09h31.10.662.csv,1,29,3,1,b,1,0,0,aud,D,27,1,3D,1D,1,0,z,1.54156730000022,0,1,0,0,1D,3D,D31,3.09104245335832,0.502436642532758,0.499023914337158,0.5,0.5,0.498536586295813,0.501463413704187,0.49951171875,0.49951171875,0.5,0.49951171875,0.500486851204187,0.49951171875,0.5,0.49951171875,0.49951171875,0.500976085662842,0.498535635878847,0.501464364121153,0.49951171875,0.500976085662842,0.25926748496789,0.496811285886972,-0.49951171875,-0.000487804412841797,0.5,0.0009765625,0.649149803505932,2.11828309834502,2.19298592952099,0.5,64.6895274053637
CBC_1038,CBC_1038_MSI_AV_v3_Vset4_Aset1_2024-05-04_09h31.10.662.csv,1,30,0,1,b,1,0,2,aud,A,63,1,0A,1A,1,0,b,2.05766999999969,1,0,1,1,0A,1A,A01,3.11351530921037,0.502436642532758,0.499023914337158,0.5,0.5,0.498536586295813,0.501463413704187,0.49951171875,0.49951171875,0.5,0.49951171875,0.500486851204187,0.49951171875,0.5,0.499023914337158,0.49951171875,0.500976085662842,0.503412695728962,0.496587304271038,0.502436642532758,0.499023914337158,0.156397068943317,0.507963643151139,0.497563357467242,0.000485901716276604,0.5,0.0009765625,0.649149803505932,2.11828309834502,2.19298592952099,0.5,64.6895274053637
CBC_1038,CBC_1038_MSI_AV_v3_Vset4_Aset1_2024-05-04_09h31.10.662.csv,1,31,0,2,z,0,1,3,aud,C,27,1,0C,2C,0,1,z,1.44331069999998,0,1,1,1,2C,0C,C02,3.8286413964891,0.502922544249034,0.499023914337158,0.5,0.5,0.498536586295813,0.501463413704187,0.49951171875,0.49951171875,0.5,0.49951171875,0.500486851204187,0.49951171875,0.5,0.499023914337158,0.49951171875,0.500976085662842,0.500486851204187,0.499513148795813,0.500486851204187,0.5,0.288249987503159,0.500604971030825,0.499513148795813,0.000487805809370911,0.5,0.0009765625,0.649149803505932,2.11828309834502,2.19298592952099,0.5,64.6895274053637
CBC_1038,CBC_1038_MSI_AV_v3_Vset4_Aset1_2024-05-04_09h31.10.662.csv,1,32,3,2,b,1,0,0,aud,D,63,1,3D,2D,1,0,b,0.927074200000334,1,0,1,1,3D,2D,D32,3.15700042115011,0.502922544249034,0.499023914337158,0.5,0.5,0.498536586295813,0.501463413704187,0.49951171875,0.49951171875,0.5,0.49951171875,0.500974657013558,0.49951171875,0.5,0.499023914337158,0.49951171875,0.500976085662842,0.501464364121153,0.498535635878847,0.500976085662842,0.49951171875,0.345456393938957,0.503160393505143,0.499023914337158,0.000487328041344881,0.5,0.0009765625,0.649149803505932,2.11828309834502,2.19298592952099,0.5,64.6895274053637
CBC_1038,CBC_1038_MSI_AV_v3_Vset4_Aset1_2024-05-04_09h31.10.662.csv,1,33,0,1,z,0,1,1,aud,B,63,1,0B,1B,0,1,b,0.809529100000418,1,0,0,0,0B,1B,B01,2.77258872223978,0.502922544249034,0.499023914337158,0.5,0.5,0.498536586295813,0.501463413704187,0.49951171875,0.49951171875,0.5,0.49951171875,0.500974657013558,0.49951171875,0.5,0.499023914337158,0.49951171875,0.501463413704187,0.497073197663548,0.502926802336452,0.498536586295813,0.501463413704187,0.15829714101845,0.493262286400771,-0.498536586295813,-0.000486852135054505,0.5,0.0009765625,0.649149803505932,2.11828309834502,2.19298592952099,0.5,64.6895274053637
CBC_1038,CBC_1038_MSI_AV_v3_Vset4_Aset1_2024-05-04_09h31.10.662.csv,1,34,1,0,z,0,1,2,aud,A,63,1,1A,0A,0,1,b,1.29474530000016,1,0,0,0,1A,0A,A10,2.50552593699074,0.502922544249034,0.499023914337158,0.5,0.5,0.498049734160759,0.501463413704187,0.49951171875,0.49951171875,0.5,0.49951171875,0.500974657013558,0.49951171875,0.5,0.499023914337158,0.49951171875,0.501463413704187,0.496101414573378,0.503898585426622,0.499023914337158,0.502922544249034,0.32580493580747,0.49099085332198,-0.499023914337158,-0.000487328041344881,0.5,0.0009765625,0.649149803505932,2.11828309834502,2.19298592952099,0.5,64.6895274053637
CBC_1038,CBC_1038_MSI_AV_v3_Vset4_Aset1_2024-05-04_09h31.10.662.csv,1,35,3,2,b,1,0,0,aud,D,63,0,3D,2D,0,1,z,2.61768910000001,0,1,0,1,2D,3D,D32,2.81341071676004,0.502922544249034,0.498536586295813,0.5,0.5,0.498049734160759,0.501463413704187,0.49951171875,0.49951171875,0.5,0.49951171875,0.500974657013558,0.49951171875,0.5,0.499023914337158,0.49951171875,0.501463413704187,0.49804831062419,0.50195168937581,0.49951171875,0.501463413704187,0.0860402553235698,0.496428749071794,0.50048828125,0.000488758087158203,0.5,0.0009765625,0.649149803505932,2.11828309834502,2.19298592952099,0.5,64.6895274053637
CBC_1038,CBC_1038_MSI_AV_v3_Vset4_Aset1_2024-05-04_09h31.10.662.csv,1,36,0,2,z,0,1,3,aud,C,27,1,0C,2C,0,1,b,1.20242910000024,1,0,0,0,0C,2C,C02,3.23867845216438,0.502922544249034,0.498536586295813,0.5,0.5,0.498049734160759,0.501463413704187,0.49951171875,0.49951171875,0.5,0.49951171875,0.500974657013558,0.49951171875,0.5,0.499023914337158,0.500000476837158,0.501463413704187,0.499025342986442,0.500974657013558,0.5,0.500974657013558,0.356586945996501,0.497417430535352,-0.5,-0.00048828125,0.5,0.0009765625,0.649149803505932,2.11828309834502,2.19298592952099,0.5,64.6895274053637
CBC_1038,CBC_1038_MSI_AV_v3_Vset4_Aset1_2024-05-04_09h31.10.662.csv,1,37,1,0,z,0,1,2,aud,A,63,1,1A,0A,0,1,z,1.22745239999995,0,1,1,1,0A,1A,A10,2.34180580614733,0.502922544249034,0.498536586295813,0.5,0.5,0.498049734160759,0.501463413704187,0.49951171875,0.49951171875,0.49951171875,0.49951171875,0.500974657013558,0.49951171875,0.5,0.499023914337158,0.500000476837158,0.501463413704187,0.504385882921443,0.495614117078557,0.502922544249034,0.498536586295813,0.358897637293765,0.51047903221046,0.497077455750966,0.000485427202881803,0.5,0.0009765625,0.649149803505932,2.11828309834502,2.19298592952099,0.5,64.6895274053637
CBC_1038,CBC_1038_MSI_AV_v3_Vset4_Aset1_2024-05-04_09h31.10.662.csv,1,38,3,1,z,0,1,1,aud,B,27,1,3B,1B,0,1,z,1.53136029999996,0,1,1,1,1B,3B,B31,3.27714473299218,0.503407971451916,0.498536586295813,0.5,0.5,0.498049734160759,0.501463413704187,0.49951171875,0.49951171875,0.49951171875,0.49951171875,0.500974657013558,0.49951171875,0.5,0.499023914337158,0.500000476837158,0.501463413704187,0.50195168937581,0.49804831062419,0.501463413704187,0.49951171875,0.266501505190899,0.505434637090991,0.498536586295813,0.000486852135054505,0.5,0.0009765625,0.649149803505932,2.11828309834502,2.19298592952099,0.5,64.6895274053637
CBC_1038,CBC_1038_MSI_AV_v3_Vset4_Aset1_2024-05-04_09h31.10.662.csv,1,39,2,3,b,1,0,3,aud,C,63,1,2C,3C,1,0,z,1.41961209999999,0,1,0,0,3C,2C,C23,2.60268968544438,0.503407971451916,0.498536586295813,0.5,0.5,0.498049734160759,0.501950265839241,0.49951171875,0.49951171875,0.49951171875,0.49951171875,0.500974657013558,0.49951171875,0.5,0.499023914337158,0.500000476837158,0.501463413704187,0.498537064521326,0.501462935478674,0.49951171875,0.500974657013558,0.292587613332088,0.496399725834795,-0.49951171875,-0.000487804412841797,0.5,0.0009765625,0.649149803505932,2.11828309834502,2.19298592952099,0.5,64.6895274053637
CBC_1038,CBC_1038_MSI_AV_v3_Vset4_Aset1_2024-05-04_09h31.10.662.csv,1,40,2,3,z,0,1,0,aud,D,63,1,2D,3D,NaN,NaN,[],NaN,NaN,NaN,NaN,NaN,,,D23,2.62103882411258,0.503407971451916,0.498536586295813,0.5,0.5,0.498049734160759,0.501950265839241,0.49951171875,0.49951171875,0.49951171875,0.49951171875,0.500974657013558,0.499023914337158,0.5,0.499023914337158,0.500000476837158,0.501463413704187,0,0,0,0,NaN,0,0,0,0.5,0.0009765625,0.649149803505932,2.11828309834502,2.19298592952099,0.5,64.6895274053637
CBC_1038,CBC_1038_MSI_AV_v3_Vset4_Aset1_2024-05-04_09h31.10.662.csv,1,41,1,0,b,1,0,1,aud,B,63,1,1B,0B,1,0,z,0.825091000000157,0,1,0,0,0B,1B,B10,2.63905732961526,0.503407971451916,0.498536586295813,0.5,0.5,0.498049734160759,0.501950265839241,0.49951171875,0.49951171875,0.49951171875,0.49951171875,0.500974657013558,0.499023914337158,0.5,0.499023914337158,0.500000476837158,0.501463413704187,0.496099527663879,0.503900472336121,0.498049734160759,0.501950265839241,0.190882081698514,0.490550004998589,-0.498049734160759,-0.000486376693516366,0.5,0.0009765625,0.649149803505932,2.11828309834502,2.19298592952099,0.5,64.6895274053637
CBC_1038,CBC_1038_MSI_AV_v3_Vset4_Aset1_2024-05-04_09h31.10.662.csv,1,42,0,2,b,1,0,2,aud,A,27,1,0A,2A,NaN,NaN,[],NaN,NaN,NaN,NaN,NaN,,,A02,3.3499040872746,0.503407971451916,0.498536586295813,0.5,0.5,0.497563357467242,0.501950265839241,0.49951171875,0.49951171875,0.49951171875,0.49951171875,0.500974657013558,0.499023914337158,0.5,0.499023914337158,0.500000476837158,0.501463413704187,0,0,0,0,NaN,0,0,0,0.5,0.0009765625,0.649149803505932,2.11828309834502,2.19298592952099,0.5,64.6895274053637
CBC_1038,CBC_1038_MSI_AV_v3_Vset4_Aset1_2024-05-04_09h31.10.662.csv,1,43,0,3,z,0,1,0,aud,D,9,1,0D,3D,NaN,NaN,[],NaN,NaN,NaN,NaN,NaN,,,D03,4.06044301054642,0.503407971451916,0.498536586295813,0.5,0.5,0.497563357467242,0.501950265839241,0.49951171875,0.49951171875,0.49951171875,0.49951171875,0.500974657013558,0.499023914337158,0.5,0.499023914337158,0.500000476837158,0.501463413704187,0,0,0,0,NaN,0,0,0,0.5,0.0009765625,0.649149803505932,2.11828309834502,2.19298592952099,0.5,64.6895274053637
CBC_1038,CBC_1038_MSI_AV_v3_Vset4_Aset1_2024-05-04_09h31.10.662.csv,1,44,2,3,b,1,0,3,aud,C,63,1,2C,3C,1,0,b,2.83821959999977,1,0,1,1,2C,3C,C23,2.46809953147162,0.503407971451916,0.498536586295813,0.5,0.5,0.497563357467242,0.501950265839241,0.49951171875,0.49951171875,0.49951171875,0.49951171875,0.500974657013558,0.499023914337158,0.5,0.499023914337158,0.500000476837158,0.501463413704187,0.501950735253081,0.498049264746919,0.500974657013558,0.499023914337158,0.069788516308742,0.504924131317915,0.499025342986442,0.000487329436510198,0.5,0.0009765625,0.649149803505932,2.11828309834502,2.19298592952099,0.5,64.6895274053637
CBC_1038,CBC_1038_MSI_TV_v3_Vset6_Tset1_2024-05-04_09h40.02.212.csv,2,1,1,0,b,1,0,1,tac,B,63,1,1B,0B,1,0,z,1.63747689999946,0,1,0,0,0B,1B,B10,2.77258872223978,0.5,0.5,0.5,0.5,0.5,0.5,0.5,0.5,0.5,0.5,0.5,0.5,0.5,0.5,0.5,0.5,0.5,0.5,0.5,0.5,0.245236098206219,0.498999327270354,-0.5,-0.317873431564009,0.5,0.635746863128018,0.685388673771574,0.461099467351003,2.17175042496162,0.5,61.007401925135
CBC_1038,CBC_1038_MSI_TV_v3_Vset6_Tset1_2024-05-04_09h40.02.212.csv,2,2,1,0,z,0,1,2,tac,A,63,1,1A,0A,0,1,b,1.04649309999968,1,0,0,0,1A,0A,A10,2.83321334405622,0.5,0.5,0.5,0.5,0.182126568435991,0.5,0.5,0.5,0.5,0.5,0.5,0.5,0.5,0.5,0.5,0.5,0.5,0.5,0.5,0.5,0.390644403048694,0.500691986953401,-0.5,-0.317873431564009,0.5,0.635746863128018,0.685388673771574,0.461099467351003,2.17175042496162,0.5,61.007401925135
CBC_1038,CBC_1038_MSI_TV_v3_Vset6_Tset1_2024-05-04_09h40.02.212.csv,2,3,3,2,b,1,0,0,tac,D,63,1,3D,2D,1,0,b,1.72251620000043,1,0,1,1,3D,2D,D32,2.89037175789616,0.5,0.182126568435991,0.5,0.5,0.182126568435991,0.5,0.5,0.5,0.5,0.5,0.5,0.5,0.5,0.5,0.5,0.5,0.5,0.5,0.5,0.5,0.225218175065474,0.500646186174945,0.5,0.317873431564009,0.5,0.635746863128018,0.685388673771574,0.461099467351003,2.17175042496162,0.5,61.007401925135
CBC_1038,CBC_1038_MSI_TV_v3_Vset6_Tset1_2024-05-04_09h40.02.212.csv,2,4,1,2,b,1,0,1,tac,B,9,1,1B,2B,1,0,b,1.72706879999987,1,0,1,1,1B,2B,B12,2.94443897916644,0.5,0.182126568435991,0.5,0.5,0.182126568435991,0.5,0.5,0.5,0.5,0.5,0.5,0.5,0.5,0.5,0.5,0.817873431564009,0.5,0.5,0.5,0.5,0.223701112866081,0.499638688342442,0.5,0.317873431564009,0.5,0.635746863128018,0.685388673771574,0.461099467351003,2.17175042496162,0.5,61.007401925135
CBC_1038,CBC_1038_MSI_TV_v3_Vset6_Tset1_2024-05-04_09h40.02.212.csv,2,5,2,0,z,0,1,2,tac,A,27,1,2A,0A,0,1,b,1.72624629999973,1,0,0,0,2A,0A,A20,2.99573227355399,0.5,0.182126568435991,0.5,0.5,0.182126568435991,0.817873431564009,0.5,0.5,0.5,0.5,0.5,0.5,0.5,0.5,0.5,0.817873431564009,0.5,0.5,0.5,0.5,0.223855802069192,0.499555787202914,-0.5,-0.317873431564009,0.5,0.635746863128018,0.685388673771574,0.461099467351003,2.17175042496162,0.5,61.007401925135
CBC_1038,CBC_1038_MSI_TV_v3_Vset6_Tset1_2024-05-04_09h40.02.212.csv,2,6,3,2,z,0,1,3,tac,C,63,1,3C,2C,0,1,b,1.23047979999956,1,0,0,0,3C,2C,C32,3.04452243772342,0.5,0.182126568435991,0.182126568435991,0.5,0.182126568435991,0.817873431564009,0.5,0.5,0.5,0.5,0.5,0.5,0.5,0.5,0.5,0.817873431564009,0.5,0.5,0.5,0.5,0.364836901883979,0.500076609046725,-0.5,-0.317873431564009,0.5,0.635746863128018,0.685388673771574,0.461099467351003,2.17175042496162,0.5,61.007401925135
CBC_1038,CBC_1038_MSI_TV_v3_Vset6_Tset1_2024-05-04_09h40.02.212.csv,2,7,3,1,b,1,0,0,tac,D,27,1,3D,1D,1,0,b,1.35566859999926,1,0,1,1,3D,1D,D31,3.09104245335832,0.5,0.182126568435991,0.182126568435991,0.5,0.182126568435991,0.817873431564009,0.5,0.5,0.5,0.5,0.5,0.182126568435991,0.5,0.5,0.5,0.817873431564009,0.817873431564009,0.182126568435991,0.817873431564009,0.5,0.43629360490275,0.653838823756419,0.182126568435991,0.115786394575451,0.5,0.635746863128018,0.685388673771574,0.461099467351003,2.17175042496162,0.5,61.007401925135
CBC_1038,CBC_1038_MSI_TV_v3_Vset6_Tset1_2024-05-04_09h40.02.212.csv,2,8,0,1,b,1,0,2,tac,A,63,1,0A,1A,1,0,z,2.51368730000013,0,1,0,0,1A,0A,A01,3.13549421592915,0.5,0.182126568435991,0.182126568435991,0.5,0.182126568435991,0.817873431564009,0.5,0.5,0.5,0.5,0.5,0.182126568435991,0.5,0.5,0.5,0.933659826139461,0.182126568435991,0.817873431564009,0.182126568435991,0.5,0.0660688010983799,0.345727005910212,-0.182126568435991,-0.115786394575452,0.5,0.635746863128018,0.685388673771574,0.461099467351003,2.17175042496162,0.5,61.007401925135
CBC_1038,CBC_1038_MSI_TV_v3_Vset6_Tset1_2024-05-04_09h40.02.212.csv,2,9,0,2,z,0,1,3,tac,C,27,1,0C,2C,0,1,b,2.65848939999978,1,0,0,0,0C,2C,C02,3.17805383034795,0.5,0.0663401738605393,0.182126568435991,0.5,0.182126568435991,0.817873431564009,0.5,0.5,0.5,0.5,0.5,0.182126568435991,0.5,0.5,0.5,0.933659826139461,0.5,0.5,0.5,0.5,0.0845684390805568,0.50028436892816,-0.5,-0.317873431564009,0.5,0.635746863128018,0.685388673771574,0.461099467351003,2.17175042496162,0.5,61.007401925135
CBC_1038,CBC_1038_MSI_TV_v3_Vset6_Tset1_2024-05-04_09h40.02.212.csv,2,10,3,2,b,1,0,0,tac,D,63,1,3D,2D,1,0,b,1.70349369999985,1,0,1,1,3D,2D,D32,2.52572864430826,0.5,0.0663401738605393,0.182126568435991,0.5,0.182126568435991,0.817873431564009,0.5,0.5,0.182126568435991,0.5,0.5,0.182126568435991,0.5,0.5,0.5,0.933659826139461,0.933659826139461,0.0663401738605393,0.933659826139461,0.5,0.326596857223181,0.704629689459631,0.0663401738605393,0.0421755574312052,0.5,0.635746863128018,0.685388673771574,0.461099467351003,2.17175042496162,0.5,61.007401925135
CBC_1038,CBC_1038_MSI_TV_v3_Vset6_Tset1_2024-05-04_09h40.02.212.csv,2,11,0,1,z,0,1,1,tac,B,63,1,0B,1B,0,1,z,2.49467149999964,0,1,1,1,1B,0B,B01,3.25809653802148,0.5,0.0663401738605393,0.182126568435991,0.5,0.182126568435991,0.817873431564009,0.5,0.5,0.182126568435991,0.5,0.5,0.182126568435991,0.5,0.5,0.5,0.975835383570666,0.952755021553246,0.0472449784467538,0.817873431564009,0.182126568435991,0.134786647916309,0.711832171283377,0.182126568435991,0.115786394575451,0.5,0.635746863128018,0.685388673771574,0.461099467351003,2.17175042496162,0.5,61.007401925135
CBC_1038,CBC_1038_MSI_TV_v3_Vset6_Tset1_2024-05-04_09h40.02.212.csv,2,12,1,0,z,0,1,2,tac,A,63,1,1A,0A,NaN,NaN,None,NaN,NaN,NaN,NaN,NaN,,,A10,2.60268968544438,0.5,0.0663401738605393,0.182126568435991,0.5,0.182126568435991,0.933659826139461,0.5,0.5,0.182126568435991,0.5,0.5,0.182126568435991,0.5,0.5,0.5,0.975835383570666,0,0,0,0,NaN,0,0,0,0.5,0.635746863128018,0.685388673771574,0.461099467351003,2.17175042496162,0.5,61.007401925135
CBC_1038,CBC_1038_MSI_TV_v3_Vset6_Tset1_2024-05-04_09h40.02.212.csv,2,13,3,2,b,1,0,0,tac,D,63,1,3D,2D,1,0,b,1.19098180000037,1,0,1,1,3D,2D,D32,2.23359222150709,0.5,0.0663401738605393,0.182126568435991,0.5,0.182126568435991,0.933659826139461,0.5,0.5,0.182126568435991,0.5,0.5,0.182126568435991,0.5,0.5,0.5,0.975835383570666,0.975835383570666,0.0241646164293341,0.975835383570666,0.5,0.574987942482216,0.721030034109415,0.0241646164293341,0.0153625790936409,0.5,0.635746863128018,0.685388673771574,0.461099467351003,2.17175042496162,0.5,61.007401925135
CBC_1038,CBC_1038_MSI_TV_v3_Vset6_Tset1_2024-05-04_09h40.02.212.csv,2,14,0,2,z,0,1,3,tac,C,27,1,0C,2C,0,1,b,1.77873279999949,1,0,0,0,0C,2C,C02,2.67414864942653,0.5,0.0663401738605393,0.182126568435991,0.5,0.182126568435991,0.933659826139461,0.5,0.5,0.182126568435991,0.5,0.5,0.182126568435991,0.5,0.5,0.5,0.991197962664307,0.182126568435991,0.817873431564009,0.182126568435991,0.5,0.146847135369556,0.34514779412428,-0.182126568435991,-0.115786394575452,0.5,0.635746863128018,0.685388673771574,0.461099467351003,2.17175042496162,0.5,61.007401925135
CBC_1038,CBC_1038_MSI_TV_v3_Vset6_Tset1_2024-05-04_09h40.02.212.csv,2,15,1,0,z,0,1,2,tac,A,63,1,1A,0A,0,1,b,4.00225759999921,1,0,0,0,1A,0A,A10,2.30258509299405,0.5,0.0663401738605393,0.182126568435991,0.5,0.182126568435991,0.933659826139461,0.5,0.5,0.0663401738605393,0.5,0.5,0.182126568435991,0.5,0.5,0.5,0.991197962664307,0.0663401738605393,0.933659826139461,0.0663401738605393,0.5,0.0103024530745714,0.295722278070626,-0.0663401738605393,-0.0421755574312052,0.5,0.635746863128018,0.685388673771574,0.461099467351003,2.17175042496162,0.5,61.007401925135
CBC_1038,CBC_1038_MSI_TV_v3_Vset6_Tset1_2024-05-04_09h40.02.212.csv,2,16,3,1,z,0,1,1,tac,B,27,1,3B,1B,0,1,z,2.3717046999991,0,1,1,1,1B,3B,B31,3.43398720448515,0.5,0.0241646164293341,0.182126568435991,0.5,0.182126568435991,0.933659826139461,0.5,0.5,0.0663401738605393,0.5,0.5,0.182126568435991,0.5,0.5,0.5,0.991197962664307,0.933659826139461,0.0663401738605393,0.933659826139461,0.5,0.153980683119878,0.704841914249191,0.0663401738605393,0.0421755574312052,0.5,0.635746863128018,0.685388673771574,0.461099467351003,2.17175042496162,0.5,61.007401925135
CBC_1038,CBC_1038_MSI_TV_v3_Vset6_Tset1_2024-05-04_09h40.02.212.csv,2,17,2,3,b,1,0,3,tac,C,63,1,2C,3C,1,0,b,1.49448250000023,1,0,1,1,2C,3C,C23,3.46573590279973,0.5,0.0241646164293341,0.182126568435991,0.5,0.182126568435991,0.975835383570666,0.5,0.5,0.0663401738605393,0.5,0.5,0.182126568435991,0.5,0.5,0.5,0.991197962664307,0.817873431564009,0.182126568435991,0.5,0.182126568435991,0.377657479682651,0.653413163025187,0.5,0.317873431564009,0.5,0.635746863128018,0.685388673771574,0.461099467351003,2.17175042496162,0.5,61.007401925135
CBC_1038,CBC_1038_MSI_TV_v3_Vset6_Tset1_2024-05-04_09h40.02.212.csv,2,18,3,2,b,1,0,0,tac,D,63,0,3D,2D,0,1,b,1.42242319999968,1,0,1,0,3D,2D,D32,2.11021320034659,0.5,0.0241646164293341,0.182126568435991,0.5,0.182126568435991,0.975835383570666,0.5,0.5,0.0663401738605393,0.5,0.817873431564009,0.182126568435991,0.5,0.5,0.5,0.991197962664307,0.991197962664307,0.00880203733569318,0.991197962664307,0.5,0.46434927272442,0.728083543310319,-0.991197962664307,-0.630150995502716,0.5,0.635746863128018,0.685388673771574,0.461099467351003,2.17175042496162,0.5,61.007401925135
CBC_1038,CBC_1038_MSI_TV_v3_Vset6_Tset1_2024-05-04_09h40.02.212.csv,2,19,0,1,z,0,1,1,tac,B,63,1,0B,1B,0,1,b,2.51494970000022,1,0,0,0,0B,1B,B01,2.83321334405622,0.5,0.0241646164293341,0.182126568435991,0.5,0.182126568435991,0.975835383570666,0.5,0.5,0.0663401738605393,0.5,0.817873431564009,0.182126568435991,0.5,0.5,0.5,0.361046967161591,0.0054840612488902,0.99451593875111,0.182126568435991,0.975835383570666,0.0496472405405466,0.271552194019484,-0.182126568435991,-0.115786394575452,0.5,0.635746863128018,0.685388673771574,0.461099467351003,2.17175042496162,0.5,61.007401925135
CBC_1038,CBC_1038_MSI_TV_v3_Vset6_Tset1_2024-05-04_09h40.02.212.csv,2,20,0,2,b,1,0,2,tac,A,27,1,0A,2A,1,0,b,3.85838160000003,1,0,1,1,0A,2A,A02,3.55534806148941,0.5,0.0241646164293341,0.182126568435991,0.5,0.0663401738605393,0.975835383570666,0.5,0.5,0.0663401738605393,0.5,0.817873431564009,0.182126568435991,0.5,0.5,0.5,0.361046967161591,0.817873431564009,0.182126568435991,0.5,0.182126568435991,0.0288923494465179,0.654081636727702,0.5,0.317873431564009,0.5,0.635746863128018,0.685388673771574,0.461099467351003,2.17175042496162,0.5,61.007401925135
CBC_1038,CBC_1038_MSI_TV_v3_Vset6_Tset1_2024-05-04_09h40.02.212.csv,2,21,3,0,b,1,0,0,tac,D,9,1,3D,0D,1,0,b,1.3981388000002,1,0,1,1,3D,0D,D30,3.58351893845611,0.817873431564009,0.0241646164293341,0.182126568435991,0.5,0.0663401738605393,0.975835383570666,0.5,0.5,0.0663401738605393,0.5,0.817873431564009,0.182126568435991,0.5,0.5,0.5,0.361046967161591,0.361046967161591,0.638953032838409,0.361046967161591,0.5,0.271028049704473,0.430540285368703,0.638953032838409,0.406212386313152,0.5,0.635746863128018,0.685388673771574,0.461099467351003,2.17175042496162,0.5,61.007401925135
CBC_1038,CBC_1038_MSI_TV_v3_Vset6_Tset1_2024-05-04_09h40.02.212.csv,2,22,3,2,z,0,1,3,tac,C,63,1,3C,2C,0,1,b,2.378639999999,1,0,0,0,3C,2C,C32,2.91777073208428,0.817873431564009,0.0241646164293341,0.182126568435991,0.5,0.0663401738605393,0.975835383570666,0.5,0.5,0.0663401738605393,0.5,0.817873431564009,0.182126568435991,0.5,0.5,0.5,0.767259353474743,0.0472449784467538,0.952755021553246,0.182126568435991,0.817873431564009,0.0620940464803264,0.287620349052268,-0.182126568435991,-0.115786394575452,0.5,0.635746863128018,0.685388673771574,0.461099467351003,2.17175042496162,0.5,61.007401925135
CBC_1038,CBC_1038_MSI_TV_v3_Vset6_Tset1_2024-05-04_09h40.02.212.csv,2,23,1,3,b,1,0,1,tac,B,27,1,1B,3B,1,0,b,0.798084399999425,1,0,1,1,1B,3B,B13,3.63758615972639,0.817873431564009,0.0241646164293341,0.182126568435991,0.5,0.0663401738605393,0.975835383570666,0.5,0.5,0.0663401738605393,0.5,0.817873431564009,0.0663401738605393,0.5,0.5,0.5,0.767259353474743,0.975835383570666,0.0241646164293341,0.975835383570666,0.5,0.0975724680764532,0.721970889159975,0.0241646164293341,0.0153625790936409,0.5,0.635746863128018,0.685388673771574,0.461099467351003,2.17175042496162,0.5,61.007401925135
CBC_1038,CBC_1038_MSI_TV_v3_Vset6_Tset1_2024-05-04_09h40.02.212.csv,2,24,2,3,b,1,0,3,tac,C,63,1,2C,3C,1,0,b,1.50196659999983,1,0,1,1,2C,3C,C23,2.9704144655697,0.817873431564009,0.0241646164293341,0.182126568435991,0.5,0.0663401738605393,0.991197962664307,0.5,0.5,0.0663401738605393,0.5,0.817873431564009,0.0663401738605393,0.5,0.5,0.5,0.767259353474743,0.984423950847906,0.0155760491520935,0.817873431564009,0.0663401738605393,0.423374426432336,0.725655903702624,0.182126568435991,0.115786394575451,0.5,0.635746863128018,0.685388673771574,0.461099467351003,2.17175042496162,0.5,61.007401925135
CBC_1038,CBC_1038_MSI_TV_v3_Vset6_Tset1_2024-05-04_09h40.02.212.csv,2,25,3,2,b,1,0,0,tac,D,63,1,3D,2D,1,0,b,1.25652109999919,1,0,1,1,3D,2D,D32,2.07944154167984,0.817873431564009,0.0241646164293341,0.182126568435991,0.5,0.0663401738605393,0.991197962664307,0.5,0.5,0.0663401738605393,0.5,0.933659826139461,0.0663401738605393,0.5,0.5,0.5,0.767259353474743,0.767259353474743,0.232740646525257,0.767259353474743,0.5,0.459326910678746,0.631309387464427,0.232740646525257,0.147964135950819,0.5,0.635746863128018,0.685388673771574,0.461099467351003,2.17175042496162,0.5,61.007401925135
CBC_1038,CBC_1038_MSI_TV_v3_Vset6_Tset1_2024-05-04_09h40.02.212.csv,2,26,0,1,z,0,1,1,tac,B,63,1,0B,1B,0,1,b,1.62521969999943,1,0,0,0,0B,1B,B01,2.6149597780362,0.817873431564009,0.0241646164293341,0.182126568435991,0.5,0.0663401738605393,0.991197962664307,0.5,0.5,0.0663401738605393,0.5,0.933659826139461,0.0663401738605393,0.5,0.5,0.5,0.915223489425562,0.000630575070557522,0.999369424929442,0.0663401738605393,0.991197962664307,0.136694363308339,0.269066041344397,-0.0663401738605393,-0.0421755574312052,0.5,0.635746863128018,0.685388673771574,0.461099467351003,2.17175042496162,0.5,61.007401925135
CBC_1038,CBC_1038_MSI_TV_v3_Vset6_Tset1_2024-05-04_09h40.02.212.csv,2,27,3,0,z,0,1,2,tac,A,9,1,3A,0A,0,1,z,2.03723160000027,0,1,1,1,0A,3A,A30,3.73766961828337,0.817873431564009,0.0241646164293341,0.182126568435991,0.5,0.0241646164293341,0.991197962664307,0.5,0.5,0.0663401738605393,0.5,0.933659826139461,0.0663401738605393,0.5,0.5,0.5,0.915223489425562,0.817873431564009,0.182126568435991,0.817873431564009,0.5,0.209756558323611,0.6530993020787,0.182126568435991,0.115786394575451,0.5,0.635746863128018,0.685388673771574,0.461099467351003,2.17175042496162,0.5,61.007401925135
CBC_1038,CBC_1038_MSI_TV_v3_Vset6_Tset1_2024-05-04_09h40.02.212.csv,2,28,3,2,b,1,0,0,tac,D,63,1,3D,2D,1,0,b,1.13970919999974,1,0,1,1,3D,2D,D32,1.96944064646551,0.933659826139461,0.0241646164293341,0.182126568435991,0.5,0.0241646164293341,0.991197962664307,0.5,0.5,0.0663401738605393,0.5,0.933659826139461,0.0663401738605393,0.5,0.5,0.5,0.915223489425562,0.915223489425562,0.0847765105744378,0.915223489425562,0.5,0.565560221253276,0.695920584528122,0.0847765105744378,0.0538964006646381,0.5,0.635746863128018,0.685388673771574,0.461099467351003,2.17175042496162,0.5,61.007401925135
CBC_1038,CBC_1038_MSI_TV_v3_Vset6_Tset1_2024-05-04_09h40.02.212.csv,2,29,0,2,z,0,1,3,tac,C,27,1,0C,2C,0,1,b,1.743059299999,1,0,0,0,0C,2C,C02,2.68557734525015,0.933659826139461,0.0241646164293341,0.182126568435991,0.5,0.0241646164293341,0.991197962664307,0.5,0.5,0.0663401738605393,0.5,0.933659826139461,0.0663401738605393,0.5,0.5,0.5,0.9691198900902,0.00502329610146107,0.994976703898539,0.0663401738605393,0.933659826139461,0.120207869445999,0.270844025195453,-0.0663401738605393,-0.0421755574312052,0.5,0.635746863128018,0.685388673771574,0.461099467351003,2.17175042496162,0.5,61.007401925135
CBC_1038,CBC_1038_MSI_TV_v3_Vset6_Tset1_2024-05-04_09h40.02.212.csv,2,30,0,1,b,1,0,2,tac,A,63,1,0A,1A,1,0,b,1.96157159999893,1,0,1,1,0A,1A,A01,3.11351530921037,0.933659826139461,0.0241646164293341,0.182126568435991,0.5,0.0241646164293341,0.991197962664307,0.5,0.5,0.0241646164293341,0.5,0.933659826139461,0.0663401738605393,0.5,0.5,0.5,0.9691198900902,0.998243582302666,0.00175641769733381,0.933659826139461,0.0241646164293341,0.252199029077581,0.730552781551747,0.0663401738605393,0.0421755574312052,0.5,0.635746863128018,0.685388673771574,0.461099467351003,2.17175042496162,0.5,61.007401925135
CBC_1038,CBC_1038_MSI_TV_v3_Vset6_Tset1_2024-05-04_09h40.02.212.csv,2,31,0,1,z,0,1,1,tac,B,63,1,0B,1B,0,1,b,1.05360659999951,1,0,0,0,0B,1B,B01,2.4423470353692,0.975835383570666,0.0241646164293341,0.182126568435991,0.5,0.0241646164293341,0.991197962664307,0.5,0.5,0.0241646164293341,0.5,0.933659826139461,0.0663401738605393,0.5,0.5,0.5,0.9691198900902,0.00021985212060377,0.999780147879396,0.0241646164293341,0.991197962664307,0.227841883975191,0.268599934605093,-0.0241646164293341,-0.0153625790936409,0.5,0.635746863128018,0.685388673771574,0.461099467351003,2.17175042496162,0.5,61.007401925135
CBC_1038,CBC_1038_MSI_TV_v3_Vset6_Tset1_2024-05-04_09h40.02.212.csv,2,32,1,3,z,0,1,0,tac,D,27,1,1D,3D,0,1,z,1.48456429999987,0,1,1,1,3D,1D,D13,3.85014760171006,0.975835383570666,0.0241646164293341,0.182126568435991,0.5,0.00880203733569315,0.991197962664307,0.5,0.5,0.0241646164293341,0.5,0.933659826139461,0.0663401738605393,0.5,0.5,0.5,0.9691198900902,0.9691198900902,0.0308801099097997,0.9691198900902,0.5,0.426177701518147,0.718034241642058,0.0308801099097997,0.0196319330082036,0.5,0.635746863128018,0.685388673771574,0.461099467351003,2.17175042496162,0.5,61.007401925135
CBC_1038,CBC_1038_MSI_TV_v3_Vset6_Tset1_2024-05-04_09h40.02.212.csv,2,33,2,3,b,1,0,3,tac,C,63,1,2C,3C,1,0,b,1.43492799999967,1,0,1,1,2C,3C,C23,2.77258872223978,0.975835383570666,0.0241646164293341,0.182126568435991,0.5,0.00880203733569315,0.991197962664307,0.5,0.5,0.0241646164293341,0.5,0.933659826139461,0.0663401738605393,0.5,0.5,0.5,0.988751823098404,0.994976703898539,0.00502329610146113,0.933659826139461,0.0663401738605393,0.458980512936209,0.729301244007748,0.0663401738605393,0.0421755574312052,0.5,0.635746863128018,0.685388673771574,0.461099467351003,2.17175042496162,0.5,61.007401925135
CBC_1038,CBC_1038_MSI_TV_v3_Vset6_Tset1_2024-05-04_09h40.02.212.csv,2,34,0,1,z,0,1,1,tac,B,63,1,0B,1B,0,1,b,1.05963179999981,1,0,0,0,0B,1B,B01,2.28238238567653,0.975835383570666,0.0241646164293341,0.182126568435991,0.5,0.00880203733569315,0.991197962664307,0.5,0.5,0.0241646164293341,0.5,0.975835383570666,0.0663401738605393,0.5,0.5,0.5,0.988751823098404,7.88517552306909e-05,0.999921148244769,0.00880203733569315,0.991197962664307,0.228204014929576,0.268871062312085,-0.00880203733569315,-0.00559586762530262,0.5,0.635746863128018,0.685388673771574,0.461099467351003,2.17175042496162,0.5,61.007401925135
CBC_1038,CBC_1038_MSI_TV_v3_Vset6_Tset1_2024-05-04_09h40.02.212.csv,2,35,1,0,z,0,1,2,tac,A,63,1,1A,0A,0,1,b,2.11834809999982,1,0,0,0,1A,0A,A10,2.52572864430826,0.975835383570666,0.0241646164293341,0.182126568435991,0.5,0.00320616971039053,0.991197962664307,0.5,0.5,0.0241646164293341,0.5,0.975835383570666,0.0663401738605393,0.5,0.5,0.5,0.988751823098404,0.000612830622261608,0.999387169377738,0.0241646164293341,0.975835383570666,0.0776285609348581,0.269364624804624,-0.0241646164293341,-0.0153625790936409,0.5,0.635746863128018,0.685388673771574,0.461099467351003,2.17175042496162,0.5,61.007401925135
CBC_1038,CBC_1038_MSI_TV_v3_Vset6_Tset1_2024-05-04_09h40.02.212.csv,2,36,2,1,b,1,0,3,tac,C,9,1,2C,1C,1,0,b,0.953080799999043,1,0,1,1,2C,1C,C21,3.93182563272433,0.975835383570666,0.00880203733569315,0.182126568435991,0.5,0.00320616971039053,0.991197962664307,0.5,0.5,0.0241646164293341,0.5,0.975835383570666,0.0663401738605393,0.5,0.5,0.5,0.988751823098404,0.975835383570666,0.0241646164293341,0.975835383570666,0.5,0.543616773089433,0.722541102581143,0.0241646164293341,0.0153625790936409,0.5,0.635746863128018,0.685388673771574,0.461099467351003,2.17175042496162,0.5,61.007401925135
CBC_1038,CBC_1038_MSI_TV_v3_Vset6_Tset1_2024-05-04_09h40.02.212.csv,2,37,0,1,b,1,0,2,tac,A,63,1,0A,1A,1,0,b,2.17420409999977,1,0,1,1,0A,1A,A01,2.85263142991332,0.975835383570666,0.00880203733569315,0.182126568435991,0.5,0.00320616971039053,0.991197962664307,0.5,0.5,0.0241646164293341,0.5,0.991197962664307,0.0663401738605393,0.5,0.5,0.5,0.988751823098404,0.999780147879396,0.000219852120603825,0.975835383570666,0.00880203733569315,0.197510334903869,0.730994427416797,0.0241646164293341,0.0153625790936409,0.5,0.635746863128018,0.685388673771574,0.461099467351003,2.17175042496162,0.5,61.007401925135
CBC_1038,CBC_1038_MSI_TV_v3_Vset6_Tset1_2024-05-04_09h40.02.212.csv,2,38,1,3,z,0,1,0,tac,D,27,1,1D,3D,0,1,z,1.37893749999967,0,1,1,1,3D,1D,D13,3.27714473299218,0.991197962664307,0.00880203733569315,0.182126568435991,0.5,0.00320616971039053,0.991197962664307,0.5,0.5,0.0241646164293341,0.5,0.991197962664307,0.0663401738605393,0.5,0.5,0.5,0.988751823098404,0.988751823098404,0.0112481769015961,0.988751823098404,0.5,0.486310617494501,0.727536170118975,0.0112481769015961,0.00715099318109874,0.5,0.635746863128018,0.685388673771574,0.461099467351003,2.17175042496162,0.5,61.007401925135
CBC_1038,CBC_1038_MSI_TV_v3_Vset6_Tset1_2024-05-04_09h40.02.212.csv,2,39,1,0,b,1,0,1,tac,B,63,1,1B,0B,1,0,b,2.76835059999939,1,0,1,1,1B,0B,B10,3.29583686600433,0.991197962664307,0.00880203733569315,0.182126568435991,0.5,0.00320616971039053,0.991197962664307,0.5,0.5,0.0241646164293341,0.5,0.991197962664307,0.0663401738605393,0.5,0.5,0.5,0.995902816279503,0.999971437805861,2.85621941389369e-05,0.991197962664307,0.00320616971039053,0.0996177419594978,0.731431931165073,0.00880203733569318,0.00559586762530264,0.5,0.635746863128018,0.685388673771574,0.461099467351003,2.17175042496162,0.5,61.007401925135
CBC_1038,CBC_1038_MSI_TV_v3_Vset6_Tset1_2024-05-04_09h40.02.212.csv,2,40,3,2,z,0,1,3,tac,C,63,0,3C,2C,1,0,z,1.47045489999982,0,1,1,0,2C,3C,C32,2.90872089656436,0.991197962664307,0.00880203733569315,0.182126568435991,0.5,0.00320616971039053,0.996793830289609,0.5,0.5,0.0241646164293341,0.5,0.991197962664307,0.0663401738605393,0.5,0.5,0.5,0.995902816279503,0.999369424929442,0.000630575070557522,0.991197962664307,0.0663401738605393,0.442589056490407,0.731094522209304,-0.991197962664307,-0.630150995502716,0.5,0.635746863128018,0.685388673771574,0.461099467351003,2.17175042496162,0.5,61.007401925135
CBC_1038,CBC_1038_MSI_TV_v3_Vset6_Tset1_2024-05-04_09h40.02.212.csv,2,41,0,2,b,1,0,2,tac,A,27,1,0A,2A,1,0,b,2.09757369999897,1,0,1,1,0A,2A,A02,3.3322045101752,0.991197962664307,0.00880203733569315,0.182126568435991,0.5,0.00320616971039053,0.996793830289609,0.5,0.5,0.0241646164293341,0.5,0.361046967161591,0.0663401738605393,0.5,0.5,0.5,0.995902816279503,0.998026432187266,0.00197356781273372,0.991197962664307,0.182126568435991,0.215690591848812,0.730768110405203,0.00880203733569318,0.00559586762530264,0.5,0.635746863128018,0.685388673771574,0.461099467351003,2.17175042496162,0.5,61.007401925135
CBC_1038,CBC_1038_MSI_TV_v3_Vset6_Tset1_2024-05-04_09h40.02.212.csv,2,42,2,3,z,0,1,0,tac,D,63,1,2D,3D,NaN,NaN,None,NaN,NaN,NaN,NaN,NaN,,,D23,4.04305126783455,0.996793830289609,0.00880203733569315,0.182126568435991,0.5,0.00320616971039053,0.996793830289609,0.5,0.5,0.0241646164293341,0.5,0.361046967161591,0.0663401738605393,0.5,0.5,0.5,0.995902816279503,0,0,0,0,NaN,0,0,0,0.5,0.635746863128018,0.685388673771574,0.461099467351003,2.17175042496162,0.5,61.007401925135
CBC_1038,CBC_1038_MSI_TV_v3_Vset6_Tset1_2024-05-04_09h40.02.212.csv,2,43,1,3,b,1,0,1,tac,B,27,1,1B,3B,1,0,b,1.62550569999985,1,0,1,1,1B,3B,B13,3.36729582998647,0.996793830289609,0.00880203733569315,0.182126568435991,0.5,0.00320616971039053,0.996793830289609,0.5,0.5,0.0241646164293341,0.5,0.361046967161591,0.0663401738605393,0.5,0.5,0.5,0.995902816279503,0.996793830289609,0.00320616971039056,0.996793830289609,0.5,0.370316446091138,0.729347051417531,0.00320616971039056,0.00203831233603687,0.5,0.635746863128018,0.685388673771574,0.461099467351003,2.17175042496162,0.5,61.007401925135
CBC_1038,CBC_1038_MSI_TV_v3_Vset6_Tset1_2024-05-04_09h40.02.212.csv,2,44,3,2,z,0,1,3,tac,C,63,1,3C,2C,NaN,NaN,None,NaN,NaN,NaN,NaN,NaN,,,C32,2.69124308278583,0.996793830289609,0.00880203733569315,0.182126568435991,0.5,0.00320616971039053,0.998832142625646,0.5,0.5,0.0241646164293341,0.5,0.361046967161591,0.0663401738605393,0.5,0.5,0.5,0.995902816279503,0,0,0,0,NaN,0,0,0,0.5,0.635746863128018,0.685388673771574,0.461099467351003,2.17175042496162,0.5,61.007401925135
