ID,filename,session,trial,visStimLeft,visStimRight,correctKey,leftCorrect,rightCorrect,secondStim,mod2Type,mod2Stim,frequency,rewardAccurate,stimPairLeft,stimPairRight,pCorrectLeft,pCorrectRight,key,reactionTime,choiceLeft,choiceRight,choiceAccurate,reward,chosenPair,otherPair,triplet,surprise,0A belief,1A belief,2A belief,3A belief,0B belief,1B belief,2B belief,3B belief,0C belief,1C belief,2C belief,3C belief,0D belief,1D belief,2D belief,3D belief,beliefPairNorm,beliefOtherPairNorm,beliefPair,beliefOtherPair,lik,corrLik,rewardPE,update2,fitCBCsimpleRW_CBCdriftDiffusionLR_startBelief,fitCBCsimpleRW_CBCdriftDiffusionLR_alpha1,fitCBCsimpleRW_CBCdriftDiffusionLR_nonDecisionTime,fitCBCsimpleRW_CBCdriftDiffusionLR_weight,fitCBCsimpleRW_CBCdriftDiffusionLR_startingBoundary,fitCBCsimpleRW_CBCdriftDiffusionLR_startingPoint,fit_CBCsimpleRW_CBCdriftDiffusionLR_NLL
CBC_1038,CBC_1038_MSI_AV_v3_Vset4_Aset1_2024-05-04_09h31.10.662.csv,1,1,3,1,z,0,1,1,aud,B,27,1,3B,1B,0,1,z,2.88622609999993,0,1,1,1,1B,3B,B31,2.77258872223978,0.5,0.5,0.5,0.5,0.5,0.5,0.5,0.5,0.5,0.5,0.5,0.5,0.5,0.5,0.5,0.5,0.5,0.5,0.5,0.5,0.0651381337793131,0.499313126073985,0.5,0.00612153471607885,0.5,0.0122430694321577,0.653286844676845,0.501589549603098,2.18223049057832,0.5,64.6878981799477
CBC_1038,CBC_1038_MSI_AV_v3_Vset4_Aset1_2024-05-04_09h31.10.662.csv,1,2,2,3,b,1,0,3,aud,C,63,1,2C,3C,1,0,b,1.37158779999982,1,0,1,1,2C,3C,C23,2.83321334405622,0.5,0.5,0.5,0.5,0.5,0.506121534716079,0.5,0.5,0.5,0.5,0.5,0.5,0.5,0.5,0.5,0.5,0.5,0.5,0.5,0.5,0.311068656186358,0.500190191109508,0.5,0.00612153471607885,0.5,0.0122430694321577,0.653286844676845,0.501589549603098,2.18223049057832,0.5,64.6878981799477
CBC_1038,CBC_1038_MSI_AV_v3_Vset4_Aset1_2024-05-04_09h31.10.662.csv,1,3,2,3,z,0,1,0,aud,D,63,1,2D,3D,0,1,z,1.72719280000047,0,1,1,1,3D,2D,D23,2.89037175789616,0.5,0.5,0.5,0.5,0.5,0.506121534716079,0.5,0.5,0.5,0.5,0.506121534716079,0.5,0.5,0.5,0.5,0.5,0.5,0.5,0.5,0.5,0.216614705792714,0.49979175084984,0.5,0.00612153471607885,0.5,0.0122430694321577,0.653286844676845,0.501589549603098,2.18223049057832,0.5,64.6878981799477
CBC_1038,CBC_1038_MSI_AV_v3_Vset4_Aset1_2024-05-04_09h31.10.662.csv,1,4,1,0,b,1,0,1,aud,B,63,1,1B,0B,1,0,z,4.27475170000025,0,1,0,0,0B,1B,B10,2.94443897916644,0.5,0.5,0.5,0.5,0.5,0.506121534716079,0.5,0.5,0.5,0.5,0.506121534716079,0.5,0.5,0.5,0.5,0.506121534716079,0.49695785523674,0.50304214476326,0.5,0.506121534716079,0.0153981075262542,0.49763291907214,-0.5,-0.00612153471607885,0.5,0.0122430694321577,0.653286844676845,0.501589549603098,2.18223049057832,0.5,64.6878981799477
CBC_1038,CBC_1038_MSI_AV_v3_Vset4_Aset1_2024-05-04_09h31.10.662.csv,1,5,3,0,z,0,1,2,aud,A,9,1,3A,0A,0,1,z,1.77118220000057,0,1,1,1,0A,3A,A30,2.99573227355399,0.5,0.5,0.5,0.5,0.493878465283921,0.506121534716079,0.5,0.5,0.5,0.5,0.506121534716079,0.5,0.5,0.5,0.5,0.506121534716079,0.5,0.5,0.5,0.5,0.20711743560485,0.500104436760548,0.5,0.00612153471607885,0.5,0.0122430694321577,0.653286844676845,0.501589549603098,2.18223049057832,0.5,64.6878981799477
CBC_1038,CBC_1038_MSI_AV_v3_Vset4_Aset1_2024-05-04_09h31.10.662.csv,1,6,2,3,z,0,1,0,aud,D,63,1,2D,3D,NaN,NaN,[],NaN,NaN,NaN,NaN,NaN,,,D23,2.35137525716348,0.506121534716079,0.5,0.5,0.5,0.493878465283921,0.506121534716079,0.5,0.5,0.5,0.5,0.506121534716079,0.5,0.5,0.5,0.5,0.506121534716079,0,0,0,0,NaN,0,0,0,0.5,0.0122430694321577,0.653286844676845,0.501589549603098,2.18223049057832,0.5,64.6878981799477
CBC_1038,CBC_1038_MSI_AV_v3_Vset4_Aset1_2024-05-04_09h31.10.662.csv,1,7,2,0,b,1,0,3,aud,C,27,1,2C,0C,1,0,b,1.20315030000029,1,0,1,1,2C,0C,C20,3.09104245335832,0.506121534716079,0.5,0.5,0.5,0.493878465283921,0.506121534716079,0.5,0.5,0.5,0.5,0.506121534716079,0.5,0.5,0.5,0.5,0.506121534716079,0.50304214476326,0.49695785523674,0.506121534716079,0.5,0.362183532862076,0.501049040088837,0.493878465283921,0.00604658834151853,0.5,0.0122430694321577,0.653286844676845,0.501589549603098,2.18223049057832,0.5,64.6878981799477
CBC_1038,CBC_1038_MSI_AV_v3_Vset4_Aset1_2024-05-04_09h31.10.662.csv,1,8,1,0,z,0,1,2,aud,A,63,1,1A,0A,0,1,b,2.7398289000007,1,0,0,0,1A,0A,A10,3.13549421592915,0.506121534716079,0.5,0.5,0.5,0.493878465283921,0.506121534716079,0.5,0.5,0.5,0.5,0.512168123057597,0.5,0.5,0.5,0.5,0.506121534716079,0.49695785523674,0.50304214476326,0.5,0.506121534716079,0.0756789039537369,0.498458347338112,-0.5,-0.00612153471607885,0.5,0.0122430694321577,0.653286844676845,0.501589549603098,2.18223049057832,0.5,64.6878981799477
CBC_1038,CBC_1038_MSI_AV_v3_Vset4_Aset1_2024-05-04_09h31.10.662.csv,1,9,0,1,z,0,1,1,aud,B,63,1,0B,1B,0,1,b,2.91651279999996,1,0,0,0,0B,1B,B01,3.17805383034795,0.506121534716079,0.493878465283921,0.5,0.5,0.493878465283921,0.506121534716079,0.5,0.5,0.5,0.5,0.512168123057597,0.5,0.5,0.5,0.5,0.506121534716079,0.493878465283921,0.506121534716079,0.493878465283921,0.506121534716079,0.0627999114620642,0.496746602289588,-0.493878465283921,-0.00604658834151853,0.5,0.0122430694321577,0.653286844676845,0.501589549603098,2.18223049057832,0.5,64.6878981799477
CBC_1038,CBC_1038_MSI_AV_v3_Vset4_Aset1_2024-05-04_09h31.10.662.csv,1,10,3,1,b,1,0,0,aud,D,27,1,3D,1D,1,0,b,2.05542230000037,1,0,1,1,3D,1D,D31,3.2188758248682,0.506121534716079,0.493878465283921,0.5,0.5,0.487831876942403,0.506121534716079,0.5,0.5,0.5,0.5,0.512168123057597,0.5,0.5,0.5,0.5,0.506121534716079,0.50304214476326,0.49695785523674,0.506121534716079,0.5,0.15440909476726,0.500409394072862,0.493878465283921,0.00604658834151853,0.5,0.0122430694321577,0.653286844676845,0.501589549603098,2.18223049057832,0.5,64.6878981799477
CBC_1038,CBC_1038_MSI_AV_v3_Vset4_Aset1_2024-05-04_09h31.10.662.csv,1,11,2,3,b,1,0,3,aud,C,63,1,2C,3C,NaN,NaN,[],NaN,NaN,NaN,NaN,NaN,,,C23,2.56494935746154,0.506121534716079,0.493878465283921,0.5,0.5,0.487831876942403,0.506121534716079,0.5,0.5,0.5,0.5,0.512168123057597,0.5,0.5,0.5,0.5,0.512168123057597,0,0,0,0,NaN,0,0,0,0.5,0.0122430694321577,0.653286844676845,0.501589549603098,2.18223049057832,0.5,64.6878981799477
CBC_1038,CBC_1038_MSI_AV_v3_Vset4_Aset1_2024-05-04_09h31.10.662.csv,1,12,0,1,z,0,1,1,aud,B,63,1,0B,1B,0,1,b,0.938377100000707,1,0,0,0,0B,1B,B01,2.60268968544438,0.506121534716079,0.493878465283921,0.5,0.5,0.487831876942403,0.506121534716079,0.5,0.5,0.5,0.5,0.512168123057597,0.5,0.5,0.5,0.5,0.512168123057597,0.49079953971728,0.50920046028272,0.487831876942403,0.506121534716079,0.350796700222611,0.494885433192524,-0.487831876942403,-0.00597255954062564,0.5,0.0122430694321577,0.653286844676845,0.501589549603098,2.18223049057832,0.5,64.6878981799477
CBC_1038,CBC_1038_MSI_AV_v3_Vset4_Aset1_2024-05-04_09h31.10.662.csv,1,13,1,0,z,0,1,2,aud,A,63,1,1A,0A,0,1,b,2.99172370000042,1,0,0,0,1A,0A,A10,2.63905732961526,0.506121534716079,0.493878465283921,0.5,0.5,0.481859317401777,0.506121534716079,0.5,0.5,0.5,0.5,0.512168123057597,0.5,0.5,0.5,0.5,0.512168123057597,0.493878465283921,0.506121534716079,0.493878465283921,0.506121534716079,0.0580437166433272,0.496343164195289,-0.493878465283921,-0.00604658834151853,0.5,0.0122430694321577,0.653286844676845,0.501589549603098,2.18223049057832,0.5,64.6878981799477
CBC_1038,CBC_1038_MSI_AV_v3_Vset4_Aset1_2024-05-04_09h31.10.662.csv,1,14,2,1,b,1,0,3,aud,C,9,1,2C,1C,1,0,z,1.90926770000033,0,1,0,0,1C,2C,C21,3.36729582998647,0.506121534716079,0.487831876942403,0.5,0.5,0.481859317401777,0.506121534716079,0.5,0.5,0.5,0.5,0.512168123057597,0.5,0.5,0.5,0.5,0.512168123057597,0.493989080084423,0.506010919915576,0.5,0.512168123057597,0.178227417810535,0.496454558031969,-0.5,-0.00612153471607885,0.5,0.0122430694321577,0.653286844676845,0.501589549603098,2.18223049057832,0.5,64.6878981799477
CBC_1038,CBC_1038_MSI_AV_v3_Vset4_Aset1_2024-05-04_09h31.10.662.csv,1,15,0,1,b,1,0,2,aud,A,63,1,0A,1A,1,0,b,3.04523440000003,1,0,1,1,0A,1A,A01,3.40119738166216,0.506121534716079,0.487831876942403,0.5,0.5,0.481859317401777,0.506121534716079,0.5,0.5,0.5,0.493878465283921,0.512168123057597,0.5,0.5,0.5,0.5,0.512168123057597,0.50920046028272,0.49079953971728,0.506121534716079,0.487831876942403,0.0558872596163454,0.505165737483832,0.493878465283921,0.00604658834151853,0.5,0.0122430694321577,0.653286844676845,0.501589549603098,2.18223049057832,0.5,64.6878981799477
CBC_1038,CBC_1038_MSI_AV_v3_Vset4_Aset1_2024-05-04_09h31.10.662.csv,1,16,1,3,z,0,1,0,aud,D,27,1,1D,3D,0,1,b,1.93010869999989,1,0,0,0,1D,3D,D13,3.43398720448515,0.512168123057597,0.487831876942403,0.5,0.5,0.481859317401777,0.506121534716079,0.5,0.5,0.5,0.493878465283921,0.512168123057597,0.5,0.5,0.5,0.5,0.512168123057597,0.493989080084423,0.506010919915576,0.5,0.512168123057597,0.174296149143153,0.496096591564346,-0.5,-0.00612153471607885,0.5,0.0122430694321577,0.653286844676845,0.501589549603098,2.18223049057832,0.5,64.6878981799477
CBC_1038,CBC_1038_MSI_AV_v3_Vset4_Aset1_2024-05-04_09h31.10.662.csv,1,17,1,0,b,1,0,1,aud,B,63,1,1B,0B,1,0,b,1.11903839999968,1,0,1,1,1B,0B,B10,2.77258872223978,0.512168123057597,0.487831876942403,0.5,0.5,0.481859317401777,0.506121534716079,0.5,0.5,0.5,0.493878465283921,0.512168123057597,0.5,0.5,0.493878465283921,0.5,0.512168123057597,0.512278688024314,0.487721311975686,0.506121534716079,0.481859317401777,0.386866876129641,0.507066435194014,0.493878465283921,0.00604658834151853,0.5,0.0122430694321577,0.653286844676845,0.501589549603098,2.18223049057832,0.5,64.6878981799477
CBC_1038,CBC_1038_MSI_AV_v3_Vset4_Aset1_2024-05-04_09h31.10.662.csv,1,18,3,2,z,0,1,3,aud,C,63,0,3C,2C,1,0,z,1.85573830000021,0,1,1,0,2C,3C,C32,3.49650756146648,0.512168123057597,0.487831876942403,0.5,0.5,0.481859317401777,0.512168123057597,0.5,0.5,0.5,0.493878465283921,0.512168123057597,0.5,0.5,0.493878465283921,0.5,0.512168123057597,0.506010919915576,0.493989080084423,0.512168123057597,0.5,0.190739952641173,0.502663712936407,-0.512168123057597,-0.00627050989153205,0.5,0.0122430694321577,0.653286844676845,0.501589549603098,2.18223049057832,0.5,64.6878981799477
CBC_1038,CBC_1038_MSI_AV_v3_Vset4_Aset1_2024-05-04_09h31.10.662.csv,1,19,0,2,b,1,0,2,aud,A,27,1,0A,2A,1,0,b,2.30683960000033,1,0,1,1,0A,2A,A02,3.52636052461616,0.512168123057597,0.487831876942403,0.5,0.5,0.481859317401777,0.512168123057597,0.5,0.5,0.5,0.493878465283921,0.505897613166065,0.5,0.5,0.493878465283921,0.5,0.512168123057597,0.506010919915576,0.493989080084423,0.512168123057597,0.5,0.119657311691962,0.503191514653294,0.487831876942403,0.00597255954062564,0.5,0.0122430694321577,0.653286844676845,0.501589549603098,2.18223049057832,0.5,64.6878981799477
CBC_1038,CBC_1038_MSI_AV_v3_Vset4_Aset1_2024-05-04_09h31.10.662.csv,1,20,2,3,z,0,1,0,aud,D,63,1,2D,3D,0,1,b,1.26831309999989,1,0,0,0,2D,3D,D23,2.4567357728213,0.518140682598223,0.487831876942403,0.5,0.5,0.481859317401777,0.512168123057597,0.5,0.5,0.5,0.493878465283921,0.505897613166065,0.5,0.5,0.493878465283921,0.5,0.512168123057597,0.493989080084423,0.506010919915576,0.5,0.512168123057597,0.340616238704097,0.497392206098263,-0.5,-0.00612153471607885,0.5,0.0122430694321577,0.653286844676845,0.501589549603098,2.18223049057832,0.5,64.6878981799477
CBC_1038,CBC_1038_MSI_AV_v3_Vset4_Aset1_2024-05-04_09h31.10.662.csv,1,21,1,3,b,1,0,1,aud,B,27,1,1B,3B,1,0,z,1.22028670000009,0,1,0,0,3B,1B,B13,3.58351893845611,0.518140682598223,0.487831876942403,0.5,0.5,0.481859317401777,0.512168123057597,0.5,0.5,0.5,0.493878465283921,0.505897613166065,0.5,0.5,0.493878465283921,0.493878465283921,0.512168123057597,0.493989080084423,0.506010919915576,0.5,0.512168123057597,0.353855263889043,0.49615945706487,-0.5,-0.00612153471607885,0.5,0.0122430694321577,0.653286844676845,0.501589549603098,2.18223049057832,0.5,64.6878981799477
CBC_1038,CBC_1038_MSI_AV_v3_Vset4_Aset1_2024-05-04_09h31.10.662.csv,1,22,2,3,b,1,0,3,aud,C,63,1,2C,3C,NaN,NaN,[],NaN,NaN,NaN,NaN,NaN,,,C23,2.51230562397611,0.518140682598223,0.487831876942403,0.5,0.5,0.481859317401777,0.512168123057597,0.5,0.493878465283921,0.5,0.493878465283921,0.505897613166065,0.5,0.5,0.493878465283921,0.493878465283921,0.512168123057597,0,0,0,0,NaN,0,0,0,0.5,0.0122430694321577,0.653286844676845,0.501589549603098,2.18223049057832,0.5,64.6878981799477
CBC_1038,CBC_1038_MSI_AV_v3_Vset4_Aset1_2024-05-04_09h31.10.662.csv,1,23,1,0,z,0,1,2,aud,A,63,1,1A,0A,0,1,z,1.38008330000093,0,1,1,1,0A,1A,A10,2.53897387105828,0.518140682598223,0.487831876942403,0.5,0.5,0.481859317401777,0.512168123057597,0.5,0.493878465283921,0.5,0.493878465283921,0.505897613166065,0.5,0.5,0.493878465283921,0.493878465283921,0.512168123057597,0.515064429625029,0.484935570374971,0.518140682598223,0.487831876942403,0.312728428484692,0.507015747821271,0.481859317401777,0.00589943707948207,0.5,0.0122430694321577,0.653286844676845,0.501589549603098,2.18223049057832,0.5,64.6878981799477
CBC_1038,CBC_1038_MSI_AV_v3_Vset4_Aset1_2024-05-04_09h31.10.662.csv,1,24,1,2,b,1,0,1,aud,B,9,1,1B,2B,1,0,z,3.51956000000018,0,1,0,0,2B,1B,B12,3.66356164612965,0.524040119677705,0.487831876942403,0.5,0.5,0.481859317401777,0.512168123057597,0.5,0.493878465283921,0.5,0.493878465283921,0.505897613166065,0.5,0.5,0.493878465283921,0.493878465283921,0.512168123057597,0.493989080084423,0.506010919915576,0.5,0.512168123057597,0.0335764057465902,0.496153775030285,-0.5,-0.00612153471607885,0.5,0.0122430694321577,0.653286844676845,0.501589549603098,2.18223049057832,0.5,64.6878981799477
CBC_1038,CBC_1038_MSI_AV_v3_Vset4_Aset1_2024-05-04_09h31.10.662.csv,1,25,3,2,z,0,1,3,aud,C,63,1,3C,2C,0,1,b,1.00220390000004,1,0,0,0,3C,2C,C32,2.99573227355399,0.524040119677705,0.487831876942403,0.5,0.5,0.481859317401777,0.512168123057597,0.493878465283921,0.493878465283921,0.5,0.493878465283921,0.505897613166065,0.5,0.5,0.493878465283921,0.493878465283921,0.512168123057597,0.497068482373915,0.502931517626084,0.5,0.505897613166065,0.382648210505257,0.498880537548071,-0.5,-0.00612153471607885,0.5,0.0122430694321577,0.653286844676845,0.501589549603098,2.18223049057832,0.5,64.6878981799477
CBC_1038,CBC_1038_MSI_AV_v3_Vset4_Aset1_2024-05-04_09h31.10.662.csv,1,26,3,2,b,1,0,0,aud,D,63,1,3D,2D,NaN,NaN,[],NaN,NaN,NaN,NaN,NaN,,,D32,3.71357206670431,0.524040119677705,0.487831876942403,0.5,0.5,0.481859317401777,0.512168123057597,0.493878465283921,0.493878465283921,0.5,0.493878465283921,0.505897613166065,0.493878465283921,0.5,0.493878465283921,0.493878465283921,0.512168123057597,0,0,0,0,NaN,0,0,0,0.5,0.0122430694321577,0.653286844676845,0.501589549603098,2.18223049057832,0.5,64.6878981799477
CBC_1038,CBC_1038_MSI_AV_v3_Vset4_Aset1_2024-05-04_09h31.10.662.csv,1,27,1,0,b,1,0,1,aud,B,63,1,1B,0B,1,0,b,1.15352310000026,1,0,1,1,1B,0B,B10,2.63905732961526,0.524040119677705,0.487831876942403,0.5,0.5,0.481859317401777,0.512168123057597,0.493878465283921,0.493878465283921,0.5,0.493878465283921,0.505897613166065,0.493878465283921,0.5,0.493878465283921,0.493878465283921,0.512168123057597,0.515245457228934,0.484754542771066,0.512168123057597,0.481859317401777,0.380581360036172,0.508459828477524,0.487831876942403,0.00597255954062564,0.5,0.0122430694321577,0.653286844676845,0.501589549603098,2.18223049057832,0.5,64.6878981799477
CBC_1038,CBC_1038_MSI_AV_v3_Vset4_Aset1_2024-05-04_09h31.10.662.csv,1,28,2,0,z,0,1,2,aud,A,27,1,2A,0A,0,1,z,2.05855070000007,0,1,1,1,0A,2A,A20,3.76120011569356,0.524040119677705,0.487831876942403,0.5,0.5,0.481859317401777,0.518140682598223,0.493878465283921,0.493878465283921,0.5,0.493878465283921,0.505897613166065,0.493878465283921,0.5,0.493878465283921,0.493878465283921,0.512168123057597,0.511737879803611,0.488262120196389,0.524040119677705,0.5,0.155879187166391,0.506822152931529,0.475959880322295,0.00582720986170732,0.5,0.0122430694321577,0.653286844676845,0.501589549603098,2.18223049057832,0.5,64.6878981799477
CBC_1038,CBC_1038_MSI_AV_v3_Vset4_Aset1_2024-05-04_09h31.10.662.csv,1,29,3,1,b,1,0,0,aud,D,27,1,3D,1D,1,0,z,1.54156730000022,0,1,0,0,1D,3D,D31,3.09104245335832,0.529867329539412,0.487831876942403,0.5,0.5,0.481859317401777,0.518140682598223,0.493878465283921,0.493878465283921,0.5,0.493878465283921,0.505897613166065,0.493878465283921,0.5,0.493878465283921,0.493878465283921,0.512168123057597,0.4909101337922,0.5090898662078,0.493878465283921,0.512168123057597,0.259615640410923,0.494921457975024,-0.493878465283921,-0.00604658834151853,0.5,0.0122430694321577,0.653286844676845,0.501589549603098,2.18223049057832,0.5,64.6878981799477
CBC_1038,CBC_1038_MSI_AV_v3_Vset4_Aset1_2024-05-04_09h31.10.662.csv,1,30,0,1,b,1,0,2,aud,A,63,1,0A,1A,1,0,b,2.05766999999969,1,0,1,1,0A,1A,A01,3.11351530921037,0.529867329539412,0.487831876942403,0.5,0.5,0.481859317401777,0.518140682598223,0.493878465283921,0.493878465283921,0.5,0.493878465283921,0.505897613166065,0.493878465283921,0.5,0.487831876942403,0.493878465283921,0.512168123057597,0.520652198768203,0.479347801231797,0.529867329539412,0.487831876942403,0.157532058237748,0.511745917615978,0.470132670460588,0.00575586692677469,0.5,0.0122430694321577,0.653286844676845,0.501589549603098,2.18223049057832,0.5,64.6878981799477
CBC_1038,CBC_1038_MSI_AV_v3_Vset4_Aset1_2024-05-04_09h31.10.662.csv,1,31,0,2,z,0,1,3,aud,C,27,1,0C,2C,0,1,z,1.44331069999998,0,1,1,1,2C,0C,C02,3.8286413964891,0.535623196466187,0.487831876942403,0.5,0.5,0.481859317401777,0.518140682598223,0.493878465283921,0.493878465283921,0.5,0.493878465283921,0.505897613166065,0.493878465283921,0.5,0.487831876942403,0.493878465283921,0.512168123057597,0.502931517626084,0.497068482373915,0.505897613166065,0.5,0.29066071726345,0.501671127164096,0.494102386833935,0.0060493298286027,0.5,0.0122430694321577,0.653286844676845,0.501589549603098,2.18223049057832,0.5,64.6878981799477
CBC_1038,CBC_1038_MSI_AV_v3_Vset4_Aset1_2024-05-04_09h31.10.662.csv,1,32,3,2,b,1,0,0,aud,D,63,1,3D,2D,1,0,b,0.927074200000334,1,0,1,1,3D,2D,D32,3.15700042115011,0.535623196466187,0.487831876942403,0.5,0.5,0.481859317401777,0.518140682598223,0.493878465283921,0.493878465283921,0.5,0.493878465283921,0.511946942994668,0.493878465283921,0.5,0.487831876942403,0.493878465283921,0.512168123057597,0.5090898662078,0.4909101337922,0.512168123057597,0.493878465283921,0.348850992065546,0.504862491404156,0.487831876942403,0.00597255954062564,0.5,0.0122430694321577,0.653286844676845,0.501589549603098,2.18223049057832,0.5,64.6878981799477
CBC_1038,CBC_1038_MSI_AV_v3_Vset4_Aset1_2024-05-04_09h31.10.662.csv,1,33,0,1,z,0,1,1,aud,B,63,1,0B,1B,0,1,b,0.809529100000418,1,0,0,0,0B,1B,B01,2.77258872223978,0.535623196466187,0.487831876942403,0.5,0.5,0.481859317401777,0.518140682598223,0.493878465283921,0.493878465283921,0.5,0.493878465283921,0.511946942994668,0.493878465283921,0.5,0.487831876942403,0.493878465283921,0.518140682598223,0.481859317401777,0.518140682598223,0.481859317401777,0.518140682598223,0.15294255758883,0.489723693360479,-0.481859317401777,-0.00589943707948207,0.5,0.0122430694321577,0.653286844676845,0.501589549603098,2.18223049057832,0.5,64.6878981799477
CBC_1038,CBC_1038_MSI_AV_v3_Vset4_Aset1_2024-05-04_09h31.10.662.csv,1,34,1,0,z,0,1,2,aud,A,63,1,1A,0A,0,1,b,1.29474530000016,1,0,0,0,1A,0A,A10,2.50552593699074,0.535623196466187,0.487831876942403,0.5,0.5,0.475959880322295,0.518140682598223,0.493878465283921,0.493878465283921,0.5,0.493878465283921,0.511946942994668,0.493878465283921,0.5,0.487831876942403,0.493878465283921,0.518140682598223,0.476651969995802,0.523348030004198,0.487831876942403,0.535623196466187,0.326266898467453,0.487814048799849,-0.487831876942403,-0.00597255954062564,0.5,0.0122430694321577,0.653286844676845,0.501589549603098,2.18223049057832,0.5,64.6878981799477
CBC_1038,CBC_1038_MSI_AV_v3_Vset4_Aset1_2024-05-04_09h31.10.662.csv,1,35,3,2,b,1,0,0,aud,D,63,0,3D,2D,0,1,z,2.61768910000001,0,1,0,1,2D,3D,D32,2.81341071676004,0.535623196466187,0.481859317401777,0.5,0.5,0.475959880322295,0.518140682598223,0.493878465283921,0.493878465283921,0.5,0.493878465283921,0.511946942994668,0.493878465283921,0.5,0.487831876942403,0.493878465283921,0.518140682598223,0.488012965285748,0.511987034714252,0.493878465283921,0.518140682598223,0.0850206229872194,0.493438621082741,0.506121534716079,0.00619648109063916,0.5,0.0122430694321577,0.653286844676845,0.501589549603098,2.18223049057832,0.5,64.6878981799477
CBC_1038,CBC_1038_MSI_AV_v3_Vset4_Aset1_2024-05-04_09h31.10.662.csv,1,36,0,2,z,0,1,3,aud,C,27,1,0C,2C,0,1,b,1.20242910000024,1,0,0,0,0C,2C,C02,3.23867845216438,0.535623196466187,0.481859317401777,0.5,0.5,0.475959880322295,0.518140682598223,0.493878465283921,0.493878465283921,0.5,0.493878465283921,0.511946942994668,0.493878465283921,0.5,0.487831876942403,0.50007494637456,0.518140682598223,0.494097050701436,0.505902949298564,0.5,0.511946942994668,0.359658494161532,0.497277511891707,-0.5,-0.00612153471607885,0.5,0.0122430694321577,0.653286844676845,0.501589549603098,2.18223049057832,0.5,64.6878981799477
CBC_1038,CBC_1038_MSI_AV_v3_Vset4_Aset1_2024-05-04_09h31.10.662.csv,1,37,1,0,z,0,1,2,aud,A,63,1,1A,0A,0,1,z,1.22745239999995,0,1,1,1,0A,1A,A10,2.34180580614733,0.535623196466187,0.481859317401777,0.5,0.5,0.475959880322295,0.518140682598223,0.493878465283921,0.493878465283921,0.493878465283921,0.493878465283921,0.511946942994668,0.493878465283921,0.5,0.487831876942403,0.50007494637456,0.518140682598223,0.526420050630662,0.473579949369338,0.535623196466187,0.481859317401777,0.365349203701366,0.515146463507608,0.464376803533813,0.00568539744834792,0.5,0.0122430694321577,0.653286844676845,0.501589549603098,2.18223049057832,0.5,64.6878981799477
CBC_1038,CBC_1038_MSI_AV_v3_Vset4_Aset1_2024-05-04_09h31.10.662.csv,1,38,3,1,z,0,1,1,aud,B,27,1,3B,1B,0,1,z,1.53136029999996,0,1,1,1,1B,3B,B31,3.27714473299218,0.541308593914535,0.481859317401777,0.5,0.5,0.475959880322295,0.518140682598223,0.493878465283921,0.493878465283921,0.493878465283921,0.493878465283921,0.511946942994668,0.493878465283921,0.5,0.487831876942403,0.50007494637456,0.518140682598223,0.511987034714252,0.488012965285748,0.518140682598223,0.493878465283921,0.26830887454046,0.506193873043812,0.481859317401777,0.00589943707948207,0.5,0.0122430694321577,0.653286844676845,0.501589549603098,2.18223049057832,0.5,64.6878981799477
CBC_1038,CBC_1038_MSI_AV_v3_Vset4_Aset1_2024-05-04_09h31.10.662.csv,1,39,2,3,b,1,0,3,aud,C,63,1,2C,3C,1,0,z,1.41961209999999,0,1,0,0,3C,2C,C23,2.60268968544438,0.541308593914535,0.481859317401777,0.5,0.5,0.475959880322295,0.524040119677705,0.493878465283921,0.493878465283921,0.493878465283921,0.493878465283921,0.511946942994668,0.493878465283921,0.5,0.487831876942403,0.50007494637456,0.518140682598223,0.491018084469714,0.508981915530286,0.493878465283921,0.511946942994668,0.293425191250643,0.494610484021885,-0.493878465283921,-0.00604658834151853,0.5,0.0122430694321577,0.653286844676845,0.501589549603098,2.18223049057832,0.5,64.6878981799477
CBC_1038,CBC_1038_MSI_AV_v3_Vset4_Aset1_2024-05-04_09h31.10.662.csv,1,40,2,3,z,0,1,0,aud,D,63,1,2D,3D,NaN,NaN,[],NaN,NaN,NaN,NaN,NaN,,,D23,2.62103882411258,0.541308593914535,0.481859317401777,0.5,0.5,0.475959880322295,0.524040119677705,0.493878465283921,0.493878465283921,0.493878465283921,0.493878465283921,0.511946942994668,0.487831876942403,0.5,0.487831876942403,0.50007494637456,0.518140682598223,0,0,0,0,NaN,0,0,0,0.5,0.0122430694321577,0.653286844676845,0.501589549603098,2.18223049057832,0.5,64.6878981799477
CBC_1038,CBC_1038_MSI_AV_v3_Vset4_Aset1_2024-05-04_09h31.10.662.csv,1,41,1,0,b,1,0,1,aud,B,63,1,1B,0B,1,0,z,0.825091000000157,0,1,0,0,0B,1B,B10,2.63905732961526,0.541308593914535,0.481859317401777,0.5,0.5,0.475959880322295,0.524040119677705,0.493878465283921,0.493878465283921,0.493878465283921,0.493878465283921,0.511946942994668,0.487831876942403,0.5,0.487831876942403,0.50007494637456,0.518140682598223,0.475959880322295,0.524040119677705,0.475959880322295,0.524040119677705,0.186332625027157,0.487132512775663,-0.475959880322295,-0.00582720986170732,0.5,0.0122430694321577,0.653286844676845,0.501589549603098,2.18223049057832,0.5,64.6878981799477
CBC_1038,CBC_1038_MSI_AV_v3_Vset4_Aset1_2024-05-04_09h31.10.662.csv,1,42,0,2,b,1,0,2,aud,A,27,1,0A,2A,NaN,NaN,[],NaN,NaN,NaN,NaN,NaN,,,A02,3.3499040872746,0.541308593914535,0.481859317401777,0.5,0.5,0.470132670460588,0.524040119677705,0.493878465283921,0.493878465283921,0.493878465283921,0.493878465283921,0.511946942994668,0.487831876942403,0.5,0.487831876942403,0.50007494637456,0.518140682598223,0,0,0,0,NaN,0,0,0,0.5,0.0122430694321577,0.653286844676845,0.501589549603098,2.18223049057832,0.5,64.6878981799477
CBC_1038,CBC_1038_MSI_AV_v3_Vset4_Aset1_2024-05-04_09h31.10.662.csv,1,43,0,3,z,0,1,0,aud,D,9,1,0D,3D,NaN,NaN,[],NaN,NaN,NaN,NaN,NaN,,,D03,4.06044301054642,0.541308593914535,0.481859317401777,0.5,0.5,0.470132670460588,0.524040119677705,0.493878465283921,0.493878465283921,0.493878465283921,0.493878465283921,0.511946942994668,0.487831876942403,0.5,0.487831876942403,0.50007494637456,0.518140682598223,0,0,0,0,NaN,0,0,0,0.5,0.0122430694321577,0.653286844676845,0.501589549603098,2.18223049057832,0.5,64.6878981799477
CBC_1038,CBC_1038_MSI_AV_v3_Vset4_Aset1_2024-05-04_09h31.10.662.csv,1,44,2,3,b,1,0,3,aud,C,63,1,2C,3C,1,0,b,2.83821959999977,1,0,1,1,2C,3C,C23,2.46809953147162,0.541308593914535,0.481859317401777,0.5,0.5,0.470132670460588,0.524040119677705,0.493878465283921,0.493878465283921,0.493878465283921,0.493878465283921,0.511946942994668,0.487831876942403,0.5,0.487831876942403,0.50007494637456,0.518140682598223,0.512060200502039,0.487939799497961,0.511946942994668,0.487831876942403,0.0694460704644586,0.506536879239759,0.488053057005332,0.0059752674634931,0.5,0.0122430694321577,0.653286844676845,0.501589549603098,2.18223049057832,0.5,64.6878981799477
CBC_1038,CBC_1038_MSI_TV_v3_Vset6_Tset1_2024-05-04_09h40.02.212.csv,2,1,1,0,b,1,0,1,tac,B,63,1,1B,0B,1,0,z,1.63747689999946,0,1,0,0,0B,1B,B10,2.77258872223978,0.5,0.5,0.5,0.5,0.5,0.5,0.5,0.5,0.5,0.5,0.5,0.5,0.5,0.5,0.5,0.5,0.5,0.5,0.5,0.5,0.237523755879345,0.499736576660783,-0.5,-0.00517657718600822,0.5,0.0103531543720164,0.655552922081867,14.9608881227309,2.27224610088555,0.5,62.061622016519
CBC_1038,CBC_1038_MSI_TV_v3_Vset6_Tset1_2024-05-04_09h40.02.212.csv,2,2,1,0,z,0,1,2,tac,A,63,1,1A,0A,0,1,b,1.04649309999968,1,0,0,0,1A,0A,A10,2.83321334405622,0.5,0.5,0.5,0.5,0.494823422813992,0.5,0.5,0.5,0.5,0.5,0.5,0.5,0.5,0.5,0.5,0.5,0.5,0.5,0.5,0.5,0.35604805860061,0.500346287999945,-0.5,-0.00517657718600822,0.5,0.0103531543720164,0.655552922081867,14.9608881227309,2.27224610088555,0.5,62.061622016519
CBC_1038,CBC_1038_MSI_TV_v3_Vset6_Tset1_2024-05-04_09h40.02.212.csv,2,3,3,2,b,1,0,0,tac,D,63,1,3D,2D,1,0,b,1.72251620000043,1,0,1,1,3D,2D,D32,2.89037175789616,0.5,0.494823422813992,0.5,0.5,0.494823422813992,0.5,0.5,0.5,0.5,0.5,0.5,0.5,0.5,0.5,0.5,0.5,0.5,0.5,0.5,0.5,0.219206229299847,0.499854798839988,0.5,0.00517657718600822,0.5,0.0103531543720164,0.655552922081867,14.9608881227309,2.27224610088555,0.5,62.061622016519
CBC_1038,CBC_1038_MSI_TV_v3_Vset6_Tset1_2024-05-04_09h40.02.212.csv,2,4,1,2,b,1,0,1,tac,B,9,1,1B,2B,1,0,b,1.72706879999987,1,0,1,1,1B,2B,B12,2.94443897916644,0.5,0.494823422813992,0.5,0.5,0.494823422813992,0.5,0.5,0.5,0.5,0.5,0.5,0.5,0.5,0.5,0.5,0.505176577186008,0.5,0.5,0.5,0.5,0.218583553238971,0.500593695349182,0.5,0.00517657718600822,0.5,0.0103531543720164,0.655552922081867,14.9608881227309,2.27224610088555,0.5,62.061622016519
CBC_1038,CBC_1038_MSI_TV_v3_Vset6_Tset1_2024-05-04_09h40.02.212.csv,2,5,2,0,z,0,1,2,tac,A,27,1,2A,0A,0,1,b,1.72624629999973,1,0,0,0,2A,0A,A20,2.99573227355399,0.5,0.494823422813992,0.5,0.5,0.494823422813992,0.505176577186008,0.5,0.5,0.5,0.5,0.5,0.5,0.5,0.5,0.5,0.505176577186008,0.5,0.5,0.5,0.5,0.21872092706387,0.500517316377933,-0.5,-0.00517657718600822,0.5,0.0103531543720164,0.655552922081867,14.9608881227309,2.27224610088555,0.5,62.061622016519
CBC_1038,CBC_1038_MSI_TV_v3_Vset6_Tset1_2024-05-04_09h40.02.212.csv,2,6,3,2,z,0,1,3,tac,C,63,1,3C,2C,0,1,b,1.23047979999956,1,0,0,0,3C,2C,C32,3.04452243772342,0.5,0.494823422813992,0.494823422813992,0.5,0.494823422813992,0.505176577186008,0.5,0.5,0.5,0.5,0.5,0.5,0.5,0.5,0.5,0.505176577186008,0.5,0.5,0.5,0.5,0.338191583053145,0.499919734602901,-0.5,-0.00517657718600822,0.5,0.0103531543720164,0.655552922081867,14.9608881227309,2.27224610088555,0.5,62.061622016519
CBC_1038,CBC_1038_MSI_TV_v3_Vset6_Tset1_2024-05-04_09h40.02.212.csv,2,7,3,1,b,1,0,0,tac,D,27,1,3D,1D,1,0,b,1.35566859999926,1,0,1,1,3D,1D,D31,3.09104245335832,0.5,0.494823422813992,0.494823422813992,0.5,0.494823422813992,0.505176577186008,0.5,0.5,0.5,0.5,0.5,0.494823422813992,0.5,0.5,0.5,0.505176577186008,0.502574959118377,0.497425040881623,0.505176577186008,0.5,0.33441345814345,0.543359723080595,0.494823422813992,0.00512298328328282,0.5,0.0103531543720164,0.655552922081867,14.9608881227309,2.27224610088555,0.5,62.061622016519
CBC_1038,CBC_1038_MSI_TV_v3_Vset6_Tset1_2024-05-04_09h40.02.212.csv,2,8,0,1,b,1,0,2,tac,A,63,1,0A,1A,1,0,z,2.51368730000013,0,1,0,0,1A,0A,A01,3.13549421592915,0.5,0.494823422813992,0.494823422813992,0.5,0.494823422813992,0.505176577186008,0.5,0.5,0.5,0.5,0.5,0.494823422813992,0.5,0.5,0.5,0.510299560469291,0.497398243212164,0.502601756787836,0.494823422813992,0.5,0.0936390740166136,0.455254834100943,-0.494823422813992,-0.00512298328328282,0.5,0.0103531543720164,0.655552922081867,14.9608881227309,2.27224610088555,0.5,62.061622016519
CBC_1038,CBC_1038_MSI_TV_v3_Vset6_Tset1_2024-05-04_09h40.02.212.csv,2,9,0,2,z,0,1,3,tac,C,27,1,0C,2C,0,1,b,2.65848939999978,1,0,0,0,0C,2C,C02,3.17805383034795,0.5,0.489700439530709,0.494823422813992,0.5,0.494823422813992,0.505176577186008,0.5,0.5,0.5,0.5,0.5,0.494823422813992,0.5,0.5,0.5,0.510299560469291,0.5,0.5,0.5,0.5,0.0896751717491459,0.499809280478788,-0.5,-0.00517657718600822,0.5,0.0103531543720164,0.655552922081867,14.9608881227309,2.27224610088555,0.5,62.061622016519
CBC_1038,CBC_1038_MSI_TV_v3_Vset6_Tset1_2024-05-04_09h40.02.212.csv,2,10,3,2,b,1,0,0,tac,D,63,1,3D,2D,1,0,b,1.70349369999985,1,0,1,1,3D,2D,D32,2.52572864430826,0.5,0.489700439530709,0.494823422813992,0.5,0.494823422813992,0.505176577186008,0.5,0.5,0.494823422813992,0.5,0.5,0.494823422813992,0.5,0.5,0.5,0.510299560469291,0.505097280486051,0.494902719513949,0.510299560469291,0.5,0.261993077564705,0.585148914325849,0.489700439530709,0.00506994424650574,0.5,0.0103531543720164,0.655552922081867,14.9608881227309,2.27224610088555,0.5,62.061622016519
CBC_1038,CBC_1038_MSI_TV_v3_Vset6_Tset1_2024-05-04_09h40.02.212.csv,2,11,0,1,z,0,1,1,tac,B,63,1,0B,1B,0,1,z,2.49467149999964,0,1,1,1,1B,0B,B01,3.25809653802148,0.5,0.489700439530709,0.494823422813992,0.5,0.494823422813992,0.505176577186008,0.5,0.5,0.494823422813992,0.5,0.5,0.494823422813992,0.5,0.5,0.5,0.515369504715797,0.505176577186008,0.494823422813992,0.505176577186008,0.494823422813992,0.122328291891256,0.586861752732884,0.494823422813992,0.00512298328328282,0.5,0.0103531543720164,0.655552922081867,14.9608881227309,2.27224610088555,0.5,62.061622016519
CBC_1038,CBC_1038_MSI_TV_v3_Vset6_Tset1_2024-05-04_09h40.02.212.csv,2,12,1,0,z,0,1,2,tac,A,63,1,1A,0A,NaN,NaN,None,NaN,NaN,NaN,NaN,NaN,,,A10,2.60268968544438,0.5,0.489700439530709,0.494823422813992,0.5,0.494823422813992,0.510299560469291,0.5,0.5,0.494823422813992,0.5,0.5,0.494823422813992,0.5,0.5,0.5,0.515369504715797,0,0,0,0,NaN,0,0,0,0.5,0.0103531543720164,0.655552922081867,14.9608881227309,2.27224610088555,0.5,62.061622016519
CBC_1038,CBC_1038_MSI_TV_v3_Vset6_Tset1_2024-05-04_09h40.02.212.csv,2,13,3,2,b,1,0,0,tac,D,63,1,3D,2D,1,0,b,1.19098180000037,1,0,1,1,3D,2D,D32,2.23359222150709,0.5,0.489700439530709,0.494823422813992,0.5,0.494823422813992,0.510299560469291,0.5,0.5,0.494823422813992,0.5,0.5,0.494823422813992,0.5,0.5,0.5,0.515369504715797,0.507568429347353,0.492431570652647,0.515369504715797,0.5,0.441938835698965,0.625723757789454,0.484630495284203,0.00501745433106415,0.5,0.0103531543720164,0.655552922081867,14.9608881227309,2.27224610088555,0.5,62.061622016519
CBC_1038,CBC_1038_MSI_TV_v3_Vset6_Tset1_2024-05-04_09h40.02.212.csv,2,14,0,2,z,0,1,3,tac,C,27,1,0C,2C,0,1,b,1.77873279999949,1,0,0,0,0C,2C,C02,2.67414864942653,0.5,0.489700439530709,0.494823422813992,0.5,0.494823422813992,0.510299560469291,0.5,0.5,0.494823422813992,0.5,0.5,0.494823422813992,0.5,0.5,0.5,0.520386959046861,0.497398243212164,0.502601756787836,0.494823422813992,0.5,0.189802537196164,0.456334751819066,-0.494823422813992,-0.00512298328328282,0.5,0.0103531543720164,0.655552922081867,14.9608881227309,2.27224610088555,0.5,62.061622016519
CBC_1038,CBC_1038_MSI_TV_v3_Vset6_Tset1_2024-05-04_09h40.02.212.csv,2,15,1,0,z,0,1,2,tac,A,63,1,1A,0A,0,1,b,4.00225759999921,1,0,0,0,1A,0A,A10,2.30258509299405,0.5,0.489700439530709,0.494823422813992,0.5,0.494823422813992,0.510299560469291,0.5,0.5,0.489700439530709,0.5,0.5,0.494823422813992,0.5,0.5,0.5,0.520386959046861,0.494796627313728,0.505203372686272,0.489700439530709,0.5,0.0199041395098693,0.411192283599019,-0.489700439530709,-0.00506994424650574,0.5,0.0103531543720164,0.655552922081867,14.9608881227309,2.27224610088555,0.5,62.061622016519
CBC_1038,CBC_1038_MSI_TV_v3_Vset6_Tset1_2024-05-04_09h40.02.212.csv,2,16,3,1,z,0,1,1,tac,B,27,1,3B,1B,0,1,z,2.3717046999991,0,1,1,1,1B,3B,B31,3.43398720448515,0.5,0.484630495284203,0.494823422813992,0.5,0.494823422813992,0.510299560469291,0.5,0.5,0.489700439530709,0.5,0.5,0.494823422813992,0.5,0.5,0.5,0.520386959046861,0.505097280486051,0.494902719513949,0.510299560469291,0.5,0.137487968494046,0.585495103155906,0.489700439530709,0.00506994424650574,0.5,0.0103531543720164,0.655552922081867,14.9608881227309,2.27224610088555,0.5,62.061622016519
CBC_1038,CBC_1038_MSI_TV_v3_Vset6_Tset1_2024-05-04_09h40.02.212.csv,2,17,2,3,b,1,0,3,tac,C,63,1,2C,3C,1,0,b,1.49448250000023,1,0,1,1,2C,3C,C23,3.46573590279973,0.5,0.484630495284203,0.494823422813992,0.5,0.494823422813992,0.515369504715797,0.5,0.5,0.489700439530709,0.5,0.5,0.494823422813992,0.5,0.5,0.5,0.520386959046861,0.502601756787836,0.497398243212164,0.5,0.494823422813992,0.295831637876972,0.543948761105674,0.5,0.00517657718600822,0.5,0.0103531543720164,0.655552922081867,14.9608881227309,2.27224610088555,0.5,62.061622016519
CBC_1038,CBC_1038_MSI_TV_v3_Vset6_Tset1_2024-05-04_09h40.02.212.csv,2,18,3,2,b,1,0,0,tac,D,63,0,3D,2D,0,1,b,1.42242319999968,1,0,1,0,3D,2D,D32,2.11021320034659,0.5,0.484630495284203,0.494823422813992,0.5,0.494823422813992,0.515369504715797,0.5,0.5,0.489700439530709,0.5,0.505176577186008,0.494823422813992,0.5,0.5,0.5,0.520386959046861,0.509989817522709,0.490010182477291,0.520386959046861,0.5,0.393825269521414,0.6641970844272,-0.520386959046861,-0.00538764652019635,0.5,0.0103531543720164,0.655552922081867,14.9608881227309,2.27224610088555,0.5,62.061622016519
CBC_1038,CBC_1038_MSI_TV_v3_Vset6_Tset1_2024-05-04_09h40.02.212.csv,2,19,0,1,z,0,1,1,tac,B,63,1,0B,1B,0,1,b,2.51494970000022,1,0,0,0,0B,1B,B01,2.83321334405622,0.5,0.484630495284203,0.494823422813992,0.5,0.494823422813992,0.515369504715797,0.5,0.5,0.489700439530709,0.5,0.505176577186008,0.494823422813992,0.5,0.5,0.5,0.514999312526665,0.489830614854904,0.510169385145096,0.494823422813992,0.515369504715797,0.0667587123611426,0.333453334289479,-0.494823422813992,-0.00512298328328282,0.5,0.0103531543720164,0.655552922081867,14.9608881227309,2.27224610088555,0.5,62.061622016519
CBC_1038,CBC_1038_MSI_TV_v3_Vset6_Tset1_2024-05-04_09h40.02.212.csv,2,20,0,2,b,1,0,2,tac,A,27,1,0A,2A,1,0,b,3.85838160000003,1,0,1,1,0A,2A,A02,3.55534806148941,0.5,0.484630495284203,0.494823422813992,0.5,0.489700439530709,0.515369504715797,0.5,0.5,0.489700439530709,0.5,0.505176577186008,0.494823422813992,0.5,0.5,0.5,0.514999312526665,0.502601756787836,0.497398243212164,0.5,0.494823422813992,0.0308399490621236,0.544317836001328,0.5,0.00517657718600822,0.5,0.0103531543720164,0.655552922081867,14.9608881227309,2.27224610088555,0.5,62.061622016519
CBC_1038,CBC_1038_MSI_TV_v3_Vset6_Tset1_2024-05-04_09h40.02.212.csv,2,21,3,0,b,1,0,0,tac,D,9,1,3D,0D,1,0,b,1.3981388000002,1,0,1,1,3D,0D,D30,3.58351893845611,0.505176577186008,0.484630495284203,0.494823422813992,0.5,0.489700439530709,0.515369504715797,0.5,0.5,0.489700439530709,0.5,0.505176577186008,0.494823422813992,0.5,0.5,0.5,0.514999312526665,0.507388828909315,0.492611171090685,0.514999312526665,0.5,0.374612219447538,0.624099321671066,0.485000687473335,0.00502128698794555,0.5,0.0103531543720164,0.655552922081867,14.9608881227309,2.27224610088555,0.5,62.061622016519
CBC_1038,CBC_1038_MSI_TV_v3_Vset6_Tset1_2024-05-04_09h40.02.212.csv,2,22,3,2,z,0,1,3,tac,C,63,1,3C,2C,0,1,b,2.378639999999,1,0,0,0,3C,2C,C32,2.91777073208428,0.505176577186008,0.484630495284203,0.494823422813992,0.5,0.489700439530709,0.515369504715797,0.5,0.5,0.489700439530709,0.5,0.505176577186008,0.494823422813992,0.5,0.5,0.5,0.52002059951461,0.494823422813992,0.505176577186008,0.494823422813992,0.505176577186008,0.0964986267809701,0.413745967847439,-0.494823422813992,-0.00512298328328282,0.5,0.0103531543720164,0.655552922081867,14.9608881227309,2.27224610088555,0.5,62.061622016519
CBC_1038,CBC_1038_MSI_TV_v3_Vset6_Tset1_2024-05-04_09h40.02.212.csv,2,23,1,3,b,1,0,1,tac,B,27,1,1B,3B,1,0,b,0.798084399999425,1,0,1,1,1B,3B,B13,3.63758615972639,0.505176577186008,0.484630495284203,0.494823422813992,0.5,0.489700439530709,0.515369504715797,0.5,0.5,0.489700439530709,0.5,0.505176577186008,0.489700439530709,0.5,0.5,0.5,0.52002059951461,0.507568429347353,0.492431570652647,0.515369504715797,0.5,0.117358984734905,0.626319172481868,0.484630495284203,0.00501745433106415,0.5,0.0103531543720164,0.655552922081867,14.9608881227309,2.27224610088555,0.5,62.061622016519
CBC_1038,CBC_1038_MSI_TV_v3_Vset6_Tset1_2024-05-04_09h40.02.212.csv,2,24,2,3,b,1,0,3,tac,C,63,1,2C,3C,1,0,b,1.50196659999983,1,0,1,1,2C,3C,C23,2.9704144655697,0.505176577186008,0.484630495284203,0.494823422813992,0.5,0.489700439530709,0.520386959046861,0.5,0.5,0.489700439530709,0.5,0.505176577186008,0.489700439530709,0.5,0.5,0.5,0.52002059951461,0.507777914955948,0.492222085044052,0.505176577186008,0.489700439530709,0.343506382701464,0.629437805590649,0.494823422813992,0.00512298328328282,0.5,0.0103531543720164,0.655552922081867,14.9608881227309,2.27224610088555,0.5,62.061622016519
CBC_1038,CBC_1038_MSI_TV_v3_Vset6_Tset1_2024-05-04_09h40.02.212.csv,2,25,3,2,b,1,0,0,tac,D,63,1,3D,2D,1,0,b,1.25652109999919,1,0,1,1,3D,2D,D32,2.07944154167984,0.505176577186008,0.484630495284203,0.494823422813992,0.5,0.489700439530709,0.520386959046861,0.5,0.5,0.489700439530709,0.5,0.510299560469291,0.489700439530709,0.5,0.5,0.5,0.52002059951461,0.509813821173875,0.490186178826125,0.52002059951461,0.5,0.451343979637176,0.660212268356036,0.47997940048539,0.00496930082861315,0.5,0.0103531543720164,0.655552922081867,14.9608881227309,2.27224610088555,0.5,62.061622016519
CBC_1038,CBC_1038_MSI_TV_v3_Vset6_Tset1_2024-05-04_09h40.02.212.csv,2,26,0,1,z,0,1,1,tac,B,63,1,0B,1B,0,1,b,1.62521969999943,1,0,0,0,0B,1B,B01,2.6149597780362,0.505176577186008,0.484630495284203,0.494823422813992,0.5,0.489700439530709,0.520386959046861,0.5,0.5,0.489700439530709,0.5,0.510299560469291,0.489700439530709,0.5,0.5,0.5,0.524989900343223,0.484809968147625,0.515190031852375,0.489700439530709,0.520386959046861,0.129980778780965,0.262989344265609,-0.489700439530709,-0.00506994424650574,0.5,0.0103531543720164,0.655552922081867,14.9608881227309,2.27224610088555,0.5,62.061622016519
CBC_1038,CBC_1038_MSI_TV_v3_Vset6_Tset1_2024-05-04_09h40.02.212.csv,2,27,3,0,z,0,1,2,tac,A,9,1,3A,0A,0,1,z,2.03723160000027,0,1,1,1,0A,3A,A30,3.73766961828337,0.505176577186008,0.484630495284203,0.494823422813992,0.5,0.484630495284203,0.520386959046861,0.5,0.5,0.489700439530709,0.5,0.510299560469291,0.489700439530709,0.5,0.5,0.5,0.524989900343223,0.502574959118377,0.497425040881623,0.505176577186008,0.5,0.176686309587109,0.54401529476244,0.494823422813992,0.00512298328328282,0.5,0.0103531543720164,0.655552922081867,14.9608881227309,2.27224610088555,0.5,62.061622016519
CBC_1038,CBC_1038_MSI_TV_v3_Vset6_Tset1_2024-05-04_09h40.02.212.csv,2,28,3,2,b,1,0,0,tac,D,63,1,3D,2D,1,0,b,1.13970919999974,1,0,1,1,3D,2D,D32,1.96944064646551,0.510299560469291,0.484630495284203,0.494823422813992,0.5,0.484630495284203,0.520386959046861,0.5,0.5,0.489700439530709,0.5,0.510299560469291,0.489700439530709,0.5,0.5,0.5,0.524989900343223,0.512190315404501,0.487809684595499,0.524989900343223,0.5,0.52038692293213,0.696604514125125,0.475010099656777,0.00491785289001353,0.5,0.0103531543720164,0.655552922081867,14.9608881227309,2.27224610088555,0.5,62.061622016519
CBC_1038,CBC_1038_MSI_TV_v3_Vset6_Tset1_2024-05-04_09h40.02.212.csv,2,29,0,2,z,0,1,3,tac,C,27,1,0C,2C,0,1,b,1.743059299999,1,0,0,0,0C,2C,C02,2.68557734525015,0.510299560469291,0.484630495284203,0.494823422813992,0.5,0.484630495284203,0.520386959046861,0.5,0.5,0.489700439530709,0.5,0.510299560469291,0.489700439530709,0.5,0.5,0.5,0.529907753233237,0.489700439530709,0.510299560469291,0.489700439530709,0.510299560469291,0.143679635279433,0.331263692045555,-0.489700439530709,-0.00506994424650574,0.5,0.0103531543720164,0.655552922081867,14.9608881227309,2.27224610088555,0.5,62.061622016519
CBC_1038,CBC_1038_MSI_TV_v3_Vset6_Tset1_2024-05-04_09h40.02.212.csv,2,30,0,1,b,1,0,2,tac,A,63,1,0A,1A,1,0,b,1.96157159999893,1,0,1,1,0A,1A,A01,3.11351530921037,0.510299560469291,0.484630495284203,0.494823422813992,0.5,0.484630495284203,0.520386959046861,0.5,0.5,0.484630495284203,0.5,0.510299560469291,0.489700439530709,0.5,0.5,0.5,0.529907753233237,0.512899934541453,0.487100065458547,0.510299560469291,0.484630495284203,0.245438153772289,0.705664703485845,0.489700439530709,0.00506994424650574,0.5,0.0103531543720164,0.655552922081867,14.9608881227309,2.27224610088555,0.5,62.061622016519
CBC_1038,CBC_1038_MSI_TV_v3_Vset6_Tset1_2024-05-04_09h40.02.212.csv,2,31,0,1,z,0,1,1,tac,B,63,1,0B,1B,0,1,b,1.05360659999951,1,0,0,0,0B,1B,B01,2.4423470353692,0.515369504715797,0.484630495284203,0.494823422813992,0.5,0.484630495284203,0.520386959046861,0.5,0.5,0.484630495284203,0.5,0.510299560469291,0.489700439530709,0.5,0.5,0.5,0.529907753233237,0.482211023495877,0.517788976504123,0.484630495284203,0.520386959046861,0.183847547769101,0.229319453672988,-0.484630495284203,-0.00501745433106415,0.5,0.0103531543720164,0.655552922081867,14.9608881227309,2.27224610088555,0.5,62.061622016519
CBC_1038,CBC_1038_MSI_TV_v3_Vset6_Tset1_2024-05-04_09h40.02.212.csv,2,32,1,3,z,0,1,0,tac,D,27,1,1D,3D,0,1,z,1.48456429999987,0,1,1,1,3D,1D,D13,3.85014760171006,0.515369504715797,0.484630495284203,0.494823422813992,0.5,0.479613040953139,0.520386959046861,0.5,0.5,0.484630495284203,0.5,0.510299560469291,0.489700439530709,0.5,0.5,0.5,0.529907753233237,0.514519627189594,0.485480372810407,0.529907753233237,0.5,0.415243853458536,0.728665531902267,0.470092246766763,0.00486693759986435,0.5,0.0103531543720164,0.655552922081867,14.9608881227309,2.27224610088555,0.5,62.061622016519
CBC_1038,CBC_1038_MSI_TV_v3_Vset6_Tset1_2024-05-04_09h40.02.212.csv,2,33,2,3,b,1,0,3,tac,C,63,1,2C,3C,1,0,b,1.43492799999967,1,0,1,1,2C,3C,C23,2.77258872223978,0.515369504715797,0.484630495284203,0.494823422813992,0.5,0.479613040953139,0.520386959046861,0.5,0.5,0.484630495284203,0.5,0.510299560469291,0.489700439530709,0.5,0.5,0.5,0.534774690833101,0.510299560469291,0.489700439530709,0.510299560469291,0.489700439530709,0.392296285131999,0.668604399599864,0.489700439530709,0.00506994424650574,0.5,0.0103531543720164,0.655552922081867,14.9608881227309,2.27224610088555,0.5,62.061622016519
CBC_1038,CBC_1038_MSI_TV_v3_Vset6_Tset1_2024-05-04_09h40.02.212.csv,2,34,0,1,z,0,1,1,tac,B,63,1,0B,1B,0,1,b,1.05963179999981,1,0,0,0,0B,1B,B01,2.28238238567653,0.515369504715797,0.484630495284203,0.494823422813992,0.5,0.479613040953139,0.520386959046861,0.5,0.5,0.484630495284203,0.5,0.515369504715797,0.489700439530709,0.5,0.5,0.5,0.534774690833101,0.479613040953139,0.520386959046861,0.479613040953139,0.520386959046861,0.165775845109268,0.200137286970396,-0.479613040953139,-0.0049655078518201,0.5,0.0103531543720164,0.655552922081867,14.9608881227309,2.27224610088555,0.5,62.061622016519
CBC_1038,CBC_1038_MSI_TV_v3_Vset6_Tset1_2024-05-04_09h40.02.212.csv,2,35,1,0,z,0,1,2,tac,A,63,1,1A,0A,0,1,b,2.11834809999982,1,0,0,0,1A,0A,A10,2.52572864430826,0.515369504715797,0.484630495284203,0.494823422813992,0.5,0.474647533101319,0.520386959046861,0.5,0.5,0.484630495284203,0.5,0.515369504715797,0.489700439530709,0.5,0.5,0.5,0.534774690833101,0.484630495284203,0.515369504715797,0.484630495284203,0.515369504715797,0.0762512539823293,0.25980864616078,-0.484630495284203,-0.00501745433106415,0.5,0.0103531543720164,0.655552922081867,14.9608881227309,2.27224610088555,0.5,62.061622016519
CBC_1038,CBC_1038_MSI_TV_v3_Vset6_Tset1_2024-05-04_09h40.02.212.csv,2,36,2,1,b,1,0,3,tac,C,9,1,2C,1C,1,0,b,0.953080799999043,1,0,1,1,2C,1C,C21,3.93182563272433,0.515369504715797,0.479613040953139,0.494823422813992,0.5,0.474647533101319,0.520386959046861,0.5,0.5,0.484630495284203,0.5,0.515369504715797,0.489700439530709,0.5,0.5,0.5,0.534774690833101,0.507568429347353,0.492431570652647,0.515369504715797,0.5,0.408999486386812,0.625088532355327,0.484630495284203,0.00501745433106415,0.5,0.0103531543720164,0.655552922081867,14.9608881227309,2.27224610088555,0.5,62.061622016519
CBC_1038,CBC_1038_MSI_TV_v3_Vset6_Tset1_2024-05-04_09h40.02.212.csv,2,37,0,1,b,1,0,2,tac,A,63,1,0A,1A,1,0,b,2.17420409999977,1,0,1,1,0A,1A,A01,2.85263142991332,0.515369504715797,0.479613040953139,0.494823422813992,0.5,0.474647533101319,0.520386959046861,0.5,0.5,0.484630495284203,0.5,0.520386959046861,0.489700439530709,0.5,0.5,0.5,0.534774690833101,0.517968387444736,0.482031612555264,0.515369504715797,0.479613040953139,0.210707257795741,0.771994987054342,0.484630495284203,0.00501745433106415,0.5,0.0103531543720164,0.655552922081867,14.9608881227309,2.27224610088555,0.5,62.061622016519
CBC_1038,CBC_1038_MSI_TV_v3_Vset6_Tset1_2024-05-04_09h40.02.212.csv,2,38,1,3,z,0,1,0,tac,D,27,1,1D,3D,0,1,z,1.37893749999967,0,1,1,1,3D,1D,D13,3.27714473299218,0.520386959046861,0.479613040953139,0.494823422813992,0.5,0.474647533101319,0.520386959046861,0.5,0.5,0.484630495284203,0.5,0.520386959046861,0.489700439530709,0.5,0.5,0.5,0.534774690833101,0.516803025403097,0.483196974596903,0.534774690833101,0.5,0.486116767220141,0.757623269381653,0.465225309166899,0.00481654944357398,0.5,0.0103531543720164,0.655552922081867,14.9608881227309,2.27224610088555,0.5,62.061622016519
CBC_1038,CBC_1038_MSI_TV_v3_Vset6_Tset1_2024-05-04_09h40.02.212.csv,2,39,1,0,b,1,0,1,tac,B,63,1,1B,0B,1,0,b,2.76835059999939,1,0,1,1,1B,0B,B10,3.29583686600433,0.520386959046861,0.479613040953139,0.494823422813992,0.5,0.474647533101319,0.520386959046861,0.5,0.5,0.484630495284203,0.5,0.520386959046861,0.489700439530709,0.5,0.5,0.5,0.539591240276675,0.522983839407815,0.477016160592184,0.520386959046861,0.474647533101319,0.107092569588289,0.826302580097754,0.479613040953139,0.0049655078518201,0.5,0.0103531543720164,0.655552922081867,14.9608881227309,2.27224610088555,0.5,62.061622016519
CBC_1038,CBC_1038_MSI_TV_v3_Vset6_Tset1_2024-05-04_09h40.02.212.csv,2,40,3,2,z,0,1,3,tac,C,63,0,3C,2C,1,0,z,1.47045489999982,0,1,1,0,2C,3C,C32,2.90872089656436,0.520386959046861,0.479613040953139,0.494823422813992,0.5,0.474647533101319,0.525352466898681,0.5,0.5,0.484630495284203,0.5,0.520386959046861,0.489700439530709,0.5,0.5,0.5,0.539591240276675,0.515190031852375,0.484809968147625,0.520386959046861,0.489700439530709,0.42716897296547,0.736768326422323,-0.520386959046861,-0.00538764652019635,0.5,0.0103531543720164,0.655552922081867,14.9608881227309,2.27224610088555,0.5,62.061622016519
CBC_1038,CBC_1038_MSI_TV_v3_Vset6_Tset1_2024-05-04_09h40.02.212.csv,2,41,0,2,b,1,0,2,tac,A,27,1,0A,2A,1,0,b,2.09757369999897,1,0,1,1,0A,2A,A02,3.3322045101752,0.520386959046861,0.479613040953139,0.494823422813992,0.5,0.474647533101319,0.525352466898681,0.5,0.5,0.484630495284203,0.5,0.514999312526665,0.489700439530709,0.5,0.5,0.5,0.539591240276675,0.512590265372391,0.487409734627609,0.520386959046861,0.494823422813992,0.212320756677919,0.701649185756691,0.479613040953139,0.0049655078518201,0.5,0.0103531543720164,0.655552922081867,14.9608881227309,2.27224610088555,0.5,62.061622016519
CBC_1038,CBC_1038_MSI_TV_v3_Vset6_Tset1_2024-05-04_09h40.02.212.csv,2,42,2,3,z,0,1,0,tac,D,63,1,2D,3D,NaN,NaN,None,NaN,NaN,NaN,NaN,NaN,,,D23,4.04305126783455,0.525352466898681,0.479613040953139,0.494823422813992,0.5,0.474647533101319,0.525352466898681,0.5,0.5,0.484630495284203,0.5,0.514999312526665,0.489700439530709,0.5,0.5,0.5,0.539591240276675,0,0,0,0,NaN,0,0,0,0.5,0.0103531543720164,0.655552922081867,14.9608881227309,2.27224610088555,0.5,62.061622016519
CBC_1038,CBC_1038_MSI_TV_v3_Vset6_Tset1_2024-05-04_09h40.02.212.csv,2,43,1,3,b,1,0,1,tac,B,27,1,1B,3B,1,0,b,1.62550569999985,1,0,1,1,1B,3B,B13,3.36729582998647,0.525352466898681,0.479613040953139,0.494823422813992,0.5,0.474647533101319,0.525352466898681,0.5,0.5,0.484630495284203,0.5,0.514999312526665,0.489700439530709,0.5,0.5,0.5,0.539591240276675,0.512362805823915,0.487637194176085,0.525352466898681,0.5,0.342383744209667,0.698546219750949,0.474647533101319,0.00491409918249474,0.5,0.0103531543720164,0.655552922081867,14.9608881227309,2.27224610088555,0.5,62.061622016519
CBC_1038,CBC_1038_MSI_TV_v3_Vset6_Tset1_2024-05-04_09h40.02.212.csv,2,44,3,2,z,0,1,3,tac,C,63,1,3C,2C,NaN,NaN,None,NaN,NaN,NaN,NaN,NaN,,,C32,2.69124308278583,0.525352466898681,0.479613040953139,0.494823422813992,0.5,0.474647533101319,0.530266566081176,0.5,0.5,0.484630495284203,0.5,0.514999312526665,0.489700439530709,0.5,0.5,0.5,0.539591240276675,0,0,0,0,NaN,0,0,0,0.5,0.0103531543720164,0.655552922081867,14.9608881227309,2.27224610088555,0.5,62.061622016519
