ID,filename,session,trial,visStimLeft,visStimRight,correctKey,leftCorrect,rightCorrect,secondStim,mod2Type,mod2Stim,frequency,rewardAccurate,stimPairLeft,stimPairRight,pCorrectLeft,pCorrectRight,key,reactionTime,choiceLeft,choiceRight,choiceAccurate,reward,chosenPair,otherPair,triplet,surprise,0A belief,1A belief,2A belief,3A belief,0B belief,1B belief,2B belief,3B belief,0C belief,1C belief,2C belief,3C belief,0D belief,1D belief,2D belief,3D belief,beliefPairNorm,beliefOtherPairNorm,beliefPair,beliefOtherPair,lik,corrLik,rewardPE,update2,fitCBCsimpleRW_CBCdriftDiffusionLR_startBelief,fitCBCsimpleRW_CBCdriftDiffusionLR_alpha1,fitCBCsimpleRW_CBCdriftDiffusionLR_nonDecisionTime,fitCBCsimpleRW_CBCdriftDiffusionLR_weight,fitCBCsimpleRW_CBCdriftDiffusionLR_startingBoundary,fitCBCsimpleRW_CBCdriftDiffusionLR_startingPoint,fit_CBCsimpleRW_CBCdriftDiffusionLR_NLL
CBC_1002,CBC_1002_MSI_TV_v3_Vset1_Tset3_2023-05-31_16h13.57.205.csv,1,1,0,1,z,0,1,1,tac,B,63,1,0B,1B,0,1,b,2.58153660000062,1,0,0,0,0B,1B,B01,2.77258872223978,0.5,0.5,0.5,0.5,0.5,0.5,0.5,0.5,0.5,0.5,0.5,0.5,0.5,0.5,0.5,0.5,0.5,0.5,0.5,0.5,0.156440184629765,0.500479831097941,-0.5,-0.370895404026827,0.5,0.741790808053655,1.09791912567374,0.709676966755649,2.87922737230477,0.5,70.077823286677
CBC_1002,CBC_1002_MSI_TV_v3_Vset1_Tset3_2023-05-31_16h13.57.205.csv,1,2,0,1,b,1,0,0,tac,A,63,1,0A,1A,1,0,b,2.40994879999926,1,0,1,1,0A,1A,A01,2.83321334405622,0.5,0.5,0.5,0.5,0.129104595973173,0.5,0.5,0.5,0.5,0.5,0.5,0.5,0.5,0.5,0.5,0.5,0.5,0.5,0.5,0.5,0.172559100111994,0.500068166639329,0.5,0.370895404026827,0.5,0.741790808053655,1.09791912567374,0.709676966755649,2.87922737230477,0.5,70.077823286677
CBC_1002,CBC_1002_MSI_TV_v3_Vset1_Tset3_2023-05-31_16h13.57.205.csv,1,3,2,3,z,0,1,2,tac,D,63,1,2D,3D,0,1,b,2.45501220000006,1,0,0,0,2D,3D,D23,2.89037175789616,0.870895404026827,0.5,0.5,0.5,0.129104595973173,0.5,0.5,0.5,0.5,0.5,0.5,0.5,0.5,0.5,0.5,0.5,0.5,0.5,0.5,0.5,0.168238901949579,0.500240131959262,-0.5,-0.370895404026827,0.5,0.741790808053655,1.09791912567374,0.709676966755649,2.87922737230477,0.5,70.077823286677
CBC_1002,CBC_1002_MSI_TV_v3_Vset1_Tset3_2023-05-31_16h13.57.205.csv,1,4,2,1,z,0,1,1,tac,B,9,1,2B,1B,0,1,b,2.65311859999929,1,0,0,0,2B,1B,B21,2.94443897916644,0.870895404026827,0.5,0.5,0.5,0.129104595973173,0.5,0.5,0.5,0.5,0.5,0.5,0.5,0.5,0.5,0.129104595973173,0.5,0.5,0.5,0.5,0.5,0.149723326859647,0.499472106401085,-0.5,-0.370895404026827,0.5,0.741790808053655,1.09791912567374,0.709676966755649,2.87922737230477,0.5,70.077823286677
CBC_1002,CBC_1002_MSI_TV_v3_Vset1_Tset3_2023-05-31_16h13.57.205.csv,1,5,0,2,b,1,0,0,tac,A,27,1,0A,2A,1,0,z,2.98528799999985,0,1,0,0,2A,0A,A02,2.99573227355399,0.870895404026827,0.5,0.5,0.5,0.129104595973173,0.5,0.129104595973173,0.5,0.5,0.5,0.5,0.5,0.5,0.5,0.129104595973173,0.5,0.364725126753883,0.635274873246117,0.5,0.870895404026827,0.0902122354331522,0.365136924469349,-0.5,-0.370895404026827,0.5,0.741790808053655,1.09791912567374,0.709676966755649,2.87922737230477,0.5,70.077823286677
CBC_1002,CBC_1002_MSI_TV_v3_Vset1_Tset3_2023-05-31_16h13.57.205.csv,1,6,2,3,b,1,0,3,tac,C,63,1,2C,3C,1,0,b,2.36420339999859,1,0,1,1,2C,3C,C23,3.04452243772342,0.870895404026827,0.5,0.129104595973173,0.5,0.129104595973173,0.5,0.129104595973173,0.5,0.5,0.5,0.5,0.5,0.5,0.5,0.129104595973173,0.5,0.5,0.5,0.5,0.5,0.177265880513808,0.500619049382434,0.5,0.370895404026827,0.5,0.741790808053655,1.09791912567374,0.709676966755649,2.87922737230477,0.5,70.077823286677
CBC_1002,CBC_1002_MSI_TV_v3_Vset1_Tset3_2023-05-31_16h13.57.205.csv,1,7,1,3,z,0,1,2,tac,D,27,1,1D,3D,0,1,z,2.6095338999985,0,1,1,1,3D,1D,D13,3.09104245335832,0.870895404026827,0.5,0.129104595973173,0.5,0.129104595973173,0.5,0.129104595973173,0.5,0.5,0.5,0.870895404026827,0.5,0.5,0.5,0.129104595973173,0.5,0.5,0.5,0.5,0.5,0.153729625263944,0.499913216858953,0.5,0.370895404026827,0.5,0.741790808053655,1.09791912567374,0.709676966755649,2.87922737230477,0.5,70.077823286677
CBC_1002,CBC_1002_MSI_TV_v3_Vset1_Tset3_2023-05-31_16h13.57.205.csv,1,8,1,0,z,0,1,0,tac,A,63,1,1A,0A,0,1,z,2.80132349999985,0,1,1,1,0A,1A,A10,3.13549421592915,0.870895404026827,0.5,0.129104595973173,0.5,0.129104595973173,0.5,0.129104595973173,0.5,0.5,0.5,0.870895404026827,0.5,0.5,0.5,0.129104595973173,0.870895404026827,0.635274873246117,0.364725126753883,0.870895404026827,0.5,0.175307426230411,0.63417947961742,0.129104595973173,0.0957686025703804,0.5,0.741790808053655,1.09791912567374,0.709676966755649,2.87922737230477,0.5,70.077823286677
CBC_1002,CBC_1002_MSI_TV_v3_Vset1_Tset3_2023-05-31_16h13.57.205.csv,1,9,2,0,b,1,0,3,tac,C,27,1,2C,0C,1,0,b,2.95145339999908,1,0,1,1,2C,0C,C20,3.17805383034795,0.966664006597208,0.5,0.129104595973173,0.5,0.129104595973173,0.5,0.129104595973173,0.5,0.5,0.5,0.870895404026827,0.5,0.5,0.5,0.129104595973173,0.870895404026827,0.635274873246117,0.364725126753883,0.870895404026827,0.5,0.160739348342927,0.637196775525383,0.129104595973173,0.0957686025703804,0.5,0.741790808053655,1.09791912567374,0.709676966755649,2.87922737230477,0.5,70.077823286677
CBC_1002,CBC_1002_MSI_TV_v3_Vset1_Tset3_2023-05-31_16h13.57.205.csv,1,10,2,3,z,0,1,2,tac,D,63,1,2D,3D,0,1,z,2.39397349999854,0,1,1,1,3D,2D,D23,2.52572864430826,0.966664006597208,0.5,0.129104595973173,0.5,0.129104595973173,0.5,0.129104595973173,0.5,0.5,0.5,0.966664006597208,0.5,0.5,0.5,0.129104595973173,0.870895404026827,0.870895404026827,0.129104595973173,0.870895404026827,0.129104595973173,0.310460760069149,0.819982907155373,0.129104595973173,0.0957686025703804,0.5,0.741790808053655,1.09791912567374,0.709676966755649,2.87922737230477,0.5,70.077823286677
CBC_1002,CBC_1002_MSI_TV_v3_Vset1_Tset3_2023-05-31_16h13.57.205.csv,1,11,1,0,b,1,0,1,tac,B,63,1,1B,0B,1,0,b,2.47295920000033,1,0,1,1,1B,0B,B10,3.25809653802148,0.966664006597208,0.5,0.129104595973173,0.5,0.129104595973173,0.5,0.129104595973173,0.5,0.5,0.5,0.966664006597208,0.5,0.5,0.5,0.129104595973173,0.966664006597208,0.794780396138326,0.205219603861673,0.5,0.129104595973173,0.269960101379923,0.770353009623157,0.5,0.370895404026827,0.5,0.741790808053655,1.09791912567374,0.709676966755649,2.87922737230477,0.5,70.077823286677
CBC_1002,CBC_1002_MSI_TV_v3_Vset1_Tset3_2023-05-31_16h13.57.205.csv,1,12,0,1,b,1,0,0,tac,A,63,1,0A,1A,1,0,b,2.47499040000002,1,0,1,1,0A,1A,A01,2.60268968544438,0.966664006597208,0.5,0.129104595973173,0.5,0.129104595973173,0.870895404026827,0.129104595973173,0.5,0.5,0.5,0.966664006597208,0.5,0.5,0.5,0.129104595973173,0.966664006597208,0.659090290788519,0.340909709211481,0.966664006597208,0.5,0.22222035032299,0.657195475382345,0.0333359934027924,0.0247283334835286,0.5,0.741790808053655,1.09791912567374,0.709676966755649,2.87922737230477,0.5,70.077823286677
CBC_1002,CBC_1002_MSI_TV_v3_Vset1_Tset3_2023-05-31_16h13.57.205.csv,1,13,2,3,z,0,1,2,tac,D,63,1,2D,3D,0,1,z,3.38595069999974,0,1,1,1,3D,2D,D23,2.23359222150709,0.991392340080736,0.5,0.129104595973173,0.5,0.129104595973173,0.870895404026827,0.129104595973173,0.5,0.5,0.5,0.966664006597208,0.5,0.5,0.5,0.129104595973173,0.966664006597208,0.882178960347716,0.117821039652284,0.966664006597208,0.129104595973173,0.151375986108717,0.826825558898949,0.0333359934027924,0.0247283334835286,0.5,0.741790808053655,1.09791912567374,0.709676966755649,2.87922737230477,0.5,70.077823286677
CBC_1002,CBC_1002_MSI_TV_v3_Vset1_Tset3_2023-05-31_16h13.57.205.csv,1,14,2,0,b,1,0,3,tac,C,27,1,2C,0C,1,0,z,2.93335639999896,0,1,0,0,0C,2C,C20,2.67414864942653,0.991392340080736,0.5,0.129104595973173,0.5,0.129104595973173,0.870895404026827,0.129104595973173,0.5,0.5,0.5,0.966664006597208,0.5,0.5,0.5,0.129104595973173,0.991392340080736,0.340909709211481,0.659090290788519,0.5,0.966664006597208,0.0875468681595643,0.342840913552187,-0.5,-0.370895404026827,0.5,0.741790808053655,1.09791912567374,0.709676966755649,2.87922737230477,0.5,70.077823286677
CBC_1002,CBC_1002_MSI_TV_v3_Vset1_Tset3_2023-05-31_16h13.57.205.csv,1,15,0,1,b,1,0,0,tac,A,63,1,0A,1A,1,0,b,2.70705939999789,1,0,1,1,0A,1A,A01,2.30258509299405,0.991392340080736,0.5,0.129104595973173,0.5,0.129104595973173,0.870895404026827,0.129104595973173,0.5,0.129104595973173,0.5,0.966664006597208,0.5,0.5,0.5,0.129104595973173,0.991392340080736,0.66474281343504,0.33525718656496,0.991392340080736,0.5,0.194469339563733,0.661922504280673,0.00860765991926371,0.00638508300696168,0.5,0.741790808053655,1.09791912567374,0.709676966755649,2.87922737230477,0.5,70.077823286677
CBC_1002,CBC_1002_MSI_TV_v3_Vset1_Tset3_2023-05-31_16h13.57.205.csv,1,16,1,3,b,1,0,1,tac,B,27,1,1B,3B,1,0,b,2.75393039999835,1,0,1,1,1B,3B,B13,3.43398720448515,0.997777423087698,0.5,0.129104595973173,0.5,0.129104595973173,0.870895404026827,0.129104595973173,0.5,0.129104595973173,0.5,0.966664006597208,0.5,0.5,0.5,0.129104595973173,0.991392340080736,0.635274873246117,0.364725126753883,0.870895404026827,0.5,0.18099202575677,0.636002638695202,0.129104595973173,0.0957686025703804,0.5,0.741790808053655,1.09791912567374,0.709676966755649,2.87922737230477,0.5,70.077823286677
CBC_1002,CBC_1002_MSI_TV_v3_Vset1_Tset3_2023-05-31_16h13.57.205.csv,1,17,3,2,z,0,1,3,tac,C,63,1,3C,2C,0,1,b,2.64883269999882,1,0,0,0,3C,2C,C32,3.46573590279973,0.997777423087698,0.5,0.129104595973173,0.5,0.129104595973173,0.966664006597208,0.129104595973173,0.5,0.129104595973173,0.5,0.966664006597208,0.5,0.5,0.5,0.129104595973173,0.991392340080736,0.340909709211481,0.659090290788519,0.5,0.966664006597208,0.104225974339173,0.342527183753199,-0.5,-0.370895404026827,0.5,0.741790808053655,1.09791912567374,0.709676966755649,2.87922737230477,0.5,70.077823286677
CBC_1002,CBC_1002_MSI_TV_v3_Vset1_Tset3_2023-05-31_16h13.57.205.csv,1,18,2,3,z,0,1,2,tac,D,63,0,2D,3D,1,0,b,2.70263399999931,1,0,0,1,2D,3D,D23,2.11021320034659,0.997777423087698,0.5,0.129104595973173,0.5,0.129104595973173,0.966664006597208,0.129104595973173,0.5,0.129104595973173,0.5,0.966664006597208,0.129104595973173,0.5,0.5,0.129104595973173,0.991392340080736,0.115220838021962,0.884779161978038,0.129104595973173,0.991392340080736,0.0522683041567896,0.172075717345467,0.870895404026827,0.646022205483274,0.5,0.741790808053655,1.09791912567374,0.709676966755649,2.87922737230477,0.5,70.077823286677
CBC_1002,CBC_1002_MSI_TV_v3_Vset1_Tset3_2023-05-31_16h13.57.205.csv,1,19,1,0,b,1,0,1,tac,B,63,1,1B,0B,1,0,z,2.99938089999887,0,1,0,0,0B,1B,B10,2.83321334405622,0.997777423087698,0.5,0.129104595973173,0.5,0.129104595973173,0.966664006597208,0.129104595973173,0.5,0.129104595973173,0.5,0.966664006597208,0.129104595973173,0.5,0.5,0.775126801456447,0.991392340080736,0.117821039652284,0.882178960347716,0.129104595973173,0.966664006597208,0.0421939633830224,0.173008343412594,-0.129104595973173,-0.0957686025703803,0.5,0.741790808053655,1.09791912567374,0.709676966755649,2.87922737230477,0.5,70.077823286677
CBC_1002,CBC_1002_MSI_TV_v3_Vset1_Tset3_2023-05-31_16h13.57.205.csv,1,20,2,0,z,0,1,0,tac,A,27,1,2A,0A,NaN,NaN,None,NaN,NaN,NaN,NaN,NaN,,,A20,3.55534806148941,0.997777423087698,0.5,0.129104595973173,0.5,0.0333359934027923,0.966664006597208,0.129104595973173,0.5,0.129104595973173,0.5,0.966664006597208,0.129104595973173,0.5,0.5,0.775126801456447,0.991392340080736,0,0,0,0,NaN,0,0,0,0.5,0.741790808053655,1.09791912567374,0.709676966755649,2.87922737230477,0.5,70.077823286677
CBC_1002,CBC_1002_MSI_TV_v3_Vset1_Tset3_2023-05-31_16h13.57.205.csv,1,21,0,3,z,0,1,2,tac,D,9,1,0D,3D,0,1,z,2.87509019999925,0,1,1,1,3D,0D,D03,3.58351893845611,0.997777423087698,0.5,0.129104595973173,0.5,0.0333359934027923,0.966664006597208,0.129104595973173,0.5,0.129104595973173,0.5,0.966664006597208,0.129104595973173,0.5,0.5,0.775126801456447,0.991392340080736,0.66474281343504,0.33525718656496,0.991392340080736,0.5,0.175557155550027,0.662873897477749,0.00860765991926371,0.00638508300696168,0.5,0.741790808053655,1.09791912567374,0.709676966755649,2.87922737230477,0.5,70.077823286677
CBC_1002,CBC_1002_MSI_TV_v3_Vset1_Tset3_2023-05-31_16h13.57.205.csv,1,22,2,3,b,1,0,3,tac,C,63,1,2C,3C,1,0,b,2.66889309999897,1,0,1,1,2C,3C,C23,2.91777073208428,0.997777423087698,0.5,0.129104595973173,0.5,0.0333359934027923,0.966664006597208,0.129104595973173,0.5,0.129104595973173,0.5,0.966664006597208,0.129104595973173,0.5,0.5,0.775126801456447,0.997777423087698,0.882178960347716,0.117821039652284,0.966664006597208,0.129104595973173,0.25737349476389,0.826724777305847,0.0333359934027924,0.0247283334835286,0.5,0.741790808053655,1.09791912567374,0.709676966755649,2.87922737230477,0.5,70.077823286677
CBC_1002,CBC_1002_MSI_TV_v3_Vset1_Tset3_2023-05-31_16h13.57.205.csv,1,23,3,1,z,0,1,1,tac,B,27,1,3B,1B,0,1,b,3.01521259999936,1,0,0,0,3B,1B,B31,3.63758615972639,0.997777423087698,0.5,0.129104595973173,0.5,0.0333359934027923,0.966664006597208,0.129104595973173,0.5,0.129104595973173,0.5,0.991392340080736,0.129104595973173,0.5,0.5,0.775126801456447,0.997777423087698,0.340909709211481,0.659090290788519,0.5,0.966664006597208,0.0832141492293491,0.342808105976364,-0.5,-0.370895404026827,0.5,0.741790808053655,1.09791912567374,0.709676966755649,2.87922737230477,0.5,70.077823286677
CBC_1002,CBC_1002_MSI_TV_v3_Vset1_Tset3_2023-05-31_16h13.57.205.csv,1,24,3,2,z,0,1,3,tac,C,63,1,3C,2C,0,1,z,2.65601969999807,0,1,1,1,2C,3C,C32,2.9704144655697,0.997777423087698,0.5,0.129104595973173,0.5,0.0333359934027923,0.966664006597208,0.129104595973173,0.129104595973173,0.129104595973173,0.5,0.991392340080736,0.129104595973173,0.5,0.5,0.775126801456447,0.997777423087698,0.884779161978038,0.115220838021962,0.991392340080736,0.129104595973173,0.260408902243866,0.828305151716594,0.00860765991926371,0.00638508300696168,0.5,0.741790808053655,1.09791912567374,0.709676966755649,2.87922737230477,0.5,70.077823286677
CBC_1002,CBC_1002_MSI_TV_v3_Vset1_Tset3_2023-05-31_16h13.57.205.csv,1,25,2,3,z,0,1,2,tac,D,63,1,2D,3D,0,1,b,2.47636049999892,1,0,0,0,2D,3D,D23,2.07944154167984,0.997777423087698,0.5,0.129104595973173,0.5,0.0333359934027923,0.966664006597208,0.129104595973173,0.129104595973173,0.129104595973173,0.5,0.997777423087698,0.129104595973173,0.5,0.5,0.775126801456447,0.997777423087698,0.437207374614808,0.562792625385192,0.775126801456447,0.997777423087698,0.145530472548914,0.43688369213407,-0.775126801456447,-0.574981936396423,0.5,0.741790808053655,1.09791912567374,0.709676966755649,2.87922737230477,0.5,70.077823286677
CBC_1002,CBC_1002_MSI_TV_v3_Vset1_Tset3_2023-05-31_16h13.57.205.csv,1,26,1,0,b,1,0,1,tac,B,63,1,1B,0B,1,0,b,2.34670360000018,1,0,1,1,1B,0B,B10,2.6149597780362,0.997777423087698,0.5,0.129104595973173,0.5,0.0333359934027923,0.966664006597208,0.129104595973173,0.129104595973173,0.129104595973173,0.5,0.997777423087698,0.129104595973173,0.5,0.5,0.200144865060024,0.997777423087698,0.966664006597208,0.0333359934027923,0.966664006597208,0.0333359934027923,0.352695839287359,0.870584800463034,0.0333359934027924,0.0247283334835286,0.5,0.741790808053655,1.09791912567374,0.709676966755649,2.87922737230477,0.5,70.077823286677
CBC_1002,CBC_1002_MSI_TV_v3_Vset1_Tset3_2023-05-31_16h13.57.205.csv,1,27,0,3,b,1,0,0,tac,A,9,1,0A,3A,1,0,b,2.42262419999861,1,0,1,1,0A,3A,A03,3.73766961828337,0.997777423087698,0.5,0.129104595973173,0.5,0.0333359934027923,0.991392340080736,0.129104595973173,0.129104595973173,0.129104595973173,0.5,0.997777423087698,0.129104595973173,0.5,0.5,0.200144865060024,0.997777423087698,0.666172027770829,0.333827972229171,0.997777423087698,0.5,0.231757483178568,0.663303317754162,0.00222257691230199,0.00164868712373789,0.5,0.741790808053655,1.09791912567374,0.709676966755649,2.87922737230477,0.5,70.077823286677
CBC_1002,CBC_1002_MSI_TV_v3_Vset1_Tset3_2023-05-31_16h13.57.205.csv,1,28,2,3,z,0,1,2,tac,D,63,1,2D,3D,0,1,b,2.38984290000008,1,0,0,0,2D,3D,D23,1.96944064646551,0.999426110211436,0.5,0.129104595973173,0.5,0.0333359934027923,0.991392340080736,0.129104595973173,0.129104595973173,0.129104595973173,0.5,0.997777423087698,0.129104595973173,0.5,0.5,0.200144865060024,0.997777423087698,0.167076668528721,0.832923331471279,0.200144865060024,0.997777423087698,0.0764946668354577,0.204093892674406,-0.200144865060024,-0.148465621180665,0.5,0.741790808053655,1.09791912567374,0.709676966755649,2.87922737230477,0.5,70.077823286677
CBC_1002,CBC_1002_MSI_TV_v3_Vset1_Tset3_2023-05-31_16h13.57.205.csv,1,29,2,0,b,1,0,3,tac,C,27,1,2C,0C,1,0,b,2.33685089999926,1,0,1,1,2C,0C,C20,2.68557734525015,0.999426110211436,0.5,0.129104595973173,0.5,0.0333359934027923,0.991392340080736,0.129104595973173,0.129104595973173,0.129104595973173,0.5,0.997777423087698,0.129104595973173,0.5,0.5,0.0516792438793592,0.997777423087698,0.885432020575884,0.114567979424116,0.997777423087698,0.129104595973173,0.328189784568743,0.828373126289019,0.00222257691230199,0.00164868712373789,0.5,0.741790808053655,1.09791912567374,0.709676966755649,2.87922737230477,0.5,70.077823286677
CBC_1002,CBC_1002_MSI_TV_v3_Vset1_Tset3_2023-05-31_16h13.57.205.csv,1,30,1,0,z,0,1,0,tac,A,63,1,1A,0A,NaN,NaN,None,NaN,NaN,NaN,NaN,NaN,,,A10,3.11351530921037,0.999426110211436,0.5,0.129104595973173,0.5,0.0333359934027923,0.991392340080736,0.129104595973173,0.129104595973173,0.129104595973173,0.5,0.999426110211436,0.129104595973173,0.5,0.5,0.0516792438793592,0.997777423087698,0,0,0,0,NaN,0,0,0,0.5,0.741790808053655,1.09791912567374,0.709676966755649,2.87922737230477,0.5,70.077823286677
CBC_1002,CBC_1002_MSI_TV_v3_Vset1_Tset3_2023-05-31_16h13.57.205.csv,1,31,1,0,b,1,0,1,tac,B,63,1,1B,0B,1,0,z,2.29007719999936,0,1,0,0,0B,1B,B10,2.4423470353692,0.999426110211436,0.5,0.129104595973173,0.5,0.0333359934027923,0.991392340080736,0.129104595973173,0.129104595973173,0.129104595973173,0.5,0.999426110211436,0.129104595973173,0.5,0.5,0.0516792438793592,0.997777423087698,0.0325315425694025,0.967468457430597,0.0333359934027923,0.991392340080736,0.0545387842628505,0.128802121676275,-0.0333359934027923,-0.0247283334835286,0.5,0.741790808053655,1.09791912567374,0.709676966755649,2.87922737230477,0.5,70.077823286677
CBC_1002,CBC_1002_MSI_TV_v3_Vset1_Tset3_2023-05-31_16h13.57.205.csv,1,32,3,1,b,1,0,2,tac,D,27,1,3D,1D,NaN,NaN,None,NaN,NaN,NaN,NaN,NaN,,,D31,3.85014760171006,0.999426110211436,0.5,0.129104595973173,0.5,0.0086076599192637,0.991392340080736,0.129104595973173,0.129104595973173,0.129104595973173,0.5,0.999426110211436,0.129104595973173,0.5,0.5,0.0516792438793592,0.997777423087698,0,0,0,0,NaN,0,0,0,0.5,0.741790808053655,1.09791912567374,0.709676966755649,2.87922737230477,0.5,70.077823286677
CBC_1002,CBC_1002_MSI_TV_v3_Vset1_Tset3_2023-05-31_16h13.57.205.csv,1,33,3,2,z,0,1,3,tac,C,63,1,3C,2C,0,1,z,2.45493429999988,0,1,1,1,2C,3C,C32,2.77258872223978,0.999426110211436,0.5,0.129104595973173,0.5,0.0086076599192637,0.991392340080736,0.129104595973173,0.129104595973173,0.129104595973173,0.5,0.999426110211436,0.129104595973173,0.5,0.5,0.0516792438793592,0.997777423087698,0.88559939462378,0.11440060537622,0.999426110211436,0.129104595973173,0.301911621145415,0.828915684590798,0.000573889788564097,0.000425706169992703,0.5,0.741790808053655,1.09791912567374,0.709676966755649,2.87922737230477,0.5,70.077823286677
CBC_1002,CBC_1002_MSI_TV_v3_Vset1_Tset3_2023-05-31_16h13.57.205.csv,1,34,1,0,b,1,0,1,tac,B,63,1,1B,0B,1,0,b,2.30501509999885,1,0,1,1,1B,0B,B10,2.28238238567653,0.999426110211436,0.5,0.129104595973173,0.5,0.0086076599192637,0.991392340080736,0.129104595973173,0.129104595973173,0.129104595973173,0.5,0.999851816381429,0.129104595973173,0.5,0.5,0.0516792438793592,0.997777423087698,0.991392340080736,0.0086076599192637,0.991392340080736,0.0086076599192637,0.372074784917112,0.881318138077257,0.00860765991926371,0.00638508300696168,0.5,0.741790808053655,1.09791912567374,0.709676966755649,2.87922737230477,0.5,70.077823286677
CBC_1002,CBC_1002_MSI_TV_v3_Vset1_Tset3_2023-05-31_16h13.57.205.csv,1,35,0,1,b,1,0,0,tac,A,63,1,0A,1A,1,0,b,2.97802489999958,1,0,1,1,0A,1A,A01,2.52572864430826,0.999426110211436,0.5,0.129104595973173,0.5,0.0086076599192637,0.997777423087698,0.129104595973173,0.129104595973173,0.129104595973173,0.5,0.999851816381429,0.129104595973173,0.5,0.5,0.0516792438793592,0.997777423087698,0.66653908679135,0.33346091320865,0.999426110211436,0.5,0.164953549508953,0.663884413296593,0.000573889788564097,0.000425706169992703,0.5,0.741790808053655,1.09791912567374,0.709676966755649,2.87922737230477,0.5,70.077823286677
CBC_1002,CBC_1002_MSI_TV_v3_Vset1_Tset3_2023-05-31_16h13.57.205.csv,1,36,1,2,z,0,1,3,tac,C,9,1,1C,2C,0,1,z,2.24819369999932,0,1,1,1,2C,1C,C12,3.93182563272433,0.999851816381429,0.5,0.129104595973173,0.5,0.0086076599192637,0.997777423087698,0.129104595973173,0.129104595973173,0.129104595973173,0.5,0.999851816381429,0.129104595973173,0.5,0.5,0.0516792438793592,0.997777423087698,0.666633733720235,0.333366266279765,0.999851816381429,0.5,0.256540910337393,0.663337631493879,0.000148183618571385,0.000109921246160382,0.5,0.741790808053655,1.09791912567374,0.709676966755649,2.87922737230477,0.5,70.077823286677
CBC_1002,CBC_1002_MSI_TV_v3_Vset1_Tset3_2023-05-31_16h13.57.205.csv,1,37,1,0,z,0,1,0,tac,A,63,1,1A,0A,0,1,z,2.58970880000015,0,1,1,1,0A,1A,A10,2.85263142991332,0.999851816381429,0.5,0.129104595973173,0.5,0.0086076599192637,0.997777423087698,0.129104595973173,0.129104595973173,0.129104595973173,0.5,0.999961737627589,0.129104595973173,0.5,0.5,0.0516792438793592,0.997777423087698,0.666633733720235,0.333366266279765,0.999851816381429,0.5,0.209508779780432,0.663397537259555,0.000148183618571385,0.000109921246160382,0.5,0.741790808053655,1.09791912567374,0.709676966755649,2.87922737230477,0.5,70.077823286677
CBC_1002,CBC_1002_MSI_TV_v3_Vset1_Tset3_2023-05-31_16h13.57.205.csv,1,38,3,1,b,1,0,2,tac,D,27,1,3D,1D,1,0,b,2.36161679999896,1,0,1,1,3D,1D,D31,3.27714473299218,0.999961737627589,0.5,0.129104595973173,0.5,0.0086076599192637,0.997777423087698,0.129104595973173,0.129104595973173,0.129104595973173,0.5,0.999961737627589,0.129104595973173,0.5,0.5,0.0516792438793592,0.997777423087698,0.666172027770829,0.333827972229171,0.997777423087698,0.5,0.240543449646621,0.663897188588944,0.00222257691230199,0.00164868712373789,0.5,0.741790808053655,1.09791912567374,0.709676966755649,2.87922737230477,0.5,70.077823286677
CBC_1002,CBC_1002_MSI_TV_v3_Vset1_Tset3_2023-05-31_16h13.57.205.csv,1,39,0,1,z,0,1,1,tac,B,63,1,0B,1B,0,1,z,2.52120019999893,0,1,1,1,1B,0B,B01,3.29583686600433,0.999961737627589,0.5,0.129104595973173,0.5,0.0086076599192637,0.997777423087698,0.129104595973173,0.129104595973173,0.129104595973173,0.5,0.999961737627589,0.129104595973173,0.5,0.5,0.0516792438793592,0.999426110211436,0.991446952002165,0.00855304799783499,0.997777423087698,0.0086076599192637,0.312444037475805,0.881484868119363,0.00222257691230199,0.00164868712373789,0.5,0.741790808053655,1.09791912567374,0.709676966755649,2.87922737230477,0.5,70.077823286677
CBC_1002,CBC_1002_MSI_TV_v3_Vset1_Tset3_2023-05-31_16h13.57.205.csv,1,40,2,3,b,1,0,3,tac,C,63,0,2C,3C,0,1,b,2.73736899999858,1,0,1,0,2C,3C,C23,2.90872089656436,0.999961737627589,0.5,0.129104595973173,0.5,0.0086076599192637,0.999426110211436,0.129104595973173,0.129104595973173,0.129104595973173,0.5,0.999961737627589,0.129104595973173,0.5,0.5,0.0516792438793592,0.999426110211436,0.885653666103533,0.114346333896467,0.999961737627589,0.129104595973173,0.245428241038885,0.828869885605156,-0.999961737627589,-0.741762425377506,0.5,0.741790808053655,1.09791912567374,0.709676966755649,2.87922737230477,0.5,70.077823286677
CBC_1002,CBC_1002_MSI_TV_v3_Vset1_Tset3_2023-05-31_16h13.57.205.csv,1,41,2,0,z,0,1,0,tac,A,27,1,2A,0A,0,1,z,2.35296279999966,0,1,1,1,0A,2A,A20,3.3322045101752,0.999961737627589,0.5,0.129104595973173,0.5,0.0086076599192637,0.999426110211436,0.129104595973173,0.129104595973173,0.129104595973173,0.5,0.258199312250083,0.129104595973173,0.5,0.5,0.0516792438793592,0.999426110211436,0.885653666103533,0.114346333896467,0.999961737627589,0.129104595973173,0.324594057193221,0.828574402751146,3.82623724110021e-05,2.83826761488071e-05,0.5,0.741790808053655,1.09791912567374,0.709676966755649,2.87922737230477,0.5,70.077823286677
CBC_1002,CBC_1002_MSI_TV_v3_Vset1_Tset3_2023-05-31_16h13.57.205.csv,1,42,3,2,b,1,0,2,tac,D,63,1,3D,2D,1,0,b,5.34719419999965,1,0,1,1,3D,2D,D32,4.04305126783455,0.999990120303738,0.5,0.129104595973173,0.5,0.0086076599192637,0.999426110211436,0.129104595973173,0.129104595973173,0.129104595973173,0.5,0.258199312250083,0.129104595973173,0.5,0.5,0.0516792438793592,0.999426110211436,0.950833431036928,0.0491665689630719,0.999426110211436,0.0516792438793592,0.0317175563800418,0.863845560159117,0.000573889788564097,0.000425706169992703,0.5,0.741790808053655,1.09791912567374,0.709676966755649,2.87922737230477,0.5,70.077823286677
CBC_1002,CBC_1002_MSI_TV_v3_Vset1_Tset3_2023-05-31_16h13.57.205.csv,1,43,3,1,z,0,1,1,tac,B,27,1,3B,1B,0,1,z,2.37038929999835,0,1,1,1,1B,3B,B31,3.36729582998647,0.999990120303738,0.5,0.129104595973173,0.5,0.0086076599192637,0.999426110211436,0.129104595973173,0.129104595973173,0.129104595973173,0.5,0.258199312250083,0.129104595973173,0.5,0.5,0.0516792438793592,0.999851816381429,0.88559939462378,0.11440060537622,0.999426110211436,0.129104595973173,0.320570243341319,0.828518392547992,0.000573889788564097,0.000425706169992703,0.5,0.741790808053655,1.09791912567374,0.709676966755649,2.87922737230477,0.5,70.077823286677
CBC_1002,CBC_1002_MSI_TV_v3_Vset1_Tset3_2023-05-31_16h13.57.205.csv,1,44,2,3,b,1,0,3,tac,C,63,1,2C,3C,1,0,z,2.29477289999886,0,1,0,0,3C,2C,C23,2.69124308278583,0.999990120303738,0.5,0.129104595973173,0.5,0.0086076599192637,0.999851816381429,0.129104595973173,0.129104595973173,0.129104595973173,0.5,0.258199312250083,0.129104595973173,0.5,0.5,0.0516792438793592,0.999851816381429,0.333341836299654,0.666658163700346,0.129104595973173,0.258199312250083,0.126701289904821,0.33638059281814,-0.129104595973173,-0.0957686025703803,0.5,0.741790808053655,1.09791912567374,0.709676966755649,2.87922737230477,0.5,70.077823286677
CBC_1002,CBC_1002_MSI_AV_v3_Vset4_Aset2_2023-05-31_16h22.12.197.csv,2,1,0,1,b,1,0,0,aud,A,63,1,0A,1A,1,0,z,2.26603029999933,0,1,0,0,1A,0A,A01,2.77258872223978,0.5,0.5,0.5,0.5,0.5,0.5,0.5,0.5,0.5,0.5,0.5,0.5,0.5,0.5,0.5,0.5,0.5,0.5,0.5,0.5,0.197183282646746,0.50048666642601,-0.5,-0.0290216163403806,0.5,0.0580432326807612,1.08995999654629,2.84202958676052,2.57147112412266,0.5,67.0235318037985
CBC_1002,CBC_1002_MSI_AV_v3_Vset4_Aset2_2023-05-31_16h22.12.197.csv,2,2,2,3,z,0,1,2,aud,D,63,1,2D,3D,0,1,b,1.87625110000045,1,0,0,0,2D,3D,D23,2.83321334405622,0.5,0.470978383659619,0.5,0.5,0.5,0.5,0.5,0.5,0.5,0.5,0.5,0.5,0.5,0.5,0.5,0.5,0.5,0.5,0.5,0.5,0.25704538512543,0.500171070081411,-0.5,-0.0290216163403806,0.5,0.0580432326807612,1.08995999654629,2.84202958676052,2.57147112412266,0.5,67.0235318037985
CBC_1002,CBC_1002_MSI_AV_v3_Vset4_Aset2_2023-05-31_16h22.12.197.csv,2,3,0,2,z,0,1,3,aud,C,27,1,0C,2C,0,1,z,2.37195260000044,0,1,1,1,2C,0C,C02,2.89037175789616,0.5,0.470978383659619,0.5,0.5,0.5,0.5,0.5,0.5,0.5,0.5,0.5,0.5,0.5,0.5,0.470978383659619,0.5,0.5,0.5,0.5,0.5,0.182463923723362,0.500591721159107,0.5,0.0290216163403806,0.5,0.0580432326807612,1.08995999654629,2.84202958676052,2.57147112412266,0.5,67.0235318037985
CBC_1002,CBC_1002_MSI_AV_v3_Vset4_Aset2_2023-05-31_16h22.12.197.csv,2,4,0,1,b,1,0,0,aud,A,63,1,0A,1A,1,0,b,2.28492310000001,1,0,1,1,0A,1A,A01,2.2512917986065,0.5,0.470978383659619,0.5,0.5,0.5,0.5,0.5,0.5,0.5,0.5,0.529021616340381,0.5,0.5,0.5,0.470978383659619,0.5,0.514944522364647,0.485055477635353,0.5,0.470978383659619,0.215903096893615,0.554701653748126,0.5,0.0290216163403806,0.5,0.0580432326807612,1.08995999654629,2.84202958676052,2.57147112412266,0.5,67.0235318037985
CBC_1002,CBC_1002_MSI_AV_v3_Vset4_Aset2_2023-05-31_16h22.12.197.csv,2,5,1,3,b,1,0,1,aud,B,27,1,1B,3B,1,0,z,2.57649629999833,0,1,0,0,3B,1B,B13,2.99573227355399,0.529021616340381,0.470978383659619,0.5,0.5,0.5,0.5,0.5,0.5,0.5,0.5,0.529021616340381,0.5,0.5,0.5,0.470978383659619,0.5,0.5,0.5,0.5,0.5,0.156455485650277,0.499523422982059,-0.5,-0.0290216163403806,0.5,0.0580432326807612,1.08995999654629,2.84202958676052,2.57147112412266,0.5,67.0235318037985
CBC_1002,CBC_1002_MSI_AV_v3_Vset4_Aset2_2023-05-31_16h22.12.197.csv,2,6,3,2,z,0,1,3,aud,C,63,1,3C,2C,0,1,b,2.87717069999962,1,0,0,0,3C,2C,C32,3.04452243772342,0.529021616340381,0.470978383659619,0.5,0.5,0.5,0.5,0.5,0.470978383659619,0.5,0.5,0.529021616340381,0.5,0.5,0.5,0.470978383659619,0.5,0.485898441840516,0.514101558159484,0.5,0.529021616340381,0.112199079979364,0.448380650718046,-0.5,-0.0290216163403806,0.5,0.0580432326807612,1.08995999654629,2.84202958676052,2.57147112412266,0.5,67.0235318037985
CBC_1002,CBC_1002_MSI_AV_v3_Vset4_Aset2_2023-05-31_16h22.12.197.csv,2,7,3,2,b,1,0,2,aud,D,63,1,3D,2D,1,0,z,1.70062700000017,0,1,0,0,2D,3D,D32,3.09104245335832,0.529021616340381,0.470978383659619,0.5,0.5,0.5,0.5,0.5,0.470978383659619,0.5,0.5,0.529021616340381,0.470978383659619,0.5,0.5,0.470978383659619,0.5,0.485055477635353,0.514944522364647,0.470978383659619,0.5,0.24795737320491,0.444808508189783,-0.470978383659619,-0.0273371079103641,0.5,0.0580432326807612,1.08995999654629,2.84202958676052,2.57147112412266,0.5,67.0235318037985
CBC_1002,CBC_1002_MSI_AV_v3_Vset4_Aset2_2023-05-31_16h22.12.197.csv,2,8,0,1,z,0,1,1,aud,B,63,1,0B,1B,0,1,b,2.54389549999905,1,0,0,0,0B,1B,B01,3.13549421592915,0.529021616340381,0.470978383659619,0.5,0.5,0.5,0.5,0.5,0.470978383659619,0.5,0.5,0.529021616340381,0.470978383659619,0.5,0.5,0.443641275749255,0.5,0.5,0.5,0.5,0.5,0.16043220795505,0.499953487232599,-0.5,-0.0290216163403806,0.5,0.0580432326807612,1.08995999654629,2.84202958676052,2.57147112412266,0.5,67.0235318037985
CBC_1002,CBC_1002_MSI_AV_v3_Vset4_Aset2_2023-05-31_16h22.12.197.csv,2,9,2,0,z,0,1,0,aud,A,27,1,2A,0A,0,1,z,3.1143119999997,0,1,1,1,0A,2A,A20,3.17805383034795,0.529021616340381,0.470978383659619,0.5,0.5,0.470978383659619,0.5,0.5,0.470978383659619,0.5,0.5,0.529021616340381,0.470978383659619,0.5,0.5,0.443641275749255,0.5,0.514101558159484,0.485898441840516,0.529021616340381,0.5,0.115471329559291,0.551180316023567,0.470978383659619,0.0273371079103641,0.5,0.0580432326807612,1.08995999654629,2.84202958676052,2.57147112412266,0.5,67.0235318037985
CBC_1002,CBC_1002_MSI_AV_v3_Vset4_Aset2_2023-05-31_16h22.12.197.csv,2,10,3,0,b,1,0,2,aud,D,9,1,3D,0D,1,0,b,3.65684519999922,1,0,1,1,3D,0D,D30,3.2188758248682,0.556358724250745,0.470978383659619,0.5,0.5,0.470978383659619,0.5,0.5,0.470978383659619,0.5,0.5,0.529021616340381,0.470978383659619,0.5,0.5,0.443641275749255,0.5,0.5,0.5,0.5,0.5,0.0697894518852411,0.498797378802011,0.5,0.0290216163403806,0.5,0.0580432326807612,1.08995999654629,2.84202958676052,2.57147112412266,0.5,67.0235318037985
CBC_1002,CBC_1002_MSI_AV_v3_Vset4_Aset2_2023-05-31_16h22.12.197.csv,2,11,2,3,b,1,0,3,aud,C,63,1,2C,3C,1,0,b,2.96763359999932,1,0,1,1,2C,3C,C23,3.25809653802148,0.556358724250745,0.470978383659619,0.5,0.5,0.470978383659619,0.5,0.5,0.470978383659619,0.5,0.5,0.529021616340381,0.470978383659619,0.5,0.5,0.443641275749255,0.529021616340381,0.529021616340381,0.470978383659619,0.529021616340381,0.470978383659619,0.141055015627499,0.604737130880254,0.470978383659619,0.0273371079103641,0.5,0.0580432326807612,1.08995999654629,2.84202958676052,2.57147112412266,0.5,67.0235318037985
CBC_1002,CBC_1002_MSI_AV_v3_Vset4_Aset2_2023-05-31_16h22.12.197.csv,2,12,0,1,z,0,1,1,aud,B,63,1,0B,1B,0,1,z,2.50766159999876,0,1,1,1,1B,0B,B01,2.60268968544438,0.556358724250745,0.470978383659619,0.5,0.5,0.470978383659619,0.5,0.5,0.470978383659619,0.5,0.5,0.556358724250745,0.470978383659619,0.5,0.5,0.443641275749255,0.529021616340381,0.514944522364647,0.485055477635353,0.5,0.470978383659619,0.182884251670961,0.554320997709805,0.5,0.0290216163403806,0.5,0.0580432326807612,1.08995999654629,2.84202958676052,2.57147112412266,0.5,67.0235318037985
CBC_1002,CBC_1002_MSI_AV_v3_Vset4_Aset2_2023-05-31_16h22.12.197.csv,2,13,3,2,z,0,1,3,aud,C,63,1,3C,2C,0,1,b,2.23216990000037,1,0,0,0,3C,2C,C32,2.63905732961526,0.556358724250745,0.470978383659619,0.5,0.5,0.470978383659619,0.529021616340381,0.5,0.470978383659619,0.5,0.5,0.556358724250745,0.470978383659619,0.5,0.5,0.443641275749255,0.529021616340381,0.458445801317938,0.541554198682062,0.470978383659619,0.556358724250745,0.144554954356168,0.353179422754617,-0.470978383659619,-0.0273371079103641,0.5,0.0580432326807612,1.08995999654629,2.84202958676052,2.57147112412266,0.5,67.0235318037985
CBC_1002,CBC_1002_MSI_AV_v3_Vset4_Aset2_2023-05-31_16h22.12.197.csv,2,14,1,3,b,1,0,1,aud,B,27,1,1B,3B,1,0,b,2.38329800000065,1,0,1,1,1B,3B,B13,2.67414864942653,0.556358724250745,0.470978383659619,0.5,0.5,0.470978383659619,0.529021616340381,0.5,0.470978383659619,0.5,0.5,0.556358724250745,0.443641275749255,0.5,0.5,0.443641275749255,0.529021616340381,0.529021616340381,0.470978383659619,0.529021616340381,0.470978383659619,0.219558445225551,0.604556858817321,0.470978383659619,0.0273371079103641,0.5,0.0580432326807612,1.08995999654629,2.84202958676052,2.57147112412266,0.5,67.0235318037985
CBC_1002,CBC_1002_MSI_AV_v3_Vset4_Aset2_2023-05-31_16h22.12.197.csv,2,15,2,3,z,0,1,2,aud,D,63,1,2D,3D,0,1,b,2.98118729999987,1,0,0,0,2D,3D,D23,2.70805020110221,0.556358724250745,0.470978383659619,0.5,0.5,0.470978383659619,0.556358724250745,0.5,0.470978383659619,0.5,0.5,0.556358724250745,0.443641275749255,0.5,0.5,0.443641275749255,0.529021616340381,0.456110004151748,0.543889995848252,0.443641275749255,0.529021616340381,0.0789709004149738,0.343781591070399,-0.443641275749255,-0.0257503737951038,0.5,0.0580432326807612,1.08995999654629,2.84202958676052,2.57147112412266,0.5,67.0235318037985
CBC_1002,CBC_1002_MSI_AV_v3_Vset4_Aset2_2023-05-31_16h22.12.197.csv,2,16,0,3,b,1,0,0,aud,A,9,1,0A,3A,1,0,z,2.36255749999873,0,1,0,0,3A,0A,A03,3.43398720448515,0.556358724250745,0.470978383659619,0.5,0.5,0.470978383659619,0.556358724250745,0.5,0.470978383659619,0.5,0.5,0.556358724250745,0.443641275749255,0.5,0.5,0.417890901954152,0.529021616340381,0.473324059830755,0.526675940169245,0.5,0.556358724250745,0.148865367257019,0.403876255632328,-0.5,-0.0290216163403806,0.5,0.0580432326807612,1.08995999654629,2.84202958676052,2.57147112412266,0.5,67.0235318037985
CBC_1002,CBC_1002_MSI_AV_v3_Vset4_Aset2_2023-05-31_16h22.12.197.csv,2,17,2,3,z,0,1,2,aud,D,63,1,2D,3D,0,1,b,1.45364659999905,1,0,0,0,2D,3D,D23,2.36712361413162,0.556358724250745,0.470978383659619,0.5,0.470978383659619,0.470978383659619,0.556358724250745,0.5,0.470978383659619,0.5,0.5,0.556358724250745,0.443641275749255,0.5,0.5,0.417890901954152,0.529021616340381,0.441319439631876,0.558680560368124,0.417890901954152,0.529021616340381,0.153791358504104,0.297841459708688,-0.417890901954152,-0.024255738857298,0.5,0.0580432326807612,1.08995999654629,2.84202958676052,2.57147112412266,0.5,67.0235318037985
CBC_1002,CBC_1002_MSI_AV_v3_Vset4_Aset2_2023-05-31_16h22.12.197.csv,2,18,0,2,z,0,1,3,aud,C,27,1,0C,2C,0,1,b,3.15965300000062,1,0,0,0,0C,2C,C02,2.80336038090653,0.556358724250745,0.470978383659619,0.5,0.470978383659619,0.470978383659619,0.556358724250745,0.5,0.470978383659619,0.5,0.5,0.556358724250745,0.443641275749255,0.5,0.5,0.393635163096854,0.529021616340381,0.473324059830755,0.526675940169245,0.5,0.556358724250745,0.0814657095303033,0.403739284272067,-0.5,-0.0290216163403806,0.5,0.0580432326807612,1.08995999654629,2.84202958676052,2.57147112412266,0.5,67.0235318037985
CBC_1002,CBC_1002_MSI_AV_v3_Vset4_Aset2_2023-05-31_16h22.12.197.csv,2,19,0,1,b,1,0,0,aud,A,63,1,0A,1A,1,0,b,2.37594460000037,1,0,1,1,0A,1A,A01,2.42774823594805,0.556358724250745,0.470978383659619,0.5,0.470978383659619,0.470978383659619,0.556358724250745,0.5,0.470978383659619,0.470978383659619,0.5,0.556358724250745,0.443641275749255,0.5,0.5,0.393635163096854,0.529021616340381,0.541554198682062,0.458445801317938,0.556358724250745,0.470978383659619,0.237171190636093,0.646471010785674,0.443641275749255,0.0257503737951038,0.5,0.0580432326807612,1.08995999654629,2.84202958676052,2.57147112412266,0.5,67.0235318037985
CBC_1002,CBC_1002_MSI_AV_v3_Vset4_Aset2_2023-05-31_16h22.12.197.csv,2,20,1,0,b,1,0,1,aud,B,63,0,1B,0B,0,1,b,2.8144785000004,1,0,1,0,1B,0B,B10,3.55534806148941,0.582109098045848,0.470978383659619,0.5,0.470978383659619,0.470978383659619,0.556358724250745,0.5,0.470978383659619,0.470978383659619,0.5,0.556358724250745,0.443641275749255,0.5,0.5,0.393635163096854,0.529021616340381,0.541554198682062,0.458445801317938,0.556358724250745,0.470978383659619,0.16952997263334,0.648015173294773,-0.556358724250745,-0.0322928588856574,0.5,0.0580432326807612,1.08995999654629,2.84202958676052,2.57147112412266,0.5,67.0235318037985
CBC_1002,CBC_1002_MSI_AV_v3_Vset4_Aset2_2023-05-31_16h22.12.197.csv,2,21,3,1,b,1,0,2,aud,D,27,1,3D,1D,1,0,z,3.31129800000053,0,1,0,0,1D,3D,D31,3.58351893845611,0.582109098045848,0.470978383659619,0.5,0.470978383659619,0.470978383659619,0.524065865365087,0.5,0.470978383659619,0.470978383659619,0.5,0.556358724250745,0.443641275749255,0.5,0.5,0.393635163096854,0.529021616340381,0.485898441840516,0.514101558159484,0.5,0.529021616340381,0.08111690462045,0.448791492870708,-0.5,-0.0290216163403806,0.5,0.0580432326807612,1.08995999654629,2.84202958676052,2.57147112412266,0.5,67.0235318037985
CBC_1002,CBC_1002_MSI_AV_v3_Vset4_Aset2_2023-05-31_16h22.12.197.csv,2,22,3,2,z,0,1,3,aud,C,63,1,3C,2C,0,1,b,3.21873330000017,1,0,0,0,3C,2C,C32,2.51230562397611,0.582109098045848,0.470978383659619,0.5,0.470978383659619,0.470978383659619,0.524065865365087,0.5,0.470978383659619,0.470978383659619,0.5,0.556358724250745,0.443641275749255,0.5,0.470978383659619,0.393635163096854,0.529021616340381,0.443641275749255,0.556358724250745,0.443641275749255,0.556358724250745,0.0576110045625683,0.304960734756978,-0.443641275749255,-0.0257503737951038,0.5,0.0580432326807612,1.08995999654629,2.84202958676052,2.57147112412266,0.5,67.0235318037985
CBC_1002,CBC_1002_MSI_AV_v3_Vset4_Aset2_2023-05-31_16h22.12.197.csv,2,23,2,3,z,0,1,2,aud,D,63,1,2D,3D,0,1,z,1.45782879999933,0,1,1,1,3D,2D,D23,2.2512917986065,0.582109098045848,0.470978383659619,0.5,0.470978383659619,0.470978383659619,0.524065865365087,0.5,0.470978383659619,0.470978383659619,0.5,0.556358724250745,0.417890901954152,0.5,0.470978383659619,0.393635163096854,0.529021616340381,0.57336772257074,0.42663227742926,0.529021616340381,0.393635163096854,0.402045784018878,0.74464194565438,0.470978383659619,0.0273371079103641,0.5,0.0580432326807612,1.08995999654629,2.84202958676052,2.57147112412266,0.5,67.0235318037985
CBC_1002,CBC_1002_MSI_AV_v3_Vset4_Aset2_2023-05-31_16h22.12.197.csv,2,24,0,2,b,1,0,0,aud,A,27,1,0A,2A,1,0,b,2.31952289999936,1,0,1,1,0A,2A,A02,3.66356164612965,0.582109098045848,0.470978383659619,0.5,0.470978383659619,0.470978383659619,0.524065865365087,0.5,0.470978383659619,0.470978383659619,0.5,0.556358724250745,0.417890901954152,0.5,0.470978383659619,0.393635163096854,0.556358724250745,0.537939380693743,0.462060619306257,0.582109098045848,0.5,0.242767668862334,0.634868360841347,0.417890901954152,0.024255738857298,0.5,0.0580432326807612,1.08995999654629,2.84202958676052,2.57147112412266,0.5,67.0235318037985
CBC_1002,CBC_1002_MSI_AV_v3_Vset4_Aset2_2023-05-31_16h22.12.197.csv,2,25,1,0,b,1,0,1,aud,B,63,1,1B,0B,NaN,NaN,[],NaN,NaN,NaN,NaN,NaN,,,B10,2.99573227355399,0.606364836903146,0.470978383659619,0.5,0.470978383659619,0.470978383659619,0.524065865365087,0.5,0.470978383659619,0.470978383659619,0.5,0.556358724250745,0.417890901954152,0.5,0.470978383659619,0.393635163096854,0.556358724250745,0,0,0,0,NaN,0,0,0,0.5,0.0580432326807612,1.08995999654629,2.84202958676052,2.57147112412266,0.5,67.0235318037985
CBC_1002,CBC_1002_MSI_AV_v3_Vset4_Aset2_2023-05-31_16h22.12.197.csv,2,26,0,2,z,0,1,3,aud,C,27,1,0C,2C,0,1,z,3.79878160000044,0,1,1,1,2C,0C,C02,2.6149597780362,0.606364836903146,0.470978383659619,0.5,0.470978383659619,0.470978383659619,0.524065865365087,0.5,0.470978383659619,0.470978383659619,0.5,0.556358724250745,0.417890901954152,0.5,0.470978383659619,0.393635163096854,0.556358724250745,0.541554198682062,0.458445801317938,0.556358724250745,0.470978383659619,0.0790880029046332,0.647767359599934,0.443641275749255,0.0257503737951038,0.5,0.0580432326807612,1.08995999654629,2.84202958676052,2.57147112412266,0.5,67.0235318037985
CBC_1002,CBC_1002_MSI_AV_v3_Vset4_Aset2_2023-05-31_16h22.12.197.csv,2,27,0,1,z,0,1,1,aud,B,63,1,0B,1B,NaN,NaN,[],NaN,NaN,NaN,NaN,NaN,,,B01,2.63905732961526,0.606364836903146,0.470978383659619,0.5,0.470978383659619,0.470978383659619,0.524065865365087,0.5,0.470978383659619,0.470978383659619,0.5,0.582109098045848,0.417890901954152,0.5,0.470978383659619,0.393635163096854,0.556358724250745,0,0,0,0,NaN,0,0,0,0.5,0.0580432326807612,1.08995999654629,2.84202958676052,2.57147112412266,0.5,67.0235318037985
CBC_1002,CBC_1002_MSI_AV_v3_Vset4_Aset2_2023-05-31_16h22.12.197.csv,2,28,1,0,z,0,1,0,aud,A,63,1,1A,0A,0,1,z,2.4674903999985,0,1,1,1,0A,1A,A10,3.76120011569356,0.606364836903146,0.470978383659619,0.5,0.470978383659619,0.470978383659619,0.524065865365087,0.5,0.470978383659619,0.470978383659619,0.5,0.582109098045848,0.417890901954152,0.5,0.470978383659619,0.393635163096854,0.556358724250745,0.562833482709812,0.437166517290188,0.606364836903146,0.470978383659619,0.246204613163904,0.714801229957454,0.393635163096854,0.0228478573629601,0.5,0.0580432326807612,1.08995999654629,2.84202958676052,2.57147112412266,0.5,67.0235318037985
CBC_1002,CBC_1002_MSI_AV_v3_Vset4_Aset2_2023-05-31_16h22.12.197.csv,2,29,2,3,b,1,0,3,aud,C,63,1,2C,3C,1,0,b,2.91805869999916,1,0,1,1,2C,3C,C23,3.09104245335832,0.629212694266106,0.470978383659619,0.5,0.470978383659619,0.470978383659619,0.524065865365087,0.5,0.470978383659619,0.470978383659619,0.5,0.582109098045848,0.417890901954152,0.5,0.470978383659619,0.393635163096854,0.556358724250745,0.582109098045848,0.417890901954152,0.582109098045848,0.417890901954152,0.181220243647353,0.768081285445253,0.417890901954152,0.024255738857298,0.5,0.0580432326807612,1.08995999654629,2.84202958676052,2.57147112412266,0.5,67.0235318037985
CBC_1002,CBC_1002_MSI_AV_v3_Vset4_Aset2_2023-05-31_16h22.12.197.csv,2,30,1,3,z,0,1,2,aud,D,27,1,1D,3D,0,1,z,1.90383479999946,0,1,1,1,3D,1D,D13,3.80666248977032,0.629212694266106,0.470978383659619,0.5,0.470978383659619,0.470978383659619,0.524065865365087,0.5,0.470978383659619,0.470978383659619,0.5,0.606364836903146,0.417890901954152,0.5,0.470978383659619,0.393635163096854,0.556358724250745,0.541554198682062,0.458445801317938,0.556358724250745,0.470978383659619,0.334775732319533,0.647276153495045,0.443641275749255,0.0257503737951038,0.5,0.0580432326807612,1.08995999654629,2.84202958676052,2.57147112412266,0.5,67.0235318037985
CBC_1002,CBC_1002_MSI_AV_v3_Vset4_Aset2_2023-05-31_16h22.12.197.csv,2,31,0,1,b,1,0,0,aud,A,63,1,0A,1A,1,0,z,2.66125459999967,0,1,0,0,1A,0A,A01,2.4423470353692,0.629212694266106,0.470978383659619,0.5,0.470978383659619,0.470978383659619,0.524065865365087,0.5,0.470978383659619,0.470978383659619,0.5,0.606364836903146,0.417890901954152,0.5,0.470978383659619,0.393635163096854,0.582109098045848,0.428087805027097,0.571912194972903,0.470978383659619,0.629212694266106,0.0762912661866846,0.259202623932045,-0.470978383659619,-0.0273371079103641,0.5,0.0580432326807612,1.08995999654629,2.84202958676052,2.57147112412266,0.5,67.0235318037985
CBC_1002,CBC_1002_MSI_AV_v3_Vset4_Aset2_2023-05-31_16h22.12.197.csv,2,32,2,3,z,0,1,2,aud,D,63,1,2D,3D,0,1,z,2.27179230000002,0,1,1,1,3D,2D,D23,2.24070968927596,0.629212694266106,0.443641275749255,0.5,0.470978383659619,0.470978383659619,0.524065865365087,0.5,0.470978383659619,0.470978383659619,0.5,0.606364836903146,0.417890901954152,0.5,0.470978383659619,0.393635163096854,0.582109098045848,0.596579576460061,0.403420423539939,0.582109098045848,0.393635163096854,0.332492469913723,0.803976114139104,0.417890901954152,0.024255738857298,0.5,0.0580432326807612,1.08995999654629,2.84202958676052,2.57147112412266,0.5,67.0235318037985
CBC_1002,CBC_1002_MSI_AV_v3_Vset4_Aset2_2023-05-31_16h22.12.197.csv,2,33,1,2,b,1,0,1,aud,B,9,1,1B,2B,NaN,NaN,[],NaN,NaN,NaN,NaN,NaN,,,B12,3.87120101090789,0.629212694266106,0.443641275749255,0.5,0.470978383659619,0.470978383659619,0.524065865365087,0.5,0.470978383659619,0.470978383659619,0.5,0.606364836903146,0.417890901954152,0.5,0.470978383659619,0.393635163096854,0.606364836903146,0,0,0,0,NaN,0,0,0,0.5,0.0580432326807612,1.08995999654629,2.84202958676052,2.57147112412266,0.5,67.0235318037985
CBC_1002,CBC_1002_MSI_AV_v3_Vset4_Aset2_2023-05-31_16h22.12.197.csv,2,34,0,1,b,1,0,0,aud,A,63,1,0A,1A,1,0,b,2.1567871999996,1,0,1,1,0A,1A,A01,2.28238238567653,0.629212694266106,0.443641275749255,0.5,0.470978383659619,0.470978383659619,0.524065865365087,0.5,0.470978383659619,0.470978383659619,0.5,0.606364836903146,0.417890901954152,0.5,0.470978383659619,0.393635163096854,0.606364836903146,0.586484938166466,0.413515061833535,0.629212694266106,0.443641275749255,0.352622294213139,0.779751711073999,0.370787305733894,0.0215216938617849,0.5,0.0580432326807612,1.08995999654629,2.84202958676052,2.57147112412266,0.5,67.0235318037985
CBC_1002,CBC_1002_MSI_AV_v3_Vset4_Aset2_2023-05-31_16h22.12.197.csv,2,35,1,2,z,0,1,3,aud,C,9,1,1C,2C,0,1,b,3.00989320000008,1,0,0,0,1C,2C,C12,3.91202300542815,0.650734388127891,0.443641275749255,0.5,0.470978383659619,0.470978383659619,0.524065865365087,0.5,0.470978383659619,0.470978383659619,0.5,0.606364836903146,0.417890901954152,0.5,0.470978383659619,0.393635163096854,0.606364836903146,0.451930487414588,0.548069512585412,0.5,0.606364836903146,0.0744346459786214,0.331933059530904,-0.5,-0.0290216163403806,0.5,0.0580432326807612,1.08995999654629,2.84202958676052,2.57147112412266,0.5,67.0235318037985
CBC_1002,CBC_1002_MSI_AV_v3_Vset4_Aset2_2023-05-31_16h22.12.197.csv,2,36,1,0,z,0,1,0,aud,A,63,0,1A,0A,1,0,z,2.48333329999878,0,1,1,0,0A,1A,A10,3.23867845216438,0.650734388127891,0.443641275749255,0.5,0.470978383659619,0.470978383659619,0.524065865365087,0.5,0.470978383659619,0.470978383659619,0.470978383659619,0.606364836903146,0.417890901954152,0.5,0.470978383659619,0.393635163096854,0.606364836903146,0.594617012792914,0.405382987207086,0.650734388127891,0.443641275749255,0.273883207913694,0.799305418922979,-0.650734388127891,-0.0377707275034799,0.5,0.0580432326807612,1.08995999654629,2.84202958676052,2.57147112412266,0.5,67.0235318037985
CBC_1002,CBC_1002_MSI_AV_v3_Vset4_Aset2_2023-05-31_16h22.12.197.csv,2,37,1,0,b,1,0,1,aud,B,63,1,1B,0B,NaN,NaN,[],NaN,NaN,NaN,NaN,NaN,,,B10,2.85263142991332,0.612963660624411,0.443641275749255,0.5,0.470978383659619,0.470978383659619,0.524065865365087,0.5,0.470978383659619,0.470978383659619,0.470978383659619,0.606364836903146,0.417890901954152,0.5,0.470978383659619,0.393635163096854,0.606364836903146,0,0,0,0,NaN,0,0,0,0.5,0.0580432326807612,1.08995999654629,2.84202958676052,2.57147112412266,0.5,67.0235318037985
CBC_1002,CBC_1002_MSI_AV_v3_Vset4_Aset2_2023-05-31_16h22.12.197.csv,2,38,3,1,b,1,0,2,aud,D,27,1,3D,1D,NaN,NaN,[],NaN,NaN,NaN,NaN,NaN,,,D31,3.27714473299218,0.612963660624411,0.443641275749255,0.5,0.470978383659619,0.470978383659619,0.524065865365087,0.5,0.470978383659619,0.470978383659619,0.470978383659619,0.606364836903146,0.417890901954152,0.5,0.470978383659619,0.393635163096854,0.606364836903146,0,0,0,0,NaN,0,0,0,0.5,0.0580432326807612,1.08995999654629,2.84202958676052,2.57147112412266,0.5,67.0235318037985
CBC_1002,CBC_1002_MSI_AV_v3_Vset4_Aset2_2023-05-31_16h22.12.197.csv,2,39,0,1,z,0,1,1,aud,B,63,1,0B,1B,0,1,z,1.7949821000002,0,1,1,1,1B,0B,B01,2.60268968544438,0.612963660624411,0.443641275749255,0.5,0.470978383659619,0.470978383659619,0.524065865365087,0.5,0.470978383659619,0.470978383659619,0.470978383659619,0.606364836903146,0.417890901954152,0.5,0.470978383659619,0.393635163096854,0.606364836903146,0.526675940169245,0.473324059830755,0.524065865365087,0.470978383659619,0.32257634400938,0.595049153927713,0.475934134634913,0.0276247557173309,0.5,0.0580432326807612,1.08995999654629,2.84202958676052,2.57147112412266,0.5,67.0235318037985
CBC_1002,CBC_1002_MSI_AV_v3_Vset4_Aset2_2023-05-31_16h22.12.197.csv,2,40,2,3,b,1,0,3,aud,C,63,1,2C,3C,1,0,z,2.1917246999983,0,1,0,0,3C,2C,C23,2.90872089656436,0.612963660624411,0.443641275749255,0.5,0.470978383659619,0.470978383659619,0.551690621082418,0.5,0.470978383659619,0.470978383659619,0.470978383659619,0.606364836903146,0.417890901954152,0.5,0.470978383659619,0.393635163096854,0.606364836903146,0.407994689314963,0.592005310685037,0.417890901954152,0.606364836903146,0.0913003380761011,0.206745599832912,-0.417890901954152,-0.024255738857298,0.5,0.0580432326807612,1.08995999654629,2.84202958676052,2.57147112412266,0.5,67.0235318037985
CBC_1002,CBC_1002_MSI_AV_v3_Vset4_Aset2_2023-05-31_16h22.12.197.csv,2,41,2,0,z,0,1,0,aud,A,27,1,2A,0A,0,1,z,2.24036490000071,0,1,1,1,0A,2A,A20,3.3322045101752,0.612963660624411,0.443641275749255,0.5,0.470978383659619,0.470978383659619,0.551690621082418,0.5,0.470978383659619,0.470978383659619,0.470978383659619,0.606364836903146,0.393635163096854,0.5,0.470978383659619,0.393635163096854,0.606364836903146,0.550749033693083,0.449250966306917,0.612963660624411,0.5,0.277444986412338,0.677813151737905,0.387036339375589,0.0224648403022873,0.5,0.0580432326807612,1.08995999654629,2.84202958676052,2.57147112412266,0.5,67.0235318037985
CBC_1002,CBC_1002_MSI_AV_v3_Vset4_Aset2_2023-05-31_16h22.12.197.csv,2,42,3,2,b,1,0,2,aud,D,63,1,3D,2D,1,0,b,1.76541460000044,1,0,1,1,3D,2D,D32,3.3499040872746,0.635428500926699,0.443641275749255,0.5,0.470978383659619,0.470978383659619,0.551690621082418,0.5,0.470978383659619,0.470978383659619,0.470978383659619,0.606364836903146,0.393635163096854,0.5,0.470978383659619,0.393635163096854,0.606364836903146,0.606364836903146,0.393635163096854,0.606364836903146,0.393635163096854,0.522062265872418,0.825194979368804,0.393635163096854,0.0228478573629601,0.5,0.0580432326807612,1.08995999654629,2.84202958676052,2.57147112412266,0.5,67.0235318037985
CBC_1002,CBC_1002_MSI_AV_v3_Vset4_Aset2_2023-05-31_16h22.12.197.csv,2,43,3,1,z,0,1,1,aud,B,27,1,3B,1B,NaN,NaN,[],NaN,NaN,NaN,NaN,NaN,,,B31,4.06044301054642,0.635428500926699,0.443641275749255,0.5,0.470978383659619,0.470978383659619,0.551690621082418,0.5,0.470978383659619,0.470978383659619,0.470978383659619,0.606364836903146,0.393635163096854,0.5,0.470978383659619,0.393635163096854,0.629212694266106,0,0,0,0,NaN,0,0,0,0.5,0.0580432326807612,1.08995999654629,2.84202958676052,2.57147112412266,0.5,67.0235318037985
CBC_1002,CBC_1002_MSI_AV_v3_Vset4_Aset2_2023-05-31_16h22.12.197.csv,2,44,2,3,b,1,0,3,aud,C,63,1,2C,3C,1,0,b,2.30506380000043,1,0,1,1,2C,3C,C23,2.69124308278583,0.635428500926699,0.443641275749255,0.5,0.470978383659619,0.470978383659619,0.551690621082418,0.5,0.470978383659619,0.470978383659619,0.470978383659619,0.606364836903146,0.393635163096854,0.5,0.470978383659619,0.393635163096854,0.629212694266106,0.606364836903146,0.393635163096854,0.606364836903146,0.393635163096854,0.333630115277909,0.825710141551993,0.393635163096854,0.0228478573629601,0.5,0.0580432326807612,1.08995999654629,2.84202958676052,2.57147112412266,0.5,67.0235318037985
CBC_1002,CBC_1002_MSI_TV_v3_Vset6_Tset1_2023-05-31_17h12.40.954.csv,3,1,1,0,b,1,0,1,tac,B,63,1,1B,0B,1,0,z,2.33809720000136,0,1,0,0,0B,1B,B10,2.77258872223978,0.5,0.5,0.5,0.5,0.5,0.5,0.5,0.5,0.5,0.5,0.5,0.5,0.5,0.5,0.5,0.5,0.5,0.5,0.5,0.5,0.158688167803256,0.500766999826276,-0.5,-0.00235659116053694,0.5,0.00471318232107387,0.9754564218553,12.9091390763294,2.14667869777243,0.5,74.1332940957379
CBC_1002,CBC_1002_MSI_TV_v3_Vset6_Tset1_2023-05-31_17h12.40.954.csv,3,2,0,1,b,1,0,0,tac,A,63,1,0A,1A,1,0,b,3.02907140000207,1,0,1,1,0A,1A,A01,2.83321334405622,0.5,0.5,0.5,0.5,0.497643408839463,0.5,0.5,0.5,0.5,0.5,0.5,0.5,0.5,0.5,0.5,0.5,0.5,0.5,0.5,0.5,0.0756019212861937,0.499994717829494,0.5,0.00235659116053694,0.5,0.00471318232107387,0.9754564218553,12.9091390763294,2.14667869777243,0.5,74.1332940957379
CBC_1002,CBC_1002_MSI_TV_v3_Vset6_Tset1_2023-05-31_17h12.40.954.csv,3,3,1,2,z,0,1,3,tac,C,9,1,1C,2C,0,1,z,2.47580490000109,0,1,1,1,2C,1C,C12,2.89037175789616,0.502356591160537,0.5,0.5,0.5,0.497643408839463,0.5,0.5,0.5,0.5,0.5,0.5,0.5,0.5,0.5,0.5,0.5,0.5,0.5,0.5,0.5,0.136742618572588,0.500070497602161,0.5,0.00235659116053694,0.5,0.00471318232107387,0.9754564218553,12.9091390763294,2.14667869777243,0.5,74.1332940957379
CBC_1002,CBC_1002_MSI_TV_v3_Vset6_Tset1_2023-05-31_17h12.40.954.csv,3,4,1,0,z,0,1,0,tac,A,63,1,1A,0A,0,1,z,2.70095760000186,0,1,1,1,0A,1A,A10,2.94443897916644,0.502356591160537,0.5,0.5,0.5,0.497643408839463,0.5,0.5,0.5,0.5,0.5,0.502356591160537,0.5,0.5,0.5,0.5,0.5,0.501175525347625,0.498824474652375,0.502356591160537,0.5,0.110938656440013,0.516460074912945,0.497643408839463,0.00234548411674109,0.5,0.00471318232107387,0.9754564218553,12.9091390763294,2.14667869777243,0.5,74.1332940957379
CBC_1002,CBC_1002_MSI_TV_v3_Vset6_Tset1_2023-05-31_17h12.40.954.csv,3,5,3,1,b,1,0,2,tac,D,27,1,3D,1D,1,0,b,2.45134560000042,1,0,1,1,3D,1D,D31,2.99573227355399,0.504702075277278,0.5,0.5,0.5,0.497643408839463,0.5,0.5,0.5,0.5,0.5,0.502356591160537,0.5,0.5,0.5,0.5,0.5,0.5,0.5,0.5,0.5,0.140411577071857,0.50021387446336,0.5,0.00235659116053694,0.5,0.00471318232107387,0.9754564218553,12.9091390763294,2.14667869777243,0.5,74.1332940957379
CBC_1002,CBC_1002_MSI_TV_v3_Vset6_Tset1_2023-05-31_17h12.40.954.csv,3,6,0,1,z,0,1,1,tac,B,63,1,0B,1B,0,1,z,2.92743830000109,0,1,1,1,1B,0B,B01,3.04452243772342,0.504702075277278,0.5,0.5,0.5,0.497643408839463,0.5,0.5,0.5,0.5,0.5,0.502356591160537,0.5,0.5,0.5,0.5,0.502356591160537,0.501181078900365,0.498818921099635,0.5,0.497643408839463,0.0869781456508394,0.516098421714016,0.5,0.00235659116053694,0.5,0.00471318232107387,0.9754564218553,12.9091390763294,2.14667869777243,0.5,74.1332940957379
CBC_1002,CBC_1002_MSI_TV_v3_Vset6_Tset1_2023-05-31_17h12.40.954.csv,3,7,2,3,b,1,0,3,tac,C,63,1,2C,3C,1,0,z,3.31804630000079,0,1,0,0,3C,2C,C23,3.09104245335832,0.504702075277278,0.5,0.5,0.5,0.497643408839463,0.502356591160537,0.5,0.5,0.5,0.5,0.502356591160537,0.5,0.5,0.5,0.5,0.502356591160537,0.498824474652375,0.501175525347625,0.5,0.502356591160537,0.053722590507404,0.484397889477997,-0.5,-0.00235659116053694,0.5,0.00471318232107387,0.9754564218553,12.9091390763294,2.14667869777243,0.5,74.1332940957379
CBC_1002,CBC_1002_MSI_TV_v3_Vset6_Tset1_2023-05-31_17h12.40.954.csv,3,8,2,0,z,0,1,0,tac,A,27,1,2A,0A,0,1,z,2.2834238000014,0,1,1,1,0A,2A,A20,3.13549421592915,0.504702075277278,0.5,0.5,0.5,0.497643408839463,0.502356591160537,0.5,0.5,0.5,0.5,0.502356591160537,0.497643408839463,0.5,0.5,0.5,0.502356591160537,0.502340034619706,0.497659965380294,0.504702075277278,0.5,0.178675693755751,0.531932970614544,0.495297924722722,0.00233442942246771,0.5,0.00471318232107387,0.9754564218553,12.9091390763294,2.14667869777243,0.5,74.1332940957379
CBC_1002,CBC_1002_MSI_TV_v3_Vset6_Tset1_2023-05-31_17h12.40.954.csv,3,9,3,2,b,1,0,2,tac,D,63,1,3D,2D,1,0,b,2.6385132000014,1,0,1,1,3D,2D,D32,3.17805383034795,0.507036504699746,0.5,0.5,0.5,0.497643408839463,0.502356591160537,0.5,0.5,0.5,0.5,0.502356591160537,0.497643408839463,0.5,0.5,0.5,0.502356591160537,0.501175525347625,0.498824474652375,0.502356591160537,0.5,0.118813260807005,0.51734079054496,0.497643408839463,0.00234548411674109,0.5,0.00471318232107387,0.9754564218553,12.9091390763294,2.14667869777243,0.5,74.1332940957379
CBC_1002,CBC_1002_MSI_TV_v3_Vset6_Tset1_2023-05-31_17h12.40.954.csv,3,10,3,1,z,0,1,1,tac,B,27,1,3B,1B,0,1,z,2.49450160000197,0,1,1,1,1B,3B,B31,3.2188758248682,0.507036504699746,0.5,0.5,0.5,0.497643408839463,0.502356591160537,0.5,0.5,0.5,0.5,0.502356591160537,0.497643408839463,0.5,0.5,0.5,0.504702075277278,0.501175525347625,0.498824474652375,0.502356591160537,0.5,0.138166585285418,0.515575615613233,0.497643408839463,0.00234548411674109,0.5,0.00471318232107387,0.9754564218553,12.9091390763294,2.14667869777243,0.5,74.1332940957379
CBC_1002,CBC_1002_MSI_TV_v3_Vset6_Tset1_2023-05-31_17h12.40.954.csv,3,11,3,2,z,0,1,3,tac,C,63,1,3C,2C,0,1,b,2.01906540000164,1,0,0,0,3C,2C,C32,3.25809653802148,0.507036504699746,0.5,0.5,0.5,0.497643408839463,0.504702075277278,0.5,0.5,0.5,0.5,0.502356591160537,0.497643408839463,0.5,0.5,0.5,0.504702075277278,0.497643408839463,0.502356591160537,0.497643408839463,0.502356591160537,0.208319570795689,0.467219101191272,-0.497643408839463,-0.00234548411674109,0.5,0.00471318232107387,0.9754564218553,12.9091390763294,2.14667869777243,0.5,74.1332940957379
CBC_1002,CBC_1002_MSI_TV_v3_Vset6_Tset1_2023-05-31_17h12.40.954.csv,3,12,1,3,b,1,0,1,tac,B,27,1,1B,3B,1,0,z,2.20542430000023,0,1,0,0,3B,1B,B13,3.29583686600433,0.507036504699746,0.5,0.5,0.5,0.497643408839463,0.504702075277278,0.5,0.5,0.5,0.5,0.502356591160537,0.495297924722722,0.5,0.5,0.5,0.504702075277278,0.497659965380294,0.502340034619706,0.5,0.504702075277278,0.170336323794812,0.466430055392017,-0.5,-0.00235659116053694,0.5,0.00471318232107387,0.9754564218553,12.9091390763294,2.14667869777243,0.5,74.1332940957379
CBC_1002,CBC_1002_MSI_TV_v3_Vset6_Tset1_2023-05-31_17h12.40.954.csv,3,13,3,2,z,0,1,3,tac,C,63,1,3C,2C,0,1,z,2.31810980000228,0,1,1,1,2C,3C,C32,2.63905732961526,0.507036504699746,0.5,0.5,0.5,0.497643408839463,0.504702075277278,0.5,0.497643408839463,0.5,0.5,0.502356591160537,0.495297924722722,0.5,0.5,0.5,0.504702075277278,0.503537630675468,0.496462369324532,0.502356591160537,0.495297924722722,0.177270630956217,0.547987185750537,0.497643408839463,0.00234548411674109,0.5,0.00471318232107387,0.9754564218553,12.9091390763294,2.14667869777243,0.5,74.1332940957379
CBC_1002,CBC_1002_MSI_TV_v3_Vset6_Tset1_2023-05-31_17h12.40.954.csv,3,14,3,2,b,1,0,2,tac,D,63,1,3D,2D,1,0,z,2.32698890000211,0,1,0,0,2D,3D,D32,2.67414864942653,0.507036504699746,0.5,0.5,0.5,0.497643408839463,0.504702075277278,0.5,0.497643408839463,0.5,0.5,0.504702075277278,0.495297924722722,0.5,0.5,0.5,0.504702075277278,0.497659965380294,0.502340034619706,0.5,0.504702075277278,0.150075443570452,0.468154476463586,-0.5,-0.00235659116053694,0.5,0.00471318232107387,0.9754564218553,12.9091390763294,2.14667869777243,0.5,74.1332940957379
CBC_1002,CBC_1002_MSI_TV_v3_Vset6_Tset1_2023-05-31_17h12.40.954.csv,3,15,0,3,b,1,0,0,tac,A,9,1,0A,3A,1,0,b,1.61212570000134,1,0,1,1,0A,3A,A03,3.40119738166216,0.507036504699746,0.5,0.5,0.5,0.497643408839463,0.504702075277278,0.5,0.497643408839463,0.5,0.5,0.504702075277278,0.495297924722722,0.5,0.5,0.497643408839463,0.504702075277278,0.503493669130616,0.496506330869384,0.507036504699746,0.5,0.373501581886645,0.54760817870571,0.492963495300254,0.00232342683098394,0.5,0.00471318232107387,0.9754564218553,12.9091390763294,2.14667869777243,0.5,74.1332940957379
CBC_1002,CBC_1002_MSI_TV_v3_Vset6_Tset1_2023-05-31_17h12.40.954.csv,3,16,0,1,z,0,1,1,tac,B,63,0,0B,1B,1,0,z,1.50462030000017,0,1,1,0,1B,0B,B01,2.7408400239252,0.50935993153073,0.5,0.5,0.5,0.497643408839463,0.504702075277278,0.5,0.497643408839463,0.5,0.5,0.504702075277278,0.495297924722722,0.5,0.5,0.497643408839463,0.504702075277278,0.503521074594373,0.496478925405627,0.504702075277278,0.497643408839463,0.412113491378955,0.548992502766637,-0.504702075277278,-0.00237875289860616,0.5,0.00471318232107387,0.9754564218553,12.9091390763294,2.14667869777243,0.5,74.1332940957379
CBC_1002,CBC_1002_MSI_TV_v3_Vset6_Tset1_2023-05-31_17h12.40.954.csv,3,17,2,3,z,0,1,2,tac,D,63,1,2D,3D,0,1,b,2.36206190000121,1,0,0,0,2D,3D,D23,3.46573590279973,0.50935993153073,0.5,0.5,0.5,0.497643408839463,0.502323322378672,0.5,0.497643408839463,0.5,0.5,0.504702075277278,0.495297924722722,0.5,0.5,0.497643408839463,0.504702075277278,0.496478925405627,0.503521074594373,0.497643408839463,0.504702075277278,0.139095938472195,0.450799103004137,-0.497643408839463,-0.00234548411674109,0.5,0.00471318232107387,0.9754564218553,12.9091390763294,2.14667869777243,0.5,74.1332940957379
CBC_1002,CBC_1002_MSI_TV_v3_Vset6_Tset1_2023-05-31_17h12.40.954.csv,3,18,0,2,z,0,1,3,tac,C,27,1,0C,2C,0,1,z,2.35732000000098,0,1,1,1,2C,0C,C02,3.49650756146648,0.50935993153073,0.5,0.5,0.5,0.497643408839463,0.502323322378672,0.5,0.497643408839463,0.5,0.5,0.504702075277278,0.495297924722722,0.5,0.5,0.495297924722722,0.504702075277278,0.502340034619706,0.497659965380294,0.504702075277278,0.5,0.165531569938646,0.533464513584506,0.495297924722722,0.00233442942246771,0.5,0.00471318232107387,0.9754564218553,12.9091390763294,2.14667869777243,0.5,74.1332940957379
CBC_1002,CBC_1002_MSI_TV_v3_Vset6_Tset1_2023-05-31_17h12.40.954.csv,3,19,0,1,b,1,0,0,tac,A,63,1,0A,1A,1,0,b,1.85151530000076,1,0,1,1,0A,1A,A01,2.83321334405622,0.50935993153073,0.5,0.5,0.5,0.497643408839463,0.502323322378672,0.5,0.497643408839463,0.5,0.5,0.507036504699746,0.495297924722722,0.5,0.5,0.495297924722722,0.504702075277278,0.504636567808143,0.495363432191857,0.50935993153073,0.5,0.30111406265136,0.56412809146434,0.49064006846927,0.00231247609671984,0.5,0.00471318232107387,0.9754564218553,12.9091390763294,2.14667869777243,0.5,74.1332940957379
CBC_1002,CBC_1002_MSI_TV_v3_Vset6_Tset1_2023-05-31_17h12.40.954.csv,3,20,1,0,b,1,0,1,tac,B,63,1,1B,0B,1,0,b,2.55164630000036,1,0,1,1,1B,0B,B10,2.86220088092947,0.51167240762745,0.5,0.5,0.5,0.497643408839463,0.502323322378672,0.5,0.497643408839463,0.5,0.5,0.507036504699746,0.495297924722722,0.5,0.5,0.495297924722722,0.504702075277278,0.502340034619706,0.497659965380294,0.502323322378672,0.497643408839463,0.134304057108071,0.533137725552466,0.497676677621328,0.00234564091857562,0.5,0.00471318232107387,0.9754564218553,12.9091390763294,2.14667869777243,0.5,74.1332940957379
CBC_1002,CBC_1002_MSI_TV_v3_Vset6_Tset1_2023-05-31_17h12.40.954.csv,3,21,1,3,z,0,1,2,tac,D,27,1,1D,3D,0,1,z,1.79573119999986,0,1,1,1,3D,1D,D13,3.58351893845611,0.51167240762745,0.5,0.5,0.5,0.497643408839463,0.504668963297248,0.5,0.497643408839463,0.5,0.5,0.507036504699746,0.495297924722722,0.5,0.5,0.495297924722722,0.504702075277278,0.502340034619706,0.497659965380294,0.504702075277278,0.5,0.300767638705674,0.532074221628268,0.495297924722722,0.00233442942246771,0.5,0.00471318232107387,0.9754564218553,12.9091390763294,2.14667869777243,0.5,74.1332940957379
CBC_1002,CBC_1002_MSI_TV_v3_Vset6_Tset1_2023-05-31_17h12.40.954.csv,3,22,3,2,z,0,1,3,tac,C,63,1,3C,2C,0,1,z,1.88011060000099,0,1,1,1,2C,3C,C32,2.51230562397611,0.51167240762745,0.5,0.5,0.5,0.497643408839463,0.504668963297248,0.5,0.497643408839463,0.5,0.5,0.507036504699746,0.495297924722722,0.5,0.5,0.495297924722722,0.507036504699746,0.505855620455833,0.494144379544167,0.507036504699746,0.495297924722722,0.30077001456006,0.580335607498716,0.492963495300254,0.00232342683098394,0.5,0.00471318232107387,0.9754564218553,12.9091390763294,2.14667869777243,0.5,74.1332940957379
CBC_1002,CBC_1002_MSI_TV_v3_Vset6_Tset1_2023-05-31_17h12.40.954.csv,3,23,0,1,b,1,0,0,tac,A,63,1,0A,1A,1,0,b,1.37910180000108,1,0,1,1,0A,1A,A01,2.53897387105828,0.51167240762745,0.5,0.5,0.5,0.497643408839463,0.504668963297248,0.5,0.497643408839463,0.5,0.5,0.50935993153073,0.495297924722722,0.5,0.5,0.495297924722722,0.507036504699746,0.505768867243708,0.494231132756292,0.51167240762745,0.5,0.467690409980109,0.578793067030799,0.48832759237255,0.00230157697526287,0.5,0.00471318232107387,0.9754564218553,12.9091390763294,2.14667869777243,0.5,74.1332940957379
CBC_1002,CBC_1002_MSI_TV_v3_Vset6_Tset1_2023-05-31_17h12.40.954.csv,3,24,2,3,z,0,1,2,tac,D,63,1,2D,3D,0,1,b,2.26263090000066,1,0,0,0,2D,3D,D23,2.9704144655697,0.513973984602712,0.5,0.5,0.5,0.497643408839463,0.504668963297248,0.5,0.497643408839463,0.5,0.5,0.50935993153073,0.495297924722722,0.5,0.5,0.495297924722722,0.507036504699746,0.494144379544167,0.505855620455833,0.495297924722722,0.507036504699746,0.143807757404025,0.419263763028689,-0.495297924722722,-0.00233442942246771,0.5,0.00471318232107387,0.9754564218553,12.9091390763294,2.14667869777243,0.5,74.1332940957379
CBC_1002,CBC_1002_MSI_TV_v3_Vset6_Tset1_2023-05-31_17h12.40.954.csv,3,25,2,0,b,1,0,3,tac,C,27,1,2C,0C,1,0,z,1.88423610000245,0,1,0,0,0C,2C,C20,3.68887945411394,0.513973984602712,0.5,0.5,0.5,0.497643408839463,0.504668963297248,0.5,0.497643408839463,0.5,0.5,0.50935993153073,0.495297924722722,0.5,0.5,0.492963495300254,0.507036504699746,0.495363432191857,0.504636567808143,0.5,0.50935993153073,0.224646686870434,0.435802453089103,-0.5,-0.00235659116053694,0.5,0.00471318232107387,0.9754564218553,12.9091390763294,2.14667869777243,0.5,74.1332940957379
CBC_1002,CBC_1002_MSI_TV_v3_Vset6_Tset1_2023-05-31_17h12.40.954.csv,3,26,0,1,b,1,0,0,tac,A,63,1,0A,1A,1,0,b,1.1272893000023,1,0,1,1,0A,1A,A01,2.32727770558442,0.513973984602712,0.5,0.5,0.5,0.497643408839463,0.504668963297248,0.5,0.497643408839463,0.497643408839463,0.5,0.50935993153073,0.495297924722722,0.5,0.5,0.492963495300254,0.507036504699746,0.506890701741321,0.493109298258679,0.513973984602712,0.5,0.196385089071734,0.593495198369812,0.486026015397288,0.00229072922335247,0.5,0.00471318232107387,0.9754564218553,12.9091390763294,2.14667869777243,0.5,74.1332940957379
CBC_1002,CBC_1002_MSI_TV_v3_Vset6_Tset1_2023-05-31_17h12.40.954.csv,3,27,1,3,b,1,0,1,tac,B,27,1,1B,3B,1,0,b,2.3433580000019,1,0,1,1,1B,3B,B13,3.04452243772342,0.516264713826065,0.5,0.5,0.5,0.497643408839463,0.504668963297248,0.5,0.497643408839463,0.497643408839463,0.5,0.50935993153073,0.495297924722722,0.5,0.5,0.492963495300254,0.507036504699746,0.50350467312042,0.49649532687958,0.504668963297248,0.497643408839463,0.172352608151767,0.547427103772421,0.495331036702752,0.00233458548526661,0.5,0.00471318232107387,0.9754564218553,12.9091390763294,2.14667869777243,0.5,74.1332940957379
CBC_1002,CBC_1002_MSI_TV_v3_Vset6_Tset1_2023-05-31_17h12.40.954.csv,3,28,3,2,z,0,1,3,tac,C,63,1,3C,2C,0,1,b,2.44878150000113,1,0,0,0,3C,2C,C32,2.37490575457367,0.516264713826065,0.5,0.5,0.5,0.497643408839463,0.507003548782514,0.5,0.497643408839463,0.497643408839463,0.5,0.50935993153073,0.495297924722722,0.5,0.5,0.492963495300254,0.507036504699746,0.493001594164382,0.506998405835618,0.495297924722722,0.50935993153073,0.112925811167901,0.403389734240938,-0.495297924722722,-0.00233442942246771,0.5,0.00471318232107387,0.9754564218553,12.9091390763294,2.14667869777243,0.5,74.1332940957379
CBC_1002,CBC_1002_MSI_TV_v3_Vset6_Tset1_2023-05-31_17h12.40.954.csv,3,29,3,2,b,1,0,2,tac,D,63,1,3D,2D,1,0,z,2.64577470000222,0,1,0,0,2D,3D,D32,2.68557734525015,0.516264713826065,0.5,0.5,0.5,0.497643408839463,0.507003548782514,0.5,0.497643408839463,0.497643408839463,0.5,0.50935993153073,0.492963495300254,0.5,0.5,0.492963495300254,0.507036504699746,0.492963495300254,0.507036504699746,0.492963495300254,0.507036504699746,0.0912214560749398,0.403681696431728,-0.492963495300254,-0.00232342683098394,0.5,0.00471318232107387,0.9754564218553,12.9091390763294,2.14667869777243,0.5,74.1332940957379
CBC_1002,CBC_1002_MSI_TV_v3_Vset6_Tset1_2023-05-31_17h12.40.954.csv,3,30,0,1,z,0,1,1,tac,B,63,1,0B,1B,0,1,b,1.51071720000073,1,0,0,0,0B,1B,B01,2.70805020110221,0.516264713826065,0.5,0.5,0.5,0.497643408839463,0.507003548782514,0.5,0.497643408839463,0.497643408839463,0.5,0.50935993153073,0.492963495300254,0.5,0.5,0.49064006846927,0.507036504699746,0.495341577520323,0.504658422479677,0.497643408839463,0.507003548782514,0.32625769911073,0.435935235652556,-0.497643408839463,-0.00234548411674109,0.5,0.00471318232107387,0.9754564218553,12.9091390763294,2.14667869777243,0.5,74.1332940957379
CBC_1002,CBC_1002_MSI_TV_v3_Vset6_Tset1_2023-05-31_17h12.40.954.csv,3,31,2,0,z,0,1,0,tac,A,27,1,2A,0A,0,1,b,1.17759560000195,1,0,0,0,2A,0A,A20,3.13549421592915,0.516264713826065,0.5,0.5,0.5,0.495297924722722,0.507003548782514,0.5,0.497643408839463,0.497643408839463,0.5,0.50935993153073,0.492963495300254,0.5,0.5,0.49064006846927,0.507036504699746,0.491997796634682,0.508002203365318,0.5,0.516264713826065,0.217659563544211,0.391306273969491,-0.5,-0.00235659116053694,0.5,0.00471318232107387,0.9754564218553,12.9091390763294,2.14667869777243,0.5,74.1332940957379
CBC_1002,CBC_1002_MSI_TV_v3_Vset6_Tset1_2023-05-31_17h12.40.954.csv,3,32,3,0,b,1,0,2,tac,D,9,1,3D,0D,1,0,b,1.90783259999989,1,0,1,1,3D,0D,D30,3.85014760171006,0.516264713826065,0.5,0.497643408839463,0.5,0.495297924722722,0.507003548782514,0.5,0.497643408839463,0.497643408839463,0.5,0.50935993153073,0.492963495300254,0.5,0.5,0.49064006846927,0.507036504699746,0.503493669130616,0.496506330869384,0.507036504699746,0.5,0.275337773459987,0.548152390950013,0.492963495300254,0.00232342683098394,0.5,0.00471318232107387,0.9754564218553,12.9091390763294,2.14667869777243,0.5,74.1332940957379
CBC_1002,CBC_1002_MSI_TV_v3_Vset6_Tset1_2023-05-31_17h12.40.954.csv,3,33,3,2,z,0,1,3,tac,C,63,1,3C,2C,0,1,z,2.25321580000127,0,1,1,1,2C,3C,C32,2.26176309847379,0.516264713826065,0.5,0.497643408839463,0.5,0.495297924722722,0.507003548782514,0.5,0.497643408839463,0.497643408839463,0.5,0.50935993153073,0.492963495300254,0.5,0.5,0.49064006846927,0.50935993153073,0.508179214309255,0.491820785690745,0.50935993153073,0.492963495300254,0.211485974084831,0.611244883739377,0.49064006846927,0.00231247609671984,0.5,0.00471318232107387,0.9754564218553,12.9091390763294,2.14667869777243,0.5,74.1332940957379
CBC_1002,CBC_1002_MSI_TV_v3_Vset6_Tset1_2023-05-31_17h12.40.954.csv,3,34,0,1,z,0,1,1,tac,B,63,1,0B,1B,0,1,z,1.97455180000179,0,1,1,1,1B,0B,B01,2.50552593699074,0.516264713826065,0.5,0.497643408839463,0.5,0.495297924722722,0.507003548782514,0.5,0.497643408839463,0.497643408839463,0.5,0.51167240762745,0.492963495300254,0.5,0.5,0.49064006846927,0.50935993153073,0.505839372867953,0.494160627132047,0.507003548782514,0.495297924722722,0.271481234724402,0.579791951153546,0.492996451217486,0.00232358215823041,0.5,0.00471318232107387,0.9754564218553,12.9091390763294,2.14667869777243,0.5,74.1332940957379
CBC_1002,CBC_1002_MSI_TV_v3_Vset6_Tset1_2023-05-31_17h12.40.954.csv,3,35,0,1,b,1,0,0,tac,A,63,0,0A,1A,0,1,b,1.16207510000095,1,0,1,0,0A,1A,A01,2.30258509299405,0.516264713826065,0.5,0.497643408839463,0.5,0.495297924722722,0.509327130940745,0.5,0.497643408839463,0.497643408839463,0.5,0.51167240762745,0.492963495300254,0.5,0.5,0.49064006846927,0.50935993153073,0.508002203365318,0.491997796634682,0.516264713826065,0.5,0.301338232147115,0.608847787550684,-0.516264713826065,-0.00243324972219927,0.5,0.00471318232107387,0.9754564218553,12.9091390763294,2.14667869777243,0.5,74.1332940957379
CBC_1002,CBC_1002_MSI_TV_v3_Vset6_Tset1_2023-05-31_17h12.40.954.csv,3,36,2,3,z,0,1,2,tac,D,63,1,2D,3D,0,1,b,2.29646160000084,1,0,0,0,2D,3D,D23,2.83321334405622,0.513831464103866,0.5,0.497643408839463,0.5,0.495297924722722,0.509327130940745,0.5,0.497643408839463,0.497643408839463,0.5,0.51167240762745,0.492963495300254,0.5,0.5,0.49064006846927,0.50935993153073,0.49064006846927,0.50935993153073,0.49064006846927,0.50935993153073,0.123141269045712,0.373611529927781,-0.49064006846927,-0.00231247609671984,0.5,0.00471318232107387,0.9754564218553,12.9091390763294,2.14667869777243,0.5,74.1332940957379
CBC_1002,CBC_1002_MSI_TV_v3_Vset6_Tset1_2023-05-31_17h12.40.954.csv,3,37,1,2,b,1,0,1,tac,B,9,1,1B,2B,1,0,z,2.23231690000102,0,1,0,0,2B,1B,B12,3.95124371858143,0.513831464103866,0.5,0.497643408839463,0.5,0.495297924722722,0.509327130940745,0.5,0.497643408839463,0.497643408839463,0.5,0.51167240762745,0.492963495300254,0.5,0.5,0.48832759237255,0.50935993153073,0.495379530255938,0.504620469744062,0.5,0.509327130940745,0.154807580631014,0.436551336607889,-0.5,-0.00235659116053694,0.5,0.00471318232107387,0.9754564218553,12.9091390763294,2.14667869777243,0.5,74.1332940957379
CBC_1002,CBC_1002_MSI_TV_v3_Vset6_Tset1_2023-05-31_17h12.40.954.csv,3,38,2,0,z,0,1,0,tac,A,27,1,2A,0A,0,1,z,1.34100040000158,0,1,1,1,0A,2A,A20,2.87167962488401,0.513831464103866,0.5,0.497643408839463,0.5,0.495297924722722,0.509327130940745,0.497643408839463,0.497643408839463,0.497643408839463,0.5,0.51167240762745,0.492963495300254,0.5,0.5,0.48832759237255,0.50935993153073,0.508002203365318,0.491997796634682,0.513831464103866,0.497643408839463,0.496265878795159,0.609011200305257,0.486168535896134,0.00229140094844803,0.5,0.00471318232107387,0.9754564218553,12.9091390763294,2.14667869777243,0.5,74.1332940957379
CBC_1002,CBC_1002_MSI_TV_v3_Vset6_Tset1_2023-05-31_17h12.40.954.csv,3,39,2,3,b,1,0,3,tac,C,63,1,2C,3C,1,0,z,1.86477949999971,0,1,0,0,3C,2C,C23,3.29583686600433,0.516122865052314,0.5,0.497643408839463,0.5,0.495297924722722,0.509327130940745,0.497643408839463,0.497643408839463,0.497643408839463,0.5,0.51167240762745,0.492963495300254,0.5,0.5,0.48832759237255,0.50935993153073,0.490688710072637,0.509311289927363,0.492963495300254,0.51167240762745,0.197726308393572,0.373692671901689,-0.492963495300254,-0.00232342683098394,0.5,0.00471318232107387,0.9754564218553,12.9091390763294,2.14667869777243,0.5,74.1332940957379
CBC_1002,CBC_1002_MSI_TV_v3_Vset6_Tset1_2023-05-31_17h12.40.954.csv,3,40,1,3,z,0,1,2,tac,D,27,1,1D,3D,0,1,z,2.35802960000183,0,1,1,1,3D,1D,D13,3.31418600467253,0.516122865052314,0.5,0.497643408839463,0.5,0.495297924722722,0.509327130940745,0.497643408839463,0.497643408839463,0.497643408839463,0.5,0.51167240762745,0.49064006846927,0.5,0.5,0.48832759237255,0.50935993153073,0.504636567808143,0.495363432191857,0.50935993153073,0.5,0.174661714131731,0.564010129613684,0.49064006846927,0.00231247609671984,0.5,0.00471318232107387,0.9754564218553,12.9091390763294,2.14667869777243,0.5,74.1332940957379
CBC_1002,CBC_1002_MSI_TV_v3_Vset6_Tset1_2023-05-31_17h12.40.954.csv,3,41,0,1,b,1,0,0,tac,A,63,1,0A,1A,1,0,b,1.15649170000142,1,0,1,1,0A,1A,A01,2.23359222150709,0.516122865052314,0.5,0.497643408839463,0.5,0.495297924722722,0.509327130940745,0.497643408839463,0.497643408839463,0.497643408839463,0.5,0.51167240762745,0.49064006846927,0.5,0.5,0.48832759237255,0.51167240762745,0.507933521430739,0.492066478569261,0.516122865052314,0.5,0.286470588723474,0.608313794866857,0.483877134947686,0.00228060115800731,0.5,0.00471318232107387,0.9754564218553,12.9091390763294,2.14667869777243,0.5,74.1332940957379
CBC_1002,CBC_1002_MSI_TV_v3_Vset6_Tset1_2023-05-31_17h12.40.954.csv,3,42,0,2,z,0,1,3,tac,C,27,1,0C,2C,0,1,z,1.51424440000119,0,1,1,1,2C,0C,C02,3.3499040872746,0.518403466210321,0.5,0.497643408839463,0.5,0.495297924722722,0.509327130940745,0.497643408839463,0.497643408839463,0.497643408839463,0.5,0.51167240762745,0.49064006846927,0.5,0.5,0.48832759237255,0.51167240762745,0.506949756735753,0.493050243264247,0.51167240762745,0.497643408839463,0.446510355823796,0.595123528743645,0.48832759237255,0.00230157697526287,0.5,0.00471318232107387,0.9754564218553,12.9091390763294,2.14667869777243,0.5,74.1332940957379
CBC_1002,CBC_1002_MSI_TV_v3_Vset6_Tset1_2023-05-31_17h12.40.954.csv,3,43,3,2,b,1,0,2,tac,D,63,1,3D,2D,1,0,z,2.12938000000031,0,1,0,0,2D,3D,D32,2.67414864942653,0.518403466210321,0.5,0.497643408839463,0.5,0.495297924722722,0.509327130940745,0.497643408839463,0.497643408839463,0.497643408839463,0.5,0.513973984602712,0.49064006846927,0.5,0.5,0.48832759237255,0.51167240762745,0.48832759237255,0.51167240762745,0.48832759237255,0.51167240762745,0.136156691837613,0.343982084284229,-0.48832759237255,-0.00230157697526287,0.5,0.00471318232107387,0.9754564218553,12.9091390763294,2.14667869777243,0.5,74.1332940957379
CBC_1002,CBC_1002_MSI_TV_v3_Vset6_Tset1_2023-05-31_17h12.40.954.csv,3,44,1,0,b,1,0,1,tac,B,63,1,1B,0B,1,0,b,2.59006109999973,1,0,1,1,1B,0B,B10,2.97892515523761,0.518403466210321,0.5,0.497643408839463,0.5,0.495297924722722,0.509327130940745,0.497643408839463,0.497643408839463,0.497643408839463,0.5,0.513973984602712,0.49064006846927,0.5,0.5,0.486026015397288,0.51167240762745,0.506982309538735,0.493017690461265,0.509327130940745,0.495297924722722,0.142710642660198,0.594205264418326,0.490672869059255,0.00231263069188068,0.5,0.00471318232107387,0.9754564218553,12.9091390763294,2.14667869777243,0.5,74.1332940957379
CBC_1002,CBC_1002_MSI_AV_v3_Vset3_Aset1_2023-05-31_17h20.54.856.csv,4,1,1,0,b,1,0,1,aud,B,63,1,1B,0B,1,0,b,2.06224270000166,1,0,1,1,1B,0B,B10,2.77258872223978,0.5,0.5,0.5,0.5,0.5,0.5,0.5,0.5,0.5,0.5,0.5,0.5,0.5,0.5,0.5,0.5,0.5,0.5,0.5,0.5,0.160349597805151,0.500676211497145,0.5,0.140248730598378,0.5,0.280497461196756,0.712324459084629,2.50768970099272,2.13947867417251,0.5,54.4308001368782
CBC_1002,CBC_1002_MSI_AV_v3_Vset3_Aset1_2023-05-31_17h20.54.856.csv,4,2,3,2,b,1,0,2,aud,D,63,1,3D,2D,1,0,z,2.26929200000268,0,1,0,0,2D,3D,D32,2.83321334405622,0.5,0.5,0.5,0.5,0.5,0.640248730598378,0.5,0.5,0.5,0.5,0.5,0.5,0.5,0.5,0.5,0.5,0.5,0.5,0.5,0.5,0.12806453114324,0.49986224995166,-0.5,-0.140248730598378,0.5,0.280497461196756,0.712324459084629,2.50768970099272,2.13947867417251,0.5,54.4308001368782
CBC_1002,CBC_1002_MSI_AV_v3_Vset3_Aset1_2023-05-31_17h20.54.856.csv,4,3,3,1,z,0,1,1,aud,B,27,1,3B,1B,0,1,z,2.39370660000168,0,1,1,1,1B,3B,B31,2.89037175789616,0.5,0.5,0.5,0.5,0.5,0.640248730598378,0.5,0.5,0.5,0.5,0.5,0.5,0.5,0.5,0.359751269401622,0.5,0.561499182956678,0.438500817043322,0.640248730598378,0.5,0.143706292751323,0.65847000864431,0.359751269401622,0.100909317729465,0.5,0.280497461196756,0.712324459084629,2.50768970099272,2.13947867417251,0.5,54.4308001368782
CBC_1002,CBC_1002_MSI_AV_v3_Vset3_Aset1_2023-05-31_17h20.54.856.csv,4,4,2,3,b,1,0,3,aud,C,63,1,2C,3C,1,0,b,1.92940550000276,1,0,1,1,2C,3C,C23,2.94443897916644,0.5,0.5,0.5,0.5,0.5,0.741158048327843,0.5,0.5,0.5,0.5,0.5,0.5,0.5,0.5,0.359751269401622,0.5,0.5,0.5,0.5,0.5,0.184493120854166,0.499227412684925,0.5,0.140248730598378,0.5,0.280497461196756,0.712324459084629,2.50768970099272,2.13947867417251,0.5,54.4308001368782
CBC_1002,CBC_1002_MSI_AV_v3_Vset3_Aset1_2023-05-31_17h20.54.856.csv,4,5,0,2,z,0,1,3,aud,C,27,1,0C,2C,0,1,z,1.5257414000007,0,1,1,1,2C,0C,C02,2.99573227355399,0.5,0.5,0.5,0.5,0.5,0.741158048327843,0.5,0.5,0.5,0.5,0.640248730598378,0.5,0.5,0.5,0.359751269401622,0.5,0.561499182956678,0.438500817043322,0.640248730598378,0.5,0.380981787076288,0.659099722746173,0.359751269401622,0.100909317729465,0.5,0.280497461196756,0.712324459084629,2.50768970099272,2.13947867417251,0.5,54.4308001368782
CBC_1002,CBC_1002_MSI_AV_v3_Vset3_Aset1_2023-05-31_17h20.54.856.csv,4,6,0,3,b,1,0,0,aud,A,9,1,0A,3A,1,0,b,2.04926400000113,1,0,1,1,0A,3A,A03,3.04452243772342,0.5,0.5,0.5,0.5,0.5,0.741158048327843,0.5,0.5,0.5,0.5,0.741158048327843,0.5,0.5,0.5,0.359751269401622,0.5,0.5,0.5,0.5,0.5,0.162559560748559,0.500525493538872,0.5,0.140248730598378,0.5,0.280497461196756,0.712324459084629,2.50768970099272,2.13947867417251,0.5,54.4308001368782
CBC_1002,CBC_1002_MSI_AV_v3_Vset3_Aset1_2023-05-31_17h20.54.856.csv,4,7,2,3,b,1,0,3,aud,C,63,1,2C,3C,1,0,b,1.7898509000006,1,0,1,1,2C,3C,C23,2.39789527279837,0.640248730598378,0.5,0.5,0.5,0.5,0.741158048327843,0.5,0.5,0.5,0.5,0.741158048327843,0.5,0.5,0.5,0.359751269401622,0.5,0.597150418777345,0.402849581222655,0.741158048327843,0.5,0.317968226265619,0.738729086084168,0.258841951672157,0.0726045102952534,0.5,0.280497461196756,0.712324459084629,2.50768970099272,2.13947867417251,0.5,54.4308001368782
CBC_1002,CBC_1002_MSI_AV_v3_Vset3_Aset1_2023-05-31_17h20.54.856.csv,4,8,1,0,z,0,1,0,aud,A,63,1,1A,0A,0,1,z,1.21237880000081,0,1,1,1,0A,1A,A10,3.13549421592915,0.640248730598378,0.5,0.5,0.5,0.5,0.741158048327843,0.5,0.5,0.5,0.5,0.813762558623097,0.5,0.5,0.5,0.359751269401622,0.5,0.561499182956678,0.438500817043322,0.640248730598378,0.5,0.52183801602997,0.6592061434754,0.359751269401622,0.100909317729465,0.5,0.280497461196756,0.712324459084629,2.50768970099272,2.13947867417251,0.5,54.4308001368782
CBC_1002,CBC_1002_MSI_AV_v3_Vset3_Aset1_2023-05-31_17h20.54.856.csv,4,9,2,3,z,0,1,2,aud,D,63,1,2D,3D,0,1,z,1.64772040000025,0,1,1,1,3D,2D,D23,3.17805383034795,0.741158048327843,0.5,0.5,0.5,0.5,0.741158048327843,0.5,0.5,0.5,0.5,0.813762558623097,0.5,0.5,0.5,0.359751269401622,0.5,0.581563549592657,0.418436450407343,0.5,0.359751269401622,0.358315924226882,0.705889948000504,0.5,0.140248730598378,0.5,0.280497461196756,0.712324459084629,2.50768970099272,2.13947867417251,0.5,54.4308001368782
CBC_1002,CBC_1002_MSI_AV_v3_Vset3_Aset1_2023-05-31_17h20.54.856.csv,4,10,3,2,z,0,1,3,aud,C,63,1,3C,2C,0,1,z,1.52079180000146,0,1,1,1,2C,3C,C32,3.2188758248682,0.741158048327843,0.5,0.5,0.5,0.5,0.741158048327843,0.5,0.5,0.5,0.5,0.813762558623097,0.5,0.5,0.5,0.359751269401622,0.640248730598378,0.619413723797982,0.380586276202018,0.813762558623097,0.5,0.470198499089857,0.783007093541405,0.186237441376903,0.0522391294860011,0.5,0.280497461196756,0.712324459084629,2.50768970099272,2.13947867417251,0.5,54.4308001368782
CBC_1002,CBC_1002_MSI_AV_v3_Vset3_Aset1_2023-05-31_17h20.54.856.csv,4,11,3,1,b,1,0,2,aud,D,27,1,3D,1D,1,0,b,2.84143030000087,1,0,1,1,3D,1D,D31,3.25809653802148,0.741158048327843,0.5,0.5,0.5,0.5,0.741158048327843,0.5,0.5,0.5,0.5,0.866001688109098,0.5,0.5,0.5,0.359751269401622,0.640248730598378,0.561499182956678,0.438500817043322,0.640248730598378,0.5,0.0868914454570314,0.659222208942648,0.359751269401622,0.100909317729465,0.5,0.280497461196756,0.712324459084629,2.50768970099272,2.13947867417251,0.5,54.4308001368782
CBC_1002,CBC_1002_MSI_AV_v3_Vset3_Aset1_2023-05-31_17h20.54.856.csv,4,12,0,1,b,1,0,0,aud,A,63,0,0A,1A,0,1,b,0.966707800002041,1,0,1,0,0A,1A,A01,3.29583686600433,0.741158048327843,0.5,0.5,0.5,0.5,0.741158048327843,0.5,0.5,0.5,0.5,0.866001688109098,0.5,0.5,0.5,0.359751269401622,0.741158048327843,0.597150418777345,0.402849581222655,0.741158048327843,0.5,0.5732903733456,0.73932687292049,-0.741158048327843,-0.207892950901503,0.5,0.280497461196756,0.712324459084629,2.50768970099272,2.13947867417251,0.5,54.4308001368782
CBC_1002,CBC_1002_MSI_AV_v3_Vset3_Aset1_2023-05-31_17h20.54.856.csv,4,13,3,2,z,0,1,3,aud,C,63,1,3C,2C,0,1,z,1.46798470000067,0,1,1,1,2C,3C,C32,2.63905732961526,0.53326509742634,0.5,0.5,0.5,0.5,0.741158048327843,0.5,0.5,0.5,0.5,0.866001688109098,0.5,0.5,0.5,0.359751269401622,0.741158048327843,0.633968241509181,0.366031758490819,0.866001688109098,0.5,0.52411745977563,0.808824555940297,0.133998311890902,0.0375861862900492,0.5,0.280497461196756,0.712324459084629,2.50768970099272,2.13947867417251,0.5,54.4308001368782
CBC_1002,CBC_1002_MSI_AV_v3_Vset3_Aset1_2023-05-31_17h20.54.856.csv,4,14,2,0,z,0,1,0,aud,A,27,1,2A,0A,0,1,z,1.39500660000158,0,1,1,1,0A,2A,A20,3.36729582998647,0.53326509742634,0.5,0.5,0.5,0.5,0.741158048327843,0.5,0.5,0.5,0.5,0.903587874399147,0.5,0.5,0.5,0.359751269401622,0.741158048327843,0.516097077850204,0.483902922149796,0.53326509742634,0.5,0.354663345253208,0.543081593178567,0.46673490257366,0.130917955223827,0.5,0.280497461196756,0.712324459084629,2.50768970099272,2.13947867417251,0.5,54.4308001368782
CBC_1002,CBC_1002_MSI_AV_v3_Vset3_Aset1_2023-05-31_17h20.54.856.csv,4,15,1,0,b,1,0,1,aud,B,63,1,1B,0B,1,0,b,1.74498110000059,1,0,1,1,1B,0B,B10,2.70805020110221,0.664183052650167,0.5,0.5,0.5,0.5,0.741158048327843,0.5,0.5,0.5,0.5,0.903587874399147,0.5,0.5,0.5,0.359751269401622,0.741158048327843,0.597150418777345,0.402849581222655,0.741158048327843,0.5,0.335360876522389,0.738524047568482,0.258841951672157,0.0726045102952534,0.5,0.280497461196756,0.712324459084629,2.50768970099272,2.13947867417251,0.5,54.4308001368782
CBC_1002,CBC_1002_MSI_AV_v3_Vset3_Aset1_2023-05-31_17h20.54.856.csv,4,16,2,3,z,0,1,2,aud,D,63,1,2D,3D,0,1,z,1.77753130000201,0,1,1,1,3D,2D,D23,2.7408400239252,0.664183052650167,0.5,0.5,0.5,0.5,0.813762558623097,0.5,0.5,0.5,0.5,0.903587874399147,0.5,0.5,0.5,0.359751269401622,0.741158048327843,0.673223522039418,0.326776477960582,0.741158048327843,0.359751269401622,0.368748826445439,0.865283504408061,0.258841951672157,0.0726045102952534,0.5,0.280497461196756,0.712324459084629,2.50768970099272,2.13947867417251,0.5,54.4308001368782
CBC_1002,CBC_1002_MSI_AV_v3_Vset3_Aset1_2023-05-31_17h20.54.856.csv,4,17,2,1,z,0,1,1,aud,B,9,1,2B,1B,0,1,z,0.965315300001748,0,1,1,1,1B,2B,B21,3.46573590279973,0.664183052650167,0.5,0.5,0.5,0.5,0.813762558623097,0.5,0.5,0.5,0.5,0.903587874399147,0.5,0.5,0.5,0.359751269401622,0.813762558623097,0.619413723797982,0.380586276202018,0.813762558623097,0.5,0.633105004078047,0.782333384532189,0.186237441376903,0.0522391294860011,0.5,0.280497461196756,0.712324459084629,2.50768970099272,2.13947867417251,0.5,54.4308001368782
CBC_1002,CBC_1002_MSI_AV_v3_Vset3_Aset1_2023-05-31_17h20.54.856.csv,4,18,3,1,b,1,0,2,aud,D,27,1,3D,1D,1,0,b,1.39662040000076,1,0,1,1,3D,1D,D31,2.80336038090653,0.664183052650167,0.5,0.5,0.5,0.5,0.866001688109098,0.5,0.5,0.5,0.5,0.903587874399147,0.5,0.5,0.5,0.359751269401622,0.813762558623097,0.619413723797982,0.380586276202018,0.813762558623097,0.5,0.546508207700935,0.782793194057768,0.186237441376903,0.0522391294860011,0.5,0.280497461196756,0.712324459084629,2.50768970099272,2.13947867417251,0.5,54.4308001368782
CBC_1002,CBC_1002_MSI_AV_v3_Vset3_Aset1_2023-05-31_17h20.54.856.csv,4,19,1,0,z,0,1,0,aud,A,63,1,1A,0A,0,1,z,1.49231930000133,0,1,1,1,0A,1A,A10,2.83321334405622,0.664183052650167,0.5,0.5,0.5,0.5,0.866001688109098,0.5,0.5,0.5,0.5,0.903587874399147,0.5,0.5,0.5,0.359751269401622,0.866001688109098,0.570514277061678,0.429485722938322,0.664183052650167,0.5,0.410083786474858,0.680601027220101,0.335816947349833,0.0941958011584729,0.5,0.280497461196756,0.712324459084629,2.50768970099272,2.13947867417251,0.5,54.4308001368782
CBC_1002,CBC_1002_MSI_AV_v3_Vset3_Aset1_2023-05-31_17h20.54.856.csv,4,20,0,1,b,1,0,0,aud,A,63,1,0A,1A,1,0,b,1.41829510000207,1,0,1,1,0A,1A,A01,2.86220088092947,0.75837885380864,0.5,0.5,0.5,0.5,0.866001688109098,0.5,0.5,0.5,0.5,0.903587874399147,0.5,0.5,0.5,0.359751269401622,0.866001688109098,0.602663380359033,0.397336619640967,0.75837885380864,0.5,0.503898346346557,0.751535471770421,0.24162114619136,0.0677741180781267,0.5,0.280497461196756,0.712324459084629,2.50768970099272,2.13947867417251,0.5,54.4308001368782
CBC_1002,CBC_1002_MSI_AV_v3_Vset3_Aset1_2023-05-31_17h20.54.856.csv,4,21,0,2,z,0,1,3,aud,C,27,1,0C,2C,0,1,z,1.06797990000086,0,1,1,1,2C,0C,C02,2.89037175789616,0.826152971886767,0.5,0.5,0.5,0.5,0.866001688109098,0.5,0.5,0.5,0.5,0.903587874399147,0.5,0.5,0.5,0.359751269401622,0.866001688109098,0.643770077299904,0.356229922700096,0.903587874399147,0.5,0.792800340614898,0.823301278893669,0.0964121256008529,0.027043356459622,0.5,0.280497461196756,0.712324459084629,2.50768970099272,2.13947867417251,0.5,54.4308001368782
CBC_1002,CBC_1002_MSI_AV_v3_Vset3_Aset1_2023-05-31_17h20.54.856.csv,4,22,1,0,b,1,0,1,aud,B,63,1,1B,0B,1,0,b,1.26208210000186,1,0,1,1,1B,0B,B10,2.51230562397611,0.826152971886767,0.5,0.5,0.5,0.5,0.866001688109098,0.5,0.5,0.5,0.5,0.930631230858769,0.5,0.5,0.5,0.359751269401622,0.866001688109098,0.633968241509181,0.366031758490819,0.866001688109098,0.5,0.669449028723157,0.807898612511665,0.133998311890902,0.0375861862900492,0.5,0.280497461196756,0.712324459084629,2.50768970099272,2.13947867417251,0.5,54.4308001368782
CBC_1002,CBC_1002_MSI_AV_v3_Vset3_Aset1_2023-05-31_17h20.54.856.csv,4,23,0,2,z,0,1,3,aud,C,27,1,0C,2C,0,1,z,2.0010054000013,0,1,1,1,2C,0C,C02,2.53897387105828,0.826152971886767,0.5,0.5,0.5,0.5,0.903587874399147,0.5,0.5,0.5,0.5,0.930631230858769,0.5,0.5,0.5,0.359751269401622,0.866001688109098,0.650503924970334,0.349496075029666,0.930631230858769,0.5,0.265706348632833,0.834216774431741,0.0693687691412308,0.0194577636304591,0.5,0.280497461196756,0.712324459084629,2.50768970099272,2.13947867417251,0.5,54.4308001368782
CBC_1002,CBC_1002_MSI_AV_v3_Vset3_Aset1_2023-05-31_17h20.54.856.csv,4,24,2,3,z,0,1,2,aud,D,63,1,2D,3D,0,1,z,1.60683930000232,0,1,1,1,3D,2D,D23,2.56494935746154,0.826152971886767,0.5,0.5,0.5,0.5,0.903587874399147,0.5,0.5,0.5,0.5,0.950088994489228,0.5,0.5,0.5,0.359751269401622,0.866001688109098,0.70650589321668,0.29349410678332,0.866001688109098,0.359751269401622,0.489664997912541,0.901528957112284,0.133998311890902,0.0375861862900492,0.5,0.280497461196756,0.712324459084629,2.50768970099272,2.13947867417251,0.5,54.4308001368782
CBC_1002,CBC_1002_MSI_AV_v3_Vset3_Aset1_2023-05-31_17h20.54.856.csv,4,25,0,1,b,1,0,0,aud,A,63,1,0A,1A,1,0,b,1.27605740000217,1,0,1,1,0A,1A,A01,2.59026716544583,0.826152971886767,0.5,0.5,0.5,0.5,0.903587874399147,0.5,0.5,0.5,0.5,0.950088994489228,0.5,0.5,0.5,0.359751269401622,0.903587874399147,0.622969589029664,0.377030410970336,0.826152971886767,0.5,0.634157900695095,0.788915335027911,0.173847028113233,0.048763650022363,0.5,0.280497461196756,0.712324459084629,2.50768970099272,2.13947867417251,0.5,54.4308001368782
CBC_1002,CBC_1002_MSI_AV_v3_Vset3_Aset1_2023-05-31_17h20.54.856.csv,4,26,2,3,b,1,0,3,aud,C,63,1,2C,3C,1,0,z,2.19240080000236,0,1,0,0,3C,2C,C23,2.6149597780362,0.87491662190913,0.5,0.5,0.5,0.5,0.903587874399147,0.5,0.5,0.5,0.5,0.950088994489228,0.5,0.5,0.5,0.359751269401622,0.903587874399147,0.344806423536865,0.655193576463135,0.5,0.950088994489228,0.0388284174960473,0.159627164828234,-0.5,-0.140248730598378,0.5,0.280497461196756,0.712324459084629,2.50768970099272,2.13947867417251,0.5,54.4308001368782
CBC_1002,CBC_1002_MSI_AV_v3_Vset3_Aset1_2023-05-31_17h20.54.856.csv,4,27,0,2,b,1,0,0,aud,A,27,1,0A,2A,NaN,NaN,[],NaN,NaN,NaN,NaN,NaN,,,A02,3.73766961828337,0.87491662190913,0.5,0.5,0.5,0.5,0.903587874399147,0.5,0.5,0.5,0.5,0.950088994489228,0.359751269401622,0.5,0.5,0.359751269401622,0.903587874399147,0,0,0,0,NaN,0,0,0,0.5,0.280497461196756,0.712324459084629,2.50768970099272,2.13947867417251,0.5,54.4308001368782
CBC_1002,CBC_1002_MSI_AV_v3_Vset3_Aset1_2023-05-31_17h20.54.856.csv,4,28,2,3,z,0,1,2,aud,D,63,1,2D,3D,0,1,b,1.57250550000208,1,0,0,0,2D,3D,D23,2.37490575457367,0.87491662190913,0.5,0.5,0.5,0.5,0.903587874399147,0.5,0.5,0.5,0.5,0.950088994489228,0.359751269401622,0.5,0.5,0.359751269401622,0.903587874399147,0.284762228073854,0.715237771926146,0.359751269401622,0.903587874399147,0.0516559670957952,0.0901906861665037,-0.359751269401622,-0.100909317729465,0.5,0.280497461196756,0.712324459084629,2.50768970099272,2.13947867417251,0.5,54.4308001368782
CBC_1002,CBC_1002_MSI_AV_v3_Vset3_Aset1_2023-05-31_17h20.54.856.csv,4,29,2,3,z,0,1,2,aud,D,63,1,2D,3D,0,1,z,1.45840460000181,0,1,1,1,3D,2D,D23,2.17475172148416,0.87491662190913,0.5,0.5,0.5,0.5,0.903587874399147,0.5,0.5,0.5,0.5,0.950088994489228,0.359751269401622,0.5,0.5,0.258841951672157,0.903587874399147,0.777326815032808,0.222673184967192,0.903587874399147,0.258841951672157,0.657462538302499,0.951396774043812,0.0964121256008529,0.027043356459622,0.5,0.280497461196756,0.712324459084629,2.50768970099272,2.13947867417251,0.5,54.4308001368782
CBC_1002,CBC_1002_MSI_AV_v3_Vset3_Aset1_2023-05-31_17h20.54.856.csv,4,30,1,3,b,1,0,1,aud,B,27,1,1B,3B,1,0,b,1.08434410000154,1,0,1,1,1B,3B,B13,3.80666248977032,0.87491662190913,0.5,0.5,0.5,0.5,0.903587874399147,0.5,0.5,0.5,0.5,0.950088994489228,0.359751269401622,0.5,0.5,0.258841951672157,0.930631230858769,0.643770077299904,0.356229922700096,0.903587874399147,0.5,0.792542265709368,0.823543168885922,0.0964121256008529,0.027043356459622,0.5,0.280497461196756,0.712324459084629,2.50768970099272,2.13947867417251,0.5,54.4308001368782
CBC_1002,CBC_1002_MSI_AV_v3_Vset3_Aset1_2023-05-31_17h20.54.856.csv,4,31,3,0,b,1,0,2,aud,D,9,1,3D,0D,1,0,b,1.47672850000163,1,0,1,1,3D,0D,D30,3.8286413964891,0.87491662190913,0.5,0.5,0.5,0.5,0.930631230858769,0.5,0.5,0.5,0.5,0.950088994489228,0.359751269401622,0.5,0.5,0.258841951672157,0.930631230858769,0.650503924970334,0.349496075029666,0.930631230858769,0.5,0.540750723575849,0.834160304078539,0.0693687691412308,0.0194577636304591,0.5,0.280497461196756,0.712324459084629,2.50768970099272,2.13947867417251,0.5,54.4308001368782
CBC_1002,CBC_1002_MSI_AV_v3_Vset3_Aset1_2023-05-31_17h20.54.856.csv,4,32,0,1,z,0,1,1,aud,B,63,1,0B,1B,0,1,z,0.911637800001699,0,1,1,1,1B,0B,B01,3.85014760171006,0.87491662190913,0.5,0.5,0.5,0.5,0.930631230858769,0.5,0.5,0.5,0.5,0.950088994489228,0.359751269401622,0.5,0.5,0.258841951672157,0.950088994489228,0.650503924970334,0.349496075029666,0.930631230858769,0.5,0.575839952784735,0.834194312984358,0.0693687691412308,0.0194577636304591,0.5,0.280497461196756,0.712324459084629,2.50768970099272,2.13947867417251,0.5,54.4308001368782
CBC_1002,CBC_1002_MSI_AV_v3_Vset3_Aset1_2023-05-31_17h20.54.856.csv,4,33,0,1,b,1,0,0,aud,A,63,1,0A,1A,1,0,b,1.71929079999973,1,0,1,1,0A,1A,A01,2.484906649788,0.87491662190913,0.5,0.5,0.5,0.5,0.950088994489228,0.5,0.5,0.5,0.5,0.950088994489228,0.359751269401622,0.5,0.5,0.258841951672157,0.950088994489228,0.636341584622252,0.363658415377748,0.87491662190913,0.5,0.380431958755965,0.811973297789895,0.12508337809087,0.035085569992403,0.5,0.280497461196756,0.712324459084629,2.50768970099272,2.13947867417251,0.5,54.4308001368782
CBC_1002,CBC_1002_MSI_AV_v3_Vset3_Aset1_2023-05-31_17h20.54.856.csv,4,34,1,0,z,0,1,0,aud,A,63,1,1A,0A,0,1,b,1.15117450000071,1,0,0,0,1A,0A,A10,2.79320800944252,0.910002191901533,0.5,0.5,0.5,0.5,0.950088994489228,0.5,0.5,0.5,0.5,0.950088994489228,0.359751269401622,0.5,0.5,0.258841951672157,0.950088994489228,0.354609377823519,0.645390622176481,0.5,0.910002191901533,0.162697646585831,0.173825639014231,-0.5,-0.140248730598378,0.5,0.280497461196756,0.712324459084629,2.50768970099272,2.13947867417251,0.5,54.4308001368782
CBC_1002,CBC_1002_MSI_AV_v3_Vset3_Aset1_2023-05-31_17h20.54.856.csv,4,35,2,3,b,1,0,3,aud,C,63,1,2C,3C,1,0,b,2.5890627000008,1,0,1,1,2C,3C,C23,2.52572864430826,0.910002191901533,0.359751269401622,0.5,0.5,0.5,0.950088994489228,0.5,0.5,0.5,0.5,0.950088994489228,0.359751269401622,0.5,0.5,0.258841951672157,0.950088994489228,0.725347220329761,0.274652779670239,0.950088994489228,0.359751269401622,0.0915760087014736,0.918390171048222,0.0499110055107717,0.0139999103315488,0.5,0.280497461196756,0.712324459084629,2.50768970099272,2.13947867417251,0.5,54.4308001368782
CBC_1002,CBC_1002_MSI_AV_v3_Vset3_Aset1_2023-05-31_17h20.54.856.csv,4,36,2,0,z,0,1,0,aud,A,27,1,2A,0A,0,1,b,1.76207000000068,1,0,0,0,2A,0A,A20,3.23867845216438,0.910002191901533,0.359751269401622,0.5,0.5,0.5,0.950088994489228,0.5,0.5,0.5,0.5,0.964088904820777,0.359751269401622,0.5,0.5,0.258841951672157,0.950088994489228,0.354609377823519,0.645390622176481,0.5,0.910002191901533,0.0766766956081996,0.173539355282741,-0.5,-0.140248730598378,0.5,0.280497461196756,0.712324459084629,2.50768970099272,2.13947867417251,0.5,54.4308001368782
CBC_1002,CBC_1002_MSI_AV_v3_Vset3_Aset1_2023-05-31_17h20.54.856.csv,4,37,0,1,z,0,1,1,aud,B,63,1,0B,1B,0,1,z,0.876148299999841,0,1,1,1,1B,0B,B01,3.25809653802148,0.910002191901533,0.359751269401622,0.359751269401622,0.5,0.5,0.950088994489228,0.5,0.5,0.5,0.5,0.964088904820777,0.359751269401622,0.5,0.5,0.258841951672157,0.950088994489228,0.655193576463135,0.344806423536865,0.950088994489228,0.5,0.428194723510355,0.840789466007685,0.0499110055107717,0.0139999103315488,0.5,0.280497461196756,0.712324459084629,2.50768970099272,2.13947867417251,0.5,54.4308001368782
CBC_1002,CBC_1002_MSI_AV_v3_Vset3_Aset1_2023-05-31_17h20.54.856.csv,4,38,1,3,b,1,0,1,aud,B,27,1,1B,3B,1,0,b,0.853302500001519,1,0,1,1,1B,3B,B13,3.27714473299218,0.910002191901533,0.359751269401622,0.359751269401622,0.5,0.5,0.964088904820777,0.5,0.5,0.5,0.5,0.964088904820777,0.359751269401622,0.5,0.5,0.258841951672157,0.950088994489228,0.658490684306356,0.341509315693644,0.964088904820777,0.5,0.312323601588405,0.846166655701313,0.0359110951792229,0.0100729710265671,0.5,0.280497461196756,0.712324459084629,2.50768970099272,2.13947867417251,0.5,54.4308001368782
CBC_1002,CBC_1002_MSI_AV_v3_Vset3_Aset1_2023-05-31_17h20.54.856.csv,4,39,2,3,b,1,0,3,aud,C,63,1,2C,3C,1,0,b,3.08147140000074,1,0,1,1,2C,3C,C23,2.37954613413017,0.910002191901533,0.359751269401622,0.359751269401622,0.5,0.5,0.974161875847344,0.5,0.5,0.5,0.5,0.964088904820777,0.359751269401622,0.5,0.5,0.258841951672157,0.950088994489228,0.728251735816271,0.271748264183729,0.964088904820777,0.359751269401622,0.0385197723274473,0.920338196883806,0.0359110951792229,0.0100729710265671,0.5,0.280497461196756,0.712324459084629,2.50768970099272,2.13947867417251,0.5,54.4308001368782
CBC_1002,CBC_1002_MSI_AV_v3_Vset3_Aset1_2023-05-31_17h20.54.856.csv,4,40,1,3,z,0,1,2,aud,D,27,1,1D,3D,0,1,z,1.67193630000111,0,1,1,1,3D,1D,D13,4.00733318523247,0.910002191901533,0.359751269401622,0.359751269401622,0.5,0.5,0.974161875847344,0.5,0.5,0.5,0.5,0.974161875847344,0.359751269401622,0.5,0.5,0.258841951672157,0.950088994489228,0.655193576463135,0.344806423536865,0.950088994489228,0.5,0.419107813885427,0.841053903738433,0.0499110055107717,0.0139999103315488,0.5,0.280497461196756,0.712324459084629,2.50768970099272,2.13947867417251,0.5,54.4308001368782
CBC_1002,CBC_1002_MSI_AV_v3_Vset3_Aset1_2023-05-31_17h20.54.856.csv,4,41,2,1,b,1,0,3,aud,C,9,1,2C,1C,1,0,b,2.20464370000082,1,0,1,1,2C,1C,C21,4.02535169073515,0.910002191901533,0.359751269401622,0.359751269401622,0.5,0.5,0.974161875847344,0.5,0.5,0.5,0.5,0.974161875847344,0.359751269401622,0.5,0.5,0.258841951672157,0.964088904820777,0.660824222772278,0.339175777227722,0.974161875847344,0.5,0.200316202240383,0.848869296335925,0.0258381241526557,0.00724752822690653,0.5,0.280497461196756,0.712324459084629,2.50768970099272,2.13947867417251,0.5,54.4308001368782
CBC_1002,CBC_1002_MSI_AV_v3_Vset3_Aset1_2023-05-31_17h20.54.856.csv,4,42,1,0,b,1,0,1,aud,B,63,0,1B,0B,0,1,b,3.10125650000191,1,0,1,0,1B,0B,B10,2.65675690671466,0.910002191901533,0.359751269401622,0.359751269401622,0.5,0.5,0.974161875847344,0.5,0.5,0.5,0.5,0.981409404074251,0.359751269401622,0.5,0.5,0.258841951672157,0.964088904820777,0.660824222772278,0.339175777227722,0.974161875847344,0.5,0.057051197353058,0.848109250527514,-0.974161875847344,-0.27324993296985,0.5,0.280497461196756,0.712324459084629,2.50768970099272,2.13947867417251,0.5,54.4308001368782
CBC_1002,CBC_1002_MSI_AV_v3_Vset3_Aset1_2023-05-31_17h20.54.856.csv,4,43,2,3,z,0,1,2,aud,D,63,1,2D,3D,0,1,z,1.80477750000136,0,1,1,1,3D,2D,D23,2.26868354131836,0.910002191901533,0.359751269401622,0.359751269401622,0.5,0.5,0.700911942877494,0.5,0.5,0.5,0.5,0.981409404074251,0.359751269401622,0.5,0.5,0.258841951672157,0.964088904820777,0.788342938361657,0.211657061638343,0.964088904820777,0.258841951672157,0.316739531678488,0.956632958726083,0.0359110951792229,0.0100729710265671,0.5,0.280497461196756,0.712324459084629,2.50768970099272,2.13947867417251,0.5,54.4308001368782
CBC_1002,CBC_1002_MSI_AV_v3_Vset3_Aset1_2023-05-31_17h20.54.856.csv,4,44,0,1,z,0,1,1,aud,B,63,1,0B,1B,0,1,z,1.12610360000144,0,1,1,1,1B,0B,B01,2.97892515523761,0.910002191901533,0.359751269401622,0.359751269401622,0.5,0.5,0.700911942877494,0.5,0.5,0.5,0.5,0.981409404074251,0.359751269401622,0.5,0.5,0.258841951672157,0.974161875847344,0.583649739712011,0.41635026028799,0.700911942877494,0.5,0.606870001898076,0.709918019759919,0.299088057122506,0.0838934406971333,0.5,0.280497461196756,0.712324459084629,2.50768970099272,2.13947867417251,0.5,54.4308001368782
