ID,filename,session,trial,visStimLeft,visStimRight,correctKey,leftCorrect,rightCorrect,secondStim,mod2Type,mod2Stim,frequency,rewardAccurate,stimPairLeft,stimPairRight,pCorrectLeft,pCorrectRight,key,reactionTime,choiceLeft,choiceRight,choiceAccurate,reward,chosenPair,otherPair,triplet,surprise,0A belief,1A belief,2A belief,3A belief,0B belief,1B belief,2B belief,3B belief,0C belief,1C belief,2C belief,3C belief,0D belief,1D belief,2D belief,3D belief,beliefPairNorm,beliefOtherPairNorm,beliefPair,beliefOtherPair,lik,corrLik,rewardPE,update2,fitCBCsimpleRW_CBCdriftDiffusionLR_pwBelief_startBelief,fitCBCsimpleRW_CBCdriftDiffusionLR_pwBelief_alpha1,fitCBCsimpleRW_CBCdriftDiffusionLR_pwBelief_nonDecisionTime,fitCBCsimpleRW_CBCdriftDiffusionLR_pwBelief_weight,fitCBCsimpleRW_CBCdriftDiffusionLR_pwBelief_startingBoundary,fitCBCsimpleRW_CBCdriftDiffusionLR_pwBelief_startingPoint,fit_CBCsimpleRW_CBCdriftDiffusionLR_pwBelief_NLL
CBC_1002,CBC_1002_MSI_TV_v3_Vset1_Tset3_2023-05-31_16h13.57.205.csv,1,1,0,1,z,0,1,1,tac,B,63,1,0B,1B,0,1,b,2.58153660000062,1,0,0,0,0B,1B,B01,2.77258872223978,0.5,0.5,0.5,0.5,0.5,0.5,0.5,0.5,0.5,0.5,0.5,0.5,0.5,0.5,0.5,0.5,0.5,0.5,0.5,0.5,0.155650980468699,0.499474471249611,-0.5,-0.113854830069953,0.5,0.227709660139905,1.09211102808727,0.643233465164844,2.87545250406917,0.5,70.1705158482667
CBC_1002,CBC_1002_MSI_TV_v3_Vset1_Tset3_2023-05-31_16h13.57.205.csv,1,2,0,1,b,1,0,0,tac,A,63,1,0A,1A,1,0,b,2.40994879999926,1,0,1,1,0A,1A,A01,2.83321334405622,0.5,0.5,0.5,0.5,0.386145169930047,0.5,0.5,0.5,0.5,0.5,0.5,0.5,0.5,0.5,0.5,0.5,0.5,0.5,0.5,0.5,0.172326441769604,0.500715199297676,0.5,0.113854830069953,0.5,0.227709660139905,1.09211102808727,0.643233465164844,2.87545250406917,0.5,70.1705158482667
CBC_1002,CBC_1002_MSI_TV_v3_Vset1_Tset3_2023-05-31_16h13.57.205.csv,1,3,2,3,z,0,1,2,tac,D,63,1,2D,3D,0,1,b,2.45501220000006,1,0,0,0,2D,3D,D23,2.89037175789616,0.613854830069952,0.5,0.5,0.5,0.386145169930047,0.5,0.5,0.5,0.5,0.5,0.5,0.5,0.5,0.5,0.5,0.5,0.5,0.5,0.5,0.5,0.167553948662157,0.49958012232073,-0.5,-0.113854830069953,0.5,0.227709660139905,1.09211102808727,0.643233465164844,2.87545250406917,0.5,70.1705158482667
CBC_1002,CBC_1002_MSI_TV_v3_Vset1_Tset3_2023-05-31_16h13.57.205.csv,1,4,2,1,z,0,1,1,tac,B,9,1,2B,1B,0,1,b,2.65311859999929,1,0,0,0,2B,1B,B21,2.94443897916644,0.613854830069952,0.5,0.5,0.5,0.386145169930047,0.5,0.5,0.5,0.5,0.5,0.5,0.5,0.5,0.5,0.386145169930047,0.5,0.5,0.5,0.5,0.5,0.149195402341931,0.499301535515632,-0.5,-0.113854830069953,0.5,0.227709660139905,1.09211102808727,0.643233465164844,2.87545250406917,0.5,70.1705158482667
CBC_1002,CBC_1002_MSI_TV_v3_Vset1_Tset3_2023-05-31_16h13.57.205.csv,1,5,0,2,b,1,0,0,tac,A,27,1,0A,2A,1,0,z,2.98528799999985,0,1,0,0,2A,0A,A02,2.99573227355399,0.613854830069952,0.5,0.5,0.5,0.386145169930047,0.5,0.386145169930047,0.5,0.5,0.5,0.5,0.5,0.5,0.5,0.386145169930047,0.5,0.386145169930048,0.613854830069952,0.5,0.613854830069952,0.0971280478652867,0.39508977147886,-0.5,-0.113854830069953,0.5,0.227709660139905,1.09211102808727,0.643233465164844,2.87545250406917,0.5,70.1705158482667
CBC_1002,CBC_1002_MSI_TV_v3_Vset1_Tset3_2023-05-31_16h13.57.205.csv,1,6,2,3,b,1,0,3,tac,C,63,1,2C,3C,1,0,b,2.36420339999859,1,0,1,1,2C,3C,C23,3.04452243772342,0.613854830069952,0.5,0.386145169930047,0.5,0.386145169930047,0.5,0.386145169930047,0.5,0.5,0.5,0.5,0.5,0.5,0.5,0.386145169930047,0.5,0.5,0.5,0.5,0.5,0.176543219152032,0.499832950310173,0.5,0.113854830069953,0.5,0.227709660139905,1.09211102808727,0.643233465164844,2.87545250406917,0.5,70.1705158482667
CBC_1002,CBC_1002_MSI_TV_v3_Vset1_Tset3_2023-05-31_16h13.57.205.csv,1,7,1,3,z,0,1,2,tac,D,27,1,1D,3D,0,1,z,2.6095338999985,0,1,1,1,3D,1D,D13,3.09104245335832,0.613854830069952,0.5,0.386145169930047,0.5,0.386145169930047,0.5,0.386145169930047,0.5,0.5,0.5,0.613854830069952,0.5,0.5,0.5,0.386145169930047,0.5,0.5,0.5,0.5,0.5,0.153500181882002,0.500718936774843,0.5,0.113854830069953,0.5,0.227709660139905,1.09211102808727,0.643233465164844,2.87545250406917,0.5,70.1705158482667
CBC_1002,CBC_1002_MSI_TV_v3_Vset1_Tset3_2023-05-31_16h13.57.205.csv,1,8,1,0,z,0,1,0,tac,A,63,1,1A,0A,0,1,z,2.80132349999985,0,1,1,1,0A,1A,A10,3.13549421592915,0.613854830069952,0.5,0.386145169930047,0.5,0.386145169930047,0.5,0.386145169930047,0.5,0.5,0.5,0.613854830069952,0.5,0.5,0.5,0.386145169930047,0.613854830069952,0.613854830069952,0.386145169930048,0.613854830069952,0.5,0.165936560488216,0.60392084411471,0.386145169930048,0.087928985409437,0.5,0.227709660139905,1.09211102808727,0.643233465164844,2.87545250406917,0.5,70.1705158482667
CBC_1002,CBC_1002_MSI_TV_v3_Vset1_Tset3_2023-05-31_16h13.57.205.csv,1,9,2,0,b,1,0,3,tac,C,27,1,2C,0C,1,0,b,2.95145339999908,1,0,1,1,2C,0C,C20,3.17805383034795,0.701783815479389,0.5,0.386145169930047,0.5,0.386145169930047,0.5,0.386145169930047,0.5,0.5,0.5,0.613854830069952,0.5,0.5,0.5,0.386145169930047,0.613854830069952,0.613854830069952,0.386145169930048,0.613854830069952,0.5,0.151531752816736,0.603903044497689,0.386145169930048,0.087928985409437,0.5,0.227709660139905,1.09211102808727,0.643233465164844,2.87545250406917,0.5,70.1705158482667
CBC_1002,CBC_1002_MSI_TV_v3_Vset1_Tset3_2023-05-31_16h13.57.205.csv,1,10,2,3,z,0,1,2,tac,D,63,1,2D,3D,0,1,z,2.39397349999854,0,1,1,1,3D,2D,D23,2.52572864430826,0.701783815479389,0.5,0.386145169930047,0.5,0.386145169930047,0.5,0.386145169930047,0.5,0.5,0.5,0.701783815479389,0.5,0.5,0.5,0.386145169930047,0.613854830069952,0.716484569499424,0.283515430500576,0.613854830069952,0.386145169930047,0.246156841103757,0.689574799521958,0.386145169930048,0.087928985409437,0.5,0.227709660139905,1.09211102808727,0.643233465164844,2.87545250406917,0.5,70.1705158482667
CBC_1002,CBC_1002_MSI_TV_v3_Vset1_Tset3_2023-05-31_16h13.57.205.csv,1,11,1,0,b,1,0,1,tac,B,63,1,1B,0B,1,0,b,2.47295920000033,1,0,1,1,1B,0B,B10,3.25809653802148,0.701783815479389,0.5,0.386145169930047,0.5,0.386145169930047,0.5,0.386145169930047,0.5,0.5,0.5,0.701783815479389,0.5,0.5,0.5,0.386145169930047,0.701783815479389,0.613854830069952,0.386145169930048,0.5,0.386145169930047,0.201751606320431,0.603463278942674,0.5,0.113854830069953,0.5,0.227709660139905,1.09211102808727,0.643233465164844,2.87545250406917,0.5,70.1705158482667
CBC_1002,CBC_1002_MSI_TV_v3_Vset1_Tset3_2023-05-31_16h13.57.205.csv,1,12,0,1,b,1,0,0,tac,A,63,1,0A,1A,1,0,b,2.47499040000002,1,0,1,1,0A,1A,A01,2.60268968544438,0.701783815479389,0.5,0.386145169930047,0.5,0.386145169930047,0.613854830069952,0.386145169930047,0.5,0.5,0.5,0.701783815479389,0.5,0.5,0.5,0.386145169930047,0.701783815479389,0.701783815479389,0.298216184520611,0.701783815479389,0.5,0.229799795804347,0.678374593646098,0.298216184520611,0.0679067060254074,0.5,0.227709660139905,1.09211102808727,0.643233465164844,2.87545250406917,0.5,70.1705158482667
CBC_1002,CBC_1002_MSI_TV_v3_Vset1_Tset3_2023-05-31_16h13.57.205.csv,1,13,2,3,z,0,1,2,tac,D,63,1,2D,3D,0,1,z,3.38595069999974,0,1,1,1,3D,2D,D23,2.23359222150709,0.769690521504797,0.5,0.386145169930047,0.5,0.386145169930047,0.613854830069952,0.386145169930047,0.5,0.5,0.5,0.701783815479389,0.5,0.5,0.5,0.386145169930047,0.701783815479389,0.789073843876409,0.210926156123591,0.701783815479389,0.386145169930047,0.140772079891603,0.744594005444328,0.298216184520611,0.0679067060254074,0.5,0.227709660139905,1.09211102808727,0.643233465164844,2.87545250406917,0.5,70.1705158482667
CBC_1002,CBC_1002_MSI_TV_v3_Vset1_Tset3_2023-05-31_16h13.57.205.csv,1,14,2,0,b,1,0,3,tac,C,27,1,2C,0C,1,0,z,2.93335639999896,0,1,0,0,0C,2C,C20,2.67414864942653,0.769690521504797,0.5,0.386145169930047,0.5,0.386145169930047,0.613854830069952,0.386145169930047,0.5,0.5,0.5,0.701783815479389,0.5,0.5,0.5,0.386145169930047,0.769690521504797,0.298216184520611,0.701783815479389,0.5,0.701783815479389,0.0819321750906422,0.321750977478643,-0.5,-0.113854830069953,0.5,0.227709660139905,1.09211102808727,0.643233465164844,2.87545250406917,0.5,70.1705158482667
CBC_1002,CBC_1002_MSI_TV_v3_Vset1_Tset3_2023-05-31_16h13.57.205.csv,1,15,0,1,b,1,0,0,tac,A,63,1,0A,1A,1,0,b,2.70705939999789,1,0,1,1,0A,1A,A01,2.30258509299405,0.769690521504797,0.5,0.386145169930047,0.5,0.386145169930047,0.613854830069952,0.386145169930047,0.5,0.386145169930047,0.5,0.701783815479389,0.5,0.5,0.5,0.386145169930047,0.769690521504797,0.769690521504797,0.230309478495203,0.769690521504797,0.5,0.216323951607072,0.730788266514886,0.230309478495203,0.0524436930751415,0.5,0.227709660139905,1.09211102808727,0.643233465164844,2.87545250406917,0.5,70.1705158482667
CBC_1002,CBC_1002_MSI_TV_v3_Vset1_Tset3_2023-05-31_16h13.57.205.csv,1,16,1,3,b,1,0,1,tac,B,27,1,1B,3B,1,0,b,2.75393039999835,1,0,1,1,1B,3B,B13,3.43398720448515,0.822134214579938,0.5,0.386145169930047,0.5,0.386145169930047,0.613854830069952,0.386145169930047,0.5,0.386145169930047,0.5,0.701783815479389,0.5,0.5,0.5,0.386145169930047,0.769690521504797,0.613854830069952,0.386145169930048,0.613854830069952,0.5,0.170572318556421,0.603330872921336,0.386145169930048,0.087928985409437,0.5,0.227709660139905,1.09211102808727,0.643233465164844,2.87545250406917,0.5,70.1705158482667
CBC_1002,CBC_1002_MSI_TV_v3_Vset1_Tset3_2023-05-31_16h13.57.205.csv,1,17,3,2,z,0,1,3,tac,C,63,1,3C,2C,0,1,b,2.64883269999882,1,0,0,0,3C,2C,C32,3.46573590279973,0.822134214579938,0.5,0.386145169930047,0.5,0.386145169930047,0.701783815479389,0.386145169930047,0.5,0.386145169930047,0.5,0.701783815479389,0.5,0.5,0.5,0.386145169930047,0.769690521504797,0.298216184520611,0.701783815479389,0.5,0.701783815479389,0.0977594360731939,0.321258684927942,-0.5,-0.113854830069953,0.5,0.227709660139905,1.09211102808727,0.643233465164844,2.87545250406917,0.5,70.1705158482667
CBC_1002,CBC_1002_MSI_TV_v3_Vset1_Tset3_2023-05-31_16h13.57.205.csv,1,18,2,3,z,0,1,2,tac,D,63,0,2D,3D,1,0,b,2.70263399999931,1,0,0,1,2D,3D,D23,2.11021320034659,0.822134214579938,0.5,0.386145169930047,0.5,0.386145169930047,0.701783815479389,0.386145169930047,0.5,0.386145169930047,0.5,0.701783815479389,0.386145169930047,0.5,0.5,0.386145169930047,0.769690521504797,0.158409562706721,0.841590437293279,0.386145169930047,0.769690521504797,0.0659969567253031,0.220227044530335,0.613854830069952,0.139780674730468,0.5,0.227709660139905,1.09211102808727,0.643233465164844,2.87545250406917,0.5,70.1705158482667
CBC_1002,CBC_1002_MSI_TV_v3_Vset1_Tset3_2023-05-31_16h13.57.205.csv,1,19,1,0,b,1,0,1,tac,B,63,1,1B,0B,1,0,z,2.99938089999887,0,1,0,0,0B,1B,B10,2.83321334405622,0.822134214579938,0.5,0.386145169930047,0.5,0.386145169930047,0.701783815479389,0.386145169930047,0.5,0.386145169930047,0.5,0.701783815479389,0.386145169930047,0.5,0.5,0.525925844660516,0.769690521504797,0.210926156123591,0.789073843876409,0.386145169930047,0.701783815479389,0.0626860956482048,0.256370278276474,-0.386145169930047,-0.087928985409437,0.5,0.227709660139905,1.09211102808727,0.643233465164844,2.87545250406917,0.5,70.1705158482667
CBC_1002,CBC_1002_MSI_TV_v3_Vset1_Tset3_2023-05-31_16h13.57.205.csv,1,20,2,0,z,0,1,0,tac,A,27,1,2A,0A,NaN,NaN,None,NaN,NaN,NaN,NaN,NaN,,,A20,3.55534806148941,0.822134214579938,0.5,0.386145169930047,0.5,0.29821618452061,0.701783815479389,0.386145169930047,0.5,0.386145169930047,0.5,0.701783815479389,0.386145169930047,0.5,0.5,0.525925844660516,0.769690521504797,0,0,0,0,NaN,0,0,0,0.5,0.227709660139905,1.09211102808727,0.643233465164844,2.87545250406917,0.5,70.1705158482667
CBC_1002,CBC_1002_MSI_TV_v3_Vset1_Tset3_2023-05-31_16h13.57.205.csv,1,21,0,3,z,0,1,2,tac,D,9,1,0D,3D,0,1,z,2.87509019999925,0,1,1,1,3D,0D,D03,3.58351893845611,0.822134214579938,0.5,0.386145169930047,0.5,0.29821618452061,0.701783815479389,0.386145169930047,0.5,0.386145169930047,0.5,0.701783815479389,0.386145169930047,0.5,0.5,0.525925844660516,0.769690521504797,0.769690521504797,0.230309478495203,0.769690521504797,0.5,0.193970102419912,0.731206959747092,0.230309478495203,0.0524436930751415,0.5,0.227709660139905,1.09211102808727,0.643233465164844,2.87545250406917,0.5,70.1705158482667
CBC_1002,CBC_1002_MSI_TV_v3_Vset1_Tset3_2023-05-31_16h13.57.205.csv,1,22,2,3,b,1,0,3,tac,C,63,1,2C,3C,1,0,b,2.66889309999897,1,0,1,1,2C,3C,C23,2.91777073208428,0.822134214579938,0.5,0.386145169930047,0.5,0.29821618452061,0.701783815479389,0.386145169930047,0.5,0.386145169930047,0.5,0.701783815479389,0.386145169930047,0.5,0.5,0.525925844660516,0.822134214579938,0.789073843876409,0.210926156123591,0.701783815479389,0.386145169930047,0.226745136281519,0.745001153417285,0.298216184520611,0.0679067060254074,0.5,0.227709660139905,1.09211102808727,0.643233465164844,2.87545250406917,0.5,70.1705158482667
CBC_1002,CBC_1002_MSI_TV_v3_Vset1_Tset3_2023-05-31_16h13.57.205.csv,1,23,3,1,z,0,1,1,tac,B,27,1,3B,1B,0,1,b,3.01521259999936,1,0,0,0,3B,1B,B31,3.63758615972639,0.822134214579938,0.5,0.386145169930047,0.5,0.29821618452061,0.701783815479389,0.386145169930047,0.5,0.386145169930047,0.5,0.769690521504797,0.386145169930047,0.5,0.5,0.525925844660516,0.822134214579938,0.298216184520611,0.701783815479389,0.5,0.701783815479389,0.0778546965386758,0.321884728958131,-0.5,-0.113854830069953,0.5,0.227709660139905,1.09211102808727,0.643233465164844,2.87545250406917,0.5,70.1705158482667
CBC_1002,CBC_1002_MSI_TV_v3_Vset1_Tset3_2023-05-31_16h13.57.205.csv,1,24,3,2,z,0,1,3,tac,C,63,1,3C,2C,0,1,z,2.65601969999807,0,1,1,1,2C,3C,C32,2.9704144655697,0.822134214579938,0.5,0.386145169930047,0.5,0.29821618452061,0.701783815479389,0.386145169930047,0.386145169930047,0.386145169930047,0.5,0.769690521504797,0.386145169930047,0.5,0.5,0.525925844660516,0.822134214579938,0.841590437293279,0.158409562706721,0.769690521504797,0.386145169930047,0.241201175363162,0.779571652596341,0.230309478495203,0.0524436930751415,0.5,0.227709660139905,1.09211102808727,0.643233465164844,2.87545250406917,0.5,70.1705158482667
CBC_1002,CBC_1002_MSI_TV_v3_Vset1_Tset3_2023-05-31_16h13.57.205.csv,1,25,2,3,z,0,1,2,tac,D,63,1,2D,3D,0,1,b,2.47636049999892,1,0,0,0,2D,3D,D23,2.07944154167984,0.822134214579938,0.5,0.386145169930047,0.5,0.29821618452061,0.701783815479389,0.386145169930047,0.386145169930047,0.386145169930047,0.5,0.822134214579938,0.386145169930047,0.5,0.5,0.525925844660516,0.822134214579938,0.193554383259624,0.806445616740376,0.525925844660516,0.822134214579938,0.0841770111768334,0.242817965125338,-0.525925844660516,-0.119758395346438,0.5,0.227709660139905,1.09211102808727,0.643233465164844,2.87545250406917,0.5,70.1705158482667
CBC_1002,CBC_1002_MSI_TV_v3_Vset1_Tset3_2023-05-31_16h13.57.205.csv,1,26,1,0,b,1,0,1,tac,B,63,1,1B,0B,1,0,b,2.34670360000018,1,0,1,1,1B,0B,B10,2.6149597780362,0.822134214579938,0.5,0.386145169930047,0.5,0.29821618452061,0.701783815479389,0.386145169930047,0.386145169930047,0.386145169930047,0.5,0.822134214579938,0.386145169930047,0.5,0.5,0.406167449314077,0.822134214579938,0.847045439417804,0.152954560582196,0.701783815479389,0.29821618452061,0.29841253915271,0.781916042578787,0.298216184520611,0.0679067060254074,0.5,0.227709660139905,1.09211102808727,0.643233465164844,2.87545250406917,0.5,70.1705158482667
CBC_1002,CBC_1002_MSI_TV_v3_Vset1_Tset3_2023-05-31_16h13.57.205.csv,1,27,0,3,b,1,0,0,tac,A,9,1,0A,3A,1,0,b,2.42262419999861,1,0,1,1,0A,3A,A03,3.73766961828337,0.822134214579938,0.5,0.386145169930047,0.5,0.29821618452061,0.769690521504797,0.386145169930047,0.386145169930047,0.386145169930047,0.5,0.822134214579938,0.386145169930047,0.5,0.5,0.406167449314077,0.822134214579938,0.822134214579938,0.177865785420062,0.822134214579938,0.5,0.276452783838335,0.766888977597827,0.177865785420062,0.0405017575485195,0.5,0.227709660139905,1.09211102808727,0.643233465164844,2.87545250406917,0.5,70.1705158482667
CBC_1002,CBC_1002_MSI_TV_v3_Vset1_Tset3_2023-05-31_16h13.57.205.csv,1,28,2,3,z,0,1,2,tac,D,63,1,2D,3D,0,1,b,2.38984290000008,1,0,0,0,2D,3D,D23,1.96944064646551,0.862635972128458,0.5,0.386145169930047,0.5,0.29821618452061,0.769690521504797,0.386145169930047,0.386145169930047,0.386145169930047,0.5,0.822134214579938,0.386145169930047,0.5,0.5,0.406167449314077,0.822134214579938,0.128901526558573,0.871098473441427,0.406167449314077,0.822134214579938,0.0755383700388869,0.2020638882007,-0.406167449314077,-0.0924882518432006,0.5,0.227709660139905,1.09211102808727,0.643233465164844,2.87545250406917,0.5,70.1705158482667
CBC_1002,CBC_1002_MSI_TV_v3_Vset1_Tset3_2023-05-31_16h13.57.205.csv,1,29,2,0,b,1,0,3,tac,C,27,1,2C,0C,1,0,b,2.33685089999926,1,0,1,1,2C,0C,C20,2.68557734525015,0.862635972128458,0.5,0.386145169930047,0.5,0.29821618452061,0.769690521504797,0.386145169930047,0.386145169930047,0.386145169930047,0.5,0.822134214579938,0.386145169930047,0.5,0.5,0.313679197470876,0.822134214579938,0.880209913877799,0.119790086122201,0.822134214579938,0.386145169930047,0.31260960139027,0.80395788288572,0.177865785420062,0.0405017575485195,0.5,0.227709660139905,1.09211102808727,0.643233465164844,2.87545250406917,0.5,70.1705158482667
CBC_1002,CBC_1002_MSI_TV_v3_Vset1_Tset3_2023-05-31_16h13.57.205.csv,1,30,1,0,z,0,1,0,tac,A,63,1,1A,0A,NaN,NaN,None,NaN,NaN,NaN,NaN,NaN,,,A10,3.11351530921037,0.862635972128458,0.5,0.386145169930047,0.5,0.29821618452061,0.769690521504797,0.386145169930047,0.386145169930047,0.386145169930047,0.5,0.862635972128458,0.386145169930047,0.5,0.5,0.313679197470876,0.822134214579938,0,0,0,0,NaN,0,0,0,0.5,0.227709660139905,1.09211102808727,0.643233465164844,2.87545250406917,0.5,70.1705158482667
CBC_1002,CBC_1002_MSI_TV_v3_Vset1_Tset3_2023-05-31_16h13.57.205.csv,1,31,1,0,b,1,0,1,tac,B,63,1,1B,0B,1,0,z,2.29007719999936,0,1,0,0,0B,1B,B10,2.4423470353692,0.862635972128458,0.5,0.386145169930047,0.5,0.29821618452061,0.769690521504797,0.386145169930047,0.386145169930047,0.386145169930047,0.5,0.862635972128458,0.386145169930047,0.5,0.5,0.313679197470876,0.822134214579938,0.1128082885382,0.8871917114618,0.29821618452061,0.769690521504797,0.0774731554649141,0.192634036134519,-0.29821618452061,-0.0679067060254074,0.5,0.227709660139905,1.09211102808727,0.643233465164844,2.87545250406917,0.5,70.1705158482667
CBC_1002,CBC_1002_MSI_TV_v3_Vset1_Tset3_2023-05-31_16h13.57.205.csv,1,32,3,1,b,1,0,2,tac,D,27,1,3D,1D,NaN,NaN,None,NaN,NaN,NaN,NaN,NaN,,,D31,3.85014760171006,0.862635972128458,0.5,0.386145169930047,0.5,0.230309478495203,0.769690521504797,0.386145169930047,0.386145169930047,0.386145169930047,0.5,0.862635972128458,0.386145169930047,0.5,0.5,0.313679197470876,0.822134214579938,0,0,0,0,NaN,0,0,0,0.5,0.227709660139905,1.09211102808727,0.643233465164844,2.87545250406917,0.5,70.1705158482667
CBC_1002,CBC_1002_MSI_TV_v3_Vset1_Tset3_2023-05-31_16h13.57.205.csv,1,33,3,2,z,0,1,3,tac,C,63,1,3C,2C,0,1,z,2.45493429999988,0,1,1,1,2C,3C,C32,2.77258872223978,0.862635972128458,0.5,0.386145169930047,0.5,0.230309478495203,0.769690521504797,0.386145169930047,0.386145169930047,0.386145169930047,0.5,0.862635972128458,0.386145169930047,0.5,0.5,0.313679197470876,0.822134214579938,0.908951824435893,0.0910481755641075,0.862635972128458,0.386145169930047,0.295867645150246,0.819434511443431,0.137364027871542,0.0312791161020773,0.5,0.227709660139905,1.09211102808727,0.643233465164844,2.87545250406917,0.5,70.1705158482667
CBC_1002,CBC_1002_MSI_TV_v3_Vset1_Tset3_2023-05-31_16h13.57.205.csv,1,34,1,0,b,1,0,1,tac,B,63,1,1B,0B,1,0,b,2.30501509999885,1,0,1,1,1B,0B,B10,2.28238238567653,0.862635972128458,0.5,0.386145169930047,0.5,0.230309478495203,0.769690521504797,0.386145169930047,0.386145169930047,0.386145169930047,0.5,0.893915088230535,0.386145169930047,0.5,0.5,0.313679197470876,0.822134214579938,0.917822999815864,0.0821770001841363,0.769690521504797,0.230309478495203,0.331691637681655,0.824103256038171,0.230309478495203,0.0524436930751415,0.5,0.227709660139905,1.09211102808727,0.643233465164844,2.87545250406917,0.5,70.1705158482667
CBC_1002,CBC_1002_MSI_TV_v3_Vset1_Tset3_2023-05-31_16h13.57.205.csv,1,35,0,1,b,1,0,0,tac,A,63,1,0A,1A,1,0,b,2.97802489999958,1,0,1,1,0A,1A,A01,2.52572864430826,0.862635972128458,0.5,0.386145169930047,0.5,0.230309478495203,0.822134214579938,0.386145169930047,0.386145169930047,0.386145169930047,0.5,0.893915088230535,0.386145169930047,0.5,0.5,0.313679197470876,0.822134214579938,0.862635972128458,0.137364027871542,0.862635972128458,0.5,0.1960395454132,0.791634958754953,0.137364027871542,0.0312791161020773,0.5,0.227709660139905,1.09211102808727,0.643233465164844,2.87545250406917,0.5,70.1705158482667
CBC_1002,CBC_1002_MSI_TV_v3_Vset1_Tset3_2023-05-31_16h13.57.205.csv,1,36,1,2,z,0,1,3,tac,C,9,1,1C,2C,0,1,z,2.24819369999932,0,1,1,1,2C,1C,C12,3.93182563272433,0.893915088230535,0.5,0.386145169930047,0.5,0.230309478495203,0.822134214579938,0.386145169930047,0.386145169930047,0.386145169930047,0.5,0.893915088230535,0.386145169930047,0.5,0.5,0.313679197470876,0.822134214579938,0.893915088230535,0.106084911769465,0.893915088230535,0.5,0.336710594670924,0.811670845045093,0.106084911769465,0.0241565592049966,0.5,0.227709660139905,1.09211102808727,0.643233465164844,2.87545250406917,0.5,70.1705158482667
CBC_1002,CBC_1002_MSI_TV_v3_Vset1_Tset3_2023-05-31_16h13.57.205.csv,1,37,1,0,z,0,1,0,tac,A,63,1,1A,0A,0,1,z,2.58970880000015,0,1,1,1,0A,1A,A10,2.85263142991332,0.893915088230535,0.5,0.386145169930047,0.5,0.230309478495203,0.822134214579938,0.386145169930047,0.386145169930047,0.386145169930047,0.5,0.918071647435532,0.386145169930047,0.5,0.5,0.313679197470876,0.822134214579938,0.893915088230535,0.106084911769465,0.893915088230535,0.5,0.264905776635835,0.810581970201905,0.106084911769465,0.0241565592049966,0.5,0.227709660139905,1.09211102808727,0.643233465164844,2.87545250406917,0.5,70.1705158482667
CBC_1002,CBC_1002_MSI_TV_v3_Vset1_Tset3_2023-05-31_16h13.57.205.csv,1,38,3,1,b,1,0,2,tac,D,27,1,3D,1D,1,0,b,2.36161679999896,1,0,1,1,3D,1D,D31,3.27714473299218,0.918071647435532,0.5,0.386145169930047,0.5,0.230309478495203,0.822134214579938,0.386145169930047,0.386145169930047,0.386145169930047,0.5,0.918071647435532,0.386145169930047,0.5,0.5,0.313679197470876,0.822134214579938,0.822134214579938,0.177865785420062,0.822134214579938,0.5,0.287720757084671,0.766936879311475,0.177865785420062,0.0405017575485195,0.5,0.227709660139905,1.09211102808727,0.643233465164844,2.87545250406917,0.5,70.1705158482667
CBC_1002,CBC_1002_MSI_TV_v3_Vset1_Tset3_2023-05-31_16h13.57.205.csv,1,39,0,1,z,0,1,1,tac,B,63,1,0B,1B,0,1,z,2.52120019999893,0,1,1,1,1B,0B,B01,3.29583686600433,0.918071647435532,0.5,0.386145169930047,0.5,0.230309478495203,0.822134214579938,0.386145169930047,0.386145169930047,0.386145169930047,0.5,0.918071647435532,0.386145169930047,0.5,0.5,0.313679197470876,0.862635972128458,0.939200017079903,0.0607999829200969,0.822134214579938,0.230309478495203,0.28943793229586,0.835349051633374,0.177865785420062,0.0405017575485195,0.5,0.227709660139905,1.09211102808727,0.643233465164844,2.87545250406917,0.5,70.1705158482667
CBC_1002,CBC_1002_MSI_TV_v3_Vset1_Tset3_2023-05-31_16h13.57.205.csv,1,40,2,3,b,1,0,3,tac,C,63,0,2C,3C,0,1,b,2.73736899999858,1,0,1,0,2C,3C,C23,2.90872089656436,0.918071647435532,0.5,0.386145169930047,0.5,0.230309478495203,0.862635972128458,0.386145169930047,0.386145169930047,0.386145169930047,0.5,0.918071647435532,0.386145169930047,0.5,0.5,0.313679197470876,0.862635972128458,0.946847625526158,0.0531523744738417,0.918071647435532,0.386145169930047,0.247468549475171,0.839052809149494,-0.918071647435532,-0.209053782821628,0.5,0.227709660139905,1.09211102808727,0.643233465164844,2.87545250406917,0.5,70.1705158482667
CBC_1002,CBC_1002_MSI_TV_v3_Vset1_Tset3_2023-05-31_16h13.57.205.csv,1,41,2,0,z,0,1,0,tac,A,27,1,2A,0A,0,1,z,2.35296279999966,0,1,1,1,0A,2A,A20,3.3322045101752,0.918071647435532,0.5,0.386145169930047,0.5,0.230309478495203,0.862635972128458,0.386145169930047,0.386145169930047,0.386145169930047,0.5,0.709017864613904,0.386145169930047,0.5,0.5,0.313679197470876,0.862635972128458,0.946847625526158,0.0531523744738416,0.918071647435532,0.386145169930047,0.329860764704646,0.839450016099612,0.0819283525644682,0.0186558773182774,0.5,0.227709660139905,1.09211102808727,0.643233465164844,2.87545250406917,0.5,70.1705158482667
CBC_1002,CBC_1002_MSI_TV_v3_Vset1_Tset3_2023-05-31_16h13.57.205.csv,1,42,3,2,b,1,0,2,tac,D,63,1,3D,2D,1,0,b,5.34719419999965,1,0,1,1,3D,2D,D32,4.04305126783455,0.936727524753809,0.5,0.386145169930047,0.5,0.230309478495203,0.862635972128458,0.386145169930047,0.386145169930047,0.386145169930047,0.5,0.709017864613904,0.386145169930047,0.5,0.5,0.313679197470876,0.862635972128458,0.932158743104333,0.0678412568956667,0.862635972128458,0.313679197470876,0.0345894533277203,0.831230529614547,0.137364027871542,0.0312791161020773,0.5,0.227709660139905,1.09211102808727,0.643233465164844,2.87545250406917,0.5,70.1705158482667
CBC_1002,CBC_1002_MSI_TV_v3_Vset1_Tset3_2023-05-31_16h13.57.205.csv,1,43,3,1,z,0,1,1,tac,B,27,1,3B,1B,0,1,z,2.37038929999835,0,1,1,1,1B,3B,B31,3.36729582998647,0.936727524753809,0.5,0.386145169930047,0.5,0.230309478495203,0.862635972128458,0.386145169930047,0.386145169930047,0.386145169930047,0.5,0.709017864613904,0.386145169930047,0.5,0.5,0.313679197470876,0.893915088230535,0.908951824435893,0.0910481755641075,0.862635972128458,0.386145169930047,0.313621990521593,0.818522576522638,0.137364027871542,0.0312791161020773,0.5,0.227709660139905,1.09211102808727,0.643233465164844,2.87545250406917,0.5,70.1705158482667
CBC_1002,CBC_1002_MSI_TV_v3_Vset1_Tset3_2023-05-31_16h13.57.205.csv,1,44,2,3,b,1,0,3,tac,C,63,1,2C,3C,1,0,z,2.29477289999886,0,1,0,0,3C,2C,C23,2.69124308278583,0.936727524753809,0.5,0.386145169930047,0.5,0.230309478495203,0.893915088230535,0.386145169930047,0.386145169930047,0.386145169930047,0.5,0.709017864613904,0.386145169930047,0.5,0.5,0.313679197470876,0.893915088230535,0.205190454120528,0.794809545879472,0.386145169930047,0.709017864613904,0.0976576178106444,0.251696738672058,-0.386145169930047,-0.087928985409437,0.5,0.227709660139905,1.09211102808727,0.643233465164844,2.87545250406917,0.5,70.1705158482667
CBC_1002,CBC_1002_MSI_AV_v3_Vset4_Aset2_2023-05-31_16h22.12.197.csv,2,1,0,1,b,1,0,0,aud,A,63,1,0A,1A,1,0,z,2.26603029999933,0,1,0,0,1A,0A,A01,2.77258872223978,0.5,0.5,0.5,0.5,0.5,0.5,0.5,0.5,0.5,0.5,0.5,0.5,0.5,0.5,0.5,0.5,0.5,0.5,0.5,0.5,0.197003245496005,0.500069822780233,-0.5,-0.0138848874801354,0.5,0.0277697749602709,1.09636138825648,2.79380343611911,2.60967758484938,0.5,66.9165939832021
CBC_1002,CBC_1002_MSI_AV_v3_Vset4_Aset2_2023-05-31_16h22.12.197.csv,2,2,2,3,z,0,1,2,aud,D,63,1,2D,3D,0,1,b,1.87625110000045,1,0,0,0,2D,3D,D23,2.83321334405622,0.5,0.486115112519865,0.5,0.5,0.5,0.5,0.5,0.5,0.5,0.5,0.5,0.5,0.5,0.5,0.5,0.5,0.5,0.5,0.5,0.5,0.254149594711572,0.501087473806761,-0.5,-0.0138848874801354,0.5,0.0277697749602709,1.09636138825648,2.79380343611911,2.60967758484938,0.5,66.9165939832021
CBC_1002,CBC_1002_MSI_AV_v3_Vset4_Aset2_2023-05-31_16h22.12.197.csv,2,3,0,2,z,0,1,3,aud,C,27,1,0C,2C,0,1,z,2.37195260000044,0,1,1,1,2C,0C,C02,2.89037175789616,0.5,0.486115112519865,0.5,0.5,0.5,0.5,0.5,0.5,0.5,0.5,0.5,0.5,0.5,0.5,0.486115112519865,0.5,0.5,0.5,0.5,0.5,0.1825032847898,0.499435647326623,0.5,0.0138848874801354,0.5,0.0277697749602709,1.09636138825648,2.79380343611911,2.60967758484938,0.5,66.9165939832021
CBC_1002,CBC_1002_MSI_AV_v3_Vset4_Aset2_2023-05-31_16h22.12.197.csv,2,4,0,1,b,1,0,0,aud,A,63,1,0A,1A,1,0,b,2.28492310000001,1,0,1,1,0A,1A,A01,2.2512917986065,0.5,0.486115112519865,0.5,0.5,0.5,0.5,0.5,0.5,0.5,0.5,0.513884887480135,0.5,0.5,0.5,0.486115112519865,0.5,0.513884887480135,0.486115112519865,0.5,0.486115112519865,0.214254964634636,0.550319263290039,0.5,0.0138848874801354,0.5,0.0277697749602709,1.09636138825648,2.79380343611911,2.60967758484938,0.5,66.9165939832021
CBC_1002,CBC_1002_MSI_AV_v3_Vset4_Aset2_2023-05-31_16h22.12.197.csv,2,5,1,3,b,1,0,1,aud,B,27,1,1B,3B,1,0,z,2.57649629999833,0,1,0,0,3B,1B,B13,2.99573227355399,0.513884887480135,0.486115112519865,0.5,0.5,0.5,0.5,0.5,0.5,0.5,0.5,0.513884887480135,0.5,0.5,0.5,0.486115112519865,0.5,0.5,0.5,0.5,0.5,0.158122941083129,0.501203643792073,-0.5,-0.0138848874801354,0.5,0.0277697749602709,1.09636138825648,2.79380343611911,2.60967758484938,0.5,66.9165939832021
CBC_1002,CBC_1002_MSI_AV_v3_Vset4_Aset2_2023-05-31_16h22.12.197.csv,2,6,3,2,z,0,1,3,aud,C,63,1,3C,2C,0,1,b,2.87717069999962,1,0,0,0,3C,2C,C32,3.04452243772342,0.513884887480135,0.486115112519865,0.5,0.5,0.5,0.5,0.5,0.486115112519865,0.5,0.5,0.513884887480135,0.5,0.5,0.5,0.486115112519865,0.5,0.486115112519865,0.513884887480135,0.5,0.513884887480135,0.11410998014964,0.449640552977641,-0.5,-0.0138848874801354,0.5,0.0277697749602709,1.09636138825648,2.79380343611911,2.60967758484938,0.5,66.9165939832021
CBC_1002,CBC_1002_MSI_AV_v3_Vset4_Aset2_2023-05-31_16h22.12.197.csv,2,7,3,2,b,1,0,2,aud,D,63,1,3D,2D,1,0,z,1.70062700000017,0,1,0,0,2D,3D,D32,3.09104245335832,0.513884887480135,0.486115112519865,0.5,0.5,0.5,0.5,0.5,0.486115112519865,0.5,0.5,0.513884887480135,0.486115112519865,0.5,0.5,0.486115112519865,0.5,0.486115112519865,0.513884887480135,0.486115112519865,0.5,0.244025147317694,0.448922326637675,-0.486115112519865,-0.0134993072794634,0.5,0.0277697749602709,1.09636138825648,2.79380343611911,2.60967758484938,0.5,66.9165939832021
CBC_1002,CBC_1002_MSI_AV_v3_Vset4_Aset2_2023-05-31_16h22.12.197.csv,2,8,0,1,z,0,1,1,aud,B,63,1,0B,1B,0,1,b,2.54389549999905,1,0,0,0,0B,1B,B01,3.13549421592915,0.513884887480135,0.486115112519865,0.5,0.5,0.5,0.5,0.5,0.486115112519865,0.5,0.5,0.513884887480135,0.486115112519865,0.5,0.5,0.472615805240401,0.5,0.5,0.5,0.5,0.5,0.161402958085999,0.499715512643368,-0.5,-0.0138848874801354,0.5,0.0277697749602709,1.09636138825648,2.79380343611911,2.60967758484938,0.5,66.9165939832021
CBC_1002,CBC_1002_MSI_AV_v3_Vset4_Aset2_2023-05-31_16h22.12.197.csv,2,9,2,0,z,0,1,0,aud,A,27,1,2A,0A,0,1,z,3.1143119999997,0,1,1,1,0A,2A,A20,3.17805383034795,0.513884887480135,0.486115112519865,0.5,0.5,0.486115112519865,0.5,0.5,0.486115112519865,0.5,0.5,0.513884887480135,0.486115112519865,0.5,0.5,0.472615805240401,0.5,0.513884887480135,0.486115112519865,0.513884887480135,0.5,0.117826773900004,0.551710443159369,0.486115112519865,0.0134993072794634,0.5,0.0277697749602709,1.09636138825648,2.79380343611911,2.60967758484938,0.5,66.9165939832021
CBC_1002,CBC_1002_MSI_AV_v3_Vset4_Aset2_2023-05-31_16h22.12.197.csv,2,10,3,0,b,1,0,2,aud,D,9,1,3D,0D,1,0,b,3.65684519999922,1,0,1,1,3D,0D,D30,3.2188758248682,0.527384194759599,0.486115112519865,0.5,0.5,0.486115112519865,0.5,0.5,0.486115112519865,0.5,0.5,0.513884887480135,0.486115112519865,0.5,0.5,0.472615805240401,0.5,0.5,0.5,0.5,0.5,0.0722601946898384,0.500780655753728,0.5,0.0138848874801354,0.5,0.0277697749602709,1.09636138825648,2.79380343611911,2.60967758484938,0.5,66.9165939832021
CBC_1002,CBC_1002_MSI_AV_v3_Vset4_Aset2_2023-05-31_16h22.12.197.csv,2,11,2,3,b,1,0,3,aud,C,63,1,2C,3C,1,0,b,2.96763359999932,1,0,1,1,2C,3C,C23,3.25809653802148,0.527384194759599,0.486115112519865,0.5,0.5,0.486115112519865,0.5,0.5,0.486115112519865,0.5,0.5,0.513884887480135,0.486115112519865,0.5,0.5,0.472615805240401,0.513884887480135,0.527748376511104,0.472251623488896,0.513884887480135,0.486115112519865,0.142202476408195,0.599412821937,0.486115112519865,0.0134993072794634,0.5,0.0277697749602709,1.09636138825648,2.79380343611911,2.60967758484938,0.5,66.9165939832021
CBC_1002,CBC_1002_MSI_AV_v3_Vset4_Aset2_2023-05-31_16h22.12.197.csv,2,12,0,1,z,0,1,1,aud,B,63,1,0B,1B,0,1,z,2.50766159999876,0,1,1,1,1B,0B,B01,2.60268968544438,0.527384194759599,0.486115112519865,0.5,0.5,0.486115112519865,0.5,0.5,0.486115112519865,0.5,0.5,0.527384194759599,0.486115112519865,0.5,0.5,0.472615805240401,0.513884887480135,0.513884887480135,0.486115112519865,0.5,0.486115112519865,0.182801924583151,0.550902914468015,0.5,0.0138848874801354,0.5,0.0277697749602709,1.09636138825648,2.79380343611911,2.60967758484938,0.5,66.9165939832021
CBC_1002,CBC_1002_MSI_AV_v3_Vset4_Aset2_2023-05-31_16h22.12.197.csv,2,13,3,2,z,0,1,3,aud,C,63,1,3C,2C,0,1,b,2.23216990000037,1,0,0,0,3C,2C,C32,2.63905732961526,0.527384194759599,0.486115112519865,0.5,0.5,0.486115112519865,0.513884887480135,0.5,0.486115112519865,0.5,0.5,0.527384194759599,0.486115112519865,0.5,0.5,0.472615805240401,0.513884887480135,0.458793588832146,0.541206411167854,0.486115112519865,0.527384194759599,0.144703204329715,0.353517377514994,-0.486115112519865,-0.0134993072794634,0.5,0.0277697749602709,1.09636138825648,2.79380343611911,2.60967758484938,0.5,66.9165939832021
CBC_1002,CBC_1002_MSI_AV_v3_Vset4_Aset2_2023-05-31_16h22.12.197.csv,2,14,1,3,b,1,0,1,aud,B,27,1,1B,3B,1,0,b,2.38329800000065,1,0,1,1,1B,3B,B13,2.67414864942653,0.527384194759599,0.486115112519865,0.5,0.5,0.486115112519865,0.513884887480135,0.5,0.486115112519865,0.5,0.5,0.527384194759599,0.472615805240401,0.5,0.5,0.472615805240401,0.513884887480135,0.527748376511104,0.472251623488896,0.513884887480135,0.486115112519865,0.218555570448751,0.600026540807428,0.486115112519865,0.0134993072794634,0.5,0.0277697749602709,1.09636138825648,2.79380343611911,2.60967758484938,0.5,66.9165939832021
CBC_1002,CBC_1002_MSI_AV_v3_Vset4_Aset2_2023-05-31_16h22.12.197.csv,2,15,2,3,z,0,1,2,aud,D,63,1,2D,3D,0,1,b,2.98118729999987,1,0,0,0,2D,3D,D23,2.70805020110221,0.527384194759599,0.486115112519865,0.5,0.5,0.486115112519865,0.527384194759599,0.5,0.486115112519865,0.5,0.5,0.527384194759599,0.472615805240401,0.5,0.5,0.472615805240401,0.513884887480135,0.458793588832146,0.541206411167854,0.472615805240401,0.513884887480135,0.0830868283090362,0.354846315469474,-0.472615805240401,-0.0131244345541932,0.5,0.0277697749602709,1.09636138825648,2.79380343611911,2.60967758484938,0.5,66.9165939832021
CBC_1002,CBC_1002_MSI_AV_v3_Vset4_Aset2_2023-05-31_16h22.12.197.csv,2,16,0,3,b,1,0,0,aud,A,9,1,0A,3A,1,0,z,2.36255749999873,0,1,0,0,3A,0A,A03,3.43398720448515,0.527384194759599,0.486115112519865,0.5,0.5,0.486115112519865,0.527384194759599,0.5,0.486115112519865,0.5,0.5,0.527384194759599,0.472615805240401,0.5,0.5,0.459491370686208,0.513884887480135,0.472615805240401,0.527384194759599,0.5,0.527384194759599,0.148535258481597,0.401770364574831,-0.5,-0.0138848874801354,0.5,0.0277697749602709,1.09636138825648,2.79380343611911,2.60967758484938,0.5,66.9165939832021
CBC_1002,CBC_1002_MSI_AV_v3_Vset4_Aset2_2023-05-31_16h22.12.197.csv,2,17,2,3,z,0,1,2,aud,D,63,1,2D,3D,0,1,b,1.45364659999905,1,0,0,0,2D,3D,D23,2.36712361413162,0.527384194759599,0.486115112519865,0.5,0.486115112519865,0.486115112519865,0.527384194759599,0.5,0.486115112519865,0.5,0.5,0.527384194759599,0.472615805240401,0.5,0.5,0.459491370686208,0.513884887480135,0.445728584720752,0.554271415279248,0.459491370686208,0.513884887480135,0.148923863158646,0.311682933705762,-0.459491370686208,-0.0127599719601424,0.5,0.0277697749602709,1.09636138825648,2.79380343611911,2.60967758484938,0.5,66.9165939832021
CBC_1002,CBC_1002_MSI_AV_v3_Vset4_Aset2_2023-05-31_16h22.12.197.csv,2,18,0,2,z,0,1,3,aud,C,27,1,0C,2C,0,1,b,3.15965300000062,1,0,0,0,0C,2C,C02,2.80336038090653,0.527384194759599,0.486115112519865,0.5,0.486115112519865,0.486115112519865,0.527384194759599,0.5,0.486115112519865,0.5,0.5,0.527384194759599,0.472615805240401,0.5,0.5,0.446731398726066,0.513884887480135,0.472615805240401,0.527384194759599,0.5,0.527384194759599,0.0827604065062211,0.401787334770156,-0.5,-0.0138848874801354,0.5,0.0277697749602709,1.09636138825648,2.79380343611911,2.60967758484938,0.5,66.9165939832021
CBC_1002,CBC_1002_MSI_AV_v3_Vset4_Aset2_2023-05-31_16h22.12.197.csv,2,19,0,1,b,1,0,0,aud,A,63,1,0A,1A,1,0,b,2.37594460000037,1,0,1,1,0A,1A,A01,2.42774823594805,0.527384194759599,0.486115112519865,0.5,0.486115112519865,0.486115112519865,0.527384194759599,0.5,0.486115112519865,0.486115112519865,0.5,0.527384194759599,0.472615805240401,0.5,0.5,0.446731398726066,0.513884887480135,0.541206411167854,0.458793588832146,0.527384194759599,0.486115112519865,0.237526865678656,0.645097113065207,0.472615805240401,0.0131244345541932,0.5,0.0277697749602709,1.09636138825648,2.79380343611911,2.60967758484938,0.5,66.9165939832021
CBC_1002,CBC_1002_MSI_AV_v3_Vset4_Aset2_2023-05-31_16h22.12.197.csv,2,20,1,0,b,1,0,1,aud,B,63,0,1B,0B,0,1,b,2.8144785000004,1,0,1,0,1B,0B,B10,3.55534806148941,0.540508629313792,0.486115112519865,0.5,0.486115112519865,0.486115112519865,0.527384194759599,0.5,0.486115112519865,0.486115112519865,0.5,0.527384194759599,0.472615805240401,0.5,0.5,0.446731398726066,0.513884887480135,0.541206411167854,0.458793588832146,0.527384194759599,0.486115112519865,0.171240113873252,0.645346577573802,-0.527384194759599,-0.0146453404060777,0.5,0.0277697749602709,1.09636138825648,2.79380343611911,2.60967758484938,0.5,66.9165939832021
CBC_1002,CBC_1002_MSI_AV_v3_Vset4_Aset2_2023-05-31_16h22.12.197.csv,2,21,3,1,b,1,0,2,aud,D,27,1,3D,1D,1,0,z,3.31129800000053,0,1,0,0,1D,3D,D31,3.58351893845611,0.540508629313792,0.486115112519865,0.5,0.486115112519865,0.486115112519865,0.512738854353521,0.5,0.486115112519865,0.486115112519865,0.5,0.527384194759599,0.472615805240401,0.5,0.5,0.446731398726066,0.513884887480135,0.486115112519865,0.513884887480135,0.5,0.513884887480135,0.083226753224852,0.44972129168954,-0.5,-0.0138848874801354,0.5,0.0277697749602709,1.09636138825648,2.79380343611911,2.60967758484938,0.5,66.9165939832021
CBC_1002,CBC_1002_MSI_AV_v3_Vset4_Aset2_2023-05-31_16h22.12.197.csv,2,22,3,2,z,0,1,3,aud,C,63,1,3C,2C,0,1,b,3.21873330000017,1,0,0,0,3C,2C,C32,2.51230562397611,0.540508629313792,0.486115112519865,0.5,0.486115112519865,0.486115112519865,0.512738854353521,0.5,0.486115112519865,0.486115112519865,0.5,0.527384194759599,0.472615805240401,0.5,0.486115112519865,0.446731398726066,0.513884887480135,0.445395401151782,0.554604598848218,0.472615805240401,0.527384194759599,0.060470859845858,0.311666153844584,-0.472615805240401,-0.0131244345541932,0.5,0.0277697749602709,1.09636138825648,2.79380343611911,2.60967758484938,0.5,66.9165939832021
CBC_1002,CBC_1002_MSI_AV_v3_Vset4_Aset2_2023-05-31_16h22.12.197.csv,2,23,2,3,z,0,1,2,aud,D,63,1,2D,3D,0,1,z,1.45782879999933,0,1,1,1,3D,2D,D23,2.2512917986065,0.540508629313792,0.486115112519865,0.5,0.486115112519865,0.486115112519865,0.512738854353521,0.5,0.486115112519865,0.486115112519865,0.5,0.527384194759599,0.459491370686208,0.5,0.486115112519865,0.446731398726066,0.513884887480135,0.566955400255687,0.433044599744313,0.513884887480135,0.446731398726066,0.361218023982505,0.726587849072148,0.486115112519865,0.0134993072794634,0.5,0.0277697749602709,1.09636138825648,2.79380343611911,2.60967758484938,0.5,66.9165939832021
CBC_1002,CBC_1002_MSI_AV_v3_Vset4_Aset2_2023-05-31_16h22.12.197.csv,2,24,0,2,b,1,0,0,aud,A,27,1,0A,2A,1,0,b,2.31952289999936,1,0,1,1,0A,2A,A02,3.66356164612965,0.540508629313792,0.486115112519865,0.5,0.486115112519865,0.486115112519865,0.512738854353521,0.5,0.486115112519865,0.486115112519865,0.5,0.527384194759599,0.459491370686208,0.5,0.486115112519865,0.446731398726066,0.527384194759599,0.540508629313792,0.459491370686208,0.540508629313792,0.5,0.247380765155479,0.644505225730377,0.459491370686208,0.0127599719601424,0.5,0.0277697749602709,1.09636138825648,2.79380343611911,2.60967758484938,0.5,66.9165939832021
CBC_1002,CBC_1002_MSI_AV_v3_Vset4_Aset2_2023-05-31_16h22.12.197.csv,2,25,1,0,b,1,0,1,aud,B,63,1,1B,0B,NaN,NaN,[],NaN,NaN,NaN,NaN,NaN,,,B10,2.99573227355399,0.553268601273934,0.486115112519865,0.5,0.486115112519865,0.486115112519865,0.512738854353521,0.5,0.486115112519865,0.486115112519865,0.5,0.527384194759599,0.459491370686208,0.5,0.486115112519865,0.446731398726066,0.527384194759599,0,0,0,0,NaN,0,0,0,0.5,0.0277697749602709,1.09636138825648,2.79380343611911,2.60967758484938,0.5,66.9165939832021
CBC_1002,CBC_1002_MSI_AV_v3_Vset4_Aset2_2023-05-31_16h22.12.197.csv,2,26,0,2,z,0,1,3,aud,C,27,1,0C,2C,0,1,z,3.79878160000044,0,1,1,1,2C,0C,C02,2.6149597780362,0.553268601273934,0.486115112519865,0.5,0.486115112519865,0.486115112519865,0.512738854353521,0.5,0.486115112519865,0.486115112519865,0.5,0.527384194759599,0.459491370686208,0.5,0.486115112519865,0.446731398726066,0.527384194759599,0.541206411167854,0.458793588832146,0.527384194759599,0.486115112519865,0.0818036302301617,0.64555054344818,0.472615805240401,0.0131244345541932,0.5,0.0277697749602709,1.09636138825648,2.79380343611911,2.60967758484938,0.5,66.9165939832021
CBC_1002,CBC_1002_MSI_AV_v3_Vset4_Aset2_2023-05-31_16h22.12.197.csv,2,27,0,1,z,0,1,1,aud,B,63,1,0B,1B,NaN,NaN,[],NaN,NaN,NaN,NaN,NaN,,,B01,2.63905732961526,0.553268601273934,0.486115112519865,0.5,0.486115112519865,0.486115112519865,0.512738854353521,0.5,0.486115112519865,0.486115112519865,0.5,0.540508629313792,0.459491370686208,0.5,0.486115112519865,0.446731398726066,0.527384194759599,0,0,0,0,NaN,0,0,0,0.5,0.0277697749602709,1.09636138825648,2.79380343611911,2.60967758484938,0.5,66.9165939832021
CBC_1002,CBC_1002_MSI_AV_v3_Vset4_Aset2_2023-05-31_16h22.12.197.csv,2,28,1,0,z,0,1,0,aud,A,63,1,1A,0A,0,1,z,2.4674903999985,0,1,1,1,0A,1A,A10,3.76120011569356,0.553268601273934,0.486115112519865,0.5,0.486115112519865,0.486115112519865,0.512738854353521,0.5,0.486115112519865,0.486115112519865,0.5,0.540508629313792,0.459491370686208,0.5,0.486115112519865,0.446731398726066,0.527384194759599,0.566955400255687,0.433044599744313,0.553268601273934,0.486115112519865,0.252435159553405,0.726044142449786,0.446731398726066,0.0124056304103099,0.5,0.0277697749602709,1.09636138825648,2.79380343611911,2.60967758484938,0.5,66.9165939832021
CBC_1002,CBC_1002_MSI_AV_v3_Vset4_Aset2_2023-05-31_16h22.12.197.csv,2,29,2,3,b,1,0,3,aud,C,63,1,2C,3C,1,0,b,2.91805869999916,1,0,1,1,2C,3C,C23,3.09104245335832,0.565674231684244,0.486115112519865,0.5,0.486115112519865,0.486115112519865,0.512738854353521,0.5,0.486115112519865,0.486115112519865,0.5,0.540508629313792,0.459491370686208,0.5,0.486115112519865,0.446731398726066,0.527384194759599,0.58048894559272,0.41951105440728,0.540508629313792,0.459491370686208,0.184217366713756,0.76337584787575,0.459491370686208,0.0127599719601424,0.5,0.0277697749602709,1.09636138825648,2.79380343611911,2.60967758484938,0.5,66.9165939832021
CBC_1002,CBC_1002_MSI_AV_v3_Vset4_Aset2_2023-05-31_16h22.12.197.csv,2,30,1,3,z,0,1,2,aud,D,27,1,1D,3D,0,1,z,1.90383479999946,0,1,1,1,3D,1D,D13,3.80666248977032,0.565674231684244,0.486115112519865,0.5,0.486115112519865,0.486115112519865,0.512738854353521,0.5,0.486115112519865,0.486115112519865,0.5,0.553268601273934,0.459491370686208,0.5,0.486115112519865,0.446731398726066,0.527384194759599,0.541206411167854,0.458793588832146,0.527384194759599,0.486115112519865,0.330986323527127,0.647088943466399,0.472615805240401,0.0131244345541932,0.5,0.0277697749602709,1.09636138825648,2.79380343611911,2.60967758484938,0.5,66.9165939832021
CBC_1002,CBC_1002_MSI_AV_v3_Vset4_Aset2_2023-05-31_16h22.12.197.csv,2,31,0,1,b,1,0,0,aud,A,63,1,0A,1A,1,0,z,2.66125459999967,0,1,0,0,1A,0A,A01,2.4423470353692,0.565674231684244,0.486115112519865,0.5,0.486115112519865,0.486115112519865,0.512738854353521,0.5,0.486115112519865,0.486115112519865,0.5,0.553268601273934,0.459491370686208,0.5,0.486115112519865,0.446731398726066,0.540508629313792,0.420730019458568,0.579269980541432,0.486115112519865,0.565674231684244,0.0716658026995317,0.240294126724476,-0.486115112519865,-0.0134993072794634,0.5,0.0277697749602709,1.09636138825648,2.79380343611911,2.60967758484938,0.5,66.9165939832021
CBC_1002,CBC_1002_MSI_AV_v3_Vset4_Aset2_2023-05-31_16h22.12.197.csv,2,32,2,3,z,0,1,2,aud,D,63,1,2D,3D,0,1,z,2.27179230000002,0,1,1,1,3D,2D,D23,2.24070968927596,0.565674231684244,0.472615805240401,0.5,0.486115112519865,0.486115112519865,0.512738854353521,0.5,0.486115112519865,0.486115112519865,0.5,0.553268601273934,0.459491370686208,0.5,0.486115112519865,0.446731398726066,0.540508629313792,0.592974732932104,0.407025267067896,0.540508629313792,0.446731398726066,0.329673498046682,0.794962779241977,0.459491370686208,0.0127599719601424,0.5,0.0277697749602709,1.09636138825648,2.79380343611911,2.60967758484938,0.5,66.9165939832021
CBC_1002,CBC_1002_MSI_AV_v3_Vset4_Aset2_2023-05-31_16h22.12.197.csv,2,33,1,2,b,1,0,1,aud,B,9,1,1B,2B,NaN,NaN,[],NaN,NaN,NaN,NaN,NaN,,,B12,3.87120101090789,0.565674231684244,0.472615805240401,0.5,0.486115112519865,0.486115112519865,0.512738854353521,0.5,0.486115112519865,0.486115112519865,0.5,0.553268601273934,0.459491370686208,0.5,0.486115112519865,0.446731398726066,0.553268601273934,0,0,0,0,NaN,0,0,0,0.5,0.0277697749602709,1.09636138825648,2.79380343611911,2.60967758484938,0.5,66.9165939832021
CBC_1002,CBC_1002_MSI_AV_v3_Vset4_Aset2_2023-05-31_16h22.12.197.csv,2,34,0,1,b,1,0,0,aud,A,63,1,0A,1A,1,0,b,2.1567871999996,1,0,1,1,0A,1A,A01,2.28238238567653,0.565674231684244,0.472615805240401,0.5,0.486115112519865,0.486115112519865,0.512738854353521,0.5,0.486115112519865,0.486115112519865,0.5,0.553268601273934,0.459491370686208,0.5,0.486115112519865,0.446731398726066,0.553268601273934,0.592393769338092,0.407606230661908,0.565674231684244,0.472615805240401,0.361674900508636,0.793239262155391,0.434325768315756,0.0120611288455753,0.5,0.0277697749602709,1.09636138825648,2.79380343611911,2.60967758484938,0.5,66.9165939832021
CBC_1002,CBC_1002_MSI_AV_v3_Vset4_Aset2_2023-05-31_16h22.12.197.csv,2,35,1,2,z,0,1,3,aud,C,9,1,1C,2C,0,1,b,3.00989320000008,1,0,0,0,1C,2C,C12,3.91202300542815,0.57773536052982,0.472615805240401,0.5,0.486115112519865,0.486115112519865,0.512738854353521,0.5,0.486115112519865,0.486115112519865,0.5,0.553268601273934,0.459491370686208,0.5,0.486115112519865,0.446731398726066,0.553268601273934,0.446731398726066,0.553268601273934,0.5,0.553268601273934,0.071824056050884,0.314992784181424,-0.5,-0.0138848874801354,0.5,0.0277697749602709,1.09636138825648,2.79380343611911,2.60967758484938,0.5,66.9165939832021
CBC_1002,CBC_1002_MSI_AV_v3_Vset4_Aset2_2023-05-31_16h22.12.197.csv,2,36,1,0,z,0,1,0,aud,A,63,0,1A,0A,1,0,z,2.48333329999878,0,1,1,0,0A,1A,A10,3.23867845216438,0.57773536052982,0.472615805240401,0.5,0.486115112519865,0.486115112519865,0.512738854353521,0.5,0.486115112519865,0.486115112519865,0.486115112519865,0.553268601273934,0.459491370686208,0.5,0.486115112519865,0.446731398726066,0.553268601273934,0.604232031940037,0.395767968059963,0.57773536052982,0.472615805240401,0.285222036589375,0.820894177943338,-0.57773536052982,-0.0160435809485041,0.5,0.0277697749602709,1.09636138825648,2.79380343611911,2.60967758484938,0.5,66.9165939832021
CBC_1002,CBC_1002_MSI_AV_v3_Vset4_Aset2_2023-05-31_16h22.12.197.csv,2,37,1,0,b,1,0,1,aud,B,63,1,1B,0B,NaN,NaN,[],NaN,NaN,NaN,NaN,NaN,,,B10,2.85263142991332,0.561691779581315,0.472615805240401,0.5,0.486115112519865,0.486115112519865,0.512738854353521,0.5,0.486115112519865,0.486115112519865,0.486115112519865,0.553268601273934,0.459491370686208,0.5,0.486115112519865,0.446731398726066,0.553268601273934,0,0,0,0,NaN,0,0,0,0.5,0.0277697749602709,1.09636138825648,2.79380343611911,2.60967758484938,0.5,66.9165939832021
CBC_1002,CBC_1002_MSI_AV_v3_Vset4_Aset2_2023-05-31_16h22.12.197.csv,2,38,3,1,b,1,0,2,aud,D,27,1,3D,1D,NaN,NaN,[],NaN,NaN,NaN,NaN,NaN,,,D31,3.27714473299218,0.561691779581315,0.472615805240401,0.5,0.486115112519865,0.486115112519865,0.512738854353521,0.5,0.486115112519865,0.486115112519865,0.486115112519865,0.553268601273934,0.459491370686208,0.5,0.486115112519865,0.446731398726066,0.553268601273934,0,0,0,0,NaN,0,0,0,0.5,0.0277697749602709,1.09636138825648,2.79380343611911,2.60967758484938,0.5,66.9165939832021
CBC_1002,CBC_1002_MSI_AV_v3_Vset4_Aset2_2023-05-31_16h22.12.197.csv,2,39,0,1,z,0,1,1,aud,B,63,1,0B,1B,0,1,z,1.7949821000002,0,1,1,1,1B,0B,B01,2.60268968544438,0.561691779581315,0.472615805240401,0.5,0.486115112519865,0.486115112519865,0.512738854353521,0.5,0.486115112519865,0.486115112519865,0.486115112519865,0.553268601273934,0.459491370686208,0.5,0.486115112519865,0.446731398726066,0.553268601273934,0.526604918581398,0.473395081418602,0.512738854353521,0.486115112519865,0.317024964652139,0.595046036518067,0.487261145646479,0.0135311323614865,0.5,0.0277697749602709,1.09636138825648,2.79380343611911,2.60967758484938,0.5,66.9165939832021
CBC_1002,CBC_1002_MSI_AV_v3_Vset4_Aset2_2023-05-31_16h22.12.197.csv,2,40,2,3,b,1,0,3,aud,C,63,1,2C,3C,1,0,z,2.1917246999983,0,1,0,0,3C,2C,C23,2.90872089656436,0.561691779581315,0.472615805240401,0.5,0.486115112519865,0.486115112519865,0.526269986715008,0.5,0.486115112519865,0.486115112519865,0.486115112519865,0.553268601273934,0.459491370686208,0.5,0.486115112519865,0.446731398726066,0.553268601273934,0.407025267067896,0.592974732932104,0.459491370686208,0.553268601273934,0.0905947945972089,0.20425360866391,-0.459491370686208,-0.0127599719601424,0.5,0.0277697749602709,1.09636138825648,2.79380343611911,2.60967758484938,0.5,66.9165939832021
CBC_1002,CBC_1002_MSI_AV_v3_Vset4_Aset2_2023-05-31_16h22.12.197.csv,2,41,2,0,z,0,1,0,aud,A,27,1,2A,0A,0,1,z,2.24036490000071,0,1,1,1,0A,2A,A20,3.3322045101752,0.561691779581315,0.472615805240401,0.5,0.486115112519865,0.486115112519865,0.526269986715008,0.5,0.486115112519865,0.486115112519865,0.486115112519865,0.553268601273934,0.446731398726066,0.5,0.486115112519865,0.446731398726066,0.553268601273934,0.561691779581315,0.438308220418685,0.561691779581315,0.5,0.294506398404601,0.712247643366259,0.438308220418685,0.0121717206442637,0.5,0.0277697749602709,1.09636138825648,2.79380343611911,2.60967758484938,0.5,66.9165939832021
CBC_1002,CBC_1002_MSI_AV_v3_Vset4_Aset2_2023-05-31_16h22.12.197.csv,2,42,3,2,b,1,0,2,aud,D,63,1,3D,2D,1,0,b,1.76541460000044,1,0,1,1,3D,2D,D32,3.3499040872746,0.573863500225579,0.472615805240401,0.5,0.486115112519865,0.486115112519865,0.526269986715008,0.5,0.486115112519865,0.486115112519865,0.486115112519865,0.553268601273934,0.446731398726066,0.5,0.486115112519865,0.446731398726066,0.553268601273934,0.605341557381332,0.394658442618668,0.553268601273934,0.446731398726066,0.511144015855605,0.822597648849681,0.446731398726066,0.0124056304103099,0.5,0.0277697749602709,1.09636138825648,2.79380343611911,2.60967758484938,0.5,66.9165939832021
CBC_1002,CBC_1002_MSI_AV_v3_Vset4_Aset2_2023-05-31_16h22.12.197.csv,2,43,3,1,z,0,1,1,aud,B,27,1,3B,1B,NaN,NaN,[],NaN,NaN,NaN,NaN,NaN,,,B31,4.06044301054642,0.573863500225579,0.472615805240401,0.5,0.486115112519865,0.486115112519865,0.526269986715008,0.5,0.486115112519865,0.486115112519865,0.486115112519865,0.553268601273934,0.446731398726066,0.5,0.486115112519865,0.446731398726066,0.565674231684244,0,0,0,0,NaN,0,0,0,0.5,0.0277697749602709,1.09636138825648,2.79380343611911,2.60967758484938,0.5,66.9165939832021
CBC_1002,CBC_1002_MSI_AV_v3_Vset4_Aset2_2023-05-31_16h22.12.197.csv,2,44,2,3,b,1,0,3,aud,C,63,1,2C,3C,1,0,b,2.30506380000043,1,0,1,1,2C,3C,C23,2.69124308278583,0.573863500225579,0.472615805240401,0.5,0.486115112519865,0.486115112519865,0.526269986715008,0.5,0.486115112519865,0.486115112519865,0.486115112519865,0.553268601273934,0.446731398726066,0.5,0.486115112519865,0.446731398726066,0.565674231684244,0.605341557381332,0.394658442618668,0.553268601273934,0.446731398726066,0.335172697942896,0.823215076128979,0.446731398726066,0.0124056304103099,0.5,0.0277697749602709,1.09636138825648,2.79380343611911,2.60967758484938,0.5,66.9165939832021
CBC_1002,CBC_1002_MSI_TV_v3_Vset6_Tset1_2023-05-31_17h12.40.954.csv,3,1,1,0,b,1,0,1,tac,B,63,1,1B,0B,1,0,z,2.33809720000136,0,1,0,0,0B,1B,B10,2.77258872223978,0.5,0.5,0.5,0.5,0.5,0.5,0.5,0.5,0.5,0.5,0.5,0.5,0.5,0.5,0.5,0.5,0.5,0.5,0.5,0.5,0.159540138423779,0.500012009095729,-0.5,-0.483105853412466,0.5,0.966211706824931,0.979382918853468,0.253323961830867,2.1530251263095,0.5,73.5241990240407
CBC_1002,CBC_1002_MSI_TV_v3_Vset6_Tset1_2023-05-31_17h12.40.954.csv,3,2,0,1,b,1,0,0,tac,A,63,1,0A,1A,1,0,b,3.02907140000207,1,0,1,1,0A,1A,A01,2.83321334405622,0.5,0.5,0.5,0.5,0.0168941465875345,0.5,0.5,0.5,0.5,0.5,0.5,0.5,0.5,0.5,0.5,0.5,0.5,0.5,0.5,0.5,0.076265115659791,0.498753638350677,0.5,0.483105853412466,0.5,0.966211706824931,0.979382918853468,0.253323961830867,2.1530251263095,0.5,73.5241990240407
CBC_1002,CBC_1002_MSI_TV_v3_Vset6_Tset1_2023-05-31_17h12.40.954.csv,3,3,1,2,z,0,1,3,tac,C,9,1,1C,2C,0,1,z,2.47580490000109,0,1,1,1,2C,1C,C12,2.89037175789616,0.983105853412465,0.5,0.5,0.5,0.0168941465875345,0.5,0.5,0.5,0.5,0.5,0.5,0.5,0.5,0.5,0.5,0.5,0.5,0.5,0.5,0.5,0.137848158622775,0.50023022013094,0.5,0.483105853412466,0.5,0.966211706824931,0.979382918853468,0.253323961830867,2.1530251263095,0.5,73.5241990240407
CBC_1002,CBC_1002_MSI_TV_v3_Vset6_Tset1_2023-05-31_17h12.40.954.csv,3,4,1,0,z,0,1,0,tac,A,63,1,1A,0A,0,1,z,2.70095760000186,0,1,1,1,0A,1A,A10,2.94443897916644,0.983105853412465,0.5,0.5,0.5,0.0168941465875345,0.5,0.5,0.5,0.5,0.5,0.983105853412465,0.5,0.5,0.5,0.5,0.5,0.983105853412465,0.0168941465875345,0.983105853412465,0.5,0.133903418873887,0.628155505019463,0.0168941465875345,0.0163233222096923,0.5,0.966211706824931,0.979382918853468,0.253323961830867,2.1530251263095,0.5,73.5241990240407
CBC_1002,CBC_1002_MSI_TV_v3_Vset6_Tset1_2023-05-31_17h12.40.954.csv,3,5,3,1,b,1,0,2,tac,D,27,1,3D,1D,1,0,b,2.45134560000042,1,0,1,1,3D,1D,D31,2.99573227355399,0.999429175622158,0.5,0.5,0.5,0.0168941465875345,0.5,0.5,0.5,0.5,0.5,0.983105853412465,0.5,0.5,0.5,0.5,0.5,0.5,0.5,0.5,0.5,0.141225719066714,0.499315859834481,0.5,0.483105853412466,0.5,0.966211706824931,0.979382918853468,0.253323961830867,2.1530251263095,0.5,73.5241990240407
CBC_1002,CBC_1002_MSI_TV_v3_Vset6_Tset1_2023-05-31_17h12.40.954.csv,3,6,0,1,z,0,1,1,tac,B,63,1,0B,1B,0,1,z,2.92743830000109,0,1,1,1,1B,0B,B01,3.04452243772342,0.999429175622158,0.5,0.5,0.5,0.0168941465875345,0.5,0.5,0.5,0.5,0.5,0.983105853412465,0.5,0.5,0.5,0.5,0.983105853412465,0.983105853412465,0.0168941465875345,0.5,0.0168941465875345,0.104593125951922,0.628805250056688,0.5,0.483105853412466,0.5,0.966211706824931,0.979382918853468,0.253323961830867,2.1530251263095,0.5,73.5241990240407
CBC_1002,CBC_1002_MSI_TV_v3_Vset6_Tset1_2023-05-31_17h12.40.954.csv,3,7,2,3,b,1,0,3,tac,C,63,1,2C,3C,1,0,z,3.31804630000079,0,1,0,0,3C,2C,C23,3.09104245335832,0.999429175622158,0.5,0.5,0.5,0.0168941465875345,0.983105853412465,0.5,0.5,0.5,0.5,0.983105853412465,0.5,0.5,0.5,0.5,0.983105853412465,0.0168941465875345,0.983105853412465,0.5,0.983105853412465,0.040207786900441,0.370771484027565,-0.5,-0.483105853412466,0.5,0.966211706824931,0.979382918853468,0.253323961830867,2.1530251263095,0.5,73.5241990240407
CBC_1002,CBC_1002_MSI_TV_v3_Vset6_Tset1_2023-05-31_17h12.40.954.csv,3,8,2,0,z,0,1,0,tac,A,27,1,2A,0A,0,1,z,2.2834238000014,0,1,1,1,0A,2A,A20,3.13549421592915,0.999429175622158,0.5,0.5,0.5,0.0168941465875345,0.983105853412465,0.5,0.5,0.5,0.5,0.983105853412465,0.0168941465875345,0.5,0.5,0.5,0.983105853412465,0.999429175622158,0.000570824377842172,0.999429175622158,0.5,0.212636651223392,0.631907683681904,0.000570824377842172,0.000551537196412164,0.5,0.966211706824931,0.979382918853468,0.253323961830867,2.1530251263095,0.5,73.5241990240407
CBC_1002,CBC_1002_MSI_TV_v3_Vset6_Tset1_2023-05-31_17h12.40.954.csv,3,9,3,2,b,1,0,2,tac,D,63,1,3D,2D,1,0,b,2.6385132000014,1,0,1,1,3D,2D,D32,3.17805383034795,0.99998071281857,0.5,0.5,0.5,0.0168941465875345,0.983105853412465,0.5,0.5,0.5,0.5,0.983105853412465,0.0168941465875345,0.5,0.5,0.5,0.983105853412465,0.983105853412465,0.0168941465875345,0.983105853412465,0.5,0.143371203429503,0.628149220774177,0.0168941465875345,0.0163233222096923,0.5,0.966211706824931,0.979382918853468,0.253323961830867,2.1530251263095,0.5,73.5241990240407
CBC_1002,CBC_1002_MSI_TV_v3_Vset6_Tset1_2023-05-31_17h12.40.954.csv,3,10,3,1,z,0,1,1,tac,B,27,1,3B,1B,0,1,z,2.49450160000197,0,1,1,1,1B,3B,B31,3.2188758248682,0.99998071281857,0.5,0.5,0.5,0.0168941465875345,0.983105853412465,0.5,0.5,0.5,0.5,0.983105853412465,0.0168941465875345,0.5,0.5,0.5,0.999429175622158,0.983105853412465,0.0168941465875345,0.983105853412465,0.5,0.168150338145747,0.629464973499363,0.0168941465875345,0.0163233222096923,0.5,0.966211706824931,0.979382918853468,0.253323961830867,2.1530251263095,0.5,73.5241990240407
CBC_1002,CBC_1002_MSI_TV_v3_Vset6_Tset1_2023-05-31_17h12.40.954.csv,3,11,3,2,z,0,1,3,tac,C,63,1,3C,2C,0,1,b,2.01906540000164,1,0,0,0,3C,2C,C32,3.25809653802148,0.99998071281857,0.5,0.5,0.5,0.0168941465875345,0.999429175622158,0.5,0.5,0.5,0.5,0.983105853412465,0.0168941465875345,0.5,0.5,0.5,0.999429175622158,0.000295218603677109,0.999704781396323,0.0168941465875345,0.983105853412465,0.165026740856261,0.367180475161382,-0.0168941465875345,-0.0163233222096923,0.5,0.966211706824931,0.979382918853468,0.253323961830867,2.1530251263095,0.5,73.5241990240407
CBC_1002,CBC_1002_MSI_TV_v3_Vset6_Tset1_2023-05-31_17h12.40.954.csv,3,12,1,3,b,1,0,1,tac,B,27,1,1B,3B,1,0,z,2.20542430000023,0,1,0,0,3B,1B,B13,3.29583686600433,0.99998071281857,0.5,0.5,0.5,0.0168941465875345,0.999429175622158,0.5,0.5,0.5,0.5,0.983105853412465,0.000570824377842206,0.5,0.5,0.5,0.999429175622158,0.000570824377842172,0.999429175622158,0.5,0.999429175622158,0.134589212558136,0.367225871477376,-0.5,-0.483105853412466,0.5,0.966211706824931,0.979382918853468,0.253323961830867,2.1530251263095,0.5,73.5241990240407
CBC_1002,CBC_1002_MSI_TV_v3_Vset6_Tset1_2023-05-31_17h12.40.954.csv,3,13,3,2,z,0,1,3,tac,C,63,1,3C,2C,0,1,z,2.31810980000228,0,1,1,1,2C,3C,C32,2.63905732961526,0.99998071281857,0.5,0.5,0.5,0.0168941465875345,0.999429175622158,0.5,0.0168941465875345,0.5,0.5,0.983105853412465,0.000570824377842206,0.5,0.5,0.5,0.999429175622158,0.999990185183093,9.81481690716415e-06,0.983105853412465,0.000570824377842206,0.205237893591975,0.63366410956997,0.0168941465875345,0.0163233222096923,0.5,0.966211706824931,0.979382918853468,0.253323961830867,2.1530251263095,0.5,73.5241990240407
CBC_1002,CBC_1002_MSI_TV_v3_Vset6_Tset1_2023-05-31_17h12.40.954.csv,3,14,3,2,b,1,0,2,tac,D,63,1,3D,2D,1,0,z,2.32698890000211,0,1,0,0,2D,3D,D32,2.67414864942653,0.99998071281857,0.5,0.5,0.5,0.0168941465875345,0.999429175622158,0.5,0.0168941465875345,0.5,0.5,0.999429175622158,0.000570824377842206,0.5,0.5,0.5,0.999429175622158,0.000570824377842172,0.999429175622158,0.5,0.999429175622158,0.117645929790553,0.366764180500138,-0.5,-0.483105853412466,0.5,0.966211706824931,0.979382918853468,0.253323961830867,2.1530251263095,0.5,73.5241990240407
CBC_1002,CBC_1002_MSI_TV_v3_Vset6_Tset1_2023-05-31_17h12.40.954.csv,3,15,0,3,b,1,0,0,tac,A,9,1,0A,3A,1,0,b,1.61212570000134,1,0,1,1,0A,3A,A03,3.40119738166216,0.99998071281857,0.5,0.5,0.5,0.0168941465875345,0.999429175622158,0.5,0.0168941465875345,0.5,0.5,0.999429175622158,0.000570824377842206,0.5,0.5,0.0168941465875345,0.999429175622158,0.99998071281857,1.92871814299611e-05,0.99998071281857,0.5,0.438999455843768,0.633479498538337,1.92871814299611e-05,1.86355004892848e-05,0.5,0.966211706824931,0.979382918853468,0.253323961830867,2.1530251263095,0.5,73.5241990240407
CBC_1002,CBC_1002_MSI_TV_v3_Vset6_Tset1_2023-05-31_17h12.40.954.csv,3,16,0,1,z,0,1,1,tac,B,63,0,0B,1B,1,0,z,1.50462030000017,0,1,1,0,1B,0B,B01,2.7408400239252,0.999999348319059,0.5,0.5,0.5,0.0168941465875345,0.999429175622158,0.5,0.0168941465875345,0.5,0.5,0.999429175622158,0.000570824377842206,0.5,0.5,0.0168941465875345,0.999429175622158,0.999990185183093,9.81481690716352e-06,0.999429175622158,0.0168941465875345,0.48363375322093,0.633447193875138,-0.999429175622158,-0.965660169628519,0.5,0.966211706824931,0.979382918853468,0.253323961830867,2.1530251263095,0.5,73.5241990240407
CBC_1002,CBC_1002_MSI_TV_v3_Vset6_Tset1_2023-05-31_17h12.40.954.csv,3,17,2,3,z,0,1,2,tac,D,63,1,2D,3D,0,1,b,2.36206190000121,1,0,0,0,2D,3D,D23,3.46573590279973,0.999999348319059,0.5,0.5,0.5,0.0168941465875345,0.033769005993639,0.5,0.0168941465875345,0.5,0.5,0.999429175622158,0.000570824377842206,0.5,0.5,0.0168941465875345,0.999429175622158,9.81481690716352e-06,0.999990185183093,0.0168941465875345,0.999429175622158,0.113308997746478,0.36707851926727,-0.0168941465875345,-0.0163233222096923,0.5,0.966211706824931,0.979382918853468,0.253323961830867,2.1530251263095,0.5,73.5241990240407
CBC_1002,CBC_1002_MSI_TV_v3_Vset6_Tset1_2023-05-31_17h12.40.954.csv,3,18,0,2,z,0,1,3,tac,C,27,1,0C,2C,0,1,z,2.35732000000098,0,1,1,1,2C,0C,C02,3.49650756146648,0.999999348319059,0.5,0.5,0.5,0.0168941465875345,0.033769005993639,0.5,0.0168941465875345,0.5,0.5,0.999429175622158,0.000570824377842206,0.5,0.5,0.000570824377842206,0.999429175622158,0.999429175622158,0.000570824377842172,0.999429175622158,0.5,0.19602195358704,0.631644390281682,0.000570824377842172,0.000551537196412164,0.5,0.966211706824931,0.979382918853468,0.253323961830867,2.1530251263095,0.5,73.5241990240407
CBC_1002,CBC_1002_MSI_TV_v3_Vset6_Tset1_2023-05-31_17h12.40.954.csv,3,19,0,1,b,1,0,0,tac,A,63,1,0A,1A,1,0,b,1.85151530000076,1,0,1,1,0A,1A,A01,2.83321334405622,0.999999348319059,0.5,0.5,0.5,0.0168941465875345,0.033769005993639,0.5,0.0168941465875345,0.5,0.5,0.99998071281857,0.000570824377842206,0.5,0.5,0.000570824377842206,0.999429175622158,0.999999348319059,6.51680940655375e-07,0.999999348319059,0.5,0.341848880642679,0.633734039762686,6.51680940655375e-07,6.29661753975906e-07,0.5,0.966211706824931,0.979382918853468,0.253323961830867,2.1530251263095,0.5,73.5241990240407
CBC_1002,CBC_1002_MSI_TV_v3_Vset6_Tset1_2023-05-31_17h12.40.954.csv,3,20,1,0,b,1,0,1,tac,B,63,1,1B,0B,1,0,b,2.55164630000036,1,0,1,1,1B,0B,B10,2.86220088092947,0.999999977980813,0.5,0.5,0.5,0.0168941465875345,0.033769005993639,0.5,0.0168941465875345,0.5,0.5,0.99998071281857,0.000570824377842206,0.5,0.5,0.000570824377842206,0.999429175622158,0.67037686701575,0.32962313298425,0.033769005993639,0.0168941465875345,0.138465466406524,0.545533118013961,0.966230994006361,0.933583697906036,0.5,0.966211706824931,0.979382918853468,0.253323961830867,2.1530251263095,0.5,73.5241990240407
CBC_1002,CBC_1002_MSI_TV_v3_Vset6_Tset1_2023-05-31_17h12.40.954.csv,3,21,1,3,z,0,1,2,tac,D,27,1,1D,3D,0,1,z,1.79573119999986,0,1,1,1,3D,1D,D13,3.58351893845611,0.999999977980813,0.5,0.5,0.5,0.0168941465875345,0.967352703899675,0.5,0.0168941465875345,0.5,0.5,0.99998071281857,0.000570824377842206,0.5,0.5,0.000570824377842206,0.999429175622158,0.999429175622158,0.000570824377842172,0.999429175622158,0.5,0.36226021304484,0.632518919325463,0.000570824377842172,0.000551537196412164,0.5,0.966211706824931,0.979382918853468,0.253323961830867,2.1530251263095,0.5,73.5241990240407
CBC_1002,CBC_1002_MSI_TV_v3_Vset6_Tset1_2023-05-31_17h12.40.954.csv,3,22,3,2,z,0,1,3,tac,C,63,1,3C,2C,0,1,z,1.88011060000099,0,1,1,1,2C,3C,C32,2.51230562397611,0.999999977980813,0.5,0.5,0.5,0.0168941465875345,0.967352703899675,0.5,0.0168941465875345,0.5,0.5,0.99998071281857,0.000570824377842206,0.5,0.5,0.000570824377842206,0.99998071281857,0.999999988983906,1.10160938218242e-08,0.99998071281857,0.000570824377842206,0.330872589514833,0.632759395521872,1.92871814299611e-05,1.86355004892848e-05,0.5,0.966211706824931,0.979382918853468,0.253323961830867,2.1530251263095,0.5,73.5241990240407
CBC_1002,CBC_1002_MSI_TV_v3_Vset6_Tset1_2023-05-31_17h12.40.954.csv,3,23,0,1,b,1,0,0,tac,A,63,1,0A,1A,1,0,b,1.37910180000108,1,0,1,1,0A,1A,A01,2.53897387105828,0.999999977980813,0.5,0.5,0.5,0.0168941465875345,0.967352703899675,0.5,0.0168941465875345,0.5,0.5,0.999999348319059,0.000570824377842206,0.5,0.5,0.000570824377842206,0.99998071281857,0.999999977980813,2.20191866961983e-08,0.999999977980813,0.5,0.516875513811959,0.632830979701221,2.20191866961983e-08,2.12751959606306e-08,0.5,0.966211706824931,0.979382918853468,0.253323961830867,2.1530251263095,0.5,73.5241990240407
CBC_1002,CBC_1002_MSI_TV_v3_Vset6_Tset1_2023-05-31_17h12.40.954.csv,3,24,2,3,z,0,1,2,tac,D,63,1,2D,3D,0,1,b,2.26263090000066,1,0,0,0,2D,3D,D23,2.9704144655697,0.999999999256009,0.5,0.5,0.5,0.0168941465875345,0.967352703899675,0.5,0.0168941465875345,0.5,0.5,0.999999348319059,0.000570824377842206,0.5,0.5,0.000570824377842206,0.99998071281857,1.10160938218242e-08,0.999999988983906,0.000570824377842206,0.99998071281857,0.125990281058075,0.366038945086447,-0.000570824377842206,-0.000551537196412198,0.5,0.966211706824931,0.979382918853468,0.253323961830867,2.1530251263095,0.5,73.5241990240407
CBC_1002,CBC_1002_MSI_TV_v3_Vset6_Tset1_2023-05-31_17h12.40.954.csv,3,25,2,0,b,1,0,3,tac,C,27,1,2C,0C,1,0,z,1.88423610000245,0,1,0,0,0C,2C,C20,3.68887945411394,0.999999999256009,0.5,0.5,0.5,0.0168941465875345,0.967352703899675,0.5,0.0168941465875345,0.5,0.5,0.999999348319059,0.000570824377842206,0.5,0.5,1.92871814300088e-05,0.99998071281857,6.51680940655375e-07,0.999999348319059,0.5,0.999999348319059,0.191181323213416,0.367254860760286,-0.5,-0.483105853412466,0.5,0.966211706824931,0.979382918853468,0.253323961830867,2.1530251263095,0.5,73.5241990240407
CBC_1002,CBC_1002_MSI_TV_v3_Vset6_Tset1_2023-05-31_17h12.40.954.csv,3,26,0,1,b,1,0,0,tac,A,63,1,0A,1A,1,0,b,1.1272893000023,1,0,1,1,0A,1A,A01,2.32727770558442,0.999999999256009,0.5,0.5,0.5,0.0168941465875345,0.967352703899675,0.5,0.0168941465875345,0.0168941465875345,0.5,0.999999348319059,0.000570824377842206,0.5,0.5,1.92871814300088e-05,0.99998071281857,0.999999999256009,7.4399075788989e-10,0.999999999256009,0.5,0.196384288582525,0.633271171441554,7.4399075788989e-10,7.18852580042764e-10,0.5,0.966211706824931,0.979382918853468,0.253323961830867,2.1530251263095,0.5,73.5241990240407
CBC_1002,CBC_1002_MSI_TV_v3_Vset6_Tset1_2023-05-31_17h12.40.954.csv,3,27,1,3,b,1,0,1,tac,B,27,1,1B,3B,1,0,b,2.3433580000019,1,0,1,1,1B,3B,B13,3.04452243772342,0.999999999974862,0.5,0.5,0.5,0.0168941465875345,0.967352703899675,0.5,0.0168941465875345,0.0168941465875345,0.5,0.999999348319059,0.000570824377842206,0.5,0.5,1.92871814300088e-05,0.99998071281857,0.99942037575406,0.000579624245940269,0.967352703899675,0.0168941465875345,0.199334687587963,0.632641068764163,0.0326472961003252,0.0315441996883142,0.5,0.966211706824931,0.979382918853468,0.253323961830867,2.1530251263095,0.5,73.5241990240407
CBC_1002,CBC_1002_MSI_TV_v3_Vset6_Tset1_2023-05-31_17h12.40.954.csv,3,28,3,2,z,0,1,3,tac,C,63,1,3C,2C,0,1,b,2.44878150000113,1,0,0,0,3C,2C,C32,2.37490575457367,0.999999999974862,0.5,0.5,0.5,0.0168941465875345,0.998896903587989,0.5,0.0168941465875345,0.0168941465875345,0.5,0.999999348319059,0.000570824377842206,0.5,0.5,1.92871814300088e-05,0.99998071281857,3.72208075228187e-10,0.999999999627792,0.000570824377842206,0.999999348319059,0.103063644390745,0.367185803597015,-0.000570824377842206,-0.000551537196412198,0.5,0.966211706824931,0.979382918853468,0.253323961830867,2.1530251263095,0.5,73.5241990240407
CBC_1002,CBC_1002_MSI_TV_v3_Vset6_Tset1_2023-05-31_17h12.40.954.csv,3,29,3,2,b,1,0,2,tac,D,63,1,3D,2D,1,0,z,2.64577470000222,0,1,0,0,2D,3D,D32,2.68557734525015,0.999999999974862,0.5,0.5,0.5,0.0168941465875345,0.998896903587989,0.5,0.0168941465875345,0.0168941465875345,0.5,0.999999348319059,1.92871814300088e-05,0.5,0.5,1.92871814300088e-05,0.99998071281857,3.72009645310811e-10,0.99999999962799,1.92871814300088e-05,0.99998071281857,0.0828120201565136,0.366260231046528,-1.92871814300088e-05,-1.86355004893309e-05,0.5,0.966211706824931,0.979382918853468,0.253323961830867,2.1530251263095,0.5,73.5241990240407
CBC_1002,CBC_1002_MSI_TV_v3_Vset6_Tset1_2023-05-31_17h12.40.954.csv,3,30,0,1,z,0,1,1,tac,B,63,1,0B,1B,0,1,b,1.51071720000073,1,0,0,0,0B,1B,B01,2.70805020110221,0.999999999974862,0.5,0.5,0.5,0.0168941465875345,0.998896903587989,0.5,0.0168941465875345,0.0168941465875345,0.5,0.999999348319059,1.92871814300088e-05,0.5,0.5,6.51680940677882e-07,0.99998071281857,1.89766933518044e-05,0.999981023306648,0.0168941465875345,0.998896903587989,0.278529738950799,0.366605414044863,-0.0168941465875345,-0.0163233222096923,0.5,0.966211706824931,0.979382918853468,0.253323961830867,2.1530251263095,0.5,73.5241990240407
CBC_1002,CBC_1002_MSI_TV_v3_Vset6_Tset1_2023-05-31_17h12.40.954.csv,3,31,2,0,z,0,1,0,tac,A,27,1,2A,0A,0,1,b,1.17759560000195,1,0,0,0,2A,0A,A20,3.13549421592915,0.999999999974862,0.5,0.5,0.5,0.000570824377842206,0.998896903587989,0.5,0.0168941465875345,0.0168941465875345,0.5,0.999999348319059,1.92871814300088e-05,0.5,0.5,6.51680940677882e-07,0.99998071281857,2.51382248350751e-11,0.999999999974862,0.5,0.999999999974862,0.198339989814834,0.367909403893512,-0.5,-0.483105853412466,0.5,0.966211706824931,0.979382918853468,0.253323961830867,2.1530251263095,0.5,73.5241990240407
CBC_1002,CBC_1002_MSI_TV_v3_Vset6_Tset1_2023-05-31_17h12.40.954.csv,3,32,3,0,b,1,0,2,tac,D,9,1,3D,0D,1,0,b,1.90783259999989,1,0,1,1,3D,0D,D30,3.85014760171006,0.999999999974862,0.5,0.0168941465875345,0.5,0.000570824377842206,0.998896903587989,0.5,0.0168941465875345,0.0168941465875345,0.5,0.999999348319059,1.92871814300088e-05,0.5,0.5,6.51680940677882e-07,0.99998071281857,0.99998071281857,1.92871814299611e-05,0.99998071281857,0.5,0.32152429649675,0.633616876634535,1.92871814299611e-05,1.86355004892848e-05,0.5,0.966211706824931,0.979382918853468,0.253323961830867,2.1530251263095,0.5,73.5241990240407
CBC_1002,CBC_1002_MSI_TV_v3_Vset6_Tset1_2023-05-31_17h12.40.954.csv,3,33,3,2,z,0,1,3,tac,C,63,1,3C,2C,0,1,z,2.25321580000127,0,1,1,1,2C,3C,C32,2.26176309847379,0.999999999974862,0.5,0.0168941465875345,0.5,0.000570824377842206,0.998896903587989,0.5,0.0168941465875345,0.0168941465875345,0.5,0.999999348319059,1.92871814300088e-05,0.5,0.5,6.51680940677882e-07,0.999999348319059,0.999999999987431,1.25693391549066e-11,0.999999348319059,1.92871814300088e-05,0.220234109048042,0.633239491519655,6.51680940655375e-07,6.29661753975906e-07,0.5,0.966211706824931,0.979382918853468,0.253323961830867,2.1530251263095,0.5,73.5241990240407
CBC_1002,CBC_1002_MSI_TV_v3_Vset6_Tset1_2023-05-31_17h12.40.954.csv,3,34,0,1,z,0,1,1,tac,B,63,1,0B,1B,0,1,z,1.97455180000179,0,1,1,1,1B,0B,B01,2.50552593699074,0.999999999974862,0.5,0.0168941465875345,0.5,0.000570824377842206,0.998896903587989,0.5,0.0168941465875345,0.0168941465875345,0.5,0.999999977980813,1.92871814300088e-05,0.5,0.5,6.51680940677882e-07,0.999999348319059,0.99999936927068,6.30729319699116e-07,0.998896903587989,0.000570824377842206,0.298605854814952,0.632863496425869,0.00110309641201112,0.00106582466704172,0.5,0.966211706824931,0.979382918853468,0.253323961830867,2.1530251263095,0.5,73.5241990240407
CBC_1002,CBC_1002_MSI_TV_v3_Vset6_Tset1_2023-05-31_17h12.40.954.csv,3,35,0,1,b,1,0,0,tac,A,63,0,0A,1A,0,1,b,1.16207510000095,1,0,1,0,0A,1A,A01,2.30258509299405,0.999999999974862,0.5,0.0168941465875345,0.5,0.000570824377842206,0.999962728255031,0.5,0.0168941465875345,0.0168941465875345,0.5,0.999999977980813,1.92871814300088e-05,0.5,0.5,6.51680940677882e-07,0.999999348319059,0.999999999974862,2.51382248350751e-11,0.999999999974862,0.5,0.300674128262558,0.632285004897089,-0.999999999974862,-0.966211706800642,0.5,0.966211706824931,0.979382918853468,0.253323961830867,2.1530251263095,0.5,73.5241990240407
CBC_1002,CBC_1002_MSI_TV_v3_Vset6_Tset1_2023-05-31_17h12.40.954.csv,3,36,2,3,z,0,1,2,tac,D,63,1,2D,3D,0,1,b,2.29646160000084,1,0,0,0,2D,3D,D23,2.83321334405622,0.0337882931742195,0.5,0.0168941465875345,0.5,0.000570824377842206,0.999962728255031,0.5,0.0168941465875345,0.0168941465875345,0.5,0.999999977980813,1.92871814300088e-05,0.5,0.5,6.51680940677882e-07,0.999999348319059,4.24688601950716e-13,0.999999999999575,6.51680940677882e-07,0.999999348319059,0.121623555665517,0.366686225065476,-6.51680940677882e-07,-6.29661753997653e-07,0.5,0.966211706824931,0.979382918853468,0.253323961830867,2.1530251263095,0.5,73.5241990240407
CBC_1002,CBC_1002_MSI_TV_v3_Vset6_Tset1_2023-05-31_17h12.40.954.csv,3,37,1,2,b,1,0,1,tac,B,9,1,1B,2B,1,0,z,2.23231690000102,0,1,0,0,2B,1B,B12,3.95124371858143,0.0337882931742195,0.5,0.0168941465875345,0.5,0.000570824377842206,0.999962728255031,0.5,0.0168941465875345,0.0168941465875345,0.5,0.999999977980813,1.92871814300088e-05,0.5,0.5,2.2019186680229e-08,0.999999348319059,3.72717449693694e-05,0.999962728255031,0.5,0.999962728255031,0.130561364291461,0.366897759300679,-0.5,-0.483105853412466,0.5,0.966211706824931,0.979382918853468,0.253323961830867,2.1530251263095,0.5,73.5241990240407
CBC_1002,CBC_1002_MSI_TV_v3_Vset6_Tset1_2023-05-31_17h12.40.954.csv,3,38,2,0,z,0,1,0,tac,A,27,1,2A,0A,0,1,z,1.34100040000158,0,1,1,1,0A,2A,A20,2.87167962488401,0.0337882931742195,0.5,0.0168941465875345,0.5,0.000570824377842206,0.999962728255031,0.0168941465875345,0.0168941465875345,0.0168941465875345,0.5,0.999999977980813,1.92871814300088e-05,0.5,0.5,2.2019186680229e-08,0.999999348319059,0.670507436837307,0.329492563162693,0.0337882931742195,0.0168941465875345,0.43610992443908,0.546525257279672,0.966211706825781,0.933565062406367,0.5,0.966211706824931,0.979382918853468,0.253323961830867,2.1530251263095,0.5,73.5241990240407
CBC_1002,CBC_1002_MSI_TV_v3_Vset6_Tset1_2023-05-31_17h12.40.954.csv,3,39,2,3,b,1,0,3,tac,C,63,1,2C,3C,1,0,z,1.86477949999971,0,1,0,0,3C,2C,C23,3.29583686600433,0.967353355580587,0.5,0.0168941465875345,0.5,0.000570824377842206,0.999962728255031,0.0168941465875345,0.0168941465875345,0.0168941465875345,0.5,0.999999977980813,1.92871814300088e-05,0.5,0.5,2.2019186680229e-08,0.999999348319059,4.24660306919122e-13,0.999999999999575,1.92871814300088e-05,0.999999977980813,0.194910858737663,0.366574284840414,-1.92871814300088e-05,-1.86355004893309e-05,0.5,0.966211706824931,0.979382918853468,0.253323961830867,2.1530251263095,0.5,73.5241990240407
CBC_1002,CBC_1002_MSI_TV_v3_Vset6_Tset1_2023-05-31_17h12.40.954.csv,3,40,1,3,z,0,1,2,tac,D,27,1,1D,3D,0,1,z,2.35802960000183,0,1,1,1,3D,1D,D13,3.31418600467253,0.967353355580587,0.5,0.0168941465875345,0.5,0.000570824377842206,0.999962728255031,0.0168941465875345,0.0168941465875345,0.0168941465875345,0.5,0.999999977980813,6.51680940677882e-07,0.5,0.5,2.2019186680229e-08,0.999999348319059,0.999999348319059,6.51680940655375e-07,0.999999348319059,0.5,0.196354408420966,0.633341822675895,6.51680940655375e-07,6.29661753975906e-07,0.5,0.966211706824931,0.979382918853468,0.253323961830867,2.1530251263095,0.5,73.5241990240407
CBC_1002,CBC_1002_MSI_TV_v3_Vset6_Tset1_2023-05-31_17h12.40.954.csv,3,41,0,1,b,1,0,0,tac,A,63,1,0A,1A,1,0,b,1.15649170000142,1,0,1,1,0A,1A,A01,2.23359222150709,0.967353355580587,0.5,0.0168941465875345,0.5,0.000570824377842206,0.999962728255031,0.0168941465875345,0.0168941465875345,0.0168941465875345,0.5,0.999999977980813,6.51680940677882e-07,0.5,0.5,2.2019186680229e-08,0.999999977980813,0.967353355580587,0.0326466444194132,0.967353355580587,0.5,0.280575527525951,0.624533834077163,0.0326466444194132,0.0315435700265879,0.5,0.966211706824931,0.979382918853468,0.253323961830867,2.1530251263095,0.5,73.5241990240407
CBC_1002,CBC_1002_MSI_TV_v3_Vset6_Tset1_2023-05-31_17h12.40.954.csv,3,42,0,2,z,0,1,3,tac,C,27,1,0C,2C,0,1,z,1.51424440000119,0,1,1,1,2C,0C,C02,3.3499040872746,0.998896925607175,0.5,0.0168941465875345,0.5,0.000570824377842206,0.999962728255031,0.0168941465875345,0.0168941465875345,0.0168941465875345,0.5,0.999999977980813,6.51680940677882e-07,0.5,0.5,2.2019186680229e-08,0.999999977980813,0.999999999621612,3.78387916766952e-10,0.999999977980813,0.0168941465875345,0.479186651139456,0.632668339219462,2.20191866961983e-08,2.12751959606306e-08,0.5,0.966211706824931,0.979382918853468,0.253323961830867,2.1530251263095,0.5,73.5241990240407
CBC_1002,CBC_1002_MSI_TV_v3_Vset6_Tset1_2023-05-31_17h12.40.954.csv,3,43,3,2,b,1,0,2,tac,D,63,1,3D,2D,1,0,z,2.12938000000031,0,1,0,0,2D,3D,D32,2.67414864942653,0.998896925607175,0.5,0.0168941465875345,0.5,0.000570824377842206,0.999962728255031,0.0168941465875345,0.0168941465875345,0.0168941465875345,0.5,0.999999999256009,6.51680940677882e-07,0.5,0.5,2.2019186680229e-08,0.999999977980813,4.44089209850063e-16,1,2.2019186680229e-08,0.999999977980813,0.145976788820297,0.366464643406204,-2.2019186680229e-08,-2.12751959452008e-08,0.5,0.966211706824931,0.979382918853468,0.253323961830867,2.1530251263095,0.5,73.5241990240407
CBC_1002,CBC_1002_MSI_TV_v3_Vset6_Tset1_2023-05-31_17h12.40.954.csv,3,44,1,0,b,1,0,1,tac,B,63,1,1B,0B,1,0,b,2.59006109999973,1,0,1,1,1B,0B,B10,2.97892515523761,0.998896925607175,0.5,0.0168941465875345,0.5,0.000570824377842206,0.999962728255031,0.0168941465875345,0.0168941465875345,0.0168941465875345,0.5,0.999999999256009,6.51680940677882e-07,0.5,0.5,7.43990735028149e-10,0.999999977980813,0.999999978711435,2.12885651329486e-08,0.999962728255031,0.000570824377842206,0.152389631722508,0.634082780661058,3.72717449693694e-05,3.60123963231979e-05,0.5,0.966211706824931,0.979382918853468,0.253323961830867,2.1530251263095,0.5,73.5241990240407
CBC_1002,CBC_1002_MSI_AV_v3_Vset3_Aset1_2023-05-31_17h20.54.856.csv,4,1,1,0,b,1,0,1,aud,B,63,1,1B,0B,1,0,b,2.06224270000166,1,0,1,1,1B,0B,B10,2.77258872223978,0.5,0.5,0.5,0.5,0.5,0.5,0.5,0.5,0.5,0.5,0.5,0.5,0.5,0.5,0.5,0.5,0.5,0.5,0.5,0.5,0.163053824233202,0.499930207708633,0.5,0.332400060661061,0.5,0.664800121322122,0.701059787585412,0.948269389550115,2.21925209793356,0.5,52.5419957674583
CBC_1002,CBC_1002_MSI_AV_v3_Vset3_Aset1_2023-05-31_17h20.54.856.csv,4,2,3,2,b,1,0,2,aud,D,63,1,3D,2D,1,0,z,2.26929200000268,0,1,0,0,2D,3D,D32,2.83321334405622,0.5,0.5,0.5,0.5,0.5,0.832400060661061,0.5,0.5,0.5,0.5,0.5,0.5,0.5,0.5,0.5,0.5,0.5,0.5,0.5,0.5,0.1325743873905,0.500168846328708,-0.5,-0.332400060661061,0.5,0.664800121322122,0.701059787585412,0.948269389550115,2.21925209793356,0.5,52.5419957674583
CBC_1002,CBC_1002_MSI_AV_v3_Vset3_Aset1_2023-05-31_17h20.54.856.csv,4,3,3,1,z,0,1,1,aud,B,27,1,3B,1B,0,1,z,2.39370660000168,0,1,1,1,1B,3B,B31,2.89037175789616,0.5,0.5,0.5,0.5,0.5,0.832400060661061,0.5,0.5,0.5,0.5,0.5,0.5,0.5,0.5,0.167599939338939,0.5,0.832400060661061,0.167599939338939,0.832400060661061,0.5,0.168223307494086,0.801733206370112,0.167599939338939,0.111420460006107,0.5,0.664800121322122,0.701059787585412,0.948269389550115,2.21925209793356,0.5,52.5419957674583
CBC_1002,CBC_1002_MSI_AV_v3_Vset3_Aset1_2023-05-31_17h20.54.856.csv,4,4,2,3,b,1,0,3,aud,C,63,1,2C,3C,1,0,b,1.92940550000276,1,0,1,1,2C,3C,C23,2.94443897916644,0.5,0.5,0.5,0.5,0.5,0.943820520667168,0.5,0.5,0.5,0.5,0.5,0.5,0.5,0.5,0.167599939338939,0.5,0.5,0.5,0.5,0.5,0.186170400592863,0.499723625257243,0.5,0.332400060661061,0.5,0.664800121322122,0.701059787585412,0.948269389550115,2.21925209793356,0.5,52.5419957674583
CBC_1002,CBC_1002_MSI_AV_v3_Vset3_Aset1_2023-05-31_17h20.54.856.csv,4,5,0,2,z,0,1,3,aud,C,27,1,0C,2C,0,1,z,1.5257414000007,0,1,1,1,2C,0C,C02,2.99573227355399,0.5,0.5,0.5,0.5,0.5,0.943820520667168,0.5,0.5,0.5,0.5,0.832400060661061,0.5,0.5,0.5,0.167599939338939,0.5,0.832400060661061,0.167599939338939,0.832400060661061,0.5,0.4751369036481,0.802130731890621,0.167599939338939,0.111420460006107,0.5,0.664800121322122,0.701059787585412,0.948269389550115,2.21925209793356,0.5,52.5419957674583
CBC_1002,CBC_1002_MSI_AV_v3_Vset3_Aset1_2023-05-31_17h20.54.856.csv,4,6,0,3,b,1,0,0,aud,A,9,1,0A,3A,1,0,b,2.04926400000113,1,0,1,1,0A,3A,A03,3.04452243772342,0.5,0.5,0.5,0.5,0.5,0.943820520667168,0.5,0.5,0.5,0.5,0.943820520667168,0.5,0.5,0.5,0.167599939338939,0.5,0.5,0.5,0.5,0.5,0.164882349611741,0.499008038791563,0.5,0.332400060661061,0.5,0.664800121322122,0.701059787585412,0.948269389550115,2.21925209793356,0.5,52.5419957674583
CBC_1002,CBC_1002_MSI_AV_v3_Vset3_Aset1_2023-05-31_17h20.54.856.csv,4,7,2,3,b,1,0,3,aud,C,63,1,2C,3C,1,0,b,1.7898509000006,1,0,1,1,2C,3C,C23,2.39789527279837,0.832400060661061,0.5,0.5,0.5,0.5,0.943820520667168,0.5,0.5,0.5,0.5,0.943820520667168,0.5,0.5,0.5,0.167599939338939,0.5,0.943820520667168,0.056179479332832,0.943820520667168,0.5,0.370617963968408,0.866438254729306,0.056179479332832,0.0373481246762803,0.5,0.664800121322122,0.701059787585412,0.948269389550115,2.21925209793356,0.5,52.5419957674583
CBC_1002,CBC_1002_MSI_AV_v3_Vset3_Aset1_2023-05-31_17h20.54.856.csv,4,8,1,0,z,0,1,0,aud,A,63,1,1A,0A,0,1,z,1.21237880000081,0,1,1,1,0A,1A,A10,3.13549421592915,0.832400060661061,0.5,0.5,0.5,0.5,0.943820520667168,0.5,0.5,0.5,0.5,0.981168645343448,0.5,0.5,0.5,0.167599939338939,0.5,0.832400060661061,0.167599939338939,0.832400060661061,0.5,0.660384221596527,0.802091230152639,0.167599939338939,0.111420460006107,0.5,0.664800121322122,0.701059787585412,0.948269389550115,2.21925209793356,0.5,52.5419957674583
CBC_1002,CBC_1002_MSI_AV_v3_Vset3_Aset1_2023-05-31_17h20.54.856.csv,4,9,2,3,z,0,1,2,aud,D,63,1,2D,3D,0,1,z,1.64772040000025,0,1,1,1,3D,2D,D23,3.17805383034795,0.943820520667168,0.5,0.5,0.5,0.5,0.943820520667168,0.5,0.5,0.5,0.5,0.981168645343448,0.5,0.5,0.5,0.167599939338939,0.5,0.832400060661061,0.167599939338939,0.5,0.167599939338939,0.411681908244023,0.802544053601654,0.5,0.332400060661061,0.5,0.664800121322122,0.701059787585412,0.948269389550115,2.21925209793356,0.5,52.5419957674583
CBC_1002,CBC_1002_MSI_AV_v3_Vset3_Aset1_2023-05-31_17h20.54.856.csv,4,10,3,2,z,0,1,3,aud,C,63,1,3C,2C,0,1,z,1.52079180000146,0,1,1,1,2C,3C,C32,3.2188758248682,0.943820520667168,0.5,0.5,0.5,0.5,0.943820520667168,0.5,0.5,0.5,0.5,0.981168645343448,0.5,0.5,0.5,0.167599939338939,0.832400060661061,0.981168645343448,0.0188313546565516,0.981168645343448,0.5,0.546794863087749,0.883551817269536,0.0188313546565516,0.0125190868603354,0.5,0.664800121322122,0.701059787585412,0.948269389550115,2.21925209793356,0.5,52.5419957674583
CBC_1002,CBC_1002_MSI_AV_v3_Vset3_Aset1_2023-05-31_17h20.54.856.csv,4,11,3,1,b,1,0,2,aud,D,27,1,3D,1D,1,0,b,2.84143030000087,1,0,1,1,3D,1D,D31,3.25809653802148,0.943820520667168,0.5,0.5,0.5,0.5,0.943820520667168,0.5,0.5,0.5,0.5,0.993687732203784,0.5,0.5,0.5,0.167599939338939,0.832400060661061,0.832400060661061,0.167599939338939,0.832400060661061,0.5,0.0982870670628696,0.8018340431586,0.167599939338939,0.111420460006107,0.5,0.664800121322122,0.701059787585412,0.948269389550115,2.21925209793356,0.5,52.5419957674583
CBC_1002,CBC_1002_MSI_AV_v3_Vset3_Aset1_2023-05-31_17h20.54.856.csv,4,12,0,1,b,1,0,0,aud,A,63,0,0A,1A,0,1,b,0.966707800002041,1,0,1,0,0A,1A,A01,3.29583686600433,0.943820520667168,0.5,0.5,0.5,0.5,0.943820520667168,0.5,0.5,0.5,0.5,0.993687732203784,0.5,0.5,0.5,0.167599939338939,0.943820520667168,0.943820520667168,0.056179479332832,0.943820520667168,0.5,0.736327938917268,0.86566016830543,-0.943820520667168,-0.627451996645842,0.5,0.664800121322122,0.701059787585412,0.948269389550115,2.21925209793356,0.5,52.5419957674583
CBC_1002,CBC_1002_MSI_AV_v3_Vset3_Aset1_2023-05-31_17h20.54.856.csv,4,13,3,2,z,0,1,3,aud,C,63,1,3C,2C,0,1,z,1.46798470000067,0,1,1,1,2C,3C,C32,2.63905732961526,0.316368524021326,0.5,0.5,0.5,0.5,0.943820520667168,0.5,0.5,0.5,0.5,0.993687732203784,0.5,0.5,0.5,0.167599939338939,0.943820520667168,0.993687732203784,0.00631226779621619,0.993687732203784,0.5,0.593716097023753,0.888934065287353,0.00631226779621619,0.00419639639674225,0.5,0.664800121322122,0.701059787585412,0.948269389550115,2.21925209793356,0.5,52.5419957674583
CBC_1002,CBC_1002_MSI_AV_v3_Vset3_Aset1_2023-05-31_17h20.54.856.csv,4,14,2,0,z,0,1,0,aud,A,27,1,2A,0A,0,1,z,1.39500660000158,0,1,1,1,0A,2A,A20,3.36729582998647,0.316368524021326,0.5,0.5,0.5,0.5,0.943820520667168,0.5,0.5,0.5,0.5,0.997884128600526,0.5,0.5,0.5,0.167599939338939,0.943820520667168,0.316368524021326,0.683631475978674,0.316368524021326,0.5,0.204902188588913,0.315789527954881,0.683631475978674,0.454478288170244,0.5,0.664800121322122,0.701059787585412,0.948269389550115,2.21925209793356,0.5,52.5419957674583
CBC_1002,CBC_1002_MSI_AV_v3_Vset3_Aset1_2023-05-31_17h20.54.856.csv,4,15,1,0,b,1,0,1,aud,B,63,1,1B,0B,1,0,b,1.74498110000059,1,0,1,1,1B,0B,B10,2.70805020110221,0.77084681219157,0.5,0.5,0.5,0.5,0.943820520667168,0.5,0.5,0.5,0.5,0.997884128600526,0.5,0.5,0.5,0.167599939338939,0.943820520667168,0.943820520667168,0.056179479332832,0.943820520667168,0.5,0.393668000947335,0.866061843877272,0.056179479332832,0.0373481246762803,0.5,0.664800121322122,0.701059787585412,0.948269389550115,2.21925209793356,0.5,52.5419957674583
CBC_1002,CBC_1002_MSI_AV_v3_Vset3_Aset1_2023-05-31_17h20.54.856.csv,4,16,2,3,z,0,1,2,aud,D,63,1,2D,3D,0,1,z,1.77753130000201,0,1,1,1,3D,2D,D23,2.7408400239252,0.77084681219157,0.5,0.5,0.5,0.5,0.981168645343448,0.5,0.5,0.5,0.5,0.997884128600526,0.5,0.5,0.5,0.167599939338939,0.943820520667168,0.988157154391916,0.0118428456080837,0.943820520667168,0.167599939338939,0.38190914894162,0.886817128164098,0.056179479332832,0.0373481246762803,0.5,0.664800121322122,0.701059787585412,0.948269389550115,2.21925209793356,0.5,52.5419957674583
CBC_1002,CBC_1002_MSI_AV_v3_Vset3_Aset1_2023-05-31_17h20.54.856.csv,4,17,2,1,z,0,1,1,aud,B,9,1,2B,1B,0,1,z,0.965315300001748,0,1,1,1,1B,2B,B21,3.46573590279973,0.77084681219157,0.5,0.5,0.5,0.5,0.981168645343448,0.5,0.5,0.5,0.5,0.997884128600526,0.5,0.5,0.5,0.167599939338939,0.981168645343448,0.981168645343448,0.0188313546565516,0.981168645343448,0.5,0.782563040895114,0.883576459724775,0.0188313546565516,0.0125190868603354,0.5,0.664800121322122,0.701059787585412,0.948269389550115,2.21925209793356,0.5,52.5419957674583
CBC_1002,CBC_1002_MSI_AV_v3_Vset3_Aset1_2023-05-31_17h20.54.856.csv,4,18,3,1,b,1,0,2,aud,D,27,1,3D,1D,1,0,b,1.39662040000076,1,0,1,1,3D,1D,D31,2.80336038090653,0.77084681219157,0.5,0.5,0.5,0.5,0.993687732203784,0.5,0.5,0.5,0.5,0.997884128600526,0.5,0.5,0.5,0.167599939338939,0.981168645343448,0.981168645343448,0.0188313546565516,0.981168645343448,0.5,0.647301543758667,0.88344387250928,0.0188313546565516,0.0125190868603354,0.5,0.664800121322122,0.701059787585412,0.948269389550115,2.21925209793356,0.5,52.5419957674583
CBC_1002,CBC_1002_MSI_AV_v3_Vset3_Aset1_2023-05-31_17h20.54.856.csv,4,19,1,0,z,0,1,0,aud,A,63,1,1A,0A,0,1,z,1.49231930000133,0,1,1,1,0A,1A,A10,2.83321334405622,0.77084681219157,0.5,0.5,0.5,0.5,0.993687732203784,0.5,0.5,0.5,0.5,0.997884128600526,0.5,0.5,0.5,0.167599939338939,0.993687732203784,0.77084681219157,0.22915318780843,0.77084681219157,0.5,0.457428134145741,0.757671667152571,0.22915318780843,0.152341067056395,0.5,0.664800121322122,0.701059787585412,0.948269389550115,2.21925209793356,0.5,52.5419957674583
CBC_1002,CBC_1002_MSI_AV_v3_Vset3_Aset1_2023-05-31_17h20.54.856.csv,4,20,0,1,b,1,0,0,aud,A,63,1,0A,1A,1,0,b,1.41829510000207,1,0,1,1,0A,1A,A01,2.86220088092947,0.923187879247965,0.5,0.5,0.5,0.5,0.993687732203784,0.5,0.5,0.5,0.5,0.997884128600526,0.5,0.5,0.5,0.167599939338939,0.993687732203784,0.923187879247965,0.0768121207520347,0.923187879247965,0.5,0.595145532879389,0.85550191306992,0.0768121207520347,0.0510647071949622,0.5,0.664800121322122,0.701059787585412,0.948269389550115,2.21925209793356,0.5,52.5419957674583
CBC_1002,CBC_1002_MSI_AV_v3_Vset3_Aset1_2023-05-31_17h20.54.856.csv,4,21,0,2,z,0,1,3,aud,C,27,1,0C,2C,0,1,z,1.06797990000086,0,1,1,1,2C,0C,C02,2.89037175789616,0.974252586442927,0.5,0.5,0.5,0.5,0.993687732203784,0.5,0.5,0.5,0.5,0.997884128600526,0.5,0.5,0.5,0.167599939338939,0.993687732203784,0.997884128600526,0.00211587139947389,0.997884128600526,0.5,0.901076530062341,0.890607597835322,0.00211587139947389,0.00140663156307225,0.5,0.664800121322122,0.701059787585412,0.948269389550115,2.21925209793356,0.5,52.5419957674583
CBC_1002,CBC_1002_MSI_AV_v3_Vset3_Aset1_2023-05-31_17h20.54.856.csv,4,22,1,0,b,1,0,1,aud,B,63,1,1B,0B,1,0,b,1.26208210000186,1,0,1,1,1B,0B,B10,2.51230562397611,0.974252586442927,0.5,0.5,0.5,0.5,0.993687732203784,0.5,0.5,0.5,0.5,0.999290760163598,0.5,0.5,0.5,0.167599939338939,0.993687732203784,0.993687732203784,0.00631226779621619,0.993687732203784,0.5,0.777276916987949,0.889013395055107,0.00631226779621619,0.00419639639674225,0.5,0.664800121322122,0.701059787585412,0.948269389550115,2.21925209793356,0.5,52.5419957674583
CBC_1002,CBC_1002_MSI_AV_v3_Vset3_Aset1_2023-05-31_17h20.54.856.csv,4,23,0,2,z,0,1,3,aud,C,27,1,0C,2C,0,1,z,2.0010054000013,0,1,1,1,2C,0C,C02,2.53897387105828,0.974252586442927,0.5,0.5,0.5,0.5,0.997884128600526,0.5,0.5,0.5,0.5,0.999290760163598,0.5,0.5,0.5,0.167599939338939,0.993687732203784,0.999290760163598,0.000709239836401587,0.999290760163598,0.5,0.276834137690525,0.891131231216508,0.000709239836401587,0.000471502729286257,0.5,0.664800121322122,0.701059787585412,0.948269389550115,2.21925209793356,0.5,52.5419957674583
CBC_1002,CBC_1002_MSI_AV_v3_Vset3_Aset1_2023-05-31_17h20.54.856.csv,4,24,2,3,z,0,1,2,aud,D,63,1,2D,3D,0,1,z,1.60683930000232,0,1,1,1,3D,2D,D23,2.56494935746154,0.974252586442927,0.5,0.5,0.5,0.5,0.997884128600526,0.5,0.5,0.5,0.5,0.999762262892885,0.5,0.5,0.5,0.167599939338939,0.993687732203784,0.998722614079863,0.00127738592013683,0.993687732203784,0.167599939338939,0.48927314463153,0.890885560604727,0.00631226779621619,0.00419639639674225,0.5,0.664800121322122,0.701059787585412,0.948269389550115,2.21925209793356,0.5,52.5419957674583
CBC_1002,CBC_1002_MSI_AV_v3_Vset3_Aset1_2023-05-31_17h20.54.856.csv,4,25,0,1,b,1,0,0,aud,A,63,1,0A,1A,1,0,b,1.27605740000217,1,0,1,1,0A,1A,A01,2.59026716544583,0.974252586442927,0.5,0.5,0.5,0.5,0.997884128600526,0.5,0.5,0.5,0.5,0.999762262892885,0.5,0.5,0.5,0.167599939338939,0.997884128600526,0.974252586442927,0.0257474135570726,0.974252586442927,0.5,0.747787457319969,0.880378645222104,0.0257474135570726,0.0171168836564727,0.5,0.664800121322122,0.701059787585412,0.948269389550115,2.21925209793356,0.5,52.5419957674583
CBC_1002,CBC_1002_MSI_AV_v3_Vset3_Aset1_2023-05-31_17h20.54.856.csv,4,26,2,3,b,1,0,3,aud,C,63,1,2C,3C,1,0,z,2.19240080000236,0,1,0,0,3C,2C,C23,2.6149597780362,0.9913694700994,0.5,0.5,0.5,0.5,0.997884128600526,0.5,0.5,0.5,0.5,0.999762262892885,0.5,0.5,0.5,0.167599939338939,0.997884128600526,0.000237737107115277,0.999762262892885,0.5,0.999762262892885,0.0256548202204824,0.108975147620202,-0.5,-0.332400060661061,0.5,0.664800121322122,0.701059787585412,0.948269389550115,2.21925209793356,0.5,52.5419957674583
CBC_1002,CBC_1002_MSI_AV_v3_Vset3_Aset1_2023-05-31_17h20.54.856.csv,4,27,0,2,b,1,0,0,aud,A,27,1,0A,2A,NaN,NaN,[],NaN,NaN,NaN,NaN,NaN,,,A02,3.73766961828337,0.9913694700994,0.5,0.5,0.5,0.5,0.997884128600526,0.5,0.5,0.5,0.5,0.999762262892885,0.167599939338939,0.5,0.5,0.167599939338939,0.997884128600526,0,0,0,0,NaN,0,0,0,0.5,0.664800121322122,0.701059787585412,0.948269389550115,2.21925209793356,0.5,52.5419957674583
CBC_1002,CBC_1002_MSI_AV_v3_Vset3_Aset1_2023-05-31_17h20.54.856.csv,4,28,2,3,z,0,1,2,aud,D,63,1,2D,3D,0,1,b,1.57250550000208,1,0,0,0,2D,3D,D23,2.37490575457367,0.9913694700994,0.5,0.5,0.5,0.5,0.997884128600526,0.5,0.5,0.5,0.5,0.999762262892885,0.167599939338939,0.5,0.5,0.167599939338939,0.997884128600526,0.000426742144743245,0.999573257855257,0.167599939338939,0.997884128600526,0.0627041191128566,0.108694181476843,-0.167599939338939,-0.111420460006107,0.5,0.664800121322122,0.701059787585412,0.948269389550115,2.21925209793356,0.5,52.5419957674583
CBC_1002,CBC_1002_MSI_AV_v3_Vset3_Aset1_2023-05-31_17h20.54.856.csv,4,29,2,3,z,0,1,2,aud,D,63,1,2D,3D,0,1,z,1.45840460000181,0,1,1,1,3D,2D,D23,2.17475172148416,0.9913694700994,0.5,0.5,0.5,0.5,0.997884128600526,0.5,0.5,0.5,0.5,0.999762262892885,0.167599939338939,0.5,0.5,0.056179479332832,0.997884128600526,0.999873804857625,0.000126195142375061,0.997884128600526,0.056179479332832,0.604370011692661,0.891399518386127,0.00211587139947389,0.00140663156307225,0.5,0.664800121322122,0.701059787585412,0.948269389550115,2.21925209793356,0.5,52.5419957674583
CBC_1002,CBC_1002_MSI_AV_v3_Vset3_Aset1_2023-05-31_17h20.54.856.csv,4,30,1,3,b,1,0,1,aud,B,27,1,1B,3B,1,0,b,1.08434410000154,1,0,1,1,1B,3B,B13,3.80666248977032,0.9913694700994,0.5,0.5,0.5,0.5,0.997884128600526,0.5,0.5,0.5,0.5,0.999762262892885,0.167599939338939,0.5,0.5,0.056179479332832,0.999290760163598,0.997884128600526,0.00211587139947389,0.997884128600526,0.5,0.900252681180423,0.890667824273003,0.00211587139947389,0.00140663156307225,0.5,0.664800121322122,0.701059787585412,0.948269389550115,2.21925209793356,0.5,52.5419957674583
CBC_1002,CBC_1002_MSI_AV_v3_Vset3_Aset1_2023-05-31_17h20.54.856.csv,4,31,3,0,b,1,0,2,aud,D,9,1,3D,0D,1,0,b,1.47672850000163,1,0,1,1,3D,0D,D30,3.8286413964891,0.9913694700994,0.5,0.5,0.5,0.5,0.999290760163598,0.5,0.5,0.5,0.5,0.999762262892885,0.167599939338939,0.5,0.5,0.056179479332832,0.999290760163598,0.999290760163598,0.000709239836401587,0.999290760163598,0.5,0.588802656209131,0.891144272250956,0.000709239836401587,0.000471502729286257,0.5,0.664800121322122,0.701059787585412,0.948269389550115,2.21925209793356,0.5,52.5419957674583
CBC_1002,CBC_1002_MSI_AV_v3_Vset3_Aset1_2023-05-31_17h20.54.856.csv,4,32,0,1,z,0,1,1,aud,B,63,1,0B,1B,0,1,z,0.911637800001699,0,1,1,1,1B,0B,B01,3.85014760171006,0.9913694700994,0.5,0.5,0.5,0.5,0.999290760163598,0.5,0.5,0.5,0.5,0.999762262892885,0.167599939338939,0.5,0.5,0.056179479332832,0.999762262892885,0.999290760163598,0.000709239836401587,0.999290760163598,0.5,0.640800457678397,0.891105735326466,0.000709239836401587,0.000471502729286257,0.5,0.664800121322122,0.701059787585412,0.948269389550115,2.21925209793356,0.5,52.5419957674583
CBC_1002,CBC_1002_MSI_AV_v3_Vset3_Aset1_2023-05-31_17h20.54.856.csv,4,33,0,1,b,1,0,0,aud,A,63,1,0A,1A,1,0,b,1.71929079999973,1,0,1,1,0A,1A,A01,2.484906649788,0.9913694700994,0.5,0.5,0.5,0.5,0.999762262892885,0.5,0.5,0.5,0.5,0.999762262892885,0.167599939338939,0.5,0.5,0.056179479332832,0.999762262892885,0.9913694700994,0.00863052990059987,0.9913694700994,0.5,0.415247145065466,0.887630001452597,0.00863052990059987,0.005737577324993,0.5,0.664800121322122,0.701059787585412,0.948269389550115,2.21925209793356,0.5,52.5419957674583
CBC_1002,CBC_1002_MSI_AV_v3_Vset3_Aset1_2023-05-31_17h20.54.856.csv,4,34,1,0,z,0,1,0,aud,A,63,1,1A,0A,0,1,b,1.15117450000071,1,0,0,0,1A,0A,A10,2.79320800944252,0.997107047424393,0.5,0.5,0.5,0.5,0.999762262892885,0.5,0.5,0.5,0.5,0.999762262892885,0.167599939338939,0.5,0.5,0.056179479332832,0.999762262892885,0.00289295257560684,0.997107047424393,0.5,0.997107047424393,0.107377764204729,0.109863229518415,-0.5,-0.332400060661061,0.5,0.664800121322122,0.701059787585412,0.948269389550115,2.21925209793356,0.5,52.5419957674583
CBC_1002,CBC_1002_MSI_AV_v3_Vset3_Aset1_2023-05-31_17h20.54.856.csv,4,35,2,3,b,1,0,3,aud,C,63,1,2C,3C,1,0,b,2.5890627000008,1,0,1,1,2C,3C,C23,2.52572864430826,0.997107047424393,0.167599939338939,0.5,0.5,0.5,0.999762262892885,0.5,0.5,0.5,0.5,0.999762262892885,0.167599939338939,0.5,0.5,0.056179479332832,0.999762262892885,0.999952123632178,4.78763678216643e-05,0.999762262892885,0.167599939338939,0.117820802410788,0.89152813695351,0.000237737107115277,0.000158047657653006,0.5,0.664800121322122,0.701059787585412,0.948269389550115,2.21925209793356,0.5,52.5419957674583
CBC_1002,CBC_1002_MSI_AV_v3_Vset3_Aset1_2023-05-31_17h20.54.856.csv,4,36,2,0,z,0,1,0,aud,A,27,1,2A,0A,0,1,b,1.76207000000068,1,0,0,0,2A,0A,A20,3.23867845216438,0.997107047424393,0.167599939338939,0.5,0.5,0.5,0.999762262892885,0.5,0.5,0.5,0.5,0.999920310550538,0.167599939338939,0.5,0.5,0.056179479332832,0.999762262892885,0.00289295257560684,0.997107047424393,0.5,0.997107047424393,0.0484060012997554,0.110144912403341,-0.5,-0.332400060661061,0.5,0.664800121322122,0.701059787585412,0.948269389550115,2.21925209793356,0.5,52.5419957674583
CBC_1002,CBC_1002_MSI_AV_v3_Vset3_Aset1_2023-05-31_17h20.54.856.csv,4,37,0,1,z,0,1,1,aud,B,63,1,0B,1B,0,1,z,0.876148299999841,0,1,1,1,1B,0B,B01,3.25809653802148,0.997107047424393,0.167599939338939,0.167599939338939,0.5,0.5,0.999762262892885,0.5,0.5,0.5,0.5,0.999920310550538,0.167599939338939,0.5,0.5,0.056179479332832,0.999762262892885,0.999762262892885,0.000237737107115277,0.999762262892885,0.5,0.474602103072936,0.891009597724094,0.000237737107115277,0.000158047657653006,0.5,0.664800121322122,0.701059787585412,0.948269389550115,2.21925209793356,0.5,52.5419957674583
CBC_1002,CBC_1002_MSI_AV_v3_Vset3_Aset1_2023-05-31_17h20.54.856.csv,4,38,1,3,b,1,0,1,aud,B,27,1,1B,3B,1,0,b,0.853302500001519,1,0,1,1,1B,3B,B13,3.27714473299218,0.997107047424393,0.167599939338939,0.167599939338939,0.5,0.5,0.999920310550538,0.5,0.5,0.5,0.5,0.999920310550538,0.167599939338939,0.5,0.5,0.056179479332832,0.999762262892885,0.999920310550538,7.96894494622391e-05,0.999920310550538,0.5,0.3494954289959,0.891386025988801,7.96894494622391e-05,5.29775556705897e-05,0.5,0.664800121322122,0.701059787585412,0.948269389550115,2.21925209793356,0.5,52.5419957674583
CBC_1002,CBC_1002_MSI_AV_v3_Vset3_Aset1_2023-05-31_17h20.54.856.csv,4,39,2,3,b,1,0,3,aud,C,63,1,2C,3C,1,0,b,3.08147140000074,1,0,1,1,2C,3C,C23,2.37954613413017,0.997107047424393,0.167599939338939,0.167599939338939,0.5,0.5,0.999973288106208,0.5,0.5,0.5,0.5,0.999920310550538,0.167599939338939,0.5,0.5,0.056179479332832,0.999762262892885,0.99998395387313,1.60461268704504e-05,0.999920310550538,0.167599939338939,0.0576876566596004,0.891328176510725,7.96894494622391e-05,5.29775556705897e-05,0.5,0.664800121322122,0.701059787585412,0.948269389550115,2.21925209793356,0.5,52.5419957674583
CBC_1002,CBC_1002_MSI_AV_v3_Vset3_Aset1_2023-05-31_17h20.54.856.csv,4,40,1,3,z,0,1,2,aud,D,27,1,1D,3D,0,1,z,1.67193630000111,0,1,1,1,3D,1D,D13,4.00733318523247,0.997107047424393,0.167599939338939,0.167599939338939,0.5,0.5,0.999973288106208,0.5,0.5,0.5,0.5,0.999973288106208,0.167599939338939,0.5,0.5,0.056179479332832,0.999762262892885,0.999762262892885,0.000237737107115277,0.999762262892885,0.5,0.44570334216249,0.891156182819216,0.000237737107115277,0.000158047657653006,0.5,0.664800121322122,0.701059787585412,0.948269389550115,2.21925209793356,0.5,52.5419957674583
CBC_1002,CBC_1002_MSI_AV_v3_Vset3_Aset1_2023-05-31_17h20.54.856.csv,4,41,2,1,b,1,0,3,aud,C,9,1,2C,1C,1,0,b,2.20464370000082,1,0,1,1,2C,1C,C21,4.02535169073515,0.997107047424393,0.167599939338939,0.167599939338939,0.5,0.5,0.999973288106208,0.5,0.5,0.5,0.5,0.999973288106208,0.167599939338939,0.5,0.5,0.056179479332832,0.999920310550538,0.999973288106208,2.67118937916644e-05,0.999973288106208,0.5,0.206029703570527,0.891169018530973,2.67118937916644e-05,1.77580702334421e-05,0.5,0.664800121322122,0.701059787585412,0.948269389550115,2.21925209793356,0.5,52.5419957674583
CBC_1002,CBC_1002_MSI_AV_v3_Vset3_Aset1_2023-05-31_17h20.54.856.csv,4,42,1,0,b,1,0,1,aud,B,63,0,1B,0B,0,1,b,3.10125650000191,1,0,1,0,1B,0B,B10,2.65675690671466,0.997107047424393,0.167599939338939,0.167599939338939,0.5,0.5,0.999973288106208,0.5,0.5,0.5,0.5,0.999991046176442,0.167599939338939,0.5,0.5,0.056179479332832,0.999920310550538,0.999973288106208,2.67118937916644e-05,0.999973288106208,0.5,0.0561381434625614,0.891052638972142,-0.999973288106208,-0.664782363251889,0.5,0.664800121322122,0.701059787585412,0.948269389550115,2.21925209793356,0.5,52.5419957674583
CBC_1002,CBC_1002_MSI_AV_v3_Vset3_Aset1_2023-05-31_17h20.54.856.csv,4,43,2,3,z,0,1,2,aud,D,63,1,2D,3D,0,1,z,1.80477750000136,0,1,1,1,3D,2D,D23,2.26868354131836,0.997107047424393,0.167599939338939,0.167599939338939,0.5,0.5,0.335190924854319,0.5,0.5,0.5,0.5,0.999991046176442,0.167599939338939,0.5,0.5,0.056179479332832,0.999920310550538,0.999995256251339,4.74374866100009e-06,0.999920310550538,0.056179479332832,0.367893542716319,0.891308071380538,7.96894494622391e-05,5.29775556705897e-05,0.5,0.664800121322122,0.701059787585412,0.948269389550115,2.21925209793356,0.5,52.5419957674583
CBC_1002,CBC_1002_MSI_AV_v3_Vset3_Aset1_2023-05-31_17h20.54.856.csv,4,44,0,1,z,0,1,1,aud,B,63,1,0B,1B,0,1,z,1.12610360000144,0,1,1,1,1B,0B,B01,2.97892515523761,0.997107047424393,0.167599939338939,0.167599939338939,0.5,0.5,0.335190924854319,0.5,0.5,0.5,0.5,0.999991046176442,0.167599939338939,0.5,0.5,0.056179479332832,0.999973288106208,0.335190924854319,0.664809075145681,0.335190924854319,0.5,0.259916280555001,0.333298509665699,0.664809075145681,0.441965153812896,0.5,0.664800121322122,0.701059787585412,0.948269389550115,2.21925209793356,0.5,52.5419957674583
