ID,session,trialNr,mod2Stim,visStimLeft,visStimRight,correctKey,frequency,rewardAccurate,probFB,stimPairLeft,stimPairRight,leftCorrect,rightCorrect,pCorrectLeft,pCorrectRight,triplet,rt,surprise,0A belief,1A belief,2A belief,3A belief,0B belief,1B belief,2B belief,3B belief,0C belief,1C belief,2C belief,3C belief,0D belief,1D belief,2D belief,3D belief,reactionTime,choice,choiceLeft,choiceRight,chosenPair,otherPair,beliefPair,beliefOtherPair,beliefPairNorm,beliefOtherPairNorm,choiceAccurate,reward,rewardPE,update2,sim_CBCsimpleRW_CBCdriftDiffusionLR_startBelief,sim_CBCsimpleRW_CBCdriftDiffusionLR_alpha1,sim_CBCsimpleRW_CBCdriftDiffusionLR_nonDecisionTime,sim_CBCsimpleRW_CBCdriftDiffusionLR_weight,sim_CBCsimpleRW_CBCdriftDiffusionLR_startingBoundary,sim_CBCsimpleRW_CBCdriftDiffusionLR_startingPoint,lik,corrLik,fitCBCsimpleRW_CBCdriftDiffusionLR_startBelief,fitCBCsimpleRW_CBCdriftDiffusionLR_alpha1,fitCBCsimpleRW_CBCdriftDiffusionLR_nonDecisionTime,fitCBCsimpleRW_CBCdriftDiffusionLR_weight,fitCBCsimpleRW_CBCdriftDiffusionLR_startingBoundary,fitCBCsimpleRW_CBCdriftDiffusionLR_startingPoint,fit_CBCsimpleRW_CBCdriftDiffusionLR_NLL
142,1,1,A,1,0,l,63,1,0.91,1A,0A,0,1,0,1,A10,2.3449416001461,2.77258872223978,0.5,0.5,0.5,0.5,0.5,0.5,0.5,0.5,0.5,0.5,0.5,0.5,0.5,0.5,0.5,0.5,9.1699530866611,1,1,0,1A,0A,0.5,0.5,0.5,0.5,0,0,-0.5,-0.498930254105673,0.5,0.941845262812797,0.906953086661102,10.7963100261294,4.75246665798499,0.5,0.0227396881433984,0.499732255177749,0.5,0.997860508211346,0.903991300635836,9.14347930356433,4.73936299348996,0.5,-14.7159975747096
142,1,2,D,3,2,a,63,1,0.91,3D,2D,1,0,1,0,D32,1.6572864059131,2.83321334405622,0.5,0.00106974589432723,0.5,0.5,0.5,0.5,0.5,0.5,0.5,0.5,0.5,0.5,0.5,0.5,0.5,0.5,4.1239530866611,0,0,1,2D,3D,0.5,0.5,0.5,0.5,0,0,-0.5,-0.498930254105673,0.5,0.941845262812797,0.906953086661102,10.7963100261294,4.75246665798499,0.5,0.0683666526419001,0.501070299440805,0.5,0.997860508211346,0.903991300635836,9.14347930356433,4.73936299348996,0.5,-14.7159975747096
142,1,3,C,2,0,a,27,1,0.91,2C,0C,1,0,1,0,C20,2.89083687918437,2.89037175789616,0.5,0.00106974589432723,0.5,0.5,0.5,0.5,0.5,0.5,0.5,0.5,0.5,0.5,0.5,0.5,0.00106974589432723,0.5,3.8479530866611,0,0,1,0C,2C,0.5,0.5,0.5,0.5,0,0,-0.5,-0.498930254105673,0.5,0.941845262812797,0.906953086661102,10.7963100261294,4.75246665798499,0.5,0.0719717809746359,0.49975393567732,0.5,0.997860508211346,0.903991300635836,9.14347930356433,4.73936299348996,0.5,-14.7159975747096
142,1,4,A,1,0,l,63,1,0.91,1A,0A,0,1,0,1,A10,2.91611454888804,2.2512917986065,0.5,0.00106974589432723,0.5,0.5,0.5,0.5,0.5,0.5,0.00106974589432723,0.5,0.5,0.5,0.5,0.5,0.00106974589432723,0.5,1.1819530866611,0,0,1,0A,1A,0.5,0.00106974589432723,0.997865075864004,0.0021349241359961,1,1,0.5,0.498930254105673,0.5,0.941845262812797,0.906953086661102,10.7963100261294,4.75246665798499,0.5,6.1564800512504,1,0.5,0.997860508211346,0.903991300635836,9.14347930356433,4.73936299348996,0.5,-14.7159975747096
142,1,5,B,3,1,l,27,1,0.91,3B,1B,0,1,0,1,B31,0.415621645294092,2.99573227355399,0.998930254105673,0.00106974589432723,0.5,0.5,0.5,0.5,0.5,0.5,0.00106974589432723,0.5,0.5,0.5,0.5,0.5,0.00106974589432723,0.5,5.9339530866611,1,1,0,3B,1B,0.5,0.5,0.5,0.5,0,0,-0.5,-0.498930254105673,0.5,0.941845262812797,0.906953086661102,10.7963100261294,4.75246665798499,0.5,0.0462916724926223,0.49989932500527,0.5,0.997860508211346,0.903991300635836,9.14347930356433,4.73936299348996,0.5,-14.7159975747096
142,1,6,C,2,3,a,63,1,0.91,2C,3C,1,0,1,0,C23,2.28637064414577,3.04452243772342,0.998930254105673,0.00106974589432723,0.5,0.5,0.5,0.5,0.5,0.00106974589432723,0.00106974589432723,0.5,0.5,0.5,0.5,0.5,0.00106974589432723,0.5,5.1339530866611,1,1,0,2C,3C,0.5,0.5,0.5,0.5,1,1,0.5,0.498930254105673,0.5,0.941845262812797,0.906953086661102,10.7963100261294,4.75246665798499,0.5,0.0551469363662141,0.500208318455256,0.5,0.997860508211346,0.903991300635836,9.14347930356433,4.73936299348996,0.5,-14.7159975747096
142,1,7,D,2,3,l,63,0,0.91,2D,3D,0,1,1,0,D23,1.01428557805043,3.09104245335832,0.998930254105673,0.00106974589432723,0.5,0.5,0.5,0.5,0.5,0.00106974589432723,0.00106974589432723,0.5,0.998930254105673,0.5,0.5,0.5,0.00106974589432723,0.5,1.2109530866611,0,0,1,3D,2D,0.5,0.00106974589432723,0.997865075864004,0.0021349241359961,1,0,-0.5,-0.498930254105673,0.5,0.941845262812797,0.906953086661102,10.7963100261294,4.75246665798499,0.5,4.14214103385822,1,0.5,0.997860508211346,0.903991300635836,9.14347930356433,4.73936299348996,0.5,-14.7159975747096
142,1,8,B,1,0,a,63,1,0.91,1B,0B,1,0,1,0,B10,2.78931330457411,3.13549421592915,0.998930254105673,0.00106974589432723,0.5,0.5,0.5,0.5,0.5,0.00106974589432723,0.00106974589432723,0.5,0.998930254105673,0.5,0.5,0.5,0.00106974589432723,0.00106974589432723,2.1509530866611,1,1,0,1B,0B,0.5,0.5,0.5,0.5,1,1,0.5,0.498930254105673,0.5,0.941845262812797,0.906953086661102,10.7963100261294,4.75246665798499,0.5,0.0716454650702635,0.50142621642965,0.5,0.997860508211346,0.903991300635836,9.14347930356433,4.73936299348996,0.5,-14.7159975747096
142,1,9,A,0,2,a,27,1,0.91,0A,2A,1,0,1,0,A02,0.555627192037811,3.17805383034795,0.998930254105673,0.00106974589432723,0.5,0.5,0.5,0.998930254105673,0.5,0.00106974589432723,0.00106974589432723,0.5,0.998930254105673,0.5,0.5,0.5,0.00106974589432723,0.00106974589432723,1.5249530866611,1,1,0,0A,2A,0.998930254105673,0.5,0.666428775701561,0.333571224298439,1,1,0.00106974589432718,0.00106745718177032,0.5,0.941845262812797,0.906953086661102,10.7963100261294,4.75246665798499,0.5,1.60471722309753,0.999999454641019,0.5,0.997860508211346,0.903991300635836,9.14347930356433,4.73936299348996,0.5,-14.7159975747096
142,1,10,D,0,3,l,9,1,0.91,0D,3D,0,1,0,1,D03,0.205081498537198,3.2188758248682,0.999997711287443,0.00106974589432723,0.5,0.5,0.5,0.998930254105673,0.5,0.00106974589432723,0.00106974589432723,0.5,0.998930254105673,0.5,0.5,0.5,0.00106974589432723,0.00106974589432723,1.1459530866611,1,1,0,0D,3D,0.5,0.00106974589432723,0.997865075864004,0.0021349241359961,0,0,-0.5,-0.498930254105673,0.5,0.941845262812797,0.906953086661102,10.7963100261294,4.75246665798499,0.5,7.4992628294329,1,0.5,0.997860508211346,0.903991300635836,9.14347930356433,4.73936299348996,0.5,-14.7159975747096
142,1,11,C,3,2,l,63,1,0.91,3C,2C,0,1,0,1,C32,1.2260041296349,3.25809653802148,0.999997711287443,0.00106974589432723,0.5,0.5,0.5,0.998930254105673,0.5,0.00106974589432723,0.00106974589432723,0.5,0.998930254105673,0.5,0.00106974589432723,0.5,0.00106974589432723,0.00106974589432723,1.3209530866611,0,0,1,2C,3C,0.998930254105673,0.5,0.666428775701561,0.333571224298439,1,1,0.00106974589432718,0.00106745718177032,0.5,0.941845262812797,0.906953086661102,10.7963100261294,4.75246665798499,0.5,0.821517759955322,0.999999456315345,0.5,0.997860508211346,0.903991300635836,9.14347930356433,4.73936299348996,0.5,-14.7159975747096
142,1,12,B,1,0,a,63,1,0.91,1B,0B,1,0,1,0,B10,0.761874258264526,2.60268968544438,0.999997711287443,0.00106974589432723,0.5,0.5,0.5,0.998930254105673,0.5,0.00106974589432723,0.00106974589432723,0.5,0.999997711287443,0.5,0.00106974589432723,0.5,0.00106974589432723,0.00106974589432723,1.7929530866611,1,1,0,1B,0B,0.998930254105673,0.5,0.666428775701561,0.333571224298439,1,1,0.00106974589432718,0.00106745718177032,0.5,0.941845262812797,0.906953086661102,10.7963100261294,4.75246665798499,0.5,1.05907317962835,0.99999945228632,0.5,0.997860508211346,0.903991300635836,9.14347930356433,4.73936299348996,0.5,-14.7159975747096
142,1,13,D,3,2,a,63,1,0.91,3D,2D,1,0,1,0,D32,1.06624762626814,2.63905732961526,0.999997711287443,0.00106974589432723,0.5,0.5,0.5,0.999997711287443,0.5,0.00106974589432723,0.00106974589432723,0.5,0.999997711287443,0.5,0.00106974589432723,0.5,0.00106974589432723,0.00106974589432723,2.8319530866611,0,0,1,2D,3D,0.00106974589432723,0.00106974589432723,0.5,0.5,0,0,-0.00106974589432723,-0.00106745718177037,0.5,0.941845262812797,0.906953086661102,10.7963100261294,4.75246665798499,0.5,0.0822034669644919,0.499324503775452,0.5,0.997860508211346,0.903991300635836,9.14347930356433,4.73936299348996,0.5,-14.7159975747096
142,1,14,C,3,2,l,63,1,0.91,3C,2C,0,1,0,1,C32,2.1530168883034,2.67414864942653,0.999997711287443,0.00106974589432723,0.5,0.5,0.5,0.999997711287443,0.5,0.00106974589432723,0.00106974589432723,0.5,0.999997711287443,0.5,0.00106974589432723,0.5,2.2887125568599e-06,0.00106974589432723,1.5359530866611,0,0,1,2C,3C,0.999997711287443,0.5,0.6666661580631,0.3333338419369,1,1,2.28871255680829e-06,2.28381587508641e-06,0.5,0.941845262812797,0.906953086661102,10.7963100261294,4.75246665798499,0.5,1.61125054339001,0.999999469705014,0.5,0.997860508211346,0.903991300635836,9.14347930356433,4.73936299348996,0.5,-14.7159975747096
142,1,15,B,1,3,a,27,1,0.91,1B,3B,1,0,1,0,B13,1.40515546966395,3.40119738166216,0.999997711287443,0.00106974589432723,0.5,0.5,0.5,0.999997711287443,0.5,0.00106974589432723,0.00106974589432723,0.5,0.999999995103318,0.5,0.00106974589432723,0.5,2.2887125568599e-06,0.00106974589432723,1.1269530866611,1,1,0,1B,3B,0.999997711287443,0.00106974589432723,0.998931394795972,0.00106860520402772,1,1,2.28871255680829e-06,2.28381587508641e-06,0.5,0.941845262812797,0.906953086661102,10.7963100261294,4.75246665798499,0.5,6.97648024608357,1,0.5,0.997860508211346,0.903991300635836,9.14347930356433,4.73936299348996,0.5,-14.7159975747096
142,1,16,A,3,0,l,9,1,0.91,3A,0A,0,1,0,1,A30,0.755260686729074,3.43398720448515,0.999997711287443,0.00106974589432723,0.5,0.5,0.5,0.999999995103318,0.5,0.00106974589432723,0.00106974589432723,0.5,0.999999995103318,0.5,0.00106974589432723,0.5,2.2887125568599e-06,0.00106974589432723,1.6069530866611,0,0,1,0A,3A,0.999997711287443,0.5,0.6666661580631,0.3333338419369,1,1,2.28871255680829e-06,2.28381587508641e-06,0.5,0.941845262812797,0.906953086661102,10.7963100261294,4.75246665798499,0.5,1.54578446131403,0.999999464152508,0.5,0.997860508211346,0.903991300635836,9.14347930356433,4.73936299348996,0.5,-14.7159975747096
142,1,17,D,3,2,a,63,1,0.91,3D,2D,1,0,1,0,D32,1.26382334293173,2.36712361413162,0.999999995103318,0.00106974589432723,0.5,0.5,0.5,0.999999995103318,0.5,0.00106974589432723,0.00106974589432723,0.5,0.999999995103318,0.5,0.00106974589432723,0.5,2.2887125568599e-06,0.00106974589432723,1.1209530866611,1,1,0,3D,2D,0.00106974589432723,2.2887125568599e-06,0.997865075864004,0.00213492413599606,1,1,0.998930254105673,0.996793051029575,0.5,0.941845262812797,0.906953086661102,10.7963100261294,4.75246665798499,0.5,6.53714376900097,1,0.5,0.997860508211346,0.903991300635836,9.14347930356433,4.73936299348996,0.5,-14.7159975747096
142,1,18,C,2,0,a,27,1,0.91,2C,0C,1,0,1,0,C20,0.857086292952043,2.80336038090653,0.999999995103318,0.00106974589432723,0.5,0.5,0.5,0.999999995103318,0.5,0.00106974589432723,0.00106974589432723,0.5,0.999999995103318,0.5,0.00106974589432723,0.5,2.2887125568599e-06,0.997862796923902,1.1539530866611,1,1,0,2C,0C,0.999999995103318,0.00106974589432723,0.998931397233862,0.0010686027661381,1,1,4.89668172676261e-09,4.88620531641655e-09,0.5,0.941845262812797,0.906953086661102,10.7963100261294,4.75246665798499,0.5,7.44584679729793,1,0.5,0.997860508211346,0.903991300635836,9.14347930356433,4.73936299348996,0.5,-14.7159975747096
142,1,19,A,1,0,l,63,1,0.91,1A,0A,0,1,0,1,A10,1.47974345262118,2.42774823594805,0.999999995103318,0.00106974589432723,0.5,0.5,0.5,0.999999995103318,0.5,0.00106974589432723,0.00106974589432723,0.5,0.999999999989524,0.5,0.00106974589432723,0.5,2.2887125568599e-06,0.997862796923902,1.1129530866611,0,0,1,0A,1A,0.999999995103318,0.00106974589432723,0.998931397233862,0.0010686027661381,1,1,4.89668172676261e-09,4.88620531641655e-09,0.5,0.941845262812797,0.906953086661102,10.7963100261294,4.75246665798499,0.5,5.92366901434372,1,0.5,0.997860508211346,0.903991300635836,9.14347930356433,4.73936299348996,0.5,-14.7159975747096
142,1,20,B,0,1,l,63,0,0.91,0B,1B,0,1,1,0,B01,2.90194605546931,3.55534806148941,0.999999999989524,0.00106974589432723,0.5,0.5,0.5,0.999999995103318,0.5,0.00106974589432723,0.00106974589432723,0.5,0.999999999989524,0.5,0.00106974589432723,0.5,2.2887125568599e-06,0.997862796923902,1.5029530866611,0,0,1,1B,0B,0.999999995103318,0.5,0.666666665578515,0.333333334421485,1,0,-0.999999995103318,-0.99786050332514,0.5,0.941845262812797,0.906953086661102,10.7963100261294,4.75246665798499,0.5,1.59161545502923,0.999999463624498,0.5,0.997860508211346,0.903991300635836,9.14347930356433,4.73936299348996,0.5,-14.7159975747096
142,1,21,D,1,3,l,27,1,0.91,1D,3D,0,1,0,1,D13,0.167658415952571,3.58351893845611,0.999999999989524,0.00106974589432723,0.5,0.5,0.5,0.00213949177817807,0.5,0.00106974589432723,0.00106974589432723,0.5,0.999999999989524,0.5,0.00106974589432723,0.5,2.2887125568599e-06,0.997862796923902,1.7699530866611,0,0,1,3D,1D,0.997862796923902,0.5,0.666191054997274,0.333808945002726,1,1,0.00213720307609755,0.00213263054766555,0.5,0.941845262812797,0.906953086661102,10.7963100261294,4.75246665798499,0.5,1.12769351380425,0.999999443099021,0.5,0.997860508211346,0.903991300635836,9.14347930356433,4.73936299348996,0.5,-14.7159975747096
142,1,22,C,2,3,a,63,1,0.91,2C,3C,1,0,1,0,C23,0.793860059733004,2.91777073208428,0.999999999989524,0.00106974589432723,0.5,0.5,0.5,0.00213949177817807,0.5,0.00106974589432723,0.00106974589432723,0.5,0.999999999989524,0.5,0.00106974589432723,0.5,2.2887125568599e-06,0.999995427471568,1.9499530866611,1,1,0,2C,3C,0.999999999989524,0.5,0.666666666664339,0.333333333335661,1,1,1.04763975272704e-11,1.04539833607861e-11,0.5,0.941845262812797,0.906953086661102,10.7963100261294,4.75246665798499,0.5,0.641632228625286,0.999999467353284,0.5,0.997860508211346,0.903991300635836,9.14347930356433,4.73936299348996,0.5,-14.7159975747096
142,1,23,B,1,0,a,63,1,0.91,1B,0B,1,0,1,0,B10,1.19340233139497,2.53897387105828,0.999999999989524,0.00106974589432723,0.5,0.5,0.5,0.00213949177817807,0.5,0.00106974589432723,0.00106974589432723,0.5,0.999999999999978,0.5,0.00106974589432723,0.5,2.2887125568599e-06,0.999995427471568,1.2329530866611,0,0,1,0B,1B,0.5,0.00213949177817807,0.99573924813083,0.00426075186917025,0,0,-0.5,-0.498930254105673,0.5,0.941845262812797,0.906953086661102,10.7963100261294,4.75246665798499,0.5,2.83251627502958,1,0.5,0.997860508211346,0.903991300635836,9.14347930356433,4.73936299348996,0.5,-14.7159975747096
142,1,24,A,2,0,l,27,1,0.91,2A,0A,0,1,0,1,A20,3.35791037113733,3.66356164612965,0.999999999989524,0.00106974589432723,0.5,0.5,0.00106974589432723,0.00213949177817807,0.5,0.00106974589432723,0.00106974589432723,0.5,0.999999999999978,0.5,0.00106974589432723,0.5,2.2887125568599e-06,0.999995427471568,1.9169530866611,0,0,1,0A,2A,0.999999999989524,0.5,0.666666666664339,0.333333333335661,1,1,1.04763975272704e-11,1.04539833607861e-11,0.5,0.941845262812797,0.906953086661102,10.7963100261294,4.75246665798499,0.5,0.719493405677012,0.999999465212119,0.5,0.997860508211346,0.903991300635836,9.14347930356433,4.73936299348996,0.5,-14.7159975747096
142,1,25,D,2,3,l,63,1,0.91,2D,3D,0,1,0,1,D23,1.39440098157692,2.99573227355399,0.999999999999978,0.00106974589432723,0.5,0.5,0.00106974589432723,0.00213949177817807,0.5,0.00106974589432723,0.00106974589432723,0.5,0.999999999999978,0.5,0.00106974589432723,0.5,2.2887125568599e-06,0.999995427471568,1.2079530866611,0,0,1,3D,2D,0.999995427471568,2.2887125568599e-06,0.999997711282216,2.28871778386991e-06,1,1,4.57252843200084e-06,4.56274554496719e-06,0.5,0.941845262812797,0.906953086661102,10.7963100261294,4.75246665798499,0.5,4.28332722623136,1,0.5,0.997860508211346,0.903991300635836,9.14347930356433,4.73936299348996,0.5,-14.7159975747096
142,1,26,C,2,0,a,27,1,0.91,2C,0C,1,0,1,0,C20,2.42723109093306,2.6149597780362,0.999999999999978,0.00106974589432723,0.5,0.5,0.00106974589432723,0.00213949177817807,0.5,0.00106974589432723,0.00106974589432723,0.5,0.999999999999978,0.5,0.00106974589432723,0.5,2.2887125568599e-06,0.999999990217113,1.2169530866611,1,1,0,2C,0C,0.999999999999978,0.00106974589432723,0.998931397239089,0.00106860276091111,1,1,2.24265050974282e-14,2.2378523773924e-14,0.5,0.941845262812797,0.906953086661102,10.7963100261294,4.75246665798499,0.5,3.70412729363598,1,0.5,0.997860508211346,0.903991300635836,9.14347930356433,4.73936299348996,0.5,-14.7159975747096
142,1,27,B,1,0,a,63,1,0.91,1B,0B,1,0,1,0,B10,0.57631900899108,2.35137525716348,0.999999999999978,0.00106974589432723,0.5,0.5,0.00106974589432723,0.00213949177817807,0.5,0.00106974589432723,0.00106974589432723,0.5,1,0.5,0.00106974589432723,0.5,2.2887125568599e-06,0.999999990217113,1.7609530866611,1,1,0,1B,0B,0.00213949177817807,0.00106974589432723,0.666666665578517,0.333333334421483,1,1,0.997860508221822,0.995725593858259,0.5,0.941845262812797,0.906953086661102,10.7963100261294,4.75246665798499,0.5,1.15145440970613,0.999999468162711,0.5,0.997860508211346,0.903991300635836,9.14347930356433,4.73936299348996,0.5,-14.7159975747096
142,1,28,A,0,1,a,63,1,0.91,0A,1A,1,0,1,0,A01,1.66154050370266,3.76120011569356,0.999999999999978,0.00106974589432723,0.5,0.5,0.00106974589432723,0.997865085636437,0.5,0.00106974589432723,0.00106974589432723,0.5,1,0.5,0.00106974589432723,0.5,2.2887125568599e-06,0.999999990217113,1.2049530866611,1,1,0,0A,1A,0.999999999999978,0.00106974589432723,0.998931397239089,0.00106860276091111,1,1,2.24265050974282e-14,2.2378523773924e-14,0.5,0.941845262812797,0.906953086661102,10.7963100261294,4.75246665798499,0.5,4.52177296111809,1,0.5,0.997860508211346,0.903991300635836,9.14347930356433,4.73936299348996,0.5,-14.7159975747096
142,1,29,C,3,2,l,63,0,0.91,3C,2C,0,1,1,0,C32,0.035082824577678,2.68557734525015,1,0.00106974589432723,0.5,0.5,0.00106974589432723,0.997865085636437,0.5,0.00106974589432723,0.00106974589432723,0.5,1,0.5,0.00106974589432723,0.5,2.2887125568599e-06,0.999999990217113,1.3219530866611,0,0,1,2C,3C,1,0.5,0.666666666666667,0.333333333333333,1,0,-1,-0.997860508211346,0.5,0.941845262812797,0.906953086661102,10.7963100261294,4.75246665798499,0.5,0.832065690936953,0.999999467643356,0.5,0.997860508211346,0.903991300635836,9.14347930356433,4.73936299348996,0.5,-14.7159975747096
142,1,30,D,3,1,a,27,1,0.91,3D,1D,1,0,1,0,D31,0.113708570718845,3.80666248977032,1,0.00106974589432723,0.5,0.5,0.00106974589432723,0.997865085636437,0.5,0.00106974589432723,0.00106974589432723,0.5,0.00213949178865447,0.5,0.00106974589432723,0.5,2.2887125568599e-06,0.999999990217113,2.1339530866611,1,1,0,3D,1D,0.999999990217113,0.5,0.666666664492692,0.333333335507308,1,1,9.78288705599795e-09,9.76195664947231e-09,0.5,0.941845262812797,0.906953086661102,10.7963100261294,4.75246665798499,0.5,0.319851857924286,0.999999467297241,0.5,0.997860508211346,0.903991300635836,9.14347930356433,4.73936299348996,0.5,-14.7159975747096
142,1,31,A,1,0,l,63,1,0.91,1A,0A,0,1,0,1,A10,3.43802237959791,2.4423470353692,1,0.00106974589432723,0.5,0.5,0.00106974589432723,0.997865085636437,0.5,0.00106974589432723,0.00106974589432723,0.5,0.00213949178865447,0.5,0.00106974589432723,0.5,2.2887125568599e-06,0.99999999997907,1.1049530866611,0,0,1,0A,1A,1,0.00106974589432723,0.998931397239089,0.00106860276091108,1,1,0,0,0.5,0.941845262812797,0.906953086661102,10.7963100261294,4.75246665798499,0.5,5.13422948464999,1,0.5,0.997860508211346,0.903991300635836,9.14347930356433,4.73936299348996,0.5,-14.7159975747096
142,1,32,D,3,2,a,63,1,0.91,3D,2D,1,0,1,0,D32,0.527006806741121,2.46385324059017,1,0.00106974589432723,0.5,0.5,0.00106974589432723,0.997865085636437,0.5,0.00106974589432723,0.00106974589432723,0.5,0.00213949178865447,0.5,0.00106974589432723,0.5,2.2887125568599e-06,0.99999999997907,1.1709530866611,1,1,0,3D,2D,0.99999999997907,2.2887125568599e-06,0.999997711292681,2.28870731871462e-06,1,1,2.09303685494433e-11,2.08855881977983e-11,0.5,0.941845262812797,0.906953086661102,10.7963100261294,4.75246665798499,0.5,6.78890549249502,1,0.5,0.997860508211346,0.903991300635836,9.14347930356433,4.73936299348996,0.5,-14.7159975747096
142,1,33,B,2,1,l,9,1,0.91,2B,1B,0,1,0,1,B21,1.79743391295808,3.87120101090789,1,0.00106974589432723,0.5,0.5,0.00106974589432723,0.997865085636437,0.5,0.00106974589432723,0.00106974589432723,0.5,0.00213949178865447,0.5,0.00106974589432723,0.5,2.2887125568599e-06,0.999999999999955,1.6439530866611,0,0,1,1B,2B,0.997865085636437,0.5,0.6661915650517,0.3338084349483,1,1,0.00213491436356317,0.00213034673181284,0.5,0.941845262812797,0.906953086661102,10.7963100261294,4.75246665798499,0.5,1.47058434554582,0.999999444032566,0.5,0.997860508211346,0.903991300635836,9.14347930356433,4.73936299348996,0.5,-14.7159975747096
142,1,34,A,1,0,l,63,1,0.91,1A,0A,0,1,0,1,A10,1.79888155802878,2.28238238567653,1,0.00106974589432723,0.5,0.5,0.00106974589432723,0.99999543236825,0.5,0.00106974589432723,0.00106974589432723,0.5,0.00213949178865447,0.5,0.00106974589432723,0.5,2.2887125568599e-06,0.999999999999955,1.1759530866611,0,0,1,0A,1A,1,0.00106974589432723,0.998931397239089,0.00106860276091108,1,1,0,0,0.5,0.941845262812797,0.906953086661102,10.7963100261294,4.75246665798499,0.5,6.51371021156691,1,0.5,0.997860508211346,0.903991300635836,9.14347930356433,4.73936299348996,0.5,-14.7159975747096
142,1,35,C,2,1,a,9,1,0.91,2C,1C,1,0,1,0,C21,2.24157051231516,3.91202300542815,1,0.00106974589432723,0.5,0.5,0.00106974589432723,0.99999543236825,0.5,0.00106974589432723,0.00106974589432723,0.5,0.00213949178865447,0.5,0.00106974589432723,0.5,2.2887125568599e-06,0.999999999999955,1.0999530866611,0,0,1,1C,2C,0.5,0.00213949178865447,0.995739248110055,0.00426075188994487,0,0,-0.5,-0.498930254105673,0.5,0.941845262812797,0.906953086661102,10.7963100261294,4.75246665798499,0.5,4.43958252090944,1,0.5,0.997860508211346,0.903991300635836,9.14347930356433,4.73936299348996,0.5,-14.7159975747096
142,1,36,B,1,0,a,63,1,0.91,1B,0B,1,0,1,0,B10,3.35696481781602,2.32238772029023,1,0.00106974589432723,0.5,0.5,0.00106974589432723,0.99999543236825,0.5,0.00106974589432723,0.00106974589432723,0.00106974589432723,0.00213949178865447,0.5,0.00106974589432723,0.5,2.2887125568599e-06,0.999999999999955,1.2499530866611,1,1,0,1B,0B,0.99999543236825,0.00106974589432723,0.998931392363299,0.0010686076367014,1,1,4.56763175027408e-06,4.55785933965077e-06,0.5,0.941845262812797,0.906953086661102,10.7963100261294,4.75246665798499,0.5,1.90058813680305,1,0.5,0.997860508211346,0.903991300635836,9.14347930356433,4.73936299348996,0.5,-14.7159975747096
142,1,37,A,0,1,a,63,0,0.91,0A,1A,1,0,0,1,A01,1.88225090151937,3.25809653802148,1,0.00106974589432723,0.5,0.5,0.00106974589432723,0.999999990227589,0.5,0.00106974589432723,0.00106974589432723,0.00106974589432723,0.00213949178865447,0.5,0.00106974589432723,0.5,2.2887125568599e-06,0.999999999999955,1.0629530866611,1,1,0,0A,1A,1,0.00106974589432723,0.998931397239089,0.00106860276091108,1,0,-1,-0.997860508211346,0.5,0.941845262812797,0.906953086661102,10.7963100261294,4.75246665798499,0.5,1.04540183705657,1,0.5,0.997860508211346,0.903991300635836,9.14347930356433,4.73936299348996,0.5,-14.7159975747096
142,1,38,B,0,1,l,63,1,0.91,0B,1B,0,1,0,1,B01,0.311208750405556,3.27714473299218,0.00213949178865447,0.00106974589432723,0.5,0.5,0.00106974589432723,0.999999990227589,0.5,0.00106974589432723,0.00106974589432723,0.00106974589432723,0.00213949178865447,0.5,0.00106974589432723,0.5,2.2887125568599e-06,0.999999999999955,1.2199530866611,0,0,1,1B,0B,0.999999990227589,0.00106974589432723,0.998931397228657,0.00106860277134275,1,1,9.77241065847068e-09,9.75150266611152e-09,0.5,0.941845262812797,0.906953086661102,10.7963100261294,4.75246665798499,0.5,3.50720235052159,1,0.5,0.997860508211346,0.903991300635836,9.14347930356433,4.73936299348996,0.5,-14.7159975747096
142,1,39,D,1,3,l,27,1,0.91,1D,3D,0,1,0,1,D13,2.16977682708955,3.29583686600433,0.00213949178865447,0.00106974589432723,0.5,0.5,0.00106974589432723,0.999999999979092,0.5,0.00106974589432723,0.00106974589432723,0.00106974589432723,0.00213949178865447,0.5,0.00106974589432723,0.5,2.2887125568599e-06,0.999999999999955,1.5039530866611,0,0,1,3D,1D,0.999999999999955,0.5,0.666666666666657,0.333333333333343,1,1,4.47419878923938e-14,4.464626277669e-14,0.5,0.941845262812797,0.906953086661102,10.7963100261294,4.75246665798499,0.5,1.59448687427752,0.999999468915081,0.5,0.997860508211346,0.903991300635836,9.14347930356433,4.73936299348996,0.5,-14.7159975747096
142,1,40,C,3,2,l,63,1,0.91,3C,2C,0,1,0,1,C32,1.55202624086624,2.62103882411258,0.00213949178865447,0.00106974589432723,0.5,0.5,0.00106974589432723,0.999999999979092,0.5,0.00106974589432723,0.00106974589432723,0.00106974589432723,0.00213949178865447,0.5,0.00106974589432723,0.5,2.2887125568599e-06,1,1.1479530866611,1,1,0,3C,2C,0.5,0.00213949178865447,0.995739248110055,0.00426075188994487,0,0,-0.5,-0.498930254105673,0.5,0.941845262812797,0.906953086661102,10.7963100261294,4.75246665798499,0.5,7.4555850043724,1,0.5,0.997860508211346,0.903991300635836,9.14347930356433,4.73936299348996,0.5,-14.7159975747096
142,1,41,A,0,2,a,27,1,0.91,0A,2A,1,0,1,0,A02,1.22440263292288,3.3322045101752,0.00213949178865447,0.00106974589432723,0.5,0.5,0.00106974589432723,0.999999999979092,0.5,0.00106974589432723,0.00106974589432723,0.00106974589432723,0.00213949178865447,0.00106974589432723,0.00106974589432723,0.5,2.2887125568599e-06,1,1.1319530866611,0,0,1,2A,0A,0.5,0.00213949178865447,0.995739248110055,0.00426075188994487,0,0,-0.5,-0.498930254105673,0.5,0.941845262812797,0.906953086661102,10.7963100261294,4.75246665798499,0.5,7.1017935485469,1,0.5,0.997860508211346,0.903991300635836,9.14347930356433,4.73936299348996,0.5,-14.7159975747096
142,1,42,D,2,3,l,63,1,0.91,2D,3D,0,1,0,1,D23,3.22266398731251,2.94443897916644,0.00213949178865447,0.00106974589432723,0.00106974589432723,0.5,0.00106974589432723,0.999999999979092,0.5,0.00106974589432723,0.00106974589432723,0.00106974589432723,0.00213949178865447,0.00106974589432723,0.00106974589432723,0.5,2.2887125568599e-06,1,1.1139530866611,0,0,1,3D,2D,1,2.2887125568599e-06,0.999997711292681,2.28870731866672e-06,1,1,1.11022302462516e-16,1.1078477115804e-16,0.5,0.941845262812797,0.906953086661102,10.7963100261294,4.75246665798499,0.5,6.06670355063228,1,0.5,0.997860508211346,0.903991300635836,9.14347930356433,4.73936299348996,0.5,-14.7159975747096
142,1,43,B,1,3,a,27,1,0.91,1B,3B,1,0,1,0,B13,2.57120427617265,3.36729582998647,0.00213949178865447,0.00106974589432723,0.00106974589432723,0.5,0.00106974589432723,0.999999999979092,0.5,0.00106974589432723,0.00106974589432723,0.00106974589432723,0.00213949178865447,0.00106974589432723,0.00106974589432723,0.5,2.2887125568599e-06,1,1.2349530866611,1,1,0,1B,3B,0.999999999979092,0.00106974589432723,0.998931397239067,0.0010686027609334,1,1,2.09079420443459e-11,2.08632096740243e-11,0.5,0.941845262812797,0.906953086661102,10.7963100261294,4.75246665798499,0.5,2.6190280887749,1,0.5,0.997860508211346,0.903991300635836,9.14347930356433,4.73936299348996,0.5,-14.7159975747096
142,1,44,C,3,2,l,63,1,0.91,3C,2C,0,1,0,1,C32,3.06209866963241,2.46809953147162,0.00213949178865447,0.00106974589432723,0.00106974589432723,0.5,0.00106974589432723,0.999999999999955,0.5,0.00106974589432723,0.00106974589432723,0.00106974589432723,0.00213949178865447,0.00106974589432723,0.00106974589432723,0.5,2.2887125568599e-06,1,1.6309530866611,0,0,1,2C,3C,0.00213949178865447,0.00106974589432723,0.666666666666667,0.333333333333333,1,1,0.997860508211346,0.995725593847805,0.5,0.941845262812797,0.906953086661102,10.7963100261294,4.75246665798499,0.5,1.50035712794214,0.999999465067529,0.5,0.997860508211346,0.903991300635836,9.14347930356433,4.73936299348996,0.5,-14.7159975747096
