ID,filename,session,trial,visStimLeft,visStimRight,correctKey,leftCorrect,rightCorrect,secondStim,mod2Type,mod2Stim,frequency,rewardAccurate,stimPairLeft,stimPairRight,pCorrectLeft,pCorrectRight,key,reactionTime,choiceLeft,choiceRight,choiceAccurate,reward,chosenPair,otherPair,triplet,surprise,0A belief,1A belief,2A belief,3A belief,0B belief,1B belief,2B belief,3B belief,0C belief,1C belief,2C belief,3C belief,0D belief,1D belief,2D belief,3D belief,beliefPairNorm,beliefOtherPairNorm,beliefPair,beliefOtherPair,lik,corrLik,rewardPE,update2,fitCBCsimpleRW_CBCdriftDiffusionLR_startBelief,fitCBCsimpleRW_CBCdriftDiffusionLR_alpha1,fitCBCsimpleRW_CBCdriftDiffusionLR_nonDecisionTime,fitCBCsimpleRW_CBCdriftDiffusionLR_weight,fitCBCsimpleRW_CBCdriftDiffusionLR_startingBoundary,fitCBCsimpleRW_CBCdriftDiffusionLR_startingPoint,fit_CBCsimpleRW_CBCdriftDiffusionLR_NLL
CBC_1136,CBC_1136_MSI_TV_v3_Vset1_Tset1_2024-09-11_16h55.09.046.csv,1,1,0,1,b,1,0,2,tac,A,63,1,0A,1A,1,0,b,2.61230959999921,1,0,1,1,0A,1A,A01,2.77258872223978,0.5,0.5,0.5,0.5,0.5,0.5,0.5,0.5,0.5,0.5,0.5,0.5,0.5,0.5,0.5,0.5,0.5,0.5,0.5,0.5,0.139045084090939,0.500201928210012,0.5,0.0103819950384174,0.5,0.0207639900768347,1.08968079796301,12.9512970382084,3.41488709335205,0.5,75.4385025266672
CBC_1136,CBC_1136_MSI_TV_v3_Vset1_Tset1_2024-09-11_16h55.09.046.csv,1,2,3,2,z,0,1,1,tac,C,63,1,3C,2C,0,1,z,2.64874979999877,0,1,1,1,2C,3C,C32,2.83321334405622,0.510381995038417,0.5,0.5,0.5,0.5,0.5,0.5,0.5,0.5,0.5,0.5,0.5,0.5,0.5,0.5,0.5,0.5,0.5,0.5,0.5,0.137069492662713,0.499735684264212,0.5,0.0103819950384174,0.5,0.0207639900768347,1.08968079796301,12.9512970382084,3.41488709335205,0.5,75.4385025266672
CBC_1136,CBC_1136_MSI_TV_v3_Vset1_Tset1_2024-09-11_16h55.09.046.csv,1,3,0,2,b,1,0,2,tac,A,27,1,0A,2A,1,0,b,2.46874039999966,1,0,1,1,0A,2A,A02,2.89037175789616,0.510381995038417,0.5,0.5,0.5,0.5,0.5,0.5,0.5,0.5,0.5,0.510381995038417,0.5,0.5,0.5,0.5,0.5,0.505137658375446,0.494862341624554,0.510381995038417,0.5,0.18113170844974,0.611776145113992,0.489618004961583,0.0101664233964619,0.5,0.0207639900768347,1.08968079796301,12.9512970382084,3.41488709335205,0.5,75.4385025266672
CBC_1136,CBC_1136_MSI_TV_v3_Vset1_Tset1_2024-09-11_16h55.09.046.csv,1,4,1,0,b,1,0,3,tac,B,63,1,1B,0B,1,0,b,2.77429859999938,1,0,1,1,1B,0B,B10,2.94443897916644,0.520548418434879,0.5,0.5,0.5,0.5,0.5,0.5,0.5,0.5,0.5,0.510381995038417,0.5,0.5,0.5,0.5,0.5,0.5,0.5,0.5,0.5,0.131090632812295,0.501317656172361,0.5,0.0103819950384174,0.5,0.0207639900768347,1.08968079796301,12.9512970382084,3.41488709335205,0.5,75.4385025266672
CBC_1136,CBC_1136_MSI_TV_v3_Vset1_Tset1_2024-09-11_16h55.09.046.csv,1,5,0,1,z,0,1,3,tac,B,63,1,0B,1B,0,1,z,3.41376219999984,0,1,1,1,1B,0B,B01,2.99573227355399,0.520548418434879,0.5,0.5,0.5,0.5,0.510381995038417,0.5,0.5,0.5,0.5,0.510381995038417,0.5,0.5,0.5,0.5,0.5,0.505137658375446,0.494862341624554,0.510381995038417,0.5,0.12388215994969,0.61234957734178,0.489618004961583,0.0101664233964619,0.5,0.0207639900768347,1.08968079796301,12.9512970382084,3.41488709335205,0.5,75.4385025266672
CBC_1136,CBC_1136_MSI_TV_v3_Vset1_Tset1_2024-09-11_16h55.09.046.csv,1,6,3,2,z,0,1,1,tac,C,63,1,3C,2C,0,1,b,3.04884389999825,1,0,0,0,3C,2C,C32,2.35137525716348,0.520548418434879,0.5,0.5,0.5,0.5,0.520548418434879,0.5,0.5,0.5,0.5,0.510381995038417,0.5,0.5,0.5,0.5,0.5,0.494862341624554,0.505137658375446,0.5,0.510381995038417,0.0919925021466753,0.389584993370727,-0.5,-0.0103819950384174,0.5,0.0207639900768347,1.08968079796301,12.9512970382084,3.41488709335205,0.5,75.4385025266672
CBC_1136,CBC_1136_MSI_TV_v3_Vset1_Tset1_2024-09-11_16h55.09.046.csv,1,7,3,1,b,1,0,0,tac,D,27,1,3D,1D,1,0,b,2.87961279999945,1,0,1,1,3D,1D,D31,3.09104245335832,0.520548418434879,0.5,0.5,0.5,0.5,0.520548418434879,0.5,0.5,0.5,0.5,0.510381995038417,0.489618004961583,0.5,0.5,0.5,0.5,0.5,0.5,0.5,0.5,0.125606091608859,0.500717521635983,0.5,0.0103819950384174,0.5,0.0207639900768347,1.08968079796301,12.9512970382084,3.41488709335205,0.5,75.4385025266672
CBC_1136,CBC_1136_MSI_TV_v3_Vset1_Tset1_2024-09-11_16h55.09.046.csv,1,8,1,2,z,0,1,1,tac,C,9,1,1C,2C,0,1,z,2.48598139999922,0,1,1,1,2C,1C,C12,3.13549421592915,0.520548418434879,0.5,0.5,0.5,0.5,0.520548418434879,0.5,0.5,0.5,0.5,0.510381995038417,0.489618004961583,0.5,0.5,0.5,0.510381995038417,0.505137658375446,0.494862341624554,0.510381995038417,0.5,0.179553946320261,0.610208926780713,0.489618004961583,0.0101664233964619,0.5,0.0207639900768347,1.08968079796301,12.9512970382084,3.41488709335205,0.5,75.4385025266672
CBC_1136,CBC_1136_MSI_TV_v3_Vset1_Tset1_2024-09-11_16h55.09.046.csv,1,9,3,1,z,0,1,3,tac,B,27,1,3B,1B,0,1,z,2.83565689999887,0,1,1,1,1B,3B,B31,3.17805383034795,0.520548418434879,0.5,0.5,0.5,0.5,0.520548418434879,0.5,0.5,0.5,0.5,0.520548418434879,0.489618004961583,0.5,0.5,0.5,0.510381995038417,0.510067341276366,0.489932658723634,0.520548418434879,0.5,0.187827900789253,0.709249680704222,0.479451581565121,0.00995532788194088,0.5,0.0207639900768347,1.08968079796301,12.9512970382084,3.41488709335205,0.5,75.4385025266672
CBC_1136,CBC_1136_MSI_TV_v3_Vset1_Tset1_2024-09-11_16h55.09.046.csv,1,10,3,2,b,1,0,0,tac,D,63,1,3D,2D,1,0,b,2.6435691000006,1,0,1,1,3D,2D,D32,3.2188758248682,0.520548418434879,0.5,0.5,0.5,0.5,0.53050374631682,0.5,0.5,0.5,0.5,0.520548418434879,0.489618004961583,0.5,0.5,0.5,0.510381995038417,0.505137658375446,0.494862341624554,0.510381995038417,0.5,0.170047233222464,0.611522118506934,0.489618004961583,0.0101664233964619,0.5,0.0207639900768347,1.08968079796301,12.9512970382084,3.41488709335205,0.5,75.4385025266672
CBC_1136,CBC_1136_MSI_TV_v3_Vset1_Tset1_2024-09-11_16h55.09.046.csv,1,11,1,0,b,1,0,3,tac,B,63,1,1B,0B,1,0,z,3.4582448000001,0,1,0,0,0B,1B,B10,2.56494935746154,0.520548418434879,0.5,0.5,0.5,0.5,0.53050374631682,0.5,0.5,0.5,0.5,0.520548418434879,0.489618004961583,0.5,0.5,0.5,0.520548418434879,0.48519959465172,0.51480040534828,0.5,0.53050374631682,0.0430533883189132,0.212229766205812,-0.5,-0.0103819950384174,0.5,0.0207639900768347,1.08968079796301,12.9512970382084,3.41488709335205,0.5,75.4385025266672
CBC_1136,CBC_1136_MSI_TV_v3_Vset1_Tset1_2024-09-11_16h55.09.046.csv,1,12,0,2,z,0,1,1,tac,C,27,1,0C,2C,0,1,z,2.73355219999939,0,1,1,1,2C,0C,C02,3.29583686600433,0.520548418434879,0.5,0.5,0.5,0.489618004961583,0.53050374631682,0.5,0.5,0.5,0.5,0.520548418434879,0.489618004961583,0.5,0.5,0.5,0.520548418434879,0.510067341276366,0.489932658723634,0.520548418434879,0.5,0.195931803145725,0.708666526382941,0.479451581565121,0.00995532788194088,0.5,0.0207639900768347,1.08968079796301,12.9512970382084,3.41488709335205,0.5,75.4385025266672
CBC_1136,CBC_1136_MSI_TV_v3_Vset1_Tset1_2024-09-11_16h55.09.046.csv,1,13,3,2,b,1,0,0,tac,D,63,0,3D,2D,0,1,b,2.46111779999956,1,0,1,0,3D,2D,D32,2.63905732961526,0.520548418434879,0.5,0.5,0.5,0.489618004961583,0.53050374631682,0.5,0.5,0.5,0.5,0.53050374631682,0.489618004961583,0.5,0.5,0.5,0.520548418434879,0.510067341276366,0.489932658723634,0.520548418434879,0.5,0.218275259527277,0.709309736776495,-0.520548418434879,-0.0108086621948938,0.5,0.0207639900768347,1.08968079796301,12.9512970382084,3.41488709335205,0.5,75.4385025266672
CBC_1136,CBC_1136_MSI_TV_v3_Vset1_Tset1_2024-09-11_16h55.09.046.csv,1,14,1,0,z,0,1,2,tac,A,63,1,1A,0A,0,1,b,3.03124849999949,1,0,0,0,1A,0A,A10,3.36729582998647,0.520548418434879,0.5,0.5,0.5,0.489618004961583,0.53050374631682,0.5,0.5,0.5,0.5,0.53050374631682,0.489618004961583,0.5,0.5,0.5,0.509739756239985,0.489932658723634,0.510067341276366,0.5,0.520548418434879,0.0708461175475763,0.2914516942794,-0.5,-0.0103819950384174,0.5,0.0207639900768347,1.08968079796301,12.9512970382084,3.41488709335205,0.5,75.4385025266672
CBC_1136,CBC_1136_MSI_TV_v3_Vset1_Tset1_2024-09-11_16h55.09.046.csv,1,15,2,3,b,1,0,1,tac,C,63,1,2C,3C,1,0,b,2.37861369999882,1,0,1,1,2C,3C,C23,3.40119738166216,0.520548418434879,0.489618004961583,0.5,0.5,0.489618004961583,0.53050374631682,0.5,0.5,0.5,0.5,0.53050374631682,0.489618004961583,0.5,0.5,0.5,0.509739756239985,0.52003963806477,0.47996036193523,0.53050374631682,0.489618004961583,0.306316985756515,0.854842226774422,0.46949625368318,0.00974861555258862,0.5,0.0207639900768347,1.08968079796301,12.9512970382084,3.41488709335205,0.5,75.4385025266672
CBC_1136,CBC_1136_MSI_TV_v3_Vset1_Tset1_2024-09-11_16h55.09.046.csv,1,16,0,2,b,1,0,2,tac,A,27,1,0A,2A,1,0,b,2.51693109999906,1,0,1,1,0A,2A,A02,2.7408400239252,0.520548418434879,0.489618004961583,0.5,0.5,0.489618004961583,0.53050374631682,0.5,0.5,0.5,0.5,0.540252361869409,0.489618004961583,0.5,0.5,0.5,0.509739756239985,0.510067341276366,0.489932658723634,0.520548418434879,0.5,0.213952190257348,0.709526753274887,0.479451581565121,0.00995532788194088,0.5,0.0207639900768347,1.08968079796301,12.9512970382084,3.41488709335205,0.5,75.4385025266672
CBC_1136,CBC_1136_MSI_TV_v3_Vset1_Tset1_2024-09-11_16h55.09.046.csv,1,17,2,3,z,0,1,0,tac,D,63,1,2D,3D,0,1,z,3.02874089999932,0,1,1,1,3D,2D,D23,3.46573590279973,0.53050374631682,0.489618004961583,0.5,0.5,0.489618004961583,0.53050374631682,0.5,0.5,0.5,0.5,0.540252361869409,0.489618004961583,0.5,0.5,0.5,0.509739756239985,0.504822904208632,0.495177095791368,0.509739756239985,0.5,0.144084889726451,0.605524194560165,0.490260243760015,0.0101797588364995,0.5,0.0207639900768347,1.08968079796301,12.9512970382084,3.41488709335205,0.5,75.4385025266672
CBC_1136,CBC_1136_MSI_TV_v3_Vset1_Tset1_2024-09-11_16h55.09.046.csv,1,18,3,2,b,1,0,0,tac,D,63,1,3D,2D,1,0,b,2.86559849999867,1,0,1,1,3D,2D,D32,2.39789527279837,0.53050374631682,0.489618004961583,0.5,0.5,0.489618004961583,0.53050374631682,0.5,0.5,0.5,0.5,0.540252361869409,0.489618004961583,0.5,0.5,0.5,0.519919515076485,0.509765238718367,0.490234761281634,0.519919515076485,0.5,0.183537314414945,0.70347067865515,0.480080484923515,0.00996838642503386,0.5,0.0207639900768347,1.08968079796301,12.9512970382084,3.41488709335205,0.5,75.4385025266672
CBC_1136,CBC_1136_MSI_TV_v3_Vset1_Tset1_2024-09-11_16h55.09.046.csv,1,19,3,1,z,0,1,3,tac,B,27,1,3B,1B,0,1,z,3.01946059999864,0,1,1,1,1B,3B,B31,2.83321334405622,0.53050374631682,0.489618004961583,0.5,0.5,0.489618004961583,0.53050374631682,0.5,0.5,0.5,0.5,0.540252361869409,0.489618004961583,0.5,0.5,0.5,0.529887901501519,0.51480040534828,0.48519959465172,0.53050374631682,0.5,0.198179985225799,0.788089166806301,0.46949625368318,0.00974861555258862,0.5,0.0207639900768347,1.08968079796301,12.9512970382084,3.41488709335205,0.5,75.4385025266672
CBC_1136,CBC_1136_MSI_TV_v3_Vset1_Tset1_2024-09-11_16h55.09.046.csv,1,20,0,3,z,0,1,0,tac,D,9,1,0D,3D,NaN,NaN,None,NaN,NaN,NaN,NaN,NaN,,,D03,3.55534806148941,0.53050374631682,0.489618004961583,0.5,0.5,0.489618004961583,0.540252361869409,0.5,0.5,0.5,0.5,0.540252361869409,0.489618004961583,0.5,0.5,0.5,0.529887901501519,0,0,0,0,NaN,0,0,0,0.5,0.0207639900768347,1.08968079796301,12.9512970382084,3.41488709335205,0.5,75.4385025266672
CBC_1136,CBC_1136_MSI_TV_v3_Vset1_Tset1_2024-09-11_16h55.09.046.csv,1,21,1,0,b,1,0,3,tac,B,63,1,1B,0B,1,0,z,2.47624919999907,0,1,0,0,0B,1B,B10,2.484906649788,0.53050374631682,0.489618004961583,0.5,0.5,0.489618004961583,0.540252361869409,0.5,0.5,0.5,0.5,0.540252361869409,0.489618004961583,0.5,0.5,0.5,0.529887901501519,0.47541712115495,0.52458287884505,0.489618004961583,0.540252361869409,0.0369519806455028,0.101626199470753,-0.489618004961583,-0.0101664233964619,0.5,0.0207639900768347,1.08968079796301,12.9512970382084,3.41488709335205,0.5,75.4385025266672
CBC_1136,CBC_1136_MSI_TV_v3_Vset1_Tset1_2024-09-11_16h55.09.046.csv,1,22,1,0,z,0,1,2,tac,A,63,1,1A,0A,0,1,b,3.81197179999981,1,0,0,0,1A,0A,A10,2.91777073208428,0.53050374631682,0.489618004961583,0.5,0.5,0.479451581565121,0.540252361869409,0.5,0.5,0.5,0.5,0.540252361869409,0.489618004961583,0.5,0.5,0.5,0.529887901501519,0.47996036193523,0.52003963806477,0.489618004961583,0.53050374631682,0.0242208824871619,0.144726813945702,-0.489618004961583,-0.0101664233964619,0.5,0.0207639900768347,1.08968079796301,12.9512970382084,3.41488709335205,0.5,75.4385025266672
CBC_1136,CBC_1136_MSI_TV_v3_Vset1_Tset1_2024-09-11_16h55.09.046.csv,1,23,2,3,b,1,0,1,tac,C,63,1,2C,3C,1,0,b,4.00802289999956,1,0,1,1,2C,3C,C23,2.94443897916644,0.53050374631682,0.479451581565121,0.5,0.5,0.479451581565121,0.540252361869409,0.5,0.5,0.5,0.5,0.540252361869409,0.489618004961583,0.5,0.5,0.5,0.529887901501519,0.52458287884505,0.47541712115495,0.540252361869409,0.489618004961583,0.128625085144812,0.897449948704754,0.459747638130591,0.00954619539599179,0.5,0.0207639900768347,1.08968079796301,12.9512970382084,3.41488709335205,0.5,75.4385025266672
CBC_1136,CBC_1136_MSI_TV_v3_Vset1_Tset1_2024-09-11_16h55.09.046.csv,1,24,0,2,b,1,0,2,tac,A,27,1,0A,2A,1,0,b,2.09494769999947,1,0,1,1,0A,2A,A02,2.56494935746154,0.53050374631682,0.479451581565121,0.5,0.5,0.479451581565121,0.540252361869409,0.5,0.5,0.5,0.5,0.549798557265401,0.489618004961583,0.5,0.5,0.5,0.529887901501519,0.51480040534828,0.48519959465172,0.53050374631682,0.5,0.283135450146164,0.787093873513299,0.46949625368318,0.00974861555258862,0.5,0.0207639900768347,1.08968079796301,12.9512970382084,3.41488709335205,0.5,75.4385025266672
CBC_1136,CBC_1136_MSI_TV_v3_Vset1_Tset1_2024-09-11_16h55.09.046.csv,1,25,1,0,b,1,0,3,tac,B,63,1,1B,0B,1,0,b,3.16642189999948,1,0,1,1,1B,0B,B10,2.30258509299405,0.540252361869409,0.479451581565121,0.5,0.5,0.479451581565121,0.540252361869409,0.5,0.5,0.5,0.5,0.549798557265401,0.489618004961583,0.5,0.5,0.5,0.529887901501519,0.52981295732735,0.47018704267265,0.540252361869409,0.479451581565121,0.224504315025397,0.932918645740073,0.459747638130591,0.00954619539599179,0.5,0.0207639900768347,1.08968079796301,12.9512970382084,3.41488709335205,0.5,75.4385025266672
CBC_1136,CBC_1136_MSI_TV_v3_Vset1_Tset1_2024-09-11_16h55.09.046.csv,1,26,2,3,z,0,1,0,tac,D,63,1,2D,3D,0,1,z,3.38331769999968,0,1,1,1,3D,2D,D23,3.02042488614436,0.540252361869409,0.479451581565121,0.5,0.5,0.479451581565121,0.549798557265401,0.5,0.5,0.5,0.5,0.549798557265401,0.489618004961583,0.5,0.5,0.5,0.529887901501519,0.514510269252578,0.485489730747422,0.529887901501519,0.5,0.16487648126968,0.783823923989816,0.470112098498481,0.00976140294822241,0.5,0.0207639900768347,1.08968079796301,12.9512970382084,3.41488709335205,0.5,75.4385025266672
CBC_1136,CBC_1136_MSI_TV_v3_Vset1_Tset1_2024-09-11_16h55.09.046.csv,1,27,1,2,b,1,0,3,tac,B,9,1,1B,2B,1,0,z,3.92327729999852,0,1,0,0,2B,1B,B12,3.73766961828337,0.540252361869409,0.479451581565121,0.5,0.5,0.479451581565121,0.549798557265401,0.5,0.5,0.5,0.5,0.549798557265401,0.489618004961583,0.5,0.5,0.5,0.539649304449741,0.47628185097,0.523718149030001,0.5,0.549798557265401,0.0165903485583122,0.108877500718773,-0.5,-0.0103819950384174,0.5,0.0207639900768347,1.08968079796301,12.9512970382084,3.41488709335205,0.5,75.4385025266672
CBC_1136,CBC_1136_MSI_TV_v3_Vset1_Tset1_2024-09-11_16h55.09.046.csv,1,28,1,3,z,0,1,0,tac,D,27,1,1D,3D,0,1,z,2.3646033999994,0,1,1,1,3D,1D,D13,3.76120011569356,0.540252361869409,0.479451581565121,0.5,0.5,0.479451581565121,0.549798557265401,0.489618004961583,0.5,0.5,0.5,0.549798557265401,0.489618004961583,0.5,0.5,0.5,0.539649304449741,0.519068595669732,0.480931404330268,0.539649304449741,0.5,0.300104078967538,0.843989732887067,0.460350695550259,0.00955871727426953,0.5,0.0207639900768347,1.08968079796301,12.9512970382084,3.41488709335205,0.5,75.4385025266672
CBC_1136,CBC_1136_MSI_TV_v3_Vset1_Tset1_2024-09-11_16h55.09.046.csv,1,29,1,0,z,0,1,2,tac,A,63,1,1A,0A,0,1,z,3.8958304000007,0,1,1,1,0A,1A,A10,2.68557734525015,0.540252361869409,0.479451581565121,0.5,0.5,0.479451581565121,0.549798557265401,0.489618004961583,0.5,0.5,0.5,0.549798557265401,0.489618004961583,0.5,0.5,0.5,0.549208021724011,0.52981295732735,0.47018704267265,0.540252361869409,0.479451581565121,0.132939644882266,0.933405119315045,0.459747638130591,0.00954619539599179,0.5,0.0207639900768347,1.08968079796301,12.9512970382084,3.41488709335205,0.5,75.4385025266672
CBC_1136,CBC_1136_MSI_TV_v3_Vset1_Tset1_2024-09-11_16h55.09.046.csv,1,30,0,1,b,1,0,2,tac,A,63,1,0A,1A,1,0,b,2.47613199999978,1,0,1,1,0A,1A,A01,3.11351530921037,0.549798557265401,0.479451581565121,0.5,0.5,0.479451581565121,0.549798557265401,0.489618004961583,0.5,0.5,0.5,0.549798557265401,0.489618004961583,0.5,0.5,0.5,0.549208021724011,0.534173896629352,0.465826103370649,0.549798557265401,0.479451581565121,0.383613600737501,0.953518895503125,0.450201442734599,0.00934797828951789,0.5,0.0207639900768347,1.08968079796301,12.9512970382084,3.41488709335205,0.5,75.4385025266672
CBC_1136,CBC_1136_MSI_TV_v3_Vset1_Tset1_2024-09-11_16h55.09.046.csv,1,31,0,2,z,0,1,1,tac,C,27,1,0C,2C,0,1,z,3.37154109999938,0,1,1,1,2C,0C,C02,3.13549421592915,0.559146535554919,0.479451581565121,0.5,0.5,0.479451581565121,0.549798557265401,0.489618004961583,0.5,0.5,0.5,0.549798557265401,0.489618004961583,0.5,0.5,0.5,0.549208021724011,0.523718149030001,0.47628185097,0.549798557265401,0.5,0.190114826356027,0.890730853748502,0.450201442734599,0.00934797828951789,0.5,0.0207639900768347,1.08968079796301,12.9512970382084,3.41488709335205,0.5,75.4385025266672
CBC_1136,CBC_1136_MSI_TV_v3_Vset1_Tset1_2024-09-11_16h55.09.046.csv,1,32,1,0,z,0,1,2,tac,A,63,1,1A,0A,0,1,z,2.89568529999815,0,1,1,1,0A,1A,A10,2.46385324059017,0.559146535554919,0.479451581565121,0.5,0.5,0.479451581565121,0.549798557265401,0.489618004961583,0.5,0.5,0.5,0.559146535554919,0.489618004961583,0.5,0.5,0.5,0.549208021724011,0.538366598531291,0.461633401468709,0.559146535554919,0.479451581565121,0.278761644354908,0.967444462017435,0.440853464445081,0.00915387696107588,0.5,0.0207639900768347,1.08968079796301,12.9512970382084,3.41488709335205,0.5,75.4385025266672
CBC_1136,CBC_1136_MSI_TV_v3_Vset1_Tset1_2024-09-11_16h55.09.046.csv,1,33,1,0,b,1,0,3,tac,B,63,1,1B,0B,1,0,b,3.77738399999907,1,0,1,1,1B,0B,B10,2.26176309847379,0.568300412515994,0.479451581565121,0.5,0.5,0.479451581565121,0.549798557265401,0.489618004961583,0.5,0.5,0.5,0.559146535554919,0.489618004961583,0.5,0.5,0.5,0.549208021724011,0.534173896629352,0.465826103370649,0.549798557265401,0.479451581565121,0.136499532229674,0.953729302752051,0.450201442734599,0.00934797828951789,0.5,0.0207639900768347,1.08968079796301,12.9512970382084,3.41488709335205,0.5,75.4385025266672
CBC_1136,CBC_1136_MSI_TV_v3_Vset1_Tset1_2024-09-11_16h55.09.046.csv,1,34,3,2,b,1,0,0,tac,D,63,1,3D,2D,1,0,b,2.91878159999942,1,0,1,1,3D,2D,D32,2.50552593699074,0.568300412515994,0.479451581565121,0.5,0.5,0.479451581565121,0.559146535554919,0.489618004961583,0.5,0.5,0.5,0.559146535554919,0.489618004961583,0.5,0.5,0.5,0.549208021724011,0.523450078871468,0.476549921128532,0.549208021724011,0.5,0.248400730472609,0.887992639544612,0.450791978275989,0.00936024016363933,0.5,0.0207639900768347,1.08968079796301,12.9512970382084,3.41488709335205,0.5,75.4385025266672
CBC_1136,CBC_1136_MSI_TV_v3_Vset1_Tset1_2024-09-11_16h55.09.046.csv,1,35,3,1,z,0,1,3,tac,B,27,1,3B,1B,0,1,z,2.46175439999934,0,1,1,1,1B,3B,B31,2.81341071676004,0.568300412515994,0.479451581565121,0.5,0.5,0.479451581565121,0.559146535554919,0.489618004961583,0.5,0.5,0.5,0.559146535554919,0.489618004961583,0.5,0.5,0.5,0.55856826188765,0.527921790597148,0.472078209402852,0.559146535554919,0.5,0.351798426524718,0.922233523604282,0.440853464445081,0.00915387696107588,0.5,0.0207639900768347,1.08968079796301,12.9512970382084,3.41488709335205,0.5,75.4385025266672
CBC_1136,CBC_1136_MSI_TV_v3_Vset1_Tset1_2024-09-11_16h55.09.046.csv,1,36,3,2,z,0,1,1,tac,C,63,1,3C,2C,0,1,z,2.60933609999847,0,1,1,1,2C,3C,C32,2.83321334405622,0.568300412515994,0.479451581565121,0.5,0.5,0.479451581565121,0.568300412515994,0.489618004961583,0.5,0.5,0.5,0.559146535554919,0.489618004961583,0.5,0.5,0.5,0.55856826188765,0.533147826755801,0.466852173244199,0.559146535554919,0.489618004961583,0.344364880159135,0.94955223058463,0.440853464445081,0.00915387696107588,0.5,0.0207639900768347,1.08968079796301,12.9512970382084,3.41488709335205,0.5,75.4385025266672
CBC_1136,CBC_1136_MSI_TV_v3_Vset1_Tset1_2024-09-11_16h55.09.046.csv,1,37,2,0,b,1,0,1,tac,C,27,1,2C,0C,1,0,b,2.79060980000031,1,0,1,1,2C,0C,C20,3.95124371858143,0.568300412515994,0.479451581565121,0.5,0.5,0.479451581565121,0.568300412515994,0.489618004961583,0.5,0.5,0.5,0.568300412515994,0.489618004961583,0.5,0.5,0.5,0.55856826188765,0.531966856754804,0.468033143245196,0.568300412515994,0.5,0.298210317654548,0.944268585248907,0.431699587484006,0.00896380595069153,0.5,0.0207639900768347,1.08968079796301,12.9512970382084,3.41488709335205,0.5,75.4385025266672
CBC_1136,CBC_1136_MSI_TV_v3_Vset1_Tset1_2024-09-11_16h55.09.046.csv,1,38,1,0,b,1,0,3,tac,B,63,1,1B,0B,1,0,b,2.94079469999997,1,0,1,1,1B,0B,B10,2.17853244432407,0.568300412515994,0.479451581565121,0.5,0.5,0.479451581565121,0.568300412515994,0.489618004961583,0.5,0.5,0.5,0.577264218466686,0.489618004961583,0.5,0.5,0.5,0.55856826188765,0.542399743189606,0.457600256810394,0.568300412515994,0.479451581565121,0.261521162317711,0.97690502156236,0.431699587484006,0.00896380595069153,0.5,0.0207639900768347,1.08968079796301,12.9512970382084,3.41488709335205,0.5,75.4385025266672
CBC_1136,CBC_1136_MSI_TV_v3_Vset1_Tset1_2024-09-11_16h55.09.046.csv,1,39,3,0,z,0,1,2,tac,A,9,1,3A,0A,0,1,z,2.7433216999998,0,1,1,1,0A,3A,A30,3.98898404656427,0.568300412515994,0.479451581565121,0.5,0.5,0.479451581565121,0.577264218466686,0.489618004961583,0.5,0.5,0.5,0.577264218466686,0.489618004961583,0.5,0.5,0.5,0.55856826188765,0.531966856754804,0.468033143245196,0.568300412515994,0.5,0.308480393207707,0.943881518752592,0.431699587484006,0.00896380595069153,0.5,0.0207639900768347,1.08968079796301,12.9512970382084,3.41488709335205,0.5,75.4385025266672
CBC_1136,CBC_1136_MSI_TV_v3_Vset1_Tset1_2024-09-11_16h55.09.046.csv,1,40,3,2,z,0,1,1,tac,C,63,0,3C,2C,1,0,z,2.34899939999923,0,1,1,0,2C,3C,C32,2.62103882411258,0.577264218466686,0.479451581565121,0.5,0.5,0.479451581565121,0.577264218466686,0.489618004961583,0.5,0.5,0.5,0.577264218466686,0.489618004961583,0.5,0.5,0.5,0.55856826188765,0.541075861787005,0.458924138212995,0.577264218466686,0.489618004961583,0.456590345698792,0.974195831940806,-0.577264218466686,-0.011986308503954,0.5,0.0207639900768347,1.08968079796301,12.9512970382084,3.41488709335205,0.5,75.4385025266672
CBC_1136,CBC_1136_MSI_TV_v3_Vset1_Tset1_2024-09-11_16h55.09.046.csv,1,41,1,0,z,0,1,2,tac,A,63,1,1A,0A,0,1,z,2.99406439999802,0,1,1,1,0A,1A,A10,2.41591377830105,0.577264218466686,0.479451581565121,0.5,0.5,0.479451581565121,0.577264218466686,0.489618004961583,0.5,0.5,0.5,0.565277909962732,0.489618004961583,0.5,0.5,0.5,0.55856826188765,0.546281430115184,0.453718569884816,0.577264218466686,0.479451581565121,0.236324418332851,0.983482528199748,0.422735781533314,0.0087776815728807,0.5,0.0207639900768347,1.08968079796301,12.9512970382084,3.41488709335205,0.5,75.4385025266672
CBC_1136,CBC_1136_MSI_TV_v3_Vset1_Tset1_2024-09-11_16h55.09.046.csv,1,42,3,2,b,1,0,0,tac,D,63,1,3D,2D,1,0,b,2.32533960000001,1,0,1,1,3D,2D,D32,2.43361335540045,0.586041900039567,0.479451581565121,0.5,0.5,0.479451581565121,0.577264218466686,0.489618004961583,0.5,0.5,0.5,0.565277909962732,0.489618004961583,0.5,0.5,0.5,0.55856826188765,0.527663904160139,0.472336095839861,0.55856826188765,0.5,0.376478471392953,0.919764996003717,0.44143173811235,0.00916588422976474,0.5,0.0207639900768347,1.08968079796301,12.9512970382084,3.41488709335205,0.5,75.4385025266672
CBC_1136,CBC_1136_MSI_TV_v3_Vset1_Tset1_2024-09-11_16h55.09.046.csv,1,43,2,3,b,1,0,1,tac,C,63,1,2C,3C,1,0,b,2.39797179999914,1,0,1,1,2C,3C,C23,2.96183072187831,0.586041900039567,0.479451581565121,0.5,0.5,0.479451581565121,0.577264218466686,0.489618004961583,0.5,0.5,0.5,0.565277909962732,0.489618004961583,0.5,0.5,0.5,0.567734146117415,0.535861312917577,0.464138687082423,0.565277909962732,0.489618004961583,0.414968774982102,0.959891327171213,0.434722090037268,0.00902656516371468,0.5,0.0207639900768347,1.08968079796301,12.9512970382084,3.41488709335205,0.5,75.4385025266672
CBC_1136,CBC_1136_MSI_TV_v3_Vset1_Tset1_2024-09-11_16h55.09.046.csv,1,44,1,3,z,0,1,0,tac,D,27,1,1D,3D,0,1,z,2.47724860000017,0,1,1,1,3D,1D,D13,3.38439026334577,0.586041900039567,0.479451581565121,0.5,0.5,0.479451581565121,0.577264218466686,0.489618004961583,0.5,0.5,0.5,0.574304475126447,0.489618004961583,0.5,0.5,0.5,0.567734146117415,0.531718638185224,0.468281361814776,0.567734146117415,0.5,0.370560748797295,0.9427293612581,0.432265853882585,0.00897556390057249,0.5,0.0207639900768347,1.08968079796301,12.9512970382084,3.41488709335205,0.5,75.4385025266672
CBC_1136,CBC_1136_MSI_AV_v3_Vset3_Aset3_2024-09-11_17h04.04.997.csv,2,1,0,1,z,0,1,3,aud,B,63,1,0B,1B,0,1,b,2.71168439999929,1,0,0,0,0B,1B,B01,2.77258872223978,0.5,0.5,0.5,0.5,0.5,0.5,0.5,0.5,0.5,0.5,0.5,0.5,0.5,0.5,0.5,0.5,0.5,0.5,0.5,0.5,0.144823808153899,0.500618378990985,-0.5,-0.0696000039212996,0.5,0.139200007842599,1.09434592164439,1.94724855455049,2.79225552865376,0.5,78.2512358647317
CBC_1136,CBC_1136_MSI_AV_v3_Vset3_Aset3_2024-09-11_17h04.04.997.csv,2,2,2,3,z,0,1,0,aud,D,63,1,2D,3D,0,1,b,2.64887480000107,1,0,0,0,2D,3D,D23,2.83321334405622,0.5,0.5,0.5,0.5,0.4303999960787,0.5,0.5,0.5,0.5,0.5,0.5,0.5,0.5,0.5,0.5,0.5,0.5,0.5,0.5,0.5,0.150486961374999,0.500076192651362,-0.5,-0.0696000039212996,0.5,0.139200007842599,1.09434592164439,1.94724855455049,2.79225552865376,0.5,78.2512358647317
CBC_1136,CBC_1136_MSI_AV_v3_Vset3_Aset3_2024-09-11_17h04.04.997.csv,2,3,1,3,b,1,0,3,aud,B,27,1,1B,3B,1,0,b,2.50221369999963,1,0,1,1,1B,3B,B13,2.89037175789616,0.5,0.5,0.5,0.5,0.4303999960787,0.5,0.5,0.5,0.5,0.5,0.5,0.5,0.5,0.5,0.4303999960787,0.5,0.5,0.5,0.5,0.5,0.165388425157848,0.50150594643962,0.5,0.0696000039212996,0.5,0.139200007842599,1.09434592164439,1.94724855455049,2.79225552865376,0.5,78.2512358647317
CBC_1136,CBC_1136_MSI_AV_v3_Vset3_Aset3_2024-09-11_17h04.04.997.csv,2,4,3,2,z,0,1,1,aud,C,63,1,3C,2C,0,1,b,3.50262289999955,1,0,0,0,3C,2C,C32,2.94443897916644,0.5,0.5,0.5,0.5,0.4303999960787,0.5696000039213,0.5,0.5,0.5,0.5,0.5,0.5,0.5,0.5,0.4303999960787,0.5,0.5,0.5,0.5,0.5,0.0880063022977499,0.501463519862257,-0.5,-0.0696000039212996,0.5,0.139200007842599,1.09434592164439,1.94724855455049,2.79225552865376,0.5,78.2512358647317
CBC_1136,CBC_1136_MSI_AV_v3_Vset3_Aset3_2024-09-11_17h04.04.997.csv,2,5,2,0,b,1,0,1,aud,C,27,1,2C,0C,1,0,z,3.28177850000066,0,1,0,0,0C,2C,C20,2.99573227355399,0.5,0.5,0.5,0.5,0.4303999960787,0.5696000039213,0.5,0.5,0.5,0.5,0.5,0.4303999960787,0.5,0.5,0.4303999960787,0.5,0.5,0.5,0.5,0.5,0.100798049302509,0.499442017874972,-0.5,-0.0696000039212996,0.5,0.139200007842599,1.09434592164439,1.94724855455049,2.79225552865376,0.5,78.2512358647317
CBC_1136,CBC_1136_MSI_AV_v3_Vset3_Aset3_2024-09-11_17h04.04.997.csv,2,6,3,0,z,0,1,2,aud,A,9,1,3A,0A,0,1,z,2.51900829999977,0,1,1,1,0A,3A,A30,3.04452243772342,0.5,0.5,0.5,0.5,0.4303999960787,0.5696000039213,0.5,0.5,0.4303999960787,0.5,0.5,0.4303999960787,0.5,0.5,0.4303999960787,0.5,0.5,0.5,0.5,0.5,0.163292462806919,0.500344101775241,0.5,0.0696000039212996,0.5,0.139200007842599,1.09434592164439,1.94724855455049,2.79225552865376,0.5,78.2512358647317
CBC_1136,CBC_1136_MSI_AV_v3_Vset3_Aset3_2024-09-11_17h04.04.997.csv,2,7,3,2,z,0,1,1,aud,C,63,1,3C,2C,0,1,z,2.59065870000086,0,1,1,1,2C,3C,C32,2.39789527279837,0.5696000039213,0.5,0.5,0.5,0.4303999960787,0.5696000039213,0.5,0.5,0.4303999960787,0.5,0.5,0.4303999960787,0.5,0.5,0.4303999960787,0.5,0.537403269676826,0.462596730323174,0.5,0.4303999960787,0.188006906318926,0.599626970313276,0.5,0.0696000039212996,0.5,0.139200007842599,1.09434592164439,1.94724855455049,2.79225552865376,0.5,78.2512358647317
CBC_1136,CBC_1136_MSI_AV_v3_Vset3_Aset3_2024-09-11_17h04.04.997.csv,2,8,0,1,b,1,0,2,aud,A,63,1,0A,1A,1,0,z,2.85757170000034,0,1,0,0,1A,0A,A01,3.13549421592915,0.5696000039213,0.5,0.5,0.5,0.4303999960787,0.5696000039213,0.5,0.5,0.4303999960787,0.5,0.5696000039213,0.4303999960787,0.5,0.5,0.4303999960787,0.5,0.467464470986286,0.532535529013714,0.5,0.5696000039213,0.108648539122203,0.411123266449228,-0.5,-0.0696000039212996,0.5,0.139200007842599,1.09434592164439,1.94724855455049,2.79225552865376,0.5,78.2512358647317
CBC_1136,CBC_1136_MSI_AV_v3_Vset3_Aset3_2024-09-11_17h04.04.997.csv,2,9,3,2,b,1,0,0,aud,D,63,1,3D,2D,1,0,z,3.27926350000052,0,1,0,0,2D,3D,D32,3.17805383034795,0.5696000039213,0.4303999960787,0.5,0.5,0.4303999960787,0.5696000039213,0.5,0.5,0.4303999960787,0.5,0.5696000039213,0.4303999960787,0.5,0.5,0.4303999960787,0.5,0.462596730323174,0.537403269676826,0.4303999960787,0.5,0.0806252459075823,0.399903481401389,-0.4303999960787,-0.0599116828296098,0.5,0.139200007842599,1.09434592164439,1.94724855455049,2.79225552865376,0.5,78.2512358647317
CBC_1136,CBC_1136_MSI_AV_v3_Vset3_Aset3_2024-09-11_17h04.04.997.csv,2,10,2,3,b,1,0,1,aud,C,63,1,2C,3C,1,0,b,2.42312149999998,1,0,1,1,2C,3C,C23,3.2188758248682,0.5696000039213,0.4303999960787,0.5,0.5,0.4303999960787,0.5696000039213,0.5,0.5,0.4303999960787,0.5,0.5696000039213,0.4303999960787,0.5,0.5,0.370488313249091,0.5,0.5696000039213,0.4303999960787,0.5696000039213,0.4303999960787,0.240633438303278,0.680377752379333,0.4303999960787,0.0599116828296098,0.5,0.139200007842599,1.09434592164439,1.94724855455049,2.79225552865376,0.5,78.2512358647317
CBC_1136,CBC_1136_MSI_AV_v3_Vset3_Aset3_2024-09-11_17h04.04.997.csv,2,11,1,3,z,0,1,0,aud,D,27,1,1D,3D,0,1,b,2.80988419999812,1,0,0,0,1D,3D,D13,3.25809653802148,0.5696000039213,0.4303999960787,0.5,0.5,0.4303999960787,0.5696000039213,0.5,0.5,0.4303999960787,0.5,0.629511686750909,0.4303999960787,0.5,0.5,0.370488313249091,0.5,0.5,0.5,0.5,0.5,0.136219222717052,0.500906424348649,-0.5,-0.0696000039212996,0.5,0.139200007842599,1.09434592164439,1.94724855455049,2.79225552865376,0.5,78.2512358647317
CBC_1136,CBC_1136_MSI_AV_v3_Vset3_Aset3_2024-09-11_17h04.04.997.csv,2,12,1,0,z,0,1,2,aud,A,63,0,1A,0A,1,0,b,3.21545370000058,1,0,0,1,1A,0A,A10,3.29583686600433,0.5696000039213,0.4303999960787,0.5,0.5,0.4303999960787,0.5696000039213,0.5,0.5,0.4303999960787,0.5,0.629511686750909,0.4303999960787,0.5,0.4303999960787,0.370488313249091,0.5,0.4303999960787,0.5696000039213,0.4303999960787,0.5696000039213,0.0663566949376517,0.317853846891839,0.5696000039213,0.0792883250129895,0.5,0.139200007842599,1.09434592164439,1.94724855455049,2.79225552865376,0.5,78.2512358647317
CBC_1136,CBC_1136_MSI_AV_v3_Vset3_Aset3_2024-09-11_17h04.04.997.csv,2,13,2,3,b,1,0,1,aud,C,63,1,2C,3C,1,0,z,2.98721189999924,0,1,0,0,3C,2C,C23,2.63905732961526,0.5696000039213,0.50968832109169,0.5,0.5,0.4303999960787,0.5696000039213,0.5,0.5,0.4303999960787,0.5,0.629511686750909,0.4303999960787,0.5,0.4303999960787,0.370488313249091,0.5,0.406071565255019,0.593928434744981,0.4303999960787,0.629511686750909,0.0642853831422281,0.264795133386834,-0.4303999960787,-0.0599116828296098,0.5,0.139200007842599,1.09434592164439,1.94724855455049,2.79225552865376,0.5,78.2512358647317
CBC_1136,CBC_1136_MSI_AV_v3_Vset3_Aset3_2024-09-11_17h04.04.997.csv,2,14,0,2,b,1,0,2,aud,A,27,1,0A,2A,1,0,b,3.29339179999988,1,0,1,1,0A,2A,A02,3.36729582998647,0.5696000039213,0.50968832109169,0.5,0.5,0.4303999960787,0.5696000039213,0.5,0.5,0.4303999960787,0.5,0.629511686750909,0.370488313249091,0.5,0.4303999960787,0.370488313249091,0.5,0.532535529013714,0.467464470986286,0.5696000039213,0.5,0.117452478151804,0.587477368695843,0.4303999960787,0.0599116828296098,0.5,0.139200007842599,1.09434592164439,1.94724855455049,2.79225552865376,0.5,78.2512358647317
CBC_1136,CBC_1136_MSI_AV_v3_Vset3_Aset3_2024-09-11_17h04.04.997.csv,2,15,0,1,z,0,1,3,aud,B,63,1,0B,1B,0,1,z,3.24248900000021,0,1,1,1,1B,0B,B01,2.70805020110221,0.629511686750909,0.50968832109169,0.5,0.5,0.4303999960787,0.5696000039213,0.5,0.5,0.4303999960787,0.5,0.629511686750909,0.370488313249091,0.5,0.4303999960787,0.370488313249091,0.5,0.5696000039213,0.4303999960787,0.5696000039213,0.4303999960787,0.13962737383294,0.680946210800789,0.4303999960787,0.0599116828296098,0.5,0.139200007842599,1.09434592164439,1.94724855455049,2.79225552865376,0.5,78.2512358647317
CBC_1136,CBC_1136_MSI_AV_v3_Vset3_Aset3_2024-09-11_17h04.04.997.csv,2,16,3,2,b,1,0,0,aud,D,63,1,3D,2D,1,0,z,2.82893890000014,0,1,0,0,2D,3D,D32,2.7408400239252,0.629511686750909,0.50968832109169,0.5,0.5,0.4303999960787,0.629511686750909,0.5,0.5,0.4303999960787,0.5,0.629511686750909,0.370488313249091,0.5,0.4303999960787,0.370488313249091,0.5,0.425609749849766,0.574390250150234,0.370488313249091,0.5,0.0832669007978183,0.307763561587467,-0.370488313249091,-0.0515719761098648,0.5,0.139200007842599,1.09434592164439,1.94724855455049,2.79225552865376,0.5,78.2512358647317
CBC_1136,CBC_1136_MSI_AV_v3_Vset3_Aset3_2024-09-11_17h04.04.997.csv,2,17,1,2,b,1,0,3,aud,B,9,1,1B,2B,NaN,NaN,[],NaN,NaN,NaN,NaN,NaN,,,B12,3.46573590279973,0.629511686750909,0.50968832109169,0.5,0.5,0.4303999960787,0.629511686750909,0.5,0.5,0.4303999960787,0.5,0.629511686750909,0.370488313249091,0.5,0.4303999960787,0.318916337139226,0.5,0,0,0,0,NaN,0,0,0,0.5,0.139200007842599,1.09434592164439,1.94724855455049,2.79225552865376,0.5,78.2512358647317
CBC_1136,CBC_1136_MSI_AV_v3_Vset3_Aset3_2024-09-11_17h04.04.997.csv,2,18,1,3,z,0,1,0,aud,D,27,1,1D,3D,0,1,z,2.5104510000001,0,1,1,1,3D,1D,D13,2.80336038090653,0.629511686750909,0.50968832109169,0.5,0.5,0.4303999960787,0.629511686750909,0.5,0.5,0.4303999960787,0.5,0.629511686750909,0.370488313249091,0.5,0.4303999960787,0.318916337139226,0.5,0.537403269676826,0.462596730323174,0.5,0.4303999960787,0.197846853362735,0.599728602686469,0.5,0.0696000039212996,0.5,0.139200007842599,1.09434592164439,1.94724855455049,2.79225552865376,0.5,78.2512358647317
CBC_1136,CBC_1136_MSI_AV_v3_Vset3_Aset3_2024-09-11_17h04.04.997.csv,2,19,0,1,b,1,0,2,aud,A,63,1,0A,1A,1,0,b,3.42007340000055,1,0,1,1,0A,1A,A01,2.83321334405622,0.629511686750909,0.50968832109169,0.5,0.5,0.4303999960787,0.629511686750909,0.5,0.5,0.4303999960787,0.5,0.629511686750909,0.370488313249091,0.5,0.4303999960787,0.318916337139226,0.5696000039213,0.552591013357759,0.447408986642241,0.629511686750909,0.50968832109169,0.117270727490377,0.639614615521094,0.370488313249091,0.0515719761098648,0.5,0.139200007842599,1.09434592164439,1.94724855455049,2.79225552865376,0.5,78.2512358647317
CBC_1136,CBC_1136_MSI_AV_v3_Vset3_Aset3_2024-09-11_17h04.04.997.csv,2,20,1,0,z,0,1,2,aud,A,63,1,1A,0A,0,1,z,2.34729379999953,0,1,1,1,0A,1A,A10,2.86220088092947,0.681083662860774,0.50968832109169,0.5,0.5,0.4303999960787,0.629511686750909,0.5,0.5,0.4303999960787,0.5,0.629511686750909,0.370488313249091,0.5,0.4303999960787,0.318916337139226,0.5696000039213,0.571968161864281,0.428031838135719,0.681083662860774,0.50968832109169,0.255059489449165,0.68563185492747,0.318916337139226,0.0443931566309133,0.5,0.139200007842599,1.09434592164439,1.94724855455049,2.79225552865376,0.5,78.2512358647317
CBC_1136,CBC_1136_MSI_AV_v3_Vset3_Aset3_2024-09-11_17h04.04.997.csv,2,21,2,0,b,1,0,1,aud,C,27,1,2C,0C,1,0,b,2.53249229999892,1,0,1,1,2C,0C,C20,2.89037175789616,0.725476819491687,0.50968832109169,0.5,0.5,0.4303999960787,0.629511686750909,0.5,0.5,0.4303999960787,0.5,0.629511686750909,0.370488313249091,0.5,0.4303999960787,0.318916337139226,0.5696000039213,0.593928434744981,0.406071565255019,0.629511686750909,0.4303999960787,0.24461487349715,0.734455889555869,0.370488313249091,0.0515719761098648,0.5,0.139200007842599,1.09434592164439,1.94724855455049,2.79225552865376,0.5,78.2512358647317
CBC_1136,CBC_1136_MSI_AV_v3_Vset3_Aset3_2024-09-11_17h04.04.997.csv,2,22,0,1,z,0,1,3,aud,B,63,1,0B,1B,0,1,z,2.7066778999997,0,1,1,1,1B,0B,B01,2.51230562397611,0.725476819491687,0.50968832109169,0.5,0.5,0.4303999960787,0.629511686750909,0.5,0.5,0.4303999960787,0.5,0.681083662860774,0.370488313249091,0.5,0.4303999960787,0.318916337139226,0.5696000039213,0.593928434744981,0.406071565255019,0.629511686750909,0.4303999960787,0.217436990566253,0.736359068002732,0.370488313249091,0.0515719761098648,0.5,0.139200007842599,1.09434592164439,1.94724855455049,2.79225552865376,0.5,78.2512358647317
CBC_1136,CBC_1136_MSI_AV_v3_Vset3_Aset3_2024-09-11_17h04.04.997.csv,2,23,2,0,b,1,0,1,aud,C,27,1,2C,0C,NaN,NaN,[],NaN,NaN,NaN,NaN,NaN,,,C20,2.53897387105828,0.725476819491687,0.50968832109169,0.5,0.5,0.4303999960787,0.681083662860774,0.5,0.5,0.4303999960787,0.5,0.681083662860774,0.370488313249091,0.5,0.4303999960787,0.318916337139226,0.5696000039213,0,0,0,0,NaN,0,0,0,0.5,0.139200007842599,1.09434592164439,1.94724855455049,2.79225552865376,0.5,78.2512358647317
CBC_1136,CBC_1136_MSI_AV_v3_Vset3_Aset3_2024-09-11_17h04.04.997.csv,2,24,3,2,b,1,0,0,aud,D,63,1,3D,2D,1,0,b,2.82014539999909,1,0,1,1,3D,2D,D32,2.56494935746154,0.725476819491687,0.50968832109169,0.5,0.5,0.4303999960787,0.681083662860774,0.5,0.5,0.4303999960787,0.5,0.681083662860774,0.370488313249091,0.5,0.4303999960787,0.318916337139226,0.5696000039213,0.641068686751928,0.358931313248072,0.5696000039213,0.318916337139226,0.224187121724085,0.822528792530458,0.4303999960787,0.0599116828296098,0.5,0.139200007842599,1.09434592164439,1.94724855455049,2.79225552865376,0.5,78.2512358647317
CBC_1136,CBC_1136_MSI_AV_v3_Vset3_Aset3_2024-09-11_17h04.04.997.csv,2,25,1,0,z,0,1,2,aud,A,63,1,1A,0A,0,1,b,2.75920039999983,1,0,0,0,1A,0A,A10,2.59026716544583,0.725476819491687,0.50968832109169,0.5,0.5,0.4303999960787,0.681083662860774,0.5,0.5,0.4303999960787,0.5,0.681083662860774,0.370488313249091,0.5,0.4303999960787,0.318916337139226,0.629511686750909,0.412647915930465,0.587352084069536,0.50968832109169,0.725476819491687,0.0790081107456536,0.277891521037165,-0.50968832109169,-0.0709486182932445,0.5,0.139200007842599,1.09434592164439,1.94724855455049,2.79225552865376,0.5,78.2512358647317
CBC_1136,CBC_1136_MSI_AV_v3_Vset3_Aset3_2024-09-11_17h04.04.997.csv,2,26,3,2,z,0,1,1,aud,C,63,1,3C,2C,0,1,z,2.96430429999964,0,1,1,1,2C,3C,C32,2.6149597780362,0.725476819491687,0.438739702798445,0.5,0.5,0.4303999960787,0.681083662860774,0.5,0.5,0.4303999960787,0.5,0.681083662860774,0.370488313249091,0.5,0.4303999960787,0.318916337139226,0.629511686750909,0.647681450565412,0.352318549434588,0.681083662860774,0.370488313249091,0.202124935200767,0.833094396616529,0.318916337139226,0.0443931566309133,0.5,0.139200007842599,1.09434592164439,1.94724855455049,2.79225552865376,0.5,78.2512358647317
CBC_1136,CBC_1136_MSI_AV_v3_Vset3_Aset3_2024-09-11_17h04.04.997.csv,2,27,2,0,z,0,1,2,aud,A,27,1,2A,0A,0,1,b,2.77004060000036,1,0,0,0,2A,0A,A20,3.73766961828337,0.725476819491687,0.438739702798445,0.5,0.5,0.4303999960787,0.681083662860774,0.5,0.5,0.4303999960787,0.5,0.725476819491687,0.370488313249091,0.5,0.4303999960787,0.318916337139226,0.629511686750909,0.408004453488883,0.591995546511117,0.5,0.725476819491687,0.0759101498645674,0.268791050889076,-0.5,-0.0696000039212996,0.5,0.139200007842599,1.09434592164439,1.94724855455049,2.79225552865376,0.5,78.2512358647317
CBC_1136,CBC_1136_MSI_AV_v3_Vset3_Aset3_2024-09-11_17h04.04.997.csv,2,28,3,2,b,1,0,0,aud,D,63,1,3D,2D,1,0,b,2.51229330000024,1,0,1,1,3D,2D,D32,2.37490575457367,0.725476819491687,0.438739702798445,0.4303999960787,0.5,0.4303999960787,0.681083662860774,0.5,0.5,0.4303999960787,0.5,0.725476819491687,0.370488313249091,0.5,0.4303999960787,0.318916337139226,0.629511686750909,0.66374218274241,0.33625781725759,0.629511686750909,0.318916337139226,0.2994380779036,0.856391122525483,0.370488313249091,0.0515719761098648,0.5,0.139200007842599,1.09434592164439,1.94724855455049,2.79225552865376,0.5,78.2512358647317
CBC_1136,CBC_1136_MSI_AV_v3_Vset3_Aset3_2024-09-11_17h04.04.997.csv,2,29,3,2,b,1,0,0,aud,D,63,1,3D,2D,1,0,b,1.47693479999907,1,0,1,1,3D,2D,D32,2.17475172148416,0.725476819491687,0.438739702798445,0.4303999960787,0.5,0.4303999960787,0.681083662860774,0.5,0.5,0.4303999960787,0.5,0.725476819491687,0.370488313249091,0.5,0.4303999960787,0.318916337139226,0.681083662860774,0.681083662860774,0.318916337139226,0.681083662860774,0.318916337139226,0.448441002402632,0.877513064352392,0.318916337139226,0.0443931566309133,0.5,0.139200007842599,1.09434592164439,1.94724855455049,2.79225552865376,0.5,78.2512358647317
CBC_1136,CBC_1136_MSI_AV_v3_Vset3_Aset3_2024-09-11_17h04.04.997.csv,2,30,3,1,z,0,1,3,aud,B,27,1,3B,1B,0,1,z,1.7354749999995,0,1,1,1,1B,3B,B31,3.80666248977032,0.725476819491687,0.438739702798445,0.4303999960787,0.5,0.4303999960787,0.681083662860774,0.5,0.5,0.4303999960787,0.5,0.725476819491687,0.370488313249091,0.5,0.4303999960787,0.318916337139226,0.725476819491687,0.576659964300141,0.423340035699859,0.681083662860774,0.5,0.34943458879334,0.696580181801173,0.318916337139226,0.0443931566309133,0.5,0.139200007842599,1.09434592164439,1.94724855455049,2.79225552865376,0.5,78.2512358647317
CBC_1136,CBC_1136_MSI_AV_v3_Vset3_Aset3_2024-09-11_17h04.04.997.csv,2,31,0,3,z,0,1,0,aud,D,9,1,0D,3D,0,1,z,2.38630439999906,0,1,1,1,3D,0D,D03,3.8286413964891,0.725476819491687,0.438739702798445,0.4303999960787,0.5,0.4303999960787,0.725476819491687,0.5,0.5,0.4303999960787,0.5,0.725476819491687,0.370488313249091,0.5,0.4303999960787,0.318916337139226,0.725476819491687,0.591995546511117,0.408004453488883,0.725476819491687,0.5,0.269397947480695,0.73242217501678,0.274523180508313,0.0382136288797324,0.5,0.139200007842599,1.09434592164439,1.94724855455049,2.79225552865376,0.5,78.2512358647317
CBC_1136,CBC_1136_MSI_AV_v3_Vset3_Aset3_2024-09-11_17h04.04.997.csv,2,32,1,0,b,1,0,3,aud,B,63,1,1B,0B,1,0,b,2.49526519999927,1,0,1,1,1B,0B,B10,3.85014760171006,0.725476819491687,0.438739702798445,0.4303999960787,0.5,0.4303999960787,0.725476819491687,0.5,0.5,0.4303999960787,0.5,0.725476819491687,0.370488313249091,0.5,0.4303999960787,0.318916337139226,0.76369044837142,0.627641985477222,0.372358014522778,0.725476819491687,0.4303999960787,0.279191483210401,0.801153229945887,0.274523180508313,0.0382136288797324,0.5,0.139200007842599,1.09434592164439,1.94724855455049,2.79225552865376,0.5,78.2512358647317
CBC_1136,CBC_1136_MSI_AV_v3_Vset3_Aset3_2024-09-11_17h04.04.997.csv,2,33,1,0,z,0,1,2,aud,A,63,1,1A,0A,0,1,b,2.7058922999986,1,0,0,0,1A,0A,A10,2.484906649788,0.725476819491687,0.438739702798445,0.4303999960787,0.5,0.4303999960787,0.76369044837142,0.5,0.5,0.4303999960787,0.5,0.725476819491687,0.370488313249091,0.5,0.4303999960787,0.318916337139226,0.76369044837142,0.376854042524151,0.623145957475849,0.438739702798445,0.725476819491687,0.0616310272938698,0.207259262565405,-0.438739702798445,-0.0610725700704033,0.5,0.139200007842599,1.09434592164439,1.94724855455049,2.79225552865376,0.5,78.2512358647317
CBC_1136,CBC_1136_MSI_AV_v3_Vset3_Aset3_2024-09-11_17h04.04.997.csv,2,34,1,0,b,1,0,3,aud,B,63,1,1B,0B,1,0,b,2.88899200000014,1,0,1,1,1B,0B,B10,3.19867311755068,0.725476819491687,0.377667132728042,0.4303999960787,0.5,0.4303999960787,0.76369044837142,0.5,0.5,0.4303999960787,0.5,0.725476819491687,0.370488313249091,0.5,0.4303999960787,0.318916337139226,0.76369044837142,0.639558294701119,0.360441705298881,0.76369044837142,0.4303999960787,0.212071184300293,0.820808698045304,0.23630955162858,0.0328942914399795,0.5,0.139200007842599,1.09434592164439,1.94724855455049,2.79225552865376,0.5,78.2512358647317
CBC_1136,CBC_1136_MSI_AV_v3_Vset3_Aset3_2024-09-11_17h04.04.997.csv,2,35,3,2,z,0,1,1,aud,C,63,1,3C,2C,0,1,z,2.11281140000028,0,1,1,1,2C,3C,C32,2.52572864430826,0.725476819491687,0.377667132728042,0.4303999960787,0.5,0.4303999960787,0.796584739811399,0.5,0.5,0.4303999960787,0.5,0.725476819491687,0.370488313249091,0.5,0.4303999960787,0.318916337139226,0.76369044837142,0.661952463466992,0.338047536533008,0.725476819491687,0.370488313249091,0.409136418444894,0.853037821932663,0.274523180508313,0.0382136288797324,0.5,0.139200007842599,1.09434592164439,1.94724855455049,2.79225552865376,0.5,78.2512358647317
CBC_1136,CBC_1136_MSI_AV_v3_Vset3_Aset3_2024-09-11_17h04.04.997.csv,2,36,0,2,b,1,0,2,aud,A,27,1,0A,2A,1,0,b,3.86374520000027,1,0,1,1,0A,2A,A02,3.23867845216438,0.725476819491687,0.377667132728042,0.4303999960787,0.5,0.4303999960787,0.796584739811399,0.5,0.5,0.4303999960787,0.5,0.76369044837142,0.370488313249091,0.5,0.4303999960787,0.318916337139226,0.76369044837142,0.627641985477222,0.372358014522778,0.725476819491687,0.4303999960787,0.0992656711676521,0.800867208466424,0.274523180508313,0.0382136288797324,0.5,0.139200007842599,1.09434592164439,1.94724855455049,2.79225552865376,0.5,78.2512358647317
CBC_1136,CBC_1136_MSI_AV_v3_Vset3_Aset3_2024-09-11_17h04.04.997.csv,2,37,1,0,b,1,0,3,aud,B,63,1,1B,0B,1,0,b,3.00964029999886,1,0,1,1,1B,0B,B10,2.85263142991332,0.76369044837142,0.377667132728042,0.4303999960787,0.5,0.4303999960787,0.796584739811399,0.5,0.5,0.4303999960787,0.5,0.76369044837142,0.370488313249091,0.5,0.4303999960787,0.318916337139226,0.76369044837142,0.649221393315482,0.350778606684518,0.796584739811399,0.4303999960787,0.195327526770311,0.835722575146858,0.203415260188601,0.0283154058135576,0.5,0.139200007842599,1.09434592164439,1.94724855455049,2.79225552865376,0.5,78.2512358647317
CBC_1136,CBC_1136_MSI_AV_v3_Vset3_Aset3_2024-09-11_17h04.04.997.csv,2,38,3,1,z,0,1,3,aud,B,27,1,3B,1B,0,1,z,2.51517899999817,0,1,1,1,1B,3B,B31,3.27714473299218,0.76369044837142,0.377667132728042,0.4303999960787,0.5,0.4303999960787,0.824900145624957,0.5,0.5,0.4303999960787,0.5,0.76369044837142,0.370488313249091,0.5,0.4303999960787,0.318916337139226,0.76369044837142,0.622613068878372,0.377386931121628,0.824900145624957,0.5,0.270721827752592,0.790862954591547,0.175099854375043,0.024373901102244,0.5,0.139200007842599,1.09434592164439,1.94724855455049,2.79225552865376,0.5,78.2512358647317
CBC_1136,CBC_1136_MSI_AV_v3_Vset3_Aset3_2024-09-11_17h04.04.997.csv,2,39,3,2,z,0,1,1,aud,C,63,1,3C,2C,0,1,b,4.05713599999945,1,0,0,0,3C,2C,C32,2.37954613413017,0.76369044837142,0.377667132728042,0.4303999960787,0.5,0.4303999960787,0.849274046727201,0.5,0.5,0.4303999960787,0.5,0.76369044837142,0.370488313249091,0.5,0.4303999960787,0.318916337139226,0.76369044837142,0.326657777227056,0.673342222772944,0.370488313249091,0.76369044837142,0.0123184446710448,0.132305157264541,-0.370488313249091,-0.0515719761098648,0.5,0.139200007842599,1.09434592164439,1.94724855455049,2.79225552865376,0.5,78.2512358647317
CBC_1136,CBC_1136_MSI_AV_v3_Vset3_Aset3_2024-09-11_17h04.04.997.csv,2,40,3,1,b,1,0,0,aud,D,27,1,3D,1D,1,0,b,1.47722109999995,1,0,1,1,3D,1D,D31,4.00733318523247,0.76369044837142,0.377667132728042,0.4303999960787,0.5,0.4303999960787,0.849274046727201,0.5,0.5,0.4303999960787,0.5,0.76369044837142,0.318916337139226,0.5,0.4303999960787,0.318916337139226,0.76369044837142,0.639558294701119,0.360441705298881,0.76369044837142,0.4303999960787,0.372302234900632,0.820291782225003,0.23630955162858,0.0328942914399795,0.5,0.139200007842599,1.09434592164439,1.94724855455049,2.79225552865376,0.5,78.2512358647317
CBC_1136,CBC_1136_MSI_AV_v3_Vset3_Aset3_2024-09-11_17h04.04.997.csv,2,41,1,2,z,0,1,1,aud,C,9,1,1C,2C,0,1,b,1.33371529999931,1,0,0,0,1C,2C,C12,4.02535169073515,0.76369044837142,0.377667132728042,0.4303999960787,0.5,0.4303999960787,0.849274046727201,0.5,0.5,0.4303999960787,0.5,0.76369044837142,0.318916337139226,0.5,0.4303999960787,0.318916337139226,0.796584739811399,0.395666518366404,0.604333481633596,0.5,0.76369044837142,0.0450761977121319,0.243227098902914,-0.5,-0.0696000039212996,0.5,0.139200007842599,1.09434592164439,1.94724855455049,2.79225552865376,0.5,78.2512358647317
CBC_1136,CBC_1136_MSI_AV_v3_Vset3_Aset3_2024-09-11_17h04.04.997.csv,2,42,0,1,z,0,1,3,aud,B,63,0,0B,1B,1,0,z,2.51627889999872,0,1,1,0,1B,0B,B01,2.65675690671466,0.76369044837142,0.377667132728042,0.4303999960787,0.5,0.4303999960787,0.849274046727201,0.5,0.5,0.4303999960787,0.4303999960787,0.76369044837142,0.318916337139226,0.5,0.4303999960787,0.318916337139226,0.796584739811399,0.663664353826404,0.336335646173596,0.849274046727201,0.4303999960787,0.298050550333399,0.855438105648659,-0.849274046727201,-0.118218953964942,0.5,0.139200007842599,1.09434592164439,1.94724855455049,2.79225552865376,0.5,78.2512358647317
CBC_1136,CBC_1136_MSI_AV_v3_Vset3_Aset3_2024-09-11_17h04.04.997.csv,2,43,3,2,b,1,0,0,aud,D,63,1,3D,2D,1,0,b,1.57277939999949,1,0,1,1,3D,2D,D32,2.26868354131836,0.76369044837142,0.377667132728042,0.4303999960787,0.5,0.4303999960787,0.731055092762259,0.5,0.5,0.4303999960787,0.4303999960787,0.76369044837142,0.318916337139226,0.5,0.4303999960787,0.318916337139226,0.796584739811399,0.714104859485186,0.285895140514815,0.796584739811399,0.318916337139226,0.594779157878266,0.910972963503277,0.203415260188601,0.0283154058135576,0.5,0.139200007842599,1.09434592164439,1.94724855455049,2.79225552865376,0.5,78.2512358647317
CBC_1136,CBC_1136_MSI_AV_v3_Vset3_Aset3_2024-09-11_17h04.04.997.csv,2,44,0,1,b,1,0,2,aud,A,63,1,0A,1A,1,0,b,3.00386620000063,1,0,1,1,0A,1A,A01,2.97892515523761,0.76369044837142,0.377667132728042,0.4303999960787,0.5,0.4303999960787,0.731055092762259,0.5,0.5,0.4303999960787,0.4303999960787,0.76369044837142,0.318916337139226,0.5,0.4303999960787,0.318916337139226,0.824900145624957,0.669107088801883,0.330892911198117,0.76369044837142,0.377667132728042,0.199406660305537,0.86281494339342,0.23630955162858,0.0328942914399795,0.5,0.139200007842599,1.09434592164439,1.94724855455049,2.79225552865376,0.5,78.2512358647317
