ID,filename,session,trial,visStimLeft,visStimRight,correctKey,leftCorrect,rightCorrect,secondStim,mod2Type,mod2Stim,frequency,rewardAccurate,stimPairLeft,stimPairRight,pCorrectLeft,pCorrectRight,key,reactionTime,choiceLeft,choiceRight,choiceAccurate,reward,chosenPair,otherPair,triplet,surprise,0A belief,1A belief,2A belief,3A belief,0B belief,1B belief,2B belief,3B belief,0C belief,1C belief,2C belief,3C belief,0D belief,1D belief,2D belief,3D belief,beliefPairNorm,beliefOtherPairNorm,beliefPair,beliefOtherPair,lik,corrLik,rewardPE,update2,fitCBCsimpleRW_CBCdriftDiffusionLR_startBelief,fitCBCsimpleRW_CBCdriftDiffusionLR_alpha1,fitCBCsimpleRW_CBCdriftDiffusionLR_nonDecisionTime,fitCBCsimpleRW_CBCdriftDiffusionLR_weight,fitCBCsimpleRW_CBCdriftDiffusionLR_startingBoundary,fitCBCsimpleRW_CBCdriftDiffusionLR_startingPoint,fit_CBCsimpleRW_CBCdriftDiffusionLR_NLL
CBC_1041,CBC_1041_MSI_TV_v3_Vset1_Tset1_2023-12-20_15h01.19.659.csv,1,1,0,1,z,0,1,0,tac,B,63,1,0B,1B,0,1,z,2.94698840000001,0,1,1,1,1B,0B,B01,2.77258872223978,0.5,0.5,0.5,0.5,0.5,0.5,0.5,0.5,0.5,0.5,0.5,0.5,0.5,0.5,0.5,0.5,0.5,0.5,0.5,0.5,0.112357712024184,0.500389449611818,0.5,0.0138686881780875,0.5,0.0277373763561749,0.921725204948925,2.12257047133259,2.81339852338828,0.5,86.6742116974106
CBC_1041,CBC_1041_MSI_TV_v3_Vset1_Tset1_2023-12-20_15h01.19.659.csv,1,2,1,0,z,0,1,3,tac,A,63,1,1A,0A,0,1,z,2.4988343,0,1,1,1,0A,1A,A10,2.83321334405622,0.5,0.5,0.5,0.5,0.5,0.513868688178087,0.5,0.5,0.5,0.5,0.5,0.5,0.5,0.5,0.5,0.5,0.5,0.5,0.5,0.5,0.148683568237514,0.501268371294115,0.5,0.0138686881780875,0.5,0.0277373763561749,0.921725204948925,2.12257047133259,2.81339852338828,0.5,86.6742116974106
CBC_1041,CBC_1041_MSI_TV_v3_Vset1_Tset1_2023-12-20_15h01.19.659.csv,1,3,2,1,b,1,0,1,tac,C,9,1,2C,1C,1,0,z,2.86931150000009,0,1,0,0,1C,2C,C21,2.89037175789616,0.513868688178087,0.5,0.5,0.5,0.5,0.513868688178087,0.5,0.5,0.5,0.5,0.5,0.5,0.5,0.5,0.5,0.5,0.5,0.5,0.5,0.5,0.117772579113504,0.499738255396373,-0.5,-0.0138686881780875,0.5,0.0277373763561749,0.921725204948925,2.12257047133259,2.81339852338828,0.5,86.6742116974106
CBC_1041,CBC_1041_MSI_TV_v3_Vset1_Tset1_2023-12-20_15h01.19.659.csv,1,4,0,1,b,1,0,3,tac,A,63,1,0A,1A,1,0,b,2.45412620000025,1,0,1,1,0A,1A,A01,2.94443897916644,0.513868688178087,0.5,0.5,0.5,0.5,0.513868688178087,0.5,0.5,0.5,0.486131311821913,0.5,0.5,0.5,0.5,0.5,0.5,0.506839489344034,0.493160510655966,0.513868688178087,0.5,0.158662682637899,0.520261394267089,0.486131311821913,0.0134840071545254,0.5,0.0277373763561749,0.921725204948925,2.12257047133259,2.81339852338828,0.5,86.6742116974106
CBC_1041,CBC_1041_MSI_TV_v3_Vset1_Tset1_2023-12-20_15h01.19.659.csv,1,5,1,3,z,0,1,2,tac,D,27,1,1D,3D,0,1,z,3.65005189999965,0,1,1,1,3D,1D,D13,2.99573227355399,0.527352695332613,0.5,0.5,0.5,0.5,0.513868688178087,0.5,0.5,0.5,0.486131311821913,0.5,0.5,0.5,0.5,0.5,0.5,0.5,0.5,0.5,0.5,0.0724137063843221,0.499848910028318,0.5,0.0138686881780875,0.5,0.0277373763561749,0.921725204948925,2.12257047133259,2.81339852338828,0.5,86.6742116974106
CBC_1041,CBC_1041_MSI_TV_v3_Vset1_Tset1_2023-12-20_15h01.19.659.csv,1,6,1,0,b,1,0,0,tac,B,63,1,1B,0B,1,0,b,2.37868870000011,1,0,1,1,1B,0B,B10,3.04452243772342,0.527352695332613,0.5,0.5,0.5,0.5,0.513868688178087,0.5,0.5,0.5,0.486131311821913,0.5,0.5,0.5,0.5,0.5,0.513868688178087,0.506839489344034,0.493160510655966,0.513868688178087,0.5,0.166112061966117,0.51999223836883,0.486131311821913,0.0134840071545254,0.5,0.0277373763561749,0.921725204948925,2.12257047133259,2.81339852338828,0.5,86.6742116974106
CBC_1041,CBC_1041_MSI_TV_v3_Vset1_Tset1_2023-12-20_15h01.19.659.csv,1,7,3,2,z,0,1,1,tac,C,63,1,3C,2C,0,1,z,2.59501509999973,0,1,1,1,2C,3C,C32,3.09104245335832,0.527352695332613,0.5,0.5,0.5,0.5,0.527352695332613,0.5,0.5,0.5,0.486131311821913,0.5,0.5,0.5,0.5,0.5,0.513868688178087,0.5,0.5,0.5,0.5,0.139710281244521,0.499905287559328,0.5,0.0138686881780875,0.5,0.0277373763561749,0.921725204948925,2.12257047133259,2.81339852338828,0.5,86.6742116974106
CBC_1041,CBC_1041_MSI_TV_v3_Vset1_Tset1_2023-12-20_15h01.19.659.csv,1,8,0,2,b,1,0,3,tac,A,27,1,0A,2A,1,0,b,3.06924239999989,1,0,1,1,0A,2A,A02,3.13549421592915,0.527352695332613,0.5,0.5,0.5,0.5,0.527352695332613,0.5,0.5,0.5,0.486131311821913,0.513868688178087,0.5,0.5,0.5,0.5,0.513868688178087,0.513312222500062,0.486687777499938,0.527352695332613,0.5,0.112381013188478,0.540253856092987,0.472647304667387,0.013109996173291,0.5,0.0277373763561749,0.921725204948925,2.12257047133259,2.81339852338828,0.5,86.6742116974106
CBC_1041,CBC_1041_MSI_TV_v3_Vset1_Tset1_2023-12-20_15h01.19.659.csv,1,9,2,3,z,0,1,2,tac,D,63,1,2D,3D,0,1,z,2.78602820000015,0,1,1,1,3D,2D,D23,3.17805383034795,0.540462691505904,0.5,0.5,0.5,0.5,0.527352695332613,0.5,0.5,0.5,0.486131311821913,0.513868688178087,0.5,0.5,0.5,0.5,0.513868688178087,0.506839489344034,0.493160510655966,0.513868688178087,0.5,0.129067804624776,0.519980129818683,0.486131311821913,0.0134840071545254,0.5,0.0277373763561749,0.921725204948925,2.12257047133259,2.81339852338828,0.5,86.6742116974106
CBC_1041,CBC_1041_MSI_TV_v3_Vset1_Tset1_2023-12-20_15h01.19.659.csv,1,10,1,3,b,1,0,0,tac,B,27,1,1B,3B,1,0,b,2.17211309999993,1,0,1,1,1B,3B,B13,3.2188758248682,0.540462691505904,0.5,0.5,0.5,0.5,0.527352695332613,0.5,0.5,0.5,0.486131311821913,0.513868688178087,0.5,0.5,0.5,0.5,0.527352695332613,0.513312222500062,0.486687777499938,0.527352695332613,0.5,0.195335932376152,0.539128065036729,0.472647304667387,0.013109996173291,0.5,0.0277373763561749,0.921725204948925,2.12257047133259,2.81339852338828,0.5,86.6742116974106
CBC_1041,CBC_1041_MSI_TV_v3_Vset1_Tset1_2023-12-20_15h01.19.659.csv,1,11,2,3,b,1,0,1,tac,C,63,1,2C,3C,NaN,NaN,None,NaN,NaN,NaN,NaN,NaN,,,C23,3.25809653802148,0.540462691505904,0.5,0.5,0.5,0.5,0.540462691505904,0.5,0.5,0.5,0.486131311821913,0.513868688178087,0.5,0.5,0.5,0.5,0.527352695332613,0,0,0,0,NaN,0,0,0,0.5,0.0277373763561749,0.921725204948925,2.12257047133259,2.81339852338828,0.5,86.6742116974106
CBC_1041,CBC_1041_MSI_TV_v3_Vset1_Tset1_2023-12-20_15h01.19.659.csv,1,12,3,1,z,0,1,0,tac,B,27,1,3B,1B,0,1,z,2.66442030000007,0,1,1,1,1B,3B,B31,3.29583686600433,0.540462691505904,0.5,0.5,0.5,0.5,0.540462691505904,0.5,0.5,0.5,0.486131311821913,0.513868688178087,0.5,0.5,0.5,0.5,0.527352695332613,0.519444566266639,0.480555433733361,0.540462691505904,0.5,0.149435892150388,0.557793516314649,0.459537308494096,0.0127463592754044,0.5,0.0277373763561749,0.921725204948925,2.12257047133259,2.81339852338828,0.5,86.6742116974106
CBC_1041,CBC_1041_MSI_TV_v3_Vset1_Tset1_2023-12-20_15h01.19.659.csv,1,13,2,3,b,1,0,1,tac,C,63,1,2C,3C,1,0,b,2.41211109999995,1,0,1,1,2C,3C,C23,2.63905732961526,0.540462691505904,0.5,0.5,0.5,0.5,0.553209050781308,0.5,0.5,0.5,0.486131311821913,0.513868688178087,0.5,0.5,0.5,0.5,0.527352695332613,0.506839489344034,0.493160510655966,0.513868688178087,0.5,0.162856807260141,0.520371879191608,0.486131311821913,0.0134840071545254,0.5,0.0277373763561749,0.921725204948925,2.12257047133259,2.81339852338828,0.5,86.6742116974106
CBC_1041,CBC_1041_MSI_TV_v3_Vset1_Tset1_2023-12-20_15h01.19.659.csv,1,14,2,3,z,0,1,2,tac,D,63,1,2D,3D,0,1,b,2.79822660000036,1,0,0,0,2D,3D,D23,2.67414864942653,0.540462691505904,0.5,0.5,0.5,0.5,0.553209050781308,0.5,0.5,0.5,0.486131311821913,0.527352695332613,0.5,0.5,0.5,0.5,0.527352695332613,0.486687777499938,0.513312222500062,0.5,0.527352695332613,0.113427188856828,0.460397063729376,-0.5,-0.0138686881780875,0.5,0.0277373763561749,0.921725204948925,2.12257047133259,2.81339852338828,0.5,86.6742116974106
CBC_1041,CBC_1041_MSI_TV_v3_Vset1_Tset1_2023-12-20_15h01.19.659.csv,1,15,3,0,z,0,1,3,tac,A,9,1,3A,0A,0,1,b,2.39302500000031,1,0,0,0,3A,0A,A30,3.40119738166216,0.540462691505904,0.5,0.5,0.5,0.5,0.553209050781308,0.5,0.5,0.5,0.486131311821913,0.527352695332613,0.5,0.5,0.5,0.486131311821913,0.527352695332613,0.480555433733361,0.519444566266639,0.5,0.540462691505904,0.140459349210378,0.442925779098978,-0.5,-0.0138686881780875,0.5,0.0277373763561749,0.921725204948925,2.12257047133259,2.81339852338828,0.5,86.6742116974106
CBC_1041,CBC_1041_MSI_TV_v3_Vset1_Tset1_2023-12-20_15h01.19.659.csv,1,16,1,0,b,1,0,0,tac,B,63,0,1B,0B,0,1,b,2.7343721999996,1,0,1,0,1B,0B,B10,2.7408400239252,0.540462691505904,0.5,0.5,0.486131311821913,0.5,0.553209050781308,0.5,0.5,0.5,0.486131311821913,0.527352695332613,0.5,0.5,0.5,0.486131311821913,0.527352695332613,0.525260441287433,0.474739558712567,0.553209050781308,0.5,0.147320936165295,0.574263920102777,-0.553209050781308,-0.0153445676451634,0.5,0.0277373763561749,0.921725204948925,2.12257047133259,2.81339852338828,0.5,86.6742116974106
CBC_1041,CBC_1041_MSI_TV_v3_Vset1_Tset1_2023-12-20_15h01.19.659.csv,1,17,3,2,b,1,0,2,tac,D,63,1,3D,2D,1,0,z,2.50210599999991,0,1,0,0,2D,3D,D32,3.46573590279973,0.540462691505904,0.5,0.5,0.486131311821913,0.5,0.537864483136145,0.5,0.5,0.5,0.486131311821913,0.527352695332613,0.5,0.5,0.5,0.486131311821913,0.527352695332613,0.479663525413472,0.520336474586528,0.486131311821913,0.527352695332613,0.130396970545581,0.439867655960975,-0.486131311821913,-0.0134840071545254,0.5,0.0277373763561749,0.921725204948925,2.12257047133259,2.81339852338828,0.5,86.6742116974106
CBC_1041,CBC_1041_MSI_TV_v3_Vset1_Tset1_2023-12-20_15h01.19.659.csv,1,18,2,0,b,1,0,1,tac,C,27,1,2C,0C,1,0,z,2.47008319999986,0,1,0,0,0C,2C,C20,3.49650756146648,0.540462691505904,0.5,0.5,0.486131311821913,0.5,0.537864483136145,0.5,0.5,0.5,0.486131311821913,0.527352695332613,0.5,0.5,0.5,0.472647304667387,0.527352695332613,0.486687777499938,0.513312222500062,0.5,0.527352695332613,0.139275517802652,0.460985587353331,-0.5,-0.0138686881780875,0.5,0.0277373763561749,0.921725204948925,2.12257047133259,2.81339852338828,0.5,86.6742116974106
CBC_1041,CBC_1041_MSI_TV_v3_Vset1_Tset1_2023-12-20_15h01.19.659.csv,1,19,1,0,z,0,1,3,tac,A,63,1,1A,0A,0,1,z,4.68798109999989,0,1,1,1,0A,1A,A10,2.83321334405622,0.540462691505904,0.5,0.5,0.486131311821913,0.5,0.537864483136145,0.5,0.5,0.486131311821913,0.486131311821913,0.527352695332613,0.5,0.5,0.5,0.472647304667387,0.527352695332613,0.519444566266639,0.480555433733361,0.540462691505904,0.5,0.0420453513940715,0.557714681761569,0.459537308494096,0.0127463592754044,0.5,0.0277373763561749,0.921725204948925,2.12257047133259,2.81339852338828,0.5,86.6742116974106
CBC_1041,CBC_1041_MSI_TV_v3_Vset1_Tset1_2023-12-20_15h01.19.659.csv,1,20,0,1,z,0,1,0,tac,B,63,1,0B,1B,0,1,z,2.55091399999992,0,1,1,1,1B,0B,B01,2.86220088092947,0.553209050781308,0.5,0.5,0.486131311821913,0.5,0.537864483136145,0.5,0.5,0.486131311821913,0.486131311821913,0.527352695332613,0.5,0.5,0.5,0.472647304667387,0.527352695332613,0.518241535263702,0.481758464736297,0.537864483136145,0.5,0.159460610566313,0.554615151984685,0.462135516863855,0.0128184267588082,0.5,0.0277373763561749,0.921725204948925,2.12257047133259,2.81339852338828,0.5,86.6742116974106
CBC_1041,CBC_1041_MSI_TV_v3_Vset1_Tset1_2023-12-20_15h01.19.659.csv,1,21,3,1,b,1,0,2,tac,D,27,1,3D,1D,NaN,NaN,None,NaN,NaN,NaN,NaN,NaN,,,D31,3.58351893845611,0.553209050781308,0.5,0.5,0.486131311821913,0.5,0.550682909894953,0.5,0.5,0.486131311821913,0.486131311821913,0.527352695332613,0.5,0.5,0.5,0.472647304667387,0.527352695332613,0,0,0,0,NaN,0,0,0,0.5,0.0277373763561749,0.921725204948925,2.12257047133259,2.81339852338828,0.5,86.6742116974106
CBC_1041,CBC_1041_MSI_TV_v3_Vset1_Tset1_2023-12-20_15h01.19.659.csv,1,22,2,3,b,1,0,1,tac,C,63,1,2C,3C,1,0,z,2.35000219999984,0,1,0,0,3C,2C,C23,2.51230562397611,0.553209050781308,0.5,0.5,0.486131311821913,0.5,0.550682909894953,0.5,0.5,0.486131311821913,0.486131311821913,0.527352695332613,0.5,0.5,0.5,0.472647304667387,0.527352695332613,0.486687777499938,0.513312222500062,0.5,0.527352695332613,0.149865425970179,0.460667619085798,-0.5,-0.0138686881780875,0.5,0.0277373763561749,0.921725204948925,2.12257047133259,2.81339852338828,0.5,86.6742116974106
CBC_1041,CBC_1041_MSI_TV_v3_Vset1_Tset1_2023-12-20_15h01.19.659.csv,1,23,1,0,z,0,1,3,tac,A,63,1,1A,0A,0,1,b,2.88582049999968,1,0,0,0,1A,0A,A10,2.53897387105828,0.553209050781308,0.5,0.5,0.486131311821913,0.5,0.550682909894953,0.5,0.5,0.486131311821913,0.486131311821913,0.527352695332613,0.486131311821913,0.5,0.5,0.472647304667387,0.527352695332613,0.474739558712567,0.525260441287433,0.5,0.553209050781308,0.0991555090142556,0.425070519632786,-0.5,-0.0138686881780875,0.5,0.0277373763561749,0.921725204948925,2.12257047133259,2.81339852338828,0.5,86.6742116974106
CBC_1041,CBC_1041_MSI_TV_v3_Vset1_Tset1_2023-12-20_15h01.19.659.csv,1,24,3,2,b,1,0,2,tac,D,63,1,3D,2D,1,0,z,1.18124750000015,0,1,0,0,2D,3D,D32,2.9704144655697,0.553209050781308,0.486131311821913,0.5,0.486131311821913,0.5,0.550682909894953,0.5,0.5,0.486131311821913,0.486131311821913,0.527352695332613,0.486131311821913,0.5,0.5,0.472647304667387,0.527352695332613,0.472647304667387,0.527352695332613,0.472647304667387,0.527352695332613,0.0794580315767371,0.41870616763079,-0.472647304667387,-0.013109996173291,0.5,0.0277373763561749,0.921725204948925,2.12257047133259,2.81339852338828,0.5,86.6742116974106
CBC_1041,CBC_1041_MSI_TV_v3_Vset1_Tset1_2023-12-20_15h01.19.659.csv,1,25,0,2,z,0,1,1,tac,C,27,1,0C,2C,0,1,b,0.0952729000000545,1,0,0,0,0C,2C,C02,3.68887945411394,0.553209050781308,0.486131311821913,0.5,0.486131311821913,0.5,0.550682909894953,0.5,0.5,0.486131311821913,0.486131311821913,0.527352695332613,0.486131311821913,0.5,0.5,0.459537308494096,0.527352695332613,0.479663525413472,0.520336474586528,0.486131311821913,0.527352695332613,1e-20,0.5,-0.486131311821913,-0.0134840071545254,0.5,0.0277373763561749,0.921725204948925,2.12257047133259,2.81339852338828,0.5,86.6742116974106
CBC_1041,CBC_1041_MSI_TV_v3_Vset1_Tset1_2023-12-20_15h01.19.659.csv,1,26,1,0,z,0,1,3,tac,A,63,1,1A,0A,0,1,z,1.23175739999988,0,1,1,1,0A,1A,A10,2.32727770558442,0.553209050781308,0.486131311821913,0.5,0.486131311821913,0.5,0.550682909894953,0.5,0.5,0.472647304667387,0.486131311821913,0.527352695332613,0.486131311821913,0.5,0.5,0.459537308494096,0.527352695332613,0.53226938035553,0.46773061964447,0.553209050781308,0.486131311821913,0.161421122804196,0.59459348847684,0.446790949218692,0.0123928087110115,0.5,0.0277373763561749,0.921725204948925,2.12257047133259,2.81339852338828,0.5,86.6742116974106
CBC_1041,CBC_1041_MSI_TV_v3_Vset1_Tset1_2023-12-20_15h01.19.659.csv,1,27,3,1,z,0,1,0,tac,B,27,1,3B,1B,0,1,z,2.27007029999959,0,1,1,1,1B,3B,B31,3.04452243772342,0.56560185949232,0.486131311821913,0.5,0.486131311821913,0.5,0.550682909894953,0.5,0.5,0.472647304667387,0.486131311821913,0.527352695332613,0.486131311821913,0.5,0.5,0.459537308494096,0.527352695332613,0.524119032211165,0.475880967788835,0.550682909894953,0.5,0.195636562222889,0.571435239950035,0.449317090105047,0.012462877231505,0.5,0.0277373763561749,0.921725204948925,2.12257047133259,2.81339852338828,0.5,86.6742116974106
CBC_1041,CBC_1041_MSI_TV_v3_Vset1_Tset1_2023-12-20_15h01.19.659.csv,1,28,2,3,b,1,0,1,tac,C,63,1,2C,3C,1,0,b,2.73337000000038,1,0,1,1,2C,3C,C23,2.37490575457367,0.56560185949232,0.486131311821913,0.5,0.486131311821913,0.5,0.563145787126458,0.5,0.5,0.472647304667387,0.486131311821913,0.527352695332613,0.486131311821913,0.5,0.5,0.459537308494096,0.527352695332613,0.520336474586528,0.479663525413472,0.527352695332613,0.486131311821913,0.143861769012485,0.560593371062266,0.472647304667387,0.013109996173291,0.5,0.0277373763561749,0.921725204948925,2.12257047133259,2.81339852338828,0.5,86.6742116974106
CBC_1041,CBC_1041_MSI_TV_v3_Vset1_Tset1_2023-12-20_15h01.19.659.csv,1,29,2,3,z,0,1,2,tac,D,63,1,2D,3D,0,1,z,3.54667089999975,0,1,1,1,3D,2D,D23,2.68557734525015,0.56560185949232,0.486131311821913,0.5,0.486131311821913,0.5,0.563145787126458,0.5,0.5,0.472647304667387,0.486131311821913,0.540462691505904,0.486131311821913,0.5,0.5,0.459537308494096,0.527352695332613,0.534358128350454,0.465641871649546,0.527352695332613,0.459537308494096,0.0922528371417271,0.601257684585885,0.472647304667387,0.013109996173291,0.5,0.0277373763561749,0.921725204948925,2.12257047133259,2.81339852338828,0.5,86.6742116974106
CBC_1041,CBC_1041_MSI_TV_v3_Vset1_Tset1_2023-12-20_15h01.19.659.csv,1,30,1,0,b,1,0,0,tac,B,63,1,1B,0B,1,0,b,2.16483279999966,1,0,1,1,1B,0B,B10,2.70805020110221,0.56560185949232,0.486131311821913,0.5,0.486131311821913,0.5,0.563145787126458,0.5,0.5,0.472647304667387,0.486131311821913,0.540462691505904,0.486131311821913,0.5,0.5,0.459537308494096,0.540462691505904,0.529697614330549,0.470302385669452,0.563145787126458,0.5,0.214984642478193,0.588045075464426,0.436854212873542,0.012117189715254,0.5,0.0277373763561749,0.921725204948925,2.12257047133259,2.81339852338828,0.5,86.6742116974106
CBC_1041,CBC_1041_MSI_TV_v3_Vset1_Tset1_2023-12-20_15h01.19.659.csv,1,31,0,2,b,1,0,3,tac,A,27,1,0A,2A,1,0,z,4.37874850000026,0,1,0,0,2A,0A,A02,3.13549421592915,0.56560185949232,0.486131311821913,0.5,0.486131311821913,0.5,0.575262976841712,0.5,0.5,0.472647304667387,0.486131311821913,0.540462691505904,0.486131311821913,0.5,0.5,0.459537308494096,0.540462691505904,0.469218400424163,0.530781599575837,0.5,0.56560185949232,0.0372282170842247,0.409849086264064,-0.5,-0.0138686881780875,0.5,0.0277373763561749,0.921725204948925,2.12257047133259,2.81339852338828,0.5,86.6742116974106
CBC_1041,CBC_1041_MSI_TV_v3_Vset1_Tset1_2023-12-20_15h01.19.659.csv,1,32,0,3,z,0,1,2,tac,D,9,1,0D,3D,0,1,z,2.84013759999971,0,1,1,1,3D,0D,D03,3.85014760171006,0.56560185949232,0.486131311821913,0.486131311821913,0.486131311821913,0.5,0.575262976841712,0.5,0.5,0.472647304667387,0.486131311821913,0.540462691505904,0.486131311821913,0.5,0.5,0.459537308494096,0.540462691505904,0.519444566266639,0.480555433733361,0.540462691505904,0.5,0.134177898919706,0.558993143518029,0.459537308494096,0.0127463592754044,0.5,0.0277373763561749,0.921725204948925,2.12257047133259,2.81339852338828,0.5,86.6742116974106
CBC_1041,CBC_1041_MSI_TV_v3_Vset1_Tset1_2023-12-20_15h01.19.659.csv,1,33,2,3,b,1,0,1,tac,C,63,1,2C,3C,1,0,z,3.57207079999989,0,1,0,0,3C,2C,C23,2.26176309847379,0.56560185949232,0.486131311821913,0.486131311821913,0.486131311821913,0.5,0.575262976841712,0.5,0.5,0.472647304667387,0.486131311821913,0.540462691505904,0.486131311821913,0.5,0.5,0.459537308494096,0.553209050781308,0.4735380396204,0.5264619603796,0.486131311821913,0.540462691505904,0.0640036806586896,0.422595956679905,-0.486131311821913,-0.0134840071545254,0.5,0.0277373763561749,0.921725204948925,2.12257047133259,2.81339852338828,0.5,86.6742116974106
CBC_1041,CBC_1041_MSI_TV_v3_Vset1_Tset1_2023-12-20_15h01.19.659.csv,1,34,1,0,b,1,0,0,tac,B,63,1,1B,0B,NaN,NaN,None,NaN,NaN,NaN,NaN,NaN,,,B10,2.50552593699074,0.56560185949232,0.486131311821913,0.486131311821913,0.486131311821913,0.5,0.575262976841712,0.5,0.5,0.472647304667387,0.486131311821913,0.540462691505904,0.472647304667387,0.5,0.5,0.459537308494096,0.553209050781308,0,0,0,0,NaN,0,0,0,0.5,0.0277373763561749,0.921725204948925,2.12257047133259,2.81339852338828,0.5,86.6742116974106
CBC_1041,CBC_1041_MSI_TV_v3_Vset1_Tset1_2023-12-20_15h01.19.659.csv,1,35,1,0,z,0,1,3,tac,A,63,0,1A,0A,1,0,b,2.75371610000002,1,0,0,1,1A,0A,A10,2.30258509299405,0.56560185949232,0.486131311821913,0.486131311821913,0.486131311821913,0.5,0.575262976841712,0.5,0.5,0.472647304667387,0.486131311821913,0.540462691505904,0.472647304667387,0.5,0.5,0.459537308494096,0.553209050781308,0.462219244463355,0.537780755536645,0.486131311821913,0.56560185949232,0.0985062669592719,0.388318534388157,0.513868688178087,0.0142533692016495,0.5,0.0277373763561749,0.921725204948925,2.12257047133259,2.81339852338828,0.5,86.6742116974106
CBC_1041,CBC_1041_MSI_TV_v3_Vset1_Tset1_2023-12-20_15h01.19.659.csv,1,36,3,2,b,1,0,2,tac,D,63,1,3D,2D,1,0,b,1.18742090000023,1,0,1,1,3D,2D,D32,2.83321334405622,0.56560185949232,0.500384681023562,0.486131311821913,0.486131311821913,0.5,0.575262976841712,0.5,0.5,0.472647304667387,0.486131311821913,0.540462691505904,0.472647304667387,0.5,0.5,0.459537308494096,0.553209050781308,0.546246397940266,0.453753602059734,0.553209050781308,0.459537308494096,0.12977186079486,0.634858618703137,0.446790949218692,0.0123928087110115,0.5,0.0277373763561749,0.921725204948925,2.12257047133259,2.81339852338828,0.5,86.6742116974106
CBC_1041,CBC_1041_MSI_TV_v3_Vset1_Tset1_2023-12-20_15h01.19.659.csv,1,37,2,1,z,0,1,0,tac,B,9,1,2B,1B,0,1,z,2.83021199999985,0,1,1,1,1B,2B,B21,3.95124371858143,0.56560185949232,0.500384681023562,0.486131311821913,0.486131311821913,0.5,0.575262976841712,0.5,0.5,0.472647304667387,0.486131311821913,0.540462691505904,0.472647304667387,0.5,0.5,0.459537308494096,0.56560185949232,0.53499747432148,0.46500252567852,0.575262976841712,0.5,0.145820563270208,0.603499073563659,0.424737023158288,0.0117810906637428,0.5,0.0277373763561749,0.921725204948925,2.12257047133259,2.81339852338828,0.5,86.6742116974106
CBC_1041,CBC_1041_MSI_TV_v3_Vset1_Tset1_2023-12-20_15h01.19.659.csv,1,38,0,2,b,1,0,3,tac,A,27,1,0A,2A,1,0,z,3.62624199999982,0,1,0,0,2A,0A,A02,2.87167962488401,0.56560185949232,0.500384681023562,0.486131311821913,0.486131311821913,0.5,0.587044067505455,0.5,0.5,0.472647304667387,0.486131311821913,0.540462691505904,0.472647304667387,0.5,0.5,0.459537308494096,0.56560185949232,0.462219244463355,0.537780755536645,0.486131311821913,0.56560185949232,0.0567120988038318,0.389375833603041,-0.486131311821913,-0.0134840071545254,0.5,0.0277373763561749,0.921725204948925,2.12257047133259,2.81339852338828,0.5,86.6742116974106
CBC_1041,CBC_1041_MSI_TV_v3_Vset1_Tset1_2023-12-20_15h01.19.659.csv,1,39,3,2,z,0,1,1,tac,C,63,1,3C,2C,0,1,b,2.88700240000026,1,0,0,0,3C,2C,C32,3.29583686600433,0.56560185949232,0.500384681023562,0.472647304667387,0.486131311821913,0.5,0.587044067505455,0.5,0.5,0.472647304667387,0.486131311821913,0.540462691505904,0.472647304667387,0.5,0.5,0.459537308494096,0.56560185949232,0.466531083942184,0.533468916057816,0.472647304667387,0.540462691505904,0.0935905138058467,0.401523847087603,-0.472647304667387,-0.013109996173291,0.5,0.0277373763561749,0.921725204948925,2.12257047133259,2.81339852338828,0.5,86.6742116974106
CBC_1041,CBC_1041_MSI_TV_v3_Vset1_Tset1_2023-12-20_15h01.19.659.csv,1,40,3,1,b,1,0,2,tac,D,27,1,3D,1D,1,0,z,3.85628369999995,0,1,0,0,1D,3D,D31,3.31418600467253,0.56560185949232,0.500384681023562,0.472647304667387,0.486131311821913,0.5,0.587044067505455,0.5,0.5,0.472647304667387,0.486131311821913,0.540462691505904,0.459537308494096,0.5,0.5,0.459537308494096,0.56560185949232,0.469218400424163,0.530781599575837,0.5,0.56560185949232,0.0517183207330347,0.409325682188051,-0.5,-0.0138686881780875,0.5,0.0277373763561749,0.921725204948925,2.12257047133259,2.81339852338828,0.5,86.6742116974106
CBC_1041,CBC_1041_MSI_TV_v3_Vset1_Tset1_2023-12-20_15h01.19.659.csv,1,41,1,0,z,0,1,3,tac,A,63,1,1A,0A,0,1,b,3.25701819999995,1,0,0,0,1A,0A,A10,2.23359222150709,0.56560185949232,0.500384681023562,0.472647304667387,0.486131311821913,0.5,0.587044067505455,0.5,0.5,0.472647304667387,0.486131311821913,0.540462691505904,0.459537308494096,0.5,0.486131311821913,0.459537308494096,0.56560185949232,0.469409942813539,0.530590057186461,0.500384681023562,0.56560185949232,0.075662070375989,0.410034385554126,-0.500384681023562,-0.0138793582204151,0.5,0.0277373763561749,0.921725204948925,2.12257047133259,2.81339852338828,0.5,86.6742116974106
CBC_1041,CBC_1041_MSI_TV_v3_Vset1_Tset1_2023-12-20_15h01.19.659.csv,1,42,2,0,b,1,0,1,tac,C,27,1,2C,0C,1,0,b,3.2974377999999,1,0,1,1,2C,0C,C20,3.3499040872746,0.56560185949232,0.486505322803147,0.472647304667387,0.486131311821913,0.5,0.587044067505455,0.5,0.5,0.472647304667387,0.486131311821913,0.540462691505904,0.459537308494096,0.5,0.486131311821913,0.459537308494096,0.56560185949232,0.533468916057816,0.466531083942184,0.540462691505904,0.472647304667387,0.107781264922782,0.59969770210681,0.459537308494096,0.0127463592754044,0.5,0.0277373763561749,0.921725204948925,2.12257047133259,2.81339852338828,0.5,86.6742116974106
CBC_1041,CBC_1041_MSI_TV_v3_Vset1_Tset1_2023-12-20_15h01.19.659.csv,1,43,2,3,z,0,1,2,tac,D,63,1,2D,3D,0,1,z,2.88826590000008,0,1,1,1,3D,2D,D23,2.67414864942653,0.56560185949232,0.486505322803147,0.472647304667387,0.486131311821913,0.5,0.587044067505455,0.5,0.5,0.472647304667387,0.486131311821913,0.553209050781308,0.459537308494096,0.5,0.486131311821913,0.459537308494096,0.56560185949232,0.551731781552429,0.448268218447571,0.56560185949232,0.459537308494096,0.151139588191896,0.649218840188821,0.43439814050768,0.0120490647116841,0.5,0.0277373763561749,0.921725204948925,2.12257047133259,2.81339852338828,0.5,86.6742116974106
CBC_1041,CBC_1041_MSI_TV_v3_Vset1_Tset1_2023-12-20_15h01.19.659.csv,1,44,0,1,z,0,1,0,tac,B,63,1,0B,1B,0,1,z,3.43424440000035,0,1,1,1,1B,0B,B01,2.97892515523761,0.56560185949232,0.486505322803147,0.472647304667387,0.486131311821913,0.5,0.587044067505455,0.5,0.5,0.472647304667387,0.486131311821913,0.553209050781308,0.459537308494096,0.5,0.486131311821913,0.459537308494096,0.577650924204004,0.540037046384515,0.459962953615485,0.587044067505455,0.5,0.101456950460184,0.617045405747551,0.412955932494545,0.0114543141181164,0.5,0.0277373763561749,0.921725204948925,2.12257047133259,2.81339852338828,0.5,86.6742116974106
CBC_1041,CBC_1041_MSI_AV_v3_Vset3_Aset3_2023-12-20_16h24.17.405.csv,2,1,0,1,b,1,0,3,aud,A,63,1,0A,1A,1,0,b,2.54581490000237,1,0,1,1,0A,1A,A01,2.77258872223978,0.5,0.5,0.5,0.5,0.5,0.5,0.5,0.5,0.5,0.5,0.5,0.5,0.5,0.5,0.5,0.5,0.5,0.5,0.5,0.5,0.122453837737074,0.499482669294498,0.5,0.0265865057104485,0.5,0.053173011420897,0.757572888883205,1.14429920028278,2.50256884264654,0.5,82.4573639403566
CBC_1041,CBC_1041_MSI_AV_v3_Vset3_Aset3_2023-12-20_16h24.17.405.csv,2,2,3,2,z,0,1,1,aud,C,63,1,3C,2C,0,1,b,2.77620140000181,1,0,0,0,3C,2C,C32,2.83321334405622,0.526586505710449,0.5,0.5,0.5,0.5,0.5,0.5,0.5,0.5,0.5,0.5,0.5,0.5,0.5,0.5,0.5,0.5,0.5,0.5,0.5,0.102305681908225,0.500349767956358,-0.5,-0.0265865057104485,0.5,0.053173011420897,0.757572888883205,1.14429920028278,2.50256884264654,0.5,82.4573639403566
CBC_1041,CBC_1041_MSI_AV_v3_Vset3_Aset3_2023-12-20_16h24.17.405.csv,2,3,0,2,b,1,0,3,aud,A,27,1,0A,2A,1,0,b,1.93724650000149,1,0,1,1,0A,2A,A02,2.89037175789616,0.526586505710449,0.5,0.5,0.5,0.5,0.5,0.5,0.5,0.5,0.5,0.5,0.473413494289551,0.5,0.5,0.5,0.5,0.512948984602155,0.487051015397845,0.526586505710449,0.5,0.205713973113763,0.520263066160014,0.473413494289551,0.0251728211386651,0.5,0.053173011420897,0.757572888883205,1.14429920028278,2.50256884264654,0.5,82.4573639403566
CBC_1041,CBC_1041_MSI_AV_v3_Vset3_Aset3_2023-12-20_16h24.17.405.csv,2,4,1,0,b,1,0,0,aud,B,63,1,1B,0B,1,0,b,1.70014080000146,1,0,1,1,1B,0B,B10,2.94443897916644,0.551759326849114,0.5,0.5,0.5,0.5,0.5,0.5,0.5,0.5,0.5,0.5,0.473413494289551,0.5,0.5,0.5,0.5,0.5,0.5,0.5,0.5,0.237080605932555,0.500580289810674,0.5,0.0265865057104485,0.5,0.053173011420897,0.757572888883205,1.14429920028278,2.50256884264654,0.5,82.4573639403566
CBC_1041,CBC_1041_MSI_AV_v3_Vset3_Aset3_2023-12-20_16h24.17.405.csv,2,5,0,1,z,0,1,0,aud,B,63,1,0B,1B,0,1,z,2.34030630000052,0,1,1,1,1B,0B,B01,2.99573227355399,0.551759326849114,0.5,0.5,0.5,0.5,0.526586505710449,0.5,0.5,0.5,0.5,0.5,0.473413494289551,0.5,0.5,0.5,0.5,0.512948984602155,0.487051015397845,0.526586505710449,0.5,0.149218316745507,0.517716193948732,0.473413494289551,0.0251728211386651,0.5,0.053173011420897,0.757572888883205,1.14429920028278,2.50256884264654,0.5,82.4573639403566
CBC_1041,CBC_1041_MSI_AV_v3_Vset3_Aset3_2023-12-20_16h24.17.405.csv,2,6,3,2,z,0,1,1,aud,C,63,1,3C,2C,0,1,z,3.50603500000216,0,1,1,1,2C,3C,C32,2.35137525716348,0.551759326849114,0.5,0.5,0.5,0.5,0.551759326849114,0.5,0.5,0.5,0.5,0.5,0.473413494289551,0.5,0.5,0.5,0.5,0.51365632686747,0.48634367313253,0.5,0.473413494289551,0.0595660284231292,0.518002451996169,0.5,0.0265865057104485,0.5,0.053173011420897,0.757572888883205,1.14429920028278,2.50256884264654,0.5,82.4573639403566
CBC_1041,CBC_1041_MSI_AV_v3_Vset3_Aset3_2023-12-20_16h24.17.405.csv,2,7,3,1,b,1,0,2,aud,D,27,1,3D,1D,1,0,b,2.11081240000203,1,0,1,1,3D,1D,D31,3.09104245335832,0.551759326849114,0.5,0.5,0.5,0.5,0.551759326849114,0.5,0.5,0.5,0.5,0.526586505710449,0.473413494289551,0.5,0.5,0.5,0.5,0.5,0.5,0.5,0.5,0.172373061052869,0.499343605789176,0.5,0.0265865057104485,0.5,0.053173011420897,0.757572888883205,1.14429920028278,2.50256884264654,0.5,82.4573639403566
CBC_1041,CBC_1041_MSI_AV_v3_Vset3_Aset3_2023-12-20_16h24.17.405.csv,2,8,1,2,z,0,1,1,aud,C,9,1,1C,2C,0,1,z,1.91033760000028,0,1,1,1,2C,1C,C12,3.13549421592915,0.551759326849114,0.5,0.5,0.5,0.5,0.551759326849114,0.5,0.5,0.5,0.5,0.526586505710449,0.473413494289551,0.5,0.5,0.5,0.526586505710449,0.512948984602155,0.487051015397845,0.526586505710449,0.5,0.209300789091249,0.518411155251574,0.473413494289551,0.0251728211386651,0.5,0.053173011420897,0.757572888883205,1.14429920028278,2.50256884264654,0.5,82.4573639403566
CBC_1041,CBC_1041_MSI_AV_v3_Vset3_Aset3_2023-12-20_16h24.17.405.csv,2,9,3,1,z,0,1,0,aud,B,27,1,3B,1B,0,1,b,2.48530360000041,1,0,0,0,3B,1B,B31,3.17805383034795,0.551759326849114,0.5,0.5,0.5,0.5,0.551759326849114,0.5,0.5,0.5,0.5,0.551759326849114,0.473413494289551,0.5,0.5,0.5,0.526586505710449,0.475393930185447,0.524606069814553,0.5,0.551759326849114,0.119160937384637,0.463557226583148,-0.5,-0.0265865057104485,0.5,0.053173011420897,0.757572888883205,1.14429920028278,2.50256884264654,0.5,82.4573639403566
CBC_1041,CBC_1041_MSI_AV_v3_Vset3_Aset3_2023-12-20_16h24.17.405.csv,2,10,3,2,b,1,0,2,aud,D,63,1,3D,2D,1,0,b,3.63275180000164,1,0,1,1,3D,2D,D32,3.2188758248682,0.551759326849114,0.5,0.5,0.5,0.5,0.551759326849114,0.5,0.473413494289551,0.5,0.5,0.551759326849114,0.473413494289551,0.5,0.5,0.5,0.526586505710449,0.512948984602155,0.487051015397845,0.526586505710449,0.5,0.0540313530048997,0.519276993379672,0.473413494289551,0.0251728211386651,0.5,0.053173011420897,0.757572888883205,1.14429920028278,2.50256884264654,0.5,82.4573639403566
CBC_1041,CBC_1041_MSI_AV_v3_Vset3_Aset3_2023-12-20_16h24.17.405.csv,2,11,1,0,b,1,0,0,aud,B,63,1,1B,0B,1,0,b,3.28155430000152,1,0,1,1,1B,0B,B10,2.56494935746154,0.551759326849114,0.5,0.5,0.5,0.5,0.551759326849114,0.5,0.473413494289551,0.5,0.5,0.551759326849114,0.473413494289551,0.5,0.5,0.5,0.551759326849114,0.524606069814553,0.475393930185447,0.551759326849114,0.5,0.0732639810949844,0.534346776159671,0.448240673150886,0.0238343064327627,0.5,0.053173011420897,0.757572888883205,1.14429920028278,2.50256884264654,0.5,82.4573639403566
CBC_1041,CBC_1041_MSI_AV_v3_Vset3_Aset3_2023-12-20_16h24.17.405.csv,2,12,0,2,z,0,1,1,aud,C,27,1,0C,2C,0,1,z,1.80221440000059,0,1,1,1,2C,0C,C02,3.29583686600433,0.551759326849114,0.5,0.5,0.5,0.5,0.575593633281876,0.5,0.473413494289551,0.5,0.5,0.551759326849114,0.473413494289551,0.5,0.5,0.5,0.551759326849114,0.524606069814553,0.475393930185447,0.551759326849114,0.5,0.235407627244579,0.536185182436186,0.448240673150886,0.0238343064327627,0.5,0.053173011420897,0.757572888883205,1.14429920028278,2.50256884264654,0.5,82.4573639403566
CBC_1041,CBC_1041_MSI_AV_v3_Vset3_Aset3_2023-12-20_16h24.17.405.csv,2,13,3,2,b,1,0,2,aud,D,63,0,3D,2D,0,1,z,1.15375230000245,0,1,0,1,2D,3D,D32,2.63905732961526,0.551759326849114,0.5,0.5,0.5,0.5,0.575593633281876,0.5,0.473413494289551,0.5,0.5,0.575593633281876,0.473413494289551,0.5,0.5,0.5,0.551759326849114,0.475393930185447,0.524606069814553,0.5,0.551759326849114,0.259144589251419,0.466133944260018,0.5,0.0265865057104485,0.5,0.053173011420897,0.757572888883205,1.14429920028278,2.50256884264654,0.5,82.4573639403566
CBC_1041,CBC_1041_MSI_AV_v3_Vset3_Aset3_2023-12-20_16h24.17.405.csv,2,14,1,0,z,0,1,3,aud,A,63,1,1A,0A,0,1,b,2.92915680000078,1,0,0,0,1A,0A,A10,3.36729582998647,0.551759326849114,0.5,0.5,0.5,0.5,0.575593633281876,0.5,0.473413494289551,0.5,0.5,0.575593633281876,0.473413494289551,0.5,0.5,0.526586505710449,0.551759326849114,0.475393930185447,0.524606069814553,0.5,0.551759326849114,0.0840393683583861,0.464120779340549,-0.5,-0.0265865057104485,0.5,0.053173011420897,0.757572888883205,1.14429920028278,2.50256884264654,0.5,82.4573639403566
CBC_1041,CBC_1041_MSI_AV_v3_Vset3_Aset3_2023-12-20_16h24.17.405.csv,2,15,2,3,b,1,0,1,aud,C,63,1,2C,3C,NaN,NaN,[],NaN,NaN,NaN,NaN,NaN,,,C23,3.40119738166216,0.551759326849114,0.473413494289551,0.5,0.5,0.5,0.575593633281876,0.5,0.473413494289551,0.5,0.5,0.575593633281876,0.473413494289551,0.5,0.5,0.526586505710449,0.551759326849114,0,0,0,0,NaN,0,0,0,0.5,0.053173011420897,0.757572888883205,1.14429920028278,2.50256884264654,0.5,82.4573639403566
CBC_1041,CBC_1041_MSI_AV_v3_Vset3_Aset3_2023-12-20_16h24.17.405.csv,2,16,0,2,b,1,0,3,aud,A,27,1,0A,2A,1,0,z,1.15128890000051,0,1,0,0,2A,0A,A02,2.7408400239252,0.551759326849114,0.473413494289551,0.5,0.5,0.5,0.575593633281876,0.5,0.473413494289551,0.5,0.5,0.575593633281876,0.473413494289551,0.5,0.5,0.526586505710449,0.551759326849114,0.475393930185447,0.524606069814553,0.5,0.551759326849114,0.257397447117412,0.464294833399253,-0.5,-0.0265865057104485,0.5,0.053173011420897,0.757572888883205,1.14429920028278,2.50256884264654,0.5,82.4573639403566
CBC_1041,CBC_1041_MSI_AV_v3_Vset3_Aset3_2023-12-20_16h24.17.405.csv,2,17,2,3,z,0,1,2,aud,D,63,1,2D,3D,0,1,b,3.54648930000258,1,0,0,0,2D,3D,D23,3.46573590279973,0.551759326849114,0.473413494289551,0.473413494289551,0.5,0.5,0.575593633281876,0.5,0.473413494289551,0.5,0.5,0.575593633281876,0.473413494289551,0.5,0.5,0.526586505710449,0.551759326849114,0.488328038937696,0.511671961062304,0.526586505710449,0.551759326849114,0.0538081699598128,0.483066360845563,-0.526586505710449,-0.0280001902822319,0.5,0.053173011420897,0.757572888883205,1.14429920028278,2.50256884264654,0.5,82.4573639403566
CBC_1041,CBC_1041_MSI_AV_v3_Vset3_Aset3_2023-12-20_16h24.17.405.csv,2,18,3,2,b,1,0,2,aud,D,63,1,3D,2D,1,0,b,1.90761910000219,1,0,1,1,3D,2D,D32,2.39789527279837,0.551759326849114,0.473413494289551,0.473413494289551,0.5,0.5,0.575593633281876,0.5,0.473413494289551,0.5,0.5,0.575593633281876,0.473413494289551,0.5,0.5,0.498586315428217,0.551759326849114,0.525312149296687,0.474687850703313,0.551759326849114,0.498586315428217,0.216697587853459,0.535343568746247,0.448240673150886,0.0238343064327627,0.5,0.053173011420897,0.757572888883205,1.14429920028278,2.50256884264654,0.5,82.4573639403566
CBC_1041,CBC_1041_MSI_AV_v3_Vset3_Aset3_2023-12-20_16h24.17.405.csv,2,19,3,1,z,0,1,0,aud,B,27,1,3B,1B,0,1,z,2.93339620000188,0,1,1,1,1B,3B,B31,2.83321334405622,0.551759326849114,0.473413494289551,0.473413494289551,0.5,0.5,0.575593633281876,0.5,0.473413494289551,0.5,0.5,0.575593633281876,0.473413494289551,0.5,0.5,0.498586315428217,0.575593633281876,0.548703262497789,0.451296737502211,0.575593633281876,0.473413494289551,0.102447387237838,0.5692771899274,0.424406366718124,0.0225669645846042,0.5,0.053173011420897,0.757572888883205,1.14429920028278,2.50256884264654,0.5,82.4573639403566
CBC_1041,CBC_1041_MSI_AV_v3_Vset3_Aset3_2023-12-20_16h24.17.405.csv,2,20,0,3,z,0,1,2,aud,D,9,1,0D,3D,0,1,b,2.18315110000185,1,0,0,0,0D,3D,D03,3.55534806148941,0.551759326849114,0.473413494289551,0.473413494289551,0.5,0.5,0.59816059786648,0.5,0.473413494289551,0.5,0.5,0.575593633281876,0.473413494289551,0.5,0.5,0.498586315428217,0.575593633281876,0.464859575706476,0.535140424293524,0.5,0.575593633281876,0.146339800421958,0.448486272906546,-0.5,-0.0265865057104485,0.5,0.053173011420897,0.757572888883205,1.14429920028278,2.50256884264654,0.5,82.4573639403566
CBC_1041,CBC_1041_MSI_AV_v3_Vset3_Aset3_2023-12-20_16h24.17.405.csv,2,21,1,0,b,1,0,0,aud,B,63,1,1B,0B,1,0,b,2.53974900000139,1,0,1,1,1B,0B,B10,2.484906649788,0.551759326849114,0.473413494289551,0.473413494289551,0.5,0.5,0.59816059786648,0.5,0.473413494289551,0.5,0.5,0.575593633281876,0.473413494289551,0.473413494289551,0.5,0.498586315428217,0.575593633281876,0.544693188800066,0.455306811199934,0.59816059786648,0.5,0.138790465210291,0.564080408324352,0.40183940213352,0.0213670111190121,0.5,0.053173011420897,0.757572888883205,1.14429920028278,2.50256884264654,0.5,82.4573639403566
CBC_1041,CBC_1041_MSI_AV_v3_Vset3_Aset3_2023-12-20_16h24.17.405.csv,2,22,1,0,z,0,1,3,aud,A,63,1,1A,0A,0,1,z,2.46654840000156,0,1,1,1,0A,1A,A10,2.91777073208428,0.551759326849114,0.473413494289551,0.473413494289551,0.5,0.5,0.619527608985493,0.5,0.473413494289551,0.5,0.5,0.575593633281876,0.473413494289551,0.473413494289551,0.5,0.498586315428217,0.575593633281876,0.538211036687718,0.461788963312282,0.551759326849114,0.473413494289551,0.14466935026572,0.554696048211102,0.448240673150886,0.0238343064327627,0.5,0.053173011420897,0.757572888883205,1.14429920028278,2.50256884264654,0.5,82.4573639403566
CBC_1041,CBC_1041_MSI_AV_v3_Vset3_Aset3_2023-12-20_16h24.17.405.csv,2,23,2,3,b,1,0,1,aud,C,63,1,2C,3C,1,0,z,4.40213949999998,0,1,0,0,3C,2C,C23,2.94443897916644,0.575593633281876,0.473413494289551,0.473413494289551,0.5,0.5,0.619527608985493,0.5,0.473413494289551,0.5,0.5,0.575593633281876,0.473413494289551,0.473413494289551,0.5,0.498586315428217,0.575593633281876,0.451296737502211,0.548703262497789,0.473413494289551,0.575593633281876,0.0241500684553017,0.430816150633935,-0.473413494289551,-0.0251728211386651,0.5,0.053173011420897,0.757572888883205,1.14429920028278,2.50256884264654,0.5,82.4573639403566
CBC_1041,CBC_1041_MSI_AV_v3_Vset3_Aset3_2023-12-20_16h24.17.405.csv,2,24,0,2,b,1,0,3,aud,A,27,1,0A,2A,1,0,b,1.32135030000063,1,0,1,1,0A,2A,A02,2.56494935746154,0.575593633281876,0.473413494289551,0.473413494289551,0.5,0.5,0.619527608985493,0.5,0.473413494289551,0.5,0.5,0.575593633281876,0.448240673150886,0.473413494289551,0.5,0.498586315428217,0.575593633281876,0.548703262497789,0.451296737502211,0.575593633281876,0.473413494289551,0.337438845312608,0.570020385293628,0.424406366718124,0.0225669645846042,0.5,0.053173011420897,0.757572888883205,1.14429920028278,2.50256884264654,0.5,82.4573639403566
CBC_1041,CBC_1041_MSI_AV_v3_Vset3_Aset3_2023-12-20_16h24.17.405.csv,2,25,1,0,b,1,0,0,aud,B,63,1,1B,0B,1,0,b,3.00169270000151,1,0,1,1,1B,0B,B10,2.30258509299405,0.59816059786648,0.473413494289551,0.473413494289551,0.5,0.5,0.619527608985493,0.5,0.473413494289551,0.5,0.5,0.575593633281876,0.448240673150886,0.473413494289551,0.5,0.498586315428217,0.575593633281876,0.553383055507585,0.446616944492415,0.619527608985493,0.5,0.0980310861847764,0.575572964205,0.380472391014507,0.0202308627927504,0.5,0.053173011420897,0.757572888883205,1.14429920028278,2.50256884264654,0.5,82.4573639403566
CBC_1041,CBC_1041_MSI_AV_v3_Vset3_Aset3_2023-12-20_16h24.17.405.csv,2,26,2,3,z,0,1,2,aud,D,63,1,2D,3D,0,1,b,1.37284330000148,1,0,0,0,2D,3D,D23,3.02042488614436,0.59816059786648,0.473413494289551,0.473413494289551,0.5,0.5,0.639758471778243,0.5,0.473413494289551,0.5,0.5,0.575593633281876,0.448240673150886,0.473413494289551,0.5,0.498586315428217,0.575593633281876,0.464155299144183,0.535844700855817,0.498586315428217,0.575593633281876,0.260937797924973,0.44883860698886,-0.498586315428217,-0.0265113358445675,0.5,0.053173011420897,0.757572888883205,1.14429920028278,2.50256884264654,0.5,82.4573639403566
CBC_1041,CBC_1041_MSI_AV_v3_Vset3_Aset3_2023-12-20_16h24.17.405.csv,2,27,1,2,b,1,0,0,aud,B,9,1,1B,2B,1,0,b,2.03904710000097,1,0,1,1,1B,2B,B12,3.73766961828337,0.59816059786648,0.473413494289551,0.473413494289551,0.5,0.5,0.639758471778243,0.5,0.473413494289551,0.5,0.5,0.575593633281876,0.448240673150886,0.473413494289551,0.5,0.472074979583649,0.575593633281876,0.561310565018303,0.438689434981697,0.639758471778243,0.5,0.214703807007435,0.586396378113082,0.360241528221757,0.0191551268944169,0.5,0.053173011420897,0.757572888883205,1.14429920028278,2.50256884264654,0.5,82.4573639403566
CBC_1041,CBC_1041_MSI_AV_v3_Vset3_Aset3_2023-12-20_16h24.17.405.csv,2,28,1,3,z,0,1,2,aud,D,27,1,1D,3D,0,1,b,1.16134570000031,1,0,0,0,1D,3D,D13,3.76120011569356,0.59816059786648,0.473413494289551,0.473413494289551,0.5,0.5,0.65891359867266,0.5,0.473413494289551,0.5,0.5,0.575593633281876,0.448240673150886,0.473413494289551,0.5,0.472074979583649,0.575593633281876,0.464859575706476,0.535140424293524,0.5,0.575593633281876,0.252686703096602,0.449660490473842,-0.5,-0.0265865057104485,0.5,0.053173011420897,0.757572888883205,1.14429920028278,2.50256884264654,0.5,82.4573639403566
CBC_1041,CBC_1041_MSI_AV_v3_Vset3_Aset3_2023-12-20_16h24.17.405.csv,2,29,1,0,z,0,1,3,aud,A,63,1,1A,0A,0,1,z,1.04381420000209,0,1,1,1,0A,1A,A10,2.68557734525015,0.59816059786648,0.473413494289551,0.473413494289551,0.5,0.5,0.65891359867266,0.5,0.473413494289551,0.5,0.5,0.575593633281876,0.448240673150886,0.473413494289551,0.473413494289551,0.472074979583649,0.575593633281876,0.558207409310324,0.441792590689676,0.59816059786648,0.473413494289551,0.249258339955125,0.582543765396531,0.40183940213352,0.0213670111190121,0.5,0.053173011420897,0.757572888883205,1.14429920028278,2.50256884264654,0.5,82.4573639403566
CBC_1041,CBC_1041_MSI_AV_v3_Vset3_Aset3_2023-12-20_16h24.17.405.csv,2,30,0,1,b,1,0,3,aud,A,63,1,0A,1A,1,0,b,0.924368500001947,1,0,1,1,0A,1A,A01,3.11351530921037,0.619527608985493,0.473413494289551,0.473413494289551,0.5,0.5,0.65891359867266,0.5,0.473413494289551,0.5,0.5,0.575593633281876,0.448240673150886,0.473413494289551,0.473413494289551,0.472074979583649,0.575593633281876,0.566844459531307,0.433155540468693,0.619527608985493,0.473413494289551,0.0811989278246257,0.595283279305463,0.380472391014507,0.0202308627927504,0.5,0.053173011420897,0.757572888883205,1.14429920028278,2.50256884264654,0.5,82.4573639403566
CBC_1041,CBC_1041_MSI_AV_v3_Vset3_Aset3_2023-12-20_16h24.17.405.csv,2,31,0,2,z,0,1,1,aud,C,27,1,0C,2C,0,1,z,1.90747980000197,0,1,1,1,2C,0C,C02,3.13549421592915,0.639758471778243,0.473413494289551,0.473413494289551,0.5,0.5,0.65891359867266,0.5,0.473413494289551,0.5,0.5,0.575593633281876,0.448240673150886,0.473413494289551,0.473413494289551,0.472074979583649,0.575593633281876,0.535140424293524,0.464859575706476,0.575593633281876,0.5,0.22313367557473,0.550794387884853,0.424406366718124,0.0225669645846042,0.5,0.053173011420897,0.757572888883205,1.14429920028278,2.50256884264654,0.5,82.4573639403566
CBC_1041,CBC_1041_MSI_AV_v3_Vset3_Aset3_2023-12-20_16h24.17.405.csv,2,32,1,0,z,0,1,3,aud,A,63,1,1A,0A,NaN,NaN,[],NaN,NaN,NaN,NaN,NaN,,,A10,2.46385324059017,0.639758471778243,0.473413494289551,0.473413494289551,0.5,0.5,0.65891359867266,0.5,0.473413494289551,0.5,0.5,0.59816059786648,0.448240673150886,0.473413494289551,0.473413494289551,0.472074979583649,0.575593633281876,0,0,0,0,NaN,0,0,0,0.5,0.053173011420897,0.757572888883205,1.14429920028278,2.50256884264654,0.5,82.4573639403566
CBC_1041,CBC_1041_MSI_AV_v3_Vset3_Aset3_2023-12-20_16h24.17.405.csv,2,33,1,0,b,1,0,0,aud,B,63,1,1B,0B,1,0,b,1.27475960000083,1,0,1,1,1B,0B,B10,2.26176309847379,0.639758471778243,0.473413494289551,0.473413494289551,0.5,0.5,0.65891359867266,0.5,0.473413494289551,0.5,0.5,0.59816059786648,0.448240673150886,0.473413494289551,0.473413494289551,0.472074979583649,0.575593633281876,0.56856145223193,0.43143854776807,0.65891359867266,0.5,0.356633750357276,0.596114962356196,0.34108640132734,0.0181365911132913,0.5,0.053173011420897,0.757572888883205,1.14429920028278,2.50256884264654,0.5,82.4573639403566
CBC_1041,CBC_1041_MSI_AV_v3_Vset3_Aset3_2023-12-20_16h24.17.405.csv,2,34,3,2,b,1,0,2,aud,D,63,1,3D,2D,1,0,z,2.69036899999992,0,1,0,0,2D,3D,D32,2.50552593699074,0.639758471778243,0.473413494289551,0.473413494289551,0.5,0.5,0.677050189785951,0.5,0.473413494289551,0.5,0.5,0.59816059786648,0.448240673150886,0.473413494289551,0.473413494289551,0.472074979583649,0.575593633281876,0.450595707255614,0.549404292744386,0.472074979583649,0.575593633281876,0.0939310086789057,0.430356426380158,-0.472074979583649,-0.0251016482809211,0.5,0.053173011420897,0.757572888883205,1.14429920028278,2.50256884264654,0.5,82.4573639403566
CBC_1041,CBC_1041_MSI_AV_v3_Vset3_Aset3_2023-12-20_16h24.17.405.csv,2,35,3,1,z,0,1,0,aud,B,27,1,3B,1B,0,1,z,3.71033600000192,0,1,1,1,1B,3B,B31,2.81341071676004,0.639758471778243,0.473413494289551,0.473413494289551,0.5,0.5,0.677050189785951,0.5,0.473413494289551,0.5,0.5,0.59816059786648,0.448240673150886,0.473413494289551,0.473413494289551,0.446973331302728,0.575593633281876,0.588502009370265,0.411497990629735,0.677050189785951,0.473413494289551,0.0593976473127125,0.624215547248459,0.322949810214049,0.0171722139468881,0.5,0.053173011420897,0.757572888883205,1.14429920028278,2.50256884264654,0.5,82.4573639403566
CBC_1041,CBC_1041_MSI_AV_v3_Vset3_Aset3_2023-12-20_16h24.17.405.csv,2,36,3,2,z,0,1,1,aud,C,63,1,3C,2C,0,1,b,4.83838490000016,1,0,0,0,3C,2C,C32,2.83321334405622,0.639758471778243,0.473413494289551,0.473413494289551,0.5,0.5,0.694222403732839,0.5,0.473413494289551,0.5,0.5,0.59816059786648,0.448240673150886,0.473413494289551,0.473413494289551,0.446973331302728,0.575593633281876,0.428364037359285,0.571635962640715,0.448240673150886,0.59816059786648,0.0154946614366071,0.39825064314673,-0.448240673150886,-0.0238343064327627,0.5,0.053173011420897,0.757572888883205,1.14429920028278,2.50256884264654,0.5,82.4573639403566
CBC_1041,CBC_1041_MSI_AV_v3_Vset3_Aset3_2023-12-20_16h24.17.405.csv,2,37,2,0,b,1,0,1,aud,C,27,1,2C,0C,1,0,b,2.40306390000114,1,0,1,1,2C,0C,C20,3.95124371858143,0.639758471778243,0.473413494289551,0.473413494289551,0.5,0.5,0.694222403732839,0.5,0.473413494289551,0.5,0.5,0.59816059786648,0.424406366718124,0.473413494289551,0.473413494289551,0.446973331302728,0.575593633281876,0.544693188800066,0.455306811199934,0.59816059786648,0.5,0.15442037900882,0.563138035642493,0.40183940213352,0.0213670111190121,0.5,0.053173011420897,0.757572888883205,1.14429920028278,2.50256884264654,0.5,82.4573639403566
CBC_1041,CBC_1041_MSI_AV_v3_Vset3_Aset3_2023-12-20_16h24.17.405.csv,2,38,1,0,b,1,0,0,aud,B,63,1,1B,0B,NaN,NaN,[],NaN,NaN,NaN,NaN,NaN,,,B10,2.17853244432407,0.639758471778243,0.473413494289551,0.473413494289551,0.5,0.5,0.694222403732839,0.5,0.473413494289551,0.5,0.5,0.619527608985493,0.424406366718124,0.473413494289551,0.473413494289551,0.446973331302728,0.575593633281876,0,0,0,0,NaN,0,0,0,0.5,0.053173011420897,0.757572888883205,1.14429920028278,2.50256884264654,0.5,82.4573639403566
CBC_1041,CBC_1041_MSI_AV_v3_Vset3_Aset3_2023-12-20_16h24.17.405.csv,2,39,3,0,z,0,1,3,aud,A,9,1,3A,0A,0,1,z,1.87298340000052,0,1,1,1,0A,3A,A30,3.98898404656427,0.639758471778243,0.473413494289551,0.473413494289551,0.5,0.5,0.694222403732839,0.5,0.473413494289551,0.5,0.5,0.619527608985493,0.424406366718124,0.473413494289551,0.473413494289551,0.446973331302728,0.575593633281876,0.561310565018303,0.438689434981697,0.639758471778243,0.5,0.245300261837806,0.587772404028779,0.360241528221757,0.0191551268944169,0.5,0.053173011420897,0.757572888883205,1.14429920028278,2.50256884264654,0.5,82.4573639403566
CBC_1041,CBC_1041_MSI_AV_v3_Vset3_Aset3_2023-12-20_16h24.17.405.csv,2,40,3,2,z,0,1,1,aud,C,63,0,3C,2C,1,0,b,2.52340300000105,1,0,0,1,3C,2C,C32,2.62103882411258,0.65891359867266,0.473413494289551,0.473413494289551,0.5,0.5,0.694222403732839,0.5,0.473413494289551,0.5,0.5,0.619527608985493,0.424406366718124,0.473413494289551,0.473413494289551,0.446973331302728,0.575593633281876,0.406545218946507,0.593454781053493,0.424406366718124,0.619527608985493,0.091758067146628,0.369560330965637,0.575593633281876,0.0306060468362928,0.5,0.053173011420897,0.757572888883205,1.14429920028278,2.50256884264654,0.5,82.4573639403566
CBC_1041,CBC_1041_MSI_AV_v3_Vset3_Aset3_2023-12-20_16h24.17.405.csv,2,41,1,0,z,0,1,3,aud,A,63,1,1A,0A,0,1,z,1.05934040000102,0,1,1,1,0A,1A,A10,2.41591377830105,0.65891359867266,0.473413494289551,0.473413494289551,0.5,0.5,0.694222403732839,0.5,0.473413494289551,0.5,0.5,0.619527608985493,0.455012413554417,0.473413494289551,0.473413494289551,0.446973331302728,0.575593633281876,0.581911006782428,0.418088993217572,0.65891359867266,0.473413494289551,0.283343076929192,0.615920241967569,0.34108640132734,0.0181365911132913,0.5,0.053173011420897,0.757572888883205,1.14429920028278,2.50256884264654,0.5,82.4573639403566
CBC_1041,CBC_1041_MSI_AV_v3_Vset3_Aset3_2023-12-20_16h24.17.405.csv,2,42,3,2,b,1,0,2,aud,D,63,1,3D,2D,1,0,z,1.84434200000214,0,1,0,0,2D,3D,D32,2.43361335540045,0.677050189785951,0.473413494289551,0.473413494289551,0.5,0.5,0.694222403732839,0.5,0.473413494289551,0.5,0.5,0.619527608985493,0.455012413554417,0.473413494289551,0.473413494289551,0.446973331302728,0.575593633281876,0.43710910559711,0.56289089440289,0.446973331302728,0.575593633281876,0.175602012034895,0.411439426002003,-0.446973331302728,-0.0237669180501963,0.5,0.053173011420897,0.757572888883205,1.14429920028278,2.50256884264654,0.5,82.4573639403566
CBC_1041,CBC_1041_MSI_AV_v3_Vset3_Aset3_2023-12-20_16h24.17.405.csv,2,43,2,3,b,1,0,1,aud,C,63,1,2C,3C,1,0,z,2.5951640000003,0,1,0,0,3C,2C,C23,2.96183072187831,0.677050189785951,0.473413494289551,0.473413494289551,0.5,0.5,0.694222403732839,0.5,0.473413494289551,0.5,0.5,0.619527608985493,0.455012413554417,0.473413494289551,0.473413494289551,0.423206413252532,0.575593633281876,0.423448549155848,0.576551450844152,0.455012413554417,0.619527608985493,0.0920790809732664,0.392178689011266,-0.455012413554417,-0.0241943802625789,0.5,0.053173011420897,0.757572888883205,1.14429920028278,2.50256884264654,0.5,82.4573639403566
CBC_1041,CBC_1041_MSI_AV_v3_Vset3_Aset3_2023-12-20_16h24.17.405.csv,2,44,1,3,z,0,1,2,aud,D,27,1,1D,3D,0,1,b,2.18321220000144,1,0,0,0,1D,3D,D13,3.38439026334577,0.677050189785951,0.473413494289551,0.473413494289551,0.5,0.5,0.694222403732839,0.5,0.473413494289551,0.5,0.5,0.619527608985493,0.430818033291838,0.473413494289551,0.473413494289551,0.423206413252532,0.575593633281876,0.451296737502211,0.548703262497789,0.473413494289551,0.575593633281876,0.14070139744345,0.4310711856597,-0.473413494289551,-0.0251728211386651,0.5,0.053173011420897,0.757572888883205,1.14429920028278,2.50256884264654,0.5,82.4573639403566
