ID,session,trialNr,mod2Stim,visStimLeft,visStimRight,correctKey,frequency,rewardAccurate,probFB,stimPairLeft,stimPairRight,leftCorrect,rightCorrect,pCorrectLeft,pCorrectRight,triplet,rt,surprise,0A belief,1A belief,2A belief,3A belief,0B belief,1B belief,2B belief,3B belief,0C belief,1C belief,2C belief,3C belief,0D belief,1D belief,2D belief,3D belief,reactionTime,choice,choiceLeft,choiceRight,chosenPair,otherPair,beliefPair,beliefOtherPair,beliefPairNorm,beliefOtherPairNorm,choiceAccurate,reward,rewardPE,update2,sim_CBCsimpleRW_CBCdriftDiffusionLR_startBelief,sim_CBCsimpleRW_CBCdriftDiffusionLR_alpha1,sim_CBCsimpleRW_CBCdriftDiffusionLR_nonDecisionTime,sim_CBCsimpleRW_CBCdriftDiffusionLR_weight,sim_CBCsimpleRW_CBCdriftDiffusionLR_startingBoundary,sim_CBCsimpleRW_CBCdriftDiffusionLR_startingPoint,lik,corrLik,fitCBCsimpleRW_CBCdriftDiffusionLR_startBelief,fitCBCsimpleRW_CBCdriftDiffusionLR_alpha1,fitCBCsimpleRW_CBCdriftDiffusionLR_nonDecisionTime,fitCBCsimpleRW_CBCdriftDiffusionLR_weight,fitCBCsimpleRW_CBCdriftDiffusionLR_startingBoundary,fitCBCsimpleRW_CBCdriftDiffusionLR_startingPoint,fit_CBCsimpleRW_CBCdriftDiffusionLR_NLL
183,1,1,B,1,3,a,27,1,0.95,1B,3B,1,0,1,0,B13,2.67455283848047,2.77258872223978,0.5,0.5,0.5,0.5,0.5,0.5,0.5,0.5,0.5,0.5,0.5,0.5,0.5,0.5,0.5,0.5,2.72404419086136,0,0,1,3B,1B,0.5,0.5,0.5,0.5,0,0,-0.5,-0.0660643204300142,0.5,0.192547295163157,0.860044190861362,3.64621140351716,3.54439862070365,0.5,0.127181774015742,0.498915302039921,0.5,0.132128640860028,1.05540470259099,6.40465388300855,3.55479629950135,0.5,61.9123737756426
183,1,2,C,3,2,l,63,1,0.95,3C,2C,0,1,0,1,C32,0.179627154566972,2.83321334405622,0.5,0.5,0.5,0.5,0.5,0.5,0.5,0.433935679569986,0.5,0.5,0.5,0.5,0.5,0.5,0.5,0.5,4.54704419086136,0,0,1,2C,3C,0.5,0.5,0.5,0.5,1,1,0.5,0.0660643204300142,0.5,0.192547295163157,0.860044190861362,3.64621140351716,3.54439862070365,0.5,0.0635484419560227,0.499756807048968,0.5,0.132128640860028,1.05540470259099,6.40465388300855,3.55479629950135,0.5,61.9123737756426
183,1,3,D,3,2,a,63,1,0.95,3D,2D,1,0,1,0,D32,0.868940169263156,2.89037175789616,0.5,0.5,0.5,0.5,0.5,0.5,0.5,0.433935679569986,0.5,0.5,0.566064320430014,0.5,0.5,0.5,0.5,0.5,5.88804419086136,1,1,0,3D,2D,0.5,0.5,0.5,0.5,1,1,0.5,0.0660643204300142,0.5,0.192547295163157,0.860044190861362,3.64621140351716,3.54439862070365,0.5,0.0377627001504756,0.501333972008052,0.5,0.132128640860028,1.05540470259099,6.40465388300855,3.55479629950135,0.5,61.9123737756426
183,1,4,B,0,1,l,63,1,0.95,0B,1B,0,1,0,1,B01,3.31644140874082,2.94443897916644,0.5,0.5,0.5,0.5,0.5,0.5,0.5,0.433935679569986,0.5,0.5,0.566064320430014,0.5,0.5,0.5,0.5,0.566064320430014,2.05704419086136,1,1,0,0B,1B,0.5,0.5,0.5,0.5,0,0,-0.5,-0.0660643204300142,0.5,0.192547295163157,0.860044190861362,3.64621140351716,3.54439862070365,0.5,0.145887554446062,0.499161542861249,0.5,0.132128640860028,1.05540470259099,6.40465388300855,3.55479629950135,0.5,61.9123737756426
183,1,5,A,0,3,a,9,1,0.95,0A,3A,1,0,1,0,A03,0.290275601678681,2.99573227355399,0.5,0.5,0.5,0.5,0.433935679569986,0.5,0.5,0.433935679569986,0.5,0.5,0.566064320430014,0.5,0.5,0.5,0.5,0.566064320430014,3.86104419086136,0,0,1,3A,0A,0.5,0.5,0.5,0.5,0,0,-0.5,-0.0660643204300142,0.5,0.192547295163157,0.860044190861362,3.64621140351716,3.54439862070365,0.5,0.0832157108505464,0.500833456846647,0.5,0.132128640860028,1.05540470259099,6.40465388300855,3.55479629950135,0.5,61.9123737756426
183,1,6,D,3,2,a,63,1,0.95,3D,2D,1,0,1,0,D32,0.646825805524503,2.35137525716348,0.5,0.5,0.5,0.433935679569986,0.433935679569986,0.5,0.5,0.433935679569986,0.5,0.5,0.566064320430014,0.5,0.5,0.5,0.5,0.566064320430014,3.46104419086136,1,1,0,3D,2D,0.566064320430014,0.5,0.530985147501872,0.469014852498128,1,1,0.433935679569986,0.057335331562255,0.5,0.192547295163157,0.860044190861362,3.64621140351716,3.54439862070365,0.5,0.162670589212692,0.804552974085454,0.5,0.132128640860028,1.05540470259099,6.40465388300855,3.55479629950135,0.5,61.9123737756426
183,1,7,C,0,2,l,27,1,0.95,0C,2C,0,1,0,1,C02,3.48366291983555,3.09104245335832,0.5,0.5,0.5,0.433935679569986,0.433935679569986,0.5,0.5,0.433935679569986,0.5,0.5,0.566064320430014,0.5,0.5,0.5,0.5,0.623399651992269,3.65904419086136,0,0,1,2C,0C,0.566064320430014,0.5,0.530985147501872,0.469014852498128,1,1,0.433935679569986,0.057335331562255,0.5,0.192547295163157,0.860044190861362,3.64621140351716,3.54439862070365,0.5,0.148363729154481,0.804699139224372,0.5,0.132128640860028,1.05540470259099,6.40465388300855,3.55479629950135,0.5,61.9123737756426
183,1,8,A,0,1,a,63,1,0.95,0A,1A,1,0,1,0,A01,0.0410233515250853,3.13549421592915,0.5,0.5,0.5,0.433935679569986,0.433935679569986,0.5,0.5,0.433935679569986,0.5,0.5,0.623399651992269,0.5,0.5,0.5,0.5,0.623399651992269,7.69304419086136,0,0,1,1A,0A,0.5,0.5,0.5,0.5,0,0,-0.5,-0.0660643204300142,0.5,0.192547295163157,0.860044190861362,3.64621140351716,3.54439862070365,0.5,0.0185942903919589,0.499539533271998,0.5,0.132128640860028,1.05540470259099,6.40465388300855,3.55479629950135,0.5,61.9123737756426
183,1,9,B,1,0,a,63,1,0.95,1B,0B,1,0,1,0,B10,1.5843613445347,3.17805383034795,0.5,0.433935679569986,0.5,0.433935679569986,0.433935679569986,0.5,0.5,0.433935679569986,0.5,0.5,0.623399651992269,0.5,0.5,0.5,0.5,0.623399651992269,5.61704419086136,0,0,1,0B,1B,0.433935679569986,0.5,0.464631225749705,0.535368774250295,0,0,-0.433935679569986,-0.057335331562255,0.5,0.192547295163157,0.860044190861362,3.64621140351716,3.54439862070365,0.5,0.0117260465504604,0.166611895989453,0.5,0.132128640860028,1.05540470259099,6.40465388300855,3.55479629950135,0.5,61.9123737756426
183,1,10,D,1,3,l,27,1,0.95,1D,3D,0,1,0,1,D13,2.5343236261167,3.2188758248682,0.5,0.433935679569986,0.5,0.433935679569986,0.376600348007731,0.5,0.5,0.433935679569986,0.5,0.5,0.623399651992269,0.5,0.5,0.5,0.5,0.623399651992269,4.51404419086136,1,1,0,1D,3D,0.5,0.623399651992269,0.445077581351646,0.554922418648354,0,0,-0.5,-0.0660643204300142,0.5,0.192547295163157,0.860044190861362,3.64621140351716,3.54439862070365,0.5,0.0077905581760475,0.0754484746146361,0.5,0.132128640860028,1.05540470259099,6.40465388300855,3.55479629950135,0.5,61.9123737756426
183,1,11,C,3,2,l,63,1,0.95,3C,2C,0,1,0,1,C32,3.07344268996669,2.56494935746154,0.5,0.433935679569986,0.5,0.433935679569986,0.376600348007731,0.5,0.5,0.433935679569986,0.5,0.5,0.623399651992269,0.5,0.5,0.433935679569986,0.5,0.623399651992269,3.46504419086136,0,0,1,2C,3C,0.623399651992269,0.5,0.554922418648354,0.445077581351646,1,1,0.376600348007731,0.0497596921296752,0.5,0.192547295163157,0.860044190861362,3.64621140351716,3.54439862070365,0.5,0.186323607218138,0.924494607517733,0.5,0.132128640860028,1.05540470259099,6.40465388300855,3.55479629950135,0.5,61.9123737756426
183,1,12,B,1,0,a,63,1,0.95,1B,0B,1,0,1,0,B10,1.80641393355886,2.60268968544438,0.5,0.433935679569986,0.5,0.433935679569986,0.376600348007731,0.5,0.5,0.433935679569986,0.5,0.5,0.673159344121944,0.5,0.5,0.433935679569986,0.5,0.623399651992269,1.45304419086136,1,1,0,1B,0B,0.5,0.376600348007731,0.570385354211142,0.429614645788858,1,1,0.5,0.0660643204300142,0.5,0.192547295163157,0.860044190861362,3.64621140351716,3.54439862070365,0.5,0.224905534573546,0.961011479114752,0.5,0.132128640860028,1.05540470259099,6.40465388300855,3.55479629950135,0.5,61.9123737756426
183,1,13,A,0,1,a,63,1,0.95,0A,1A,1,0,1,0,A01,1.43978175606732,2.63905732961526,0.5,0.433935679569986,0.5,0.433935679569986,0.376600348007731,0.566064320430014,0.5,0.433935679569986,0.5,0.5,0.673159344121944,0.5,0.5,0.433935679569986,0.5,0.623399651992269,1.99604419086136,1,1,0,0A,1A,0.5,0.433935679569986,0.535368774250295,0.464631225749705,1,1,0.5,0.0660643204300142,0.5,0.192547295163157,0.860044190861362,3.64621140351716,3.54439862070365,0.5,0.294583098483331,0.833606272838396,0.5,0.132128640860028,1.05540470259099,6.40465388300855,3.55479629950135,0.5,61.9123737756426
183,1,14,C,1,2,l,9,1,0.95,1C,2C,0,1,0,1,C12,0.721400834798944,3.36729582998647,0.566064320430014,0.433935679569986,0.5,0.433935679569986,0.376600348007731,0.566064320430014,0.5,0.433935679569986,0.5,0.5,0.673159344121944,0.5,0.5,0.433935679569986,0.5,0.623399651992269,2.04904419086136,0,0,1,2C,1C,0.673159344121944,0.5,0.573800436824525,0.426199563175475,1,1,0.326840655878056,0.0431850116389677,0.5,0.192547295163157,0.860044190861362,3.64621140351716,3.54439862070365,0.5,0.502306951618597,0.966324332781625,0.5,0.132128640860028,1.05540470259099,6.40465388300855,3.55479629950135,0.5,61.9123737756426
183,1,15,A,1,0,l,63,1,0.95,1A,0A,0,1,0,1,A10,3.15536086887453,3.40119738166216,0.566064320430014,0.433935679569986,0.5,0.433935679569986,0.376600348007731,0.566064320430014,0.5,0.433935679569986,0.5,0.5,0.716344355760912,0.5,0.5,0.433935679569986,0.5,0.623399651992269,2.18504419086136,0,0,1,0A,1A,0.566064320430014,0.433935679569986,0.566064320430014,0.433935679569986,1,1,0.433935679569986,0.057335331562255,0.5,0.192547295163157,0.860044190861362,3.64621140351716,3.54439862070365,0.5,0.437377392773559,0.952630802899234,0.5,0.132128640860028,1.05540470259099,6.40465388300855,3.55479629950135,0.5,61.9123737756426
183,1,16,D,3,1,a,27,1,0.95,3D,1D,1,0,1,0,D31,2.51887297111169,3.43398720448515,0.623399651992269,0.433935679569986,0.5,0.433935679569986,0.376600348007731,0.566064320430014,0.5,0.433935679569986,0.5,0.5,0.716344355760912,0.5,0.5,0.433935679569986,0.5,0.623399651992269,1.84004419086136,1,1,0,3D,1D,0.623399651992269,0.433935679569986,0.589595025705962,0.410404974294038,1,1,0.376600348007731,0.0497596921296752,0.5,0.192547295163157,0.860044190861362,3.64621140351716,3.54439862070365,0.5,0.625195085763395,0.983388803734893,0.5,0.132128640860028,1.05540470259099,6.40465388300855,3.55479629950135,0.5,61.9123737756426
183,1,17,B,0,1,l,63,1,0.95,0B,1B,0,1,0,1,B01,1.64883210780886,2.77258872223978,0.623399651992269,0.433935679569986,0.5,0.433935679569986,0.376600348007731,0.566064320430014,0.5,0.433935679569986,0.5,0.5,0.716344355760912,0.5,0.5,0.433935679569986,0.5,0.673159344121944,2.06804419086136,0,0,1,1B,0B,0.566064320430014,0.376600348007731,0.600493833473295,0.399506166526705,1,1,0.433935679569986,0.057335331562255,0.5,0.192547295163157,0.860044190861362,3.64621140351716,3.54439862070365,0.5,0.622842507359826,0.989812343254698,0.5,0.132128640860028,1.05540470259099,6.40465388300855,3.55479629950135,0.5,61.9123737756426
183,1,18,C,2,3,a,63,0,0.95,2C,3C,1,0,0,1,C23,2.19559388481232,3.49650756146648,0.623399651992269,0.433935679569986,0.5,0.433935679569986,0.376600348007731,0.623399651992269,0.5,0.433935679569986,0.5,0.5,0.716344355760912,0.5,0.5,0.433935679569986,0.5,0.673159344121944,1.41504419086136,1,1,0,2C,3C,0.716344355760912,0.5,0.588932198655854,0.411067801344146,1,0,-0.716344355760912,-0.094649606114442,0.5,0.192547295163157,0.860044190861362,3.64621140351716,3.54439862070365,0.5,0.24412604239711,0.982886698041171,0.5,0.132128640860028,1.05540470259099,6.40465388300855,3.55479629950135,0.5,61.9123737756426
183,1,19,A,2,0,l,27,1,0.95,2A,0A,0,1,0,1,A20,1.30558636537159,3.52636052461616,0.623399651992269,0.433935679569986,0.5,0.433935679569986,0.376600348007731,0.623399651992269,0.5,0.433935679569986,0.5,0.5,0.62169474964647,0.5,0.5,0.433935679569986,0.5,0.673159344121944,1.99304419086136,0,0,1,0A,2A,0.623399651992269,0.5,0.554922418648354,0.445077581351646,1,1,0.376600348007731,0.0497596921296752,0.5,0.192547295163157,0.860044190861362,3.64621140351716,3.54439862070365,0.5,0.401413192820283,0.924352533277784,0.5,0.132128640860028,1.05540470259099,6.40465388300855,3.55479629950135,0.5,61.9123737756426
183,1,20,D,3,2,a,63,1,0.95,3D,2D,1,0,1,0,D32,1.54808389248938,2.4567357728213,0.673159344121944,0.433935679569986,0.5,0.433935679569986,0.376600348007731,0.623399651992269,0.5,0.433935679569986,0.5,0.5,0.62169474964647,0.5,0.5,0.433935679569986,0.5,0.673159344121944,1.81204419086136,1,1,0,3D,2D,0.673159344121944,0.5,0.573800436824525,0.426199563175475,1,1,0.326840655878056,0.0431850116389677,0.5,0.192547295163157,0.860044190861362,3.64621140351716,3.54439862070365,0.5,0.510429920812925,0.966277661373834,0.5,0.132128640860028,1.05540470259099,6.40465388300855,3.55479629950135,0.5,61.9123737756426
183,1,21,B,3,1,l,27,1,0.95,3B,1B,0,1,0,1,B31,3.47268421082796,3.58351893845611,0.673159344121944,0.433935679569986,0.5,0.433935679569986,0.376600348007731,0.623399651992269,0.5,0.433935679569986,0.5,0.5,0.62169474964647,0.5,0.5,0.433935679569986,0.5,0.716344355760912,2.55004419086136,0,0,1,1B,3B,0.623399651992269,0.433935679569986,0.589595025705962,0.410404974294038,1,1,0.376600348007731,0.0497596921296752,0.5,0.192547295163157,0.860044190861362,3.64621140351716,3.54439862070365,0.5,0.387325614610684,0.983419110541121,0.5,0.132128640860028,1.05540470259099,6.40465388300855,3.55479629950135,0.5,61.9123737756426
183,1,22,C,3,2,l,63,1,0.95,3C,2C,0,1,0,1,C32,0.22286087183129,2.51230562397611,0.673159344121944,0.433935679569986,0.5,0.433935679569986,0.376600348007731,0.673159344121944,0.5,0.433935679569986,0.5,0.5,0.62169474964647,0.5,0.5,0.433935679569986,0.5,0.716344355760912,1.82304419086136,0,0,1,2C,3C,0.62169474964647,0.5,0.554245929957694,0.445754070042306,1,1,0.37830525035353,0.0499849585594247,0.5,0.192547295163157,0.860044190861362,3.64621140351716,3.54439862070365,0.5,0.385002572400948,0.922142712004655,0.5,0.132128640860028,1.05540470259099,6.40465388300855,3.55479629950135,0.5,61.9123737756426
183,1,23,A,0,1,a,63,1,0.95,0A,1A,1,0,1,0,A01,0.120009352648383,2.53897387105828,0.673159344121944,0.433935679569986,0.5,0.433935679569986,0.376600348007731,0.673159344121944,0.5,0.433935679569986,0.5,0.5,0.671679708205895,0.5,0.5,0.433935679569986,0.5,0.716344355760912,2.10104419086136,1,1,0,0A,1A,0.673159344121944,0.433935679569986,0.608041161522973,0.391958838477027,1,1,0.326840655878056,0.0431850116389677,0.5,0.192547295163157,0.860044190861362,3.64621140351716,3.54439862070365,0.5,0.629231393329875,0.992724602266406,0.5,0.132128640860028,1.05540470259099,6.40465388300855,3.55479629950135,0.5,61.9123737756426
183,1,24,B,2,1,l,9,1,0.95,2B,1B,0,1,0,1,B21,0.14795746362461,3.66356164612965,0.716344355760912,0.433935679569986,0.5,0.433935679569986,0.376600348007731,0.673159344121944,0.5,0.433935679569986,0.5,0.5,0.671679708205895,0.5,0.5,0.433935679569986,0.5,0.716344355760912,3.06704419086136,0,0,1,1B,2B,0.673159344121944,0.5,0.573800436824525,0.426199563175475,1,1,0.326840655878056,0.0431850116389677,0.5,0.192547295163157,0.860044190861362,3.64621140351716,3.54439862070365,0.5,0.246168620629808,0.966501993705503,0.5,0.132128640860028,1.05540470259099,6.40465388300855,3.55479629950135,0.5,61.9123737756426
183,1,25,C,2,3,a,63,1,0.95,2C,3C,1,0,1,0,C23,0.540067401743971,2.99573227355399,0.716344355760912,0.433935679569986,0.5,0.433935679569986,0.376600348007731,0.716344355760912,0.5,0.433935679569986,0.5,0.5,0.671679708205895,0.5,0.5,0.433935679569986,0.5,0.716344355760912,3.54104419086136,1,1,0,2C,3C,0.671679708205895,0.5,0.573262217909694,0.426737782090306,1,1,0.328320291794105,0.0433805139215231,0.5,0.192547295163157,0.860044190861362,3.64621140351716,3.54439862070365,0.5,0.166801479604311,0.965767960220824,0.5,0.132128640860028,1.05540470259099,6.40465388300855,3.55479629950135,0.5,61.9123737756426
183,1,26,D,2,3,l,63,1,0.95,2D,3D,0,1,0,1,D23,2.92271239757473,3.71357206670431,0.716344355760912,0.433935679569986,0.5,0.433935679569986,0.376600348007731,0.716344355760912,0.5,0.433935679569986,0.5,0.5,0.715060222127418,0.5,0.5,0.433935679569986,0.5,0.716344355760912,2.10604419086136,0,0,1,3D,2D,0.716344355760912,0.5,0.588932198655854,0.411067801344146,1,1,0.283655644239088,0.0374790347455864,0.5,0.192547295163157,0.860044190861362,3.64621140351716,3.54439862070365,0.5,0.561504319994768,0.982987298005993,0.5,0.132128640860028,1.05540470259099,6.40465388300855,3.55479629950135,0.5,61.9123737756426
183,1,27,B,0,1,l,63,1,0.95,0B,1B,0,1,0,1,B01,1.55173081239645,2.63905732961526,0.716344355760912,0.433935679569986,0.5,0.433935679569986,0.376600348007731,0.716344355760912,0.5,0.433935679569986,0.5,0.5,0.715060222127418,0.5,0.5,0.433935679569986,0.5,0.753823390506498,2.11004419086136,0,0,1,1B,0B,0.716344355760912,0.376600348007731,0.655425982019809,0.344574017980191,1,1,0.283655644239088,0.0374790347455864,0.5,0.192547295163157,0.860044190861362,3.64621140351716,3.54439862070365,0.5,0.623505078779433,0.999152416667784,0.5,0.132128640860028,1.05540470259099,6.40465388300855,3.55479629950135,0.5,61.9123737756426
183,1,28,A,0,2,a,27,1,0.95,0A,2A,1,0,1,0,A02,1.58844699829651,3.76120011569356,0.716344355760912,0.433935679569986,0.5,0.433935679569986,0.376600348007731,0.753823390506498,0.5,0.433935679569986,0.5,0.5,0.715060222127418,0.5,0.5,0.433935679569986,0.5,0.753823390506498,3.52404419086136,1,1,0,0A,2A,0.716344355760912,0.5,0.588932198655854,0.411067801344146,1,1,0.283655644239088,0.0374790347455864,0.5,0.192547295163157,0.860044190861362,3.64621140351716,3.54439862070365,0.5,0.144634345578073,0.98282514049125,0.5,0.132128640860028,1.05540470259099,6.40465388300855,3.55479629950135,0.5,61.9123737756426
183,1,29,D,1,3,l,27,1,0.95,1D,3D,0,1,0,1,D13,2.23366588257057,3.09104245335832,0.753823390506498,0.433935679569986,0.5,0.433935679569986,0.376600348007731,0.753823390506498,0.5,0.433935679569986,0.5,0.5,0.715060222127418,0.5,0.5,0.433935679569986,0.5,0.753823390506498,2.61004419086136,0,0,1,3D,1D,0.753823390506498,0.433935679569986,0.634660184458079,0.36533981554192,1,1,0.246176609493502,0.0325269808239063,0.5,0.192547295163157,0.860044190861362,3.64621140351716,3.54439862070365,0.5,0.280616811603801,0.997842594888442,0.5,0.132128640860028,1.05540470259099,6.40465388300855,3.55479629950135,0.5,61.9123737756426
183,1,30,A,1,0,l,63,1,0.95,1A,0A,0,1,0,1,A10,1.02445757663313,3.11351530921037,0.753823390506498,0.433935679569986,0.5,0.433935679569986,0.376600348007731,0.753823390506498,0.5,0.433935679569986,0.5,0.5,0.715060222127418,0.5,0.5,0.433935679569986,0.5,0.786350371330405,1.77804419086136,0,0,1,0A,1A,0.753823390506498,0.433935679569986,0.634660184458079,0.36533981554192,1,1,0.246176609493502,0.0325269808239063,0.5,0.192547295163157,0.860044190861362,3.64621140351716,3.54439862070365,0.5,0.949980700179669,0.997835196902455,0.5,0.132128640860028,1.05540470259099,6.40465388300855,3.55479629950135,0.5,61.9123737756426
183,1,31,C,2,0,a,27,1,0.95,2C,0C,1,0,1,0,C20,2.16721650480343,3.8286413964891,0.786350371330405,0.433935679569986,0.5,0.433935679569986,0.376600348007731,0.753823390506498,0.5,0.433935679569986,0.5,0.5,0.715060222127418,0.5,0.5,0.433935679569986,0.5,0.786350371330405,4.24904419086136,1,1,0,2C,0C,0.715060222127418,0.5,0.588497762584506,0.411502237415494,1,1,0.284939777872582,0.0376487055772627,0.5,0.192547295163157,0.860044190861362,3.64621140351716,3.54439862070365,0.5,0.0688431360196728,0.982518478438456,0.5,0.132128640860028,1.05540470259099,6.40465388300855,3.55479629950135,0.5,61.9123737756426
183,1,32,D,2,3,l,63,1,0.95,2D,3D,0,1,0,1,D23,2.09551696451979,3.15700042115011,0.786350371330405,0.433935679569986,0.5,0.433935679569986,0.376600348007731,0.753823390506498,0.5,0.433935679569986,0.5,0.5,0.75270892770468,0.5,0.5,0.433935679569986,0.5,0.786350371330405,1.65604419086136,0,0,1,3D,2D,0.786350371330405,0.5,0.611303412239951,0.388696587760049,1,1,0.213649628669595,0.0282292350563634,0.5,0.192547295163157,0.860044190861362,3.64621140351716,3.54439862070365,0.5,0.75195534047552,0.993751689835442,0.5,0.132128640860028,1.05540470259099,6.40465388300855,3.55479629950135,0.5,61.9123737756426
183,1,33,B,1,0,a,63,1,0.95,1B,0B,1,0,1,0,B10,0.0450449999362986,2.77258872223978,0.786350371330405,0.433935679569986,0.5,0.433935679569986,0.376600348007731,0.753823390506498,0.5,0.433935679569986,0.5,0.5,0.75270892770468,0.5,0.5,0.433935679569986,0.5,0.814579606386768,2.05104419086136,1,1,0,1B,0B,0.753823390506498,0.376600348007731,0.666850283502791,0.333149716497209,1,1,0.246176609493502,0.0325269808239063,0.5,0.192547295163157,0.860044190861362,3.64621140351716,3.54439862070365,0.5,0.671490208785312,0.999495003036226,0.5,0.132128640860028,1.05540470259099,6.40465388300855,3.55479629950135,0.5,61.9123737756426
183,1,34,A,0,1,a,63,1,0.95,0A,1A,1,0,1,0,A01,1.22634450351237,2.50552593699074,0.786350371330405,0.433935679569986,0.5,0.433935679569986,0.376600348007731,0.786350371330405,0.5,0.433935679569986,0.5,0.5,0.75270892770468,0.5,0.5,0.433935679569986,0.5,0.814579606386768,2.44804419086136,1,1,0,0A,1A,0.786350371330405,0.433935679569986,0.644398393925911,0.355601606074088,1,1,0.213649628669595,0.0282292350563634,0.5,0.192547295163157,0.860044190861362,3.64621140351716,3.54439862070365,0.5,0.343105110656869,0.998606499045609,0.5,0.132128640860028,1.05540470259099,6.40465388300855,3.55479629950135,0.5,61.9123737756426
183,1,35,D,2,3,l,63,0,0.95,2D,3D,0,1,1,0,D23,0.722824198746829,2.81341071676004,0.814579606386768,0.433935679569986,0.5,0.433935679569986,0.376600348007731,0.786350371330405,0.5,0.433935679569986,0.5,0.5,0.75270892770468,0.5,0.5,0.433935679569986,0.5,0.814579606386768,1.56104419086136,0,0,1,3D,2D,0.814579606386768,0.5,0.61965026874691,0.38034973125309,1,0,-0.814579606386768,-0.107629296264181,0.5,0.192547295163157,0.860044190861362,3.64621140351716,3.54439862070365,0.5,0.731081190518751,0.995734557361095,0.5,0.132128640860028,1.05540470259099,6.40465388300855,3.55479629950135,0.5,61.9123737756426
183,1,36,C,2,0,a,27,1,0.95,2C,0C,1,0,1,0,C20,0.246163377115827,3.23867845216438,0.814579606386768,0.433935679569986,0.5,0.433935679569986,0.376600348007731,0.786350371330405,0.5,0.433935679569986,0.5,0.5,0.75270892770468,0.5,0.5,0.433935679569986,0.5,0.706950310122588,2.95004419086136,1,1,0,2C,0C,0.75270892770468,0.5,0.600864982325829,0.399135017674171,1,1,0.24729107229532,0.0326742332791996,0.5,0.192547295163157,0.860044190861362,3.64621140351716,3.54439862070365,0.5,0.240645355822781,0.989958646024706,0.5,0.132128640860028,1.05540470259099,6.40465388300855,3.55479629950135,0.5,61.9123737756426
183,1,37,A,0,1,a,63,1,0.95,0A,1A,1,0,1,0,A01,2.81768488712894,2.34180580614733,0.814579606386768,0.433935679569986,0.5,0.433935679569986,0.376600348007731,0.786350371330405,0.5,0.433935679569986,0.5,0.5,0.78538316098388,0.5,0.5,0.433935679569986,0.5,0.706950310122588,2.99204419086136,1,1,0,0A,1A,0.814579606386768,0.433935679569986,0.652438632949972,0.347561367050028,1,1,0.185420393613232,0.0244993445958478,0.5,0.192547295163157,0.860044190861362,3.64621140351716,3.54439862070365,0.5,0.0928178206222826,0.999034665914113,0.5,0.132128640860028,1.05540470259099,6.40465388300855,3.55479629950135,0.5,61.9123737756426
183,1,38,B,1,3,a,27,1,0.95,1B,3B,1,0,1,0,B13,0.325051185570258,3.27714473299218,0.839078950982616,0.433935679569986,0.5,0.433935679569986,0.376600348007731,0.786350371330405,0.5,0.433935679569986,0.5,0.5,0.78538316098388,0.5,0.5,0.433935679569986,0.5,0.706950310122588,1.90104419086136,1,1,0,1B,3B,0.786350371330405,0.433935679569986,0.644398393925911,0.355601606074088,1,1,0.213649628669595,0.0282292350563634,0.5,0.192547295163157,0.860044190861362,3.64621140351716,3.54439862070365,0.5,0.887654588507081,0.998607644822951,0.5,0.132128640860028,1.05540470259099,6.40465388300855,3.55479629950135,0.5,61.9123737756426
183,1,39,C,3,2,l,63,1,0.95,3C,2C,0,1,0,1,C32,2.91676345746341,2.60268968544438,0.839078950982616,0.433935679569986,0.5,0.433935679569986,0.376600348007731,0.814579606386768,0.5,0.433935679569986,0.5,0.5,0.78538316098388,0.5,0.5,0.433935679569986,0.5,0.706950310122588,1.39404419086136,0,0,1,2C,3C,0.78538316098388,0.5,0.61101093029935,0.38898906970065,1,1,0.21461683901612,0.0283570312448754,0.5,0.192547295163157,0.860044190861362,3.64621140351716,3.54439862070365,0.5,0.301541724037707,0.993664202914259,0.5,0.132128640860028,1.05540470259099,6.40465388300855,3.55479629950135,0.5,61.9123737756426
183,1,40,D,3,2,a,63,1,0.95,3D,2D,1,0,1,0,D32,1.02220732174543,2.62103882411258,0.839078950982616,0.433935679569986,0.5,0.433935679569986,0.376600348007731,0.814579606386768,0.5,0.433935679569986,0.5,0.5,0.813740192228755,0.5,0.5,0.433935679569986,0.5,0.706950310122588,2.44504419086136,1,1,0,3D,2D,0.706950310122588,0.5,0.585732738285459,0.414267261714541,1,1,0.293049689877412,0.0387202572279553,0.5,0.192547295163157,0.860044190861362,3.64621140351716,3.54439862070365,0.5,0.422852058762943,0.980147495548953,0.5,0.132128640860028,1.05540470259099,6.40465388300855,3.55479629950135,0.5,61.9123737756426
183,1,41,B,0,1,l,63,1,0.95,0B,1B,0,1,0,1,B01,0.314773402835216,2.63905732961526,0.839078950982616,0.433935679569986,0.5,0.433935679569986,0.376600348007731,0.814579606386768,0.5,0.433935679569986,0.5,0.5,0.813740192228755,0.5,0.5,0.433935679569986,0.5,0.745670567350543,1.70104419086136,0,0,1,1B,0B,0.814579606386768,0.376600348007731,0.683842607812214,0.316157392187786,1,1,0.185420393613232,0.0244993445958478,0.5,0.192547295163157,0.860044190861362,3.64621140351716,3.54439862070365,0.5,1.29756355795196,0.9997658826243,0.5,0.132128640860028,1.05540470259099,6.40465388300855,3.55479629950135,0.5,61.9123737756426
183,1,42,A,2,0,l,27,1,0.95,2A,0A,0,1,0,1,A20,2.78905957444508,3.3499040872746,0.839078950982616,0.433935679569986,0.5,0.433935679569986,0.376600348007731,0.839078950982616,0.5,0.433935679569986,0.5,0.5,0.813740192228755,0.5,0.5,0.433935679569986,0.5,0.745670567350543,2.60404419086136,0,0,1,0A,2A,0.839078950982616,0.5,0.62660902134777,0.37339097865223,1,1,0.160921049017384,0.021262279492437,0.5,0.192547295163157,0.860044190861362,3.64621140351716,3.54439862070365,0.5,0.309492167662138,0.996845729550656,0.5,0.132128640860028,1.05540470259099,6.40465388300855,3.55479629950135,0.5,61.9123737756426
183,1,43,D,3,0,a,9,1,0.95,3D,0D,1,0,1,0,D30,0.423932830210573,4.06044301054642,0.860341230475053,0.433935679569986,0.5,0.433935679569986,0.376600348007731,0.839078950982616,0.5,0.433935679569986,0.5,0.5,0.813740192228755,0.5,0.5,0.433935679569986,0.5,0.745670567350543,2.19504419086136,1,1,0,3D,0D,0.745670567350543,0.5,0.598609766414032,0.401390233585968,1,1,0.254329432649457,0.0336042022666749,0.5,0.192547295163157,0.860044190861362,3.64621140351716,3.54439862070365,0.5,0.554388520357898,0.98891739636871,0.5,0.132128640860028,1.05540470259099,6.40465388300855,3.55479629950135,0.5,61.9123737756426
183,1,44,C,3,2,l,63,1,0.95,3C,2C,0,1,0,1,C32,3.05168671145094,2.46809953147162,0.860341230475053,0.433935679569986,0.5,0.433935679569986,0.376600348007731,0.839078950982616,0.5,0.433935679569986,0.5,0.5,0.813740192228755,0.5,0.5,0.433935679569986,0.5,0.779274769617218,2.15204419086136,0,0,1,2C,3C,0.813740192228755,0.5,0.619407244326025,0.380592755673975,1,1,0.186259807771245,0.0246102552476647,0.5,0.192547295163157,0.860044190861362,3.64621140351716,3.54439862070365,0.5,0.614648111489607,0.995675119782998,0.5,0.132128640860028,1.05540470259099,6.40465388300855,3.55479629950135,0.5,61.9123737756426
