ID,session,trialNr,mod2Stim,visStimLeft,visStimRight,correctKey,frequency,rewardAccurate,probFB,stimPairLeft,stimPairRight,leftCorrect,rightCorrect,pCorrectLeft,pCorrectRight,triplet,rt,surprise,0A belief,1A belief,2A belief,3A belief,0B belief,1B belief,2B belief,3B belief,0C belief,1C belief,2C belief,3C belief,0D belief,1D belief,2D belief,3D belief,reactionTime,choice,choiceLeft,choiceRight,chosenPair,otherPair,beliefPair,beliefOtherPair,beliefPairNorm,beliefOtherPairNorm,choiceAccurate,reward,rewardPE,update2,sim_CBCsimpleRW_CBCdriftDiffusionLR_startBelief,sim_CBCsimpleRW_CBCdriftDiffusionLR_alpha1,sim_CBCsimpleRW_CBCdriftDiffusionLR_nonDecisionTime,sim_CBCsimpleRW_CBCdriftDiffusionLR_weight,sim_CBCsimpleRW_CBCdriftDiffusionLR_startingBoundary,sim_CBCsimpleRW_CBCdriftDiffusionLR_startingPoint,lik,corrLik,fitCBCsimpleRW_CBCdriftDiffusionLR_startBelief,fitCBCsimpleRW_CBCdriftDiffusionLR_alpha1,fitCBCsimpleRW_CBCdriftDiffusionLR_nonDecisionTime,fitCBCsimpleRW_CBCdriftDiffusionLR_weight,fitCBCsimpleRW_CBCdriftDiffusionLR_startingBoundary,fitCBCsimpleRW_CBCdriftDiffusionLR_startingPoint,fit_CBCsimpleRW_CBCdriftDiffusionLR_NLL
128,1,1,B,1,0,a,63,1,0.95,1B,0B,1,0,1,0,B10,1.69088578341873,2.77258872223978,0.5,0.5,0.5,0.5,0.5,0.5,0.5,0.5,0.5,0.5,0.5,0.5,0.5,0.5,0.5,0.5,5.04283432107284,0,0,1,0B,1B,0.5,0.5,0.5,0.5,0,0,-0.5,-0.438535262439398,0.5,0.943523559782194,1.03683432107284,9.36071432547037,4.80259114030202,0.5,0.0574100637116597,0.50008583022052,0.5,0.877070524878796,1.02291292486691,9.52317800572172,4.81672080622431,0.5,-11.9962632327528
128,1,2,D,3,2,a,63,1,0.95,3D,2D,1,0,1,0,D32,3.05630833502244,2.83321334405622,0.5,0.5,0.5,0.5,0.0614647375606019,0.5,0.5,0.5,0.5,0.5,0.5,0.5,0.5,0.5,0.5,0.5,8.27783432107284,0,0,1,2D,3D,0.5,0.5,0.5,0.5,0,0,-0.5,-0.438535262439398,0.5,0.943523559782194,1.03683432107284,9.36071432547037,4.80259114030202,0.5,0.0289947410184628,0.500975402915648,0.5,0.877070524878796,1.02291292486691,9.52317800572172,4.81672080622431,0.5,-11.9962632327528
128,1,3,B,3,1,l,27,1,0.95,3B,1B,0,1,0,1,B31,3.28978326826315,2.89037175789616,0.5,0.5,0.5,0.5,0.0614647375606019,0.5,0.5,0.5,0.5,0.5,0.5,0.5,0.5,0.5,0.0614647375606019,0.5,3.28883432107284,0,0,1,1B,3B,0.5,0.5,0.5,0.5,1,1,0.5,0.438535262439398,0.5,0.943523559782194,1.03683432107284,9.36071432547037,4.80259114030202,0.5,0.078715791150823,0.502520950364793,0.5,0.877070524878796,1.02291292486691,9.52317800572172,4.81672080622431,0.5,-11.9962632327528
128,1,4,C,2,3,a,63,1,0.95,2C,3C,1,0,1,0,C23,0.500391641510677,2.94443897916644,0.5,0.5,0.5,0.5,0.0614647375606019,0.938535262439398,0.5,0.5,0.5,0.5,0.5,0.5,0.5,0.5,0.0614647375606019,0.5,7.01983432107284,0,0,1,3C,2C,0.5,0.5,0.5,0.5,0,0,-0.5,-0.438535262439398,0.5,0.943523559782194,1.03683432107284,9.36071432547037,4.80259114030202,0.5,0.037782548975227,0.499601709083707,0.5,0.877070524878796,1.02291292486691,9.52317800572172,4.81672080622431,0.5,-11.9962632327528
128,1,5,C,0,2,l,27,1,0.95,0C,2C,0,1,0,1,C02,3.13291077995633,2.99573227355399,0.5,0.5,0.5,0.5,0.0614647375606019,0.938535262439398,0.5,0.5,0.5,0.5,0.5,0.0614647375606019,0.5,0.5,0.0614647375606019,0.5,8.06283432107284,1,1,0,0C,2C,0.5,0.5,0.5,0.5,0,0,-0.5,-0.438535262439398,0.5,0.943523559782194,1.03683432107284,9.36071432547037,4.80259114030202,0.5,0.0302653145474144,0.499556049619374,0.5,0.877070524878796,1.02291292486691,9.52317800572172,4.81672080622431,0.5,-11.9962632327528
128,1,6,A,0,3,a,9,1,0.95,0A,3A,1,0,1,0,A03,2.50878397714648,3.04452243772342,0.5,0.5,0.5,0.5,0.0614647375606019,0.938535262439398,0.5,0.5,0.0614647375606019,0.5,0.5,0.0614647375606019,0.5,0.5,0.0614647375606019,0.5,6.56283432107284,0,0,1,3A,0A,0.5,0.5,0.5,0.5,0,0,-0.5,-0.438535262439398,0.5,0.943523559782194,1.03683432107284,9.36071432547037,4.80259114030202,0.5,0.0417754534900323,0.501297390145743,0.5,0.877070524878796,1.02291292486691,9.52317800572172,4.81672080622431,0.5,-11.9962632327528
128,1,7,C,2,3,a,63,1,0.95,2C,3C,1,0,1,0,C23,3.08066987151331,2.39789527279837,0.5,0.5,0.5,0.0614647375606019,0.0614647375606019,0.938535262439398,0.5,0.5,0.0614647375606019,0.5,0.5,0.0614647375606019,0.5,0.5,0.0614647375606019,0.5,1.40883432107284,1,1,0,2C,3C,0.5,0.0614647375606019,0.890527875663843,0.109472124336157,1,1,0.5,0.438535262439398,0.5,0.943523559782194,1.03683432107284,9.36071432547037,4.80259114030202,0.5,3.03798882268494,1,0.5,0.877070524878796,1.02291292486691,9.52317800572172,4.81672080622431,0.5,-11.9962632327528
128,1,8,A,1,0,l,63,1,0.95,1A,0A,0,1,0,1,A10,0.182436325286796,3.13549421592915,0.5,0.5,0.5,0.0614647375606019,0.0614647375606019,0.938535262439398,0.5,0.5,0.0614647375606019,0.5,0.938535262439398,0.0614647375606019,0.5,0.5,0.0614647375606019,0.5,3.85683432107284,1,1,0,1A,0A,0.5,0.5,0.5,0.5,0,0,-0.5,-0.438535262439398,0.5,0.943523559782194,1.03683432107284,9.36071432547037,4.80259114030202,0.5,0.0724565747505074,0.500952497068064,0.5,0.877070524878796,1.02291292486691,9.52317800572172,4.81672080622431,0.5,-11.9962632327528
128,1,9,D,2,3,l,63,1,0.95,2D,3D,0,1,0,1,D23,2.25348048952118,3.17805383034795,0.5,0.0614647375606019,0.5,0.0614647375606019,0.0614647375606019,0.938535262439398,0.5,0.5,0.0614647375606019,0.5,0.938535262439398,0.0614647375606019,0.5,0.5,0.0614647375606019,0.5,1.29183432107284,0,0,1,3D,2D,0.5,0.0614647375606019,0.890527875663843,0.109472124336157,1,1,0.5,0.438535262439398,0.5,0.943523559782194,1.03683432107284,9.36071432547037,4.80259114030202,0.5,5.05313433595884,1,0.5,0.877070524878796,1.02291292486691,9.52317800572172,4.81672080622431,0.5,-11.9962632327528
128,1,10,C,3,2,l,63,1,0.95,3C,2C,0,1,0,1,C32,0.286812984745513,3.2188758248682,0.5,0.0614647375606019,0.5,0.0614647375606019,0.0614647375606019,0.938535262439398,0.5,0.5,0.0614647375606019,0.5,0.938535262439398,0.0614647375606019,0.5,0.5,0.0614647375606019,0.938535262439398,1.24483432107284,0,0,1,2C,3C,0.938535262439398,0.0614647375606019,0.938535262439398,0.0614647375606019,1,1,0.0614647375606019,0.0539089096338146,0.5,0.943523559782194,1.03683432107284,9.36071432547037,4.80259114030202,0.5,4.59489505329079,1,0.5,0.877070524878796,1.02291292486691,9.52317800572172,4.81672080622431,0.5,-11.9962632327528
128,1,11,D,3,1,a,27,1,0.95,3D,1D,1,0,1,0,D31,3.03785607038731,3.25809653802148,0.5,0.0614647375606019,0.5,0.0614647375606019,0.0614647375606019,0.938535262439398,0.5,0.5,0.0614647375606019,0.5,0.992444172073213,0.0614647375606019,0.5,0.5,0.0614647375606019,0.938535262439398,1.98983432107284,1,1,0,3D,1D,0.938535262439398,0.5,0.652424231052825,0.347575768947175,1,1,0.0614647375606019,0.0539089096338146,0.5,0.943523559782194,1.03683432107284,9.36071432547037,4.80259114030202,0.5,0.930984161107112,0.999999152260409,0.5,0.877070524878796,1.02291292486691,9.52317800572172,4.81672080622431,0.5,-11.9962632327528
128,1,12,A,0,1,a,63,0,0.95,0A,1A,1,0,0,1,A01,3.36626670220319,3.29583686600433,0.5,0.0614647375606019,0.5,0.0614647375606019,0.0614647375606019,0.938535262439398,0.5,0.5,0.0614647375606019,0.5,0.992444172073213,0.0614647375606019,0.5,0.5,0.0614647375606019,0.992444172073213,1.33483432107284,1,1,0,0A,1A,0.5,0.0614647375606019,0.890527875663843,0.109472124336157,1,0,-0.5,-0.438535262439398,0.5,0.943523559782194,1.03683432107284,9.36071432547037,4.80259114030202,0.5,5.44672467498242,1,0.5,0.877070524878796,1.02291292486691,9.52317800572172,4.81672080622431,0.5,-11.9962632327528
128,1,13,C,3,2,l,63,1,0.95,3C,2C,0,1,0,1,C32,2.42083611231097,2.63905732961526,0.0614647375606019,0.0614647375606019,0.5,0.0614647375606019,0.0614647375606019,0.938535262439398,0.5,0.5,0.0614647375606019,0.5,0.992444172073213,0.0614647375606019,0.5,0.5,0.0614647375606019,0.992444172073213,1.40083432107284,0,0,1,2C,3C,0.992444172073213,0.0614647375606019,0.941679269433297,0.0583207305667034,1,1,0.00755582792678733,0.00662699396564123,0.5,0.943523559782194,1.03683432107284,9.36071432547037,4.80259114030202,0.5,1.88691630157933,1,0.5,0.877070524878796,1.02291292486691,9.52317800572172,4.81672080622431,0.5,-11.9962632327528
128,1,14,A,2,0,l,27,1,0.95,2A,0A,0,1,0,1,A20,2.92575147591682,3.36729582998647,0.0614647375606019,0.0614647375606019,0.5,0.0614647375606019,0.0614647375606019,0.938535262439398,0.5,0.5,0.0614647375606019,0.5,0.999071166038854,0.0614647375606019,0.5,0.5,0.0614647375606019,0.992444172073213,1.34483432107284,1,1,0,2A,0A,0.5,0.0614647375606019,0.890527875663843,0.109472124336157,0,0,-0.5,-0.438535262439398,0.5,0.943523559782194,1.03683432107284,9.36071432547037,4.80259114030202,0.5,5.2586650180845,1,0.5,0.877070524878796,1.02291292486691,9.52317800572172,4.81672080622431,0.5,-11.9962632327528
128,1,15,B,1,0,a,63,1,0.95,1B,0B,1,0,1,0,B10,2.27309604318069,2.70805020110221,0.0614647375606019,0.0614647375606019,0.0614647375606019,0.0614647375606019,0.0614647375606019,0.938535262439398,0.5,0.5,0.0614647375606019,0.5,0.999071166038854,0.0614647375606019,0.5,0.5,0.0614647375606019,0.992444172073213,1.30283432107284,1,1,0,1B,0B,0.938535262439398,0.0614647375606019,0.938535262439398,0.0614647375606019,1,1,0.0614647375606019,0.0539089096338146,0.5,0.943523559782194,1.03683432107284,9.36071432547037,4.80259114030202,0.5,6.43037935190231,1,0.5,0.877070524878796,1.02291292486691,9.52317800572172,4.81672080622431,0.5,-11.9962632327528
128,1,16,D,2,3,l,63,1,0.95,2D,3D,0,1,0,1,D23,0.724093742761085,2.7408400239252,0.0614647375606019,0.0614647375606019,0.0614647375606019,0.0614647375606019,0.0614647375606019,0.992444172073213,0.5,0.5,0.0614647375606019,0.5,0.999071166038854,0.0614647375606019,0.5,0.5,0.0614647375606019,0.992444172073213,1.35583432107284,0,0,1,3D,2D,0.992444172073213,0.0614647375606019,0.941679269433297,0.0583207305667034,1,1,0.00755582792678733,0.00662699396564123,0.5,0.943523559782194,1.03683432107284,9.36071432547037,4.80259114030202,0.5,3.96903266355277,1,0.5,0.877070524878796,1.02291292486691,9.52317800572172,4.81672080622431,0.5,-11.9962632327528
128,1,17,B,2,1,l,9,1,0.95,2B,1B,0,1,0,1,B21,2.34301233513109,3.46573590279973,0.0614647375606019,0.0614647375606019,0.0614647375606019,0.0614647375606019,0.0614647375606019,0.992444172073213,0.5,0.5,0.0614647375606019,0.5,0.999071166038854,0.0614647375606019,0.5,0.5,0.0614647375606019,0.999071166038854,1.93483432107284,0,0,1,1B,2B,0.992444172073213,0.5,0.664979093117145,0.335020906882855,1,1,0.00755582792678733,0.00662699396564123,0.5,0.943523559782194,1.03683432107284,9.36071432547037,4.80259114030202,0.5,0.983882710179039,0.999999732778884,0.5,0.877070524878796,1.02291292486691,9.52317800572172,4.81672080622431,0.5,-11.9962632327528
128,1,18,D,3,1,a,27,1,0.95,3D,1D,1,0,1,0,D31,3.08774122441448,2.80336038090653,0.0614647375606019,0.0614647375606019,0.0614647375606019,0.0614647375606019,0.0614647375606019,0.999071166038854,0.5,0.5,0.0614647375606019,0.5,0.999071166038854,0.0614647375606019,0.5,0.5,0.0614647375606019,0.999071166038854,2.12783432107284,1,1,0,3D,1D,0.999071166038854,0.5,0.666460131228326,0.333539868771674,1,1,0.000928833961146069,0.000814652889827635,0.5,0.943523559782194,1.03683432107284,9.36071432547037,4.80259114030202,0.5,0.481733792011455,0.999999765090722,0.5,0.877070524878796,1.02291292486691,9.52317800572172,4.81672080622431,0.5,-11.9962632327528
128,1,19,A,1,0,l,63,1,0.95,1A,0A,0,1,0,1,A10,0.864137982169574,2.83321334405622,0.0614647375606019,0.0614647375606019,0.0614647375606019,0.0614647375606019,0.0614647375606019,0.999071166038854,0.5,0.5,0.0614647375606019,0.5,0.999071166038854,0.0614647375606019,0.5,0.5,0.0614647375606019,0.999885818928682,3.20683432107284,0,0,1,0A,1A,0.0614647375606019,0.0614647375606019,0.5,0.5,1,1,0.938535262439398,0.823161615244982,0.5,0.943523559782194,1.03683432107284,9.36071432547037,4.80259114030202,0.5,0.0786417641105015,0.498415183307513,0.5,0.877070524878796,1.02291292486691,9.52317800572172,4.81672080622431,0.5,-11.9962632327528
128,1,20,A,0,1,a,63,1,0.95,0A,1A,1,0,1,0,A01,1.7303684599222,2.86220088092947,0.884626352805584,0.0614647375606019,0.0614647375606019,0.0614647375606019,0.0614647375606019,0.999071166038854,0.5,0.5,0.0614647375606019,0.5,0.999071166038854,0.0614647375606019,0.5,0.5,0.0614647375606019,0.999885818928682,1.33583432107284,1,1,0,0A,1A,0.884626352805584,0.0614647375606019,0.935032960159458,0.0649670398405421,1,1,0.115373647194416,0.101190825301988,0.5,0.943523559782194,1.03683432107284,9.36071432547037,4.80259114030202,0.5,5.19860428636135,1,0.5,0.877070524878796,1.02291292486691,9.52317800572172,4.81672080622431,0.5,-11.9962632327528
128,1,21,C,0,2,l,27,1,0.95,0C,2C,0,1,0,1,C02,2.53407687354082,2.89037175789616,0.985817178107571,0.0614647375606019,0.0614647375606019,0.0614647375606019,0.0614647375606019,0.999071166038854,0.5,0.5,0.0614647375606019,0.5,0.999071166038854,0.0614647375606019,0.5,0.5,0.0614647375606019,0.999885818928682,1.31083432107284,0,0,1,2C,0C,0.999071166038854,0.0614647375606019,0.942043699461762,0.057956300538238,1,1,0.000928833961146069,0.000814652889827635,0.5,0.943523559782194,1.03683432107284,9.36071432547037,4.80259114030202,0.5,6.21637540242148,1,0.5,0.877070524878796,1.02291292486691,9.52317800572172,4.81672080622431,0.5,-11.9962632327528
128,1,22,B,1,0,a,63,1,0.95,1B,0B,1,0,1,0,B10,0.124137385901212,2.51230562397611,0.985817178107571,0.0614647375606019,0.0614647375606019,0.0614647375606019,0.0614647375606019,0.999071166038854,0.5,0.5,0.0614647375606019,0.5,0.999885818928682,0.0614647375606019,0.5,0.5,0.0614647375606019,0.999885818928682,1.20783432107284,1,1,0,1B,0B,0.999071166038854,0.0614647375606019,0.942043699461762,0.057956300538238,1,1,0.000928833961146069,0.000814652889827635,0.5,0.943523559782194,1.03683432107284,9.36071432547037,4.80259114030202,0.5,1.70181407654283,1,0.5,0.877070524878796,1.02291292486691,9.52317800572172,4.81672080622431,0.5,-11.9962632327528
128,1,23,C,0,2,l,27,1,0.95,0C,2C,0,1,0,1,C02,2.46523481315108,2.53897387105828,0.985817178107571,0.0614647375606019,0.0614647375606019,0.0614647375606019,0.0614647375606019,0.999885818928682,0.5,0.5,0.0614647375606019,0.5,0.999885818928682,0.0614647375606019,0.5,0.5,0.0614647375606019,0.999885818928682,1.38383432107284,0,0,1,2C,0C,0.999885818928682,0.0614647375606019,0.942088184544875,0.0579118154551253,1,1,0.000114181071318442,0.000100144852152489,0.5,0.943523559782194,1.03683432107284,9.36071432547037,4.80259114030202,0.5,2.55448442535012,1,0.5,0.877070524878796,1.02291292486691,9.52317800572172,4.81672080622431,0.5,-11.9962632327528
128,1,24,D,2,3,l,63,1,0.95,2D,3D,0,1,0,1,D23,3.4618418045839,2.56494935746154,0.985817178107571,0.0614647375606019,0.0614647375606019,0.0614647375606019,0.0614647375606019,0.999885818928682,0.5,0.5,0.0614647375606019,0.5,0.999985963780834,0.0614647375606019,0.5,0.5,0.0614647375606019,0.999885818928682,1.20583432107284,0,0,1,3D,2D,0.999885818928682,0.0614647375606019,0.942088184544875,0.0579118154551253,1,1,0.000114181071318442,0.000100144852152489,0.5,0.943523559782194,1.03683432107284,9.36071432547037,4.80259114030202,0.5,1.56662154753648,1,0.5,0.877070524878796,1.02291292486691,9.52317800572172,4.81672080622431,0.5,-11.9962632327528
128,1,25,A,0,1,a,63,1,0.95,0A,1A,1,0,1,0,A01,0.350461266065262,2.59026716544583,0.985817178107571,0.0614647375606019,0.0614647375606019,0.0614647375606019,0.0614647375606019,0.999885818928682,0.5,0.5,0.0614647375606019,0.5,0.999985963780834,0.0614647375606019,0.5,0.5,0.0614647375606019,0.999985963780834,1.32683432107284,1,1,0,0A,1A,0.985817178107571,0.0614647375606019,0.941310227321755,0.0586897726782449,1,1,0.0141828218924286,0.0124393350414548,0.5,0.943523559782194,1.03683432107284,9.36071432547037,4.80259114030202,0.5,5.53504147221817,1,0.5,0.877070524878796,1.02291292486691,9.52317800572172,4.81672080622431,0.5,-11.9962632327528
128,1,26,C,2,3,a,63,1,0.95,2C,3C,1,0,1,0,C23,3.16996398352341,2.6149597780362,0.998256513149026,0.0614647375606019,0.0614647375606019,0.0614647375606019,0.0614647375606019,0.999885818928682,0.5,0.5,0.0614647375606019,0.5,0.999985963780834,0.0614647375606019,0.5,0.5,0.0614647375606019,0.999985963780834,1.27283432107284,1,1,0,2C,3C,0.999985963780834,0.0614647375606019,0.942093648359812,0.0579063516401885,1,1,1.40362191659582e-05,1.23107541112008e-05,0.5,0.943523559782194,1.03683432107284,9.36071432547037,4.80259114030202,0.5,6.38682809921301,1,0.5,0.877070524878796,1.02291292486691,9.52317800572172,4.81672080622431,0.5,-11.9962632327528
128,1,27,A,0,2,a,27,1,0.95,0A,2A,1,0,1,0,A02,0.820198439579054,3.73766961828337,0.998256513149026,0.0614647375606019,0.0614647375606019,0.0614647375606019,0.0614647375606019,0.999885818928682,0.5,0.5,0.0614647375606019,0.5,0.999998274534945,0.0614647375606019,0.5,0.5,0.0614647375606019,0.999985963780834,1.22683432107284,1,1,0,0A,2A,0.998256513149026,0.0614647375606019,0.941999145983491,0.0580008540165094,1,1,0.00174348685097381,0.00152916092750288,0.5,0.943523559782194,1.03683432107284,9.36071432547037,4.80259114030202,0.5,3.22879596474753,1,0.5,0.877070524878796,1.02291292486691,9.52317800572172,4.81672080622431,0.5,-11.9962632327528
128,1,28,D,2,3,l,63,1,0.95,2D,3D,0,1,0,1,D23,1.17379960321598,2.37490575457367,0.999785674076529,0.0614647375606019,0.0614647375606019,0.0614647375606019,0.0614647375606019,0.999885818928682,0.5,0.5,0.0614647375606019,0.5,0.999998274534945,0.0614647375606019,0.5,0.5,0.0614647375606019,0.999985963780834,1.35783432107284,0,0,1,3D,2D,0.999985963780834,0.0614647375606019,0.942093648359812,0.0579063516401885,1,1,1.40362191659582e-05,1.23107541112008e-05,0.5,0.943523559782194,1.03683432107284,9.36071432547037,4.80259114030202,0.5,3.8497121446585,1,0.5,0.877070524878796,1.02291292486691,9.52317800572172,4.81672080622431,0.5,-11.9962632327528
128,1,29,D,2,3,l,63,1,0.95,2D,3D,0,1,0,1,D23,1.30946183473433,2.17475172148416,0.999785674076529,0.0614647375606019,0.0614647375606019,0.0614647375606019,0.0614647375606019,0.999885818928682,0.5,0.5,0.0614647375606019,0.5,0.999998274534945,0.0614647375606019,0.5,0.5,0.0614647375606019,0.999998274534945,1.34483432107284,0,0,1,3D,2D,0.999998274534945,0.0614647375606019,0.942094319952555,0.0579056800474449,1,1,1.72546505472493e-06,1.51335454120761e-06,0.5,0.943523559782194,1.03683432107284,9.36071432547037,4.80259114030202,0.5,4.56532380158984,1,0.5,0.877070524878796,1.02291292486691,9.52317800572172,4.81672080622431,0.5,-11.9962632327528
128,1,30,B,1,3,a,27,1,0.95,1B,3B,1,0,1,0,B13,2.18138779638916,3.80666248977032,0.999785674076529,0.0614647375606019,0.0614647375606019,0.0614647375606019,0.0614647375606019,0.999885818928682,0.5,0.5,0.0614647375606019,0.5,0.999998274534945,0.0614647375606019,0.5,0.5,0.0614647375606019,0.999999787889487,1.65783432107284,1,1,0,1B,3B,0.999885818928682,0.5,0.666641291163661,0.333358708836339,1,1,0.000114181071318442,0.000100144852152489,0.5,0.943523559782194,1.03683432107284,9.36071432547037,4.80259114030202,0.5,1.68089220503292,0.999999769691845,0.5,0.877070524878796,1.02291292486691,9.52317800572172,4.81672080622431,0.5,-11.9962632327528
128,1,31,D,3,0,a,9,1,0.95,3D,0D,1,0,1,0,D30,3.35878452947742,3.8286413964891,0.999785674076529,0.0614647375606019,0.0614647375606019,0.0614647375606019,0.0614647375606019,0.999985963780834,0.5,0.5,0.0614647375606019,0.5,0.999998274534945,0.0614647375606019,0.5,0.5,0.0614647375606019,0.999999787889487,2.26883432107284,1,1,0,3D,0D,0.999999787889487,0.5,0.66666661953099,0.33333338046901,1,1,2.12110513486685e-07,1.86035879396078e-07,0.5,0.943523559782194,1.03683432107284,9.36071432547037,4.80259114030202,0.5,0.26502656935888,0.999999769779863,0.5,0.877070524878796,1.02291292486691,9.52317800572172,4.81672080622431,0.5,-11.9962632327528
128,1,32,B,0,1,l,63,1,0.95,0B,1B,0,1,0,1,B01,3.21274570680712,3.85014760171006,0.999785674076529,0.0614647375606019,0.0614647375606019,0.0614647375606019,0.0614647375606019,0.999985963780834,0.5,0.5,0.0614647375606019,0.5,0.999998274534945,0.0614647375606019,0.5,0.5,0.0614647375606019,0.999999973925366,1.38183432107284,0,0,1,1B,0B,0.999985963780834,0.0614647375606019,0.942093648359812,0.0579063516401885,1,1,1.40362191659582e-05,1.23107541112008e-05,0.5,0.943523559782194,1.03683432107284,9.36071432547037,4.80259114030202,0.5,2.64088789375989,1,0.5,0.877070524878796,1.02291292486691,9.52317800572172,4.81672080622431,0.5,-11.9962632327528
128,1,33,A,0,1,a,63,1,0.95,0A,1A,1,0,1,0,A01,1.43435699642593,2.484906649788,0.999785674076529,0.0614647375606019,0.0614647375606019,0.0614647375606019,0.0614647375606019,0.999998274534945,0.5,0.5,0.0614647375606019,0.5,0.999998274534945,0.0614647375606019,0.5,0.5,0.0614647375606019,0.999999973925366,1.31283432107284,1,1,0,0A,1A,0.999785674076529,0.0614647375606019,0.942082719698753,0.0579172803012474,1,1,0.000214325923470926,0.000187978950193778,0.5,0.943523559782194,1.03683432107284,9.36071432547037,4.80259114030202,0.5,6.14313870652876,1,0.5,0.877070524878796,1.02291292486691,9.52317800572172,4.81672080622431,0.5,-11.9962632327528
128,1,34,B,0,1,l,63,1,0.95,0B,1B,0,1,0,1,B01,3.36435659621508,3.19867311755068,0.999973653026723,0.0614647375606019,0.0614647375606019,0.0614647375606019,0.0614647375606019,0.999998274534945,0.5,0.5,0.0614647375606019,0.5,0.999998274534945,0.0614647375606019,0.5,0.5,0.0614647375606019,0.999999973925366,1.32683432107284,0,0,1,1B,0B,0.999998274534945,0.0614647375606019,0.942094319952555,0.0579056800474449,1,1,1.72546505472493e-06,1.51335454120761e-06,0.5,0.943523559782194,1.03683432107284,9.36071432547037,4.80259114030202,0.5,5.52458535979018,1,0.5,0.877070524878796,1.02291292486691,9.52317800572172,4.81672080622431,0.5,-11.9962632327528
128,1,35,C,2,3,a,63,1,0.95,2C,3C,1,0,1,0,C23,2.80956407933114,2.52572864430826,0.999973653026723,0.0614647375606019,0.0614647375606019,0.0614647375606019,0.0614647375606019,0.999999787889487,0.5,0.5,0.0614647375606019,0.5,0.999998274534945,0.0614647375606019,0.5,0.5,0.0614647375606019,0.999999973925366,1.27883432107284,1,1,0,2C,3C,0.999998274534945,0.0614647375606019,0.942094319952555,0.0579056800474449,1,1,1.72546505472493e-06,1.51335454120761e-06,0.5,0.943523559782194,1.03683432107284,9.36071432547037,4.80259114030202,0.5,6.54659426520128,1,0.5,0.877070524878796,1.02291292486691,9.52317800572172,4.81672080622431,0.5,-11.9962632327528
128,1,36,A,2,0,l,27,1,0.95,2A,0A,0,1,0,1,A20,1.23443073370898,3.23867845216438,0.999973653026723,0.0614647375606019,0.0614647375606019,0.0614647375606019,0.0614647375606019,0.999999787889487,0.5,0.5,0.0614647375606019,0.5,0.999999787889487,0.0614647375606019,0.5,0.5,0.0614647375606019,0.999999973925366,1.27483432107284,0,0,1,0A,2A,0.999973653026723,0.0614647375606019,0.94209297675149,0.0579070232485106,1,1,2.63469732771915e-05,2.3108153681194e-05,0.5,0.943523559782194,1.03683432107284,9.36071432547037,4.80259114030202,0.5,6.44952327390484,1,0.5,0.877070524878796,1.02291292486691,9.52317800572172,4.81672080622431,0.5,-11.9962632327528
128,1,37,B,0,1,l,63,1,0.95,0B,1B,0,1,0,1,B01,0.993443434967623,2.85263142991332,0.999996761180404,0.0614647375606019,0.0614647375606019,0.0614647375606019,0.0614647375606019,0.999999787889487,0.5,0.5,0.0614647375606019,0.5,0.999999787889487,0.0614647375606019,0.5,0.5,0.0614647375606019,0.999999973925366,1.44683432107284,0,0,1,1B,0B,0.999999787889487,0.0614647375606019,0.942094402510023,0.0579055974899767,1,1,2.12110513486685e-07,1.86035879396078e-07,0.5,0.943523559782194,1.03683432107284,9.36071432547037,4.80259114030202,0.5,0.710293249415669,1,0.5,0.877070524878796,1.02291292486691,9.52317800572172,4.81672080622431,0.5,-11.9962632327528
128,1,38,B,1,3,a,27,1,0.95,1B,3B,1,0,1,0,B13,2.83643968160779,3.27714473299218,0.999996761180404,0.0614647375606019,0.0614647375606019,0.0614647375606019,0.0614647375606019,0.999999973925366,0.5,0.5,0.0614647375606019,0.5,0.999999787889487,0.0614647375606019,0.5,0.5,0.0614647375606019,0.999999973925366,1.65983432107284,1,1,0,1B,3B,0.999999973925366,0.5,0.666666660872303,0.333333339127697,1,1,2.60746341185225e-08,2.28692930323551e-08,0.5,0.943523559782194,1.03683432107284,9.36071432547037,4.80259114030202,0.5,1.68096135248663,0.999999771075897,0.5,0.877070524878796,1.02291292486691,9.52317800572172,4.81672080622431,0.5,-11.9962632327528
128,1,39,C,2,3,a,63,1,0.95,2C,3C,1,0,1,0,C23,0.716391100437938,2.37954613413017,0.999996761180404,0.0614647375606019,0.0614647375606019,0.0614647375606019,0.0614647375606019,0.999999996794659,0.5,0.5,0.0614647375606019,0.5,0.999999787889487,0.0614647375606019,0.5,0.5,0.0614647375606019,0.999999973925366,1.28883432107284,1,1,0,2C,3C,0.999999787889487,0.0614647375606019,0.942094402510023,0.0579055974899767,1,1,2.12110513486685e-07,1.86035879396078e-07,0.5,0.943523559782194,1.03683432107284,9.36071432547037,4.80259114030202,0.5,6.63900112745808,1,0.5,0.877070524878796,1.02291292486691,9.52317800572172,4.81672080622431,0.5,-11.9962632327528
128,1,40,D,1,3,l,27,1,0.95,1D,3D,0,1,0,1,D13,3.43170494543576,4.00733318523247,0.999996761180404,0.0614647375606019,0.0614647375606019,0.0614647375606019,0.0614647375606019,0.999999996794659,0.5,0.5,0.0614647375606019,0.5,0.999999973925366,0.0614647375606019,0.5,0.5,0.0614647375606019,0.999999973925366,1.97283432107284,0,0,1,3D,1D,0.999999973925366,0.5,0.666666660872303,0.333333339127697,1,1,2.60746341185225e-08,2.28692930323551e-08,0.5,0.943523559782194,1.03683432107284,9.36071432547037,4.80259114030202,0.5,0.854277791626064,0.999999772216501,0.5,0.877070524878796,1.02291292486691,9.52317800572172,4.81672080622431,0.5,-11.9962632327528
128,1,41,C,2,1,a,9,1,0.95,2C,1C,1,0,1,0,C21,0.778324838852243,4.02535169073515,0.999996761180404,0.0614647375606019,0.0614647375606019,0.0614647375606019,0.0614647375606019,0.999999996794659,0.5,0.5,0.0614647375606019,0.5,0.999999973925366,0.0614647375606019,0.5,0.5,0.0614647375606019,0.999999996794659,1.42683432107284,1,1,0,2C,1C,0.999999973925366,0.5,0.666666660872303,0.333333339127697,1,1,2.60746341185225e-08,2.28692930323551e-08,0.5,0.943523559782194,1.03683432107284,9.36071432547037,4.80259114030202,0.5,0.776396175598486,0.999999768177129,0.5,0.877070524878796,1.02291292486691,9.52317800572172,4.81672080622431,0.5,-11.9962632327528
128,1,42,B,1,0,a,63,0,0.95,1B,0B,1,0,0,1,B10,1.0982467144392,2.65675690671466,0.999996761180404,0.0614647375606019,0.0614647375606019,0.0614647375606019,0.0614647375606019,0.999999996794659,0.5,0.5,0.0614647375606019,0.5,0.999999996794659,0.0614647375606019,0.5,0.5,0.0614647375606019,0.999999996794659,1.29683432107284,1,1,0,1B,0B,0.999999996794659,0.0614647375606019,0.942094413906331,0.0579055860936689,1,0,-0.999999996794659,-0.877070522067486,0.5,0.943523559782194,1.03683432107284,9.36071432547037,4.80259114030202,0.5,6.57632097424483,1,0.5,0.877070524878796,1.02291292486691,9.52317800572172,4.81672080622431,0.5,-11.9962632327528
128,1,43,D,2,3,l,63,1,0.95,2D,3D,0,1,0,1,D23,2.65590602274369,2.26868354131836,0.999996761180404,0.0614647375606019,0.0614647375606019,0.0614647375606019,0.0614647375606019,0.122929474727173,0.5,0.5,0.0614647375606019,0.5,0.999999996794659,0.0614647375606019,0.5,0.5,0.0614647375606019,0.999999996794659,1.36583432107284,0,0,1,3D,2D,0.999999996794659,0.0614647375606019,0.942094413906331,0.0579055860936689,1,1,3.20534110365145e-09,2.81131020419516e-09,0.5,0.943523559782194,1.03683432107284,9.36071432547037,4.80259114030202,0.5,3.42474348791131,1,0.5,0.877070524878796,1.02291292486691,9.52317800572172,4.81672080622431,0.5,-11.9962632327528
128,1,44,A,1,0,l,63,1,0.95,1A,0A,0,1,0,1,A10,2.00541494104547,2.97892515523761,0.999996761180404,0.0614647375606019,0.0614647375606019,0.0614647375606019,0.0614647375606019,0.122929474727173,0.5,0.5,0.0614647375606019,0.5,0.999999996794659,0.0614647375606019,0.5,0.5,0.0614647375606019,0.999999999605969,1.19983432107284,0,0,1,0A,1A,0.999996761180404,0.0614647375606019,0.942094237394852,0.0579057626051486,1,1,3.23881959596317e-06,2.84067320301915e-06,0.5,0.943523559782194,1.03683432107284,9.36071432547037,4.80259114030202,0.5,1.18718873703799,1,0.5,0.877070524878796,1.02291292486691,9.52317800572172,4.81672080622431,0.5,-11.9962632327528
