ID,filename,session,trial,visStimLeft,visStimRight,correctKey,leftCorrect,rightCorrect,secondStim,mod2Type,mod2Stim,frequency,rewardAccurate,stimPairLeft,stimPairRight,pCorrectLeft,pCorrectRight,key,reactionTime,choiceLeft,choiceRight,choiceAccurate,reward,chosenPair,otherPair,triplet,surprise,0A belief,1A belief,2A belief,3A belief,0B belief,1B belief,2B belief,3B belief,0C belief,1C belief,2C belief,3C belief,0D belief,1D belief,2D belief,3D belief,beliefPairNorm,beliefOtherPairNorm,beliefPair,beliefOtherPair,lik,corrLik,rewardPE,update2,fitCBCsimpleRW_CBCdriftDiffusionLR_startBelief,fitCBCsimpleRW_CBCdriftDiffusionLR_alpha1,fitCBCsimpleRW_CBCdriftDiffusionLR_nonDecisionTime,fitCBCsimpleRW_CBCdriftDiffusionLR_weight,fitCBCsimpleRW_CBCdriftDiffusionLR_startingBoundary,fitCBCsimpleRW_CBCdriftDiffusionLR_startingPoint,fit_CBCsimpleRW_CBCdriftDiffusionLR_NLL
CBC_1026,CBC_1026_MSI_TV_v3_Vset6_Tset1_2023-07-20_11h47.13.772.csv,1,1,2,0,b,1,0,3,tac,C,27,1,2C,0C,1,0,z,2.81258230000003,0,1,0,0,0C,2C,C20,2.77258872223978,0.5,0.5,0.5,0.5,0.5,0.5,0.5,0.5,0.5,0.5,0.5,0.5,0.5,0.5,0.5,0.5,0.5,0.5,0.5,0.5,0.134785448797524,0.500103008923714,-0.5,-0.00128107440686454,0.5,0.00256214881372907,1.07956263561608,0.108776430484198,3.0011772028269,0.5,86.6132020507911
CBC_1026,CBC_1026_MSI_TV_v3_Vset6_Tset1_2023-07-20_11h47.13.772.csv,1,2,3,2,b,1,0,2,tac,D,63,1,3D,2D,1,0,z,3.51269599999978,0,1,0,0,2D,3D,D32,2.83321334405622,0.5,0.5,0.5,0.5,0.5,0.5,0.5,0.5,0.498718925593135,0.5,0.5,0.5,0.5,0.5,0.5,0.5,0.5,0.5,0.5,0.5,0.0921424252580905,0.501000015719828,-0.5,-0.00128107440686454,0.5,0.00256214881372907,1.07956263561608,0.108776430484198,3.0011772028269,0.5,86.6132020507911
CBC_1026,CBC_1026_MSI_TV_v3_Vset6_Tset1_2023-07-20_11h47.13.772.csv,1,3,1,0,z,0,1,0,tac,A,63,1,1A,0A,0,1,b,3.11569829999917,1,0,0,0,1A,0A,A10,2.89037175789616,0.5,0.5,0.5,0.5,0.5,0.5,0.5,0.5,0.498718925593135,0.5,0.5,0.5,0.5,0.5,0.498718925593135,0.5,0.5,0.5,0.5,0.5,0.114495743060427,0.501011771468869,-0.5,-0.00128107440686454,0.5,0.00256214881372907,1.07956263561608,0.108776430484198,3.0011772028269,0.5,86.6132020507911
CBC_1026,CBC_1026_MSI_TV_v3_Vset6_Tset1_2023-07-20_11h47.13.772.csv,1,4,2,3,b,1,0,3,tac,C,63,1,2C,3C,1,0,b,2.5440865999999,1,0,1,1,2C,3C,C23,2.94443897916644,0.5,0.498718925593135,0.5,0.5,0.5,0.5,0.5,0.5,0.498718925593135,0.5,0.5,0.5,0.5,0.5,0.498718925593135,0.5,0.5,0.5,0.5,0.5,0.155418247137149,0.499465998451558,0.5,0.00128107440686454,0.5,0.00256214881372907,1.07956263561608,0.108776430484198,3.0011772028269,0.5,86.6132020507911
CBC_1026,CBC_1026_MSI_TV_v3_Vset6_Tset1_2023-07-20_11h47.13.772.csv,1,5,0,2,b,1,0,0,tac,A,27,1,0A,2A,1,0,b,3.45399779999934,1,0,1,1,0A,2A,A02,2.99573227355399,0.5,0.498718925593135,0.5,0.5,0.5,0.5,0.5,0.5,0.498718925593135,0.5,0.501281074406865,0.5,0.5,0.5,0.498718925593135,0.5,0.5,0.5,0.5,0.5,0.0950795073373118,0.500618788277668,0.5,0.00128107440686454,0.5,0.00256214881372907,1.07956263561608,0.108776430484198,3.0011772028269,0.5,86.6132020507911
CBC_1026,CBC_1026_MSI_TV_v3_Vset6_Tset1_2023-07-20_11h47.13.772.csv,1,6,2,3,z,0,1,2,tac,D,63,1,2D,3D,0,1,z,3.88617089999934,0,1,1,1,3D,2D,D23,3.04452243772342,0.501281074406865,0.498718925593135,0.5,0.5,0.5,0.5,0.5,0.5,0.498718925593135,0.5,0.501281074406865,0.5,0.5,0.5,0.498718925593135,0.5,0.500641358831817,0.499358641168183,0.5,0.498718925593135,0.0750096714675693,0.500421680602512,0.5,0.00128107440686454,0.5,0.00256214881372907,1.07956263561608,0.108776430484198,3.0011772028269,0.5,86.6132020507911
CBC_1026,CBC_1026_MSI_TV_v3_Vset6_Tset1_2023-07-20_11h47.13.772.csv,1,7,3,2,b,1,0,2,tac,D,63,1,3D,2D,1,0,b,2.69306169999982,1,0,1,1,3D,2D,D32,2.39789527279837,0.501281074406865,0.498718925593135,0.5,0.5,0.5,0.5,0.5,0.5,0.498718925593135,0.5,0.501281074406865,0.5,0.5,0.5,0.498718925593135,0.501281074406865,0.501281074406865,0.498718925593135,0.501281074406865,0.498718925593135,0.143733311716094,0.500019159548486,0.498718925593135,0.00127779210359269,0.5,0.00256214881372907,1.07956263561608,0.108776430484198,3.0011772028269,0.5,86.6132020507911
CBC_1026,CBC_1026_MSI_TV_v3_Vset6_Tset1_2023-07-20_11h47.13.772.csv,1,8,3,1,z,0,1,1,tac,B,27,1,3B,1B,0,1,z,2.64373950000027,0,1,1,1,1B,3B,B31,3.13549421592915,0.501281074406865,0.498718925593135,0.5,0.5,0.5,0.5,0.5,0.5,0.498718925593135,0.5,0.501281074406865,0.5,0.5,0.5,0.498718925593135,0.502558866510457,0.5,0.5,0.5,0.5,0.147470564637749,0.499650420827107,0.5,0.00128107440686454,0.5,0.00256214881372907,1.07956263561608,0.108776430484198,3.0011772028269,0.5,86.6132020507911
CBC_1026,CBC_1026_MSI_TV_v3_Vset6_Tset1_2023-07-20_11h47.13.772.csv,1,9,0,3,z,0,1,2,tac,D,9,1,0D,3D,0,1,z,2.66623359999994,0,1,1,1,3D,0D,D03,3.17805383034795,0.501281074406865,0.498718925593135,0.5,0.5,0.5,0.501281074406865,0.5,0.5,0.498718925593135,0.5,0.501281074406865,0.5,0.5,0.5,0.498718925593135,0.502558866510457,0.501276167712408,0.498723832287592,0.502558866510457,0.5,0.145978929423263,0.50058069012962,0.497441133489543,0.00127451821007028,0.5,0.00256214881372907,1.07956263561608,0.108776430484198,3.0011772028269,0.5,86.6132020507911
CBC_1026,CBC_1026_MSI_TV_v3_Vset6_Tset1_2023-07-20_11h47.13.772.csv,1,10,1,0,b,1,0,1,tac,B,63,1,1B,0B,1,0,b,2.92802389999997,1,0,1,1,1B,0B,B10,3.2188758248682,0.501281074406865,0.498718925593135,0.5,0.5,0.5,0.501281074406865,0.5,0.5,0.498718925593135,0.5,0.501281074406865,0.5,0.5,0.5,0.498718925593135,0.503833384720528,0.500639717677488,0.499360282322512,0.501281074406865,0.5,0.126747441714877,0.500683968455075,0.498718925593135,0.00127779210359269,0.5,0.00256214881372907,1.07956263561608,0.108776430484198,3.0011772028269,0.5,86.6132020507911
CBC_1026,CBC_1026_MSI_TV_v3_Vset6_Tset1_2023-07-20_11h47.13.772.csv,1,11,1,0,z,0,1,0,tac,A,63,1,1A,0A,0,1,b,2.79774429999998,1,0,0,0,1A,0A,A10,2.56494935746154,0.501281074406865,0.498718925593135,0.5,0.5,0.5,0.502558866510457,0.5,0.5,0.498718925593135,0.5,0.501281074406865,0.5,0.5,0.5,0.498718925593135,0.503833384720528,0.498718925593135,0.501281074406865,0.498718925593135,0.501281074406865,0.135940648826146,0.500356164486276,-0.498718925593135,-0.00127779210359269,0.5,0.00256214881372907,1.07956263561608,0.108776430484198,3.0011772028269,0.5,86.6132020507911
CBC_1026,CBC_1026_MSI_TV_v3_Vset6_Tset1_2023-07-20_11h47.13.772.csv,1,12,0,1,z,0,1,1,tac,B,63,1,0B,1B,0,1,z,2.87269439999909,0,1,1,1,1B,0B,B01,3.29583686600433,0.501281074406865,0.497441133489543,0.5,0.5,0.5,0.502558866510457,0.5,0.5,0.498718925593135,0.5,0.501281074406865,0.5,0.5,0.5,0.498718925593135,0.503833384720528,0.501276167712408,0.498723832287592,0.502558866510457,0.5,0.130837867831831,0.501534530028104,0.497441133489543,0.00127451821007028,0.5,0.00256214881372907,1.07956263561608,0.108776430484198,3.0011772028269,0.5,86.6132020507911
CBC_1026,CBC_1026_MSI_TV_v3_Vset6_Tset1_2023-07-20_11h47.13.772.csv,1,13,2,3,z,0,1,2,tac,D,63,1,2D,3D,0,1,b,2.8599892000002,1,0,0,0,2D,3D,D23,2.63905732961526,0.501281074406865,0.497441133489543,0.5,0.5,0.5,0.503833384720528,0.5,0.5,0.498718925593135,0.5,0.501281074406865,0.5,0.5,0.5,0.498718925593135,0.503833384720528,0.497449280663574,0.502550719336426,0.498718925593135,0.503833384720528,0.131231418289272,0.499587235543026,-0.498718925593135,-0.00127779210359269,0.5,0.00256214881372907,1.07956263561608,0.108776430484198,3.0011772028269,0.5,86.6132020507911
CBC_1026,CBC_1026_MSI_TV_v3_Vset6_Tset1_2023-07-20_11h47.13.772.csv,1,14,1,3,b,1,0,1,tac,B,27,1,1B,3B,1,0,z,2.61438019999969,0,1,0,0,3B,1B,B13,3.36729582998647,0.501281074406865,0.497441133489543,0.5,0.5,0.5,0.503833384720528,0.5,0.5,0.498718925593135,0.5,0.501281074406865,0.5,0.5,0.5,0.497441133489543,0.503833384720528,0.498090627001016,0.501909372998984,0.5,0.503833384720528,0.149548221189116,0.49882142711617,-0.5,-0.00128107440686454,0.5,0.00256214881372907,1.07956263561608,0.108776430484198,3.0011772028269,0.5,86.6132020507911
CBC_1026,CBC_1026_MSI_TV_v3_Vset6_Tset1_2023-07-20_11h47.13.772.csv,1,15,3,2,z,0,1,3,tac,C,63,1,3C,2C,0,1,b,3.03062919999957,1,0,0,0,3C,2C,C32,3.40119738166216,0.501281074406865,0.497441133489543,0.5,0.5,0.5,0.503833384720528,0.5,0.498718925593135,0.498718925593135,0.5,0.501281074406865,0.5,0.5,0.5,0.497441133489543,0.503833384720528,0.499360282322512,0.500639717677488,0.5,0.501281074406865,0.119482219994265,0.499112866762013,-0.5,-0.00128107440686454,0.5,0.00256214881372907,1.07956263561608,0.108776430484198,3.0011772028269,0.5,86.6132020507911
CBC_1026,CBC_1026_MSI_TV_v3_Vset6_Tset1_2023-07-20_11h47.13.772.csv,1,16,2,0,b,1,0,3,tac,C,27,1,2C,0C,1,0,b,2.89732739999909,1,0,1,1,2C,0C,C20,2.7408400239252,0.501281074406865,0.497441133489543,0.5,0.5,0.5,0.503833384720528,0.5,0.498718925593135,0.498718925593135,0.5,0.501281074406865,0.498718925593135,0.5,0.5,0.497441133489543,0.503833384720528,0.501281074406865,0.498718925593135,0.501281074406865,0.498718925593135,0.129063967374523,0.501397496607295,0.498718925593135,0.00127779210359269,0.5,0.00256214881372907,1.07956263561608,0.108776430484198,3.0011772028269,0.5,86.6132020507911
CBC_1026,CBC_1026_MSI_TV_v3_Vset6_Tset1_2023-07-20_11h47.13.772.csv,1,17,0,3,b,1,0,0,tac,A,9,1,0A,3A,NaN,NaN,None,NaN,NaN,NaN,NaN,NaN,,,A03,3.46573590279973,0.501281074406865,0.497441133489543,0.5,0.5,0.5,0.503833384720528,0.5,0.498718925593135,0.498718925593135,0.5,0.502558866510457,0.498718925593135,0.5,0.5,0.497441133489543,0.503833384720528,0,0,0,0,NaN,0,0,0,0.5,0.00256214881372907,1.07956263561608,0.108776430484198,3.0011772028269,0.5,86.6132020507911
CBC_1026,CBC_1026_MSI_TV_v3_Vset6_Tset1_2023-07-20_11h47.13.772.csv,1,18,2,3,b,1,0,3,tac,C,63,0,2C,3C,0,1,z,2.47382389999984,0,1,0,1,3C,2C,C23,2.80336038090653,0.501281074406865,0.497441133489543,0.5,0.5,0.5,0.503833384720528,0.5,0.498718925593135,0.498718925593135,0.5,0.502558866510457,0.498718925593135,0.5,0.5,0.497441133489543,0.503833384720528,0.498082479733594,0.501917520266406,0.498718925593135,0.502558866510457,0.161369753897941,0.499894237478371,0.501281074406865,0.00128435671013638,0.5,0.00256214881372907,1.07956263561608,0.108776430484198,3.0011772028269,0.5,86.6132020507911
CBC_1026,CBC_1026_MSI_TV_v3_Vset6_Tset1_2023-07-20_11h47.13.772.csv,1,19,1,0,z,0,1,0,tac,A,63,1,1A,0A,0,1,b,2.95492759999979,1,0,0,0,1A,0A,A10,2.42774823594805,0.501281074406865,0.497441133489543,0.5,0.5,0.5,0.503833384720528,0.5,0.498718925593135,0.498718925593135,0.5,0.502558866510457,0.500003282303272,0.5,0.5,0.497441133489543,0.503833384720528,0.4980775730794,0.5019224269206,0.497441133489543,0.501281074406865,0.124950391908202,0.500863797283186,-0.497441133489543,-0.00127451821007028,0.5,0.00256214881372907,1.07956263561608,0.108776430484198,3.0011772028269,0.5,86.6132020507911
CBC_1026,CBC_1026_MSI_TV_v3_Vset6_Tset1_2023-07-20_11h47.13.772.csv,1,20,3,2,b,1,0,2,tac,D,63,1,3D,2D,1,0,z,2.85385270000006,0,1,0,0,2D,3D,D32,2.4567357728213,0.501281074406865,0.496166615279472,0.5,0.5,0.5,0.503833384720528,0.5,0.498718925593135,0.498718925593135,0.5,0.502558866510457,0.500003282303272,0.5,0.5,0.497441133489543,0.503833384720528,0.496807942719639,0.503192057280361,0.497441133489543,0.503833384720528,0.13172924785106,0.499815978013968,-0.497441133489543,-0.00127451821007028,0.5,0.00256214881372907,1.07956263561608,0.108776430484198,3.0011772028269,0.5,86.6132020507911
CBC_1026,CBC_1026_MSI_TV_v3_Vset6_Tset1_2023-07-20_11h47.13.772.csv,1,21,3,2,z,0,1,3,tac,C,63,1,3C,2C,0,1,z,2.8594338999992,0,1,1,1,2C,3C,C32,2.89037175789616,0.501281074406865,0.496166615279472,0.5,0.5,0.5,0.503833384720528,0.5,0.498718925593135,0.498718925593135,0.5,0.502558866510457,0.500003282303272,0.5,0.5,0.496166615279472,0.503833384720528,0.501274526576836,0.498725473423164,0.502558866510457,0.500003282303272,0.131258720099746,0.499540653219611,0.497441133489543,0.00127451821007028,0.5,0.00256214881372907,1.07956263561608,0.108776430484198,3.0011772028269,0.5,86.6132020507911
CBC_1026,CBC_1026_MSI_TV_v3_Vset6_Tset1_2023-07-20_11h47.13.772.csv,1,22,3,1,b,1,0,2,tac,D,27,1,3D,1D,1,0,b,3.5219507999991,1,0,1,1,3D,1D,D31,3.61091791264422,0.501281074406865,0.496166615279472,0.5,0.5,0.5,0.503833384720528,0.5,0.498718925593135,0.498718925593135,0.5,0.503833384720528,0.500003282303272,0.5,0.5,0.496166615279472,0.503833384720528,0.501909372998984,0.498090627001016,0.503833384720528,0.5,0.0916029760681822,0.500597336345108,0.496166615279472,0.00127125270475027,0.5,0.00256214881372907,1.07956263561608,0.108776430484198,3.0011772028269,0.5,86.6132020507911
CBC_1026,CBC_1026_MSI_TV_v3_Vset6_Tset1_2023-07-20_11h47.13.772.csv,1,23,0,1,b,1,0,0,tac,A,63,1,0A,1A,1,0,b,3.38258239999959,1,0,1,1,0A,1A,A01,3.63758615972639,0.501281074406865,0.496166615279472,0.5,0.5,0.5,0.503833384720528,0.5,0.498718925593135,0.498718925593135,0.5,0.503833384720528,0.500003282303272,0.5,0.5,0.496166615279472,0.505104637425278,0.502563773108242,0.497436226891758,0.501281074406865,0.496166615279472,0.0988947417188306,0.500743331122259,0.498718925593135,0.00127779210359269,0.5,0.00256214881372907,1.07956263561608,0.108776430484198,3.0011772028269,0.5,86.6132020507911
CBC_1026,CBC_1026_MSI_TV_v3_Vset6_Tset1_2023-07-20_11h47.13.772.csv,1,24,3,2,z,0,1,3,tac,C,63,1,3C,2C,0,1,b,2.66465589999916,1,0,0,0,3C,2C,C32,2.56494935746154,0.502558866510457,0.496166615279472,0.5,0.5,0.5,0.503833384720528,0.5,0.498718925593135,0.498718925593135,0.5,0.503833384720528,0.500003282303272,0.5,0.5,0.496166615279472,0.505104637425278,0.498092268123353,0.501907731876646,0.500003282303272,0.503833384720528,0.145564776879105,0.498738789900506,-0.500003282303272,-0.00128108281661397,0.5,0.00256214881372907,1.07956263561608,0.108776430484198,3.0011772028269,0.5,86.6132020507911
CBC_1026,CBC_1026_MSI_TV_v3_Vset6_Tset1_2023-07-20_11h47.13.772.csv,1,25,0,2,b,1,0,0,tac,A,27,1,0A,2A,1,0,z,3.19498359999943,0,1,0,0,2A,0A,A02,2.99573227355399,0.502558866510457,0.496166615279472,0.5,0.5,0.5,0.503833384720528,0.5,0.498718925593135,0.498718925593135,0.5,0.503833384720528,0.498722199486658,0.5,0.5,0.496166615279472,0.505104637425278,0.498723832287592,0.501276167712408,0.5,0.502558866510457,0.109353601256578,0.499696294241668,-0.5,-0.00128107440686454,0.5,0.00256214881372907,1.07956263561608,0.108776430484198,3.0011772028269,0.5,86.6132020507911
CBC_1026,CBC_1026_MSI_TV_v3_Vset6_Tset1_2023-07-20_11h47.13.772.csv,1,26,1,0,b,1,0,1,tac,B,63,1,1B,0B,1,0,z,3.26795519999905,0,1,0,0,0B,1B,B10,3.02042488614436,0.502558866510457,0.496166615279472,0.498718925593135,0.5,0.5,0.503833384720528,0.5,0.498718925593135,0.498718925593135,0.5,0.503833384720528,0.498722199486658,0.5,0.5,0.496166615279472,0.505104637425278,0.498090627001016,0.501909372998984,0.5,0.503833384720528,0.105123314274561,0.499921188012204,-0.5,-0.00128107440686454,0.5,0.00256214881372907,1.07956263561608,0.108776430484198,3.0011772028269,0.5,86.6132020507911
CBC_1026,CBC_1026_MSI_TV_v3_Vset6_Tset1_2023-07-20_11h47.13.772.csv,1,27,0,1,z,0,1,1,tac,B,63,1,0B,1B,0,1,b,2.84908949999954,1,0,0,0,0B,1B,B01,3.04452243772342,0.502558866510457,0.496166615279472,0.498718925593135,0.5,0.498718925593135,0.503833384720528,0.5,0.498718925593135,0.498718925593135,0.5,0.503833384720528,0.498722199486658,0.5,0.5,0.496166615279472,0.505104637425278,0.497449280663574,0.502550719336426,0.498718925593135,0.503833384720528,0.131774477703088,0.498697388786971,-0.498718925593135,-0.00127779210359269,0.5,0.00256214881372907,1.07956263561608,0.108776430484198,3.0011772028269,0.5,86.6132020507911
CBC_1026,CBC_1026_MSI_TV_v3_Vset6_Tset1_2023-07-20_11h47.13.772.csv,1,28,3,2,z,0,1,3,tac,C,63,1,3C,2C,0,1,b,3.55336559999978,1,0,0,0,3C,2C,C32,2.37490575457367,0.502558866510457,0.496166615279472,0.498718925593135,0.5,0.497441133489543,0.503833384720528,0.5,0.498718925593135,0.498718925593135,0.5,0.503833384720528,0.498722199486658,0.5,0.5,0.496166615279472,0.505104637425278,0.49745092176714,0.50254907823286,0.498722199486658,0.503833384720528,0.0897081992078094,0.498749338539738,-0.498722199486658,-0.00127780049179509,0.5,0.00256214881372907,1.07956263561608,0.108776430484198,3.0011772028269,0.5,86.6132020507911
CBC_1026,CBC_1026_MSI_TV_v3_Vset6_Tset1_2023-07-20_11h47.13.772.csv,1,29,3,1,b,1,0,2,tac,D,27,1,3D,1D,1,0,b,2.48126009999942,1,0,1,1,3D,1D,D31,3.09104245335832,0.502558866510457,0.496166615279472,0.498718925593135,0.5,0.497441133489543,0.503833384720528,0.5,0.498718925593135,0.498718925593135,0.5,0.503833384720528,0.497444398994863,0.5,0.5,0.496166615279472,0.505104637425278,0.502539356219843,0.497460643780157,0.505104637425278,0.5,0.161068634382469,0.500890524471967,0.494895362574722,0.00126799556614084,0.5,0.00256214881372907,1.07956263561608,0.108776430484198,3.0011772028269,0.5,86.6132020507911
CBC_1026,CBC_1026_MSI_TV_v3_Vset6_Tset1_2023-07-20_11h47.13.772.csv,1,30,1,2,z,0,1,3,tac,C,9,1,1C,2C,0,1,b,2.71791369999937,1,0,0,0,1C,2C,C12,3.80666248977032,0.502558866510457,0.496166615279472,0.498718925593135,0.5,0.497441133489543,0.503833384720528,0.5,0.498718925593135,0.498718925593135,0.5,0.503833384720528,0.497444398994863,0.5,0.5,0.496166615279472,0.506372632991419,0.498090627001016,0.501909372998984,0.5,0.503833384720528,0.141484681819646,0.49881242791042,-0.5,-0.00128107440686454,0.5,0.00256214881372907,1.07956263561608,0.108776430484198,3.0011772028269,0.5,86.6132020507911
CBC_1026,CBC_1026_MSI_TV_v3_Vset6_Tset1_2023-07-20_11h47.13.772.csv,1,31,3,1,z,0,1,1,tac,B,27,1,3B,1B,0,1,b,2.01548039999943,1,0,0,0,3B,1B,B31,3.13549421592915,0.502558866510457,0.496166615279472,0.498718925593135,0.5,0.497441133489543,0.503833384720528,0.5,0.498718925593135,0.498718925593135,0.498718925593135,0.503833384720528,0.497444398994863,0.5,0.5,0.496166615279472,0.506372632991419,0.497449280663574,0.502550719336426,0.498718925593135,0.503833384720528,0.198730675571666,0.50055287691833,-0.498718925593135,-0.00127779210359269,0.5,0.00256214881372907,1.07956263561608,0.108776430484198,3.0011772028269,0.5,86.6132020507911
CBC_1026,CBC_1026_MSI_TV_v3_Vset6_Tset1_2023-07-20_11h47.13.772.csv,1,32,3,2,b,1,0,2,tac,D,63,1,3D,2D,1,0,z,3.04770689999987,0,1,0,0,2D,3D,D32,2.46385324059017,0.502558866510457,0.496166615279472,0.498718925593135,0.5,0.497441133489543,0.503833384720528,0.5,0.497441133489543,0.498718925593135,0.498718925593135,0.503833384720528,0.497444398994863,0.5,0.5,0.496166615279472,0.506372632991419,0.494909916130691,0.505090083869309,0.496166615279472,0.506372632991419,0.118513997913372,0.499701375663897,-0.496166615279472,-0.00127125270475027,0.5,0.00256214881372907,1.07956263561608,0.108776430484198,3.0011772028269,0.5,86.6132020507911
CBC_1026,CBC_1026_MSI_TV_v3_Vset6_Tset1_2023-07-20_11h47.13.772.csv,1,33,0,1,z,0,1,1,tac,B,63,1,0B,1B,0,1,b,2.79103149999901,1,0,0,0,0B,1B,B01,2.77258872223978,0.502558866510457,0.496166615279472,0.498718925593135,0.5,0.497441133489543,0.503833384720528,0.5,0.497441133489543,0.498718925593135,0.498718925593135,0.503833384720528,0.497444398994863,0.5,0.5,0.494895362574722,0.506372632991419,0.496807942719639,0.503192057280361,0.497441133489543,0.503833384720528,0.136263563846241,0.499727571309747,-0.497441133489543,-0.00127451821007028,0.5,0.00256214881372907,1.07956263561608,0.108776430484198,3.0011772028269,0.5,86.6132020507911
CBC_1026,CBC_1026_MSI_TV_v3_Vset6_Tset1_2023-07-20_11h47.13.772.csv,1,34,1,0,z,0,1,0,tac,A,63,0,1A,0A,1,0,z,2.03866679999919,0,1,1,0,0A,1A,A10,2.50552593699074,0.502558866510457,0.496166615279472,0.498718925593135,0.5,0.496166615279472,0.503833384720528,0.5,0.497441133489543,0.498718925593135,0.498718925593135,0.503833384720528,0.497444398994863,0.5,0.5,0.494895362574722,0.506372632991419,0.503200204334192,0.496799795665808,0.502558866510457,0.496166615279472,0.197304314148424,0.50079048001492,-0.502558866510457,-0.00128763060365879,0.5,0.00256214881372907,1.07956263561608,0.108776430484198,3.0011772028269,0.5,86.6132020507911
CBC_1026,CBC_1026_MSI_TV_v3_Vset6_Tset1_2023-07-20_11h47.13.772.csv,1,35,2,3,b,1,0,3,tac,C,63,1,2C,3C,1,0,b,2.68042229999901,1,0,1,1,2C,3C,C23,2.81341071676004,0.501271235906798,0.496166615279472,0.498718925593135,0.5,0.496166615279472,0.503833384720528,0.5,0.497441133489543,0.498718925593135,0.498718925593135,0.503833384720528,0.497444398994863,0.5,0.5,0.494895362574722,0.506372632991419,0.503190416200965,0.496809583799035,0.503833384720528,0.497444398994863,0.144754556970552,0.500169431212189,0.496166615279472,0.00127125270475027,0.5,0.00256214881372907,1.07956263561608,0.108776430484198,3.0011772028269,0.5,86.6132020507911
CBC_1026,CBC_1026_MSI_TV_v3_Vset6_Tset1_2023-07-20_11h47.13.772.csv,1,36,0,2,b,1,0,0,tac,A,27,1,0A,2A,1,0,b,3.26053949999914,1,0,1,1,0A,2A,A02,2.83321334405622,0.501271235906798,0.496166615279472,0.498718925593135,0.5,0.496166615279472,0.503833384720528,0.5,0.497441133489543,0.498718925593135,0.498718925593135,0.505104637425278,0.497444398994863,0.5,0.5,0.494895362574722,0.506372632991419,0.501276167712408,0.498723832287592,0.501271235906798,0.498718925593135,0.105678546626095,0.500527286412269,0.498728764093202,0.00127781731129396,0.5,0.00256214881372907,1.07956263561608,0.108776430484198,3.0011772028269,0.5,86.6132020507911
CBC_1026,CBC_1026_MSI_TV_v3_Vset6_Tset1_2023-07-20_11h47.13.772.csv,1,37,0,1,z,0,1,1,tac,B,63,1,0B,1B,0,1,b,3.93314049999935,1,0,0,0,0B,1B,B01,2.56494935746154,0.502549053218092,0.496166615279472,0.498718925593135,0.5,0.496166615279472,0.503833384720528,0.5,0.497441133489543,0.498718925593135,0.498718925593135,0.505104637425278,0.497444398994863,0.5,0.5,0.494895362574722,0.506372632991419,0.496166615279472,0.503833384720528,0.496166615279472,0.503833384720528,0.0728319116020194,0.498558284879541,-0.496166615279472,-0.00127125270475027,0.5,0.00256214881372907,1.07956263561608,0.108776430484198,3.0011772028269,0.5,86.6132020507911
CBC_1026,CBC_1026_MSI_TV_v3_Vset6_Tset1_2023-07-20_11h47.13.772.csv,1,38,2,3,z,0,1,2,tac,D,63,1,2D,3D,0,1,z,2.77797849999934,0,1,1,1,3D,2D,D23,2.87167962488401,0.502549053218092,0.496166615279472,0.498718925593135,0.5,0.494895362574722,0.503833384720528,0.5,0.497441133489543,0.498718925593135,0.498718925593135,0.505104637425278,0.497444398994863,0.5,0.5,0.494895362574722,0.506372632991419,0.505731367859315,0.494268632140685,0.506372632991419,0.494895362574722,0.137759143504821,0.501660624200198,0.493627367008581,0.00126474677280524,0.5,0.00256214881372907,1.07956263561608,0.108776430484198,3.0011772028269,0.5,86.6132020507911
CBC_1026,CBC_1026_MSI_TV_v3_Vset6_Tset1_2023-07-20_11h47.13.772.csv,1,39,1,2,b,1,0,1,tac,B,9,1,1B,2B,1,0,z,3.08792089999952,0,1,0,0,2B,1B,B12,3.98898404656427,0.502549053218092,0.496166615279472,0.498718925593135,0.5,0.494895362574722,0.503833384720528,0.5,0.497441133489543,0.498718925593135,0.498718925593135,0.505104637425278,0.497444398994863,0.5,0.5,0.494895362574722,0.507637379764224,0.498090627001016,0.501909372998984,0.5,0.503833384720528,0.11577540717106,0.498985528333548,-0.5,-0.00128107440686454,0.5,0.00256214881372907,1.07956263561608,0.108776430484198,3.0011772028269,0.5,86.6132020507911
CBC_1026,CBC_1026_MSI_TV_v3_Vset6_Tset1_2023-07-20_11h47.13.772.csv,1,40,1,3,z,0,1,2,tac,D,27,1,1D,3D,0,1,b,2.66920029999983,1,0,0,0,1D,3D,D13,4.00733318523247,0.502549053218092,0.496166615279472,0.498718925593135,0.5,0.494895362574722,0.503833384720528,0.498718925593135,0.497441133489543,0.498718925593135,0.498718925593135,0.505104637425278,0.497444398994863,0.5,0.5,0.494895362574722,0.507637379764224,0.496210253848457,0.503789746151542,0.5,0.507637379764224,0.145604182446209,0.500089395507786,-0.5,-0.00128107440686454,0.5,0.00256214881372907,1.07956263561608,0.108776430484198,3.0011772028269,0.5,86.6132020507911
CBC_1026,CBC_1026_MSI_TV_v3_Vset6_Tset1_2023-07-20_11h47.13.772.csv,1,41,1,0,z,0,1,0,tac,A,63,1,1A,0A,0,1,b,2.55421789999946,1,0,0,0,1A,0A,A10,2.41591377830105,0.502549053218092,0.496166615279472,0.498718925593135,0.5,0.494895362574722,0.503833384720528,0.498718925593135,0.497441133489543,0.498718925593135,0.498718925593135,0.505104637425278,0.497444398994863,0.5,0.498718925593135,0.494895362574722,0.507637379764224,0.496804677176928,0.503195322823072,0.496166615279472,0.502549053218092,0.154970463967232,0.500692130651152,-0.496166615279472,-0.00127125270475027,0.5,0.00256214881372907,1.07956263561608,0.108776430484198,3.0011772028269,0.5,86.6132020507911
CBC_1026,CBC_1026_MSI_TV_v3_Vset6_Tset1_2023-07-20_11h47.13.772.csv,1,42,0,1,b,1,0,0,tac,A,63,1,0A,1A,NaN,NaN,None,NaN,NaN,NaN,NaN,NaN,,,A01,3.3499040872746,0.502549053218092,0.494895362574722,0.498718925593135,0.5,0.494895362574722,0.503833384720528,0.498718925593135,0.497441133489543,0.498718925593135,0.498718925593135,0.505104637425278,0.497444398994863,0.5,0.498718925593135,0.494895362574722,0.507637379764224,0,0,0,0,NaN,0,0,0,0.5,0.00256214881372907,1.07956263561608,0.108776430484198,3.0011772028269,0.5,86.6132020507911
CBC_1026,CBC_1026_MSI_TV_v3_Vset6_Tset1_2023-07-20_11h47.13.772.csv,1,43,2,0,b,1,0,3,tac,C,27,1,2C,0C,1,0,z,2.5430652999994,0,1,0,0,0C,2C,C20,2.96183072187831,0.502549053218092,0.494895362574722,0.498718925593135,0.5,0.494895362574722,0.503833384720528,0.498718925593135,0.497441133489543,0.498718925593135,0.498718925593135,0.505104637425278,0.497444398994863,0.5,0.498718925593135,0.494895362574722,0.507637379764224,0.496819305669145,0.503180694330855,0.498718925593135,0.505104637425278,0.155660402974701,0.499975501282954,-0.498718925593135,-0.00127779210359269,0.5,0.00256214881372907,1.07956263561608,0.108776430484198,3.0011772028269,0.5,86.6132020507911
CBC_1026,CBC_1026_MSI_TV_v3_Vset6_Tset1_2023-07-20_11h47.13.772.csv,1,44,0,1,z,0,1,1,tac,B,63,1,0B,1B,0,1,b,2.90073639999991,1,0,0,0,0B,1B,B01,2.46809953147162,0.502549053218092,0.494895362574722,0.498718925593135,0.5,0.494895362574722,0.503833384720528,0.498718925593135,0.497441133489543,0.497441133489543,0.498718925593135,0.505104637425278,0.497444398994863,0.5,0.498718925593135,0.494895362574722,0.507637379764224,0.495525300453196,0.504474699546804,0.494895362574722,0.503833384720528,0.127983108572464,0.4981200055598,-0.494895362574722,-0.00126799556614084,0.5,0.00256214881372907,1.07956263561608,0.108776430484198,3.0011772028269,0.5,86.6132020507911
CBC_1026,CBC_1026_MSI_AV_v3_Vset3_Aset2_2023-07-20_11h56.22.418.csv,2,1,1,0,z,0,1,0,aud,A,63,1,1A,0A,0,1,z,2.81441790000008,0,1,1,1,0A,1A,A10,2.77258872223978,0.5,0.5,0.5,0.5,0.5,0.5,0.5,0.5,0.5,0.5,0.5,0.5,0.5,0.5,0.5,0.5,0.5,0.5,0.5,0.5,0.129447420970032,0.499724247373245,0.5,0.00713898709198291,0.5,0.0142779741839658,1.04977864544311,0.0236156107202046,2.65359951419404,0.5,78.8490898817922
CBC_1026,CBC_1026_MSI_AV_v3_Vset3_Aset2_2023-07-20_11h56.22.418.csv,2,2,3,2,z,0,1,3,aud,C,63,1,3C,2C,0,1,b,2.63299639999968,1,0,0,0,3C,2C,C32,2.83321334405622,0.507138987091983,0.5,0.5,0.5,0.5,0.5,0.5,0.5,0.5,0.5,0.5,0.5,0.5,0.5,0.5,0.5,0.5,0.5,0.5,0.5,0.147173470186773,0.500455912549336,-0.5,-0.00713898709198291,0.5,0.0142779741839658,1.04977864544311,0.0236156107202046,2.65359951419404,0.5,78.8490898817922
CBC_1026,CBC_1026_MSI_AV_v3_Vset3_Aset2_2023-07-20_11h56.22.418.csv,2,3,0,2,b,1,0,0,aud,A,27,1,0A,2A,1,0,b,2.46179169999959,1,0,1,1,0A,2A,A02,2.89037175789616,0.507138987091983,0.5,0.5,0.5,0.5,0.5,0.5,0.5,0.5,0.5,0.5,0.492861012908017,0.5,0.5,0.5,0.5,0.503544191607851,0.496455808392149,0.507138987091983,0.5,0.165826617215432,0.500468327099824,0.492861012908017,0.00703705681858391,0.5,0.0142779741839658,1.04977864544311,0.0236156107202046,2.65359951419404,0.5,78.8490898817922
CBC_1026,CBC_1026_MSI_AV_v3_Vset3_Aset2_2023-07-20_11h56.22.418.csv,2,4,1,0,b,1,0,1,aud,B,63,1,1B,0B,1,0,b,2.65661449999971,1,0,1,1,1B,0B,B10,2.94443897916644,0.514176043910567,0.5,0.5,0.5,0.5,0.5,0.5,0.5,0.5,0.5,0.5,0.492861012908017,0.5,0.5,0.5,0.5,0.5,0.5,0.5,0.5,0.144931469771243,0.501031101577309,0.5,0.00713898709198291,0.5,0.0142779741839658,1.04977864544311,0.0236156107202046,2.65359951419404,0.5,78.8490898817922
CBC_1026,CBC_1026_MSI_AV_v3_Vset3_Aset2_2023-07-20_11h56.22.418.csv,2,5,2,3,z,0,1,2,aud,D,63,1,2D,3D,0,1,z,1.74661529999958,0,1,1,1,3D,2D,D23,2.99573227355399,0.514176043910567,0.5,0.5,0.5,0.5,0.507138987091983,0.5,0.5,0.5,0.5,0.5,0.492861012908017,0.5,0.5,0.5,0.5,0.5,0.5,0.5,0.5,0.2573108641121,0.500074822162101,0.5,0.00713898709198291,0.5,0.0142779741839658,1.04977864544311,0.0236156107202046,2.65359951419404,0.5,78.8490898817922
CBC_1026,CBC_1026_MSI_AV_v3_Vset3_Aset2_2023-07-20_11h56.22.418.csv,2,6,1,2,b,1,0,1,aud,B,9,1,1B,2B,1,0,b,2.80275639999945,1,0,1,1,1B,2B,B12,3.04452243772342,0.514176043910567,0.5,0.5,0.5,0.5,0.507138987091983,0.5,0.5,0.5,0.5,0.5,0.492861012908017,0.5,0.5,0.5,0.507138987091983,0.503544191607851,0.496455808392149,0.507138987091983,0.5,0.130653219145619,0.500279056583407,0.492861012908017,0.00703705681858391,0.5,0.0142779741839658,1.04977864544311,0.0236156107202046,2.65359951419404,0.5,78.8490898817922
CBC_1026,CBC_1026_MSI_AV_v3_Vset3_Aset2_2023-07-20_11h56.22.418.csv,2,7,1,3,z,0,1,2,aud,D,27,1,1D,3D,0,1,z,1.56073769999966,0,1,1,1,3D,1D,D13,3.09104245335832,0.514176043910567,0.5,0.5,0.5,0.5,0.514176043910567,0.5,0.5,0.5,0.5,0.5,0.492861012908017,0.5,0.5,0.5,0.507138987091983,0.503544191607851,0.496455808392149,0.507138987091983,0.5,0.258652450905392,0.499671845136131,0.492861012908017,0.00703705681858391,0.5,0.0142779741839658,1.04977864544311,0.0236156107202046,2.65359951419404,0.5,78.8490898817922
CBC_1026,CBC_1026_MSI_AV_v3_Vset3_Aset2_2023-07-20_11h56.22.418.csv,2,8,1,0,z,0,1,0,aud,A,63,1,1A,0A,0,1,b,3.53389299999981,1,0,0,0,1A,0A,A10,2.4423470353692,0.514176043910567,0.5,0.5,0.5,0.5,0.514176043910567,0.5,0.5,0.5,0.5,0.5,0.492861012908017,0.5,0.5,0.5,0.514176043910567,0.493011053654992,0.506988946345008,0.5,0.514176043910567,0.0782821947755463,0.500279472603004,-0.5,-0.00713898709198291,0.5,0.0142779741839658,1.04977864544311,0.0236156107202046,2.65359951419404,0.5,78.8490898817922
CBC_1026,CBC_1026_MSI_AV_v3_Vset3_Aset2_2023-07-20_11h56.22.418.csv,2,9,0,1,b,1,0,0,aud,A,63,1,0A,1A,1,0,z,2.52830839999933,0,1,0,0,1A,0A,A01,3.17805383034795,0.514176043910567,0.492861012908017,0.5,0.5,0.5,0.514176043910567,0.5,0.5,0.5,0.5,0.5,0.492861012908017,0.5,0.5,0.5,0.514176043910567,0.489416957966826,0.510583042033174,0.492861012908017,0.514176043910567,0.158257993058111,0.500247367319054,-0.492861012908017,-0.00703705681858391,0.5,0.0142779741839658,1.04977864544311,0.0236156107202046,2.65359951419404,0.5,78.8490898817922
CBC_1026,CBC_1026_MSI_AV_v3_Vset3_Aset2_2023-07-20_11h56.22.418.csv,2,10,2,0,b,1,0,3,aud,C,27,1,2C,0C,1,0,z,4.20934179999949,0,1,0,0,0C,2C,C20,3.2188758248682,0.514176043910567,0.485823956089433,0.5,0.5,0.5,0.514176043910567,0.5,0.5,0.5,0.5,0.5,0.492861012908017,0.5,0.5,0.5,0.514176043910567,0.5,0.5,0.5,0.5,0.0486635298040411,0.499263801220274,-0.5,-0.00713898709198291,0.5,0.0142779741839658,1.04977864544311,0.0236156107202046,2.65359951419404,0.5,78.8490898817922
CBC_1026,CBC_1026_MSI_AV_v3_Vset3_Aset2_2023-07-20_11h56.22.418.csv,2,11,0,1,z,0,1,1,aud,B,63,1,0B,1B,0,1,b,2.97113150000041,1,0,0,0,0B,1B,B01,3.25809653802148,0.514176043910567,0.485823956089433,0.5,0.5,0.5,0.514176043910567,0.5,0.5,0.492861012908017,0.5,0.5,0.492861012908017,0.5,0.5,0.5,0.514176043910567,0.493011053654992,0.506988946345008,0.5,0.514176043910567,0.116038804957101,0.499917884175704,-0.5,-0.00713898709198291,0.5,0.0142779741839658,1.04977864544311,0.0236156107202046,2.65359951419404,0.5,78.8490898817922
CBC_1026,CBC_1026_MSI_AV_v3_Vset3_Aset2_2023-07-20_11h56.22.418.csv,2,12,0,1,b,1,0,0,aud,A,63,1,0A,1A,1,0,z,2.31642969999939,0,1,0,0,1A,0A,A01,2.60268968544438,0.514176043910567,0.485823956089433,0.5,0.5,0.492861012908017,0.514176043910567,0.5,0.5,0.492861012908017,0.5,0.5,0.492861012908017,0.5,0.5,0.5,0.514176043910567,0.485823956089433,0.514176043910567,0.485823956089433,0.514176043910567,0.183308972413083,0.500338026677801,-0.485823956089433,-0.00693658190299707,0.5,0.0142779741839658,1.04977864544311,0.0236156107202046,2.65359951419404,0.5,78.8490898817922
CBC_1026,CBC_1026_MSI_AV_v3_Vset3_Aset2_2023-07-20_11h56.22.418.csv,2,13,3,2,z,0,1,3,aud,C,63,1,3C,2C,0,1,b,2.34509040000012,1,0,0,0,3C,2C,C32,2.63905732961526,0.514176043910567,0.478887374186436,0.5,0.5,0.492861012908017,0.514176043910567,0.5,0.5,0.492861012908017,0.5,0.5,0.492861012908017,0.5,0.5,0.5,0.514176043910567,0.496404840657871,0.503595159342129,0.492861012908017,0.5,0.179273684128334,0.499067781062806,-0.492861012908017,-0.00703705681858391,0.5,0.0142779741839658,1.04977864544311,0.0236156107202046,2.65359951419404,0.5,78.8490898817922
CBC_1026,CBC_1026_MSI_AV_v3_Vset3_Aset2_2023-07-20_11h56.22.418.csv,2,14,0,2,b,1,0,0,aud,A,27,1,0A,2A,1,0,z,2.41044340000008,0,1,0,0,2A,0A,A02,2.67414864942653,0.514176043910567,0.478887374186436,0.5,0.5,0.492861012908017,0.514176043910567,0.5,0.5,0.492861012908017,0.5,0.5,0.485823956089433,0.5,0.5,0.5,0.514176043910567,0.493011053654992,0.506988946345008,0.5,0.514176043910567,0.171517939936953,0.499530959695103,-0.5,-0.00713898709198291,0.5,0.0142779741839658,1.04977864544311,0.0236156107202046,2.65359951419404,0.5,78.8490898817922
CBC_1026,CBC_1026_MSI_AV_v3_Vset3_Aset2_2023-07-20_11h56.22.418.csv,2,15,1,0,b,1,0,1,aud,B,63,1,1B,0B,1,0,b,2.52284399999917,1,0,1,1,1B,0B,B10,2.70805020110221,0.514176043910567,0.478887374186436,0.492861012908017,0.5,0.492861012908017,0.514176043910567,0.5,0.5,0.492861012908017,0.5,0.5,0.485823956089433,0.5,0.5,0.5,0.514176043910567,0.510583042033174,0.489416957966826,0.514176043910567,0.492861012908017,0.158904507461267,0.500382857188829,0.485823956089433,0.00693658190299707,0.5,0.0142779741839658,1.04977864544311,0.0236156107202046,2.65359951419404,0.5,78.8490898817922
CBC_1026,CBC_1026_MSI_AV_v3_Vset3_Aset2_2023-07-20_11h56.22.418.csv,2,16,0,1,z,0,1,1,aud,B,63,1,0B,1B,0,1,b,2.45388319999893,1,0,0,0,0B,1B,B01,2.7408400239252,0.514176043910567,0.478887374186436,0.492861012908017,0.5,0.492861012908017,0.521112625813564,0.5,0.5,0.492861012908017,0.5,0.5,0.485823956089433,0.5,0.5,0.5,0.514176043910567,0.486068862233358,0.513931137766642,0.492861012908017,0.521112625813564,0.16634212719513,0.499274185615586,-0.492861012908017,-0.00703705681858391,0.5,0.0142779741839658,1.04977864544311,0.0236156107202046,2.65359951419404,0.5,78.8490898817922
CBC_1026,CBC_1026_MSI_AV_v3_Vset3_Aset2_2023-07-20_11h56.22.418.csv,2,17,3,2,z,0,1,3,aud,C,63,1,3C,2C,0,1,b,2.74509669999952,1,0,0,0,3C,2C,C32,2.36712361413162,0.514176043910567,0.478887374186436,0.492861012908017,0.5,0.485823956089433,0.521112625813564,0.5,0.5,0.492861012908017,0.5,0.5,0.485823956089433,0.5,0.5,0.5,0.514176043910567,0.49281005304091,0.50718994695909,0.485823956089433,0.5,0.135863228677193,0.49965681695548,-0.485823956089433,-0.00693658190299707,0.5,0.0142779741839658,1.04977864544311,0.0236156107202046,2.65359951419404,0.5,78.8490898817922
CBC_1026,CBC_1026_MSI_AV_v3_Vset3_Aset2_2023-07-20_11h56.22.418.csv,2,18,3,1,b,1,0,2,aud,D,27,1,3D,1D,1,0,b,1.55968379999922,1,0,1,1,3D,1D,D31,3.49650756146648,0.514176043910567,0.478887374186436,0.492861012908017,0.5,0.485823956089433,0.521112625813564,0.5,0.5,0.492861012908017,0.5,0.5,0.478887374186436,0.5,0.5,0.5,0.514176043910567,0.506988946345008,0.493011053654992,0.514176043910567,0.5,0.258795641360879,0.500180186569127,0.485823956089433,0.00693658190299707,0.5,0.0142779741839658,1.04977864544311,0.0236156107202046,2.65359951419404,0.5,78.8490898817922
CBC_1026,CBC_1026_MSI_AV_v3_Vset3_Aset2_2023-07-20_11h56.22.418.csv,2,19,1,2,z,0,1,3,aud,C,9,1,1C,2C,0,1,z,2.71944110000004,0,1,1,1,2C,1C,C12,3.52636052461616,0.514176043910567,0.478887374186436,0.492861012908017,0.5,0.485823956089433,0.521112625813564,0.5,0.5,0.492861012908017,0.5,0.5,0.478887374186436,0.5,0.5,0.5,0.521112625813564,0.5,0.5,0.5,0.5,0.138567682040472,0.500539535230997,0.5,0.00713898709198291,0.5,0.0142779741839658,1.04977864544311,0.0236156107202046,2.65359951419404,0.5,78.8490898817922
CBC_1026,CBC_1026_MSI_AV_v3_Vset3_Aset2_2023-07-20_11h56.22.418.csv,2,20,3,1,z,0,1,1,aud,B,27,1,3B,1B,0,1,b,5.07057840000016,1,0,0,0,3B,1B,B31,3.55534806148941,0.514176043910567,0.478887374186436,0.492861012908017,0.5,0.485823956089433,0.521112625813564,0.5,0.5,0.492861012908017,0.5,0.507138987091983,0.478887374186436,0.5,0.5,0.5,0.521112625813564,0.489661950464699,0.510338049535301,0.5,0.521112625813564,0.0266140057184386,0.499298497268336,-0.5,-0.00713898709198291,0.5,0.0142779741839658,1.04977864544311,0.0236156107202046,2.65359951419404,0.5,78.8490898817922
CBC_1026,CBC_1026_MSI_AV_v3_Vset3_Aset2_2023-07-20_11h56.22.418.csv,2,21,3,2,b,1,0,2,aud,D,63,1,3D,2D,1,0,z,2.37296399999923,0,1,0,0,2D,3D,D32,3.58351893845611,0.514176043910567,0.478887374186436,0.492861012908017,0.5,0.485823956089433,0.521112625813564,0.5,0.492861012908017,0.492861012908017,0.5,0.507138987091983,0.478887374186436,0.5,0.5,0.5,0.521112625813564,0.489661950464699,0.510338049535301,0.5,0.521112625813564,0.176229493935353,0.500118358314795,-0.5,-0.00713898709198291,0.5,0.0142779741839658,1.04977864544311,0.0236156107202046,2.65359951419404,0.5,78.8490898817922
CBC_1026,CBC_1026_MSI_AV_v3_Vset3_Aset2_2023-07-20_11h56.22.418.csv,2,22,1,0,b,1,0,1,aud,B,63,0,1B,0B,0,1,b,2.63925489999929,1,0,1,0,1B,0B,B10,2.51230562397611,0.514176043910567,0.478887374186436,0.492861012908017,0.5,0.485823956089433,0.521112625813564,0.5,0.492861012908017,0.492861012908017,0.5,0.507138987091983,0.478887374186436,0.5,0.5,0.492861012908017,0.521112625813564,0.517522786617524,0.482477213382476,0.521112625813564,0.485823956089433,0.146513244776809,0.500393578238175,-0.521112625813564,-0.0074404326183047,0.5,0.0142779741839658,1.04977864544311,0.0236156107202046,2.65359951419404,0.5,78.8490898817922
CBC_1026,CBC_1026_MSI_AV_v3_Vset3_Aset2_2023-07-20_11h56.22.418.csv,2,23,3,0,z,0,1,0,aud,A,9,1,3A,0A,0,1,z,2.46755659999963,0,1,1,1,0A,3A,A30,3.63758615972639,0.514176043910567,0.478887374186436,0.492861012908017,0.5,0.485823956089433,0.513672193195259,0.5,0.492861012908017,0.492861012908017,0.5,0.507138987091983,0.478887374186436,0.5,0.5,0.492861012908017,0.521112625813564,0.506988946345008,0.493011053654992,0.514176043910567,0.5,0.165193971505239,0.500559829708734,0.485823956089433,0.00693658190299707,0.5,0.0142779741839658,1.04977864544311,0.0236156107202046,2.65359951419404,0.5,78.8490898817922
CBC_1026,CBC_1026_MSI_AV_v3_Vset3_Aset2_2023-07-20_11h56.22.418.csv,2,24,2,3,z,0,1,2,aud,D,63,1,2D,3D,0,1,z,2.05199899999934,0,1,1,1,3D,2D,D23,2.9704144655697,0.521112625813564,0.478887374186436,0.492861012908017,0.5,0.485823956089433,0.513672193195259,0.5,0.492861012908017,0.492861012908017,0.5,0.507138987091983,0.478887374186436,0.5,0.5,0.492861012908017,0.521112625813564,0.513931137766642,0.486068862233358,0.521112625813564,0.492861012908017,0.21872946540565,0.500246878957838,0.478887374186436,0.00683754156566111,0.5,0.0142779741839658,1.04977864544311,0.0236156107202046,2.65359951419404,0.5,78.8490898817922
CBC_1026,CBC_1026_MSI_AV_v3_Vset3_Aset2_2023-07-20_11h56.22.418.csv,2,25,1,3,b,1,0,1,aud,B,27,1,1B,3B,1,0,b,3.10283049999998,1,0,1,1,1B,3B,B13,3.68887945411394,0.521112625813564,0.478887374186436,0.492861012908017,0.5,0.485823956089433,0.513672193195259,0.5,0.492861012908017,0.492861012908017,0.5,0.507138987091983,0.478887374186436,0.5,0.5,0.492861012908017,0.527950167379225,0.510338049535301,0.489661950464699,0.513672193195259,0.492861012908017,0.105799002284826,0.499857534310388,0.486327806804741,0.0069437758705028,0.5,0.0142779741839658,1.04977864544311,0.0236156107202046,2.65359951419404,0.5,78.8490898817922
CBC_1026,CBC_1026_MSI_AV_v3_Vset3_Aset2_2023-07-20_11h56.22.418.csv,2,26,2,3,b,1,0,3,aud,C,63,1,2C,3C,1,0,z,1.64503149999928,0,1,0,0,3C,2C,C23,3.71357206670431,0.521112625813564,0.478887374186436,0.492861012908017,0.5,0.485823956089433,0.520615969065762,0.5,0.492861012908017,0.492861012908017,0.5,0.507138987091983,0.478887374186436,0.5,0.5,0.492861012908017,0.527950167379225,0.485674007300922,0.514325992699078,0.478887374186436,0.507138987091983,0.262204945614328,0.499053063278832,-0.478887374186436,-0.00683754156566111,0.5,0.0142779741839658,1.04977864544311,0.0236156107202046,2.65359951419404,0.5,78.8490898817922
CBC_1026,CBC_1026_MSI_AV_v3_Vset3_Aset2_2023-07-20_11h56.22.418.csv,2,27,2,0,b,1,0,3,aud,C,27,1,2C,0C,1,0,b,1.61019959999885,1,0,1,1,2C,0C,C20,3.04452243772342,0.521112625813564,0.478887374186436,0.492861012908017,0.5,0.485823956089433,0.520615969065762,0.5,0.492861012908017,0.492861012908017,0.5,0.507138987091983,0.472049832620775,0.5,0.5,0.492861012908017,0.527950167379225,0.507138987091983,0.492861012908017,0.507138987091983,0.492861012908017,0.262641015542855,0.500607294952305,0.492861012908017,0.00703705681858391,0.5,0.0142779741839658,1.04977864544311,0.0236156107202046,2.65359951419404,0.5,78.8490898817922
CBC_1026,CBC_1026_MSI_AV_v3_Vset3_Aset2_2023-07-20_11h56.22.418.csv,2,28,0,1,z,0,1,1,aud,B,63,1,0B,1B,0,1,b,3.3752173999992,1,0,0,0,0B,1B,B01,2.66258782702545,0.521112625813564,0.478887374186436,0.492861012908017,0.5,0.485823956089433,0.520615969065762,0.5,0.492861012908017,0.492861012908017,0.5,0.514176043910567,0.472049832620775,0.5,0.5,0.492861012908017,0.527950167379225,0.482715305649782,0.517284694350219,0.485823956089433,0.520615969065762,0.0874525154202786,0.500068628154169,-0.485823956089433,-0.00693658190299707,0.5,0.0142779741839658,1.04977864544311,0.0236156107202046,2.65359951419404,0.5,78.8490898817922
CBC_1026,CBC_1026_MSI_AV_v3_Vset3_Aset2_2023-07-20_11h56.22.418.csv,2,29,2,3,b,1,0,3,aud,C,63,1,2C,3C,1,0,z,2.53858990000026,0,1,0,0,3C,2C,C23,3.09104245335832,0.521112625813564,0.478887374186436,0.492861012908017,0.5,0.478887374186436,0.520615969065762,0.5,0.492861012908017,0.492861012908017,0.5,0.514176043910567,0.472049832620775,0.5,0.5,0.492861012908017,0.527950167379225,0.478642716495153,0.521357283504847,0.472049832620775,0.514176043910567,0.156885860160869,0.499475090948392,-0.472049832620775,-0.00673991532370481,0.5,0.0142779741839658,1.04977864544311,0.0236156107202046,2.65359951419404,0.5,78.8490898817922
CBC_1026,CBC_1026_MSI_AV_v3_Vset3_Aset2_2023-07-20_11h56.22.418.csv,2,30,1,0,z,0,1,0,aud,A,63,1,1A,0A,0,1,b,2.52633449999939,1,0,0,0,1A,0A,A10,2.70805020110221,0.521112625813564,0.478887374186436,0.492861012908017,0.5,0.478887374186436,0.520615969065762,0.5,0.492861012908017,0.492861012908017,0.5,0.514176043910567,0.46530991729707,0.5,0.5,0.492861012908017,0.527950167379225,0.478887374186436,0.521112625813564,0.478887374186436,0.521112625813564,0.157989503460182,0.498712257424535,-0.478887374186436,-0.00683754156566111,0.5,0.0142779741839658,1.04977864544311,0.0236156107202046,2.65359951419404,0.5,78.8490898817922
CBC_1026,CBC_1026_MSI_AV_v3_Vset3_Aset2_2023-07-20_11h56.22.418.csv,2,31,2,3,z,0,1,2,aud,D,63,1,2D,3D,0,1,z,1.5460407999999,0,1,1,1,3D,2D,D23,2.73002910782099,0.521112625813564,0.472049832620775,0.492861012908017,0.5,0.478887374186436,0.520615969065762,0.5,0.492861012908017,0.492861012908017,0.5,0.514176043910567,0.46530991729707,0.5,0.5,0.492861012908017,0.527950167379225,0.517186897610846,0.482813102389154,0.527950167379225,0.492861012908017,0.257369551653508,0.500804654020167,0.472049832620775,0.00673991532370481,0.5,0.0142779741839658,1.04977864544311,0.0236156107202046,2.65359951419404,0.5,78.8490898817922
CBC_1026,CBC_1026_MSI_AV_v3_Vset3_Aset2_2023-07-20_11h56.22.418.csv,2,32,2,3,b,1,0,3,aud,C,63,1,2C,3C,1,0,b,2.49966049999966,1,0,1,1,2C,3C,C23,2.75153531304195,0.521112625813564,0.472049832620775,0.492861012908017,0.5,0.478887374186436,0.520615969065762,0.5,0.492861012908017,0.492861012908017,0.5,0.514176043910567,0.46530991729707,0.5,0.5,0.492861012908017,0.53469008270293,0.524944781522569,0.475055218477431,0.514176043910567,0.46530991729707,0.161445751081264,0.500246033766909,0.485823956089433,0.00693658190299707,0.5,0.0142779741839658,1.04977864544311,0.0236156107202046,2.65359951419404,0.5,78.8490898817922
CBC_1026,CBC_1026_MSI_AV_v3_Vset3_Aset2_2023-07-20_11h56.22.418.csv,2,33,3,1,b,1,0,2,aud,D,27,1,3D,1D,1,0,z,1.67309209999985,0,1,0,0,1D,3D,D31,3.17805383034795,0.521112625813564,0.472049832620775,0.492861012908017,0.5,0.478887374186436,0.520615969065762,0.5,0.492861012908017,0.492861012908017,0.5,0.521112625813564,0.46530991729707,0.5,0.5,0.492861012908017,0.53469008270293,0.483236486324336,0.516763513675664,0.5,0.53469008270293,0.261883203402738,0.499709678803641,-0.5,-0.00713898709198291,0.5,0.0142779741839658,1.04977864544311,0.0236156107202046,2.65359951419404,0.5,78.8490898817922
CBC_1026,CBC_1026_MSI_AV_v3_Vset3_Aset2_2023-07-20_11h56.22.418.csv,2,34,0,2,z,0,1,3,aud,C,27,1,0C,2C,0,1,z,2.40446399999928,0,1,1,1,2C,0C,C02,3.89182029811063,0.521112625813564,0.472049832620775,0.492861012908017,0.5,0.478887374186436,0.520615969065762,0.5,0.492861012908017,0.492861012908017,0.5,0.521112625813564,0.46530991729707,0.5,0.492861012908017,0.492861012908017,0.53469008270293,0.513931137766642,0.486068862233358,0.521112625813564,0.492861012908017,0.172532680610729,0.500410024657377,0.478887374186436,0.00683754156566111,0.5,0.0142779741839658,1.04977864544311,0.0236156107202046,2.65359951419404,0.5,78.8490898817922
CBC_1026,CBC_1026_MSI_AV_v3_Vset3_Aset2_2023-07-20_11h56.22.418.csv,2,35,2,3,z,0,1,2,aud,D,63,0,2D,3D,1,0,z,3.85968630000025,0,1,1,0,3D,2D,D23,2.52572864430826,0.521112625813564,0.472049832620775,0.492861012908017,0.5,0.478887374186436,0.520615969065762,0.5,0.492861012908017,0.492861012908017,0.5,0.527950167379225,0.46530991729707,0.5,0.492861012908017,0.492861012908017,0.53469008270293,0.520353766335115,0.479646233664885,0.53469008270293,0.492861012908017,0.0623570741669854,0.500716788824563,-0.53469008270293,-0.00763429119725498,0.5,0.0142779741839658,1.04977864544311,0.0236156107202046,2.65359951419404,0.5,78.8490898817922
CBC_1026,CBC_1026_MSI_AV_v3_Vset3_Aset2_2023-07-20_11h56.22.418.csv,2,36,1,0,z,0,1,0,aud,A,63,1,1A,0A,0,1,z,2.43630109999958,0,1,1,1,0A,1A,A10,2.54553127160444,0.521112625813564,0.472049832620775,0.492861012908017,0.5,0.478887374186436,0.520615969065762,0.5,0.492861012908017,0.492861012908017,0.5,0.527950167379225,0.46530991729707,0.5,0.492861012908017,0.492861012908017,0.527055791505675,0.524700285827423,0.475299714172577,0.521112625813564,0.472049832620775,0.168430391927018,0.499410458998215,0.478887374186436,0.00683754156566111,0.5,0.0142779741839658,1.04977864544311,0.0236156107202046,2.65359951419404,0.5,78.8490898817922
CBC_1026,CBC_1026_MSI_AV_v3_Vset3_Aset2_2023-07-20_11h56.22.418.csv,2,37,2,3,b,1,0,3,aud,C,63,1,2C,3C,1,0,z,2.57331639999938,0,1,0,0,3C,2C,C23,2.56494935746154,0.527950167379225,0.472049832620775,0.492861012908017,0.5,0.478887374186436,0.520615969065762,0.5,0.492861012908017,0.492861012908017,0.5,0.527950167379225,0.46530991729707,0.5,0.492861012908017,0.492861012908017,0.527055791505675,0.468467347551488,0.531532652448512,0.46530991729707,0.527950167379225,0.152824495485514,0.498468052277326,-0.46530991729707,-0.00664368298671084,0.5,0.0142779741839658,1.04977864544311,0.0236156107202046,2.65359951419404,0.5,78.8490898817922
CBC_1026,CBC_1026_MSI_AV_v3_Vset3_Aset2_2023-07-20_11h56.22.418.csv,2,38,0,2,b,1,0,0,aud,A,27,1,0A,2A,1,0,z,2.73213069999929,0,1,0,0,2A,0A,A02,2.87167962488401,0.527950167379225,0.472049832620775,0.492861012908017,0.5,0.478887374186436,0.520615969065762,0.5,0.492861012908017,0.492861012908017,0.5,0.527950167379225,0.458666234310359,0.5,0.492861012908017,0.492861012908017,0.527055791505675,0.482813102389154,0.517186897610846,0.492861012908017,0.527950167379225,0.136953359055205,0.499118394680943,-0.492861012908017,-0.00703705681858391,0.5,0.0142779741839658,1.04977864544311,0.0236156107202046,2.65359951419404,0.5,78.8490898817922
CBC_1026,CBC_1026_MSI_AV_v3_Vset3_Aset2_2023-07-20_11h56.22.418.csv,2,39,2,3,z,0,1,2,aud,D,63,1,2D,3D,0,1,z,2.49160239999946,0,1,1,1,3D,2D,D23,2.37954613413017,0.527950167379225,0.472049832620775,0.485823956089433,0.5,0.478887374186436,0.520615969065762,0.5,0.492861012908017,0.492861012908017,0.5,0.527950167379225,0.458666234310359,0.5,0.492861012908017,0.492861012908017,0.527055791505675,0.516763513675664,0.483236486324336,0.527055791505675,0.492861012908017,0.162764431613764,0.501512111899073,0.472944208494325,0.00675268519933812,0.5,0.0142779741839658,1.04977864544311,0.0236156107202046,2.65359951419404,0.5,78.8490898817922
CBC_1026,CBC_1026_MSI_AV_v3_Vset3_Aset2_2023-07-20_11h56.22.418.csv,2,40,3,2,b,1,0,2,aud,D,63,1,3D,2D,1,0,b,1.47747879999952,1,0,1,1,3D,2D,D32,3.31418600467253,0.527950167379225,0.472049832620775,0.485823956089433,0.5,0.478887374186436,0.520615969065762,0.5,0.492861012908017,0.492861012908017,0.5,0.527950167379225,0.458666234310359,0.5,0.492861012908017,0.492861012908017,0.533808476705013,0.519941891821695,0.480058108178305,0.533808476705013,0.492861012908017,0.241821969223822,0.500298558065862,0.466191523294987,0.00665627053438952,0.5,0.0142779741839658,1.04977864544311,0.0236156107202046,2.65359951419404,0.5,78.8490898817922
CBC_1026,CBC_1026_MSI_AV_v3_Vset3_Aset2_2023-07-20_11h56.22.418.csv,2,41,3,1,z,0,1,1,aud,B,27,1,3B,1B,NaN,NaN,[],NaN,NaN,NaN,NaN,NaN,,,B31,3.3322045101752,0.527950167379225,0.472049832620775,0.485823956089433,0.5,0.478887374186436,0.520615969065762,0.5,0.492861012908017,0.492861012908017,0.5,0.527950167379225,0.458666234310359,0.5,0.492861012908017,0.492861012908017,0.540464747239402,0,0,0,0,NaN,0,0,0,0.5,0.0142779741839658,1.04977864544311,0.0236156107202046,2.65359951419404,0.5,78.8490898817922
CBC_1026,CBC_1026_MSI_AV_v3_Vset3_Aset2_2023-07-20_11h56.22.418.csv,2,42,3,0,b,1,0,2,aud,D,9,1,3D,0D,1,0,z,4.38099009999951,0,1,0,0,0D,3D,D30,4.04305126783455,0.527950167379225,0.472049832620775,0.485823956089433,0.5,0.478887374186436,0.520615969065762,0.5,0.492861012908017,0.492861012908017,0.5,0.527950167379225,0.458666234310359,0.5,0.492861012908017,0.492861012908017,0.540464747239402,0.480554484259671,0.519445515740329,0.5,0.540464747239402,0.0431115345091933,0.498841945913386,-0.5,-0.00713898709198291,0.5,0.0142779741839658,1.04977864544311,0.0236156107202046,2.65359951419404,0.5,78.8490898817922
CBC_1026,CBC_1026_MSI_AV_v3_Vset3_Aset2_2023-07-20_11h56.22.418.csv,2,43,0,1,z,0,1,1,aud,B,63,1,0B,1B,0,1,z,5.53501439999945,0,1,1,1,1B,0B,B01,2.67414864942653,0.527950167379225,0.472049832620775,0.485823956089433,0.5,0.478887374186436,0.520615969065762,0.5,0.492861012908017,0.492861012908017,0.5,0.527950167379225,0.458666234310359,0.492861012908017,0.492861012908017,0.492861012908017,0.540464747239402,0.520874664982885,0.479125335017115,0.520615969065762,0.478887374186436,0.0193081080090618,0.501587752226183,0.479384030934238,0.00684463281788452,0.5,0.0142779741839658,1.04977864544311,0.0236156107202046,2.65359951419404,0.5,78.8490898817922
CBC_1026,CBC_1026_MSI_AV_v3_Vset3_Aset2_2023-07-20_11h56.22.418.csv,2,44,0,1,b,1,0,0,aud,A,63,1,0A,1A,NaN,NaN,[],NaN,NaN,NaN,NaN,NaN,,,A01,2.97892515523761,0.527950167379225,0.472049832620775,0.485823956089433,0.5,0.478887374186436,0.527460601883646,0.5,0.492861012908017,0.492861012908017,0.5,0.527950167379225,0.458666234310359,0.492861012908017,0.492861012908017,0.492861012908017,0.540464747239402,0,0,0,0,NaN,0,0,0,0.5,0.0142779741839658,1.04977864544311,0.0236156107202046,2.65359951419404,0.5,78.8490898817922
CBC_1026,CBC_1026_MSI_TV_v3_Vset4_Tset3_2023-07-20_12h55.31.545.csv,3,1,0,1,z,0,1,1,tac,B,63,1,0B,1B,0,1,z,2.5516217000004,0,1,1,1,1B,0B,B01,2.77258872223978,0.5,0.5,0.5,0.5,0.5,0.5,0.5,0.5,0.5,0.5,0.5,0.5,0.5,0.5,0.5,0.5,0.5,0.5,0.5,0.5,0.160782791934277,0.500397323988324,0.5,0.00450582454971704,0.5,0.00901164909943408,1.09979753588347,0.00354099750559489,2.77144276081725,0.5,74.9835716379025
CBC_1026,CBC_1026_MSI_TV_v3_Vset4_Tset3_2023-07-20_12h55.31.545.csv,3,2,2,3,z,0,1,2,tac,D,63,1,2D,3D,0,1,b,2.86428599999999,1,0,0,0,2D,3D,D23,2.83321334405622,0.5,0.5,0.5,0.5,0.5,0.504505824549717,0.5,0.5,0.5,0.5,0.5,0.5,0.5,0.5,0.5,0.5,0.5,0.5,0.5,0.5,0.131672642849577,0.500279802640982,-0.5,-0.00450582454971704,0.5,0.00901164909943408,1.09979753588347,0.00354099750559489,2.77144276081725,0.5,74.9835716379025
CBC_1026,CBC_1026_MSI_TV_v3_Vset4_Tset3_2023-07-20_12h55.31.545.csv,3,3,1,3,b,1,0,1,tac,B,27,1,1B,3B,1,0,z,2.86221269999987,0,1,0,0,3B,1B,B13,2.89037175789616,0.5,0.5,0.5,0.5,0.5,0.504505824549717,0.5,0.5,0.5,0.5,0.5,0.5,0.5,0.5,0.495494175450283,0.5,0.497757193418099,0.502242806581902,0.5,0.504505824549717,0.131892833174675,0.500451173981358,-0.5,-0.00450582454971704,0.5,0.00901164909943408,1.09979753588347,0.00354099750559489,2.77144276081725,0.5,74.9835716379025
CBC_1026,CBC_1026_MSI_TV_v3_Vset4_Tset3_2023-07-20_12h55.31.545.csv,3,4,3,2,z,0,1,3,tac,C,63,1,3C,2C,0,1,b,2.49812259999999,1,0,0,0,3C,2C,C32,2.94443897916644,0.5,0.5,0.5,0.5,0.5,0.504505824549717,0.5,0.495494175450283,0.5,0.5,0.5,0.5,0.5,0.5,0.495494175450283,0.5,0.5,0.5,0.5,0.5,0.166622867701225,0.501325078245567,-0.5,-0.00450582454971704,0.5,0.00901164909943408,1.09979753588347,0.00354099750559489,2.77144276081725,0.5,74.9835716379025
CBC_1026,CBC_1026_MSI_TV_v3_Vset4_Tset3_2023-07-20_12h55.31.545.csv,3,5,2,0,b,1,0,3,tac,C,27,1,2C,0C,1,0,z,2.45383649999894,0,1,0,0,0C,2C,C20,2.99573227355399,0.5,0.5,0.5,0.5,0.5,0.504505824549717,0.5,0.495494175450283,0.5,0.5,0.5,0.495494175450283,0.5,0.5,0.495494175450283,0.5,0.5,0.5,0.5,0.5,0.171245077110957,0.501070273403727,-0.5,-0.00450582454971704,0.5,0.00901164909943408,1.09979753588347,0.00354099750559489,2.77144276081725,0.5,74.9835716379025
CBC_1026,CBC_1026_MSI_TV_v3_Vset4_Tset3_2023-07-20_12h55.31.545.csv,3,6,3,0,z,0,1,0,tac,A,9,1,3A,0A,0,1,b,3.19090030000007,1,0,0,0,3A,0A,A30,3.04452243772342,0.5,0.5,0.5,0.5,0.5,0.504505824549717,0.5,0.495494175450283,0.495494175450283,0.5,0.5,0.495494175450283,0.5,0.5,0.495494175450283,0.5,0.5,0.5,0.5,0.5,0.106630515940149,0.499585984408335,-0.5,-0.00450582454971704,0.5,0.00901164909943408,1.09979753588347,0.00354099750559489,2.77144276081725,0.5,74.9835716379025
CBC_1026,CBC_1026_MSI_TV_v3_Vset4_Tset3_2023-07-20_12h55.31.545.csv,3,7,3,2,z,0,1,3,tac,C,63,1,3C,2C,0,1,z,2.65325210000083,0,1,1,1,2C,3C,C32,2.39789527279837,0.5,0.5,0.5,0.495494175450283,0.5,0.504505824549717,0.5,0.495494175450283,0.495494175450283,0.5,0.5,0.495494175450283,0.5,0.5,0.495494175450283,0.5,0.502263109448972,0.497736890551028,0.5,0.495494175450283,0.150403586754518,0.499328079282733,0.5,0.00450582454971704,0.5,0.00901164909943408,1.09979753588347,0.00354099750559489,2.77144276081725,0.5,74.9835716379025
CBC_1026,CBC_1026_MSI_TV_v3_Vset4_Tset3_2023-07-20_12h55.31.545.csv,3,8,0,1,b,1,0,0,tac,A,63,1,0A,1A,1,0,z,3.08666089999861,0,1,0,0,1A,0A,A01,3.13549421592915,0.5,0.5,0.5,0.495494175450283,0.5,0.504505824549717,0.5,0.495494175450283,0.495494175450283,0.5,0.504505824549717,0.495494175450283,0.5,0.5,0.495494175450283,0.5,0.5,0.5,0.5,0.5,0.113996175625754,0.499520732747211,-0.5,-0.00450582454971704,0.5,0.00901164909943408,1.09979753588347,0.00354099750559489,2.77144276081725,0.5,74.9835716379025
CBC_1026,CBC_1026_MSI_TV_v3_Vset4_Tset3_2023-07-20_12h55.31.545.csv,3,9,3,2,b,1,0,2,tac,D,63,1,3D,2D,1,0,b,2.68497719999868,1,0,1,1,3D,2D,D32,3.17805383034795,0.5,0.495494175450283,0.5,0.495494175450283,0.5,0.504505824549717,0.5,0.495494175450283,0.495494175450283,0.5,0.504505824549717,0.495494175450283,0.5,0.5,0.495494175450283,0.5,0.502263109448972,0.497736890551028,0.5,0.495494175450283,0.147611700331316,0.50007354150738,0.5,0.00450582454971704,0.5,0.00901164909943408,1.09979753588347,0.00354099750559489,2.77144276081725,0.5,74.9835716379025
CBC_1026,CBC_1026_MSI_TV_v3_Vset4_Tset3_2023-07-20_12h55.31.545.csv,3,10,2,3,b,1,0,3,tac,C,63,1,2C,3C,1,0,z,2.42580070000076,0,1,0,0,3C,2C,C23,3.2188758248682,0.5,0.495494175450283,0.5,0.495494175450283,0.5,0.504505824549717,0.5,0.495494175450283,0.495494175450283,0.5,0.504505824549717,0.495494175450283,0.5,0.5,0.495494175450283,0.504505824549717,0.495494175450283,0.504505824549717,0.495494175450283,0.504505824549717,0.173720277772318,0.49946026963736,-0.495494175450283,-0.00446521963997138,0.5,0.00901164909943408,1.09979753588347,0.00354099750559489,2.77144276081725,0.5,74.9835716379025
CBC_1026,CBC_1026_MSI_TV_v3_Vset4_Tset3_2023-07-20_12h55.31.545.csv,3,11,1,3,z,0,1,2,tac,D,27,1,1D,3D,0,1,b,2.87533369999983,1,0,0,0,1D,3D,D13,3.25809653802148,0.5,0.495494175450283,0.5,0.495494175450283,0.5,0.504505824549717,0.5,0.495494175450283,0.495494175450283,0.5,0.504505824549717,0.491028955810312,0.5,0.5,0.495494175450283,0.504505824549717,0.497757193418099,0.502242806581902,0.5,0.504505824549717,0.130358101801097,0.498803681079478,-0.5,-0.00450582454971704,0.5,0.00901164909943408,1.09979753588347,0.00354099750559489,2.77144276081725,0.5,74.9835716379025
CBC_1026,CBC_1026_MSI_TV_v3_Vset4_Tset3_2023-07-20_12h55.31.545.csv,3,12,1,0,z,0,1,0,tac,A,63,0,1A,0A,NaN,NaN,None,NaN,NaN,NaN,NaN,NaN,,,A10,3.29583686600433,0.5,0.495494175450283,0.5,0.495494175450283,0.5,0.504505824549717,0.5,0.495494175450283,0.495494175450283,0.5,0.504505824549717,0.491028955810312,0.5,0.495494175450283,0.495494175450283,0.504505824549717,0,0,0,0,NaN,0,0,0,0.5,0.00901164909943408,1.09979753588347,0.00354099750559489,2.77144276081725,0.5,74.9835716379025
CBC_1026,CBC_1026_MSI_TV_v3_Vset4_Tset3_2023-07-20_12h55.31.545.csv,3,13,2,3,b,1,0,3,tac,C,63,1,2C,3C,1,0,z,2.58695599999919,0,1,0,0,3C,2C,C23,2.63905732961526,0.5,0.495494175450283,0.5,0.495494175450283,0.5,0.504505824549717,0.5,0.495494175450283,0.495494175450283,0.5,0.504505824549717,0.491028955810312,0.5,0.495494175450283,0.495494175450283,0.504505824549717,0.493231342086044,0.506768657913956,0.491028955810312,0.504505824549717,0.15669011455064,0.498713771863421,-0.491028955810312,-0.00442498064742405,0.5,0.00901164909943408,1.09979753588347,0.00354099750559489,2.77144276081725,0.5,74.9835716379025
CBC_1026,CBC_1026_MSI_TV_v3_Vset4_Tset3_2023-07-20_12h55.31.545.csv,3,14,0,2,b,1,0,0,tac,A,27,1,0A,2A,1,0,b,2.5592187000002,1,0,1,1,0A,2A,A02,3.36729582998647,0.5,0.495494175450283,0.5,0.495494175450283,0.5,0.504505824549717,0.5,0.495494175450283,0.495494175450283,0.5,0.504505824549717,0.486603975162888,0.5,0.495494175450283,0.495494175450283,0.504505824549717,0.5,0.5,0.5,0.5,0.159636884714692,0.499228770275139,0.5,0.00450582454971704,0.5,0.00901164909943408,1.09979753588347,0.00354099750559489,2.77144276081725,0.5,74.9835716379025
CBC_1026,CBC_1026_MSI_TV_v3_Vset4_Tset3_2023-07-20_12h55.31.545.csv,3,15,0,1,z,0,1,1,tac,B,63,1,0B,1B,0,1,z,2.680268600001,0,1,1,1,1B,0B,B01,2.70805020110221,0.504505824549717,0.495494175450283,0.5,0.495494175450283,0.5,0.504505824549717,0.5,0.495494175450283,0.495494175450283,0.5,0.504505824549717,0.486603975162888,0.5,0.495494175450283,0.495494175450283,0.504505824549717,0.502242806581902,0.497757193418099,0.504505824549717,0.5,0.14802331946438,0.49996392125652,0.495494175450283,0.00446521963997138,0.5,0.00901164909943408,1.09979753588347,0.00354099750559489,2.77144276081725,0.5,74.9835716379025
CBC_1026,CBC_1026_MSI_TV_v3_Vset4_Tset3_2023-07-20_12h55.31.545.csv,3,16,3,2,b,1,0,2,tac,D,63,1,3D,2D,1,0,b,2.66154449999885,1,0,1,1,3D,2D,D32,2.7408400239252,0.504505824549717,0.495494175450283,0.5,0.495494175450283,0.5,0.508971044189688,0.5,0.495494175450283,0.495494175450283,0.5,0.504505824549717,0.486603975162888,0.5,0.495494175450283,0.495494175450283,0.504505824549717,0.504505824549717,0.495494175450283,0.504505824549717,0.495494175450283,0.149911816753716,0.500332784604024,0.495494175450283,0.00446521963997138,0.5,0.00901164909943408,1.09979753588347,0.00354099750559489,2.77144276081725,0.5,74.9835716379025
CBC_1026,CBC_1026_MSI_TV_v3_Vset4_Tset3_2023-07-20_12h55.31.545.csv,3,17,1,2,b,1,0,1,tac,B,9,1,1B,2B,1,0,z,2.41302559999895,0,1,0,0,2B,1B,B12,3.46573590279973,0.504505824549717,0.495494175450283,0.5,0.495494175450283,0.5,0.508971044189688,0.5,0.495494175450283,0.495494175450283,0.5,0.504505824549717,0.486603975162888,0.5,0.495494175450283,0.495494175450283,0.508971044189688,0.495554359938598,0.504445640061402,0.5,0.508971044189688,0.175449297206065,0.50042020257984,-0.5,-0.00450582454971704,0.5,0.00901164909943408,1.09979753588347,0.00354099750559489,2.77144276081725,0.5,74.9835716379025
CBC_1026,CBC_1026_MSI_TV_v3_Vset4_Tset3_2023-07-20_12h55.31.545.csv,3,18,1,3,z,0,1,2,tac,D,27,1,1D,3D,0,1,b,2.46692710000025,1,0,0,0,1D,3D,D13,2.80336038090653,0.504505824549717,0.495494175450283,0.5,0.495494175450283,0.5,0.508971044189688,0.495494175450283,0.495494175450283,0.495494175450283,0.5,0.504505824549717,0.486603975162888,0.5,0.495494175450283,0.495494175450283,0.508971044189688,0.493291520464872,0.506708479535128,0.495494175450283,0.508971044189688,0.169566683621247,0.500257052189272,-0.495494175450283,-0.00446521963997138,0.5,0.00901164909943408,1.09979753588347,0.00354099750559489,2.77144276081725,0.5,74.9835716379025
CBC_1026,CBC_1026_MSI_TV_v3_Vset4_Tset3_2023-07-20_12h55.31.545.csv,3,19,0,1,b,1,0,0,tac,A,63,1,0A,1A,1,0,z,2.87777519999872,0,1,0,0,1A,0A,A01,2.83321334405622,0.504505824549717,0.495494175450283,0.5,0.495494175450283,0.5,0.508971044189688,0.495494175450283,0.495494175450283,0.495494175450283,0.5,0.504505824549717,0.486603975162888,0.5,0.491028955810312,0.495494175450283,0.508971044189688,0.495494175450283,0.504505824549717,0.495494175450283,0.504505824549717,0.13027480779039,0.499265540252452,-0.495494175450283,-0.00446521963997138,0.5,0.00901164909943408,1.09979753588347,0.00354099750559489,2.77144276081725,0.5,74.9835716379025
CBC_1026,CBC_1026_MSI_TV_v3_Vset4_Tset3_2023-07-20_12h55.31.545.csv,3,20,1,0,z,0,1,0,tac,A,63,1,1A,0A,0,1,b,1.68054999999913,1,0,0,0,1A,0A,A10,2.86220088092947,0.504505824549717,0.491028955810312,0.5,0.495494175450283,0.5,0.508971044189688,0.495494175450283,0.495494175450283,0.495494175450283,0.5,0.504505824549717,0.486603975162888,0.5,0.491028955810312,0.495494175450283,0.508971044189688,0.493231342086044,0.506768657913956,0.491028955810312,0.504505824549717,0.238724255853061,0.49917592838965,-0.491028955810312,-0.00442498064742405,0.5,0.00901164909943408,1.09979753588347,0.00354099750559489,2.77144276081725,0.5,74.9835716379025
CBC_1026,CBC_1026_MSI_TV_v3_Vset4_Tset3_2023-07-20_12h55.31.545.csv,3,21,2,0,b,1,0,3,tac,C,27,1,2C,0C,1,0,b,2.50818339999933,1,0,1,1,2C,0C,C20,2.89037175789616,0.504505824549717,0.486603975162888,0.5,0.495494175450283,0.5,0.508971044189688,0.495494175450283,0.495494175450283,0.495494175450283,0.5,0.504505824549717,0.486603975162888,0.5,0.491028955810312,0.495494175450283,0.508971044189688,0.504505824549717,0.495494175450283,0.504505824549717,0.495494175450283,0.164998050943799,0.499598884607027,0.495494175450283,0.00446521963997138,0.5,0.00901164909943408,1.09979753588347,0.00354099750559489,2.77144276081725,0.5,74.9835716379025
CBC_1026,CBC_1026_MSI_TV_v3_Vset4_Tset3_2023-07-20_12h55.31.545.csv,3,22,0,1,z,0,1,1,tac,B,63,1,0B,1B,0,1,b,2.38447730000007,1,0,0,0,0B,1B,B01,2.51230562397611,0.504505824549717,0.486603975162888,0.5,0.495494175450283,0.5,0.508971044189688,0.495494175450283,0.495494175450283,0.495494175450283,0.5,0.508971044189688,0.486603975162888,0.5,0.491028955810312,0.495494175450283,0.508971044189688,0.495554359938598,0.504445640061402,0.5,0.508971044189688,0.178229153883997,0.499388215516905,-0.5,-0.00450582454971704,0.5,0.00901164909943408,1.09979753588347,0.00354099750559489,2.77144276081725,0.5,74.9835716379025
CBC_1026,CBC_1026_MSI_TV_v3_Vset4_Tset3_2023-07-20_12h55.31.545.csv,3,23,2,0,b,1,0,3,tac,C,27,1,2C,0C,1,0,b,2.42771529999845,1,0,1,1,2C,0C,C20,2.53897387105828,0.504505824549717,0.486603975162888,0.5,0.495494175450283,0.495494175450283,0.508971044189688,0.495494175450283,0.495494175450283,0.495494175450283,0.5,0.508971044189688,0.486603975162888,0.5,0.491028955810312,0.495494175450283,0.508971044189688,0.506708479535128,0.493291520464872,0.508971044189688,0.495494175450283,0.173866725257394,0.500480435210481,0.491028955810312,0.00442498064742405,0.5,0.00901164909943408,1.09979753588347,0.00354099750559489,2.77144276081725,0.5,74.9835716379025
CBC_1026,CBC_1026_MSI_TV_v3_Vset4_Tset3_2023-07-20_12h55.31.545.csv,3,24,3,2,b,1,0,2,tac,D,63,1,3D,2D,1,0,z,2.71599379999861,0,1,0,0,2D,3D,D32,2.56494935746154,0.504505824549717,0.486603975162888,0.5,0.495494175450283,0.495494175450283,0.508971044189688,0.495494175450283,0.495494175450283,0.495494175450283,0.5,0.513396024837112,0.486603975162888,0.5,0.491028955810312,0.495494175450283,0.508971044189688,0.493291520464872,0.506708479535128,0.495494175450283,0.508971044189688,0.144572354029309,0.499570855707426,-0.495494175450283,-0.00446521963997138,0.5,0.00901164909943408,1.09979753588347,0.00354099750559489,2.77144276081725,0.5,74.9835716379025
CBC_1026,CBC_1026_MSI_TV_v3_Vset4_Tset3_2023-07-20_12h55.31.545.csv,3,25,1,0,z,0,1,0,tac,A,63,1,1A,0A,0,1,b,3.07986019999771,1,0,0,0,1A,0A,A10,2.59026716544583,0.504505824549717,0.486603975162888,0.5,0.495494175450283,0.495494175450283,0.508971044189688,0.495494175450283,0.495494175450283,0.495494175450283,0.5,0.513396024837112,0.486603975162888,0.5,0.491028955810312,0.491028955810312,0.508971044189688,0.490968786005334,0.509031213994666,0.486603975162888,0.504505824549717,0.114527600707001,0.499663396867107,-0.486603975162888,-0.00438510427455768,0.5,0.00901164909943408,1.09979753588347,0.00354099750559489,2.77144276081725,0.5,74.9835716379025
CBC_1026,CBC_1026_MSI_TV_v3_Vset4_Tset3_2023-07-20_12h55.31.545.csv,3,26,3,2,z,0,1,3,tac,C,63,1,3C,2C,0,1,z,2.3069990999993,0,1,1,1,2C,3C,C32,2.6149597780362,0.504505824549717,0.48221887088833,0.5,0.495494175450283,0.495494175450283,0.508971044189688,0.495494175450283,0.495494175450283,0.495494175450283,0.5,0.513396024837112,0.486603975162888,0.5,0.491028955810312,0.491028955810312,0.508971044189688,0.513396024837112,0.486603975162888,0.513396024837112,0.486603975162888,0.187066076545961,0.499695154439824,0.486603975162888,0.00438510427455768,0.5,0.00901164909943408,1.09979753588347,0.00354099750559489,2.77144276081725,0.5,74.9835716379025
CBC_1026,CBC_1026_MSI_TV_v3_Vset4_Tset3_2023-07-20_12h55.31.545.csv,3,27,2,0,z,0,1,0,tac,A,27,1,2A,0A,0,1,z,2.60434669999995,0,1,1,1,0A,2A,A20,3.73766961828337,0.504505824549717,0.48221887088833,0.5,0.495494175450283,0.495494175450283,0.508971044189688,0.495494175450283,0.495494175450283,0.495494175450283,0.5,0.51778112911167,0.486603975162888,0.5,0.491028955810312,0.491028955810312,0.508971044189688,0.502242806581902,0.497757193418099,0.504505824549717,0.5,0.155826909556229,0.501477121021368,0.495494175450283,0.00446521963997138,0.5,0.00901164909943408,1.09979753588347,0.00354099750559489,2.77144276081725,0.5,74.9835716379025
CBC_1026,CBC_1026_MSI_TV_v3_Vset4_Tset3_2023-07-20_12h55.31.545.csv,3,28,3,2,b,1,0,2,tac,D,63,1,3D,2D,1,0,b,2.59180679999918,1,0,1,1,3D,2D,D32,2.37490575457367,0.508971044189688,0.48221887088833,0.5,0.495494175450283,0.495494175450283,0.508971044189688,0.495494175450283,0.495494175450283,0.495494175450283,0.5,0.51778112911167,0.486603975162888,0.5,0.491028955810312,0.491028955810312,0.508971044189688,0.508971044189688,0.491028955810312,0.508971044189688,0.491028955810312,0.156628392075393,0.500056040224481,0.491028955810312,0.00442498064742405,0.5,0.00901164909943408,1.09979753588347,0.00354099750559489,2.77144276081725,0.5,74.9835716379025
CBC_1026,CBC_1026_MSI_TV_v3_Vset4_Tset3_2023-07-20_12h55.31.545.csv,3,29,3,2,b,1,0,2,tac,D,63,1,3D,2D,1,0,z,3.42912539999998,0,1,0,0,2D,3D,D32,2.17475172148416,0.508971044189688,0.48221887088833,0.5,0.495494175450283,0.495494175450283,0.508971044189688,0.495494175450283,0.495494175450283,0.495494175450283,0.5,0.51778112911167,0.486603975162888,0.5,0.491028955810312,0.491028955810312,0.513396024837112,0.488865734396419,0.511134265603581,0.491028955810312,0.513396024837112,0.0914580071078279,0.499345784309893,-0.491028955810312,-0.00442498064742405,0.5,0.00901164909943408,1.09979753588347,0.00354099750559489,2.77144276081725,0.5,74.9835716379025
CBC_1026,CBC_1026_MSI_TV_v3_Vset4_Tset3_2023-07-20_12h55.31.545.csv,3,30,3,1,z,0,1,1,tac,B,27,1,3B,1B,0,1,b,4.0109210999999,1,0,0,0,3B,1B,B31,3.80666248977032,0.508971044189688,0.48221887088833,0.5,0.495494175450283,0.495494175450283,0.508971044189688,0.495494175450283,0.495494175450283,0.495494175450283,0.5,0.51778112911167,0.486603975162888,0.5,0.491028955810312,0.486603975162888,0.513396024837112,0.493291520464872,0.506708479535128,0.495494175450283,0.508971044189688,0.0629507221831854,0.499468170668016,-0.495494175450283,-0.00446521963997138,0.5,0.00901164909943408,1.09979753588347,0.00354099750559489,2.77144276081725,0.5,74.9835716379025
CBC_1026,CBC_1026_MSI_TV_v3_Vset4_Tset3_2023-07-20_12h55.31.545.csv,3,31,0,3,z,0,1,2,tac,D,9,1,0D,3D,NaN,NaN,None,NaN,NaN,NaN,NaN,NaN,,,D03,3.8286413964891,0.508971044189688,0.48221887088833,0.5,0.495494175450283,0.495494175450283,0.508971044189688,0.495494175450283,0.491028955810312,0.495494175450283,0.5,0.51778112911167,0.486603975162888,0.5,0.491028955810312,0.486603975162888,0.513396024837112,0,0,0,0,NaN,0,0,0,0.5,0.00901164909943408,1.09979753588347,0.00354099750559489,2.77144276081725,0.5,74.9835716379025
CBC_1026,CBC_1026_MSI_TV_v3_Vset4_Tset3_2023-07-20_12h55.31.545.csv,3,32,1,0,b,1,0,1,tac,B,63,1,1B,0B,1,0,z,2.76520530000016,0,1,0,0,0B,1B,B10,3.85014760171006,0.508971044189688,0.48221887088833,0.5,0.495494175450283,0.495494175450283,0.508971044189688,0.495494175450283,0.491028955810312,0.495494175450283,0.5,0.51778112911167,0.486603975162888,0.5,0.491028955810312,0.486603975162888,0.513396024837112,0.493291520464872,0.506708479535128,0.495494175450283,0.508971044189688,0.139938309809567,0.499008199188556,-0.495494175450283,-0.00446521963997138,0.5,0.00901164909943408,1.09979753588347,0.00354099750559489,2.77144276081725,0.5,74.9835716379025
CBC_1026,CBC_1026_MSI_TV_v3_Vset4_Tset3_2023-07-20_12h55.31.545.csv,3,33,1,0,z,0,1,0,tac,A,63,1,1A,0A,NaN,NaN,None,NaN,NaN,NaN,NaN,NaN,,,A10,2.484906649788,0.508971044189688,0.48221887088833,0.5,0.495494175450283,0.491028955810312,0.508971044189688,0.495494175450283,0.491028955810312,0.495494175450283,0.5,0.51778112911167,0.486603975162888,0.5,0.491028955810312,0.486603975162888,0.513396024837112,0,0,0,0,NaN,0,0,0,0.5,0.00901164909943408,1.09979753588347,0.00354099750559489,2.77144276081725,0.5,74.9835716379025
CBC_1026,CBC_1026_MSI_TV_v3_Vset4_Tset3_2023-07-20_12h55.31.545.csv,3,34,1,0,b,1,0,1,tac,B,63,1,1B,0B,NaN,NaN,None,NaN,NaN,NaN,NaN,NaN,,,B10,3.19867311755068,0.508971044189688,0.48221887088833,0.5,0.495494175450283,0.491028955810312,0.508971044189688,0.495494175450283,0.491028955810312,0.495494175450283,0.5,0.51778112911167,0.486603975162888,0.5,0.491028955810312,0.486603975162888,0.513396024837112,0,0,0,0,NaN,0,0,0,0.5,0.00901164909943408,1.09979753588347,0.00354099750559489,2.77144276081725,0.5,74.9835716379025
CBC_1026,CBC_1026_MSI_TV_v3_Vset4_Tset3_2023-07-20_12h55.31.545.csv,3,35,3,2,z,0,1,3,tac,C,63,1,3C,2C,0,1,b,2.42641379999986,1,0,0,0,3C,2C,C32,2.52572864430826,0.508971044189688,0.48221887088833,0.5,0.495494175450283,0.491028955810312,0.508971044189688,0.495494175450283,0.491028955810312,0.495494175450283,0.5,0.51778112911167,0.486603975162888,0.5,0.491028955810312,0.486603975162888,0.513396024837112,0.48447948211493,0.51552051788507,0.486603975162888,0.51778112911167,0.173692404572254,0.49957172280427,-0.486603975162888,-0.00438510427455768,0.5,0.00901164909943408,1.09979753588347,0.00354099750559489,2.77144276081725,0.5,74.9835716379025
CBC_1026,CBC_1026_MSI_TV_v3_Vset4_Tset3_2023-07-20_12h55.31.545.csv,3,36,0,2,b,1,0,0,tac,A,27,1,0A,2A,1,0,z,2.32127029999901,0,1,0,0,2A,0A,A02,3.23867845216438,0.508971044189688,0.48221887088833,0.5,0.495494175450283,0.491028955810312,0.508971044189688,0.495494175450283,0.491028955810312,0.495494175450283,0.5,0.51778112911167,0.48221887088833,0.5,0.491028955810312,0.486603975162888,0.513396024837112,0.495554359938598,0.504445640061402,0.5,0.508971044189688,0.185616753488486,0.500175142387003,-0.5,-0.00450582454971704,0.5,0.00901164909943408,1.09979753588347,0.00354099750559489,2.77144276081725,0.5,74.9835716379025
CBC_1026,CBC_1026_MSI_TV_v3_Vset4_Tset3_2023-07-20_12h55.31.545.csv,3,37,1,0,b,1,0,1,tac,B,63,1,1B,0B,1,0,b,2.72422609999921,1,0,1,1,1B,0B,B10,2.85263142991332,0.508971044189688,0.48221887088833,0.495494175450283,0.495494175450283,0.491028955810312,0.508971044189688,0.495494175450283,0.491028955810312,0.495494175450283,0.5,0.51778112911167,0.48221887088833,0.5,0.491028955810312,0.486603975162888,0.513396024837112,0.508971044189688,0.491028955810312,0.508971044189688,0.491028955810312,0.143484092786325,0.498424030230878,0.491028955810312,0.00442498064742405,0.5,0.00901164909943408,1.09979753588347,0.00354099750559489,2.77144276081725,0.5,74.9835716379025
CBC_1026,CBC_1026_MSI_TV_v3_Vset4_Tset3_2023-07-20_12h55.31.545.csv,3,38,3,1,z,0,1,1,tac,B,27,1,3B,1B,0,1,b,3.37717469999916,1,0,0,0,3B,1B,B31,3.27714473299218,0.508971044189688,0.48221887088833,0.495494175450283,0.495494175450283,0.491028955810312,0.513396024837112,0.495494175450283,0.491028955810312,0.495494175450283,0.5,0.51778112911167,0.48221887088833,0.5,0.491028955810312,0.486603975162888,0.513396024837112,0.488865734396419,0.511134265603581,0.491028955810312,0.513396024837112,0.0946829153529655,0.499986410833398,-0.491028955810312,-0.00442498064742405,0.5,0.00901164909943408,1.09979753588347,0.00354099750559489,2.77144276081725,0.5,74.9835716379025
CBC_1026,CBC_1026_MSI_TV_v3_Vset4_Tset3_2023-07-20_12h55.31.545.csv,3,39,3,2,z,0,1,3,tac,C,63,1,3C,2C,0,1,b,2.54204739999841,1,0,0,0,3C,2C,C32,2.37954613413017,0.508971044189688,0.48221887088833,0.495494175450283,0.495494175450283,0.491028955810312,0.513396024837112,0.495494175450283,0.486603975162888,0.495494175450283,0.5,0.51778112911167,0.48221887088833,0.5,0.491028955810312,0.486603975162888,0.513396024837112,0.48221887088833,0.51778112911167,0.48221887088833,0.51778112911167,0.161250325498752,0.498817979380365,-0.48221887088833,-0.00434558725357094,0.5,0.00901164909943408,1.09979753588347,0.00354099750559489,2.77144276081725,0.5,74.9835716379025
CBC_1026,CBC_1026_MSI_TV_v3_Vset4_Tset3_2023-07-20_12h55.31.545.csv,3,40,3,1,b,1,0,2,tac,D,27,1,3D,1D,1,0,z,2.75155879999875,0,1,0,0,1D,3D,D31,4.00733318523247,0.508971044189688,0.48221887088833,0.495494175450283,0.495494175450283,0.491028955810312,0.513396024837112,0.495494175450283,0.486603975162888,0.495494175450283,0.5,0.51778112911167,0.477873283634759,0.5,0.491028955810312,0.486603975162888,0.513396024837112,0.488865734396419,0.511134265603581,0.491028955810312,0.513396024837112,0.141537022052972,0.500324370274573,-0.491028955810312,-0.00442498064742405,0.5,0.00901164909943408,1.09979753588347,0.00354099750559489,2.77144276081725,0.5,74.9835716379025
CBC_1026,CBC_1026_MSI_TV_v3_Vset4_Tset3_2023-07-20_12h55.31.545.csv,3,41,1,2,z,0,1,3,tac,C,9,1,1C,2C,0,1,b,2.77264409999952,1,0,0,0,1C,2C,C12,4.02535169073515,0.508971044189688,0.48221887088833,0.495494175450283,0.495494175450283,0.491028955810312,0.513396024837112,0.495494175450283,0.486603975162888,0.495494175450283,0.5,0.51778112911167,0.477873283634759,0.5,0.486603975162888,0.486603975162888,0.513396024837112,0.491264757911561,0.508735242088439,0.5,0.51778112911167,0.139809074199342,0.50092495791051,-0.5,-0.00450582454971704,0.5,0.00901164909943408,1.09979753588347,0.00354099750559489,2.77144276081725,0.5,74.9835716379025
CBC_1026,CBC_1026_MSI_TV_v3_Vset4_Tset3_2023-07-20_12h55.31.545.csv,3,42,0,1,z,0,1,1,tac,B,63,0,0B,1B,1,0,b,3.46225199999935,1,0,0,1,0B,1B,B01,2.65675690671466,0.508971044189688,0.48221887088833,0.495494175450283,0.495494175450283,0.491028955810312,0.513396024837112,0.495494175450283,0.486603975162888,0.495494175450283,0.495494175450283,0.51778112911167,0.477873283634759,0.5,0.486603975162888,0.486603975162888,0.513396024837112,0.488865734396419,0.511134265603581,0.491028955810312,0.513396024837112,0.0896610382579262,0.500063529072767,0.508971044189688,0.00458666845201003,0.5,0.00901164909943408,1.09979753588347,0.00354099750559489,2.77144276081725,0.5,74.9835716379025
CBC_1026,CBC_1026_MSI_TV_v3_Vset4_Tset3_2023-07-20_12h55.31.545.csv,3,43,3,2,b,1,0,2,tac,D,63,1,3D,2D,1,0,z,3.08317039999929,0,1,0,0,2D,3D,D32,2.26868354131836,0.508971044189688,0.48221887088833,0.495494175450283,0.495494175450283,0.495615624262322,0.513396024837112,0.495494175450283,0.486603975162888,0.495494175450283,0.495494175450283,0.51778112911167,0.477873283634759,0.5,0.486603975162888,0.486603975162888,0.513396024837112,0.486603975162888,0.513396024837112,0.486603975162888,0.513396024837112,0.114596012979057,0.501025348932106,-0.486603975162888,-0.00438510427455768,0.5,0.00901164909943408,1.09979753588347,0.00354099750559489,2.77144276081725,0.5,74.9835716379025
CBC_1026,CBC_1026_MSI_TV_v3_Vset4_Tset3_2023-07-20_12h55.31.545.csv,3,44,0,1,b,1,0,0,tac,A,63,1,0A,1A,1,0,z,2.66667179999968,0,1,0,0,1A,0A,A01,2.97892515523761,0.508971044189688,0.48221887088833,0.495494175450283,0.495494175450283,0.495615624262322,0.513396024837112,0.495494175450283,0.486603975162888,0.495494175450283,0.495494175450283,0.51778112911167,0.477873283634759,0.5,0.486603975162888,0.48221887088833,0.513396024837112,0.486505021442206,0.513494978557794,0.48221887088833,0.508971044189688,0.149325838003713,0.500008790815133,-0.48221887088833,-0.00434558725357094,0.5,0.00901164909943408,1.09979753588347,0.00354099750559489,2.77144276081725,0.5,74.9835716379025
CBC_1026,CBC_1026_MSI_AV_v3_Vset1_Aset3_2023-07-20_13h03.59.061.csv,4,1,0,1,b,1,0,0,aud,A,63,1,0A,1A,1,0,z,2.52329439999994,0,1,0,0,1A,0A,A01,2.77258872223978,0.5,0.5,0.5,0.5,0.5,0.5,0.5,0.5,0.5,0.5,0.5,0.5,0.5,0.5,0.5,0.5,0.5,0.5,0.5,0.5,0.160579465551895,0.500570148210723,-0.5,-0.00536459987258137,0.5,0.0107291997451627,1.08668010322003,14.4733207102451,2.89105125894285,0.5,79.2443109218058
CBC_1026,CBC_1026_MSI_AV_v3_Vset1_Aset3_2023-07-20_13h03.59.061.csv,4,2,3,2,z,0,1,3,aud,C,63,1,3C,2C,0,1,z,2.9778879000005,0,1,1,1,2C,3C,C32,2.83321334405622,0.5,0.494635400127419,0.5,0.5,0.5,0.5,0.5,0.5,0.5,0.5,0.5,0.5,0.5,0.5,0.5,0.5,0.5,0.5,0.5,0.5,0.123157505939785,0.500607735828139,0.5,0.00536459987258137,0.5,0.0107291997451627,1.08668010322003,14.4733207102451,2.89105125894285,0.5,79.2443109218058
CBC_1026,CBC_1026_MSI_AV_v3_Vset1_Aset3_2023-07-20_13h03.59.061.csv,4,3,0,2,b,1,0,0,aud,A,27,1,0A,2A,1,0,b,2.58033160000014,1,0,1,1,0A,2A,A02,2.89037175789616,0.5,0.494635400127419,0.5,0.5,0.5,0.5,0.5,0.5,0.5,0.5,0.505364599872581,0.5,0.5,0.5,0.5,0.5,0.5,0.5,0.5,0.5,0.155361296039181,0.500488667215379,0.5,0.00536459987258137,0.5,0.0107291997451627,1.08668010322003,14.4733207102451,2.89105125894285,0.5,79.2443109218058
CBC_1026,CBC_1026_MSI_AV_v3_Vset1_Aset3_2023-07-20_13h03.59.061.csv,4,4,1,0,b,1,0,1,aud,B,63,1,1B,0B,1,0,z,2.81310309999935,0,1,0,0,0B,1B,B10,2.94443897916644,0.505364599872581,0.494635400127419,0.5,0.5,0.5,0.5,0.5,0.5,0.5,0.5,0.505364599872581,0.5,0.5,0.5,0.5,0.5,0.5,0.5,0.5,0.5,0.135387464038207,0.499533473251997,-0.5,-0.00536459987258137,0.5,0.0107291997451627,1.08668010322003,14.4733207102451,2.89105125894285,0.5,79.2443109218058
CBC_1026,CBC_1026_MSI_AV_v3_Vset1_Aset3_2023-07-20_13h03.59.061.csv,4,5,0,1,z,0,1,1,aud,B,63,1,0B,1B,0,1,z,3.14042440000048,0,1,1,1,1B,0B,B01,2.99573227355399,0.505364599872581,0.494635400127419,0.5,0.5,0.494635400127419,0.5,0.5,0.5,0.5,0.5,0.505364599872581,0.5,0.5,0.5,0.5,0.5,0.502696767012261,0.497303232987739,0.5,0.494635400127419,0.124702948324443,0.557768999787319,0.5,0.00536459987258137,0.5,0.0107291997451627,1.08668010322003,14.4733207102451,2.89105125894285,0.5,79.2443109218058
CBC_1026,CBC_1026_MSI_AV_v3_Vset1_Aset3_2023-07-20_13h03.59.061.csv,4,6,3,2,z,0,1,3,aud,C,63,1,3C,2C,0,1,b,2.99370930000077,1,0,0,0,3C,2C,C32,2.35137525716348,0.505364599872581,0.494635400127419,0.5,0.5,0.494635400127419,0.505364599872581,0.5,0.5,0.5,0.5,0.505364599872581,0.5,0.5,0.5,0.5,0.5,0.497332012747783,0.502667987252217,0.5,0.505364599872581,0.10851939291387,0.445002573915582,-0.5,-0.00536459987258137,0.5,0.0107291997451627,1.08668010322003,14.4733207102451,2.89105125894285,0.5,79.2443109218058
CBC_1026,CBC_1026_MSI_AV_v3_Vset1_Aset3_2023-07-20_13h03.59.061.csv,4,7,3,1,b,1,0,2,aud,D,27,1,3D,1D,1,0,b,2.69876710000062,1,0,1,1,3D,1D,D31,3.09104245335832,0.505364599872581,0.494635400127419,0.5,0.5,0.494635400127419,0.505364599872581,0.5,0.5,0.5,0.5,0.505364599872581,0.494635400127419,0.5,0.5,0.5,0.5,0.5,0.5,0.5,0.5,0.144813120504875,0.499741217161772,0.5,0.00536459987258137,0.5,0.0107291997451627,1.08668010322003,14.4733207102451,2.89105125894285,0.5,79.2443109218058
CBC_1026,CBC_1026_MSI_AV_v3_Vset1_Aset3_2023-07-20_13h03.59.061.csv,4,8,1,2,z,0,1,3,aud,C,9,1,1C,2C,0,1,b,2.86995129999923,1,0,0,0,1C,2C,C12,3.13549421592915,0.505364599872581,0.494635400127419,0.5,0.5,0.494635400127419,0.505364599872581,0.5,0.5,0.5,0.5,0.505364599872581,0.494635400127419,0.5,0.5,0.5,0.505364599872581,0.497332012747783,0.502667987252217,0.5,0.505364599872581,0.116731558639001,0.444916855235708,-0.5,-0.00536459987258137,0.5,0.0107291997451627,1.08668010322003,14.4733207102451,2.89105125894285,0.5,79.2443109218058
CBC_1026,CBC_1026_MSI_AV_v3_Vset1_Aset3_2023-07-20_13h03.59.061.csv,4,9,3,1,z,0,1,1,aud,B,27,1,3B,1B,0,1,b,2.53492600000027,1,0,0,0,3B,1B,B31,3.17805383034795,0.505364599872581,0.494635400127419,0.5,0.5,0.494635400127419,0.505364599872581,0.5,0.5,0.5,0.494635400127419,0.505364599872581,0.494635400127419,0.5,0.5,0.5,0.505364599872581,0.497332012747783,0.502667987252217,0.5,0.505364599872581,0.142291022583012,0.445727826697304,-0.5,-0.00536459987258137,0.5,0.0107291997451627,1.08668010322003,14.4733207102451,2.89105125894285,0.5,79.2443109218058
CBC_1026,CBC_1026_MSI_AV_v3_Vset1_Aset3_2023-07-20_13h03.59.061.csv,4,10,3,2,b,1,0,2,aud,D,63,1,3D,2D,1,0,b,2.52119940000011,1,0,1,1,3D,2D,D32,3.2188758248682,0.505364599872581,0.494635400127419,0.5,0.5,0.494635400127419,0.505364599872581,0.5,0.494635400127419,0.5,0.494635400127419,0.505364599872581,0.494635400127419,0.5,0.5,0.5,0.505364599872581,0.502667987252217,0.497332012747783,0.505364599872581,0.5,0.178760045859025,0.555498565393259,0.494635400127419,0.00530704200899557,0.5,0.0107291997451627,1.08668010322003,14.4733207102451,2.89105125894285,0.5,79.2443109218058
CBC_1026,CBC_1026_MSI_AV_v3_Vset1_Aset3_2023-07-20_13h03.59.061.csv,4,11,1,0,b,1,0,1,aud,B,63,1,1B,0B,1,0,z,2.51502540000001,0,1,0,0,0B,1B,B10,2.56494935746154,0.505364599872581,0.494635400127419,0.5,0.5,0.494635400127419,0.505364599872581,0.5,0.494635400127419,0.5,0.494635400127419,0.505364599872581,0.494635400127419,0.5,0.5,0.5,0.510671641881577,0.494635400127419,0.505364599872581,0.494635400127419,0.505364599872581,0.126840864796797,0.390532844706358,-0.494635400127419,-0.00530704200899557,0.5,0.0107291997451627,1.08668010322003,14.4733207102451,2.89105125894285,0.5,79.2443109218058
CBC_1026,CBC_1026_MSI_AV_v3_Vset1_Aset3_2023-07-20_13h03.59.061.csv,4,12,0,2,z,0,1,3,aud,C,27,1,0C,2C,0,1,b,2.61604299999999,1,0,0,0,0C,2C,C02,3.29583686600433,0.505364599872581,0.494635400127419,0.5,0.5,0.489328358118423,0.505364599872581,0.5,0.494635400127419,0.5,0.494635400127419,0.505364599872581,0.494635400127419,0.5,0.5,0.5,0.510671641881577,0.497332012747783,0.502667987252217,0.5,0.505364599872581,0.134976218116555,0.443136299589831,-0.5,-0.00536459987258137,0.5,0.0107291997451627,1.08668010322003,14.4733207102451,2.89105125894285,0.5,79.2443109218058
CBC_1026,CBC_1026_MSI_AV_v3_Vset1_Aset3_2023-07-20_13h03.59.061.csv,4,13,3,2,b,1,0,2,aud,D,63,0,3D,2D,0,1,b,2.96428709999964,1,0,1,0,3D,2D,D32,2.63905732961526,0.505364599872581,0.494635400127419,0.5,0.5,0.489328358118423,0.505364599872581,0.5,0.494635400127419,0.494635400127419,0.494635400127419,0.505364599872581,0.494635400127419,0.5,0.5,0.5,0.510671641881577,0.505279480218575,0.494720519781425,0.510671641881577,0.5,0.15117340994138,0.608211469270056,-0.510671641881577,-0.00547909804993765,0.5,0.0107291997451627,1.08668010322003,14.4733207102451,2.89105125894285,0.5,79.2443109218058
CBC_1026,CBC_1026_MSI_AV_v3_Vset1_Aset3_2023-07-20_13h03.59.061.csv,4,14,1,0,z,0,1,0,aud,A,63,1,1A,0A,0,1,b,2.79306069999984,1,0,0,0,1A,0A,A10,3.36729582998647,0.505364599872581,0.494635400127419,0.5,0.5,0.489328358118423,0.505364599872581,0.5,0.494635400127419,0.494635400127419,0.494635400127419,0.505364599872581,0.494635400127419,0.5,0.5,0.5,0.505192543831639,0.494635400127419,0.505364599872581,0.494635400127419,0.505364599872581,0.107767899570899,0.391305054907666,-0.494635400127419,-0.00530704200899557,0.5,0.0107291997451627,1.08668010322003,14.4733207102451,2.89105125894285,0.5,79.2443109218058
CBC_1026,CBC_1026_MSI_AV_v3_Vset1_Aset3_2023-07-20_13h03.59.061.csv,4,15,2,3,b,1,0,3,aud,C,63,1,2C,3C,1,0,z,1.56782489999932,0,1,0,0,3C,2C,C23,3.40119738166216,0.505364599872581,0.489328358118423,0.5,0.5,0.489328358118423,0.505364599872581,0.5,0.494635400127419,0.494635400127419,0.494635400127419,0.505364599872581,0.494635400127419,0.5,0.5,0.5,0.505192543831639,0.494635400127419,0.505364599872581,0.494635400127419,0.505364599872581,0.156739735311901,0.390344685150536,-0.494635400127419,-0.00530704200899557,0.5,0.0107291997451627,1.08668010322003,14.4733207102451,2.89105125894285,0.5,79.2443109218058
CBC_1026,CBC_1026_MSI_AV_v3_Vset1_Aset3_2023-07-20_13h03.59.061.csv,4,16,0,2,b,1,0,0,aud,A,27,1,0A,2A,1,0,b,2.83411690000139,1,0,1,1,0A,2A,A02,2.7408400239252,0.505364599872581,0.489328358118423,0.5,0.5,0.489328358118423,0.505364599872581,0.5,0.494635400127419,0.494635400127419,0.494635400127419,0.505364599872581,0.489328358118423,0.5,0.5,0.5,0.505192543831639,0.502667987252217,0.497332012747783,0.505364599872581,0.5,0.149014126848901,0.556059849594643,0.494635400127419,0.00530704200899557,0.5,0.0107291997451627,1.08668010322003,14.4733207102451,2.89105125894285,0.5,79.2443109218058
CBC_1026,CBC_1026_MSI_AV_v3_Vset1_Aset3_2023-07-20_13h03.59.061.csv,4,17,2,3,z,0,1,2,aud,D,63,1,2D,3D,0,1,z,4.53219920000083,0,1,1,1,3D,2D,D23,3.46573590279973,0.510671641881577,0.489328358118423,0.5,0.5,0.489328358118423,0.505364599872581,0.5,0.494635400127419,0.494635400127419,0.494635400127419,0.505364599872581,0.489328358118423,0.5,0.5,0.5,0.505192543831639,0.502582860300498,0.497417139699502,0.505192543831639,0.5,0.054252398775631,0.553976941324901,0.494807456168361,0.0053088880326262,0.5,0.0107291997451627,1.08668010322003,14.4733207102451,2.89105125894285,0.5,79.2443109218058
CBC_1026,CBC_1026_MSI_AV_v3_Vset1_Aset3_2023-07-20_13h03.59.061.csv,4,18,3,2,b,1,0,2,aud,D,63,1,3D,2D,1,0,b,2.37635520000003,1,0,1,1,3D,2D,D32,2.39789527279837,0.510671641881577,0.489328358118423,0.5,0.5,0.489328358118423,0.505364599872581,0.5,0.494635400127419,0.494635400127419,0.494635400127419,0.505364599872581,0.489328358118423,0.5,0.5,0.5,0.510501431864265,0.505196148928207,0.494803851071793,0.510501431864265,0.5,0.213736775722823,0.607537023102535,0.489498568135735,0.00525192791249945,0.5,0.0107291997451627,1.08668010322003,14.4733207102451,2.89105125894285,0.5,79.2443109218058
CBC_1026,CBC_1026_MSI_AV_v3_Vset1_Aset3_2023-07-20_13h03.59.061.csv,4,19,3,1,z,0,1,1,aud,B,27,1,3B,1B,0,1,z,2.78584260000025,0,1,1,1,1B,3B,B31,2.83321334405622,0.510671641881577,0.489328358118423,0.5,0.5,0.489328358118423,0.505364599872581,0.5,0.494635400127419,0.494635400127419,0.494635400127419,0.505364599872581,0.489328358118423,0.5,0.5,0.5,0.515753359776765,0.505364599872581,0.494635400127419,0.505364599872581,0.494635400127419,0.168940056950351,0.610683937359521,0.494635400127419,0.00530704200899557,0.5,0.0107291997451627,1.08668010322003,14.4733207102451,2.89105125894285,0.5,79.2443109218058
CBC_1026,CBC_1026_MSI_AV_v3_Vset1_Aset3_2023-07-20_13h03.59.061.csv,4,20,0,3,z,0,1,2,aud,D,9,1,0D,3D,0,1,z,2.57198900000003,0,1,1,1,3D,0D,D03,3.55534806148941,0.510671641881577,0.489328358118423,0.5,0.5,0.489328358118423,0.510671641881577,0.5,0.494635400127419,0.494635400127419,0.494635400127419,0.505364599872581,0.489328358118423,0.5,0.5,0.5,0.515753359776765,0.507754520142679,0.492245479857321,0.515753359776765,0.5,0.207884945318702,0.656968160198796,0.484246640223235,0.00519557892887904,0.5,0.0107291997451627,1.08668010322003,14.4733207102451,2.89105125894285,0.5,79.2443109218058
CBC_1026,CBC_1026_MSI_AV_v3_Vset1_Aset3_2023-07-20_13h03.59.061.csv,4,21,1,0,b,1,0,1,aud,B,63,1,1B,0B,1,0,b,2.38708240000051,1,0,1,1,1B,0B,B10,2.484906649788,0.510671641881577,0.489328358118423,0.5,0.5,0.489328358118423,0.510671641881577,0.5,0.494635400127419,0.494635400127419,0.494635400127419,0.505364599872581,0.489328358118423,0.5,0.5,0.5,0.520948938705644,0.510671641881577,0.489328358118423,0.510671641881577,0.489328358118423,0.254937425699165,0.71039843418131,0.489328358118423,0.00525010169522508,0.5,0.0107291997451627,1.08668010322003,14.4733207102451,2.89105125894285,0.5,79.2443109218058
CBC_1026,CBC_1026_MSI_AV_v3_Vset1_Aset3_2023-07-20_13h03.59.061.csv,4,22,1,0,z,0,1,0,aud,A,63,1,1A,0A,0,1,b,2.84703029999946,1,0,0,0,1A,0A,A10,2.91777073208428,0.510671641881577,0.489328358118423,0.5,0.5,0.489328358118423,0.515921743576802,0.5,0.494635400127419,0.494635400127419,0.494635400127419,0.505364599872581,0.489328358118423,0.5,0.5,0.5,0.520948938705644,0.489328358118423,0.510671641881577,0.489328358118423,0.510671641881577,0.0781813270173322,0.290592093857201,-0.489328358118423,-0.00525010169522508,0.5,0.0107291997451627,1.08668010322003,14.4733207102451,2.89105125894285,0.5,79.2443109218058
CBC_1026,CBC_1026_MSI_AV_v3_Vset1_Aset3_2023-07-20_13h03.59.061.csv,4,23,2,3,b,1,0,3,aud,C,63,1,2C,3C,1,0,z,3.81948730000113,0,1,0,0,3C,2C,C23,2.94443897916644,0.510671641881577,0.484078256423198,0.5,0.5,0.489328358118423,0.515921743576802,0.5,0.494635400127419,0.494635400127419,0.494635400127419,0.505364599872581,0.489328358118423,0.5,0.5,0.5,0.520948938705644,0.491939099585792,0.508060900414208,0.489328358118423,0.505364599872581,0.0495657784818498,0.337236324986852,-0.489328358118423,-0.00525010169522508,0.5,0.0107291997451627,1.08668010322003,14.4733207102451,2.89105125894285,0.5,79.2443109218058
CBC_1026,CBC_1026_MSI_AV_v3_Vset1_Aset3_2023-07-20_13h03.59.061.csv,4,24,0,2,b,1,0,0,aud,A,27,1,0A,2A,1,0,b,2.57981100000143,1,0,1,1,0A,2A,A02,2.56494935746154,0.510671641881577,0.484078256423198,0.5,0.5,0.489328358118423,0.515921743576802,0.5,0.494635400127419,0.494635400127419,0.494635400127419,0.505364599872581,0.484078256423198,0.5,0.5,0.5,0.520948938705644,0.505279480218575,0.494720519781425,0.510671641881577,0.5,0.19013511629162,0.608230916358024,0.489328358118423,0.00525010169522508,0.5,0.0107291997451627,1.08668010322003,14.4733207102451,2.89105125894285,0.5,79.2443109218058
CBC_1026,CBC_1026_MSI_AV_v3_Vset1_Aset3_2023-07-20_13h03.59.061.csv,4,25,1,0,b,1,0,1,aud,B,63,1,1B,0B,1,0,b,3.80549450000035,1,0,1,1,1B,0B,B10,2.30258509299405,0.515921743576802,0.484078256423198,0.5,0.5,0.489328358118423,0.515921743576802,0.5,0.494635400127419,0.494635400127419,0.494635400127419,0.505364599872581,0.484078256423198,0.5,0.5,0.5,0.520948938705644,0.513227248330307,0.486772751669693,0.515921743576802,0.489328358118423,0.107540496507288,0.751135578502391,0.484078256423198,0.0051937723054546,0.5,0.0107291997451627,1.08668010322003,14.4733207102451,2.89105125894285,0.5,79.2443109218058
CBC_1026,CBC_1026_MSI_AV_v3_Vset1_Aset3_2023-07-20_13h03.59.061.csv,4,26,2,3,z,0,1,2,aud,D,63,1,2D,3D,0,1,z,2.3882934000012,0,1,1,1,3D,2D,D23,3.02042488614436,0.515921743576802,0.484078256423198,0.5,0.5,0.489328358118423,0.521115515882257,0.5,0.494635400127419,0.494635400127419,0.494635400127419,0.505364599872581,0.484078256423198,0.5,0.5,0.5,0.520948938705644,0.510259542819156,0.489740457180844,0.520948938705644,0.5,0.251136363471427,0.702242661636777,0.479051061294356,0.00513983452475934,0.5,0.0107291997451627,1.08668010322003,14.4733207102451,2.89105125894285,0.5,79.2443109218058
CBC_1026,CBC_1026_MSI_AV_v3_Vset1_Aset3_2023-07-20_13h03.59.061.csv,4,27,1,2,b,1,0,1,aud,B,9,1,1B,2B,1,0,b,2.58111360000112,1,0,1,1,1B,2B,B12,3.73766961828337,0.515921743576802,0.484078256423198,0.5,0.5,0.489328358118423,0.521115515882257,0.5,0.494635400127419,0.494635400127419,0.494635400127419,0.505364599872581,0.484078256423198,0.5,0.5,0.5,0.526088773230403,0.510339435428132,0.489660564571868,0.521115515882257,0.5,0.223905787454536,0.704484516786524,0.478884484117743,0.00513804728495848,0.5,0.0107291997451627,1.08668010322003,14.4733207102451,2.89105125894285,0.5,79.2443109218058
CBC_1026,CBC_1026_MSI_AV_v3_Vset1_Aset3_2023-07-20_13h03.59.061.csv,4,28,1,3,z,0,1,2,aud,D,27,1,1D,3D,0,1,z,2.09254229999897,0,1,1,1,3D,1D,D13,3.76120011569356,0.515921743576802,0.484078256423198,0.5,0.5,0.489328358118423,0.526253563167215,0.5,0.494635400127419,0.494635400127419,0.494635400127419,0.505364599872581,0.484078256423198,0.5,0.5,0.5,0.526088773230403,0.512712727159205,0.487287272840795,0.526088773230403,0.5,0.321374018728616,0.743262591433471,0.473911226769597,0.00508468821348612,0.5,0.0107291997451627,1.08668010322003,14.4733207102451,2.89105125894285,0.5,79.2443109218058
CBC_1026,CBC_1026_MSI_AV_v3_Vset1_Aset3_2023-07-20_13h03.59.061.csv,4,29,1,0,z,0,1,0,aud,A,63,1,1A,0A,0,1,z,5.39922009999827,0,1,1,1,0A,1A,A10,2.68557734525015,0.515921743576802,0.484078256423198,0.5,0.5,0.489328358118423,0.526253563167215,0.5,0.494635400127419,0.494635400127419,0.494635400127419,0.505364599872581,0.484078256423198,0.5,0.5,0.5,0.531173461443889,0.515921743576802,0.484078256423198,0.515921743576802,0.484078256423198,0.0362870084921608,0.791058181243135,0.484078256423198,0.0051937723054546,0.5,0.0107291997451627,1.08668010322003,14.4733207102451,2.89105125894285,0.5,79.2443109218058
CBC_1026,CBC_1026_MSI_AV_v3_Vset1_Aset3_2023-07-20_13h03.59.061.csv,4,30,0,1,b,1,0,0,aud,A,63,1,0A,1A,1,0,b,2.56516910000028,1,0,1,1,0A,1A,A01,3.11351530921037,0.521115515882257,0.484078256423198,0.5,0.5,0.489328358118423,0.526253563167215,0.5,0.494635400127419,0.494635400127419,0.494635400127419,0.505364599872581,0.484078256423198,0.5,0.5,0.5,0.531173461443889,0.518422945147239,0.481577054852761,0.521115515882257,0.484078256423198,0.274285569106558,0.823714966111242,0.478884484117743,0.00513804728495848,0.5,0.0107291997451627,1.08668010322003,14.4733207102451,2.89105125894285,0.5,79.2443109218058
CBC_1026,CBC_1026_MSI_AV_v3_Vset1_Aset3_2023-07-20_13h03.59.061.csv,4,31,0,2,z,0,1,3,aud,C,27,1,0C,2C,0,1,b,2.72288450000087,1,0,0,0,0C,2C,C02,3.13549421592915,0.526253563167215,0.484078256423198,0.5,0.5,0.489328358118423,0.526253563167215,0.5,0.494635400127419,0.494635400127419,0.494635400127419,0.505364599872581,0.484078256423198,0.5,0.5,0.5,0.531173461443889,0.494635400127419,0.505364599872581,0.494635400127419,0.505364599872581,0.112109643721634,0.390338694427555,-0.494635400127419,-0.00530704200899557,0.5,0.0107291997451627,1.08668010322003,14.4733207102451,2.89105125894285,0.5,79.2443109218058
CBC_1026,CBC_1026_MSI_AV_v3_Vset1_Aset3_2023-07-20_13h03.59.061.csv,4,32,1,0,z,0,1,0,aud,A,63,1,1A,0A,0,1,z,2.68786129999899,0,1,1,1,0A,1A,A10,2.46385324059017,0.526253563167215,0.484078256423198,0.5,0.5,0.489328358118423,0.526253563167215,0.5,0.494635400127419,0.489328358118423,0.494635400127419,0.505364599872581,0.484078256423198,0.5,0.5,0.5,0.531173461443889,0.520872007555456,0.479127992444544,0.526253563167215,0.484078256423198,0.260860034133082,0.851955966843704,0.473746436832785,0.00508292014933807,0.5,0.0107291997451627,1.08668010322003,14.4733207102451,2.89105125894285,0.5,79.2443109218058
CBC_1026,CBC_1026_MSI_AV_v3_Vset1_Aset3_2023-07-20_13h03.59.061.csv,4,33,1,0,b,1,0,1,aud,B,63,1,1B,0B,1,0,z,2.35938399999941,0,1,0,0,0B,1B,B10,2.26176309847379,0.531336483316553,0.484078256423198,0.5,0.5,0.489328358118423,0.526253563167215,0.5,0.494635400127419,0.489328358118423,0.494635400127419,0.505364599872581,0.484078256423198,0.5,0.5,0.5,0.531173461443889,0.481820666420466,0.518179333579534,0.489328358118423,0.526253563167215,0.0691086043365917,0.179691424987098,-0.489328358118423,-0.00525010169522508,0.5,0.0107291997451627,1.08668010322003,14.4733207102451,2.89105125894285,0.5,79.2443109218058
CBC_1026,CBC_1026_MSI_AV_v3_Vset1_Aset3_2023-07-20_13h03.59.061.csv,4,34,3,2,b,1,0,2,aud,D,63,1,3D,2D,1,0,b,2.66806580000048,1,0,1,1,3D,2D,D32,2.50552593699074,0.531336483316553,0.484078256423198,0.5,0.5,0.484078256423198,0.526253563167215,0.5,0.494635400127419,0.489328358118423,0.494635400127419,0.505364599872581,0.484078256423198,0.5,0.5,0.5,0.531173461443889,0.515115527410994,0.484884472589006,0.531173461443889,0.5,0.238625688742738,0.779834418189671,0.468826538556111,0.00503013357800175,0.5,0.0107291997451627,1.08668010322003,14.4733207102451,2.89105125894285,0.5,79.2443109218058
CBC_1026,CBC_1026_MSI_AV_v3_Vset1_Aset3_2023-07-20_13h03.59.061.csv,4,35,3,1,z,0,1,1,aud,B,27,1,3B,1B,0,1,z,2.48380629999883,0,1,1,1,1B,3B,B31,2.81341071676004,0.531336483316553,0.484078256423198,0.5,0.5,0.484078256423198,0.526253563167215,0.5,0.494635400127419,0.489328358118423,0.494635400127419,0.505364599872581,0.484078256423198,0.5,0.5,0.5,0.536203595021891,0.51548560332054,0.48451439667946,0.526253563167215,0.494635400127419,0.27290775058096,0.785903736951073,0.473746436832785,0.00508292014933807,0.5,0.0107291997451627,1.08668010322003,14.4733207102451,2.89105125894285,0.5,79.2443109218058
CBC_1026,CBC_1026_MSI_AV_v3_Vset1_Aset3_2023-07-20_13h03.59.061.csv,4,36,3,2,z,0,1,3,aud,C,63,1,3C,2C,0,1,b,2.83790100000078,1,0,0,0,3C,2C,C32,2.83321334405622,0.531336483316553,0.484078256423198,0.5,0.5,0.484078256423198,0.531336483316553,0.5,0.494635400127419,0.489328358118423,0.494635400127419,0.505364599872581,0.484078256423198,0.5,0.5,0.5,0.536203595021891,0.489243267908834,0.510756732091166,0.484078256423198,0.505364599872581,0.0780278589443327,0.288273753061081,-0.484078256423198,-0.00519377230545459,0.5,0.0107291997451627,1.08668010322003,14.4733207102451,2.89105125894285,0.5,79.2443109218058
CBC_1026,CBC_1026_MSI_AV_v3_Vset1_Aset3_2023-07-20_13h03.59.061.csv,4,37,2,0,b,1,0,3,aud,C,27,1,2C,0C,1,0,z,2.51294710000002,0,1,0,0,0C,2C,C20,3.95124371858143,0.531336483316553,0.484078256423198,0.5,0.5,0.484078256423198,0.531336483316553,0.5,0.494635400127419,0.489328358118423,0.494635400127419,0.505364599872581,0.478884484117743,0.5,0.5,0.5,0.536203595021891,0.491939099585792,0.508060900414208,0.489328358118423,0.505364599872581,0.110589226524556,0.336873184282522,-0.489328358118423,-0.00525010169522508,0.5,0.0107291997451627,1.08668010322003,14.4733207102451,2.89105125894285,0.5,79.2443109218058
CBC_1026,CBC_1026_MSI_AV_v3_Vset1_Aset3_2023-07-20_13h03.59.061.csv,4,38,1,0,b,1,0,1,aud,B,63,1,1B,0B,NaN,NaN,[],NaN,NaN,NaN,NaN,NaN,,,B10,2.17853244432407,0.531336483316553,0.484078256423198,0.5,0.5,0.484078256423198,0.531336483316553,0.5,0.494635400127419,0.484078256423198,0.494635400127419,0.505364599872581,0.478884484117743,0.5,0.5,0.5,0.536203595021891,0,0,0,0,NaN,0,0,0,0.5,0.0107291997451627,1.08668010322003,14.4733207102451,2.89105125894285,0.5,79.2443109218058
CBC_1026,CBC_1026_MSI_AV_v3_Vset1_Aset3_2023-07-20_13h03.59.061.csv,4,39,3,0,z,0,1,0,aud,A,9,1,3A,0A,0,1,z,2.78328990000045,0,1,1,1,0A,3A,A30,3.98898404656427,0.531336483316553,0.484078256423198,0.5,0.5,0.484078256423198,0.531336483316553,0.5,0.494635400127419,0.484078256423198,0.494635400127419,0.505364599872581,0.478884484117743,0.5,0.5,0.5,0.536203595021891,0.515192172401282,0.484807827598718,0.531336483316553,0.5,0.22117433109052,0.781524254672018,0.468663516683447,0.00502838448376711,0.5,0.0107291997451627,1.08668010322003,14.4733207102451,2.89105125894285,0.5,79.2443109218058
CBC_1026,CBC_1026_MSI_AV_v3_Vset1_Aset3_2023-07-20_13h03.59.061.csv,4,40,3,2,z,0,1,3,aud,C,63,0,3C,2C,1,0,b,2.78844879999997,1,0,0,1,3C,2C,C32,2.62103882411258,0.53636486780032,0.484078256423198,0.5,0.5,0.484078256423198,0.531336483316553,0.5,0.494635400127419,0.484078256423198,0.494635400127419,0.505364599872581,0.478884484117743,0.5,0.5,0.5,0.536203595021891,0.486548061773407,0.513451938226593,0.478884484117743,0.505364599872581,0.0687930402998643,0.244811762363486,0.521115515882257,0.00559115246020425,0.5,0.0107291997451627,1.08668010322003,14.4733207102451,2.89105125894285,0.5,79.2443109218058
