ID,filename,session,trial,visStimLeft,visStimRight,correctKey,leftCorrect,rightCorrect,secondStim,mod2Type,mod2Stim,frequency,rewardAccurate,stimPairLeft,stimPairRight,pCorrectLeft,pCorrectRight,key,reactionTime,choiceLeft,choiceRight,choiceAccurate,reward,chosenPair,otherPair,triplet,surprise,0A belief,1A belief,2A belief,3A belief,0B belief,1B belief,2B belief,3B belief,0C belief,1C belief,2C belief,3C belief,0D belief,1D belief,2D belief,3D belief,beliefPairNorm,beliefOtherPairNorm,beliefPair,beliefOtherPair,lik,corrLik,rewardPE,update2,fitCBCsimpleRW_CBCdriftDiffusionLR_pwBelief_startBelief,fitCBCsimpleRW_CBCdriftDiffusionLR_pwBelief_alpha1,fitCBCsimpleRW_CBCdriftDiffusionLR_pwBelief_nonDecisionTime,fitCBCsimpleRW_CBCdriftDiffusionLR_pwBelief_weight,fitCBCsimpleRW_CBCdriftDiffusionLR_pwBelief_startingBoundary,fitCBCsimpleRW_CBCdriftDiffusionLR_pwBelief_startingPoint,fit_CBCsimpleRW_CBCdriftDiffusionLR_pwBelief_NLL
CBC_1026,CBC_1026_MSI_TV_v3_Vset6_Tset1_2023-07-20_11h47.13.772.csv,1,1,2,0,b,1,0,3,tac,C,27,1,2C,0C,1,0,z,2.81258230000003,0,1,0,0,0C,2C,C20,2.77258872223978,0.5,0.5,0.5,0.5,0.5,0.5,0.5,0.5,0.5,0.5,0.5,0.5,0.5,0.5,0.5,0.5,0.5,0.5,0.5,0.5,0.136423418082227,0.499984920255958,-0.5,-0.00190512490178157,0.5,0.00381024980356315,1.09999229474516,0.0066138965986613,2.97169514148373,0.5,86.1343867734397
CBC_1026,CBC_1026_MSI_TV_v3_Vset6_Tset1_2023-07-20_11h47.13.772.csv,1,2,3,2,b,1,0,2,tac,D,63,1,3D,2D,1,0,z,3.51269599999978,0,1,0,0,2D,3D,D32,2.83321334405622,0.5,0.5,0.5,0.5,0.5,0.5,0.5,0.5,0.498094875098218,0.5,0.5,0.5,0.5,0.5,0.5,0.5,0.5,0.5,0.5,0.5,0.0924350479123741,0.500291130931719,-0.5,-0.00190512490178157,0.5,0.00381024980356315,1.09999229474516,0.0066138965986613,2.97169514148373,0.5,86.1343867734397
CBC_1026,CBC_1026_MSI_TV_v3_Vset6_Tset1_2023-07-20_11h47.13.772.csv,1,3,1,0,z,0,1,0,tac,A,63,1,1A,0A,0,1,b,3.11569829999917,1,0,0,0,1A,0A,A10,2.89037175789616,0.5,0.5,0.5,0.5,0.5,0.5,0.5,0.5,0.498094875098218,0.5,0.5,0.5,0.5,0.5,0.498094875098218,0.5,0.5,0.5,0.5,0.5,0.115235268362862,0.499755583874297,-0.5,-0.00190512490178157,0.5,0.00381024980356315,1.09999229474516,0.0066138965986613,2.97169514148373,0.5,86.1343867734397
CBC_1026,CBC_1026_MSI_TV_v3_Vset6_Tset1_2023-07-20_11h47.13.772.csv,1,4,2,3,b,1,0,3,tac,C,63,1,2C,3C,1,0,b,2.5440865999999,1,0,1,1,2C,3C,C23,2.94443897916644,0.5,0.498094875098218,0.5,0.5,0.5,0.5,0.5,0.5,0.498094875098218,0.5,0.5,0.5,0.5,0.5,0.498094875098218,0.5,0.5,0.5,0.5,0.5,0.157524315721353,0.498528499569107,0.5,0.00190512490178157,0.5,0.00381024980356315,1.09999229474516,0.0066138965986613,2.97169514148373,0.5,86.1343867734397
CBC_1026,CBC_1026_MSI_TV_v3_Vset6_Tset1_2023-07-20_11h47.13.772.csv,1,5,0,2,b,1,0,0,tac,A,27,1,0A,2A,1,0,b,3.45399779999934,1,0,1,1,0A,2A,A02,2.99573227355399,0.5,0.498094875098218,0.5,0.5,0.5,0.5,0.5,0.5,0.498094875098218,0.5,0.501905124901782,0.5,0.5,0.5,0.498094875098218,0.5,0.5,0.5,0.5,0.5,0.0952144955374319,0.49871464612691,0.5,0.00190512490178157,0.5,0.00381024980356315,1.09999229474516,0.0066138965986613,2.97169514148373,0.5,86.1343867734397
CBC_1026,CBC_1026_MSI_TV_v3_Vset6_Tset1_2023-07-20_11h47.13.772.csv,1,6,2,3,z,0,1,2,tac,D,63,1,2D,3D,0,1,z,3.88617089999934,0,1,1,1,3D,2D,D23,3.04452243772342,0.501905124901782,0.498094875098218,0.5,0.5,0.5,0.5,0.5,0.5,0.498094875098218,0.5,0.501905124901782,0.5,0.5,0.5,0.498094875098218,0.5,0.501905124901782,0.498094875098218,0.5,0.498094875098218,0.0752621654712546,0.501855908932547,0.5,0.00190512490178157,0.5,0.00381024980356315,1.09999229474516,0.0066138965986613,2.97169514148373,0.5,86.1343867734397
CBC_1026,CBC_1026_MSI_TV_v3_Vset6_Tset1_2023-07-20_11h47.13.772.csv,1,7,3,2,b,1,0,2,tac,D,63,1,3D,2D,1,0,b,2.69306169999982,1,0,1,1,3D,2D,D32,2.39789527279837,0.501905124901782,0.498094875098218,0.5,0.5,0.5,0.5,0.5,0.5,0.498094875098218,0.5,0.501905124901782,0.5,0.5,0.5,0.498094875098218,0.501905124901782,0.503810194487146,0.496189805512854,0.501905124901782,0.498094875098218,0.145790057854182,0.500294907246482,0.498094875098218,0.0018978658999988,0.5,0.00381024980356315,1.09999229474516,0.0066138965986613,2.97169514148373,0.5,86.1343867734397
CBC_1026,CBC_1026_MSI_TV_v3_Vset6_Tset1_2023-07-20_11h47.13.772.csv,1,8,3,1,z,0,1,1,tac,B,27,1,3B,1B,0,1,z,2.64373950000027,0,1,1,1,1B,3B,B31,3.13549421592915,0.501905124901782,0.498094875098218,0.5,0.5,0.5,0.5,0.5,0.5,0.498094875098218,0.5,0.501905124901782,0.5,0.5,0.5,0.498094875098218,0.50380299080178,0.5,0.5,0.5,0.5,0.149693678273129,0.500025352811181,0.5,0.00190512490178157,0.5,0.00381024980356315,1.09999229474516,0.0066138965986613,2.97169514148373,0.5,86.1343867734397
CBC_1026,CBC_1026_MSI_TV_v3_Vset6_Tset1_2023-07-20_11h47.13.772.csv,1,9,0,3,z,0,1,2,tac,D,9,1,0D,3D,0,1,z,2.66623359999994,0,1,1,1,3D,0D,D03,3.17805383034795,0.501905124901782,0.498094875098218,0.5,0.5,0.5,0.501905124901782,0.5,0.5,0.498094875098218,0.5,0.501905124901782,0.5,0.5,0.5,0.498094875098218,0.50380299080178,0.50380299080178,0.49619700919822,0.50380299080178,0.5,0.148007112701009,0.500500231237334,0.49619700919822,0.00189063455682614,0.5,0.00381024980356315,1.09999229474516,0.0066138965986613,2.97169514148373,0.5,86.1343867734397
CBC_1026,CBC_1026_MSI_TV_v3_Vset6_Tset1_2023-07-20_11h47.13.772.csv,1,10,1,0,b,1,0,1,tac,B,63,1,1B,0B,1,0,b,2.92802389999997,1,0,1,1,1B,0B,B10,3.2188758248682,0.501905124901782,0.498094875098218,0.5,0.5,0.5,0.501905124901782,0.5,0.5,0.498094875098218,0.5,0.501905124901782,0.5,0.5,0.5,0.498094875098218,0.505693625358607,0.501905124901782,0.498094875098218,0.501905124901782,0.5,0.12818560591461,0.500811670060064,0.498094875098218,0.0018978658999988,0.5,0.00381024980356315,1.09999229474516,0.0066138965986613,2.97169514148373,0.5,86.1343867734397
CBC_1026,CBC_1026_MSI_TV_v3_Vset6_Tset1_2023-07-20_11h47.13.772.csv,1,11,1,0,z,0,1,0,tac,A,63,1,1A,0A,0,1,b,2.79774429999998,1,0,0,0,1A,0A,A10,2.56494935746154,0.501905124901782,0.498094875098218,0.5,0.5,0.5,0.50380299080178,0.5,0.5,0.498094875098218,0.5,0.501905124901782,0.5,0.5,0.5,0.498094875098218,0.505693625358607,0.496189805512854,0.503810194487146,0.498094875098218,0.501905124901782,0.137169997346483,0.49861815471705,-0.498094875098218,-0.0018978658999988,0.5,0.00381024980356315,1.09999229474516,0.0066138965986613,2.97169514148373,0.5,86.1343867734397
CBC_1026,CBC_1026_MSI_TV_v3_Vset6_Tset1_2023-07-20_11h47.13.772.csv,1,12,0,1,z,0,1,1,tac,B,63,1,0B,1B,0,1,z,2.87269439999909,0,1,1,1,1B,0B,B01,3.29583686600433,0.501905124901782,0.49619700919822,0.5,0.5,0.5,0.50380299080178,0.5,0.5,0.498094875098218,0.5,0.501905124901782,0.5,0.5,0.5,0.498094875098218,0.505693625358607,0.50380299080178,0.49619700919822,0.50380299080178,0.5,0.132079385955985,0.50043298115691,0.49619700919822,0.00189063455682614,0.5,0.00381024980356315,1.09999229474516,0.0066138965986613,2.97169514148373,0.5,86.1343867734397
CBC_1026,CBC_1026_MSI_TV_v3_Vset6_Tset1_2023-07-20_11h47.13.772.csv,1,13,2,3,z,0,1,2,tac,D,63,1,2D,3D,0,1,b,2.8599892000002,1,0,0,0,2D,3D,D23,2.63905732961526,0.501905124901782,0.49619700919822,0.5,0.5,0.5,0.505693625358607,0.5,0.5,0.498094875098218,0.5,0.501905124901782,0.5,0.5,0.5,0.498094875098218,0.505693625358607,0.492401579421934,0.507598420578066,0.498094875098218,0.505693625358607,0.132887154413777,0.499963277108637,-0.498094875098218,-0.0018978658999988,0.5,0.00381024980356315,1.09999229474516,0.0066138965986613,2.97169514148373,0.5,86.1343867734397
CBC_1026,CBC_1026_MSI_TV_v3_Vset6_Tset1_2023-07-20_11h47.13.772.csv,1,14,1,3,b,1,0,1,tac,B,27,1,1B,3B,1,0,z,2.61438019999969,0,1,0,0,3B,1B,B13,3.36729582998647,0.501905124901782,0.49619700919822,0.5,0.5,0.5,0.505693625358607,0.5,0.5,0.498094875098218,0.5,0.501905124901782,0.5,0.5,0.5,0.49619700919822,0.505693625358607,0.494306374641393,0.505693625358607,0.5,0.505693625358607,0.15241695618086,0.501049882834062,-0.5,-0.00190512490178157,0.5,0.00381024980356315,1.09999229474516,0.0066138965986613,2.97169514148373,0.5,86.1343867734397
CBC_1026,CBC_1026_MSI_TV_v3_Vset6_Tset1_2023-07-20_11h47.13.772.csv,1,15,3,2,z,0,1,3,tac,C,63,1,3C,2C,0,1,b,3.03062919999957,1,0,0,0,3C,2C,C32,3.40119738166216,0.501905124901782,0.49619700919822,0.5,0.5,0.5,0.505693625358607,0.5,0.498094875098218,0.498094875098218,0.5,0.501905124901782,0.5,0.5,0.5,0.49619700919822,0.505693625358607,0.498094875098218,0.501905124901782,0.5,0.501905124901782,0.120923689297134,0.500163643455779,-0.5,-0.00190512490178157,0.5,0.00381024980356315,1.09999229474516,0.0066138965986613,2.97169514148373,0.5,86.1343867734397
CBC_1026,CBC_1026_MSI_TV_v3_Vset6_Tset1_2023-07-20_11h47.13.772.csv,1,16,2,0,b,1,0,3,tac,C,27,1,2C,0C,1,0,b,2.89732739999909,1,0,1,1,2C,0C,C20,2.7408400239252,0.501905124901782,0.49619700919822,0.5,0.5,0.5,0.505693625358607,0.5,0.498094875098218,0.498094875098218,0.5,0.501905124901782,0.498094875098218,0.5,0.5,0.49619700919822,0.505693625358607,0.503810194487146,0.496189805512854,0.501905124901782,0.498094875098218,0.130370378823114,0.500747352824358,0.498094875098218,0.0018978658999988,0.5,0.00381024980356315,1.09999229474516,0.0066138965986613,2.97169514148373,0.5,86.1343867734397
CBC_1026,CBC_1026_MSI_TV_v3_Vset6_Tset1_2023-07-20_11h47.13.772.csv,1,17,0,3,b,1,0,0,tac,A,9,1,0A,3A,NaN,NaN,None,NaN,NaN,NaN,NaN,NaN,,,A03,3.46573590279973,0.501905124901782,0.49619700919822,0.5,0.5,0.5,0.505693625358607,0.5,0.498094875098218,0.498094875098218,0.5,0.50380299080178,0.498094875098218,0.5,0.5,0.49619700919822,0.505693625358607,0,0,0,0,NaN,0,0,0,0.5,0.00381024980356315,1.09999229474516,0.0066138965986613,2.97169514148373,0.5,86.1343867734397
CBC_1026,CBC_1026_MSI_TV_v3_Vset6_Tset1_2023-07-20_11h47.13.772.csv,1,18,2,3,b,1,0,3,tac,C,63,0,2C,3C,0,1,z,2.47382389999984,0,1,0,1,3C,2C,C23,2.80336038090653,0.501905124901782,0.49619700919822,0.5,0.5,0.5,0.505693625358607,0.5,0.498094875098218,0.498094875098218,0.5,0.50380299080178,0.498094875098218,0.5,0.5,0.49619700919822,0.505693625358607,0.494292049716775,0.505707950283225,0.498094875098218,0.50380299080178,0.16417416184871,0.500444335662801,0.501905124901782,0.00191238390356435,0.5,0.00381024980356315,1.09999229474516,0.0066138965986613,2.97169514148373,0.5,86.1343867734397
CBC_1026,CBC_1026_MSI_TV_v3_Vset6_Tset1_2023-07-20_11h47.13.772.csv,1,19,1,0,z,0,1,0,tac,A,63,1,1A,0A,0,1,b,2.95492759999979,1,0,0,0,1A,0A,A10,2.42774823594805,0.501905124901782,0.49619700919822,0.5,0.5,0.5,0.505693625358607,0.5,0.498094875098218,0.498094875098218,0.5,0.50380299080178,0.500007259001783,0.5,0.5,0.49619700919822,0.505693625358607,0.494292049716775,0.505707950283225,0.49619700919822,0.501905124901782,0.126277698863153,0.500782663602791,-0.49619700919822,-0.00189063455682614,0.5,0.00381024980356315,1.09999229474516,0.0066138965986613,2.97169514148373,0.5,86.1343867734397
CBC_1026,CBC_1026_MSI_TV_v3_Vset6_Tset1_2023-07-20_11h47.13.772.csv,1,20,3,2,b,1,0,2,tac,D,63,1,3D,2D,1,0,z,2.85385270000006,0,1,0,0,2D,3D,D32,2.4567357728213,0.501905124901782,0.494306374641393,0.5,0.5,0.5,0.505693625358607,0.5,0.498094875098218,0.498094875098218,0.5,0.50380299080178,0.500007259001783,0.5,0.5,0.49619700919822,0.505693625358607,0.490504206281887,0.509495793718113,0.49619700919822,0.505693625358607,0.133112618102965,0.499112942580478,-0.49619700919822,-0.00189063455682614,0.5,0.00381024980356315,1.09999229474516,0.0066138965986613,2.97169514148373,0.5,86.1343867734397
CBC_1026,CBC_1026_MSI_TV_v3_Vset6_Tset1_2023-07-20_11h47.13.772.csv,1,21,3,2,z,0,1,3,tac,C,63,1,3C,2C,0,1,z,2.8594338999992,0,1,1,1,2C,3C,C32,2.89037175789616,0.501905124901782,0.494306374641393,0.5,0.5,0.5,0.505693625358607,0.5,0.498094875098218,0.498094875098218,0.5,0.50380299080178,0.500007259001783,0.5,0.5,0.494306374641393,0.505693625358607,0.503795732219136,0.496204267780864,0.50380299080178,0.500007259001783,0.132930552087175,0.499972813965089,0.49619700919822,0.00189063455682614,0.5,0.00381024980356315,1.09999229474516,0.0066138965986613,2.97169514148373,0.5,86.1343867734397
CBC_1026,CBC_1026_MSI_TV_v3_Vset6_Tset1_2023-07-20_11h47.13.772.csv,1,22,3,1,b,1,0,2,tac,D,27,1,3D,1D,1,0,b,3.5219507999991,1,0,1,1,3D,1D,D31,3.61091791264422,0.501905124901782,0.494306374641393,0.5,0.5,0.5,0.505693625358607,0.5,0.498094875098218,0.498094875098218,0.5,0.505693625358607,0.500007259001783,0.5,0.5,0.494306374641393,0.505693625358607,0.505693625358607,0.494306374641393,0.505693625358607,0.5,0.0917789434235778,0.499314458271444,0.494306374641393,0.00188343076687738,0.5,0.00381024980356315,1.09999229474516,0.0066138965986613,2.97169514148373,0.5,86.1343867734397
CBC_1026,CBC_1026_MSI_TV_v3_Vset6_Tset1_2023-07-20_11h47.13.772.csv,1,23,0,1,b,1,0,0,tac,A,63,1,0A,1A,1,0,b,3.38258239999959,1,0,1,1,0A,1A,A01,3.63758615972639,0.501905124901782,0.494306374641393,0.5,0.5,0.5,0.505693625358607,0.5,0.498094875098218,0.498094875098218,0.5,0.505693625358607,0.500007259001783,0.5,0.5,0.494306374641393,0.507577056125484,0.507598420578066,0.492401579421934,0.501905124901782,0.494306374641393,0.099395788592732,0.500263219308289,0.498094875098218,0.0018978658999988,0.5,0.00381024980356315,1.09999229474516,0.0066138965986613,2.97169514148373,0.5,86.1343867734397
CBC_1026,CBC_1026_MSI_TV_v3_Vset6_Tset1_2023-07-20_11h47.13.772.csv,1,24,3,2,z,0,1,3,tac,C,63,1,3C,2C,0,1,b,2.66465589999916,1,0,0,0,3C,2C,C32,2.56494935746154,0.50380299080178,0.494306374641393,0.5,0.5,0.5,0.505693625358607,0.5,0.498094875098218,0.498094875098218,0.5,0.505693625358607,0.500007259001783,0.5,0.5,0.494306374641393,0.507577056125484,0.494313632703105,0.505686367296895,0.500007259001783,0.505693625358607,0.147934941012668,0.499825080728817,-0.500007259001783,-0.00190515256039169,0.5,0.00381024980356315,1.09999229474516,0.0066138965986613,2.97169514148373,0.5,86.1343867734397
CBC_1026,CBC_1026_MSI_TV_v3_Vset6_Tset1_2023-07-20_11h47.13.772.csv,1,25,0,2,b,1,0,0,tac,A,27,1,0A,2A,1,0,z,3.19498359999943,0,1,0,0,2A,0A,A02,2.99573227355399,0.50380299080178,0.494306374641393,0.5,0.5,0.5,0.505693625358607,0.5,0.498094875098218,0.498094875098218,0.5,0.505693625358607,0.498102106441391,0.5,0.5,0.494306374641393,0.507577056125484,0.49619700919822,0.50380299080178,0.5,0.50380299080178,0.110098405291779,0.499053643601093,-0.5,-0.00190512490178157,0.5,0.00381024980356315,1.09999229474516,0.0066138965986613,2.97169514148373,0.5,86.1343867734397
CBC_1026,CBC_1026_MSI_TV_v3_Vset6_Tset1_2023-07-20_11h47.13.772.csv,1,26,1,0,b,1,0,1,tac,B,63,1,1B,0B,1,0,z,3.26795519999905,0,1,0,0,0B,1B,B10,3.02042488614436,0.50380299080178,0.494306374641393,0.498094875098218,0.5,0.5,0.505693625358607,0.5,0.498094875098218,0.498094875098218,0.5,0.505693625358607,0.498102106441391,0.5,0.5,0.494306374641393,0.507577056125484,0.494306374641393,0.505693625358607,0.5,0.505693625358607,0.106084506915796,0.500836940336164,-0.5,-0.00190512490178157,0.5,0.00381024980356315,1.09999229474516,0.0066138965986613,2.97169514148373,0.5,86.1343867734397
CBC_1026,CBC_1026_MSI_TV_v3_Vset6_Tset1_2023-07-20_11h47.13.772.csv,1,27,0,1,z,0,1,1,tac,B,63,1,0B,1B,0,1,b,2.84908949999954,1,0,0,0,0B,1B,B01,3.04452243772342,0.50380299080178,0.494306374641393,0.498094875098218,0.5,0.498094875098218,0.505693625358607,0.5,0.498094875098218,0.498094875098218,0.5,0.505693625358607,0.498102106441391,0.5,0.5,0.494306374641393,0.507577056125484,0.492401579421934,0.507598420578066,0.498094875098218,0.505693625358607,0.133740426978067,0.500146841061119,-0.498094875098218,-0.0018978658999988,0.5,0.00381024980356315,1.09999229474516,0.0066138965986613,2.97169514148373,0.5,86.1343867734397
CBC_1026,CBC_1026_MSI_TV_v3_Vset6_Tset1_2023-07-20_11h47.13.772.csv,1,28,3,2,z,0,1,3,tac,C,63,1,3C,2C,0,1,b,3.55336559999978,1,0,0,0,3C,2C,C32,2.37490575457367,0.50380299080178,0.494306374641393,0.498094875098218,0.5,0.49619700919822,0.505693625358607,0.5,0.498094875098218,0.498094875098218,0.5,0.505693625358607,0.498102106441391,0.5,0.5,0.494306374641393,0.507577056125484,0.492408809201224,0.507591190798776,0.498102106441391,0.505693625358607,0.0903084955822875,0.500011754233982,-0.498102106441391,-0.0018978934532227,0.5,0.00381024980356315,1.09999229474516,0.0066138965986613,2.97169514148373,0.5,86.1343867734397
CBC_1026,CBC_1026_MSI_TV_v3_Vset6_Tset1_2023-07-20_11h47.13.772.csv,1,29,3,1,b,1,0,2,tac,D,27,1,3D,1D,1,0,b,2.48126009999942,1,0,1,1,3D,1D,D31,3.09104245335832,0.50380299080178,0.494306374641393,0.498094875098218,0.5,0.49619700919822,0.505693625358607,0.5,0.498094875098218,0.498094875098218,0.5,0.505693625358607,0.496204212988168,0.5,0.5,0.494306374641393,0.507577056125484,0.507577056125484,0.492422943874516,0.507577056125484,0.5,0.163162232177222,0.499324594116508,0.492422943874516,0.00187625442516786,0.5,0.00381024980356315,1.09999229474516,0.0066138965986613,2.97169514148373,0.5,86.1343867734397
CBC_1026,CBC_1026_MSI_TV_v3_Vset6_Tset1_2023-07-20_11h47.13.772.csv,1,30,1,2,z,0,1,3,tac,C,9,1,1C,2C,0,1,b,2.71791369999937,1,0,0,0,1C,2C,C12,3.80666248977032,0.50380299080178,0.494306374641393,0.498094875098218,0.5,0.49619700919822,0.505693625358607,0.5,0.498094875098218,0.498094875098218,0.5,0.505693625358607,0.496204212988168,0.5,0.5,0.494306374641393,0.509453310550652,0.494306374641393,0.505693625358607,0.5,0.505693625358607,0.143776936153132,0.500158663402067,-0.5,-0.00190512490178157,0.5,0.00381024980356315,1.09999229474516,0.0066138965986613,2.97169514148373,0.5,86.1343867734397
CBC_1026,CBC_1026_MSI_TV_v3_Vset6_Tset1_2023-07-20_11h47.13.772.csv,1,31,3,1,z,0,1,1,tac,B,27,1,3B,1B,0,1,b,2.01548039999943,1,0,0,0,3B,1B,B31,3.13549421592915,0.50380299080178,0.494306374641393,0.498094875098218,0.5,0.49619700919822,0.505693625358607,0.5,0.498094875098218,0.498094875098218,0.498094875098218,0.505693625358607,0.496204212988168,0.5,0.5,0.494306374641393,0.509453310550652,0.492401579421934,0.507598420578066,0.498094875098218,0.505693625358607,0.20271022565817,0.500248168157091,-0.498094875098218,-0.0018978658999988,0.5,0.00381024980356315,1.09999229474516,0.0066138965986613,2.97169514148373,0.5,86.1343867734397
CBC_1026,CBC_1026_MSI_TV_v3_Vset6_Tset1_2023-07-20_11h47.13.772.csv,1,32,3,2,b,1,0,2,tac,D,63,1,3D,2D,1,0,z,3.04770689999987,0,1,0,0,2D,3D,D32,2.46385324059017,0.50380299080178,0.494306374641393,0.498094875098218,0.5,0.49619700919822,0.505693625358607,0.5,0.49619700919822,0.498094875098218,0.498094875098218,0.505693625358607,0.496204212988168,0.5,0.5,0.494306374641393,0.509453310550652,0.484856324439811,0.515143675560189,0.494306374641393,0.509453310550652,0.119868218362832,0.500532379352169,-0.494306374641393,-0.00188343076687738,0.5,0.00381024980356315,1.09999229474516,0.0066138965986613,2.97169514148373,0.5,86.1343867734397
CBC_1026,CBC_1026_MSI_TV_v3_Vset6_Tset1_2023-07-20_11h47.13.772.csv,1,33,0,1,z,0,1,1,tac,B,63,1,0B,1B,0,1,b,2.79103149999901,1,0,0,0,0B,1B,B01,2.77258872223978,0.50380299080178,0.494306374641393,0.498094875098218,0.5,0.49619700919822,0.505693625358607,0.5,0.49619700919822,0.498094875098218,0.498094875098218,0.505693625358607,0.496204212988168,0.5,0.5,0.492422943874516,0.509453310550652,0.490504206281887,0.509495793718113,0.49619700919822,0.505693625358607,0.137904268801734,0.499433855460348,-0.49619700919822,-0.00189063455682614,0.5,0.00381024980356315,1.09999229474516,0.0066138965986613,2.97169514148373,0.5,86.1343867734397
CBC_1026,CBC_1026_MSI_TV_v3_Vset6_Tset1_2023-07-20_11h47.13.772.csv,1,34,1,0,z,0,1,0,tac,A,63,0,1A,0A,1,0,z,2.03866679999919,0,1,1,0,0A,1A,A10,2.50552593699074,0.50380299080178,0.494306374641393,0.498094875098218,0.5,0.494306374641393,0.505693625358607,0.5,0.49619700919822,0.498094875098218,0.498094875098218,0.505693625358607,0.496204212988168,0.5,0.5,0.492422943874516,0.509453310550652,0.509495793718113,0.490504206281887,0.50380299080178,0.494306374641393,0.201685687288086,0.501608352735451,-0.50380299080178,-0.00191961524673701,0.5,0.00381024980356315,1.09999229474516,0.0066138965986613,2.97169514148373,0.5,86.1343867734397
CBC_1026,CBC_1026_MSI_TV_v3_Vset6_Tset1_2023-07-20_11h47.13.772.csv,1,35,2,3,b,1,0,3,tac,C,63,1,2C,3C,1,0,b,2.68042229999901,1,0,1,1,2C,3C,C23,2.81341071676004,0.501883375555043,0.494306374641393,0.498094875098218,0.5,0.494306374641393,0.505693625358607,0.5,0.49619700919822,0.498094875098218,0.498094875098218,0.505693625358607,0.496204212988168,0.5,0.5,0.492422943874516,0.509453310550652,0.509488592108629,0.490511407891371,0.505693625358607,0.496204212988168,0.146670557038411,0.499844616642032,0.494306374641393,0.00188343076687738,0.5,0.00381024980356315,1.09999229474516,0.0066138965986613,2.97169514148373,0.5,86.1343867734397
CBC_1026,CBC_1026_MSI_TV_v3_Vset6_Tset1_2023-07-20_11h47.13.772.csv,1,36,0,2,b,1,0,0,tac,A,27,1,0A,2A,1,0,b,3.26053949999914,1,0,1,1,0A,2A,A02,2.83321334405622,0.501883375555043,0.494306374641393,0.498094875098218,0.5,0.494306374641393,0.505693625358607,0.5,0.49619700919822,0.498094875098218,0.498094875098218,0.507577056125484,0.496204212988168,0.5,0.5,0.492422943874516,0.509453310550652,0.503788446084052,0.496211553915948,0.501883375555043,0.498094875098218,0.106287996512151,0.499725655279934,0.498116624444957,0.00189794877044293,0.5,0.00381024980356315,1.09999229474516,0.0066138965986613,2.97169514148373,0.5,86.1343867734397
CBC_1026,CBC_1026_MSI_TV_v3_Vset6_Tset1_2023-07-20_11h47.13.772.csv,1,37,0,1,z,0,1,1,tac,B,63,1,0B,1B,0,1,b,3.93314049999935,1,0,0,0,0B,1B,B01,2.56494935746154,0.503781324325486,0.494306374641393,0.498094875098218,0.5,0.494306374641393,0.505693625358607,0.5,0.49619700919822,0.498094875098218,0.498094875098218,0.507577056125484,0.496204212988168,0.5,0.5,0.492422943874516,0.509453310550652,0.488614225670211,0.511385774329789,0.494306374641393,0.505693625358607,0.0731458497679007,0.500713485023856,-0.494306374641393,-0.00188343076687738,0.5,0.00381024980356315,1.09999229474516,0.0066138965986613,2.97169514148373,0.5,86.1343867734397
CBC_1026,CBC_1026_MSI_TV_v3_Vset6_Tset1_2023-07-20_11h47.13.772.csv,1,38,2,3,z,0,1,2,tac,D,63,1,2D,3D,0,1,z,2.77797849999934,0,1,1,1,3D,2D,D23,2.87167962488401,0.503781324325486,0.494306374641393,0.498094875098218,0.5,0.492422943874516,0.505693625358607,0.5,0.49619700919822,0.498094875098218,0.498094875098218,0.507577056125484,0.496204212988168,0.5,0.5,0.492422943874516,0.509453310550652,0.517025488651311,0.482974511348689,0.509453310550652,0.492422943874516,0.139073286342314,0.500054247764958,0.490546689449348,0.00186910542711293,0.5,0.00381024980356315,1.09999229474516,0.0066138965986613,2.97169514148373,0.5,86.1343867734397
CBC_1026,CBC_1026_MSI_TV_v3_Vset6_Tset1_2023-07-20_11h47.13.772.csv,1,39,1,2,b,1,0,1,tac,B,9,1,1B,2B,1,0,z,3.08792089999952,0,1,0,0,2B,1B,B12,3.98898404656427,0.503781324325486,0.494306374641393,0.498094875098218,0.5,0.492422943874516,0.505693625358607,0.5,0.49619700919822,0.498094875098218,0.498094875098218,0.507577056125484,0.496204212988168,0.5,0.5,0.492422943874516,0.511322415977765,0.494306374641393,0.505693625358607,0.5,0.505693625358607,0.116800554467182,0.498766008639389,-0.5,-0.00190512490178157,0.5,0.00381024980356315,1.09999229474516,0.0066138965986613,2.97169514148373,0.5,86.1343867734397
CBC_1026,CBC_1026_MSI_TV_v3_Vset6_Tset1_2023-07-20_11h47.13.772.csv,1,40,1,3,z,0,1,2,tac,D,27,1,1D,3D,0,1,b,2.66920029999983,1,0,0,0,1D,3D,D13,4.00733318523247,0.503781324325486,0.494306374641393,0.498094875098218,0.5,0.492422943874516,0.505693625358607,0.498094875098218,0.49619700919822,0.498094875098218,0.498094875098218,0.507577056125484,0.496204212988168,0.5,0.5,0.492422943874516,0.511322415977765,0.488677584022235,0.511322415977765,0.5,0.511322415977765,0.147298450058189,0.498911999681604,-0.5,-0.00190512490178157,0.5,0.00381024980356315,1.09999229474516,0.0066138965986613,2.97169514148373,0.5,86.1343867734397
CBC_1026,CBC_1026_MSI_TV_v3_Vset6_Tset1_2023-07-20_11h47.13.772.csv,1,41,1,0,z,0,1,0,tac,A,63,1,1A,0A,0,1,b,2.55421789999946,1,0,0,0,1A,0A,A10,2.41591377830105,0.503781324325486,0.494306374641393,0.498094875098218,0.5,0.492422943874516,0.505693625358607,0.498094875098218,0.49619700919822,0.498094875098218,0.498094875098218,0.507577056125484,0.496204212988168,0.5,0.498094875098218,0.492422943874516,0.511322415977765,0.490525866207242,0.509474133792758,0.494306374641393,0.503781324325486,0.156840259707555,0.499077496992386,-0.494306374641393,-0.00188343076687738,0.5,0.00381024980356315,1.09999229474516,0.0066138965986613,2.97169514148373,0.5,86.1343867734397
CBC_1026,CBC_1026_MSI_TV_v3_Vset6_Tset1_2023-07-20_11h47.13.772.csv,1,42,0,1,b,1,0,0,tac,A,63,1,0A,1A,NaN,NaN,None,NaN,NaN,NaN,NaN,NaN,,,A01,3.3499040872746,0.503781324325486,0.492422943874516,0.498094875098218,0.5,0.492422943874516,0.505693625358607,0.498094875098218,0.49619700919822,0.498094875098218,0.498094875098218,0.507577056125484,0.496204212988168,0.5,0.498094875098218,0.492422943874516,0.511322415977765,0,0,0,0,NaN,0,0,0,0.5,0.00381024980356315,1.09999229474516,0.0066138965986613,2.97169514148373,0.5,86.1343867734397
CBC_1026,CBC_1026_MSI_TV_v3_Vset6_Tset1_2023-07-20_11h47.13.772.csv,1,43,2,0,b,1,0,3,tac,C,27,1,2C,0C,1,0,z,2.5430652999994,0,1,0,0,0C,2C,C20,2.96183072187831,0.503781324325486,0.492422943874516,0.498094875098218,0.5,0.492422943874516,0.505693625358607,0.498094875098218,0.49619700919822,0.498094875098218,0.498094875098218,0.507577056125484,0.496204212988168,0.5,0.498094875098218,0.492422943874516,0.511322415977765,0.490518366451294,0.509481633548706,0.498094875098218,0.507577056125484,0.15807402135348,0.499994352921913,-0.498094875098218,-0.0018978658999988,0.5,0.00381024980356315,1.09999229474516,0.0066138965986613,2.97169514148373,0.5,86.1343867734397
CBC_1026,CBC_1026_MSI_TV_v3_Vset6_Tset1_2023-07-20_11h47.13.772.csv,1,44,0,1,z,0,1,1,tac,B,63,1,0B,1B,0,1,b,2.90073639999991,1,0,0,0,0B,1B,B01,2.46809953147162,0.503781324325486,0.492422943874516,0.498094875098218,0.5,0.492422943874516,0.505693625358607,0.498094875098218,0.49619700919822,0.49619700919822,0.498094875098218,0.507577056125484,0.496204212988168,0.5,0.498094875098218,0.492422943874516,0.511322415977765,0.486731608158375,0.513268391841625,0.492422943874516,0.505693625358607,0.1299302396892,0.500001137995845,-0.492422943874516,-0.00187625442516786,0.5,0.00381024980356315,1.09999229474516,0.0066138965986613,2.97169514148373,0.5,86.1343867734397
CBC_1026,CBC_1026_MSI_AV_v3_Vset3_Aset2_2023-07-20_11h56.22.418.csv,2,1,1,0,z,0,1,0,aud,A,63,1,1A,0A,0,1,z,2.81441790000008,0,1,1,1,0A,1A,A10,2.77258872223978,0.5,0.5,0.5,0.5,0.5,0.5,0.5,0.5,0.5,0.5,0.5,0.5,0.5,0.5,0.5,0.5,0.5,0.5,0.5,0.5,0.131324021773005,0.499480104934881,0.5,0.00628936204898406,0.5,0.0125787240979681,1.09249172787995,0.0118255284601847,2.57299196905996,0.5,77.9536743935516
CBC_1026,CBC_1026_MSI_AV_v3_Vset3_Aset2_2023-07-20_11h56.22.418.csv,2,2,3,2,z,0,1,3,aud,C,63,1,3C,2C,0,1,b,2.63299639999968,1,0,0,0,3C,2C,C32,2.83321334405622,0.506289362048984,0.5,0.5,0.5,0.5,0.5,0.5,0.5,0.5,0.5,0.5,0.5,0.5,0.5,0.5,0.5,0.5,0.5,0.5,0.5,0.150156148250115,0.498970063495019,-0.5,-0.00628936204898406,0.5,0.0125787240979681,1.09249172787995,0.0118255284601847,2.57299196905996,0.5,77.9536743935516
CBC_1026,CBC_1026_MSI_AV_v3_Vset3_Aset2_2023-07-20_11h56.22.418.csv,2,3,0,2,b,1,0,0,aud,A,27,1,0A,2A,1,0,b,2.46179169999959,1,0,1,1,0A,2A,A02,2.89037175789616,0.506289362048984,0.5,0.5,0.5,0.5,0.5,0.5,0.5,0.5,0.5,0.5,0.493710637951016,0.5,0.5,0.5,0.5,0.506289362048984,0.493710637951016,0.506289362048984,0.5,0.171030165189317,0.500515868930526,0.493710637951016,0.00621024989901766,0.5,0.0125787240979681,1.09249172787995,0.0118255284601847,2.57299196905996,0.5,77.9536743935516
CBC_1026,CBC_1026_MSI_AV_v3_Vset3_Aset2_2023-07-20_11h56.22.418.csv,2,4,1,0,b,1,0,1,aud,B,63,1,1B,0B,1,0,b,2.65661449999971,1,0,1,1,1B,0B,B10,2.94443897916644,0.512499611948002,0.5,0.5,0.5,0.5,0.5,0.5,0.5,0.5,0.5,0.5,0.493710637951016,0.5,0.5,0.5,0.5,0.5,0.5,0.5,0.5,0.147660640801523,0.499372261557251,0.5,0.00628936204898406,0.5,0.0125787240979681,1.09249172787995,0.0118255284601847,2.57299196905996,0.5,77.9536743935516
CBC_1026,CBC_1026_MSI_AV_v3_Vset3_Aset2_2023-07-20_11h56.22.418.csv,2,5,2,3,z,0,1,2,aud,D,63,1,2D,3D,0,1,z,1.74661529999958,0,1,1,1,3D,2D,D23,2.99573227355399,0.512499611948002,0.5,0.5,0.5,0.5,0.506289362048984,0.5,0.5,0.5,0.5,0.5,0.493710637951016,0.5,0.5,0.5,0.5,0.5,0.5,0.5,0.5,0.274358982407788,0.501119041588525,0.5,0.00628936204898406,0.5,0.0125787240979681,1.09249172787995,0.0118255284601847,2.57299196905996,0.5,77.9536743935516
CBC_1026,CBC_1026_MSI_AV_v3_Vset3_Aset2_2023-07-20_11h56.22.418.csv,2,6,1,2,b,1,0,1,aud,B,9,1,1B,2B,1,0,b,2.80275639999945,1,0,1,1,1B,2B,B12,3.04452243772342,0.512499611948002,0.5,0.5,0.5,0.5,0.506289362048984,0.5,0.5,0.5,0.5,0.5,0.493710637951016,0.5,0.5,0.5,0.506289362048984,0.506289362048984,0.493710637951016,0.506289362048984,0.5,0.132838480837418,0.500871202809377,0.493710637951016,0.00621024989901766,0.5,0.0125787240979681,1.09249172787995,0.0118255284601847,2.57299196905996,0.5,77.9536743935516
CBC_1026,CBC_1026_MSI_AV_v3_Vset3_Aset2_2023-07-20_11h56.22.418.csv,2,7,1,3,z,0,1,2,aud,D,27,1,1D,3D,0,1,z,1.56073769999966,0,1,1,1,3D,1D,D13,3.09104245335832,0.512499611948002,0.5,0.5,0.5,0.5,0.512499611948002,0.5,0.5,0.5,0.5,0.5,0.493710637951016,0.5,0.5,0.5,0.506289362048984,0.506289362048984,0.493710637951016,0.506289362048984,0.5,0.27390046252853,0.500598107643334,0.493710637951016,0.00621024989901766,0.5,0.0125787240979681,1.09249172787995,0.0118255284601847,2.57299196905996,0.5,77.9536743935516
CBC_1026,CBC_1026_MSI_AV_v3_Vset3_Aset2_2023-07-20_11h56.22.418.csv,2,8,1,0,z,0,1,0,aud,A,63,1,1A,0A,0,1,b,3.53389299999981,1,0,0,0,1A,0A,A10,2.4423470353692,0.512499611948002,0.5,0.5,0.5,0.5,0.512499611948002,0.5,0.5,0.5,0.5,0.5,0.493710637951016,0.5,0.5,0.5,0.512499611948002,0.487500388051998,0.512499611948002,0.5,0.512499611948002,0.0768859403160632,0.499906657507281,-0.5,-0.00628936204898406,0.5,0.0125787240979681,1.09249172787995,0.0118255284601847,2.57299196905996,0.5,77.9536743935516
CBC_1026,CBC_1026_MSI_AV_v3_Vset3_Aset2_2023-07-20_11h56.22.418.csv,2,9,0,1,b,1,0,0,aud,A,63,1,0A,1A,1,0,z,2.52830839999933,0,1,0,0,1A,0A,A01,3.17805383034795,0.512499611948002,0.493710637951016,0.5,0.5,0.5,0.512499611948002,0.5,0.5,0.5,0.5,0.5,0.493710637951016,0.5,0.5,0.5,0.512499611948002,0.481216932495243,0.518783067504757,0.493710637951016,0.512499611948002,0.162547855184386,0.499733203010719,-0.493710637951016,-0.00621024989901766,0.5,0.0125787240979681,1.09249172787995,0.0118255284601847,2.57299196905996,0.5,77.9536743935516
CBC_1026,CBC_1026_MSI_AV_v3_Vset3_Aset2_2023-07-20_11h56.22.418.csv,2,10,2,0,b,1,0,3,aud,C,27,1,2C,0C,1,0,z,4.20934179999949,0,1,0,0,0C,2C,C20,3.2188758248682,0.512499611948002,0.487500388051998,0.5,0.5,0.5,0.512499611948002,0.5,0.5,0.5,0.5,0.5,0.493710637951016,0.5,0.5,0.5,0.512499611948002,0.5,0.5,0.5,0.5,0.0464486049290928,0.499659659638743,-0.5,-0.00628936204898406,0.5,0.0125787240979681,1.09249172787995,0.0118255284601847,2.57299196905996,0.5,77.9536743935516
CBC_1026,CBC_1026_MSI_AV_v3_Vset3_Aset2_2023-07-20_11h56.22.418.csv,2,11,0,1,z,0,1,1,aud,B,63,1,0B,1B,0,1,b,2.97113150000041,1,0,0,0,0B,1B,B01,3.25809653802148,0.512499611948002,0.487500388051998,0.5,0.5,0.5,0.512499611948002,0.5,0.5,0.493710637951016,0.5,0.5,0.493710637951016,0.5,0.5,0.5,0.512499611948002,0.487500388051998,0.512499611948002,0.5,0.512499611948002,0.117040092693889,0.50028033335326,-0.5,-0.00628936204898406,0.5,0.0125787240979681,1.09249172787995,0.0118255284601847,2.57299196905996,0.5,77.9536743935516
CBC_1026,CBC_1026_MSI_AV_v3_Vset3_Aset2_2023-07-20_11h56.22.418.csv,2,12,0,1,b,1,0,0,aud,A,63,1,0A,1A,1,0,z,2.31642969999939,0,1,0,0,1A,0A,A01,2.60268968544438,0.512499611948002,0.487500388051998,0.5,0.5,0.493710637951016,0.512499611948002,0.5,0.5,0.493710637951016,0.5,0.5,0.493710637951016,0.5,0.5,0.5,0.512499611948002,0.475016389890836,0.524983610109164,0.487500388051998,0.512499611948002,0.189893634605447,0.499240375704585,-0.487500388051998,-0.00613213287895848,0.5,0.0125787240979681,1.09249172787995,0.0118255284601847,2.57299196905996,0.5,77.9536743935516
CBC_1026,CBC_1026_MSI_AV_v3_Vset3_Aset2_2023-07-20_11h56.22.418.csv,2,13,3,2,z,0,1,3,aud,C,63,1,3C,2C,0,1,b,2.34509040000012,1,0,0,0,3C,2C,C32,2.63905732961526,0.512499611948002,0.48136825517304,0.5,0.5,0.493710637951016,0.512499611948002,0.5,0.5,0.493710637951016,0.5,0.5,0.493710637951016,0.5,0.5,0.5,0.512499611948002,0.493710637951016,0.506289362048984,0.493710637951016,0.5,0.18602879444629,0.499481059770352,-0.493710637951016,-0.00621024989901766,0.5,0.0125787240979681,1.09249172787995,0.0118255284601847,2.57299196905996,0.5,77.9536743935516
CBC_1026,CBC_1026_MSI_AV_v3_Vset3_Aset2_2023-07-20_11h56.22.418.csv,2,14,0,2,b,1,0,0,aud,A,27,1,0A,2A,1,0,z,2.41044340000008,0,1,0,0,2A,0A,A02,2.67414864942653,0.512499611948002,0.48136825517304,0.5,0.5,0.493710637951016,0.512499611948002,0.5,0.5,0.493710637951016,0.5,0.5,0.487500388051998,0.5,0.5,0.5,0.512499611948002,0.487500388051998,0.512499611948002,0.5,0.512499611948002,0.177402200815711,0.499820707429722,-0.5,-0.00628936204898406,0.5,0.0125787240979681,1.09249172787995,0.0118255284601847,2.57299196905996,0.5,77.9536743935516
CBC_1026,CBC_1026_MSI_AV_v3_Vset3_Aset2_2023-07-20_11h56.22.418.csv,2,15,1,0,b,1,0,1,aud,B,63,1,1B,0B,1,0,b,2.52284399999917,1,0,1,1,1B,0B,B10,2.70805020110221,0.512499611948002,0.48136825517304,0.493710637951016,0.5,0.493710637951016,0.512499611948002,0.5,0.5,0.493710637951016,0.5,0.5,0.487500388051998,0.5,0.5,0.5,0.512499611948002,0.518783067504757,0.481216932495243,0.512499611948002,0.493710637951016,0.163412272038206,0.50035807528172,0.487500388051998,0.00613213287895848,0.5,0.0125787240979681,1.09249172787995,0.0118255284601847,2.57299196905996,0.5,77.9536743935516
CBC_1026,CBC_1026_MSI_AV_v3_Vset3_Aset2_2023-07-20_11h56.22.418.csv,2,16,0,1,z,0,1,1,aud,B,63,1,0B,1B,0,1,b,2.45388319999893,1,0,0,0,0B,1B,B01,2.7408400239252,0.512499611948002,0.48136825517304,0.493710637951016,0.5,0.493710637951016,0.51863174482696,0.5,0.5,0.493710637951016,0.5,0.5,0.487500388051998,0.5,0.5,0.5,0.512499611948002,0.475090568850858,0.524909431149142,0.493710637951016,0.51863174482696,0.171891581011002,0.50010074176488,-0.493710637951016,-0.00621024989901766,0.5,0.0125787240979681,1.09249172787995,0.0118255284601847,2.57299196905996,0.5,77.9536743935516
CBC_1026,CBC_1026_MSI_AV_v3_Vset3_Aset2_2023-07-20_11h56.22.418.csv,2,17,3,2,z,0,1,3,aud,C,63,1,3C,2C,0,1,b,2.74509669999952,1,0,0,0,3C,2C,C32,2.36712361413162,0.512499611948002,0.48136825517304,0.493710637951016,0.5,0.487500388051998,0.51863174482696,0.5,0.5,0.493710637951016,0.5,0.5,0.487500388051998,0.5,0.5,0.5,0.512499611948002,0.487500388051998,0.512499611948002,0.487500388051998,0.5,0.138353779936809,0.499743486688417,-0.487500388051998,-0.00613213287895848,0.5,0.0125787240979681,1.09249172787995,0.0118255284601847,2.57299196905996,0.5,77.9536743935516
CBC_1026,CBC_1026_MSI_AV_v3_Vset3_Aset2_2023-07-20_11h56.22.418.csv,2,18,3,1,b,1,0,2,aud,D,27,1,3D,1D,1,0,b,1.55968379999922,1,0,1,1,3D,1D,D31,3.49650756146648,0.512499611948002,0.48136825517304,0.493710637951016,0.5,0.487500388051998,0.51863174482696,0.5,0.5,0.493710637951016,0.5,0.5,0.48136825517304,0.5,0.5,0.5,0.512499611948002,0.512499611948002,0.487500388051998,0.512499611948002,0.5,0.273353321827606,0.499901588755306,0.487500388051998,0.00613213287895848,0.5,0.0125787240979681,1.09249172787995,0.0118255284601847,2.57299196905996,0.5,77.9536743935516
CBC_1026,CBC_1026_MSI_AV_v3_Vset3_Aset2_2023-07-20_11h56.22.418.csv,2,19,1,2,z,0,1,3,aud,C,9,1,1C,2C,0,1,z,2.71944110000004,0,1,1,1,2C,1C,C12,3.52636052461616,0.512499611948002,0.48136825517304,0.493710637951016,0.5,0.487500388051998,0.51863174482696,0.5,0.5,0.493710637951016,0.5,0.5,0.48136825517304,0.5,0.5,0.5,0.51863174482696,0.5,0.5,0.5,0.5,0.141187580706211,0.500332297659969,0.5,0.00628936204898406,0.5,0.0125787240979681,1.09249172787995,0.0118255284601847,2.57299196905996,0.5,77.9536743935516
CBC_1026,CBC_1026_MSI_AV_v3_Vset3_Aset2_2023-07-20_11h56.22.418.csv,2,20,3,1,z,0,1,1,aud,B,27,1,3B,1B,0,1,b,5.07057840000016,1,0,0,0,3B,1B,B31,3.55534806148941,0.512499611948002,0.48136825517304,0.493710637951016,0.5,0.487500388051998,0.51863174482696,0.5,0.5,0.493710637951016,0.5,0.506289362048984,0.48136825517304,0.5,0.5,0.5,0.51863174482696,0.48136825517304,0.51863174482696,0.5,0.51863174482696,0.0244889944474532,0.500584406772301,-0.5,-0.00628936204898406,0.5,0.0125787240979681,1.09249172787995,0.0118255284601847,2.57299196905996,0.5,77.9536743935516
CBC_1026,CBC_1026_MSI_AV_v3_Vset3_Aset2_2023-07-20_11h56.22.418.csv,2,21,3,2,b,1,0,2,aud,D,63,1,3D,2D,1,0,z,2.37296399999923,0,1,0,0,2D,3D,D32,3.58351893845611,0.512499611948002,0.48136825517304,0.493710637951016,0.5,0.487500388051998,0.51863174482696,0.5,0.493710637951016,0.493710637951016,0.5,0.506289362048984,0.48136825517304,0.5,0.5,0.5,0.51863174482696,0.48136825517304,0.51863174482696,0.5,0.51863174482696,0.182687610811975,0.500676692130579,-0.5,-0.00628936204898406,0.5,0.0125787240979681,1.09249172787995,0.0118255284601847,2.57299196905996,0.5,77.9536743935516
CBC_1026,CBC_1026_MSI_AV_v3_Vset3_Aset2_2023-07-20_11h56.22.418.csv,2,22,1,0,b,1,0,1,aud,B,63,0,1B,0B,0,1,b,2.63925489999929,1,0,1,0,1B,0B,B10,2.51230562397611,0.512499611948002,0.48136825517304,0.493710637951016,0.5,0.487500388051998,0.51863174482696,0.5,0.493710637951016,0.493710637951016,0.5,0.506289362048984,0.48136825517304,0.5,0.5,0.493710637951016,0.51863174482696,0.53110238309119,0.46889761690881,0.51863174482696,0.487500388051998,0.150080274620994,0.50104431145581,-0.51863174482696,-0.00652372562662614,0.5,0.0125787240979681,1.09249172787995,0.0118255284601847,2.57299196905996,0.5,77.9536743935516
CBC_1026,CBC_1026_MSI_AV_v3_Vset3_Aset2_2023-07-20_11h56.22.418.csv,2,23,3,0,z,0,1,0,aud,A,9,1,3A,0A,0,1,z,2.46755659999963,0,1,1,1,0A,3A,A30,3.63758615972639,0.512499611948002,0.48136825517304,0.493710637951016,0.5,0.487500388051998,0.512108019200334,0.5,0.493710637951016,0.493710637951016,0.5,0.506289362048984,0.48136825517304,0.5,0.5,0.493710637951016,0.51863174482696,0.512499611948002,0.487500388051998,0.512499611948002,0.5,0.170086070043324,0.499882161565395,0.487500388051998,0.00613213287895848,0.5,0.0125787240979681,1.09249172787995,0.0118255284601847,2.57299196905996,0.5,77.9536743935516
CBC_1026,CBC_1026_MSI_AV_v3_Vset3_Aset2_2023-07-20_11h56.22.418.csv,2,24,2,3,z,0,1,2,aud,D,63,1,2D,3D,0,1,z,2.05199899999934,0,1,1,1,3D,2D,D23,2.9704144655697,0.51863174482696,0.48136825517304,0.493710637951016,0.5,0.487500388051998,0.512108019200334,0.5,0.493710637951016,0.493710637951016,0.5,0.506289362048984,0.48136825517304,0.5,0.5,0.493710637951016,0.51863174482696,0.524909431149142,0.475090568850858,0.51863174482696,0.493710637951016,0.230152432823548,0.500744317494614,0.48136825517304,0.00605499847134198,0.5,0.0125787240979681,1.09249172787995,0.0118255284601847,2.57299196905996,0.5,77.9536743935516
CBC_1026,CBC_1026_MSI_AV_v3_Vset3_Aset2_2023-07-20_11h56.22.418.csv,2,25,1,3,b,1,0,1,aud,B,27,1,1B,3B,1,0,b,3.10283049999998,1,0,1,1,1B,3B,B13,3.68887945411394,0.51863174482696,0.48136825517304,0.493710637951016,0.5,0.487500388051998,0.512108019200334,0.5,0.493710637951016,0.493710637951016,0.5,0.506289362048984,0.48136825517304,0.5,0.5,0.493710637951016,0.524686743298302,0.518391778987165,0.481608221012835,0.512108019200334,0.493710637951016,0.106071474551936,0.500152060151903,0.487891980799666,0.00613705861609016,0.5,0.0125787240979681,1.09249172787995,0.0118255284601847,2.57299196905996,0.5,77.9536743935516
CBC_1026,CBC_1026_MSI_AV_v3_Vset3_Aset2_2023-07-20_11h56.22.418.csv,2,26,2,3,b,1,0,3,aud,C,63,1,2C,3C,1,0,z,1.64503149999928,0,1,0,0,3C,2C,C23,3.71357206670431,0.51863174482696,0.48136825517304,0.493710637951016,0.5,0.487500388051998,0.518245077816424,0.5,0.493710637951016,0.493710637951016,0.5,0.506289362048984,0.48136825517304,0.5,0.5,0.493710637951016,0.524686743298302,0.475090568850858,0.524909431149142,0.48136825517304,0.506289362048984,0.279930156198499,0.500835213660014,-0.48136825517304,-0.00605499847134198,0.5,0.0125787240979681,1.09249172787995,0.0118255284601847,2.57299196905996,0.5,77.9536743935516
CBC_1026,CBC_1026_MSI_AV_v3_Vset3_Aset2_2023-07-20_11h56.22.418.csv,2,27,2,0,b,1,0,3,aud,C,27,1,2C,0C,1,0,b,1.61019959999885,1,0,1,1,2C,0C,C20,3.04452243772342,0.51863174482696,0.48136825517304,0.493710637951016,0.5,0.487500388051998,0.518245077816424,0.5,0.493710637951016,0.493710637951016,0.5,0.506289362048984,0.475313256701698,0.5,0.5,0.493710637951016,0.524686743298302,0.512576734153011,0.487423265846989,0.506289362048984,0.493710637951016,0.278570861406396,0.499943438321184,0.493710637951016,0.00621024989901766,0.5,0.0125787240979681,1.09249172787995,0.0118255284601847,2.57299196905996,0.5,77.9536743935516
CBC_1026,CBC_1026_MSI_AV_v3_Vset3_Aset2_2023-07-20_11h56.22.418.csv,2,28,0,1,z,0,1,1,aud,B,63,1,0B,1B,0,1,b,3.3752173999992,1,0,0,0,0B,1B,B01,2.66258782702545,0.51863174482696,0.48136825517304,0.493710637951016,0.5,0.487500388051998,0.518245077816424,0.5,0.493710637951016,0.493710637951016,0.5,0.512499611948002,0.475313256701698,0.5,0.5,0.493710637951016,0.524686743298302,0.469283330766694,0.530716669233306,0.487500388051998,0.518245077816424,0.0864326104870128,0.499290596684906,-0.487500388051998,-0.00613213287895848,0.5,0.0125787240979681,1.09249172787995,0.0118255284601847,2.57299196905996,0.5,77.9536743935516
CBC_1026,CBC_1026_MSI_AV_v3_Vset3_Aset2_2023-07-20_11h56.22.418.csv,2,29,2,3,b,1,0,3,aud,C,63,1,2C,3C,1,0,z,2.53858990000026,0,1,0,0,3C,2C,C23,3.09104245335832,0.51863174482696,0.48136825517304,0.493710637951016,0.5,0.48136825517304,0.518245077816424,0.5,0.493710637951016,0.493710637951016,0.5,0.512499611948002,0.475313256701698,0.5,0.5,0.493710637951016,0.524686743298302,0.462859487245727,0.537140512754273,0.475313256701698,0.512499611948002,0.161030497731148,0.498859819712708,-0.475313256701698,-0.00597883431615735,0.5,0.0125787240979681,1.09249172787995,0.0118255284601847,2.57299196905996,0.5,77.9536743935516
CBC_1026,CBC_1026_MSI_AV_v3_Vset3_Aset2_2023-07-20_11h56.22.418.csv,2,30,1,0,z,0,1,0,aud,A,63,1,1A,0A,0,1,b,2.52633449999939,1,0,0,0,1A,0A,A10,2.70805020110221,0.51863174482696,0.48136825517304,0.493710637951016,0.5,0.48136825517304,0.518245077816424,0.5,0.493710637951016,0.493710637951016,0.5,0.512499611948002,0.46933442238554,0.5,0.5,0.493710637951016,0.524686743298302,0.462788181473899,0.537211818526101,0.48136825517304,0.51863174482696,0.162669081879716,0.499373957054383,-0.48136825517304,-0.00605499847134198,0.5,0.0125787240979681,1.09249172787995,0.0118255284601847,2.57299196905996,0.5,77.9536743935516
CBC_1026,CBC_1026_MSI_AV_v3_Vset3_Aset2_2023-07-20_11h56.22.418.csv,2,31,2,3,z,0,1,2,aud,D,63,1,2D,3D,0,1,z,1.5460407999999,0,1,1,1,3D,2D,D23,2.73002910782099,0.51863174482696,0.475313256701698,0.493710637951016,0.5,0.48136825517304,0.518245077816424,0.5,0.493710637951016,0.493710637951016,0.5,0.512499611948002,0.46933442238554,0.5,0.5,0.493710637951016,0.524686743298302,0.53095687940813,0.46904312059187,0.524686743298302,0.493710637951016,0.271365194792652,0.50066454194873,0.475313256701698,0.00597883431615735,0.5,0.0125787240979681,1.09249172787995,0.0118255284601847,2.57299196905996,0.5,77.9536743935516
CBC_1026,CBC_1026_MSI_AV_v3_Vset3_Aset2_2023-07-20_11h56.22.418.csv,2,32,2,3,b,1,0,3,aud,C,63,1,2C,3C,1,0,b,2.49966049999966,1,0,1,1,2C,3C,C23,2.75153531304195,0.51863174482696,0.475313256701698,0.493710637951016,0.5,0.48136825517304,0.518245077816424,0.5,0.493710637951016,0.493710637951016,0.5,0.512499611948002,0.46933442238554,0.5,0.5,0.493710637951016,0.53066557761446,0.543099108660863,0.456900891339137,0.512499611948002,0.46933442238554,0.16637866073282,0.500756849004855,0.487500388051998,0.00613213287895848,0.5,0.0125787240979681,1.09249172787995,0.0118255284601847,2.57299196905996,0.5,77.9536743935516
CBC_1026,CBC_1026_MSI_AV_v3_Vset3_Aset2_2023-07-20_11h56.22.418.csv,2,33,3,1,b,1,0,2,aud,D,27,1,3D,1D,1,0,z,1.67309209999985,0,1,0,0,1D,3D,D31,3.17805383034795,0.51863174482696,0.475313256701698,0.493710637951016,0.5,0.48136825517304,0.518245077816424,0.5,0.493710637951016,0.493710637951016,0.5,0.51863174482696,0.46933442238554,0.5,0.5,0.493710637951016,0.53066557761446,0.46933442238554,0.53066557761446,0.5,0.53066557761446,0.279305366875651,0.500686213447165,-0.5,-0.00628936204898406,0.5,0.0125787240979681,1.09249172787995,0.0118255284601847,2.57299196905996,0.5,77.9536743935516
CBC_1026,CBC_1026_MSI_AV_v3_Vset3_Aset2_2023-07-20_11h56.22.418.csv,2,34,0,2,z,0,1,3,aud,C,27,1,0C,2C,0,1,z,2.40446399999928,0,1,1,1,2C,0C,C02,3.89182029811063,0.51863174482696,0.475313256701698,0.493710637951016,0.5,0.48136825517304,0.518245077816424,0.5,0.493710637951016,0.493710637951016,0.5,0.51863174482696,0.46933442238554,0.5,0.493710637951016,0.493710637951016,0.53066557761446,0.524909431149142,0.475090568850858,0.51863174482696,0.493710637951016,0.178120945007776,0.499634953168061,0.48136825517304,0.00605499847134198,0.5,0.0125787240979681,1.09249172787995,0.0118255284601847,2.57299196905996,0.5,77.9536743935516
CBC_1026,CBC_1026_MSI_AV_v3_Vset3_Aset2_2023-07-20_11h56.22.418.csv,2,35,2,3,z,0,1,2,aud,D,63,0,2D,3D,1,0,z,3.85968630000025,0,1,1,0,3D,2D,D23,2.52572864430826,0.51863174482696,0.475313256701698,0.493710637951016,0.5,0.48136825517304,0.518245077816424,0.5,0.493710637951016,0.493710637951016,0.5,0.524686743298302,0.46933442238554,0.5,0.493710637951016,0.493710637951016,0.53066557761446,0.536926452099104,0.463073547900897,0.53066557761446,0.493710637951016,0.0604307624326251,0.500919215647197,-0.53066557761446,-0.00667509588910117,0.5,0.0125787240979681,1.09249172787995,0.0118255284601847,2.57299196905996,0.5,77.9536743935516
CBC_1026,CBC_1026_MSI_AV_v3_Vset3_Aset2_2023-07-20_11h56.22.418.csv,2,36,1,0,z,0,1,0,aud,A,63,1,1A,0A,0,1,z,2.43630109999958,0,1,1,1,0A,1A,A10,2.54553127160444,0.51863174482696,0.475313256701698,0.493710637951016,0.5,0.48136825517304,0.518245077816424,0.5,0.493710637951016,0.493710637951016,0.5,0.524686743298302,0.46933442238554,0.5,0.493710637951016,0.493710637951016,0.523990481725358,0.543238935902701,0.456761064097298,0.51863174482696,0.475313256701698,0.174205205974365,0.500282366685678,0.48136825517304,0.00605499847134198,0.5,0.0125787240979681,1.09249172787995,0.0118255284601847,2.57299196905996,0.5,77.9536743935516
CBC_1026,CBC_1026_MSI_AV_v3_Vset3_Aset2_2023-07-20_11h56.22.418.csv,2,37,2,3,b,1,0,3,aud,C,63,1,2C,3C,1,0,z,2.57331639999938,0,1,0,0,3C,2C,C23,2.56494935746154,0.524686743298302,0.475313256701698,0.493710637951016,0.5,0.48136825517304,0.518245077816424,0.5,0.493710637951016,0.493710637951016,0.5,0.524686743298302,0.46933442238554,0.5,0.493710637951016,0.493710637951016,0.523990481725358,0.44481478724946,0.55518521275054,0.46933442238554,0.524686743298302,0.156924361880929,0.498837153904256,-0.46933442238554,-0.00590362820886695,0.5,0.0125787240979681,1.09249172787995,0.0118255284601847,2.57299196905996,0.5,77.9536743935516
CBC_1026,CBC_1026_MSI_AV_v3_Vset3_Aset2_2023-07-20_11h56.22.418.csv,2,38,0,2,b,1,0,0,aud,A,27,1,0A,2A,1,0,z,2.73213069999929,0,1,0,0,2A,0A,A02,2.87167962488401,0.524686743298302,0.475313256701698,0.493710637951016,0.5,0.48136825517304,0.518245077816424,0.5,0.493710637951016,0.493710637951016,0.5,0.524686743298302,0.463430794176674,0.5,0.493710637951016,0.493710637951016,0.523990481725358,0.46904312059187,0.53095687940813,0.493710637951016,0.524686743298302,0.139539593854196,0.499185122906986,-0.493710637951016,-0.00621024989901766,0.5,0.0125787240979681,1.09249172787995,0.0118255284601847,2.57299196905996,0.5,77.9536743935516
CBC_1026,CBC_1026_MSI_AV_v3_Vset3_Aset2_2023-07-20_11h56.22.418.csv,2,39,2,3,z,0,1,2,aud,D,63,1,2D,3D,0,1,z,2.49160239999946,0,1,1,1,3D,2D,D23,2.37954613413017,0.524686743298302,0.475313256701698,0.487500388051998,0.5,0.48136825517304,0.518245077816424,0.5,0.493710637951016,0.493710637951016,0.5,0.524686743298302,0.463430794176674,0.5,0.493710637951016,0.493710637951016,0.523990481725358,0.530261579721664,0.469738420278336,0.523990481725358,0.493710637951016,0.167176055950028,0.500160469437584,0.476009518274642,0.00598759239838343,0.5,0.0125787240979681,1.09249172787995,0.0118255284601847,2.57299196905996,0.5,77.9536743935516
CBC_1026,CBC_1026_MSI_AV_v3_Vset3_Aset2_2023-07-20_11h56.22.418.csv,2,40,3,2,b,1,0,2,aud,D,63,1,3D,2D,1,0,b,1.47747879999952,1,0,1,1,3D,2D,D32,3.31418600467253,0.524686743298302,0.475313256701698,0.487500388051998,0.5,0.48136825517304,0.518245077816424,0.5,0.493710637951016,0.493710637951016,0.5,0.524686743298302,0.463430794176674,0.5,0.493710637951016,0.493710637951016,0.529978074123742,0.536240104905881,0.463759895094119,0.529978074123742,0.493710637951016,0.250809125732033,0.500825788460983,0.470021925876258,0.00591227612559307,0.5,0.0125787240979681,1.09249172787995,0.0118255284601847,2.57299196905996,0.5,77.9536743935516
CBC_1026,CBC_1026_MSI_AV_v3_Vset3_Aset2_2023-07-20_11h56.22.418.csv,2,41,3,1,z,0,1,1,aud,B,27,1,3B,1B,NaN,NaN,[],NaN,NaN,NaN,NaN,NaN,,,B31,3.3322045101752,0.524686743298302,0.475313256701698,0.487500388051998,0.5,0.48136825517304,0.518245077816424,0.5,0.493710637951016,0.493710637951016,0.5,0.524686743298302,0.463430794176674,0.5,0.493710637951016,0.493710637951016,0.535890350249335,0,0,0,0,NaN,0,0,0,0.5,0.0125787240979681,1.09249172787995,0.0118255284601847,2.57299196905996,0.5,77.9536743935516
CBC_1026,CBC_1026_MSI_AV_v3_Vset3_Aset2_2023-07-20_11h56.22.418.csv,2,42,3,0,b,1,0,2,aud,D,9,1,3D,0D,1,0,z,4.38099009999951,0,1,0,0,0D,3D,D30,4.04305126783455,0.524686743298302,0.475313256701698,0.487500388051998,0.5,0.48136825517304,0.518245077816424,0.5,0.493710637951016,0.493710637951016,0.5,0.524686743298302,0.463430794176674,0.5,0.493710637951016,0.493710637951016,0.535890350249335,0.464109649750665,0.535890350249335,0.5,0.535890350249335,0.0408070255721168,0.498889637295312,-0.5,-0.00628936204898406,0.5,0.0125787240979681,1.09249172787995,0.0118255284601847,2.57299196905996,0.5,77.9536743935516
CBC_1026,CBC_1026_MSI_AV_v3_Vset3_Aset2_2023-07-20_11h56.22.418.csv,2,43,0,1,z,0,1,1,aud,B,63,1,0B,1B,0,1,z,5.53501439999945,0,1,1,1,1B,0B,B01,2.67414864942653,0.524686743298302,0.475313256701698,0.487500388051998,0.5,0.48136825517304,0.518245077816424,0.5,0.493710637951016,0.493710637951016,0.5,0.524686743298302,0.463430794176674,0.493710637951016,0.493710637951016,0.493710637951016,0.535890350249335,0.536826747453762,0.463173252546238,0.518245077816424,0.48136825517304,0.0173130180711643,0.500297965414829,0.481754922183576,0.0060598622489853,0.5,0.0125787240979681,1.09249172787995,0.0118255284601847,2.57299196905996,0.5,77.9536743935516
CBC_1026,CBC_1026_MSI_AV_v3_Vset3_Aset2_2023-07-20_11h56.22.418.csv,2,44,0,1,b,1,0,0,aud,A,63,1,0A,1A,NaN,NaN,[],NaN,NaN,NaN,NaN,NaN,,,A01,2.97892515523761,0.524686743298302,0.475313256701698,0.487500388051998,0.5,0.48136825517304,0.52430494006541,0.5,0.493710637951016,0.493710637951016,0.5,0.524686743298302,0.463430794176674,0.493710637951016,0.493710637951016,0.493710637951016,0.535890350249335,0,0,0,0,NaN,0,0,0,0.5,0.0125787240979681,1.09249172787995,0.0118255284601847,2.57299196905996,0.5,77.9536743935516
CBC_1026,CBC_1026_MSI_TV_v3_Vset4_Tset3_2023-07-20_12h55.31.545.csv,3,1,0,1,z,0,1,1,tac,B,63,1,0B,1B,0,1,z,2.5516217000004,0,1,1,1,1B,0B,B01,2.77258872223978,0.5,0.5,0.5,0.5,0.5,0.5,0.5,0.5,0.5,0.5,0.5,0.5,0.5,0.5,0.5,0.5,0.5,0.5,0.5,0.5,0.160190609225635,0.500139471922421,0.5,3.98358786660169e-05,0.5,7.96717573320338e-05,1.09641759751953,0.0390427496792223,2.78853123407,0.5,75.0657659196675
CBC_1026,CBC_1026_MSI_TV_v3_Vset4_Tset3_2023-07-20_12h55.31.545.csv,3,2,2,3,z,0,1,2,tac,D,63,1,2D,3D,0,1,b,2.86428599999999,1,0,0,0,2D,3D,D23,2.83321334405622,0.5,0.5,0.5,0.5,0.5,0.500039835878666,0.5,0.5,0.5,0.5,0.5,0.5,0.5,0.5,0.5,0.5,0.5,0.5,0.5,0.5,0.131482199943082,0.499866674217204,-0.5,-3.98358786660169e-05,0.5,7.96717573320338e-05,1.09641759751953,0.0390427496792223,2.78853123407,0.5,75.0657659196675
CBC_1026,CBC_1026_MSI_TV_v3_Vset4_Tset3_2023-07-20_12h55.31.545.csv,3,3,1,3,b,1,0,1,tac,B,27,1,1B,3B,1,0,z,2.86221269999987,0,1,0,0,3B,1B,B13,2.89037175789616,0.5,0.5,0.5,0.5,0.5,0.500039835878666,0.5,0.5,0.5,0.5,0.5,0.5,0.5,0.5,0.499960164121334,0.5,0.499960164121334,0.500039835878666,0.5,0.500039835878666,0.131713064988812,0.500087949753423,-0.5,-3.98358786660169e-05,0.5,7.96717573320338e-05,1.09641759751953,0.0390427496792223,2.78853123407,0.5,75.0657659196675
CBC_1026,CBC_1026_MSI_TV_v3_Vset4_Tset3_2023-07-20_12h55.31.545.csv,3,4,3,2,z,0,1,3,tac,C,63,1,3C,2C,0,1,b,2.49812259999999,1,0,0,0,3C,2C,C32,2.94443897916644,0.5,0.5,0.5,0.5,0.5,0.500039835878666,0.5,0.499960164121334,0.5,0.5,0.5,0.5,0.5,0.5,0.499960164121334,0.5,0.5,0.5,0.5,0.5,0.165758980185907,0.500539059762907,-0.5,-3.98358786660169e-05,0.5,7.96717573320338e-05,1.09641759751953,0.0390427496792223,2.78853123407,0.5,75.0657659196675
CBC_1026,CBC_1026_MSI_TV_v3_Vset4_Tset3_2023-07-20_12h55.31.545.csv,3,5,2,0,b,1,0,3,tac,C,27,1,2C,0C,1,0,z,2.45383649999894,0,1,0,0,0C,2C,C20,2.99573227355399,0.5,0.5,0.5,0.5,0.5,0.500039835878666,0.5,0.499960164121334,0.5,0.5,0.5,0.499960164121334,0.5,0.5,0.499960164121334,0.5,0.5,0.5,0.5,0.5,0.170102095254557,0.499726109841224,-0.5,-3.98358786660169e-05,0.5,7.96717573320338e-05,1.09641759751953,0.0390427496792223,2.78853123407,0.5,75.0657659196675
CBC_1026,CBC_1026_MSI_TV_v3_Vset4_Tset3_2023-07-20_12h55.31.545.csv,3,6,3,0,z,0,1,0,tac,A,9,1,3A,0A,0,1,b,3.19090030000007,1,0,0,0,3A,0A,A30,3.04452243772342,0.5,0.5,0.5,0.5,0.5,0.500039835878666,0.5,0.499960164121334,0.499960164121334,0.5,0.5,0.499960164121334,0.5,0.5,0.499960164121334,0.5,0.5,0.5,0.5,0.5,0.106934259410062,0.500023604989342,-0.5,-3.98358786660169e-05,0.5,7.96717573320338e-05,1.09641759751953,0.0390427496792223,2.78853123407,0.5,75.0657659196675
CBC_1026,CBC_1026_MSI_TV_v3_Vset4_Tset3_2023-07-20_12h55.31.545.csv,3,7,3,2,z,0,1,3,tac,C,63,1,3C,2C,0,1,z,2.65325210000083,0,1,1,1,2C,3C,C32,2.39789527279837,0.5,0.5,0.5,0.499960164121334,0.5,0.500039835878666,0.5,0.499960164121334,0.499960164121334,0.5,0.5,0.499960164121334,0.5,0.5,0.499960164121334,0.5,0.500039835878666,0.499960164121334,0.5,0.499960164121334,0.150513669183403,0.500858944884111,0.5,3.98358786660169e-05,0.5,7.96717573320338e-05,1.09641759751953,0.0390427496792223,2.78853123407,0.5,75.0657659196675
CBC_1026,CBC_1026_MSI_TV_v3_Vset4_Tset3_2023-07-20_12h55.31.545.csv,3,8,0,1,b,1,0,0,tac,A,63,1,0A,1A,1,0,z,3.08666089999861,0,1,0,0,1A,0A,A01,3.13549421592915,0.5,0.5,0.5,0.499960164121334,0.5,0.500039835878666,0.5,0.499960164121334,0.499960164121334,0.5,0.500039835878666,0.499960164121334,0.5,0.5,0.499960164121334,0.5,0.5,0.5,0.5,0.5,0.114129380041614,0.499531692119731,-0.5,-3.98358786660169e-05,0.5,7.96717573320338e-05,1.09641759751953,0.0390427496792223,2.78853123407,0.5,75.0657659196675
CBC_1026,CBC_1026_MSI_TV_v3_Vset4_Tset3_2023-07-20_12h55.31.545.csv,3,9,3,2,b,1,0,2,tac,D,63,1,3D,2D,1,0,b,2.68497719999868,1,0,1,1,3D,2D,D32,3.17805383034795,0.5,0.499960164121334,0.5,0.499960164121334,0.5,0.500039835878666,0.5,0.499960164121334,0.499960164121334,0.5,0.500039835878666,0.499960164121334,0.5,0.5,0.499960164121334,0.5,0.500039835878666,0.499960164121334,0.5,0.499960164121334,0.147406363332925,0.500412443200744,0.5,3.98358786660169e-05,0.5,7.96717573320338e-05,1.09641759751953,0.0390427496792223,2.78853123407,0.5,75.0657659196675
CBC_1026,CBC_1026_MSI_TV_v3_Vset4_Tset3_2023-07-20_12h55.31.545.csv,3,10,2,3,b,1,0,3,tac,C,63,1,2C,3C,1,0,z,2.42580070000076,0,1,0,0,3C,2C,C23,3.2188758248682,0.5,0.499960164121334,0.5,0.499960164121334,0.5,0.500039835878666,0.5,0.499960164121334,0.499960164121334,0.5,0.500039835878666,0.499960164121334,0.5,0.5,0.499960164121334,0.500039835878666,0.499920328243174,0.500079671756826,0.499960164121334,0.500039835878666,0.173639526810077,0.50135643877522,-0.499960164121334,-3.98327048715587e-05,0.5,7.96717573320338e-05,1.09641759751953,0.0390427496792223,2.78853123407,0.5,75.0657659196675
CBC_1026,CBC_1026_MSI_TV_v3_Vset4_Tset3_2023-07-20_12h55.31.545.csv,3,11,1,3,z,0,1,2,tac,D,27,1,1D,3D,0,1,b,2.87533369999983,1,0,0,0,1D,3D,D13,3.25809653802148,0.5,0.499960164121334,0.5,0.499960164121334,0.5,0.500039835878666,0.5,0.499960164121334,0.499960164121334,0.5,0.500039835878666,0.499920331416462,0.5,0.5,0.499960164121334,0.500039835878666,0.499960164121334,0.500039835878666,0.5,0.500039835878666,0.130746104751684,0.500555089227366,-0.5,-3.98358786660169e-05,0.5,7.96717573320338e-05,1.09641759751953,0.0390427496792223,2.78853123407,0.5,75.0657659196675
CBC_1026,CBC_1026_MSI_TV_v3_Vset4_Tset3_2023-07-20_12h55.31.545.csv,3,12,1,0,z,0,1,0,tac,A,63,0,1A,0A,NaN,NaN,None,NaN,NaN,NaN,NaN,NaN,,,A10,3.29583686600433,0.5,0.499960164121334,0.5,0.499960164121334,0.5,0.500039835878666,0.5,0.499960164121334,0.499960164121334,0.5,0.500039835878666,0.499920331416462,0.5,0.499960164121334,0.499960164121334,0.500039835878666,0,0,0,0,NaN,0,0,0,0.5,7.96717573320338e-05,1.09641759751953,0.0390427496792223,2.78853123407,0.5,75.0657659196675
CBC_1026,CBC_1026_MSI_TV_v3_Vset4_Tset3_2023-07-20_12h55.31.545.csv,3,13,2,3,b,1,0,3,tac,C,63,1,2C,3C,1,0,z,2.58695599999919,0,1,0,0,3C,2C,C23,2.63905732961526,0.5,0.499960164121334,0.5,0.499960164121334,0.5,0.500039835878666,0.5,0.499960164121334,0.499960164121334,0.5,0.500039835878666,0.499920331416462,0.5,0.499960164121334,0.499960164121334,0.500039835878666,0.499880495539314,0.500119504460686,0.499920331416462,0.500039835878666,0.156327403631796,0.498993722959514,-0.499920331416462,-3.98295313299623e-05,0.5,7.96717573320338e-05,1.09641759751953,0.0390427496792223,2.78853123407,0.5,75.0657659196675
CBC_1026,CBC_1026_MSI_TV_v3_Vset4_Tset3_2023-07-20_12h55.31.545.csv,3,14,0,2,b,1,0,0,tac,A,27,1,0A,2A,1,0,b,2.5592187000002,1,0,1,1,0A,2A,A02,3.36729582998647,0.5,0.499960164121334,0.5,0.499960164121334,0.5,0.500039835878666,0.5,0.499960164121334,0.499960164121334,0.5,0.500039835878666,0.499880501885132,0.5,0.499960164121334,0.499960164121334,0.500039835878666,0.5,0.5,0.5,0.5,0.159356404481759,0.499904334495516,0.5,3.98358786660169e-05,0.5,7.96717573320338e-05,1.09641759751953,0.0390427496792223,2.78853123407,0.5,75.0657659196675
CBC_1026,CBC_1026_MSI_TV_v3_Vset4_Tset3_2023-07-20_12h55.31.545.csv,3,15,0,1,z,0,1,1,tac,B,63,1,0B,1B,0,1,z,2.680268600001,0,1,1,1,1B,0B,B01,2.70805020110221,0.500039835878666,0.499960164121334,0.5,0.499960164121334,0.5,0.500039835878666,0.5,0.499960164121334,0.499960164121334,0.5,0.500039835878666,0.499880501885132,0.5,0.499960164121334,0.499960164121334,0.500039835878666,0.500039835878666,0.499960164121334,0.500039835878666,0.5,0.14764793234308,0.499748397611181,0.499960164121334,3.98327048715587e-05,0.5,7.96717573320338e-05,1.09641759751953,0.0390427496792223,2.78853123407,0.5,75.0657659196675
CBC_1026,CBC_1026_MSI_TV_v3_Vset4_Tset3_2023-07-20_12h55.31.545.csv,3,16,3,2,b,1,0,2,tac,D,63,1,3D,2D,1,0,b,2.66154449999885,1,0,1,1,3D,2D,D32,2.7408400239252,0.500039835878666,0.499960164121334,0.5,0.499960164121334,0.5,0.500079668583537,0.5,0.499960164121334,0.499960164121334,0.5,0.500039835878666,0.499880501885132,0.5,0.499960164121334,0.499960164121334,0.500039835878666,0.500079671756826,0.499920328243174,0.500039835878666,0.499960164121334,0.149642832524888,0.500565762071476,0.499960164121334,3.98327048715587e-05,0.5,7.96717573320338e-05,1.09641759751953,0.0390427496792223,2.78853123407,0.5,75.0657659196675
CBC_1026,CBC_1026_MSI_TV_v3_Vset4_Tset3_2023-07-20_12h55.31.545.csv,3,17,1,2,b,1,0,1,tac,B,9,1,1B,2B,1,0,z,2.41302559999895,0,1,0,0,2B,1B,B12,3.46573590279973,0.500039835878666,0.499960164121334,0.5,0.499960164121334,0.5,0.500079668583537,0.5,0.499960164121334,0.499960164121334,0.5,0.500039835878666,0.499880501885132,0.5,0.499960164121334,0.499960164121334,0.500079668583537,0.499920331416463,0.500079668583537,0.5,0.500079668583537,0.174554162073158,0.500046478181454,-0.5,-3.98358786660169e-05,0.5,7.96717573320338e-05,1.09641759751953,0.0390427496792223,2.78853123407,0.5,75.0657659196675
CBC_1026,CBC_1026_MSI_TV_v3_Vset4_Tset3_2023-07-20_12h55.31.545.csv,3,18,1,3,z,0,1,2,tac,D,27,1,1D,3D,0,1,b,2.46692710000025,1,0,0,0,1D,3D,D13,2.80336038090653,0.500039835878666,0.499960164121334,0.5,0.499960164121334,0.5,0.500079668583537,0.499960164121334,0.499960164121334,0.499960164121334,0.5,0.500039835878666,0.499880501885132,0.5,0.499960164121334,0.499960164121334,0.500079668583537,0.499880495539314,0.500119504460686,0.499960164121334,0.500079668583537,0.168695430026253,0.499629713642352,-0.499960164121334,-3.98327048715587e-05,0.5,7.96717573320338e-05,1.09641759751953,0.0390427496792223,2.78853123407,0.5,75.0657659196675
CBC_1026,CBC_1026_MSI_TV_v3_Vset4_Tset3_2023-07-20_12h55.31.545.csv,3,19,0,1,b,1,0,0,tac,A,63,1,0A,1A,1,0,z,2.87777519999872,0,1,0,0,1A,0A,A01,2.83321334405622,0.500039835878666,0.499960164121334,0.5,0.499960164121334,0.5,0.500079668583537,0.499960164121334,0.499960164121334,0.499960164121334,0.5,0.500039835878666,0.499880501885132,0.5,0.499920331416462,0.499960164121334,0.500079668583537,0.499920328243174,0.500079671756826,0.499960164121334,0.500039835878666,0.130382210615893,0.499933776230434,-0.499960164121334,-3.98327048715587e-05,0.5,7.96717573320338e-05,1.09641759751953,0.0390427496792223,2.78853123407,0.5,75.0657659196675
CBC_1026,CBC_1026_MSI_TV_v3_Vset4_Tset3_2023-07-20_12h55.31.545.csv,3,20,1,0,z,0,1,0,tac,A,63,1,1A,0A,0,1,b,1.68054999999913,1,0,0,0,1A,0A,A10,2.86220088092947,0.500039835878666,0.499920331416462,0.5,0.499960164121334,0.5,0.500079668583537,0.499960164121334,0.499960164121334,0.499960164121334,0.5,0.500039835878666,0.499880501885132,0.5,0.499920331416462,0.499960164121334,0.500079668583537,0.499880495539313,0.500119504460687,0.499920331416462,0.500039835878666,0.236312130733531,0.500759560581314,-0.499920331416462,-3.98295313299623e-05,0.5,7.96717573320338e-05,1.09641759751953,0.0390427496792223,2.78853123407,0.5,75.0657659196675
CBC_1026,CBC_1026_MSI_TV_v3_Vset4_Tset3_2023-07-20_12h55.31.545.csv,3,21,2,0,b,1,0,3,tac,C,27,1,2C,0C,1,0,b,2.50818339999933,1,0,1,1,2C,0C,C20,2.89037175789616,0.500039835878666,0.499880501885132,0.5,0.499960164121334,0.5,0.500079668583537,0.499960164121334,0.499960164121334,0.499960164121334,0.5,0.500039835878666,0.499880501885132,0.5,0.499920331416462,0.499960164121334,0.500079668583537,0.500079671756826,0.499920328243174,0.500039835878666,0.499960164121334,0.164587079999771,0.500123015618318,0.499960164121334,3.98327048715587e-05,0.5,7.96717573320338e-05,1.09641759751953,0.0390427496792223,2.78853123407,0.5,75.0657659196675
CBC_1026,CBC_1026_MSI_TV_v3_Vset4_Tset3_2023-07-20_12h55.31.545.csv,3,22,0,1,z,0,1,1,tac,B,63,1,0B,1B,0,1,b,2.38447730000007,1,0,0,0,0B,1B,B01,2.51230562397611,0.500039835878666,0.499880501885132,0.5,0.499960164121334,0.5,0.500079668583537,0.499960164121334,0.499960164121334,0.499960164121334,0.5,0.500079668583537,0.499880501885132,0.5,0.499920331416462,0.499960164121334,0.500079668583537,0.499920331416463,0.500079668583537,0.5,0.500079668583537,0.177690187027093,0.500184630250059,-0.5,-3.98358786660169e-05,0.5,7.96717573320338e-05,1.09641759751953,0.0390427496792223,2.78853123407,0.5,75.0657659196675
CBC_1026,CBC_1026_MSI_TV_v3_Vset4_Tset3_2023-07-20_12h55.31.545.csv,3,23,2,0,b,1,0,3,tac,C,27,1,2C,0C,1,0,b,2.42771529999845,1,0,1,1,2C,0C,C20,2.53897387105828,0.500039835878666,0.499880501885132,0.5,0.499960164121334,0.499960164121334,0.500079668583537,0.499960164121334,0.499960164121334,0.499960164121334,0.5,0.500079668583537,0.499880501885132,0.5,0.499920331416462,0.499960164121334,0.500079668583537,0.500119504460686,0.499880495539314,0.500079668583537,0.499960164121334,0.17305710008117,0.500265766441491,0.499920331416463,3.98295313299623e-05,0.5,7.96717573320338e-05,1.09641759751953,0.0390427496792223,2.78853123407,0.5,75.0657659196675
CBC_1026,CBC_1026_MSI_TV_v3_Vset4_Tset3_2023-07-20_12h55.31.545.csv,3,24,3,2,b,1,0,2,tac,D,63,1,3D,2D,1,0,z,2.71599379999861,0,1,0,0,2D,3D,D32,2.56494935746154,0.500039835878666,0.499880501885132,0.5,0.499960164121334,0.499960164121334,0.500079668583537,0.499960164121334,0.499960164121334,0.499960164121334,0.5,0.500119498114867,0.499880501885132,0.5,0.499920331416462,0.499960164121334,0.500079668583537,0.499880495539314,0.500119504460686,0.499960164121334,0.500079668583537,0.144792707500429,0.501241808738633,-0.499960164121334,-3.98327048715587e-05,0.5,7.96717573320338e-05,1.09641759751953,0.0390427496792223,2.78853123407,0.5,75.0657659196675
CBC_1026,CBC_1026_MSI_TV_v3_Vset4_Tset3_2023-07-20_12h55.31.545.csv,3,25,1,0,z,0,1,0,tac,A,63,1,1A,0A,0,1,b,3.07986019999771,1,0,0,0,1A,0A,A10,2.59026716544583,0.500039835878666,0.499880501885132,0.5,0.499960164121334,0.499960164121334,0.500079668583537,0.499960164121334,0.499960164121334,0.499960164121334,0.5,0.500119498114867,0.499880501885132,0.5,0.499920331416462,0.499920331416462,0.500079668583537,0.4998406660095,0.5001593339905,0.499880501885132,0.500039835878666,0.115089267823425,0.50156584026334,-0.499880501885132,-3.98263580412075e-05,0.5,7.96717573320338e-05,1.09641759751953,0.0390427496792223,2.78853123407,0.5,75.0657659196675
CBC_1026,CBC_1026_MSI_TV_v3_Vset4_Tset3_2023-07-20_12h55.31.545.csv,3,26,3,2,z,0,1,3,tac,C,63,1,3C,2C,0,1,z,2.3069990999993,0,1,1,1,2C,3C,C32,2.6149597780362,0.500039835878666,0.499840675527091,0.5,0.499960164121334,0.499960164121334,0.500079668583537,0.499960164121334,0.499960164121334,0.499960164121334,0.5,0.500119498114867,0.499880501885132,0.5,0.499920331416462,0.499920331416462,0.500079668583537,0.500238996216084,0.499761003783916,0.500119498114867,0.499880501885132,0.186047311104152,0.49962995918291,0.499880501885133,3.98263580412075e-05,0.5,7.96717573320338e-05,1.09641759751953,0.0390427496792223,2.78853123407,0.5,75.0657659196675
CBC_1026,CBC_1026_MSI_TV_v3_Vset4_Tset3_2023-07-20_12h55.31.545.csv,3,27,2,0,z,0,1,0,tac,A,27,1,2A,0A,0,1,z,2.60434669999995,0,1,1,1,0A,2A,A20,3.73766961828337,0.500039835878666,0.499840675527091,0.5,0.499960164121334,0.499960164121334,0.500079668583537,0.499960164121334,0.499960164121334,0.499960164121334,0.5,0.500159324472909,0.499880501885132,0.5,0.499920331416462,0.499920331416462,0.500079668583537,0.500039835878666,0.499960164121334,0.500039835878666,0.5,0.154622709796696,0.498964188764921,0.499960164121334,3.98327048715587e-05,0.5,7.96717573320338e-05,1.09641759751953,0.0390427496792223,2.78853123407,0.5,75.0657659196675
CBC_1026,CBC_1026_MSI_TV_v3_Vset4_Tset3_2023-07-20_12h55.31.545.csv,3,28,3,2,b,1,0,2,tac,D,63,1,3D,2D,1,0,b,2.59180679999918,1,0,1,1,3D,2D,D32,2.37490575457367,0.500079668583537,0.499840675527091,0.5,0.499960164121334,0.499960164121334,0.500079668583537,0.499960164121334,0.499960164121334,0.499960164121334,0.5,0.500159324472909,0.499880501885132,0.5,0.499920331416462,0.499920331416462,0.500079668583537,0.50015933716303,0.49984066283697,0.500079668583537,0.499920331416462,0.156335780022831,0.500540291018372,0.499920331416463,3.98295313299623e-05,0.5,7.96717573320338e-05,1.09641759751953,0.0390427496792223,2.78853123407,0.5,75.0657659196675
CBC_1026,CBC_1026_MSI_TV_v3_Vset4_Tset3_2023-07-20_12h55.31.545.csv,3,29,3,2,b,1,0,2,tac,D,63,1,3D,2D,1,0,z,3.42912539999998,0,1,0,0,2D,3D,D32,2.17475172148416,0.500079668583537,0.499840675527091,0.5,0.499960164121334,0.499960164121334,0.500079668583537,0.499960164121334,0.499960164121334,0.499960164121334,0.5,0.500159324472909,0.499880501885132,0.5,0.499920331416462,0.499920331416462,0.500119498114867,0.499800833309179,0.500199166690821,0.499920331416462,0.500119498114867,0.092079411255791,0.500809668229497,-0.499920331416462,-3.98295313299623e-05,0.5,7.96717573320338e-05,1.09641759751953,0.0390427496792223,2.78853123407,0.5,75.0657659196675
CBC_1026,CBC_1026_MSI_TV_v3_Vset4_Tset3_2023-07-20_12h55.31.545.csv,3,30,3,1,z,0,1,1,tac,B,27,1,3B,1B,0,1,b,4.0109210999999,1,0,0,0,3B,1B,B31,3.80666248977032,0.500079668583537,0.499840675527091,0.5,0.499960164121334,0.499960164121334,0.500079668583537,0.499960164121334,0.499960164121334,0.499960164121334,0.5,0.500159324472909,0.499880501885132,0.5,0.499920331416462,0.499880501885132,0.500119498114867,0.499880495539314,0.500119504460686,0.499960164121334,0.500079668583537,0.0635296985818523,0.499838468130422,-0.499960164121334,-3.98327048715587e-05,0.5,7.96717573320338e-05,1.09641759751953,0.0390427496792223,2.78853123407,0.5,75.0657659196675
CBC_1026,CBC_1026_MSI_TV_v3_Vset4_Tset3_2023-07-20_12h55.31.545.csv,3,31,0,3,z,0,1,2,tac,D,9,1,0D,3D,NaN,NaN,None,NaN,NaN,NaN,NaN,NaN,,,D03,3.8286413964891,0.500079668583537,0.499840675527091,0.5,0.499960164121334,0.499960164121334,0.500079668583537,0.499960164121334,0.499920331416462,0.499960164121334,0.5,0.500159324472909,0.499880501885132,0.5,0.499920331416462,0.499880501885132,0.500119498114867,0,0,0,0,NaN,0,0,0,0.5,7.96717573320338e-05,1.09641759751953,0.0390427496792223,2.78853123407,0.5,75.0657659196675
CBC_1026,CBC_1026_MSI_TV_v3_Vset4_Tset3_2023-07-20_12h55.31.545.csv,3,32,1,0,b,1,0,1,tac,B,63,1,1B,0B,1,0,z,2.76520530000016,0,1,0,0,0B,1B,B10,3.85014760171006,0.500079668583537,0.499840675527091,0.5,0.499960164121334,0.499960164121334,0.500079668583537,0.499960164121334,0.499920331416462,0.499960164121334,0.5,0.500159324472909,0.499880501885132,0.5,0.499920331416462,0.499880501885132,0.500119498114867,0.499880495539314,0.500119504460686,0.499960164121334,0.500079668583537,0.139542401336118,0.498302075456724,-0.499960164121334,-3.98327048715587e-05,0.5,7.96717573320338e-05,1.09641759751953,0.0390427496792223,2.78853123407,0.5,75.0657659196675
CBC_1026,CBC_1026_MSI_TV_v3_Vset4_Tset3_2023-07-20_12h55.31.545.csv,3,33,1,0,z,0,1,0,tac,A,63,1,1A,0A,NaN,NaN,None,NaN,NaN,NaN,NaN,NaN,,,A10,2.484906649788,0.500079668583537,0.499840675527091,0.5,0.499960164121334,0.499920331416462,0.500079668583537,0.499960164121334,0.499920331416462,0.499960164121334,0.5,0.500159324472909,0.499880501885132,0.5,0.499920331416462,0.499880501885132,0.500119498114867,0,0,0,0,NaN,0,0,0,0.5,7.96717573320338e-05,1.09641759751953,0.0390427496792223,2.78853123407,0.5,75.0657659196675
CBC_1026,CBC_1026_MSI_TV_v3_Vset4_Tset3_2023-07-20_12h55.31.545.csv,3,34,1,0,b,1,0,1,tac,B,63,1,1B,0B,NaN,NaN,None,NaN,NaN,NaN,NaN,NaN,,,B10,3.19867311755068,0.500079668583537,0.499840675527091,0.5,0.499960164121334,0.499920331416462,0.500079668583537,0.499960164121334,0.499920331416462,0.499960164121334,0.5,0.500159324472909,0.499880501885132,0.5,0.499920331416462,0.499880501885132,0.500119498114867,0,0,0,0,NaN,0,0,0,0.5,7.96717573320338e-05,1.09641759751953,0.0390427496792223,2.78853123407,0.5,75.0657659196675
CBC_1026,CBC_1026_MSI_TV_v3_Vset4_Tset3_2023-07-20_12h55.31.545.csv,3,35,3,2,z,0,1,3,tac,C,63,1,3C,2C,0,1,b,2.42641379999986,1,0,0,0,3C,2C,C32,2.52572864430826,0.500079668583537,0.499840675527091,0.5,0.499960164121334,0.499920331416462,0.500079668583537,0.499960164121334,0.499920331416462,0.499960164121334,0.5,0.500159324472909,0.499880501885132,0.5,0.499920331416462,0.499880501885132,0.500119498114867,0.499721177433458,0.500278822566542,0.499880501885132,0.500159324472909,0.173177681340301,0.500212609273755,-0.499880501885132,-3.98263580412075e-05,0.5,7.96717573320338e-05,1.09641759751953,0.0390427496792223,2.78853123407,0.5,75.0657659196675
CBC_1026,CBC_1026_MSI_TV_v3_Vset4_Tset3_2023-07-20_12h55.31.545.csv,3,36,0,2,b,1,0,0,tac,A,27,1,0A,2A,1,0,z,2.32127029999901,0,1,0,0,2A,0A,A02,3.23867845216438,0.500079668583537,0.499840675527091,0.5,0.499960164121334,0.499920331416462,0.500079668583537,0.499960164121334,0.499920331416462,0.499960164121334,0.5,0.500159324472909,0.499840675527091,0.5,0.499920331416462,0.499880501885132,0.500119498114867,0.499920331416463,0.500079668583537,0.5,0.500079668583537,0.184839695402044,0.500676644286265,-0.5,-3.98358786660169e-05,0.5,7.96717573320338e-05,1.09641759751953,0.0390427496792223,2.78853123407,0.5,75.0657659196675
CBC_1026,CBC_1026_MSI_TV_v3_Vset4_Tset3_2023-07-20_12h55.31.545.csv,3,37,1,0,b,1,0,1,tac,B,63,1,1B,0B,1,0,b,2.72422609999921,1,0,1,1,1B,0B,B10,2.85263142991332,0.500079668583537,0.499840675527091,0.499960164121334,0.499960164121334,0.499920331416462,0.500079668583537,0.499960164121334,0.499920331416462,0.499960164121334,0.5,0.500159324472909,0.499840675527091,0.5,0.499920331416462,0.499880501885132,0.500119498114867,0.50015933716303,0.49984066283697,0.500079668583537,0.499920331416462,0.143508840254554,0.499383327219261,0.499920331416463,3.98295313299623e-05,0.5,7.96717573320338e-05,1.09641759751953,0.0390427496792223,2.78853123407,0.5,75.0657659196675
CBC_1026,CBC_1026_MSI_TV_v3_Vset4_Tset3_2023-07-20_12h55.31.545.csv,3,38,3,1,z,0,1,1,tac,B,27,1,3B,1B,0,1,b,3.37717469999916,1,0,0,0,3B,1B,B31,3.27714473299218,0.500079668583537,0.499840675527091,0.499960164121334,0.499960164121334,0.499920331416462,0.500119498114867,0.499960164121334,0.499920331416462,0.499960164121334,0.5,0.500159324472909,0.499840675527091,0.5,0.499920331416462,0.499880501885132,0.500119498114867,0.499800833309179,0.500199166690821,0.499920331416462,0.500119498114867,0.0948466376604118,0.499133291211051,-0.499920331416462,-3.98295313299623e-05,0.5,7.96717573320338e-05,1.09641759751953,0.0390427496792223,2.78853123407,0.5,75.0657659196675
CBC_1026,CBC_1026_MSI_TV_v3_Vset4_Tset3_2023-07-20_12h55.31.545.csv,3,39,3,2,z,0,1,3,tac,C,63,1,3C,2C,0,1,b,2.54204739999841,1,0,0,0,3C,2C,C32,2.37954613413017,0.500079668583537,0.499840675527091,0.499960164121334,0.499960164121334,0.499920331416462,0.500119498114867,0.499960164121334,0.499880501885132,0.499960164121334,0.5,0.500159324472909,0.499840675527091,0.5,0.499920331416462,0.499880501885132,0.500119498114867,0.499681351086537,0.500318648913463,0.499840675527091,0.500159324472909,0.160787319606204,0.499007480412237,-0.499840675527091,-3.98231850052743e-05,0.5,7.96717573320338e-05,1.09641759751953,0.0390427496792223,2.78853123407,0.5,75.0657659196675
CBC_1026,CBC_1026_MSI_TV_v3_Vset4_Tset3_2023-07-20_12h55.31.545.csv,3,40,3,1,b,1,0,2,tac,D,27,1,3D,1D,1,0,z,2.75155879999875,0,1,0,0,1D,3D,D31,4.00733318523247,0.500079668583537,0.499840675527091,0.499960164121334,0.499960164121334,0.499920331416462,0.500119498114867,0.499960164121334,0.499880501885132,0.499960164121334,0.5,0.500159324472909,0.499800852342086,0.5,0.499920331416462,0.499880501885132,0.500119498114867,0.499800833309179,0.500199166690821,0.499920331416462,0.500119498114867,0.141485544363728,0.500907116646966,-0.499920331416462,-3.98295313299623e-05,0.5,7.96717573320338e-05,1.09641759751953,0.0390427496792223,2.78853123407,0.5,75.0657659196675
CBC_1026,CBC_1026_MSI_TV_v3_Vset4_Tset3_2023-07-20_12h55.31.545.csv,3,41,1,2,z,0,1,3,tac,C,9,1,1C,2C,0,1,b,2.77264409999952,1,0,0,0,1C,2C,C12,4.02535169073515,0.500079668583537,0.499840675527091,0.499960164121334,0.499960164121334,0.499920331416462,0.500119498114867,0.499960164121334,0.499880501885132,0.499960164121334,0.5,0.500159324472909,0.499800852342086,0.5,0.499880501885132,0.499880501885132,0.500119498114867,0.499840675527091,0.500159324472909,0.5,0.500159324472909,0.139491041431686,0.500464514440854,-0.5,-3.98358786660169e-05,0.5,7.96717573320338e-05,1.09641759751953,0.0390427496792223,2.78853123407,0.5,75.0657659196675
CBC_1026,CBC_1026_MSI_TV_v3_Vset4_Tset3_2023-07-20_12h55.31.545.csv,3,42,0,1,z,0,1,1,tac,B,63,0,0B,1B,1,0,b,3.46225199999935,1,0,0,1,0B,1B,B01,2.65675690671466,0.500079668583537,0.499840675527091,0.499960164121334,0.499960164121334,0.499920331416462,0.500119498114867,0.499960164121334,0.499880501885132,0.499960164121334,0.499960164121334,0.500159324472909,0.499800852342086,0.5,0.499880501885132,0.499880501885132,0.500119498114867,0.499800833309179,0.500199166690821,0.499920331416462,0.500119498114867,0.0898717452199768,0.499185657977026,0.500079668583538,3.98422260020715e-05,0.5,7.96717573320338e-05,1.09641759751953,0.0390427496792223,2.78853123407,0.5,75.0657659196675
CBC_1026,CBC_1026_MSI_TV_v3_Vset4_Tset3_2023-07-20_12h55.31.545.csv,3,43,3,2,b,1,0,2,tac,D,63,1,3D,2D,1,0,z,3.08317039999929,0,1,0,0,2D,3D,D32,2.26868354131836,0.500079668583537,0.499840675527091,0.499960164121334,0.499960164121334,0.499960173642464,0.500119498114867,0.499960164121334,0.499880501885132,0.499960164121334,0.499960164121334,0.500159324472909,0.499800852342086,0.5,0.499880501885132,0.499880501885132,0.500119498114867,0.499761003783916,0.500238996216084,0.499880501885132,0.500119498114867,0.114177898992919,0.498639392489534,-0.499880501885132,-3.98263580412075e-05,0.5,7.96717573320338e-05,1.09641759751953,0.0390427496792223,2.78853123407,0.5,75.0657659196675
CBC_1026,CBC_1026_MSI_TV_v3_Vset4_Tset3_2023-07-20_12h55.31.545.csv,3,44,0,1,b,1,0,0,tac,A,63,1,0A,1A,1,0,z,2.66667179999968,0,1,0,0,1A,0A,A01,2.97892515523761,0.500079668583537,0.499840675527091,0.499960164121334,0.499960164121334,0.499960173642464,0.500119498114867,0.499960164121334,0.499880501885132,0.499960164121334,0.499960164121334,0.500159324472909,0.499800852342086,0.5,0.499880501885132,0.499840675527091,0.500119498114867,0.499761006955688,0.500238993044312,0.499840675527091,0.500079668583537,0.149073176411425,0.500271849341679,-0.499840675527091,-3.98231850052743e-05,0.5,7.96717573320338e-05,1.09641759751953,0.0390427496792223,2.78853123407,0.5,75.0657659196675
CBC_1026,CBC_1026_MSI_AV_v3_Vset1_Aset3_2023-07-20_13h03.59.061.csv,4,1,0,1,b,1,0,0,aud,A,63,1,0A,1A,1,0,z,2.52329439999994,0,1,0,0,1A,0A,A01,2.77258872223978,0.5,0.5,0.5,0.5,0.5,0.5,0.5,0.5,0.5,0.5,0.5,0.5,0.5,0.5,0.5,0.5,0.5,0.5,0.5,0.5,0.161916847184285,0.500170173406241,-0.5,-0.0228311482468095,0.5,0.045662296493619,1.09988062888031,1.75819414481109,2.87886796241514,0.5,79.0493797623023
CBC_1026,CBC_1026_MSI_AV_v3_Vset1_Aset3_2023-07-20_13h03.59.061.csv,4,2,3,2,z,0,1,3,aud,C,63,1,3C,2C,0,1,z,2.9778879000005,0,1,1,1,2C,3C,C32,2.83321334405622,0.5,0.477168851753191,0.5,0.5,0.5,0.5,0.5,0.5,0.5,0.5,0.5,0.5,0.5,0.5,0.5,0.5,0.5,0.5,0.5,0.5,0.123794968562405,0.49976865735968,0.5,0.0228311482468095,0.5,0.045662296493619,1.09988062888031,1.75819414481109,2.87886796241514,0.5,79.0493797623023
CBC_1026,CBC_1026_MSI_AV_v3_Vset1_Aset3_2023-07-20_13h03.59.061.csv,4,3,0,2,b,1,0,0,aud,A,27,1,0A,2A,1,0,b,2.58033160000014,1,0,1,1,0A,2A,A02,2.89037175789616,0.5,0.477168851753191,0.5,0.5,0.5,0.5,0.5,0.5,0.5,0.5,0.52283114824681,0.5,0.5,0.5,0.5,0.5,0.5,0.5,0.5,0.5,0.156799037957773,0.500685570405185,0.5,0.0228311482468095,0.5,0.045662296493619,1.09988062888031,1.75819414481109,2.87886796241514,0.5,79.0493797623023
CBC_1026,CBC_1026_MSI_AV_v3_Vset1_Aset3_2023-07-20_13h03.59.061.csv,4,4,1,0,b,1,0,1,aud,B,63,1,1B,0B,1,0,z,2.81310309999935,0,1,0,0,0B,1B,B10,2.94443897916644,0.52283114824681,0.477168851753191,0.5,0.5,0.5,0.5,0.5,0.5,0.5,0.5,0.52283114824681,0.5,0.5,0.5,0.5,0.5,0.5,0.5,0.5,0.5,0.136822711206874,0.500973804401841,-0.5,-0.0228311482468095,0.5,0.045662296493619,1.09988062888031,1.75819414481109,2.87886796241514,0.5,79.0493797623023
CBC_1026,CBC_1026_MSI_AV_v3_Vset1_Aset3_2023-07-20_13h03.59.061.csv,4,5,0,1,z,0,1,1,aud,B,63,1,0B,1B,0,1,z,3.14042440000048,0,1,1,1,1B,0B,B01,2.99573227355399,0.52283114824681,0.477168851753191,0.5,0.5,0.477168851753191,0.5,0.5,0.5,0.5,0.5,0.52283114824681,0.5,0.5,0.5,0.5,0.5,0.52283114824681,0.477168851753191,0.5,0.477168851753191,0.125312656067178,0.55713765946022,0.5,0.0228311482468095,0.5,0.045662296493619,1.09988062888031,1.75819414481109,2.87886796241514,0.5,79.0493797623023
CBC_1026,CBC_1026_MSI_AV_v3_Vset1_Aset3_2023-07-20_13h03.59.061.csv,4,6,3,2,z,0,1,3,aud,C,63,1,3C,2C,0,1,b,2.99370930000077,1,0,0,0,3C,2C,C32,2.35137525716348,0.52283114824681,0.477168851753191,0.5,0.5,0.477168851753191,0.52283114824681,0.5,0.5,0.5,0.5,0.52283114824681,0.5,0.5,0.5,0.5,0.5,0.47716885175319,0.52283114824681,0.5,0.52283114824681,0.108565501161283,0.442172138454003,-0.5,-0.0228311482468095,0.5,0.045662296493619,1.09988062888031,1.75819414481109,2.87886796241514,0.5,79.0493797623023
CBC_1026,CBC_1026_MSI_AV_v3_Vset1_Aset3_2023-07-20_13h03.59.061.csv,4,7,3,1,b,1,0,2,aud,D,27,1,3D,1D,1,0,b,2.69876710000062,1,0,1,1,3D,1D,D31,3.09104245335832,0.52283114824681,0.477168851753191,0.5,0.5,0.477168851753191,0.52283114824681,0.5,0.5,0.5,0.5,0.52283114824681,0.477168851753191,0.5,0.5,0.5,0.5,0.5,0.5,0.5,0.5,0.146418220913672,0.50113590616085,0.5,0.0228311482468095,0.5,0.045662296493619,1.09988062888031,1.75819414481109,2.87886796241514,0.5,79.0493797623023
CBC_1026,CBC_1026_MSI_AV_v3_Vset1_Aset3_2023-07-20_13h03.59.061.csv,4,8,1,2,z,0,1,3,aud,C,9,1,1C,2C,0,1,b,2.86995129999923,1,0,0,0,1C,2C,C12,3.13549421592915,0.52283114824681,0.477168851753191,0.5,0.5,0.477168851753191,0.52283114824681,0.5,0.5,0.5,0.5,0.52283114824681,0.477168851753191,0.5,0.5,0.5,0.52283114824681,0.47716885175319,0.52283114824681,0.5,0.52283114824681,0.117049525112898,0.442820229540428,-0.5,-0.0228311482468095,0.5,0.045662296493619,1.09988062888031,1.75819414481109,2.87886796241514,0.5,79.0493797623023
CBC_1026,CBC_1026_MSI_AV_v3_Vset1_Aset3_2023-07-20_13h03.59.061.csv,4,9,3,1,z,0,1,1,aud,B,27,1,3B,1B,0,1,b,2.53492600000027,1,0,0,0,3B,1B,B31,3.17805383034795,0.52283114824681,0.477168851753191,0.5,0.5,0.477168851753191,0.52283114824681,0.5,0.5,0.5,0.477168851753191,0.52283114824681,0.477168851753191,0.5,0.5,0.5,0.52283114824681,0.47716885175319,0.52283114824681,0.5,0.52283114824681,0.142384685866805,0.441889494473371,-0.5,-0.0228311482468095,0.5,0.045662296493619,1.09988062888031,1.75819414481109,2.87886796241514,0.5,79.0493797623023
CBC_1026,CBC_1026_MSI_AV_v3_Vset1_Aset3_2023-07-20_13h03.59.061.csv,4,10,3,2,b,1,0,2,aud,D,63,1,3D,2D,1,0,b,2.52119940000011,1,0,1,1,3D,2D,D32,3.2188758248682,0.52283114824681,0.477168851753191,0.5,0.5,0.477168851753191,0.52283114824681,0.5,0.477168851753191,0.5,0.477168851753191,0.52283114824681,0.477168851753191,0.5,0.5,0.5,0.52283114824681,0.52283114824681,0.47716885175319,0.52283114824681,0.5,0.180845355551145,0.55683146562424,0.47716885175319,0.0217886255862739,0.5,0.045662296493619,1.09988062888031,1.75819414481109,2.87886796241514,0.5,79.0493797623023
CBC_1026,CBC_1026_MSI_AV_v3_Vset1_Aset3_2023-07-20_13h03.59.061.csv,4,11,1,0,b,1,0,1,aud,B,63,1,1B,0B,1,0,z,2.51502540000001,0,1,0,0,0B,1B,B10,2.56494935746154,0.52283114824681,0.477168851753191,0.5,0.5,0.477168851753191,0.52283114824681,0.5,0.477168851753191,0.5,0.477168851753191,0.52283114824681,0.477168851753191,0.5,0.5,0.5,0.544619773833083,0.454432713364175,0.545567286635825,0.477168851753191,0.52283114824681,0.126972611629816,0.387194106277554,-0.477168851753191,-0.0217886255862739,0.5,0.045662296493619,1.09988062888031,1.75819414481109,2.87886796241514,0.5,79.0493797623023
CBC_1026,CBC_1026_MSI_AV_v3_Vset1_Aset3_2023-07-20_13h03.59.061.csv,4,12,0,2,z,0,1,3,aud,C,27,1,0C,2C,0,1,b,2.61604299999999,1,0,0,0,0C,2C,C02,3.29583686600433,0.52283114824681,0.477168851753191,0.5,0.5,0.455380226166917,0.52283114824681,0.5,0.477168851753191,0.5,0.477168851753191,0.52283114824681,0.477168851753191,0.5,0.5,0.5,0.544619773833083,0.47716885175319,0.52283114824681,0.5,0.52283114824681,0.136091025692026,0.442945319567475,-0.5,-0.0228311482468095,0.5,0.045662296493619,1.09988062888031,1.75819414481109,2.87886796241514,0.5,79.0493797623023
CBC_1026,CBC_1026_MSI_AV_v3_Vset1_Aset3_2023-07-20_13h03.59.061.csv,4,13,3,2,b,1,0,2,aud,D,63,0,3D,2D,0,1,b,2.96428709999964,1,0,1,0,3D,2D,D32,2.63905732961526,0.52283114824681,0.477168851753191,0.5,0.5,0.455380226166917,0.52283114824681,0.5,0.477168851753191,0.477168851753191,0.477168851753191,0.52283114824681,0.477168851753191,0.5,0.5,0.5,0.544619773833083,0.544619773833083,0.455380226166917,0.544619773833083,0.5,0.152660674886474,0.609943691696189,-0.544619773833083,-0.024868589589054,0.5,0.045662296493619,1.09988062888031,1.75819414481109,2.87886796241514,0.5,79.0493797623023
CBC_1026,CBC_1026_MSI_AV_v3_Vset1_Aset3_2023-07-20_13h03.59.061.csv,4,14,1,0,z,0,1,0,aud,A,63,1,1A,0A,0,1,b,2.79306069999984,1,0,0,0,1A,0A,A10,3.36729582998647,0.52283114824681,0.477168851753191,0.5,0.5,0.455380226166917,0.52283114824681,0.5,0.477168851753191,0.477168851753191,0.477168851753191,0.52283114824681,0.477168851753191,0.5,0.5,0.5,0.51975118424403,0.454432713364175,0.545567286635825,0.477168851753191,0.52283114824681,0.107331967719692,0.386567981909539,-0.477168851753191,-0.0217886255862739,0.5,0.045662296493619,1.09988062888031,1.75819414481109,2.87886796241514,0.5,79.0493797623023
CBC_1026,CBC_1026_MSI_AV_v3_Vset1_Aset3_2023-07-20_13h03.59.061.csv,4,15,2,3,b,1,0,3,aud,C,63,1,2C,3C,1,0,z,1.56782489999932,0,1,0,0,3C,2C,C23,3.40119738166216,0.52283114824681,0.455380226166917,0.5,0.5,0.455380226166917,0.52283114824681,0.5,0.477168851753191,0.477168851753191,0.477168851753191,0.52283114824681,0.477168851753191,0.5,0.5,0.5,0.51975118424403,0.454432713364175,0.545567286635825,0.477168851753191,0.52283114824681,0.154953219985285,0.387359418415447,-0.477168851753191,-0.0217886255862739,0.5,0.045662296493619,1.09988062888031,1.75819414481109,2.87886796241514,0.5,79.0493797623023
CBC_1026,CBC_1026_MSI_AV_v3_Vset1_Aset3_2023-07-20_13h03.59.061.csv,4,16,0,2,b,1,0,0,aud,A,27,1,0A,2A,1,0,b,2.83411690000139,1,0,1,1,0A,2A,A02,2.7408400239252,0.52283114824681,0.455380226166917,0.5,0.5,0.455380226166917,0.52283114824681,0.5,0.477168851753191,0.477168851753191,0.477168851753191,0.52283114824681,0.455380226166917,0.5,0.5,0.5,0.51975118424403,0.52283114824681,0.47716885175319,0.52283114824681,0.5,0.150778642847374,0.558361443008858,0.47716885175319,0.0217886255862739,0.5,0.045662296493619,1.09988062888031,1.75819414481109,2.87886796241514,0.5,79.0493797623023
CBC_1026,CBC_1026_MSI_AV_v3_Vset1_Aset3_2023-07-20_13h03.59.061.csv,4,17,2,3,z,0,1,2,aud,D,63,1,2D,3D,0,1,z,4.53219920000083,0,1,1,1,3D,2D,D23,3.46573590279973,0.544619773833083,0.455380226166917,0.5,0.5,0.455380226166917,0.52283114824681,0.5,0.477168851753191,0.477168851753191,0.477168851753191,0.52283114824681,0.455380226166917,0.5,0.5,0.5,0.51975118424403,0.51975118424403,0.48024881575597,0.51975118424403,0.5,0.0537553903129724,0.549075903755305,0.48024881575597,0.0219292638157585,0.5,0.045662296493619,1.09988062888031,1.75819414481109,2.87886796241514,0.5,79.0493797623023
CBC_1026,CBC_1026_MSI_AV_v3_Vset1_Aset3_2023-07-20_13h03.59.061.csv,4,18,3,2,b,1,0,2,aud,D,63,1,3D,2D,1,0,b,2.37635520000003,1,0,1,1,3D,2D,D32,2.39789527279837,0.544619773833083,0.455380226166917,0.5,0.5,0.455380226166917,0.52283114824681,0.5,0.477168851753191,0.477168851753191,0.477168851753191,0.52283114824681,0.455380226166917,0.5,0.5,0.5,0.541680448059788,0.541680448059788,0.458319551940212,0.541680448059788,0.5,0.214802118289964,0.604879998687285,0.458319551940212,0.0209279232695166,0.5,0.045662296493619,1.09988062888031,1.75819414481109,2.87886796241514,0.5,79.0493797623023
CBC_1026,CBC_1026_MSI_AV_v3_Vset1_Aset3_2023-07-20_13h03.59.061.csv,4,19,3,1,z,0,1,1,aud,B,27,1,3B,1B,0,1,z,2.78584260000025,0,1,1,1,1B,3B,B31,2.83321334405622,0.544619773833083,0.455380226166917,0.5,0.5,0.455380226166917,0.52283114824681,0.5,0.477168851753191,0.477168851753191,0.477168851753191,0.52283114824681,0.455380226166917,0.5,0.5,0.5,0.562608371329305,0.545567286635825,0.454432713364175,0.52283114824681,0.477168851753191,0.171195870829154,0.613877378382993,0.47716885175319,0.0217886255862739,0.5,0.045662296493619,1.09988062888031,1.75819414481109,2.87886796241514,0.5,79.0493797623023
CBC_1026,CBC_1026_MSI_AV_v3_Vset1_Aset3_2023-07-20_13h03.59.061.csv,4,20,0,3,z,0,1,2,aud,D,9,1,0D,3D,0,1,z,2.57198900000003,0,1,1,1,3D,0D,D03,3.55534806148941,0.544619773833083,0.455380226166917,0.5,0.5,0.455380226166917,0.544619773833083,0.5,0.477168851753191,0.477168851753191,0.477168851753191,0.52283114824681,0.455380226166917,0.5,0.5,0.5,0.562608371329305,0.562608371329305,0.437391628670695,0.562608371329305,0.5,0.208186435774617,0.652621935777987,0.437391628670695,0.0199723062321882,0.5,0.045662296493619,1.09988062888031,1.75819414481109,2.87886796241514,0.5,79.0493797623023
CBC_1026,CBC_1026_MSI_AV_v3_Vset1_Aset3_2023-07-20_13h03.59.061.csv,4,21,1,0,b,1,0,1,aud,B,63,1,1B,0B,1,0,b,2.38708240000051,1,0,1,1,1B,0B,B10,2.484906649788,0.544619773833083,0.455380226166917,0.5,0.5,0.455380226166917,0.544619773833083,0.5,0.477168851753191,0.477168851753191,0.477168851753191,0.52283114824681,0.455380226166917,0.5,0.5,0.5,0.582580677561493,0.588534485858456,0.411465514141544,0.544619773833083,0.455380226166917,0.257536353950789,0.71057492864758,0.455380226166917,0.020793706904565,0.5,0.045662296493619,1.09988062888031,1.75819414481109,2.87886796241514,0.5,79.0493797623023
CBC_1026,CBC_1026_MSI_AV_v3_Vset1_Aset3_2023-07-20_13h03.59.061.csv,4,22,1,0,z,0,1,0,aud,A,63,1,1A,0A,0,1,b,2.84703029999946,1,0,0,0,1A,0A,A10,2.91777073208428,0.544619773833083,0.455380226166917,0.5,0.5,0.455380226166917,0.565413480737649,0.5,0.477168851753191,0.477168851753191,0.477168851753191,0.52283114824681,0.455380226166917,0.5,0.5,0.5,0.582580677561493,0.411465514141544,0.588534485858456,0.455380226166917,0.544619773833083,0.0784526898347032,0.28941005682092,-0.455380226166917,-0.020793706904565,0.5,0.045662296493619,1.09988062888031,1.75819414481109,2.87886796241514,0.5,79.0493797623023
CBC_1026,CBC_1026_MSI_AV_v3_Vset1_Aset3_2023-07-20_13h03.59.061.csv,4,23,2,3,b,1,0,3,aud,C,63,1,2C,3C,1,0,z,3.81948730000113,0,1,0,0,3C,2C,C23,2.94443897916644,0.544619773833083,0.434586519262352,0.5,0.5,0.455380226166917,0.565413480737649,0.5,0.477168851753191,0.477168851753191,0.477168851753191,0.52283114824681,0.455380226166917,0.5,0.5,0.5,0.582580677561493,0.432822817059663,0.567177182940337,0.455380226166917,0.52283114824681,0.0495204780013089,0.336226694381428,-0.455380226166917,-0.020793706904565,0.5,0.045662296493619,1.09988062888031,1.75819414481109,2.87886796241514,0.5,79.0493797623023
CBC_1026,CBC_1026_MSI_AV_v3_Vset1_Aset3_2023-07-20_13h03.59.061.csv,4,24,0,2,b,1,0,0,aud,A,27,1,0A,2A,1,0,b,2.57981100000143,1,0,1,1,0A,2A,A02,2.56494935746154,0.544619773833083,0.434586519262352,0.5,0.5,0.455380226166917,0.565413480737649,0.5,0.477168851753191,0.477168851753191,0.477168851753191,0.52283114824681,0.434586519262352,0.5,0.5,0.5,0.582580677561493,0.544619773833083,0.455380226166917,0.544619773833083,0.5,0.192793882633548,0.611094508492563,0.455380226166917,0.020793706904565,0.5,0.045662296493619,1.09988062888031,1.75819414481109,2.87886796241514,0.5,79.0493797623023
CBC_1026,CBC_1026_MSI_AV_v3_Vset1_Aset3_2023-07-20_13h03.59.061.csv,4,25,1,0,b,1,0,1,aud,B,63,1,1B,0B,1,0,b,3.80549450000035,1,0,1,1,1B,0B,B10,2.30258509299405,0.565413480737649,0.434586519262352,0.5,0.5,0.455380226166917,0.565413480737649,0.5,0.477168851753191,0.477168851753191,0.477168851753191,0.52283114824681,0.434586519262352,0.5,0.5,0.5,0.582580677561493,0.608763447965038,0.391236552034962,0.565413480737649,0.455380226166917,0.107641021997077,0.749743433201547,0.434586519262351,0.0198442184946873,0.5,0.045662296493619,1.09988062888031,1.75819414481109,2.87886796241514,0.5,79.0493797623023
CBC_1026,CBC_1026_MSI_AV_v3_Vset1_Aset3_2023-07-20_13h03.59.061.csv,4,26,2,3,z,0,1,2,aud,D,63,1,2D,3D,0,1,z,2.3882934000012,0,1,1,1,3D,2D,D23,3.02042488614436,0.565413480737649,0.434586519262352,0.5,0.5,0.455380226166917,0.585257699232336,0.5,0.477168851753191,0.477168851753191,0.477168851753191,0.52283114824681,0.434586519262352,0.5,0.5,0.5,0.582580677561493,0.582580677561493,0.417419322438507,0.582580677561493,0.5,0.25162317542181,0.697748465520704,0.417419322438507,0.0190603248633527,0.5,0.045662296493619,1.09988062888031,1.75819414481109,2.87886796241514,0.5,79.0493797623023
CBC_1026,CBC_1026_MSI_AV_v3_Vset1_Aset3_2023-07-20_13h03.59.061.csv,4,27,1,2,b,1,0,1,aud,B,9,1,1B,2B,1,0,b,2.58111360000112,1,0,1,1,1B,2B,B12,3.73766961828337,0.565413480737649,0.434586519262352,0.5,0.5,0.455380226166917,0.585257699232336,0.5,0.477168851753191,0.477168851753191,0.477168851753191,0.52283114824681,0.434586519262352,0.5,0.5,0.5,0.601641002424845,0.585257699232336,0.414742300767664,0.585257699232336,0.5,0.225431356419056,0.703245254966245,0.414742300767664,0.0189380859060988,0.5,0.045662296493619,1.09988062888031,1.75819414481109,2.87886796241514,0.5,79.0493797623023
CBC_1026,CBC_1026_MSI_AV_v3_Vset1_Aset3_2023-07-20_13h03.59.061.csv,4,28,1,3,z,0,1,2,aud,D,27,1,1D,3D,0,1,z,2.09254229999897,0,1,1,1,3D,1D,D13,3.76120011569356,0.565413480737649,0.434586519262352,0.5,0.5,0.455380226166917,0.604195785138435,0.5,0.477168851753191,0.477168851753191,0.477168851753191,0.52283114824681,0.434586519262352,0.5,0.5,0.5,0.601641002424845,0.601641002424845,0.398358997575155,0.601641002424845,0.5,0.320652171819062,0.736467636656516,0.398358997575155,0.0181899866581775,0.5,0.045662296493619,1.09988062888031,1.75819414481109,2.87886796241514,0.5,79.0493797623023
CBC_1026,CBC_1026_MSI_AV_v3_Vset1_Aset3_2023-07-20_13h03.59.061.csv,4,29,1,0,z,0,1,0,aud,A,63,1,1A,0A,0,1,z,5.39922009999827,0,1,1,1,0A,1A,A10,2.68557734525015,0.565413480737649,0.434586519262352,0.5,0.5,0.455380226166917,0.604195785138435,0.5,0.477168851753191,0.477168851753191,0.477168851753191,0.52283114824681,0.434586519262352,0.5,0.5,0.5,0.619830989083023,0.628625447691438,0.371374552308562,0.565413480737649,0.434586519262352,0.0362376442099014,0.78517317684272,0.434586519262351,0.0198442184946873,0.5,0.045662296493619,1.09988062888031,1.75819414481109,2.87886796241514,0.5,79.0493797623023
CBC_1026,CBC_1026_MSI_AV_v3_Vset1_Aset3_2023-07-20_13h03.59.061.csv,4,30,0,1,b,1,0,0,aud,A,63,1,0A,1A,1,0,b,2.56516910000028,1,0,1,1,0A,1A,A01,3.11351530921037,0.585257699232336,0.434586519262352,0.5,0.5,0.455380226166917,0.604195785138435,0.5,0.477168851753191,0.477168851753191,0.477168851753191,0.52283114824681,0.434586519262352,0.5,0.5,0.5,0.619830989083023,0.647383350497212,0.352616649502788,0.585257699232336,0.434586519262352,0.273778776461913,0.816807141159296,0.414742300767664,0.0189380859060988,0.5,0.045662296493619,1.09988062888031,1.75819414481109,2.87886796241514,0.5,79.0493797623023
CBC_1026,CBC_1026_MSI_AV_v3_Vset1_Aset3_2023-07-20_13h03.59.061.csv,4,31,0,2,z,0,1,3,aud,C,27,1,0C,2C,0,1,b,2.72288450000087,1,0,0,0,0C,2C,C02,3.13549421592915,0.604195785138435,0.434586519262352,0.5,0.5,0.455380226166917,0.604195785138435,0.5,0.477168851753191,0.477168851753191,0.477168851753191,0.52283114824681,0.434586519262352,0.5,0.5,0.5,0.619830989083023,0.454432713364175,0.545567286635825,0.477168851753191,0.52283114824681,0.112139598383069,0.387172993297456,-0.477168851753191,-0.0217886255862739,0.5,0.045662296493619,1.09988062888031,1.75819414481109,2.87886796241514,0.5,79.0493797623023
CBC_1026,CBC_1026_MSI_AV_v3_Vset1_Aset3_2023-07-20_13h03.59.061.csv,4,32,1,0,z,0,1,0,aud,A,63,1,1A,0A,0,1,z,2.68786129999899,0,1,1,1,0A,1A,A10,2.46385324059017,0.604195785138435,0.434586519262352,0.5,0.5,0.455380226166917,0.604195785138435,0.5,0.477168851753191,0.455380226166917,0.477168851753191,0.52283114824681,0.434586519262352,0.5,0.5,0.5,0.619830989083023,0.665107890502358,0.334892109497642,0.604195785138435,0.434586519262352,0.259488769322308,0.841784702356179,0.395804214861565,0.0180733294124329,0.5,0.045662296493619,1.09988062888031,1.75819414481109,2.87886796241514,0.5,79.0493797623023
CBC_1026,CBC_1026_MSI_AV_v3_Vset1_Aset3_2023-07-20_13h03.59.061.csv,4,33,1,0,b,1,0,1,aud,B,63,1,1B,0B,1,0,z,2.35938399999941,0,1,0,0,0B,1B,B10,2.26176309847379,0.622269114550868,0.434586519262352,0.5,0.5,0.455380226166917,0.604195785138435,0.5,0.477168851753191,0.455380226166917,0.477168851753191,0.52283114824681,0.434586519262352,0.5,0.5,0.5,0.619830989083023,0.35390140295742,0.64609859704258,0.455380226166917,0.604195785138435,0.0716971060854196,0.185136437196242,-0.455380226166917,-0.020793706904565,0.5,0.045662296493619,1.09988062888031,1.75819414481109,2.87886796241514,0.5,79.0493797623023
CBC_1026,CBC_1026_MSI_AV_v3_Vset1_Aset3_2023-07-20_13h03.59.061.csv,4,34,3,2,b,1,0,2,aud,D,63,1,3D,2D,1,0,b,2.66806580000048,1,0,1,1,3D,2D,D32,2.50552593699074,0.622269114550868,0.434586519262352,0.5,0.5,0.434586519262352,0.604195785138435,0.5,0.477168851753191,0.455380226166917,0.477168851753191,0.52283114824681,0.434586519262352,0.5,0.5,0.5,0.619830989083023,0.619830989083023,0.380169010916977,0.619830989083023,0.5,0.237532621732473,0.771327407528068,0.380169010916977,0.0173593900941769,0.5,0.045662296493619,1.09988062888031,1.75819414481109,2.87886796241514,0.5,79.0493797623023
CBC_1026,CBC_1026_MSI_AV_v3_Vset1_Aset3_2023-07-20_13h03.59.061.csv,4,35,3,1,z,0,1,1,aud,B,27,1,3B,1B,0,1,z,2.48380629999883,0,1,1,1,1B,3B,B31,2.81341071676004,0.622269114550868,0.434586519262352,0.5,0.5,0.434586519262352,0.604195785138435,0.5,0.477168851753191,0.455380226166917,0.477168851753191,0.52283114824681,0.434586519262352,0.5,0.5,0.5,0.6371903791772,0.625829584649708,0.374170415350292,0.604195785138435,0.477168851753191,0.273338522636644,0.781234258686859,0.395804214861565,0.0180733294124329,0.5,0.045662296493619,1.09988062888031,1.75819414481109,2.87886796241514,0.5,79.0493797623023
CBC_1026,CBC_1026_MSI_AV_v3_Vset1_Aset3_2023-07-20_13h03.59.061.csv,4,36,3,2,z,0,1,3,aud,C,63,1,3C,2C,0,1,b,2.83790100000078,1,0,0,0,3C,2C,C32,2.83321334405622,0.622269114550868,0.434586519262352,0.5,0.5,0.434586519262352,0.622269114550868,0.5,0.477168851753191,0.455380226166917,0.477168851753191,0.52283114824681,0.434586519262352,0.5,0.5,0.5,0.6371903791772,0.412279401546333,0.587720598453668,0.434586519262352,0.52283114824681,0.0795379641882138,0.291777317453385,-0.434586519262352,-0.0198442184946874,0.5,0.045662296493619,1.09988062888031,1.75819414481109,2.87886796241514,0.5,79.0493797623023
CBC_1026,CBC_1026_MSI_AV_v3_Vset1_Aset3_2023-07-20_13h03.59.061.csv,4,37,2,0,b,1,0,3,aud,C,27,1,2C,0C,1,0,z,2.51294710000002,0,1,0,0,0C,2C,C20,3.95124371858143,0.622269114550868,0.434586519262352,0.5,0.5,0.434586519262352,0.622269114550868,0.5,0.477168851753191,0.455380226166917,0.477168851753191,0.52283114824681,0.414742300767664,0.5,0.5,0.5,0.6371903791772,0.432822817059663,0.567177182940337,0.455380226166917,0.52283114824681,0.111743510117688,0.337311605379631,-0.455380226166917,-0.020793706904565,0.5,0.045662296493619,1.09988062888031,1.75819414481109,2.87886796241514,0.5,79.0493797623023
CBC_1026,CBC_1026_MSI_AV_v3_Vset1_Aset3_2023-07-20_13h03.59.061.csv,4,38,1,0,b,1,0,1,aud,B,63,1,1B,0B,NaN,NaN,[],NaN,NaN,NaN,NaN,NaN,,,B10,2.17853244432407,0.622269114550868,0.434586519262352,0.5,0.5,0.434586519262352,0.622269114550868,0.5,0.477168851753191,0.434586519262352,0.477168851753191,0.52283114824681,0.414742300767664,0.5,0.5,0.5,0.6371903791772,0,0,0,0,NaN,0,0,0,0.5,0.045662296493619,1.09988062888031,1.75819414481109,2.87886796241514,0.5,79.0493797623023
CBC_1026,CBC_1026_MSI_AV_v3_Vset1_Aset3_2023-07-20_13h03.59.061.csv,4,39,3,0,z,0,1,0,aud,A,9,1,3A,0A,0,1,z,2.78328990000045,0,1,1,1,0A,3A,A30,3.98898404656427,0.622269114550868,0.434586519262352,0.5,0.5,0.434586519262352,0.622269114550868,0.5,0.477168851753191,0.434586519262352,0.477168851753191,0.52283114824681,0.414742300767664,0.5,0.5,0.5,0.6371903791772,0.622269114550868,0.377730885449132,0.622269114550868,0.5,0.221006917664372,0.775556829859044,0.377730885449132,0.0172480596861755,0.5,0.045662296493619,1.09988062888031,1.75819414481109,2.87886796241514,0.5,79.0493797623023
CBC_1026,CBC_1026_MSI_AV_v3_Vset1_Aset3_2023-07-20_13h03.59.061.csv,4,40,3,2,z,0,1,3,aud,C,63,0,3C,2C,1,0,b,2.78844879999997,1,0,0,1,3C,2C,C32,2.62103882411258,0.639517174237043,0.434586519262352,0.5,0.5,0.434586519262352,0.622269114550868,0.5,0.477168851753191,0.434586519262352,0.477168851753191,0.52283114824681,0.414742300767664,0.5,0.5,0.5,0.6371903791772,0.392746243640421,0.607253756359579,0.414742300767664,0.52283114824681,0.0710216677567642,0.251020148321009,0.585257699232336,0.0267242105875202,0.5,0.045662296493619,1.09988062888031,1.75819414481109,2.87886796241514,0.5,79.0493797623023
CBC_1026,CBC_1026_MSI_AV_v3_Vset1_Aset3_2023-07-20_13h03.59.061.csv,4,41,1,0,z,0,1,0,aud,A,63,1,1A,0A,0,1,z,2.62022590000015,0,1,1,1,0A,1A,A10,2.41591377830105,0.639517174237043,0.434586519262352,0.5,0.5,0.434586519262352,0.622269114550868,0.5,0.477168851753191,0.434586519262352,0.477168851753191,0.52283114824681,0.441466511355184,0.5,0.5,0.5,0.6371903791772,0.697713095717769,0.302286904282231,0.639517174237043,0.434586519262352,0.288016012374423,0.880488971386352,0.360482825762957,0.0164604736708457,0.5,0.045662296493619,1.09988062888031,1.75819414481109,2.87886796241514,0.5,79.0493797623023
