ID,filename,session,trial,visStimLeft,visStimRight,correctKey,leftCorrect,rightCorrect,secondStim,mod2Type,mod2Stim,frequency,rewardAccurate,stimPairLeft,stimPairRight,pCorrectLeft,pCorrectRight,key,reactionTime,choiceLeft,choiceRight,choiceAccurate,reward,chosenPair,otherPair,triplet,surprise,0A belief,1A belief,2A belief,3A belief,0B belief,1B belief,2B belief,3B belief,0C belief,1C belief,2C belief,3C belief,0D belief,1D belief,2D belief,3D belief,beliefPairNorm,beliefOtherPairNorm,beliefPair,beliefOtherPair,lik,corrLik,rewardPE,update2,fitCBCsimpleRW_CBCdriftDiffusionLR_startBelief,fitCBCsimpleRW_CBCdriftDiffusionLR_alpha1,fitCBCsimpleRW_CBCdriftDiffusionLR_nonDecisionTime,fitCBCsimpleRW_CBCdriftDiffusionLR_weight,fitCBCsimpleRW_CBCdriftDiffusionLR_startingBoundary,fitCBCsimpleRW_CBCdriftDiffusionLR_startingPoint,fit_CBCsimpleRW_CBCdriftDiffusionLR_NLL
CBC_1090,CBC_1090_MSI_TV_v3_Vset5_Tset3_2024-03-10_10h39.49.098.csv,1,1,0,1,z,0,1,0,tac,B,63,1,0B,1B,0,1,b,2.56552670000019,1,0,0,0,0B,1B,B01,2.77258872223978,0.5,0.5,0.5,0.5,0.5,0.5,0.5,0.5,0.5,0.5,0.5,0.5,0.5,0.5,0.5,0.5,0.5,0.5,0.5,0.5,0.15456810198042,0.499591390180056,-0.5,-0.105323038675234,0.5,0.210646077350467,1.09128570760206,3.37267850495823,3.00531304332786,0.5,63.2085872775596
CBC_1090,CBC_1090_MSI_TV_v3_Vset5_Tset3_2024-03-10_10h39.49.098.csv,1,2,0,1,b,1,0,3,tac,A,63,1,0A,1A,1,0,b,2.02100780000092,1,0,1,1,0A,1A,A01,2.83321334405622,0.5,0.5,0.5,0.5,0.394676961324766,0.5,0.5,0.5,0.5,0.5,0.5,0.5,0.5,0.5,0.5,0.5,0.5,0.5,0.5,0.5,0.199077421724927,0.501424907908552,0.5,0.105323038675234,0.5,0.210646077350467,1.09128570760206,3.37267850495823,3.00531304332786,0.5,63.2085872775596
CBC_1090,CBC_1090_MSI_TV_v3_Vset5_Tset3_2024-03-10_10h39.49.098.csv,1,3,2,3,z,0,1,1,tac,D,63,1,2D,3D,0,1,z,2.42202780000025,0,1,1,1,3D,2D,D23,2.89037175789616,0.605323038675234,0.5,0.5,0.5,0.394676961324766,0.5,0.5,0.5,0.5,0.5,0.5,0.5,0.5,0.5,0.5,0.5,0.5,0.5,0.5,0.5,0.166976176746345,0.501093385827933,0.5,0.105323038675234,0.5,0.210646077350467,1.09128570760206,3.37267850495823,3.00531304332786,0.5,63.2085872775596
CBC_1090,CBC_1090_MSI_TV_v3_Vset5_Tset3_2024-03-10_10h39.49.098.csv,1,4,2,1,z,0,1,0,tac,B,9,1,2B,1B,0,1,z,2.48235980000118,0,1,1,1,1B,2B,B21,2.94443897916644,0.605323038675234,0.5,0.5,0.5,0.394676961324766,0.5,0.5,0.5,0.5,0.5,0.5,0.5,0.5,0.5,0.5,0.605323038675234,0.5,0.5,0.5,0.5,0.161612369894062,0.500205903270012,0.5,0.105323038675234,0.5,0.210646077350467,1.09128570760206,3.37267850495823,3.00531304332786,0.5,63.2085872775596
CBC_1090,CBC_1090_MSI_TV_v3_Vset5_Tset3_2024-03-10_10h39.49.098.csv,1,5,0,2,b,1,0,3,tac,A,27,1,0A,2A,1,0,b,2.32494690000112,1,0,1,1,0A,2A,A02,2.99573227355399,0.605323038675234,0.5,0.5,0.5,0.394676961324766,0.605323038675234,0.5,0.5,0.5,0.5,0.5,0.5,0.5,0.5,0.5,0.605323038675234,0.547643555318211,0.452356444681789,0.605323038675234,0.5,0.265563145602187,0.723588465502155,0.394676961324766,0.0831371537236641,0.5,0.210646077350467,1.09128570760206,3.37267850495823,3.00531304332786,0.5,63.2085872775596
CBC_1090,CBC_1090_MSI_TV_v3_Vset5_Tset3_2024-03-10_10h39.49.098.csv,1,6,2,3,b,1,0,2,tac,C,63,1,2C,3C,1,0,z,2.31479430000036,0,1,0,0,3C,2C,C23,3.04452243772342,0.688460192398898,0.5,0.5,0.5,0.394676961324766,0.605323038675234,0.5,0.5,0.5,0.5,0.5,0.5,0.5,0.5,0.5,0.605323038675234,0.5,0.5,0.5,0.5,0.175908487965461,0.500556135468366,-0.5,-0.105323038675234,0.5,0.210646077350467,1.09128570760206,3.37267850495823,3.00531304332786,0.5,63.2085872775596
CBC_1090,CBC_1090_MSI_TV_v3_Vset5_Tset3_2024-03-10_10h39.49.098.csv,1,7,1,3,z,0,1,1,tac,D,27,1,1D,3D,0,1,z,2.29962020000039,0,1,1,1,3D,1D,D13,3.09104245335832,0.688460192398898,0.5,0.5,0.5,0.394676961324766,0.605323038675234,0.5,0.5,0.5,0.5,0.5,0.394676961324766,0.5,0.5,0.5,0.605323038675234,0.547643555318211,0.452356444681789,0.605323038675234,0.5,0.268991057237952,0.723217158494853,0.394676961324766,0.0831371537236641,0.5,0.210646077350467,1.09128570760206,3.37267850495823,3.00531304332786,0.5,63.2085872775596
CBC_1090,CBC_1090_MSI_TV_v3_Vset5_Tset3_2024-03-10_10h39.49.098.csv,1,8,1,0,z,0,1,3,tac,A,63,1,1A,0A,0,1,z,2.32163630000105,0,1,1,1,0A,1A,A10,3.13549421592915,0.688460192398898,0.5,0.5,0.5,0.394676961324766,0.605323038675234,0.5,0.5,0.5,0.5,0.5,0.394676961324766,0.5,0.5,0.5,0.688460192398898,0.579287549387116,0.420712450612884,0.688460192398898,0.5,0.328215881240498,0.83325447089764,0.311539807601102,0.0656246384096914,0.5,0.210646077350467,1.09128570760206,3.37267850495823,3.00531304332786,0.5,63.2085872775596
CBC_1090,CBC_1090_MSI_TV_v3_Vset5_Tset3_2024-03-10_10h39.49.098.csv,1,9,2,0,b,1,0,2,tac,C,27,1,2C,0C,1,0,b,2.27285210000082,1,0,1,1,2C,0C,C20,3.17805383034795,0.754084830808589,0.5,0.5,0.5,0.394676961324766,0.605323038675234,0.5,0.5,0.5,0.5,0.5,0.394676961324766,0.5,0.5,0.5,0.688460192398898,0.5,0.5,0.5,0.5,0.179347297845785,0.500236762807011,0.5,0.105323038675234,0.5,0.210646077350467,1.09128570760206,3.37267850495823,3.00531304332786,0.5,63.2085872775596
CBC_1090,CBC_1090_MSI_TV_v3_Vset5_Tset3_2024-03-10_10h39.49.098.csv,1,10,2,3,z,0,1,1,tac,D,63,1,2D,3D,0,1,z,2.28149180000037,0,1,1,1,3D,2D,D23,2.52572864430826,0.754084830808589,0.5,0.5,0.5,0.394676961324766,0.605323038675234,0.5,0.5,0.5,0.5,0.605323038675234,0.394676961324766,0.5,0.5,0.5,0.688460192398898,0.579287549387116,0.420712450612884,0.688460192398898,0.5,0.33658151195075,0.83334135162493,0.311539807601102,0.0656246384096914,0.5,0.210646077350467,1.09128570760206,3.37267850495823,3.00531304332786,0.5,63.2085872775596
CBC_1090,CBC_1090_MSI_TV_v3_Vset5_Tset3_2024-03-10_10h39.49.098.csv,1,11,1,0,b,1,0,0,tac,B,63,0,1B,0B,0,1,b,2.64898940000057,1,0,1,0,1B,0B,B10,3.25809653802148,0.754084830808589,0.5,0.5,0.5,0.394676961324766,0.605323038675234,0.5,0.5,0.5,0.5,0.605323038675234,0.394676961324766,0.5,0.5,0.5,0.754084830808589,0.605323038675234,0.394676961324766,0.605323038675234,0.394676961324766,0.290411723714539,0.893940656865535,-0.605323038675234,-0.127508923626803,0.5,0.210646077350467,1.09128570760206,3.37267850495823,3.00531304332786,0.5,63.2085872775596
CBC_1090,CBC_1090_MSI_TV_v3_Vset5_Tset3_2024-03-10_10h39.49.098.csv,1,12,0,1,b,1,0,3,tac,A,63,1,0A,1A,1,0,b,1.3119469000012,1,0,1,1,0A,1A,A01,2.60268968544438,0.754084830808589,0.5,0.5,0.5,0.394676961324766,0.477814115048431,0.5,0.5,0.5,0.5,0.605323038675234,0.394676961324766,0.5,0.5,0.5,0.754084830808589,0.601302888196472,0.398697111803528,0.754084830808589,0.5,0.0918614986681151,0.886007094297019,0.245915169191411,0.0518010657511471,0.5,0.210646077350467,1.09128570760206,3.37267850495823,3.00531304332786,0.5,63.2085872775596
CBC_1090,CBC_1090_MSI_TV_v3_Vset5_Tset3_2024-03-10_10h39.49.098.csv,1,13,2,3,z,0,1,1,tac,D,63,1,2D,3D,0,1,z,2.94364420000056,0,1,1,1,3D,2D,D23,2.23359222150709,0.805885896559736,0.5,0.5,0.5,0.394676961324766,0.477814115048431,0.5,0.5,0.5,0.5,0.605323038675234,0.394676961324766,0.5,0.5,0.5,0.754084830808589,0.601302888196472,0.398697111803528,0.754084830808589,0.5,0.228864758282868,0.886395599045671,0.245915169191411,0.0518010657511471,0.5,0.210646077350467,1.09128570760206,3.37267850495823,3.00531304332786,0.5,63.2085872775596
CBC_1090,CBC_1090_MSI_TV_v3_Vset5_Tset3_2024-03-10_10h39.49.098.csv,1,14,2,0,b,1,0,2,tac,C,27,1,2C,0C,1,0,b,3.00520490000054,1,0,1,1,2C,0C,C20,2.67414864942653,0.805885896559736,0.5,0.5,0.5,0.394676961324766,0.477814115048431,0.5,0.5,0.5,0.5,0.605323038675234,0.394676961324766,0.5,0.5,0.5,0.805885896559736,0.547643555318211,0.452356444681789,0.605323038675234,0.5,0.179338071395679,0.72421103937389,0.394676961324766,0.0831371537236641,0.5,0.210646077350467,1.09128570760206,3.37267850495823,3.00531304332786,0.5,63.2085872775596
CBC_1090,CBC_1090_MSI_TV_v3_Vset5_Tset3_2024-03-10_10h39.49.098.csv,1,15,0,1,b,1,0,3,tac,A,63,1,0A,1A,1,0,b,2.08231780000096,1,0,1,1,0A,1A,A01,2.30258509299405,0.805885896559736,0.5,0.5,0.5,0.394676961324766,0.477814115048431,0.5,0.5,0.5,0.5,0.688460192398898,0.394676961324766,0.5,0.5,0.5,0.805885896559736,0.617118156098313,0.382881843901687,0.805885896559736,0.5,0.46763135180798,0.914774814400344,0.194114103440264,0.0408893744480944,0.5,0.210646077350467,1.09128570760206,3.37267850495823,3.00531304332786,0.5,63.2085872775596
CBC_1090,CBC_1090_MSI_TV_v3_Vset5_Tset3_2024-03-10_10h39.49.098.csv,1,16,1,3,b,1,0,0,tac,B,27,1,1B,3B,1,0,b,3.27186760000041,1,0,1,1,1B,3B,B13,3.43398720448515,0.846775271007831,0.5,0.5,0.5,0.394676961324766,0.477814115048431,0.5,0.5,0.5,0.5,0.688460192398898,0.394676961324766,0.5,0.5,0.5,0.805885896559736,0.488655366797159,0.511344633202841,0.477814115048431,0.5,0.0934556994138205,0.442212146462516,0.522185884951569,0.10999640831283,0.5,0.210646077350467,1.09128570760206,3.37267850495823,3.00531304332786,0.5,63.2085872775596
CBC_1090,CBC_1090_MSI_TV_v3_Vset5_Tset3_2024-03-10_10h39.49.098.csv,1,17,3,2,z,0,1,2,tac,C,63,1,3C,2C,0,1,z,3.6926226000005,0,1,1,1,2C,3C,C32,3.46573590279973,0.846775271007831,0.5,0.5,0.5,0.394676961324766,0.587810523361261,0.5,0.5,0.5,0.5,0.688460192398898,0.394676961324766,0.5,0.5,0.5,0.805885896559736,0.635616819192356,0.364383180807644,0.688460192398898,0.394676961324766,0.1116907335968,0.940026780521725,0.311539807601102,0.0656246384096914,0.5,0.210646077350467,1.09128570760206,3.37267850495823,3.00531304332786,0.5,63.2085872775596
CBC_1090,CBC_1090_MSI_TV_v3_Vset5_Tset3_2024-03-10_10h39.49.098.csv,1,18,2,3,z,0,1,1,tac,D,63,0,2D,3D,1,0,z,2.22926270000062,0,1,1,0,3D,2D,D23,2.11021320034659,0.846775271007831,0.5,0.5,0.5,0.394676961324766,0.587810523361261,0.5,0.5,0.5,0.5,0.754084830808589,0.394676961324766,0.5,0.5,0.5,0.805885896559736,0.617118156098313,0.382881843901687,0.805885896559736,0.5,0.420703295540006,0.91520114247174,-0.805885896559736,-0.169756702902373,0.5,0.210646077350467,1.09128570760206,3.37267850495823,3.00531304332786,0.5,63.2085872775596
CBC_1090,CBC_1090_MSI_TV_v3_Vset5_Tset3_2024-03-10_10h39.49.098.csv,1,19,1,0,b,1,0,0,tac,B,63,1,1B,0B,1,0,b,2.08760550000079,1,0,1,1,1B,0B,B10,2.83321334405622,0.846775271007831,0.5,0.5,0.5,0.394676961324766,0.587810523361261,0.5,0.5,0.5,0.5,0.754084830808589,0.394676961324766,0.5,0.5,0.5,0.636129193657364,0.598288052034685,0.401711947965315,0.587810523361261,0.394676961324766,0.421448988636115,0.879382304149101,0.412189476638739,0.0868260963790923,0.5,0.210646077350467,1.09128570760206,3.37267850495823,3.00531304332786,0.5,63.2085872775596
CBC_1090,CBC_1090_MSI_TV_v3_Vset5_Tset3_2024-03-10_10h39.49.098.csv,1,20,2,0,z,0,1,3,tac,A,27,1,2A,0A,0,1,b,3.21002820000103,1,0,0,0,2A,0A,A20,3.55534806148941,0.846775271007831,0.5,0.5,0.5,0.394676961324766,0.674636619740353,0.5,0.5,0.5,0.5,0.754084830808589,0.394676961324766,0.5,0.5,0.5,0.636129193657364,0.371257188013139,0.628742811986861,0.5,0.846775271007831,0.0133695993472662,0.068680250771558,-0.5,-0.105323038675234,0.5,0.210646077350467,1.09128570760206,3.37267850495823,3.00531304332786,0.5,63.2085872775596
CBC_1090,CBC_1090_MSI_TV_v3_Vset5_Tset3_2024-03-10_10h39.49.098.csv,1,21,0,3,z,0,1,1,tac,D,9,1,0D,3D,0,1,z,2.15832620000128,0,1,1,1,3D,0D,D03,3.58351893845611,0.846775271007831,0.5,0.394676961324766,0.5,0.394676961324766,0.674636619740353,0.5,0.5,0.5,0.5,0.754084830808589,0.394676961324766,0.5,0.5,0.5,0.636129193657364,0.559909205052263,0.440090794947737,0.636129193657364,0.5,0.317356998753255,0.771033597308976,0.363870806342636,0.0766479580184278,0.5,0.210646077350467,1.09128570760206,3.37267850495823,3.00531304332786,0.5,63.2085872775596
CBC_1090,CBC_1090_MSI_TV_v3_Vset5_Tset3_2024-03-10_10h39.49.098.csv,1,22,2,3,b,1,0,2,tac,C,63,1,2C,3C,1,0,b,2.75484570000026,1,0,1,1,2C,3C,C23,2.91777073208428,0.846775271007831,0.5,0.394676961324766,0.5,0.394676961324766,0.674636619740353,0.5,0.5,0.5,0.5,0.754084830808589,0.394676961324766,0.5,0.5,0.5,0.712777151675791,0.656432722582272,0.343567277417728,0.754084830808589,0.394676961324766,0.270560344215663,0.959584871028417,0.245915169191411,0.0518010657511471,0.5,0.210646077350467,1.09128570760206,3.37267850495823,3.00531304332786,0.5,63.2085872775596
CBC_1090,CBC_1090_MSI_TV_v3_Vset5_Tset3_2024-03-10_10h39.49.098.csv,1,23,3,1,z,0,1,0,tac,B,27,1,3B,1B,0,1,z,2.25646790000064,0,1,1,1,1B,3B,B31,3.63758615972639,0.846775271007831,0.5,0.394676961324766,0.5,0.394676961324766,0.674636619740353,0.5,0.5,0.5,0.5,0.805885896559736,0.394676961324766,0.5,0.5,0.5,0.712777151675791,0.574336444482276,0.425663555517724,0.674636619740353,0.5,0.331521071595085,0.818701466228468,0.325363380259647,0.068536519765183,0.5,0.210646077350467,1.09128570760206,3.37267850495823,3.00531304332786,0.5,63.2085872775596
CBC_1090,CBC_1090_MSI_TV_v3_Vset5_Tset3_2024-03-10_10h39.49.098.csv,1,24,3,2,z,0,1,2,tac,C,63,1,3C,2C,0,1,z,1.73979770000096,0,1,1,1,2C,3C,C32,2.9704144655697,0.846775271007831,0.5,0.394676961324766,0.5,0.394676961324766,0.743173139505536,0.5,0.5,0.5,0.5,0.805885896559736,0.394676961324766,0.5,0.5,0.5,0.712777151675791,0.671256728681227,0.328743271318773,0.805885896559736,0.394676961324766,0.742078035842044,0.97005086078323,0.194114103440264,0.0408893744480944,0.5,0.210646077350467,1.09128570760206,3.37267850495823,3.00531304332786,0.5,63.2085872775596
CBC_1090,CBC_1090_MSI_TV_v3_Vset5_Tset3_2024-03-10_10h39.49.098.csv,1,25,2,3,z,0,1,1,tac,D,63,1,2D,3D,0,1,z,3.57141970000066,0,1,1,1,3D,2D,D23,2.07944154167984,0.846775271007831,0.5,0.394676961324766,0.5,0.394676961324766,0.743173139505536,0.5,0.5,0.5,0.5,0.846775271007831,0.394676961324766,0.5,0.5,0.5,0.712777151675791,0.587723103697072,0.412276896302927,0.712777151675791,0.5,0.141401974705747,0.85618097683455,0.287222848324209,0.0605023663249227,0.5,0.210646077350467,1.09128570760206,3.37267850495823,3.00531304332786,0.5,63.2085872775596
CBC_1090,CBC_1090_MSI_TV_v3_Vset5_Tset3_2024-03-10_10h39.49.098.csv,1,26,1,0,b,1,0,0,tac,B,63,1,1B,0B,1,0,b,2.93835770000078,1,0,1,1,1B,0B,B10,2.6149597780362,0.846775271007831,0.5,0.394676961324766,0.5,0.394676961324766,0.743173139505536,0.5,0.5,0.5,0.5,0.846775271007831,0.394676961324766,0.5,0.5,0.5,0.773279518000714,0.6531380003071,0.3468619996929,0.743173139505536,0.394676961324766,0.223187706226622,0.957177521320383,0.256826860494464,0.0540995707213944,0.5,0.210646077350467,1.09128570760206,3.37267850495823,3.00531304332786,0.5,63.2085872775596
CBC_1090,CBC_1090_MSI_TV_v3_Vset5_Tset3_2024-03-10_10h39.49.098.csv,1,27,0,3,b,1,0,3,tac,A,9,1,0A,3A,1,0,b,2.41162120000081,1,0,1,1,0A,3A,A03,3.73766961828337,0.846775271007831,0.5,0.394676961324766,0.5,0.394676961324766,0.797272710226931,0.5,0.5,0.5,0.5,0.846775271007831,0.394676961324766,0.5,0.5,0.5,0.773279518000714,0.628742811986861,0.371257188013139,0.846775271007831,0.5,0.375484189669322,0.9316101442783,0.153224728992169,0.0322761881152889,0.5,0.210646077350467,1.09128570760206,3.37267850495823,3.00531304332786,0.5,63.2085872775596
CBC_1090,CBC_1090_MSI_TV_v3_Vset5_Tset3_2024-03-10_10h39.49.098.csv,1,28,2,3,z,0,1,1,tac,D,63,1,2D,3D,NaN,NaN,None,NaN,NaN,NaN,NaN,NaN,,,D23,1.96944064646551,0.879051459123119,0.5,0.394676961324766,0.5,0.394676961324766,0.797272710226931,0.5,0.5,0.5,0.5,0.846775271007831,0.394676961324766,0.5,0.5,0.5,0.773279518000714,0,0,0,0,NaN,0,0,0,0.5,0.210646077350467,1.09128570760206,3.37267850495823,3.00531304332786,0.5,63.2085872775596
CBC_1090,CBC_1090_MSI_TV_v3_Vset5_Tset3_2024-03-10_10h39.49.098.csv,1,29,2,0,b,1,0,2,tac,C,27,1,2C,0C,1,0,b,1.46592960000089,1,0,1,1,2C,0C,C20,2.68557734525015,0.879051459123119,0.5,0.394676961324766,0.5,0.394676961324766,0.797272710226931,0.5,0.5,0.5,0.5,0.846775271007831,0.394676961324766,0.5,0.5,0.5,0.773279518000714,0.628742811986861,0.371257188013139,0.846775271007831,0.5,0.411485053783489,0.931637915225838,0.153224728992169,0.0322761881152889,0.5,0.210646077350467,1.09128570760206,3.37267850495823,3.00531304332786,0.5,63.2085872775596
CBC_1090,CBC_1090_MSI_TV_v3_Vset5_Tset3_2024-03-10_10h39.49.098.csv,1,30,1,0,z,0,1,3,tac,A,63,0,1A,0A,1,0,z,2.33106620000126,0,1,1,0,0A,1A,A10,3.11351530921037,0.879051459123119,0.5,0.394676961324766,0.5,0.394676961324766,0.797272710226931,0.5,0.5,0.5,0.5,0.879051459123119,0.394676961324766,0.5,0.5,0.5,0.773279518000714,0.637431948828125,0.362568051171875,0.879051459123119,0.5,0.412194225283139,0.9420346680054,-0.879051459123119,-0.18516874165349,0.5,0.210646077350467,1.09128570760206,3.37267850495823,3.00531304332786,0.5,63.2085872775596
CBC_1090,CBC_1090_MSI_TV_v3_Vset5_Tset3_2024-03-10_10h39.49.098.csv,1,31,1,0,b,1,0,0,tac,B,63,1,1B,0B,1,0,b,1.87288360000093,1,0,1,1,1B,0B,B10,2.4423470353692,0.69388271746963,0.5,0.394676961324766,0.5,0.394676961324766,0.797272710226931,0.5,0.5,0.5,0.5,0.879051459123119,0.394676961324766,0.5,0.5,0.5,0.773279518000714,0.668881186224104,0.331118813775896,0.797272710226931,0.394676961324766,0.681918555351853,0.968296003108433,0.202727289773069,0.0427037083625885,0.5,0.210646077350467,1.09128570760206,3.37267850495823,3.00531304332786,0.5,63.2085872775596
CBC_1090,CBC_1090_MSI_TV_v3_Vset5_Tset3_2024-03-10_10h39.49.098.csv,1,32,3,1,b,1,0,1,tac,D,27,1,3D,1D,1,0,b,2.76163050000105,1,0,1,1,3D,1D,D31,3.85014760171006,0.69388271746963,0.5,0.394676961324766,0.5,0.394676961324766,0.839976418589519,0.5,0.5,0.5,0.5,0.879051459123119,0.394676961324766,0.5,0.5,0.5,0.773279518000714,0.607313246674153,0.392686753325847,0.773279518000714,0.5,0.266855951202008,0.897593091944326,0.226720481999286,0.0477577801881568,0.5,0.210646077350467,1.09128570760206,3.37267850495823,3.00531304332786,0.5,63.2085872775596
CBC_1090,CBC_1090_MSI_TV_v3_Vset5_Tset3_2024-03-10_10h39.49.098.csv,1,33,3,2,z,0,1,2,tac,C,63,1,3C,2C,0,1,z,1.94712680000066,0,1,1,1,2C,3C,C32,2.77258872223978,0.69388271746963,0.5,0.394676961324766,0.5,0.394676961324766,0.839976418589519,0.5,0.5,0.5,0.5,0.879051459123119,0.394676961324766,0.5,0.5,0.5,0.821037298188871,0.690140413773617,0.309859586226383,0.879051459123119,0.394676961324766,0.687959959591522,0.979266214432586,0.120948540876881,0.0254773356969775,0.5,0.210646077350467,1.09128570760206,3.37267850495823,3.00531304332786,0.5,63.2085872775596
CBC_1090,CBC_1090_MSI_TV_v3_Vset5_Tset3_2024-03-10_10h39.49.098.csv,1,34,1,0,b,1,0,0,tac,B,63,1,1B,0B,1,0,b,3.0238827000012,1,0,1,1,1B,0B,B10,2.28238238567653,0.69388271746963,0.5,0.394676961324766,0.5,0.394676961324766,0.839976418589519,0.5,0.5,0.5,0.5,0.904528794820097,0.394676961324766,0.5,0.5,0.5,0.821037298188871,0.680333794289563,0.319666205710437,0.839976418589519,0.394676961324766,0.179892449668931,0.974881870226413,0.160023581410481,0.0337083397076909,0.5,0.210646077350467,1.09128570760206,3.37267850495823,3.00531304332786,0.5,63.2085872775596
CBC_1090,CBC_1090_MSI_TV_v3_Vset5_Tset3_2024-03-10_10h39.49.098.csv,1,35,0,1,b,1,0,3,tac,A,63,1,0A,1A,1,0,b,2.43107580000105,1,0,1,1,0A,1A,A01,2.52572864430826,0.69388271746963,0.5,0.394676961324766,0.5,0.394676961324766,0.87368475829721,0.5,0.5,0.5,0.5,0.904528794820097,0.394676961324766,0.5,0.5,0.5,0.821037298188871,0.581198393540931,0.418801606459069,0.69388271746963,0.5,0.30910270817599,0.838641832216591,0.30611728253037,0.0644824047742071,0.5,0.210646077350467,1.09128570760206,3.37267850495823,3.00531304332786,0.5,63.2085872775596
CBC_1090,CBC_1090_MSI_TV_v3_Vset5_Tset3_2024-03-10_10h39.49.098.csv,1,36,1,2,z,0,1,2,tac,C,9,1,1C,2C,0,1,z,1.86992520000058,0,1,1,1,2C,1C,C12,3.93182563272433,0.758365122243837,0.5,0.394676961324766,0.5,0.394676961324766,0.87368475829721,0.5,0.5,0.5,0.5,0.904528794820097,0.394676961324766,0.5,0.5,0.5,0.821037298188871,0.644008722466923,0.355991277533078,0.904528794820097,0.5,0.609794892453591,0.948683036787782,0.095471205179903,0.0201106348710682,0.5,0.210646077350467,1.09128570760206,3.37267850495823,3.00531304332786,0.5,63.2085872775596
CBC_1090,CBC_1090_MSI_TV_v3_Vset5_Tset3_2024-03-10_10h39.49.098.csv,1,37,1,0,z,0,1,3,tac,A,63,1,1A,0A,0,1,z,2.30449000000135,0,1,1,1,0A,1A,A10,2.85263142991332,0.758365122243837,0.5,0.394676961324766,0.5,0.394676961324766,0.87368475829721,0.5,0.5,0.5,0.5,0.924639429691165,0.394676961324766,0.5,0.5,0.5,0.821037298188871,0.602659044531978,0.397340955468022,0.758365122243837,0.5,0.373759968778492,0.889109294335744,0.241634877756163,0.0508994391503954,0.5,0.210646077350467,1.09128570760206,3.37267850495823,3.00531304332786,0.5,63.2085872775596
CBC_1090,CBC_1090_MSI_TV_v3_Vset5_Tset3_2024-03-10_10h39.49.098.csv,1,38,3,1,b,1,0,1,tac,D,27,1,3D,1D,1,0,b,2.15488030000051,1,0,1,1,3D,1D,D31,3.27714473299218,0.809264561394232,0.5,0.394676961324766,0.5,0.394676961324766,0.87368475829721,0.5,0.5,0.5,0.5,0.924639429691165,0.394676961324766,0.5,0.5,0.5,0.821037298188871,0.621509551103898,0.378490448896102,0.821037298188871,0.5,0.452383702986513,0.921074910518357,0.178962701811129,0.0376977911285557,0.5,0.210646077350467,1.09128570760206,3.37267850495823,3.00531304332786,0.5,63.2085872775596
CBC_1090,CBC_1090_MSI_TV_v3_Vset5_Tset3_2024-03-10_10h39.49.098.csv,1,39,0,1,z,0,1,0,tac,B,63,1,0B,1B,0,1,z,2.29706710000028,0,1,1,1,1B,0B,B01,3.29583686600433,0.809264561394232,0.5,0.394676961324766,0.5,0.394676961324766,0.87368475829721,0.5,0.5,0.5,0.5,0.924639429691165,0.394676961324766,0.5,0.5,0.5,0.858735089317426,0.688829333762614,0.311170666237386,0.87368475829721,0.394676961324766,0.451802544028737,0.978673356818243,0.12631524170279,0.0266078101742688,0.5,0.210646077350467,1.09128570760206,3.37267850495823,3.00531304332786,0.5,63.2085872775596
CBC_1090,CBC_1090_MSI_TV_v3_Vset5_Tset3_2024-03-10_10h39.49.098.csv,1,40,2,3,b,1,0,2,tac,C,63,0,2C,3C,0,1,b,2.9656186000002,1,0,1,0,2C,3C,C23,2.90872089656436,0.809264561394232,0.5,0.394676961324766,0.5,0.394676961324766,0.900292568471479,0.5,0.5,0.5,0.5,0.924639429691165,0.394676961324766,0.5,0.5,0.5,0.858735089317426,0.700847375191899,0.299152624808101,0.924639429691165,0.394676961324766,0.170995410585201,0.983274496857655,-0.924639429691165,-0.194771668828017,0.5,0.210646077350467,1.09128570760206,3.37267850495823,3.00531304332786,0.5,63.2085872775596
CBC_1090,CBC_1090_MSI_TV_v3_Vset5_Tset3_2024-03-10_10h39.49.098.csv,1,41,2,0,z,0,1,3,tac,A,27,1,2A,0A,0,1,b,2.72863190000044,1,0,0,0,2A,0A,A20,3.3322045101752,0.809264561394232,0.5,0.394676961324766,0.5,0.394676961324766,0.900292568471479,0.5,0.5,0.5,0.5,0.729867760863148,0.394676961324766,0.5,0.5,0.5,0.858735089317426,0.327820707133202,0.672179292866798,0.394676961324766,0.809264561394232,0.00821769466573183,0.0296119535806881,-0.394676961324766,-0.0831371537236641,0.5,0.210646077350467,1.09128570760206,3.37267850495823,3.00531304332786,0.5,63.2085872775596
CBC_1090,CBC_1090_MSI_TV_v3_Vset5_Tset3_2024-03-10_10h39.49.098.csv,1,42,3,2,b,1,0,1,tac,D,63,1,3D,2D,1,0,b,3.0259201000008,1,0,1,1,3D,2D,D32,4.04305126783455,0.809264561394232,0.5,0.311539807601102,0.5,0.394676961324766,0.900292568471479,0.5,0.5,0.5,0.5,0.729867760863148,0.394676961324766,0.5,0.5,0.5,0.858735089317426,0.632010681161418,0.367989318838582,0.858735089317426,0.5,0.213821518593856,0.935568310587656,0.141264910682574,0.0297568993025482,0.5,0.210646077350467,1.09128570760206,3.37267850495823,3.00531304332786,0.5,63.2085872775596
CBC_1090,CBC_1090_MSI_TV_v3_Vset5_Tset3_2024-03-10_10h39.49.098.csv,1,43,3,1,z,0,1,0,tac,B,27,1,3B,1B,0,1,z,4.10029030000078,0,1,1,1,1B,3B,B31,3.36729582998647,0.809264561394232,0.5,0.311539807601102,0.5,0.394676961324766,0.900292568471479,0.5,0.5,0.5,0.5,0.729867760863148,0.394676961324766,0.5,0.5,0.5,0.888491988619975,0.642931762077559,0.357068237922441,0.900292568471479,0.5,0.0707589861120541,0.947578666880688,0.0997074315285211,0.0210029793341733,0.5,0.210646077350467,1.09128570760206,3.37267850495823,3.00531304332786,0.5,63.2085872775596
CBC_1090,CBC_1090_MSI_TV_v3_Vset5_Tset3_2024-03-10_10h39.49.098.csv,1,44,2,3,b,1,0,2,tac,C,63,1,2C,3C,1,0,b,2.25860720000128,1,0,1,1,2C,3C,C23,2.69124308278583,0.809264561394232,0.5,0.311539807601102,0.5,0.394676961324766,0.921295547805652,0.5,0.5,0.5,0.5,0.729867760863148,0.394676961324766,0.5,0.5,0.5,0.888491988619975,0.649034001460713,0.350965998539287,0.729867760863148,0.394676961324766,0.453333331021561,0.953669668330824,0.270132239136852,0.0569022965400761,0.5,0.210646077350467,1.09128570760206,3.37267850495823,3.00531304332786,0.5,63.2085872775596
CBC_1090,CBC_1090_MSI_AV_v3_Vset4_Aset1_2024-03-10_11h41.57.568.csv,2,1,1,0,b,1,0,0,aud,B,63,1,1B,0B,1,0,b,2.01233220000177,1,0,1,1,1B,0B,B10,2.77258872223978,0.5,0.5,0.5,0.5,0.5,0.5,0.5,0.5,0.5,0.5,0.5,0.5,0.5,0.5,0.5,0.5,0.5,0.5,0.5,0.5,0.17293146080974,0.500057903125761,0.5,0.0661764242786544,0.5,0.132352848557309,0.670163023547413,3.70373794251131,2.72951910383615,0.5,76.115804242326
CBC_1090,CBC_1090_MSI_AV_v3_Vset4_Aset1_2024-03-10_11h41.57.568.csv,2,2,0,1,b,1,0,3,aud,A,63,1,0A,1A,1,0,b,1.26189680000061,1,0,1,1,0A,1A,A01,2.83321334405622,0.5,0.5,0.5,0.5,0.5,0.566176424278654,0.5,0.5,0.5,0.5,0.5,0.5,0.5,0.5,0.5,0.5,0.5,0.5,0.5,0.5,0.248422529760981,0.501061222271453,0.5,0.0661764242786544,0.5,0.132352848557309,0.670163023547413,3.70373794251131,2.72951910383615,0.5,76.115804242326
CBC_1090,CBC_1090_MSI_AV_v3_Vset4_Aset1_2024-03-10_11h41.57.568.csv,2,3,1,2,z,0,1,2,aud,C,9,1,1C,2C,0,1,z,2.22105610000108,0,1,1,1,2C,1C,C12,2.89037175789616,0.566176424278654,0.5,0.5,0.5,0.5,0.566176424278654,0.5,0.5,0.5,0.5,0.5,0.5,0.5,0.5,0.5,0.5,0.5,0.5,0.5,0.5,0.150716446894536,0.499616631303484,0.5,0.0661764242786544,0.5,0.132352848557309,0.670163023547413,3.70373794251131,2.72951910383615,0.5,76.115804242326
CBC_1090,CBC_1090_MSI_AV_v3_Vset4_Aset1_2024-03-10_11h41.57.568.csv,2,4,1,0,z,0,1,3,aud,A,63,1,1A,0A,0,1,z,1.37259750000158,0,1,1,1,0A,1A,A10,2.94443897916644,0.566176424278654,0.5,0.5,0.5,0.5,0.566176424278654,0.5,0.5,0.5,0.5,0.566176424278654,0.5,0.5,0.5,0.5,0.5,0.531034462389012,0.468965537610988,0.566176424278654,0.5,0.329888777417421,0.651838808830617,0.433823575721346,0.0574177860180375,0.5,0.132352848557309,0.670163023547413,3.70373794251131,2.72951910383615,0.5,76.115804242326
CBC_1090,CBC_1090_MSI_AV_v3_Vset4_Aset1_2024-03-10_11h41.57.568.csv,2,5,3,1,b,1,0,1,aud,D,27,1,3D,1D,1,0,b,1.75645910000094,1,0,1,1,3D,1D,D31,2.99573227355399,0.623594210296692,0.5,0.5,0.5,0.5,0.566176424278654,0.5,0.5,0.5,0.5,0.566176424278654,0.5,0.5,0.5,0.5,0.5,0.5,0.5,0.5,0.5,0.203312260671869,0.499783981813216,0.5,0.0661764242786544,0.5,0.132352848557309,0.670163023547413,3.70373794251131,2.72951910383615,0.5,76.115804242326
CBC_1090,CBC_1090_MSI_AV_v3_Vset4_Aset1_2024-03-10_11h41.57.568.csv,2,6,0,1,z,0,1,0,aud,B,63,0,0B,1B,1,0,z,2.450605,0,1,1,0,1B,0B,B01,3.04452243772342,0.623594210296692,0.5,0.5,0.5,0.5,0.566176424278654,0.5,0.5,0.5,0.5,0.566176424278654,0.5,0.5,0.5,0.5,0.566176424278654,0.531034462389012,0.468965537610988,0.566176424278654,0.5,0.169107041133161,0.651364751049696,-0.566176424278654,-0.0749350625392714,0.5,0.132352848557309,0.670163023547413,3.70373794251131,2.72951910383615,0.5,76.115804242326
CBC_1090,CBC_1090_MSI_AV_v3_Vset4_Aset1_2024-03-10_11h41.57.568.csv,2,7,2,3,b,1,0,2,aud,C,63,1,2C,3C,1,0,b,2.18140630000016,1,0,1,1,2C,3C,C23,3.09104245335832,0.623594210296692,0.5,0.5,0.5,0.5,0.491241361739383,0.5,0.5,0.5,0.5,0.566176424278654,0.5,0.5,0.5,0.5,0.566176424278654,0.531034462389012,0.468965537610988,0.566176424278654,0.5,0.203283393629471,0.65103760489188,0.433823575721346,0.0574177860180375,0.5,0.132352848557309,0.670163023547413,3.70373794251131,2.72951910383615,0.5,76.115804242326
CBC_1090,CBC_1090_MSI_AV_v3_Vset4_Aset1_2024-03-10_11h41.57.568.csv,2,8,2,0,z,0,1,3,aud,A,27,1,2A,0A,0,1,z,1.53454910000073,0,1,1,1,0A,2A,A20,3.13549421592915,0.623594210296692,0.5,0.5,0.5,0.5,0.491241361739383,0.5,0.5,0.5,0.5,0.623594210296692,0.5,0.5,0.5,0.5,0.566176424278654,0.554999486987414,0.445000513012587,0.623594210296692,0.5,0.373911819245302,0.752145091149534,0.376405789703308,0.0498183784806962,0.5,0.132352848557309,0.670163023547413,3.70373794251131,2.72951910383615,0.5,76.115804242326
CBC_1090,CBC_1090_MSI_AV_v3_Vset4_Aset1_2024-03-10_11h41.57.568.csv,2,9,3,2,b,1,0,1,aud,D,63,1,3D,2D,1,0,b,1.13586180000129,1,0,1,1,3D,2D,D32,3.17805383034795,0.673412588777388,0.5,0.5,0.5,0.5,0.491241361739383,0.5,0.5,0.5,0.5,0.623594210296692,0.5,0.5,0.5,0.5,0.566176424278654,0.531034462389012,0.468965537610988,0.566176424278654,0.5,0.313276860419751,0.65156849714305,0.433823575721346,0.0574177860180375,0.5,0.132352848557309,0.670163023547413,3.70373794251131,2.72951910383615,0.5,76.115804242326
CBC_1090,CBC_1090_MSI_AV_v3_Vset4_Aset1_2024-03-10_11h41.57.568.csv,2,10,3,1,z,0,1,0,aud,B,27,1,3B,1B,0,1,z,1.91012020000198,0,1,1,1,1B,3B,B31,3.2188758248682,0.673412588777388,0.5,0.5,0.5,0.5,0.491241361739383,0.5,0.5,0.5,0.5,0.623594210296692,0.5,0.5,0.5,0.5,0.623594210296692,0.495581985075135,0.504418014924865,0.491241361739383,0.5,0.176635742684858,0.478022247671299,0.508758638260617,0.0673356550019301,0.5,0.132352848557309,0.670163023547413,3.70373794251131,2.72951910383615,0.5,76.115804242326
CBC_1090,CBC_1090_MSI_AV_v3_Vset4_Aset1_2024-03-10_11h41.57.568.csv,2,11,3,2,z,0,1,2,aud,C,63,0,3C,2C,1,0,z,3.0394748000017,0,1,1,0,2C,3C,C32,3.25809653802148,0.673412588777388,0.5,0.5,0.5,0.5,0.558577016741313,0.5,0.5,0.5,0.5,0.623594210296692,0.5,0.5,0.5,0.5,0.623594210296692,0.554999486987414,0.445000513012587,0.623594210296692,0.5,0.125777206108747,0.752831595762877,-0.623594210296692,-0.0825344700766127,0.5,0.132352848557309,0.670163023547413,3.70373794251131,2.72951910383615,0.5,76.115804242326
CBC_1090,CBC_1090_MSI_AV_v3_Vset4_Aset1_2024-03-10_11h41.57.568.csv,2,12,1,3,b,1,0,0,aud,B,27,1,1B,3B,1,0,b,1.61784820000139,1,0,1,1,1B,3B,B13,3.29583686600433,0.673412588777388,0.5,0.5,0.5,0.5,0.558577016741313,0.5,0.5,0.5,0.5,0.541059740220079,0.5,0.5,0.5,0.5,0.623594210296692,0.527667810567829,0.472332189432171,0.558577016741313,0.5,0.285519794154861,0.635218139610475,0.441422983258687,0.0584235892529525,0.5,0.132352848557309,0.670163023547413,3.70373794251131,2.72951910383615,0.5,76.115804242326
CBC_1090,CBC_1090_MSI_AV_v3_Vset4_Aset1_2024-03-10_11h41.57.568.csv,2,13,3,2,z,0,1,2,aud,C,63,1,3C,2C,0,1,z,2.9902232000004,0,1,1,1,2C,3C,C32,2.63905732961526,0.673412588777388,0.5,0.5,0.5,0.5,0.617000605994266,0.5,0.5,0.5,0.5,0.541059740220079,0.5,0.5,0.5,0.5,0.623594210296692,0.519720165247865,0.480279834752135,0.541059740220079,0.5,0.108007526319471,0.598444463745624,0.458940259779921,0.0607420506995039,0.5,0.132352848557309,0.670163023547413,3.70373794251131,2.72951910383615,0.5,76.115804242326
CBC_1090,CBC_1090_MSI_AV_v3_Vset4_Aset1_2024-03-10_11h41.57.568.csv,2,14,3,2,b,1,0,1,aud,D,63,1,3D,2D,1,0,b,2.38886770000136,1,0,1,1,3D,2D,D32,2.67414864942653,0.673412588777388,0.5,0.5,0.5,0.5,0.617000605994266,0.5,0.5,0.5,0.5,0.601801790919583,0.5,0.5,0.5,0.5,0.623594210296692,0.554999486987414,0.445000513012587,0.623594210296692,0.5,0.204170990847593,0.752574835472958,0.376405789703308,0.0498183784806962,0.5,0.132352848557309,0.670163023547413,3.70373794251131,2.72951910383615,0.5,76.115804242326
CBC_1090,CBC_1090_MSI_AV_v3_Vset4_Aset1_2024-03-10_11h41.57.568.csv,2,15,0,3,b,1,0,3,aud,A,9,1,0A,3A,1,0,b,2.99562350000087,1,0,1,1,0A,3A,A03,3.40119738166216,0.673412588777388,0.5,0.5,0.5,0.5,0.617000605994266,0.5,0.5,0.5,0.5,0.601801790919583,0.5,0.5,0.5,0.5,0.673412588777388,0.573892418760426,0.426107581239574,0.673412588777388,0.5,0.134656148662161,0.817363523447014,0.326587411222612,0.0432247741782699,0.5,0.132352848557309,0.670163023547413,3.70373794251131,2.72951910383615,0.5,76.115804242326
CBC_1090,CBC_1090_MSI_AV_v3_Vset4_Aset1_2024-03-10_11h41.57.568.csv,2,16,0,1,z,0,1,0,aud,B,63,0,0B,1B,1,0,z,2.20094630000131,0,1,1,0,1B,0B,B01,2.7408400239252,0.716637362955658,0.5,0.5,0.5,0.5,0.617000605994266,0.5,0.5,0.5,0.5,0.601801790919583,0.5,0.5,0.5,0.5,0.673412588777388,0.552372668988,0.447627331012,0.617000605994266,0.5,0.231434819761818,0.742916269850088,-0.617000605994266,-0.0816617877649269,0.5,0.132352848557309,0.670163023547413,3.70373794251131,2.72951910383615,0.5,76.115804242326
CBC_1090,CBC_1090_MSI_AV_v3_Vset4_Aset1_2024-03-10_11h41.57.568.csv,2,17,2,3,z,0,1,1,aud,D,63,1,2D,3D,0,1,z,0.998042300001543,0,1,1,1,3D,2D,D23,3.46573590279973,0.716637362955658,0.5,0.5,0.5,0.5,0.535338818229339,0.5,0.5,0.5,0.5,0.601801790919583,0.5,0.5,0.5,0.5,0.673412588777388,0.573892418760426,0.426107581239574,0.673412588777388,0.5,0.340746126554871,0.817063670001291,0.326587411222612,0.0432247741782699,0.5,0.132352848557309,0.670163023547413,3.70373794251131,2.72951910383615,0.5,76.115804242326
CBC_1090,CBC_1090_MSI_AV_v3_Vset4_Aset1_2024-03-10_11h41.57.568.csv,2,18,0,2,z,0,1,2,aud,C,27,1,0C,2C,0,1,b,2.41550629999983,1,0,0,0,0C,2C,C02,3.49650756146648,0.716637362955658,0.5,0.5,0.5,0.5,0.535338818229339,0.5,0.5,0.5,0.5,0.601801790919583,0.5,0.5,0.5,0.5,0.716637362955658,0.453802130401958,0.546197869598042,0.5,0.601801790919583,0.0751660968796072,0.28239324510193,-0.5,-0.0661764242786544,0.5,0.132352848557309,0.670163023547413,3.70373794251131,2.72951910383615,0.5,76.115804242326
CBC_1090,CBC_1090_MSI_AV_v3_Vset4_Aset1_2024-03-10_11h41.57.568.csv,2,19,0,1,b,1,0,3,aud,A,63,1,0A,1A,1,0,b,2.15940150000097,1,0,1,1,0A,1A,A01,2.83321334405622,0.716637362955658,0.5,0.5,0.5,0.5,0.535338818229339,0.5,0.5,0.433823575721346,0.5,0.601801790919583,0.5,0.5,0.5,0.5,0.716637362955658,0.589031197607382,0.410968802392618,0.716637362955658,0.5,0.279403630336354,0.857964795659638,0.283362637044342,0.0375038521875295,0.5,0.132352848557309,0.670163023547413,3.70373794251131,2.72951910383615,0.5,76.115804242326
CBC_1090,CBC_1090_MSI_AV_v3_Vset4_Aset1_2024-03-10_11h41.57.568.csv,2,20,1,0,b,1,0,0,aud,B,63,1,1B,0B,1,0,z,2.37932710000132,0,1,0,0,0B,1B,B10,2.86220088092947,0.754141215143187,0.5,0.5,0.5,0.5,0.535338818229339,0.5,0.5,0.433823575721346,0.5,0.601801790919583,0.5,0.5,0.5,0.5,0.716637362955658,0.482933693971904,0.517066306028096,0.5,0.535338818229339,0.113075607710075,0.41560900347724,-0.5,-0.0661764242786544,0.5,0.132352848557309,0.670163023547413,3.70373794251131,2.72951910383615,0.5,76.115804242326
CBC_1090,CBC_1090_MSI_AV_v3_Vset4_Aset1_2024-03-10_11h41.57.568.csv,2,21,1,3,z,0,1,1,aud,D,27,0,1D,3D,1,0,z,3.21635040000183,0,1,1,0,3D,1D,D13,3.58351893845611,0.754141215143187,0.5,0.5,0.5,0.433823575721346,0.535338818229339,0.5,0.5,0.433823575721346,0.5,0.601801790919583,0.5,0.5,0.5,0.5,0.716637362955658,0.589031197607382,0.410968802392618,0.716637362955658,0.5,0.110438569115379,0.857742384045607,-0.716637362955658,-0.0948489963697794,0.5,0.132352848557309,0.670163023547413,3.70373794251131,2.72951910383615,0.5,76.115804242326
CBC_1090,CBC_1090_MSI_AV_v3_Vset4_Aset1_2024-03-10_11h41.57.568.csv,2,22,3,2,z,0,1,2,aud,C,63,1,3C,2C,0,1,z,1.87089540000125,0,1,1,1,2C,3C,C32,2.51230562397611,0.754141215143187,0.5,0.5,0.5,0.433823575721346,0.535338818229339,0.5,0.5,0.433823575721346,0.5,0.601801790919583,0.5,0.5,0.5,0.5,0.621788366585879,0.546197869598042,0.453802130401958,0.601801790919583,0.5,0.281464365133572,0.717642758406885,0.398198209080417,0.052702667262212,0.5,0.132352848557309,0.670163023547413,3.70373794251131,2.72951910383615,0.5,76.115804242326
CBC_1090,CBC_1090_MSI_AV_v3_Vset4_Aset1_2024-03-10_11h41.57.568.csv,2,23,0,1,b,1,0,3,aud,A,63,0,0A,1A,0,1,b,2.40876670000216,1,0,1,0,0A,1A,A01,2.53897387105828,0.754141215143187,0.5,0.5,0.5,0.433823575721346,0.535338818229339,0.5,0.5,0.433823575721346,0.5,0.654504458181795,0.5,0.5,0.5,0.5,0.621788366585879,0.601320813029086,0.398679186970914,0.754141215143187,0.5,0.227463102085259,0.885916868057069,-0.754141215143187,-0.0998127380386712,0.5,0.132352848557309,0.670163023547413,3.70373794251131,2.72951910383615,0.5,76.115804242326
CBC_1090,CBC_1090_MSI_AV_v3_Vset4_Aset1_2024-03-10_11h41.57.568.csv,2,24,2,3,z,0,1,1,aud,D,63,1,2D,3D,0,1,z,1.34578549999969,0,1,1,1,3D,2D,D23,2.9704144655697,0.654328477104516,0.5,0.5,0.5,0.433823575721346,0.535338818229339,0.5,0.5,0.433823575721346,0.5,0.654504458181795,0.5,0.5,0.5,0.5,0.621788366585879,0.554283129605158,0.445716870394842,0.621788366585879,0.5,0.405177650170104,0.750106263479797,0.378211633414121,0.0500573870398716,0.5,0.132352848557309,0.670163023547413,3.70373794251131,2.72951910383615,0.5,76.115804242326
CBC_1090,CBC_1090_MSI_AV_v3_Vset4_Aset1_2024-03-10_11h41.57.568.csv,2,25,2,0,b,1,0,2,aud,C,27,1,2C,0C,1,0,z,3.49305760000243,0,1,0,0,0C,2C,C20,3.68887945411394,0.654328477104516,0.5,0.5,0.5,0.433823575721346,0.535338818229339,0.5,0.5,0.433823575721346,0.5,0.654504458181795,0.5,0.5,0.5,0.5,0.67184575362575,0.39861472111997,0.60138527888003,0.433823575721346,0.654504458181795,0.0104658127264896,0.113643879833645,-0.433823575721346,-0.0574177860180375,0.5,0.132352848557309,0.670163023547413,3.70373794251131,2.72951910383615,0.5,76.115804242326
CBC_1090,CBC_1090_MSI_AV_v3_Vset4_Aset1_2024-03-10_11h41.57.568.csv,2,26,0,1,b,1,0,3,aud,A,63,1,0A,1A,1,0,b,2.79530590000104,1,0,1,1,0A,1A,A01,2.32727770558442,0.654328477104516,0.5,0.5,0.5,0.433823575721346,0.535338818229339,0.5,0.5,0.376405789703308,0.5,0.654504458181795,0.5,0.5,0.5,0.5,0.67184575362575,0.566847730158936,0.433152269841064,0.654328477104516,0.5,0.156275957313512,0.794096193004475,0.345671522895484,0.0457506107203603,0.5,0.132352848557309,0.670163023547413,3.70373794251131,2.72951910383615,0.5,76.115804242326
CBC_1090,CBC_1090_MSI_AV_v3_Vset4_Aset1_2024-03-10_11h41.57.568.csv,2,27,1,3,b,1,0,0,aud,B,27,1,1B,3B,1,0,b,2.50068680000186,1,0,1,1,1B,3B,B13,3.04452243772342,0.700079087824877,0.5,0.5,0.5,0.433823575721346,0.535338818229339,0.5,0.5,0.376405789703308,0.5,0.654504458181795,0.5,0.5,0.5,0.5,0.67184575362575,0.517066306028096,0.482933693971904,0.535338818229339,0.5,0.146931510854822,0.585704785689717,0.464661181770661,0.0614992310213525,0.5,0.132352848557309,0.670163023547413,3.70373794251131,2.72951910383615,0.5,76.115804242326
CBC_1090,CBC_1090_MSI_AV_v3_Vset4_Aset1_2024-03-10_11h41.57.568.csv,2,28,3,2,z,0,1,2,aud,C,63,1,3C,2C,0,1,z,3.15035979999993,0,1,1,1,2C,3C,C32,2.37490575457367,0.700079087824877,0.5,0.5,0.5,0.433823575721346,0.596838049250691,0.5,0.5,0.376405789703308,0.5,0.654504458181795,0.5,0.5,0.5,0.5,0.67184575362575,0.56691375554544,0.43308624445456,0.654504458181795,0.5,0.118298751678354,0.794572434324534,0.345495541818205,0.0457273191234902,0.5,0.132352848557309,0.670163023547413,3.70373794251131,2.72951910383615,0.5,76.115804242326
CBC_1090,CBC_1090_MSI_AV_v3_Vset4_Aset1_2024-03-10_11h41.57.568.csv,2,29,3,2,b,1,0,1,aud,D,63,0,3D,2D,0,1,b,1.1881695000011,1,0,1,0,3D,2D,D32,2.68557734525015,0.700079087824877,0.5,0.5,0.5,0.433823575721346,0.596838049250691,0.5,0.5,0.376405789703308,0.5,0.700231777305285,0.5,0.5,0.5,0.5,0.67184575362575,0.573322684787674,0.426677315212326,0.67184575362575,0.5,0.470656725385729,0.815201769948331,-0.67184575362575,-0.0889206992835,0.5,0.132352848557309,0.670163023547413,3.70373794251131,2.72951910383615,0.5,76.115804242326
CBC_1090,CBC_1090_MSI_AV_v3_Vset4_Aset1_2024-03-10_11h41.57.568.csv,2,30,0,1,z,0,1,0,aud,B,63,1,0B,1B,0,1,z,2.5018041000003,0,1,1,1,1B,0B,B01,2.70805020110221,0.700079087824877,0.5,0.5,0.5,0.433823575721346,0.596838049250691,0.5,0.5,0.376405789703308,0.5,0.700231777305285,0.5,0.5,0.5,0.5,0.58292505434225,0.579082440628256,0.420917559371744,0.596838049250691,0.433823575721346,0.203548160544948,0.831695092401119,0.403161950749309,0.0533596326115925,0.5,0.132352848557309,0.670163023547413,3.70373794251131,2.72951910383615,0.5,76.115804242326
CBC_1090,CBC_1090_MSI_AV_v3_Vset4_Aset1_2024-03-10_11h41.57.568.csv,2,31,2,0,z,0,1,3,aud,A,27,1,2A,0A,0,1,b,3.40242760000001,1,0,0,0,2A,0A,A20,3.13549421592915,0.700079087824877,0.5,0.5,0.5,0.433823575721346,0.650197681862284,0.5,0.5,0.376405789703308,0.5,0.700231777305285,0.5,0.5,0.5,0.5,0.58292505434225,0.416639207426105,0.583360792573895,0.5,0.700079087824877,0.0176949605636192,0.156661747979197,-0.5,-0.0661764242786544,0.5,0.132352848557309,0.670163023547413,3.70373794251131,2.72951910383615,0.5,76.115804242326
CBC_1090,CBC_1090_MSI_AV_v3_Vset4_Aset1_2024-03-10_11h41.57.568.csv,2,32,3,0,b,1,0,1,aud,D,9,1,3D,0D,1,0,b,1.07969120000052,1,0,1,1,3D,0D,D30,3.85014760171006,0.700079087824877,0.5,0.433823575721346,0.5,0.433823575721346,0.650197681862284,0.5,0.5,0.376405789703308,0.5,0.700231777305285,0.5,0.5,0.5,0.5,0.58292505434225,0.538287531537728,0.461712468462272,0.58292505434225,0.5,0.309951408393479,0.684859189146973,0.41707494565775,0.055201057119688,0.5,0.132352848557309,0.670163023547413,3.70373794251131,2.72951910383615,0.5,76.115804242326
CBC_1090,CBC_1090_MSI_AV_v3_Vset4_Aset1_2024-03-10_11h41.57.568.csv,2,33,3,2,z,0,1,2,aud,C,63,1,3C,2C,0,1,z,2.46727120000105,0,1,1,1,2C,3C,C32,2.26176309847379,0.700079087824877,0.5,0.433823575721346,0.5,0.433823575721346,0.650197681862284,0.5,0.5,0.376405789703308,0.5,0.700231777305285,0.5,0.5,0.5,0.5,0.638126111461938,0.583413796023147,0.416586203976853,0.700231777305285,0.5,0.211462978414191,0.843999835965374,0.299768222694715,0.0396751781806072,0.5,0.132352848557309,0.670163023547413,3.70373794251131,2.72951910383615,0.5,76.115804242326
CBC_1090,CBC_1090_MSI_AV_v3_Vset4_Aset1_2024-03-10_11h41.57.568.csv,2,34,0,1,z,0,1,0,aud,B,63,1,0B,1B,0,1,z,1.78015880000021,0,1,1,1,1B,0B,B01,2.50552593699074,0.700079087824877,0.5,0.433823575721346,0.5,0.433823575721346,0.650197681862284,0.5,0.5,0.376405789703308,0.5,0.739906955485893,0.5,0.5,0.5,0.5,0.638126111461938,0.599801597352091,0.400198402647909,0.650197681862284,0.433823575721346,0.406122897064363,0.882887427432352,0.349802318137716,0.0462973332374767,0.5,0.132352848557309,0.670163023547413,3.70373794251131,2.72951910383615,0.5,76.115804242326
CBC_1090,CBC_1090_MSI_AV_v3_Vset4_Aset1_2024-03-10_11h41.57.568.csv,2,35,0,1,b,1,0,3,aud,A,63,0,0A,1A,0,1,b,2.90832790000059,1,0,1,0,0A,1A,A01,2.30258509299405,0.700079087824877,0.5,0.433823575721346,0.5,0.433823575721346,0.696495015099761,0.5,0.5,0.376405789703308,0.5,0.739906955485893,0.5,0.5,0.5,0.5,0.638126111461938,0.583360792573895,0.416639207426105,0.700079087824877,0.5,0.145150337699263,0.843332683281037,-0.700079087824877,-0.0926574614890248,0.5,0.132352848557309,0.670163023547413,3.70373794251131,2.72951910383615,0.5,76.115804242326
CBC_1090,CBC_1090_MSI_AV_v3_Vset4_Aset1_2024-03-10_11h41.57.568.csv,2,36,2,3,z,0,1,1,aud,D,63,1,2D,3D,0,1,z,0.864726199999495,0,1,1,1,3D,2D,D23,2.83321334405622,0.607421626335852,0.5,0.433823575721346,0.5,0.433823575721346,0.696495015099761,0.5,0.5,0.376405789703308,0.5,0.739906955485893,0.5,0.5,0.5,0.5,0.638126111461938,0.560681373562598,0.439318626437402,0.638126111461938,0.5,0.0959668452178437,0.773820177705544,0.361873888538062,0.0478950399665226,0.5,0.132352848557309,0.670163023547413,3.70373794251131,2.72951910383615,0.5,76.115804242326
CBC_1090,CBC_1090_MSI_AV_v3_Vset4_Aset1_2024-03-10_11h41.57.568.csv,2,37,1,2,b,1,0,0,aud,B,9,1,1B,2B,1,0,b,2.43261730000086,1,0,1,1,1B,2B,B12,3.95124371858143,0.607421626335852,0.5,0.433823575721346,0.5,0.433823575721346,0.696495015099761,0.5,0.5,0.376405789703308,0.5,0.739906955485893,0.5,0.5,0.5,0.5,0.686021151428461,0.58211275961036,0.41788724038964,0.696495015099761,0.5,0.217112678339919,0.839950548616066,0.303504984900239,0.0401697493028897,0.5,0.132352848557309,0.670163023547413,3.70373794251131,2.72951910383615,0.5,76.115804242326
CBC_1090,CBC_1090_MSI_AV_v3_Vset4_Aset1_2024-03-10_11h41.57.568.csv,2,38,2,0,z,0,1,3,aud,A,27,1,2A,0A,0,1,b,2.37350750000041,1,0,0,0,2A,0A,A20,2.87167962488401,0.607421626335852,0.5,0.433823575721346,0.5,0.433823575721346,0.73666476440265,0.5,0.5,0.376405789703308,0.5,0.739906955485893,0.5,0.5,0.5,0.5,0.686021151428461,0.416639207426105,0.583360792573895,0.433823575721346,0.607421626335852,0.0423595345742704,0.156080163590524,-0.433823575721346,-0.0574177860180375,0.5,0.132352848557309,0.670163023547413,3.70373794251131,2.72951910383615,0.5,76.115804242326
CBC_1090,CBC_1090_MSI_AV_v3_Vset4_Aset1_2024-03-10_11h41.57.568.csv,2,39,2,3,b,1,0,2,aud,C,63,0,2C,3C,0,1,b,1.77585580000232,1,0,1,0,2C,3C,C23,3.29583686600433,0.607421626335852,0.5,0.376405789703308,0.5,0.433823575721346,0.73666476440265,0.5,0.5,0.376405789703308,0.5,0.739906955485893,0.5,0.5,0.5,0.5,0.686021151428461,0.596743934867225,0.403256065132775,0.739906955485893,0.5,0.402254044658365,0.87595658761735,-0.739906955485893,-0.0979287932259238,0.5,0.132352848557309,0.670163023547413,3.70373794251131,2.72951910383615,0.5,76.115804242326
CBC_1090,CBC_1090_MSI_AV_v3_Vset4_Aset1_2024-03-10_11h41.57.568.csv,2,40,1,3,z,0,1,1,aud,D,27,1,1D,3D,0,1,z,3.08415690000038,0,1,1,1,3D,1D,D13,3.31418600467253,0.607421626335852,0.5,0.376405789703308,0.5,0.433823575721346,0.73666476440265,0.5,0.5,0.376405789703308,0.5,0.641978162259969,0.5,0.5,0.5,0.5,0.686021151428461,0.578422358321525,0.421577641678475,0.686021151428461,0.5,0.125308654930128,0.829936854287743,0.313978848571539,0.0415559949951872,0.5,0.132352848557309,0.670163023547413,3.70373794251131,2.72951910383615,0.5,76.115804242326
CBC_1090,CBC_1090_MSI_AV_v3_Vset4_Aset1_2024-03-10_11h41.57.568.csv,2,41,0,1,b,1,0,3,aud,A,63,1,0A,1A,1,0,b,2.27684800000134,1,0,1,1,0A,1A,A01,2.23359222150709,0.607421626335852,0.5,0.376405789703308,0.5,0.433823575721346,0.73666476440265,0.5,0.5,0.376405789703308,0.5,0.641978162259969,0.5,0.5,0.5,0.5,0.727577146423648,0.548500780453096,0.451499219546904,0.607421626335852,0.5,0.214060864462119,0.727381713484125,0.392578373664148,0.0519588660364456,0.5,0.132352848557309,0.670163023547413,3.70373794251131,2.72951910383615,0.5,76.115804242326
CBC_1090,CBC_1090_MSI_AV_v3_Vset4_Aset1_2024-03-10_11h41.57.568.csv,2,42,0,2,z,0,1,2,aud,C,27,1,0C,2C,0,1,z,3.67518770000061,0,1,1,1,2C,0C,C02,3.3499040872746,0.659380492372297,0.5,0.376405789703308,0.5,0.433823575721346,0.73666476440265,0.5,0.5,0.376405789703308,0.5,0.641978162259969,0.5,0.5,0.5,0.5,0.727577146423648,0.630389118978496,0.369610881021504,0.641978162259969,0.376405789703308,0.0531138266644641,0.932926854019014,0.358021837740031,0.0473852100706158,0.5,0.132352848557309,0.670163023547413,3.70373794251131,2.72951910383615,0.5,76.115804242326
CBC_1090,CBC_1090_MSI_AV_v3_Vset4_Aset1_2024-03-10_11h41.57.568.csv,2,43,3,2,b,1,0,1,aud,D,63,1,3D,2D,1,0,b,1.10792560000118,1,0,1,1,3D,2D,D32,2.67414864942653,0.659380492372297,0.5,0.376405789703308,0.5,0.433823575721346,0.73666476440265,0.5,0.5,0.376405789703308,0.5,0.689363372330585,0.5,0.5,0.5,0.5,0.727577146423648,0.59269362299822,0.40730637700178,0.727577146423648,0.5,0.516821809044552,0.86760978602629,0.272422853576352,0.0360559406829409,0.5,0.132352848557309,0.670163023547413,3.70373794251131,2.72951910383615,0.5,76.115804242326
CBC_1090,CBC_1090_MSI_AV_v3_Vset4_Aset1_2024-03-10_11h41.57.568.csv,2,44,1,0,b,1,0,0,aud,B,63,1,1B,0B,NaN,NaN,[],NaN,NaN,NaN,NaN,NaN,,,B10,2.97892515523761,0.659380492372297,0.5,0.376405789703308,0.5,0.433823575721346,0.73666476440265,0.5,0.5,0.376405789703308,0.5,0.689363372330585,0.5,0.5,0.5,0.5,0.763633087106589,0,0,0,0,NaN,0,0,0,0.5,0.132352848557309,0.670163023547413,3.70373794251131,2.72951910383615,0.5,76.115804242326
