ID,filename,session,trial,visStimLeft,visStimRight,correctKey,leftCorrect,rightCorrect,secondStim,mod2Type,mod2Stim,frequency,rewardAccurate,stimPairLeft,stimPairRight,pCorrectLeft,pCorrectRight,key,reactionTime,choiceLeft,choiceRight,choiceAccurate,reward,chosenPair,otherPair,triplet,surprise,0A belief,1A belief,2A belief,3A belief,0B belief,1B belief,2B belief,3B belief,0C belief,1C belief,2C belief,3C belief,0D belief,1D belief,2D belief,3D belief,beliefPairNorm,beliefOtherPairNorm,beliefPair,beliefOtherPair,lik,corrLik,rewardPE,update2,fitCBCsimpleRW_CBCdriftDiffusionLR_pwBelief_startBelief,fitCBCsimpleRW_CBCdriftDiffusionLR_pwBelief_alpha1,fitCBCsimpleRW_CBCdriftDiffusionLR_pwBelief_nonDecisionTime,fitCBCsimpleRW_CBCdriftDiffusionLR_pwBelief_weight,fitCBCsimpleRW_CBCdriftDiffusionLR_pwBelief_startingBoundary,fitCBCsimpleRW_CBCdriftDiffusionLR_pwBelief_startingPoint,fit_CBCsimpleRW_CBCdriftDiffusionLR_pwBelief_NLL
CBC_1090,CBC_1090_MSI_TV_v3_Vset5_Tset3_2024-03-10_10h39.49.098.csv,1,1,0,1,z,0,1,0,tac,B,63,1,0B,1B,0,1,b,2.56552670000019,1,0,0,0,0B,1B,B01,2.77258872223978,0.5,0.5,0.5,0.5,0.5,0.5,0.5,0.5,0.5,0.5,0.5,0.5,0.5,0.5,0.5,0.5,0.5,0.5,0.5,0.5,0.155520667292735,0.500069047858875,-0.5,-0.184109674026372,0.5,0.368219348052744,1.09872676610378,1.16540146568461,2.99686586047311,0.5,62.6725921388249
CBC_1090,CBC_1090_MSI_TV_v3_Vset5_Tset3_2024-03-10_10h39.49.098.csv,1,2,0,1,b,1,0,3,tac,A,63,1,0A,1A,1,0,b,2.02100780000092,1,0,1,1,0A,1A,A01,2.83321334405622,0.5,0.5,0.5,0.5,0.315890325973628,0.5,0.5,0.5,0.5,0.5,0.5,0.5,0.5,0.5,0.5,0.5,0.5,0.5,0.5,0.5,0.199887435698873,0.500295651909926,0.5,0.184109674026372,0.5,0.368219348052744,1.09872676610378,1.16540146568461,2.99686586047311,0.5,62.6725921388249
CBC_1090,CBC_1090_MSI_TV_v3_Vset5_Tset3_2024-03-10_10h39.49.098.csv,1,3,2,3,z,0,1,1,tac,D,63,1,2D,3D,0,1,z,2.42202780000025,0,1,1,1,3D,2D,D23,2.89037175789616,0.684109674026372,0.5,0.5,0.5,0.315890325973628,0.5,0.5,0.5,0.5,0.5,0.5,0.5,0.5,0.5,0.5,0.5,0.5,0.5,0.5,0.5,0.167704676439058,0.500462246819954,0.5,0.184109674026372,0.5,0.368219348052744,1.09872676610378,1.16540146568461,2.99686586047311,0.5,62.6725921388249
CBC_1090,CBC_1090_MSI_TV_v3_Vset5_Tset3_2024-03-10_10h39.49.098.csv,1,4,2,1,z,0,1,0,tac,B,9,1,2B,1B,0,1,z,2.48235980000118,0,1,1,1,1B,2B,B21,2.94443897916644,0.684109674026372,0.5,0.5,0.5,0.315890325973628,0.5,0.5,0.5,0.5,0.5,0.5,0.5,0.5,0.5,0.5,0.684109674026372,0.5,0.5,0.5,0.5,0.162607273727823,0.500555464050754,0.5,0.184109674026372,0.5,0.368219348052744,1.09872676610378,1.16540146568461,2.99686586047311,0.5,62.6725921388249
CBC_1090,CBC_1090_MSI_TV_v3_Vset5_Tset3_2024-03-10_10h39.49.098.csv,1,5,0,2,b,1,0,3,tac,A,27,1,0A,2A,1,0,b,2.32494690000112,1,0,1,1,0A,2A,A02,2.99573227355399,0.684109674026372,0.5,0.5,0.5,0.315890325973628,0.684109674026372,0.5,0.5,0.5,0.5,0.5,0.5,0.5,0.5,0.5,0.684109674026372,0.684109674026372,0.315890325973628,0.684109674026372,0.5,0.299160542346722,0.784025479542659,0.315890325973628,0.116316929886178,0.5,0.368219348052744,1.09872676610378,1.16540146568461,2.99686586047311,0.5,62.6725921388249
CBC_1090,CBC_1090_MSI_TV_v3_Vset5_Tset3_2024-03-10_10h39.49.098.csv,1,6,2,3,b,1,0,2,tac,C,63,1,2C,3C,1,0,z,2.31479430000036,0,1,0,0,3C,2C,C23,3.04452243772342,0.80042660391255,0.5,0.5,0.5,0.315890325973628,0.684109674026372,0.5,0.5,0.5,0.5,0.5,0.5,0.5,0.5,0.5,0.684109674026372,0.5,0.5,0.5,0.5,0.177266033955098,0.501447141623004,-0.5,-0.184109674026372,0.5,0.368219348052744,1.09872676610378,1.16540146568461,2.99686586047311,0.5,62.6725921388249
CBC_1090,CBC_1090_MSI_TV_v3_Vset5_Tset3_2024-03-10_10h39.49.098.csv,1,7,1,3,z,0,1,1,tac,D,27,1,1D,3D,0,1,z,2.29962020000039,0,1,1,1,3D,1D,D13,3.09104245335832,0.80042660391255,0.5,0.5,0.5,0.315890325973628,0.684109674026372,0.5,0.5,0.5,0.5,0.5,0.315890325973628,0.5,0.5,0.5,0.684109674026372,0.684109674026372,0.315890325973628,0.684109674026372,0.5,0.303108402239812,0.78324240037378,0.315890325973628,0.116316929886178,0.5,0.368219348052744,1.09872676610378,1.16540146568461,2.99686586047311,0.5,62.6725921388249
CBC_1090,CBC_1090_MSI_TV_v3_Vset5_Tset3_2024-03-10_10h39.49.098.csv,1,8,1,0,z,0,1,3,tac,A,63,1,1A,0A,0,1,z,2.32163630000105,0,1,1,1,0A,1A,A10,3.13549421592915,0.80042660391255,0.5,0.5,0.5,0.315890325973628,0.684109674026372,0.5,0.5,0.5,0.5,0.5,0.315890325973628,0.5,0.5,0.5,0.80042660391255,0.80042660391255,0.19957339608745,0.80042660391255,0.5,0.372739120155434,0.890761691778701,0.19957339608745,0.0734867857959929,0.5,0.368219348052744,1.09872676610378,1.16540146568461,2.99686586047311,0.5,62.6725921388249
CBC_1090,CBC_1090_MSI_TV_v3_Vset5_Tset3_2024-03-10_10h39.49.098.csv,1,9,2,0,b,1,0,2,tac,C,27,1,2C,0C,1,0,b,2.27285210000082,1,0,1,1,2C,0C,C20,3.17805383034795,0.873913389708543,0.5,0.5,0.5,0.315890325973628,0.684109674026372,0.5,0.5,0.5,0.5,0.5,0.315890325973628,0.5,0.5,0.5,0.80042660391255,0.5,0.5,0.5,0.5,0.180384908326799,0.500115435422916,0.5,0.184109674026372,0.5,0.368219348052744,1.09872676610378,1.16540146568461,2.99686586047311,0.5,62.6725921388249
CBC_1090,CBC_1090_MSI_TV_v3_Vset5_Tset3_2024-03-10_10h39.49.098.csv,1,10,2,3,z,0,1,1,tac,D,63,1,2D,3D,0,1,z,2.28149180000037,0,1,1,1,3D,2D,D23,2.52572864430826,0.873913389708543,0.5,0.5,0.5,0.315890325973628,0.684109674026372,0.5,0.5,0.5,0.5,0.684109674026372,0.315890325973628,0.5,0.5,0.5,0.80042660391255,0.80042660391255,0.19957339608745,0.80042660391255,0.5,0.383741617329788,0.890723173790271,0.19957339608745,0.0734867857959929,0.5,0.368219348052744,1.09872676610378,1.16540146568461,2.99686586047311,0.5,62.6725921388249
CBC_1090,CBC_1090_MSI_TV_v3_Vset5_Tset3_2024-03-10_10h39.49.098.csv,1,11,1,0,b,1,0,0,tac,B,63,0,1B,0B,0,1,b,2.64898940000057,1,0,1,0,1B,0B,B10,3.25809653802148,0.873913389708543,0.5,0.5,0.5,0.315890325973628,0.684109674026372,0.5,0.5,0.5,0.5,0.684109674026372,0.315890325973628,0.5,0.5,0.5,0.873913389708543,0.824255066529898,0.175744933470102,0.684109674026372,0.315890325973628,0.296387560263231,0.905694555946319,-0.684109674026372,-0.251902418166566,0.5,0.368219348052744,1.09872676610378,1.16540146568461,2.99686586047311,0.5,62.6725921388249
CBC_1090,CBC_1090_MSI_TV_v3_Vset5_Tset3_2024-03-10_10h39.49.098.csv,1,12,0,1,b,1,0,3,tac,A,63,1,0A,1A,1,0,b,1.3119469000012,1,0,1,1,0A,1A,A01,2.60268968544438,0.873913389708543,0.5,0.5,0.5,0.315890325973628,0.432207255859806,0.5,0.5,0.5,0.5,0.684109674026372,0.315890325973628,0.5,0.5,0.5,0.873913389708543,0.873913389708543,0.126086610291457,0.873913389708543,0.5,0.106846972599064,0.931661952168862,0.126086610291457,0.0464275294397008,0.5,0.368219348052744,1.09872676610378,1.16540146568461,2.99686586047311,0.5,62.6725921388249
CBC_1090,CBC_1090_MSI_TV_v3_Vset5_Tset3_2024-03-10_10h39.49.098.csv,1,13,2,3,z,0,1,1,tac,D,63,1,2D,3D,0,1,z,2.94364420000056,0,1,1,1,3D,2D,D23,2.23359222150709,0.920340919148243,0.5,0.5,0.5,0.315890325973628,0.432207255859806,0.5,0.5,0.5,0.5,0.684109674026372,0.315890325973628,0.5,0.5,0.5,0.873913389708543,0.873913389708543,0.126086610291457,0.873913389708543,0.5,0.232284163713565,0.931696531361787,0.126086610291457,0.0464275294397008,0.5,0.368219348052744,1.09872676610378,1.16540146568461,2.99686586047311,0.5,62.6725921388249
CBC_1090,CBC_1090_MSI_TV_v3_Vset5_Tset3_2024-03-10_10h39.49.098.csv,1,14,2,0,b,1,0,2,tac,C,27,1,2C,0C,1,0,b,3.00520490000054,1,0,1,1,2C,0C,C20,2.67414864942653,0.920340919148243,0.5,0.5,0.5,0.315890325973628,0.432207255859806,0.5,0.5,0.5,0.5,0.684109674026372,0.315890325973628,0.5,0.5,0.5,0.920340919148243,0.684109674026372,0.315890325973628,0.684109674026372,0.5,0.19573590728714,0.783591835506125,0.315890325973628,0.116316929886178,0.5,0.368219348052744,1.09872676610378,1.16540146568461,2.99686586047311,0.5,62.6725921388249
CBC_1090,CBC_1090_MSI_TV_v3_Vset5_Tset3_2024-03-10_10h39.49.098.csv,1,15,0,1,b,1,0,3,tac,A,63,1,0A,1A,1,0,b,2.08231780000096,1,0,1,1,0A,1A,A01,2.30258509299405,0.920340919148243,0.5,0.5,0.5,0.315890325973628,0.432207255859806,0.5,0.5,0.5,0.5,0.80042660391255,0.315890325973628,0.5,0.5,0.5,0.920340919148243,0.920340919148243,0.0796590808517565,0.920340919148243,0.5,0.530086753195983,0.949788617667319,0.0796590808517565,0.0293320148177146,0.5,0.368219348052744,1.09872676610378,1.16540146568461,2.99686586047311,0.5,62.6725921388249
CBC_1090,CBC_1090_MSI_TV_v3_Vset5_Tset3_2024-03-10_10h39.49.098.csv,1,16,1,3,b,1,0,0,tac,B,27,1,1B,3B,1,0,b,3.27186760000041,1,0,1,1,1B,3B,B13,3.43398720448515,0.949672933965958,0.5,0.5,0.5,0.315890325973628,0.432207255859806,0.5,0.5,0.5,0.5,0.80042660391255,0.315890325973628,0.5,0.5,0.5,0.920340919148243,0.432207255859806,0.567792744140194,0.432207255859806,0.5,0.0812711918178658,0.383241976758354,0.567792744140194,0.20907227407638,0.5,0.368219348052744,1.09872676610378,1.16540146568461,2.99686586047311,0.5,62.6725921388249
CBC_1090,CBC_1090_MSI_TV_v3_Vset5_Tset3_2024-03-10_10h39.49.098.csv,1,17,3,2,z,0,1,2,tac,C,63,1,3C,2C,0,1,z,3.6926226000005,0,1,1,1,2C,3C,C32,3.46573590279973,0.949672933965958,0.5,0.5,0.5,0.315890325973628,0.641279529936187,0.5,0.5,0.5,0.5,0.80042660391255,0.315890325973628,0.5,0.5,0.5,0.920340919148243,0.896755745058244,0.103244254941756,0.80042660391255,0.315890325973628,0.110841761328729,0.941209177369634,0.19957339608745,0.0734867857959929,0.5,0.368219348052744,1.09872676610378,1.16540146568461,2.99686586047311,0.5,62.6725921388249
CBC_1090,CBC_1090_MSI_TV_v3_Vset5_Tset3_2024-03-10_10h39.49.098.csv,1,18,2,3,z,0,1,1,tac,D,63,0,2D,3D,1,0,z,2.22926270000062,0,1,1,0,3D,2D,D23,2.11021320034659,0.949672933965958,0.5,0.5,0.5,0.315890325973628,0.641279529936187,0.5,0.5,0.5,0.5,0.873913389708543,0.315890325973628,0.5,0.5,0.5,0.920340919148243,0.920340919148243,0.0796590808517565,0.920340919148243,0.5,0.464238589625744,0.949535136378336,-0.920340919148243,-0.338887333235029,0.5,0.368219348052744,1.09872676610378,1.16540146568461,2.99686586047311,0.5,62.6725921388249
CBC_1090,CBC_1090_MSI_TV_v3_Vset5_Tset3_2024-03-10_10h39.49.098.csv,1,19,1,0,b,1,0,0,tac,B,63,1,1B,0B,1,0,b,2.08760550000079,1,0,1,1,1B,0B,B10,2.83321334405622,0.949672933965958,0.5,0.5,0.5,0.315890325973628,0.641279529936187,0.5,0.5,0.5,0.5,0.873913389708543,0.315890325973628,0.5,0.5,0.5,0.581453585913214,0.794724928176634,0.205275071823366,0.641279529936187,0.315890325973628,0.433239174412535,0.887143832074163,0.358720470063813,0.132087817620071,0.5,0.368219348052744,1.09872676610378,1.16540146568461,2.99686586047311,0.5,62.6725921388249
CBC_1090,CBC_1090_MSI_TV_v3_Vset5_Tset3_2024-03-10_10h39.49.098.csv,1,20,2,0,z,0,1,3,tac,A,27,1,2A,0A,0,1,b,3.21002820000103,1,0,0,0,2A,0A,A20,3.55534806148941,0.949672933965958,0.5,0.5,0.5,0.315890325973628,0.773367347556258,0.5,0.5,0.5,0.5,0.873913389708543,0.315890325973628,0.5,0.5,0.5,0.581453585913214,0.0503270660340419,0.949672933965958,0.5,0.949672933965958,0.00712179416344068,0.0413287683579637,-0.5,-0.184109674026372,0.5,0.368219348052744,1.09872676610378,1.16540146568461,2.99686586047311,0.5,62.6725921388249
CBC_1090,CBC_1090_MSI_TV_v3_Vset5_Tset3_2024-03-10_10h39.49.098.csv,1,21,0,3,z,0,1,1,tac,D,9,1,0D,3D,0,1,z,2.15832620000128,0,1,1,1,3D,0D,D03,3.58351893845611,0.949672933965958,0.5,0.315890325973628,0.5,0.315890325973628,0.773367347556258,0.5,0.5,0.5,0.5,0.873913389708543,0.315890325973628,0.5,0.5,0.5,0.581453585913214,0.581453585913214,0.418546414086786,0.581453585913214,0.5,0.247690842934224,0.638804299915992,0.418546414086786,0.15411688772485,0.5,0.368219348052744,1.09872676610378,1.16540146568461,2.99686586047311,0.5,62.6725921388249
CBC_1090,CBC_1090_MSI_TV_v3_Vset5_Tset3_2024-03-10_10h39.49.098.csv,1,22,2,3,b,1,0,2,tac,C,63,1,2C,3C,1,0,b,2.75484570000026,1,0,1,1,2C,3C,C23,2.91777073208428,0.949672933965958,0.5,0.315890325973628,0.5,0.315890325973628,0.773367347556258,0.5,0.5,0.5,0.5,0.873913389708543,0.315890325973628,0.5,0.5,0.5,0.735570473638064,0.937540135373094,0.0624598646269056,0.873913389708543,0.315890325973628,0.273710474507926,0.955162195525662,0.126086610291457,0.0464275294397008,0.5,0.368219348052744,1.09872676610378,1.16540146568461,2.99686586047311,0.5,62.6725921388249
CBC_1090,CBC_1090_MSI_TV_v3_Vset5_Tset3_2024-03-10_10h39.49.098.csv,1,23,3,1,z,0,1,0,tac,B,27,1,3B,1B,0,1,z,2.25646790000064,0,1,1,1,1B,3B,B31,3.63758615972639,0.949672933965958,0.5,0.315890325973628,0.5,0.315890325973628,0.773367347556258,0.5,0.5,0.5,0.5,0.920340919148243,0.315890325973628,0.5,0.5,0.5,0.735570473638064,0.773367347556258,0.226632652443742,0.773367347556258,0.5,0.373136152260487,0.870806572312196,0.226632652443742,0.0834505275302988,0.5,0.368219348052744,1.09872676610378,1.16540146568461,2.99686586047311,0.5,62.6725921388249
CBC_1090,CBC_1090_MSI_TV_v3_Vset5_Tset3_2024-03-10_10h39.49.098.csv,1,24,3,2,z,0,1,2,tac,C,63,1,3C,2C,0,1,z,1.73979770000096,0,1,1,1,2C,3C,C32,2.9704144655697,0.949672933965958,0.5,0.315890325973628,0.5,0.315890325973628,0.856817875086556,0.5,0.5,0.5,0.5,0.920340919148243,0.315890325973628,0.5,0.5,0.5,0.735570473638064,0.961569346994165,0.0384306530058353,0.920340919148243,0.315890325973628,0.699351542274244,0.961750932518164,0.0796590808517565,0.0293320148177146,0.5,0.368219348052744,1.09872676610378,1.16540146568461,2.99686586047311,0.5,62.6725921388249
CBC_1090,CBC_1090_MSI_TV_v3_Vset5_Tset3_2024-03-10_10h39.49.098.csv,1,25,2,3,z,0,1,1,tac,D,63,1,2D,3D,0,1,z,3.57141970000066,0,1,1,1,3D,2D,D23,2.07944154167984,0.949672933965958,0.5,0.315890325973628,0.5,0.315890325973628,0.856817875086556,0.5,0.5,0.5,0.5,0.949672933965958,0.315890325973628,0.5,0.5,0.5,0.735570473638064,0.735570473638064,0.264429526361936,0.735570473638064,0.5,0.140983614579416,0.838220264289694,0.264429526361936,0.0973680678028877,0.5,0.368219348052744,1.09872676610378,1.16540146568461,2.99686586047311,0.5,62.6725921388249
CBC_1090,CBC_1090_MSI_TV_v3_Vset5_Tset3_2024-03-10_10h39.49.098.csv,1,26,1,0,b,1,0,0,tac,B,63,1,1B,0B,1,0,b,2.93835770000078,1,0,1,1,1B,0B,B10,2.6149597780362,0.949672933965958,0.5,0.315890325973628,0.5,0.315890325973628,0.856817875086556,0.5,0.5,0.5,0.5,0.949672933965958,0.315890325973628,0.5,0.5,0.5,0.832938541440952,0.928364330374941,0.0716356696250589,0.856817875086556,0.315890325973628,0.226778661696102,0.952539102284771,0.143182124913444,0.0527224286884347,0.5,0.368219348052744,1.09872676610378,1.16540146568461,2.99686586047311,0.5,62.6725921388249
CBC_1090,CBC_1090_MSI_TV_v3_Vset5_Tset3_2024-03-10_10h39.49.098.csv,1,27,0,3,b,1,0,3,tac,A,9,1,0A,3A,1,0,b,2.41162120000081,1,0,1,1,0A,3A,A03,3.73766961828337,0.949672933965958,0.5,0.315890325973628,0.5,0.315890325973628,0.909540303774991,0.5,0.5,0.5,0.5,0.949672933965958,0.315890325973628,0.5,0.5,0.5,0.832938541440952,0.949672933965958,0.0503270660340419,0.949672933965958,0.5,0.393837204537793,0.958523934507787,0.0503270660340419,0.0185313994444623,0.5,0.368219348052744,1.09872676610378,1.16540146568461,2.99686586047311,0.5,62.6725921388249
CBC_1090,CBC_1090_MSI_TV_v3_Vset5_Tset3_2024-03-10_10h39.49.098.csv,1,28,2,3,z,0,1,1,tac,D,63,1,2D,3D,NaN,NaN,None,NaN,NaN,NaN,NaN,NaN,,,D23,1.96944064646551,0.96820433341042,0.5,0.315890325973628,0.5,0.315890325973628,0.909540303774991,0.5,0.5,0.5,0.5,0.949672933965958,0.315890325973628,0.5,0.5,0.5,0.832938541440952,0,0,0,0,NaN,0,0,0,0.5,0.368219348052744,1.09872676610378,1.16540146568461,2.99686586047311,0.5,62.6725921388249
CBC_1090,CBC_1090_MSI_TV_v3_Vset5_Tset3_2024-03-10_10h39.49.098.csv,1,29,2,0,b,1,0,2,tac,C,27,1,2C,0C,1,0,b,1.46592960000089,1,0,1,1,2C,0C,C20,2.68557734525015,0.96820433341042,0.5,0.315890325973628,0.5,0.315890325973628,0.909540303774991,0.5,0.5,0.5,0.5,0.949672933965958,0.315890325973628,0.5,0.5,0.5,0.832938541440952,0.949672933965958,0.0503270660340419,0.949672933965958,0.5,0.496285637142788,0.958514573261408,0.0503270660340419,0.0185313994444623,0.5,0.368219348052744,1.09872676610378,1.16540146568461,2.99686586047311,0.5,62.6725921388249
CBC_1090,CBC_1090_MSI_TV_v3_Vset5_Tset3_2024-03-10_10h39.49.098.csv,1,30,1,0,z,0,1,3,tac,A,63,0,1A,0A,1,0,z,2.33106620000126,0,1,1,0,0A,1A,A10,3.11351530921037,0.96820433341042,0.5,0.315890325973628,0.5,0.315890325973628,0.909540303774991,0.5,0.5,0.5,0.5,0.96820433341042,0.315890325973628,0.5,0.5,0.5,0.832938541440952,0.96820433341042,0.0317956665895797,0.96820433341042,0.5,0.431845398719251,0.963282690775521,-0.96820433341042,-0.356511568430226,0.5,0.368219348052744,1.09872676610378,1.16540146568461,2.99686586047311,0.5,62.6725921388249
CBC_1090,CBC_1090_MSI_TV_v3_Vset5_Tset3_2024-03-10_10h39.49.098.csv,1,31,1,0,b,1,0,0,tac,B,63,1,1B,0B,1,0,b,1.87288360000093,1,0,1,1,1B,0B,B10,2.4423470353692,0.611692764980194,0.5,0.315890325973628,0.5,0.315890325973628,0.909540303774991,0.5,0.5,0.5,0.5,0.96820433341042,0.315890325973628,0.5,0.5,0.5,0.832938541440952,0.956092019379011,0.0439079806209887,0.909540303774991,0.315890325973628,0.653848786910566,0.960360256278222,0.0904596962250088,0.033309010369022,0.5,0.368219348052744,1.09872676610378,1.16540146568461,2.99686586047311,0.5,62.6725921388249
CBC_1090,CBC_1090_MSI_TV_v3_Vset5_Tset3_2024-03-10_10h39.49.098.csv,1,32,3,1,b,1,0,1,tac,D,27,1,3D,1D,1,0,b,2.76163050000105,1,0,1,1,3D,1D,D31,3.85014760171006,0.611692764980194,0.5,0.315890325973628,0.5,0.315890325973628,0.942849314144013,0.5,0.5,0.5,0.5,0.96820433341042,0.315890325973628,0.5,0.5,0.5,0.832938541440952,0.832938541440952,0.167061458559048,0.832938541440952,0.5,0.271435896313918,0.91094652166773,0.167061458559048,0.0615152613553531,0.5,0.368219348052744,1.09872676610378,1.16540146568461,2.99686586047311,0.5,62.6725921388249
CBC_1090,CBC_1090_MSI_TV_v3_Vset5_Tset3_2024-03-10_10h39.49.098.csv,1,33,3,2,z,0,1,2,tac,C,63,1,3C,2C,0,1,z,1.94712680000066,0,1,1,1,2C,3C,C32,2.77258872223978,0.611692764980194,0.5,0.315890325973628,0.5,0.315890325973628,0.942849314144013,0.5,0.5,0.5,0.5,0.96820433341042,0.315890325973628,0.5,0.5,0.5,0.894453802796305,0.985062588955916,0.014937411044084,0.96820433341042,0.315890325973628,0.644164507719568,0.967256988753228,0.0317956665895797,0.0117077796225174,0.5,0.368219348052744,1.09872676610378,1.16540146568461,2.99686586047311,0.5,62.6725921388249
CBC_1090,CBC_1090_MSI_TV_v3_Vset5_Tset3_2024-03-10_10h39.49.098.csv,1,34,1,0,b,1,0,0,tac,B,63,1,1B,0B,1,0,b,3.0238827000012,1,0,1,1,1B,0B,B10,2.28238238567653,0.611692764980194,0.5,0.315890325973628,0.5,0.315890325973628,0.942849314144013,0.5,0.5,0.5,0.5,0.979912113032938,0.315890325973628,0.5,0.5,0.5,0.894453802796305,0.972772910477905,0.0272270895220945,0.942849314144013,0.315890325973628,0.196789768478748,0.964367566259379,0.0571506858559868,0.0210439882866586,0.5,0.368219348052744,1.09872676610378,1.16540146568461,2.99686586047311,0.5,62.6725921388249
CBC_1090,CBC_1090_MSI_TV_v3_Vset5_Tset3_2024-03-10_10h39.49.098.csv,1,35,0,1,b,1,0,3,tac,A,63,1,0A,1A,1,0,b,2.43107580000105,1,0,1,1,0A,1A,A01,2.52572864430826,0.611692764980194,0.5,0.315890325973628,0.5,0.315890325973628,0.963893302430672,0.5,0.5,0.5,0.5,0.979912113032938,0.315890325973628,0.5,0.5,0.5,0.894453802796305,0.611692764980194,0.388307235019806,0.611692764980194,0.5,0.23552064712186,0.68582935519394,0.388307235019806,0.142982236923156,0.5,0.368219348052744,1.09872676610378,1.16540146568461,2.99686586047311,0.5,62.6725921388249
CBC_1090,CBC_1090_MSI_TV_v3_Vset5_Tset3_2024-03-10_10h39.49.098.csv,1,36,1,2,z,0,1,2,tac,C,9,1,1C,2C,0,1,z,1.86992520000058,0,1,1,1,2C,1C,C12,3.93182563272433,0.754675001903351,0.5,0.315890325973628,0.5,0.315890325973628,0.963893302430672,0.5,0.5,0.5,0.5,0.979912113032938,0.315890325973628,0.5,0.5,0.5,0.894453802796305,0.979912113032938,0.0200878869670622,0.979912113032938,0.5,0.679181868730516,0.966183960172043,0.0200878869670622,0.00739674864276885,0.5,0.368219348052744,1.09872676610378,1.16540146568461,2.99686586047311,0.5,62.6725921388249
CBC_1090,CBC_1090_MSI_TV_v3_Vset5_Tset3_2024-03-10_10h39.49.098.csv,1,37,1,0,z,0,1,3,tac,A,63,1,1A,0A,0,1,z,2.30449000000135,0,1,1,1,0A,1A,A10,2.85263142991332,0.754675001903351,0.5,0.315890325973628,0.5,0.315890325973628,0.963893302430672,0.5,0.5,0.5,0.5,0.987308861675707,0.315890325973628,0.5,0.5,0.5,0.894453802796305,0.754675001903351,0.245324998096649,0.754675001903351,0.5,0.349302752958794,0.855164811256089,0.245324998096649,0.0903334108601888,0.5,0.368219348052744,1.09872676610378,1.16540146568461,2.99686586047311,0.5,62.6725921388249
CBC_1090,CBC_1090_MSI_TV_v3_Vset5_Tset3_2024-03-10_10h39.49.098.csv,1,38,3,1,b,1,0,1,tac,D,27,1,3D,1D,1,0,b,2.15488030000051,1,0,1,1,3D,1D,D31,3.27714473299218,0.845008412763539,0.5,0.315890325973628,0.5,0.315890325973628,0.963893302430672,0.5,0.5,0.5,0.5,0.987308861675707,0.315890325973628,0.5,0.5,0.5,0.894453802796305,0.894453802796305,0.105546197203695,0.894453802796305,0.5,0.482453439846421,0.940177948011057,0.105546197203695,0.0388641519237908,0.5,0.368219348052744,1.09872676610378,1.16540146568461,2.99686586047311,0.5,62.6725921388249
CBC_1090,CBC_1090_MSI_TV_v3_Vset5_Tset3_2024-03-10_10h39.49.098.csv,1,39,0,1,z,0,1,0,tac,B,63,1,0B,1B,0,1,z,2.29706710000028,0,1,1,1,1B,0B,B01,3.29583686600433,0.845008412763539,0.5,0.315890325973628,0.5,0.315890325973628,0.963893302430672,0.5,0.5,0.5,0.5,0.987308861675707,0.315890325973628,0.5,0.5,0.5,0.933317954720096,0.982997152498259,0.0170028475017409,0.963893302430672,0.315890325973628,0.450649274441419,0.96677170738764,0.0361066975693282,0.0132951846393156,0.5,0.368219348052744,1.09872676610378,1.16540146568461,2.99686586047311,0.5,62.6725921388249
CBC_1090,CBC_1090_MSI_TV_v3_Vset5_Tset3_2024-03-10_10h39.49.098.csv,1,40,2,3,b,1,0,2,tac,C,63,0,2C,3C,0,1,b,2.9656186000002,1,0,1,0,2C,3C,C23,2.90872089656436,0.845008412763539,0.5,0.315890325973628,0.5,0.315890325973628,0.977188487069987,0.5,0.5,0.5,0.5,0.987308861675707,0.315890325973628,0.5,0.5,0.5,0.933317954720096,0.994099511110652,0.00590048888934824,0.987308861675707,0.315890325973628,0.204075489934293,0.969258059100908,-0.987308861675707,-0.363546225372925,0.5,0.368219348052744,1.09872676610378,1.16540146568461,2.99686586047311,0.5,62.6725921388249
CBC_1090,CBC_1090_MSI_TV_v3_Vset5_Tset3_2024-03-10_10h39.49.098.csv,1,41,2,0,z,0,1,3,tac,A,27,1,2A,0A,0,1,b,2.72863190000044,1,0,0,0,2A,0A,A20,3.3322045101752,0.845008412763539,0.5,0.315890325973628,0.5,0.315890325973628,0.977188487069987,0.5,0.5,0.5,0.5,0.623762636302782,0.315890325973628,0.5,0.5,0.5,0.933317954720096,0.0780818430016147,0.921918156998385,0.315890325973628,0.845008412763539,0.0148262573827462,0.0498096397380708,-0.315890325973628,-0.116316929886178,0.5,0.368219348052744,1.09872676610378,1.16540146568461,2.99686586047311,0.5,62.6725921388249
CBC_1090,CBC_1090_MSI_TV_v3_Vset5_Tset3_2024-03-10_10h39.49.098.csv,1,42,3,2,b,1,0,1,tac,D,63,1,3D,2D,1,0,b,3.0259201000008,1,0,1,1,3D,2D,D32,4.04305126783455,0.845008412763539,0.5,0.19957339608745,0.5,0.315890325973628,0.977188487069987,0.5,0.5,0.5,0.5,0.623762636302782,0.315890325973628,0.5,0.5,0.5,0.933317954720096,0.933317954720096,0.0666820452799041,0.933317954720096,0.5,0.205893092650623,0.954036721691499,0.0666820452799041,0.0245536192397898,0.5,0.368219348052744,1.09872676610378,1.16540146568461,2.99686586047311,0.5,62.6725921388249
CBC_1090,CBC_1090_MSI_TV_v3_Vset5_Tset3_2024-03-10_10h39.49.098.csv,1,43,3,1,z,0,1,0,tac,B,27,1,3B,1B,0,1,z,4.10029030000078,0,1,1,1,1B,3B,B31,3.36729582998647,0.845008412763539,0.5,0.19957339608745,0.5,0.315890325973628,0.977188487069987,0.5,0.5,0.5,0.5,0.623762636302782,0.315890325973628,0.5,0.5,0.5,0.957871573959886,0.977188487069987,0.0228115129300126,0.977188487069987,0.5,0.0557300203293489,0.965422430829148,0.0228115129300126,0.00839964041918597,0.5,0.368219348052744,1.09872676610378,1.16540146568461,2.99686586047311,0.5,62.6725921388249
CBC_1090,CBC_1090_MSI_TV_v3_Vset5_Tset3_2024-03-10_10h39.49.098.csv,1,44,2,3,b,1,0,2,tac,C,63,1,2C,3C,1,0,b,2.25860720000128,1,0,1,1,2C,3C,C23,2.69124308278583,0.845008412763539,0.5,0.19957339608745,0.5,0.315890325973628,0.985588127489173,0.5,0.5,0.5,0.5,0.623762636302782,0.315890325973628,0.5,0.5,0.5,0.957871573959886,0.782155631833872,0.217844368166128,0.623762636302782,0.315890325973628,0.377963232357894,0.877103325996807,0.376237363697218,0.138537876773673,0.5,0.368219348052744,1.09872676610378,1.16540146568461,2.99686586047311,0.5,62.6725921388249
CBC_1090,CBC_1090_MSI_AV_v3_Vset4_Aset1_2024-03-10_11h41.57.568.csv,2,1,1,0,b,1,0,0,aud,B,63,1,1B,0B,1,0,b,2.01233220000177,1,0,1,1,1B,0B,B10,2.77258872223978,0.5,0.5,0.5,0.5,0.5,0.5,0.5,0.5,0.5,0.5,0.5,0.5,0.5,0.5,0.5,0.5,0.5,0.5,0.5,0.5,0.172771506581709,0.49944264052731,0.5,0.13263742195585,0.5,0.2652748439117,0.672199209185919,1.13670581964471,2.7399134554101,0.5,75.3762663817309
CBC_1090,CBC_1090_MSI_AV_v3_Vset4_Aset1_2024-03-10_11h41.57.568.csv,2,2,0,1,b,1,0,3,aud,A,63,1,0A,1A,1,0,b,1.26189680000061,1,0,1,1,0A,1A,A01,2.83321334405622,0.5,0.5,0.5,0.5,0.5,0.63263742195585,0.5,0.5,0.5,0.5,0.5,0.5,0.5,0.5,0.5,0.5,0.5,0.5,0.5,0.5,0.245576791987522,0.499556516255984,0.5,0.13263742195585,0.5,0.2652748439117,0.672199209185919,1.13670581964471,2.7399134554101,0.5,75.3762663817309
CBC_1090,CBC_1090_MSI_AV_v3_Vset4_Aset1_2024-03-10_11h41.57.568.csv,2,3,1,2,z,0,1,2,aud,C,9,1,1C,2C,0,1,z,2.22105610000108,0,1,1,1,2C,1C,C12,2.89037175789616,0.63263742195585,0.5,0.5,0.5,0.5,0.63263742195585,0.5,0.5,0.5,0.5,0.5,0.5,0.5,0.5,0.5,0.5,0.5,0.5,0.5,0.5,0.150952514060696,0.499671734839907,0.5,0.13263742195585,0.5,0.2652748439117,0.672199209185919,1.13670581964471,2.7399134554101,0.5,75.3762663817309
CBC_1090,CBC_1090_MSI_AV_v3_Vset4_Aset1_2024-03-10_11h41.57.568.csv,2,4,1,0,z,0,1,3,aud,A,63,1,1A,0A,0,1,z,1.37259750000158,0,1,1,1,0A,1A,A10,2.94443897916644,0.63263742195585,0.5,0.5,0.5,0.5,0.63263742195585,0.5,0.5,0.5,0.5,0.63263742195585,0.5,0.5,0.5,0.5,0.5,0.63263742195585,0.36736257804415,0.63263742195585,0.5,0.35734743738269,0.695329772427082,0.36736257804415,0.0974520505496615,0.5,0.2652748439117,0.672199209185919,1.13670581964471,2.7399134554101,0.5,75.3762663817309
CBC_1090,CBC_1090_MSI_AV_v3_Vset4_Aset1_2024-03-10_11h41.57.568.csv,2,5,3,1,b,1,0,1,aud,D,27,1,3D,1D,1,0,b,1.75645910000094,1,0,1,1,3D,1D,D31,2.99573227355399,0.730089472505511,0.5,0.5,0.5,0.5,0.63263742195585,0.5,0.5,0.5,0.5,0.63263742195585,0.5,0.5,0.5,0.5,0.5,0.5,0.5,0.5,0.5,0.203201348539588,0.500185669533553,0.5,0.13263742195585,0.5,0.2652748439117,0.672199209185919,1.13670581964471,2.7399134554101,0.5,75.3762663817309
CBC_1090,CBC_1090_MSI_AV_v3_Vset4_Aset1_2024-03-10_11h41.57.568.csv,2,6,0,1,z,0,1,0,aud,B,63,0,0B,1B,1,0,z,2.450605,0,1,1,0,1B,0B,B01,3.04452243772342,0.730089472505511,0.5,0.5,0.5,0.5,0.63263742195585,0.5,0.5,0.5,0.5,0.63263742195585,0.5,0.5,0.5,0.5,0.63263742195585,0.63263742195585,0.36736257804415,0.63263742195585,0.5,0.181430569007473,0.69644764683308,-0.63263742195585,-0.167822793362038,0.5,0.2652748439117,0.672199209185919,1.13670581964471,2.7399134554101,0.5,75.3762663817309
CBC_1090,CBC_1090_MSI_AV_v3_Vset4_Aset1_2024-03-10_11h41.57.568.csv,2,7,2,3,b,1,0,2,aud,C,63,1,2C,3C,1,0,b,2.18140630000016,1,0,1,1,2C,3C,C23,3.09104245335832,0.730089472505511,0.5,0.5,0.5,0.5,0.464814628593812,0.5,0.5,0.5,0.5,0.63263742195585,0.5,0.5,0.5,0.5,0.63263742195585,0.63263742195585,0.36736257804415,0.63263742195585,0.5,0.218638039817384,0.695200978749366,0.36736257804415,0.0974520505496615,0.5,0.2652748439117,0.672199209185919,1.13670581964471,2.7399134554101,0.5,75.3762663817309
CBC_1090,CBC_1090_MSI_AV_v3_Vset4_Aset1_2024-03-10_11h41.57.568.csv,2,8,2,0,z,0,1,3,aud,A,27,1,2A,0A,0,1,z,1.53454910000073,0,1,1,1,0A,2A,A20,3.13549421592915,0.730089472505511,0.5,0.5,0.5,0.5,0.464814628593812,0.5,0.5,0.5,0.5,0.730089472505511,0.5,0.5,0.5,0.5,0.63263742195585,0.730089472505511,0.269910527494489,0.730089472505511,0.5,0.418179721563453,0.807504138929493,0.269910527494489,0.071600473051225,0.5,0.2652748439117,0.672199209185919,1.13670581964471,2.7399134554101,0.5,75.3762663817309
CBC_1090,CBC_1090_MSI_AV_v3_Vset4_Aset1_2024-03-10_11h41.57.568.csv,2,9,3,2,b,1,0,1,aud,D,63,1,3D,2D,1,0,b,1.13586180000129,1,0,1,1,3D,2D,D32,3.17805383034795,0.801689945556736,0.5,0.5,0.5,0.5,0.464814628593812,0.5,0.5,0.5,0.5,0.730089472505511,0.5,0.5,0.5,0.5,0.63263742195585,0.63263742195585,0.36736257804415,0.63263742195585,0.5,0.338582793898071,0.695607996881076,0.36736257804415,0.0974520505496615,0.5,0.2652748439117,0.672199209185919,1.13670581964471,2.7399134554101,0.5,75.3762663817309
CBC_1090,CBC_1090_MSI_AV_v3_Vset4_Aset1_2024-03-10_11h41.57.568.csv,2,10,3,1,z,0,1,0,aud,B,27,1,3B,1B,0,1,z,1.91012020000198,0,1,1,1,1B,3B,B31,3.2188758248682,0.801689945556736,0.5,0.5,0.5,0.5,0.464814628593812,0.5,0.5,0.5,0.5,0.730089472505511,0.5,0.5,0.5,0.5,0.730089472505511,0.464814628593812,0.535185371406188,0.464814628593812,0.5,0.164682747487189,0.445036899050993,0.535185371406188,0.141971215863602,0.5,0.2652748439117,0.672199209185919,1.13670581964471,2.7399134554101,0.5,75.3762663817309
CBC_1090,CBC_1090_MSI_AV_v3_Vset4_Aset1_2024-03-10_11h41.57.568.csv,2,11,3,2,z,0,1,2,aud,C,63,0,3C,2C,1,0,z,3.0394748000017,0,1,1,0,2C,3C,C32,3.25809653802148,0.801689945556736,0.5,0.5,0.5,0.5,0.606785844457413,0.5,0.5,0.5,0.5,0.730089472505511,0.5,0.5,0.5,0.5,0.730089472505511,0.730089472505511,0.269910527494489,0.730089472505511,0.5,0.13069376907781,0.806208813209712,-0.730089472505511,-0.193674370860475,0.5,0.2652748439117,0.672199209185919,1.13670581964471,2.7399134554101,0.5,75.3762663817309
CBC_1090,CBC_1090_MSI_AV_v3_Vset4_Aset1_2024-03-10_11h41.57.568.csv,2,12,1,3,b,1,0,0,aud,B,27,1,1B,3B,1,0,b,1.61784820000139,1,0,1,1,1B,3B,B13,3.29583686600433,0.801689945556736,0.5,0.5,0.5,0.5,0.606785844457413,0.5,0.5,0.5,0.5,0.536415101645037,0.5,0.5,0.5,0.5,0.730089472505511,0.606785844457413,0.393214155542587,0.606785844457413,0.5,0.298282360441568,0.66004159989346,0.393214155542587,0.10430982373543,0.5,0.2652748439117,0.672199209185919,1.13670581964471,2.7399134554101,0.5,75.3762663817309
CBC_1090,CBC_1090_MSI_AV_v3_Vset4_Aset1_2024-03-10_11h41.57.568.csv,2,13,3,2,z,0,1,2,aud,C,63,1,3C,2C,0,1,z,2.9902232000004,0,1,1,1,2C,3C,C32,2.63905732961526,0.801689945556736,0.5,0.5,0.5,0.5,0.711095668192844,0.5,0.5,0.5,0.5,0.536415101645037,0.5,0.5,0.5,0.5,0.730089472505511,0.536415101645037,0.463584898354963,0.536415101645037,0.5,0.101072651174245,0.555034079037869,0.463584898354963,0.122977411550934,0.5,0.2652748439117,0.672199209185919,1.13670581964471,2.7399134554101,0.5,75.3762663817309
CBC_1090,CBC_1090_MSI_AV_v3_Vset4_Aset1_2024-03-10_11h41.57.568.csv,2,14,3,2,b,1,0,1,aud,D,63,1,3D,2D,1,0,b,2.38886770000136,1,0,1,1,3D,2D,D32,2.67414864942653,0.801689945556736,0.5,0.5,0.5,0.5,0.711095668192844,0.5,0.5,0.5,0.5,0.659392513195971,0.5,0.5,0.5,0.5,0.730089472505511,0.730089472505511,0.269910527494489,0.730089472505511,0.5,0.218941765524465,0.806711819184376,0.269910527494489,0.071600473051225,0.5,0.2652748439117,0.672199209185919,1.13670581964471,2.7399134554101,0.5,75.3762663817309
CBC_1090,CBC_1090_MSI_AV_v3_Vset4_Aset1_2024-03-10_11h41.57.568.csv,2,15,0,3,b,1,0,3,aud,A,9,1,0A,3A,1,0,b,2.99562350000087,1,0,1,1,0A,3A,A03,3.40119738166216,0.801689945556736,0.5,0.5,0.5,0.5,0.711095668192844,0.5,0.5,0.5,0.5,0.659392513195971,0.5,0.5,0.5,0.5,0.801689945556736,0.801689945556736,0.198310054443264,0.801689945556736,0.5,0.134662544544588,0.867048964761677,0.198310054443264,0.0526066687385574,0.5,0.2652748439117,0.672199209185919,1.13670581964471,2.7399134554101,0.5,75.3762663817309
CBC_1090,CBC_1090_MSI_AV_v3_Vset4_Aset1_2024-03-10_11h41.57.568.csv,2,16,0,1,z,0,1,0,aud,B,63,0,0B,1B,1,0,z,2.20094630000131,0,1,1,0,1B,0B,B01,2.7408400239252,0.854296614295294,0.5,0.5,0.5,0.5,0.711095668192844,0.5,0.5,0.5,0.5,0.659392513195971,0.5,0.5,0.5,0.5,0.801689945556736,0.711095668192844,0.288904331807156,0.711095668192844,0.5,0.247212592065086,0.78696636556474,-0.711095668192844,-0.188635792386142,0.5,0.2652748439117,0.672199209185919,1.13670581964471,2.7399134554101,0.5,75.3762663817309
CBC_1090,CBC_1090_MSI_AV_v3_Vset4_Aset1_2024-03-10_11h41.57.568.csv,2,17,2,3,z,0,1,1,aud,D,63,1,2D,3D,0,1,z,0.998042300001543,0,1,1,1,3D,2D,D23,3.46573590279973,0.854296614295294,0.5,0.5,0.5,0.5,0.522459875806701,0.5,0.5,0.5,0.5,0.659392513195971,0.5,0.5,0.5,0.5,0.801689945556736,0.801689945556736,0.198310054443264,0.801689945556736,0.5,0.391168151783302,0.867644710266083,0.198310054443264,0.0526066687385574,0.5,0.2652748439117,0.672199209185919,1.13670581964471,2.7399134554101,0.5,75.3762663817309
CBC_1090,CBC_1090_MSI_AV_v3_Vset4_Aset1_2024-03-10_11h41.57.568.csv,2,18,0,2,z,0,1,2,aud,C,27,1,0C,2C,0,1,b,2.41550629999983,1,0,0,0,0C,2C,C02,3.49650756146648,0.854296614295294,0.5,0.5,0.5,0.5,0.522459875806701,0.5,0.5,0.5,0.5,0.659392513195971,0.5,0.5,0.5,0.5,0.854296614295294,0.340607486804029,0.659392513195971,0.5,0.659392513195971,0.0722429308132917,0.270499994608237,-0.5,-0.13263742195585,0.5,0.2652748439117,0.672199209185919,1.13670581964471,2.7399134554101,0.5,75.3762663817309
CBC_1090,CBC_1090_MSI_AV_v3_Vset4_Aset1_2024-03-10_11h41.57.568.csv,2,19,0,1,b,1,0,3,aud,A,63,1,0A,1A,1,0,b,2.15940150000097,1,0,1,1,0A,1A,A01,2.83321334405622,0.854296614295294,0.5,0.5,0.5,0.5,0.522459875806701,0.5,0.5,0.36736257804415,0.5,0.659392513195971,0.5,0.5,0.5,0.5,0.854296614295294,0.854296614295294,0.145703385704706,0.854296614295294,0.5,0.292569540117302,0.900672442507588,0.145703385704706,0.0386514429002221,0.5,0.2652748439117,0.672199209185919,1.13670581964471,2.7399134554101,0.5,75.3762663817309
CBC_1090,CBC_1090_MSI_AV_v3_Vset4_Aset1_2024-03-10_11h41.57.568.csv,2,20,1,0,b,1,0,0,aud,B,63,1,1B,0B,1,0,z,2.37932710000132,0,1,0,0,0B,1B,B10,2.86220088092947,0.892948057195516,0.5,0.5,0.5,0.5,0.522459875806701,0.5,0.5,0.36736257804415,0.5,0.659392513195971,0.5,0.5,0.5,0.5,0.854296614295294,0.477540124193299,0.522459875806701,0.5,0.522459875806701,0.126811560094322,0.465457601113532,-0.5,-0.13263742195585,0.5,0.2652748439117,0.672199209185919,1.13670581964471,2.7399134554101,0.5,75.3762663817309
CBC_1090,CBC_1090_MSI_AV_v3_Vset4_Aset1_2024-03-10_11h41.57.568.csv,2,21,1,3,z,0,1,1,aud,D,27,0,1D,3D,1,0,z,3.21635040000183,0,1,1,0,3D,1D,D13,3.58351893845611,0.892948057195516,0.5,0.5,0.5,0.36736257804415,0.522459875806701,0.5,0.5,0.36736257804415,0.5,0.659392513195971,0.5,0.5,0.5,0.5,0.854296614295294,0.854296614295294,0.145703385704706,0.854296614295294,0.5,0.103793275857164,0.90086566044072,-0.854296614295294,-0.226623401011478,0.5,0.2652748439117,0.672199209185919,1.13670581964471,2.7399134554101,0.5,75.3762663817309
CBC_1090,CBC_1090_MSI_AV_v3_Vset4_Aset1_2024-03-10_11h41.57.568.csv,2,22,3,2,z,0,1,2,aud,C,63,1,3C,2C,0,1,z,1.87089540000125,0,1,1,1,2C,3C,C32,2.51230562397611,0.892948057195516,0.5,0.5,0.5,0.36736257804415,0.522459875806701,0.5,0.5,0.36736257804415,0.5,0.659392513195971,0.5,0.5,0.5,0.5,0.627673213283816,0.659392513195971,0.340607486804029,0.659392513195971,0.5,0.287173657511368,0.729185319945697,0.340607486804029,0.0903545978970952,0.5,0.2652748439117,0.672199209185919,1.13670581964471,2.7399134554101,0.5,75.3762663817309
CBC_1090,CBC_1090_MSI_AV_v3_Vset4_Aset1_2024-03-10_11h41.57.568.csv,2,23,0,1,b,1,0,3,aud,A,63,0,0A,1A,0,1,b,2.40876670000216,1,0,1,0,0A,1A,A01,2.53897387105828,0.892948057195516,0.5,0.5,0.5,0.36736257804415,0.522459875806701,0.5,0.5,0.36736257804415,0.5,0.749747111093066,0.5,0.5,0.5,0.5,0.627673213283816,0.892948057195516,0.107051942804484,0.892948057195516,0.5,0.227228827729962,0.920075331693404,-0.892948057195516,-0.236876656493796,0.5,0.2652748439117,0.672199209185919,1.13670581964471,2.7399134554101,0.5,75.3762663817309
CBC_1090,CBC_1090_MSI_AV_v3_Vset4_Aset1_2024-03-10_11h41.57.568.csv,2,24,2,3,z,0,1,1,aud,D,63,1,2D,3D,0,1,z,1.34578549999969,0,1,1,1,3D,2D,D23,2.9704144655697,0.65607140070172,0.5,0.5,0.5,0.36736257804415,0.522459875806701,0.5,0.5,0.36736257804415,0.5,0.749747111093066,0.5,0.5,0.5,0.5,0.627673213283816,0.627673213283816,0.372326786716184,0.627673213283816,0.5,0.355608741723345,0.689678917974976,0.372326786716184,0.0987689302302803,0.5,0.2652748439117,0.672199209185919,1.13670581964471,2.7399134554101,0.5,75.3762663817309
CBC_1090,CBC_1090_MSI_AV_v3_Vset4_Aset1_2024-03-10_11h41.57.568.csv,2,25,2,0,b,1,0,2,aud,C,27,1,2C,0C,1,0,z,3.49305760000243,0,1,0,0,0C,2C,C20,3.68887945411394,0.65607140070172,0.5,0.5,0.5,0.36736257804415,0.522459875806701,0.5,0.5,0.36736257804415,0.5,0.749747111093066,0.5,0.5,0.5,0.5,0.726442143514097,0.162354582706374,0.837645417293626,0.36736257804415,0.749747111093066,0.010010840920248,0.109087096860388,-0.36736257804415,-0.0974520505496615,0.5,0.2652748439117,0.672199209185919,1.13670581964471,2.7399134554101,0.5,75.3762663817309
CBC_1090,CBC_1090_MSI_AV_v3_Vset4_Aset1_2024-03-10_11h41.57.568.csv,2,26,0,1,b,1,0,3,aud,A,63,1,0A,1A,1,0,b,2.79530590000104,1,0,1,1,0A,1A,A01,2.32727770558442,0.65607140070172,0.5,0.5,0.5,0.36736257804415,0.522459875806701,0.5,0.5,0.269910527494489,0.5,0.749747111093066,0.5,0.5,0.5,0.5,0.726442143514097,0.65607140070172,0.34392859929828,0.65607140070172,0.5,0.14746011148204,0.725684460269089,0.34392859929828,0.0912356054956207,0.5,0.2652748439117,0.672199209185919,1.13670581964471,2.7399134554101,0.5,75.3762663817309
CBC_1090,CBC_1090_MSI_AV_v3_Vset4_Aset1_2024-03-10_11h41.57.568.csv,2,27,1,3,b,1,0,0,aud,B,27,1,1B,3B,1,0,b,2.50068680000186,1,0,1,1,1B,3B,B13,3.04452243772342,0.747307006197341,0.5,0.5,0.5,0.36736257804415,0.522459875806701,0.5,0.5,0.269910527494489,0.5,0.749747111093066,0.5,0.5,0.5,0.5,0.726442143514097,0.522459875806701,0.477540124193299,0.522459875806701,0.5,0.134359756728348,0.534105299767207,0.477540124193299,0.126679381906951,0.5,0.2652748439117,0.672199209185919,1.13670581964471,2.7399134554101,0.5,75.3762663817309
CBC_1090,CBC_1090_MSI_AV_v3_Vset4_Aset1_2024-03-10_11h41.57.568.csv,2,28,3,2,z,0,1,2,aud,C,63,1,3C,2C,0,1,z,3.15035979999993,0,1,1,1,2C,3C,C32,2.37490575457367,0.747307006197341,0.5,0.5,0.5,0.36736257804415,0.649139257713652,0.5,0.5,0.269910527494489,0.5,0.749747111093066,0.5,0.5,0.5,0.5,0.726442143514097,0.749747111093066,0.250252888906934,0.749747111093066,0.5,0.119816127555501,0.82611798453885,0.250252888906934,0.0663857960432389,0.5,0.2652748439117,0.672199209185919,1.13670581964471,2.7399134554101,0.5,75.3762663817309
CBC_1090,CBC_1090_MSI_AV_v3_Vset4_Aset1_2024-03-10_11h41.57.568.csv,2,29,3,2,b,1,0,1,aud,D,63,0,3D,2D,0,1,b,1.1881695000011,1,0,1,0,3D,2D,D32,2.68557734525015,0.747307006197341,0.5,0.5,0.5,0.36736257804415,0.649139257713652,0.5,0.5,0.269910527494489,0.5,0.816132907136305,0.5,0.5,0.5,0.5,0.726442143514097,0.726442143514097,0.273557856485903,0.726442143514097,0.5,0.453211326663259,0.804632823103921,-0.726442143514097,-0.192706826231583,0.5,0.2652748439117,0.672199209185919,1.13670581964471,2.7399134554101,0.5,75.3762663817309
CBC_1090,CBC_1090_MSI_AV_v3_Vset4_Aset1_2024-03-10_11h41.57.568.csv,2,30,0,1,z,0,1,0,aud,B,63,1,0B,1B,0,1,z,2.5018041000003,0,1,1,1,1B,0B,B01,2.70805020110221,0.747307006197341,0.5,0.5,0.5,0.36736257804415,0.649139257713652,0.5,0.5,0.269910527494489,0.5,0.816132907136305,0.5,0.5,0.5,0.5,0.533735317282514,0.761115694910323,0.238884305089677,0.649139257713652,0.36736257804415,0.205304071637473,0.835521363906389,0.350860742286348,0.0930745286447539,0.5,0.2652748439117,0.672199209185919,1.13670581964471,2.7399134554101,0.5,75.3762663817309
CBC_1090,CBC_1090_MSI_AV_v3_Vset4_Aset1_2024-03-10_11h41.57.568.csv,2,31,2,0,z,0,1,3,aud,A,27,1,2A,0A,0,1,b,3.40242760000001,1,0,0,0,2A,0A,A20,3.13549421592915,0.747307006197341,0.5,0.5,0.5,0.36736257804415,0.742213786358406,0.5,0.5,0.269910527494489,0.5,0.816132907136305,0.5,0.5,0.5,0.5,0.533735317282514,0.252692993802659,0.747307006197341,0.5,0.747307006197341,0.0207993625407926,0.175750551411423,-0.5,-0.13263742195585,0.5,0.2652748439117,0.672199209185919,1.13670581964471,2.7399134554101,0.5,75.3762663817309
CBC_1090,CBC_1090_MSI_AV_v3_Vset4_Aset1_2024-03-10_11h41.57.568.csv,2,32,3,0,b,1,0,1,aud,D,9,1,3D,0D,1,0,b,1.07969120000052,1,0,1,1,3D,0D,D30,3.85014760171006,0.747307006197341,0.5,0.36736257804415,0.5,0.36736257804415,0.742213786358406,0.5,0.5,0.269910527494489,0.5,0.816132907136305,0.5,0.5,0.5,0.5,0.533735317282514,0.533735317282514,0.466264682717486,0.533735317282514,0.5,0.232803237294826,0.551821183997004,0.466264682717486,0.123688290929419,0.5,0.2652748439117,0.672199209185919,1.13670581964471,2.7399134554101,0.5,75.3762663817309
CBC_1090,CBC_1090_MSI_AV_v3_Vset4_Aset1_2024-03-10_11h41.57.568.csv,2,33,3,2,z,0,1,2,aud,C,63,1,3C,2C,0,1,z,2.46727120000105,0,1,1,1,2C,3C,C32,2.26176309847379,0.747307006197341,0.5,0.36736257804415,0.5,0.36736257804415,0.742213786358406,0.5,0.5,0.269910527494489,0.5,0.816132907136305,0.5,0.5,0.5,0.5,0.657423608211933,0.816132907136305,0.183867092863695,0.816132907136305,0.5,0.216449260561095,0.877401946522874,0.183867092863695,0.0487753143599147,0.5,0.2652748439117,0.672199209185919,1.13670581964471,2.7399134554101,0.5,75.3762663817309
CBC_1090,CBC_1090_MSI_AV_v3_Vset4_Aset1_2024-03-10_11h41.57.568.csv,2,34,0,1,z,0,1,0,aud,B,63,1,0B,1B,0,1,z,1.78015880000021,0,1,1,1,1B,0B,B01,2.50552593699074,0.747307006197341,0.5,0.36736257804415,0.5,0.36736257804415,0.742213786358406,0.5,0.5,0.269910527494489,0.5,0.86490822149622,0.5,0.5,0.5,0.5,0.657423608211933,0.832165765408895,0.167834234591105,0.742213786358406,0.36736257804415,0.411045167893311,0.888193503287975,0.257786213641594,0.0683841975863618,0.5,0.2652748439117,0.672199209185919,1.13670581964471,2.7399134554101,0.5,75.3762663817309
CBC_1090,CBC_1090_MSI_AV_v3_Vset4_Aset1_2024-03-10_11h41.57.568.csv,2,35,0,1,b,1,0,3,aud,A,63,0,0A,1A,0,1,b,2.90832790000059,1,0,1,0,0A,1A,A01,2.30258509299405,0.747307006197341,0.5,0.36736257804415,0.5,0.36736257804415,0.810597983944768,0.5,0.5,0.269910527494489,0.5,0.86490822149622,0.5,0.5,0.5,0.5,0.657423608211933,0.747307006197341,0.252692993802659,0.747307006197341,0.5,0.145979938627304,0.823424489843028,-0.747307006197341,-0.198241749423119,0.5,0.2652748439117,0.672199209185919,1.13670581964471,2.7399134554101,0.5,75.3762663817309
CBC_1090,CBC_1090_MSI_AV_v3_Vset4_Aset1_2024-03-10_11h41.57.568.csv,2,36,2,3,z,0,1,1,aud,D,63,1,2D,3D,0,1,z,0.864726199999495,0,1,1,1,3D,2D,D23,2.83321334405622,0.549065256774222,0.5,0.36736257804415,0.5,0.36736257804415,0.810597983944768,0.5,0.5,0.269910527494489,0.5,0.86490822149622,0.5,0.5,0.5,0.5,0.657423608211933,0.657423608211933,0.342576391788067,0.657423608211933,0.5,0.0797082084702959,0.727061006428303,0.342576391788067,0.0908768988594126,0.5,0.2652748439117,0.672199209185919,1.13670581964471,2.7399134554101,0.5,75.3762663817309
CBC_1090,CBC_1090_MSI_AV_v3_Vset4_Aset1_2024-03-10_11h41.57.568.csv,2,37,1,2,b,1,0,0,aud,B,9,1,1B,2B,1,0,b,2.43261730000086,1,0,1,1,1B,2B,B12,3.95124371858143,0.549065256774222,0.5,0.36736257804415,0.5,0.36736257804415,0.810597983944768,0.5,0.5,0.269910527494489,0.5,0.86490822149622,0.5,0.5,0.5,0.5,0.748300507071346,0.810597983944768,0.189402016055232,0.810597983944768,0.5,0.223100243420631,0.873786887599942,0.189402016055232,0.0502435902456129,0.5,0.2652748439117,0.672199209185919,1.13670581964471,2.7399134554101,0.5,75.3762663817309
CBC_1090,CBC_1090_MSI_AV_v3_Vset4_Aset1_2024-03-10_11h41.57.568.csv,2,38,2,0,z,0,1,3,aud,A,27,1,2A,0A,0,1,b,2.37350750000041,1,0,0,0,2A,0A,A20,2.87167962488401,0.549065256774222,0.5,0.36736257804415,0.5,0.36736257804415,0.860841574190381,0.5,0.5,0.269910527494489,0.5,0.86490822149622,0.5,0.5,0.5,0.5,0.748300507071346,0.322907319419339,0.677092680580661,0.36736257804415,0.549065256774222,0.0684994006637097,0.248753001641659,-0.36736257804415,-0.0974520505496615,0.5,0.2652748439117,0.672199209185919,1.13670581964471,2.7399134554101,0.5,75.3762663817309
CBC_1090,CBC_1090_MSI_AV_v3_Vset4_Aset1_2024-03-10_11h41.57.568.csv,2,39,2,3,b,1,0,2,aud,C,63,0,2C,3C,0,1,b,1.77585580000232,1,0,1,0,2C,3C,C23,3.29583686600433,0.549065256774222,0.5,0.269910527494489,0.5,0.36736257804415,0.860841574190381,0.5,0.5,0.269910527494489,0.5,0.86490822149622,0.5,0.5,0.5,0.5,0.748300507071346,0.86490822149622,0.13509177850378,0.86490822149622,0.5,0.42781257052392,0.906568146473596,-0.86490822149622,-0.229438393455355,0.5,0.2652748439117,0.672199209185919,1.13670581964471,2.7399134554101,0.5,75.3762663817309
CBC_1090,CBC_1090_MSI_AV_v3_Vset4_Aset1_2024-03-10_11h41.57.568.csv,2,40,1,3,z,0,1,1,aud,D,27,1,1D,3D,0,1,z,3.08415690000038,0,1,1,1,3D,1D,D13,3.31418600467253,0.549065256774222,0.5,0.269910527494489,0.5,0.36736257804415,0.860841574190381,0.5,0.5,0.269910527494489,0.5,0.635469828040864,0.5,0.5,0.5,0.5,0.748300507071346,0.748300507071346,0.251699492928654,0.748300507071346,0.5,0.126491486239742,0.824812059064465,0.251699492928654,0.0667695436993026,0.5,0.2652748439117,0.672199209185919,1.13670581964471,2.7399134554101,0.5,75.3762663817309
CBC_1090,CBC_1090_MSI_AV_v3_Vset4_Aset1_2024-03-10_11h41.57.568.csv,2,41,0,1,b,1,0,3,aud,A,63,1,0A,1A,1,0,b,2.27684800000134,1,0,1,1,0A,1A,A01,2.23359222150709,0.549065256774222,0.5,0.269910527494489,0.5,0.36736257804415,0.860841574190381,0.5,0.5,0.269910527494489,0.5,0.635469828040864,0.5,0.5,0.5,0.5,0.815070050770649,0.549065256774222,0.450934743225778,0.549065256774222,0.5,0.167864699498752,0.575345082745912,0.450934743225778,0.119621643623581,0.5,0.2652748439117,0.672199209185919,1.13670581964471,2.7399134554101,0.5,75.3762663817309
CBC_1090,CBC_1090_MSI_AV_v3_Vset4_Aset1_2024-03-10_11h41.57.568.csv,2,42,0,2,z,0,1,2,aud,C,27,1,0C,2C,0,1,z,3.67518770000061,0,1,1,1,2C,0C,C02,3.3499040872746,0.668686900397802,0.5,0.269910527494489,0.5,0.36736257804415,0.860841574190381,0.5,0.5,0.269910527494489,0.5,0.635469828040864,0.5,0.5,0.5,0.5,0.815070050770649,0.825033845062773,0.174966154937227,0.635469828040864,0.269910527494489,0.0704549139123315,0.883391924033219,0.364530171959136,0.0967006844675648,0.5,0.2652748439117,0.672199209185919,1.13670581964471,2.7399134554101,0.5,75.3762663817309
CBC_1090,CBC_1090_MSI_AV_v3_Vset4_Aset1_2024-03-10_11h41.57.568.csv,2,43,3,2,b,1,0,1,aud,D,63,1,3D,2D,1,0,b,1.10792560000118,1,0,1,1,3D,2D,D32,2.67414864942653,0.668686900397802,0.5,0.269910527494489,0.5,0.36736257804415,0.860841574190381,0.5,0.5,0.269910527494489,0.5,0.732170512508429,0.5,0.5,0.5,0.5,0.815070050770649,0.815070050770649,0.184929949229351,0.815070050770649,0.5,0.526285354469,0.876881988293141,0.184929949229351,0.0490572634164147,0.5,0.2652748439117,0.672199209185919,1.13670581964471,2.7399134554101,0.5,75.3762663817309
CBC_1090,CBC_1090_MSI_AV_v3_Vset4_Aset1_2024-03-10_11h41.57.568.csv,2,44,1,0,b,1,0,0,aud,B,63,1,1B,0B,NaN,NaN,[],NaN,NaN,NaN,NaN,NaN,,,B10,2.97892515523761,0.668686900397802,0.5,0.269910527494489,0.5,0.36736257804415,0.860841574190381,0.5,0.5,0.269910527494489,0.5,0.732170512508429,0.5,0.5,0.5,0.5,0.864127314187063,0,0,0,0,NaN,0,0,0,0.5,0.2652748439117,0.672199209185919,1.13670581964471,2.7399134554101,0.5,75.3762663817309
