ID,filename,session,trial,visStimLeft,visStimRight,correctKey,leftCorrect,rightCorrect,secondStim,mod2Type,mod2Stim,frequency,rewardAccurate,stimPairLeft,stimPairRight,pCorrectLeft,pCorrectRight,key,reactionTime,choiceLeft,choiceRight,choiceAccurate,reward,chosenPair,otherPair,triplet,surprise,0A belief,1A belief,2A belief,3A belief,0B belief,1B belief,2B belief,3B belief,0C belief,1C belief,2C belief,3C belief,0D belief,1D belief,2D belief,3D belief,beliefPairNorm,beliefOtherPairNorm,beliefPair,beliefOtherPair,lik,corrLik,rewardPE,update2,fitCBCsimpleRW_CBCdriftDiffusionLR_startBelief,fitCBCsimpleRW_CBCdriftDiffusionLR_alpha1,fitCBCsimpleRW_CBCdriftDiffusionLR_nonDecisionTime,fitCBCsimpleRW_CBCdriftDiffusionLR_weight,fitCBCsimpleRW_CBCdriftDiffusionLR_startingBoundary,fitCBCsimpleRW_CBCdriftDiffusionLR_startingPoint,fit_CBCsimpleRW_CBCdriftDiffusionLR_NLL
CBC_1011,CBC_1011_MSI_TV_v3_Vset2_Tset3_2024-03-20_14h28.58.206.csv,1,1,1,0,b,1,0,0,tac,B,63,1,1B,0B,1,0,z,3.7255239999995,0,1,0,0,0B,1B,B10,2.77258872223978,0.5,0.5,0.5,0.5,0.5,0.5,0.5,0.5,0.5,0.5,0.5,0.5,0.5,0.5,0.5,0.5,0.5,0.5,0.5,0.5,0.0884061586659077,0.498767810963273,-0.5,-0.0263796407449363,0.5,0.0527592814898725,1.08550349644304,6.05711754072926,3.59841540022683,0.5,75.0242154107523
CBC_1011,CBC_1011_MSI_TV_v3_Vset2_Tset3_2024-03-20_14h28.58.206.csv,1,2,0,1,b,1,0,2,tac,A,63,1,0A,1A,1,0,z,4.84421179999936,0,1,0,0,1A,0A,A01,2.83321334405622,0.5,0.5,0.5,0.5,0.473620359255064,0.5,0.5,0.5,0.5,0.5,0.5,0.5,0.5,0.5,0.5,0.5,0.5,0.5,0.5,0.5,0.0579578680217738,0.500360538967966,-0.5,-0.0263796407449363,0.5,0.0527592814898725,1.08550349644304,6.05711754072926,3.59841540022683,0.5,75.0242154107523
CBC_1011,CBC_1011_MSI_TV_v3_Vset2_Tset3_2024-03-20_14h28.58.206.csv,1,3,1,2,z,0,1,1,tac,C,9,1,1C,2C,NaN,NaN,None,NaN,NaN,NaN,NaN,NaN,,,C12,2.89037175789616,0.5,0.473620359255064,0.5,0.5,0.473620359255064,0.5,0.5,0.5,0.5,0.5,0.5,0.5,0.5,0.5,0.5,0.5,0,0,0,0,NaN,0,0,0,0.5,0.0527592814898725,1.08550349644304,6.05711754072926,3.59841540022683,0.5,75.0242154107523
CBC_1011,CBC_1011_MSI_TV_v3_Vset2_Tset3_2024-03-20_14h28.58.206.csv,1,4,1,0,z,0,1,2,tac,A,63,1,1A,0A,0,1,b,3.60578889999942,1,0,0,0,1A,0A,A10,2.94443897916644,0.5,0.473620359255064,0.5,0.5,0.473620359255064,0.5,0.5,0.5,0.5,0.5,0.5,0.5,0.5,0.5,0.5,0.5,0.486452809611993,0.513547190388007,0.473620359255064,0.5,0.0665279101601084,0.355472506038254,-0.473620359255064,-0.0249878698532725,0.5,0.0527592814898725,1.08550349644304,6.05711754072926,3.59841540022683,0.5,75.0242154107523
CBC_1011,CBC_1011_MSI_TV_v3_Vset2_Tset3_2024-03-20_14h28.58.206.csv,1,5,3,1,b,1,0,3,tac,D,27,1,3D,1D,1,0,b,3.0253933999993,1,0,1,1,3D,1D,D31,2.99573227355399,0.5,0.448632489401791,0.5,0.5,0.473620359255064,0.5,0.5,0.5,0.5,0.5,0.5,0.5,0.5,0.5,0.5,0.5,0.5,0.5,0.5,0.5,0.115218923778002,0.501388828761039,0.5,0.0263796407449363,0.5,0.0527592814898725,1.08550349644304,6.05711754072926,3.59841540022683,0.5,75.0242154107523
CBC_1011,CBC_1011_MSI_TV_v3_Vset2_Tset3_2024-03-20_14h28.58.206.csv,1,6,0,1,z,0,1,0,tac,B,63,1,0B,1B,0,1,z,4.16211500000009,0,1,1,1,1B,0B,B01,3.04452243772342,0.5,0.448632489401791,0.5,0.5,0.473620359255064,0.5,0.5,0.5,0.5,0.5,0.5,0.5,0.5,0.5,0.5,0.526379640744936,0.513547190388007,0.486452809611993,0.5,0.473620359255064,0.0969703351154755,0.644663375224236,0.5,0.0263796407449363,0.5,0.0527592814898725,1.08550349644304,6.05711754072926,3.59841540022683,0.5,75.0242154107523
CBC_1011,CBC_1011_MSI_TV_v3_Vset2_Tset3_2024-03-20_14h28.58.206.csv,1,7,2,3,b,1,0,1,tac,C,63,1,2C,3C,1,0,b,3.21390640000027,1,0,1,1,2C,3C,C23,3.09104245335832,0.5,0.448632489401791,0.5,0.5,0.473620359255064,0.526379640744936,0.5,0.5,0.5,0.5,0.5,0.5,0.5,0.5,0.5,0.526379640744936,0.5,0.5,0.5,0.5,0.107323386853144,0.500033986205571,0.5,0.0263796407449363,0.5,0.0527592814898725,1.08550349644304,6.05711754072926,3.59841540022683,0.5,75.0242154107523
CBC_1011,CBC_1011_MSI_TV_v3_Vset2_Tset3_2024-03-20_14h28.58.206.csv,1,8,2,0,z,0,1,2,tac,A,27,1,2A,0A,0,1,z,2.69831859999977,0,1,1,1,0A,2A,A20,3.13549421592915,0.5,0.448632489401791,0.5,0.5,0.473620359255064,0.526379640744936,0.5,0.5,0.5,0.5,0.526379640744936,0.5,0.5,0.5,0.5,0.526379640744936,0.5,0.5,0.5,0.5,0.128694211974644,0.501399513053927,0.5,0.0263796407449363,0.5,0.0527592814898725,1.08550349644304,6.05711754072926,3.59841540022683,0.5,75.0242154107523
CBC_1011,CBC_1011_MSI_TV_v3_Vset2_Tset3_2024-03-20_14h28.58.206.csv,1,9,3,2,b,1,0,3,tac,D,63,1,3D,2D,1,0,b,2.85864680000032,1,0,1,1,3D,2D,D32,3.17805383034795,0.526379640744936,0.448632489401791,0.5,0.5,0.473620359255064,0.526379640744936,0.5,0.5,0.5,0.5,0.526379640744936,0.5,0.5,0.5,0.5,0.526379640744936,0.5128508203484,0.4871491796516,0.526379640744936,0.5,0.157594607731756,0.636078852390348,0.473620359255064,0.0249878698532725,0.5,0.0527592814898725,1.08550349644304,6.05711754072926,3.59841540022683,0.5,75.0242154107523
CBC_1011,CBC_1011_MSI_TV_v3_Vset2_Tset3_2024-03-20_14h28.58.206.csv,1,10,3,1,z,0,1,0,tac,B,27,1,3B,1B,0,1,z,3.73511589999998,0,1,1,1,1B,3B,B31,3.2188758248682,0.526379640744936,0.448632489401791,0.5,0.5,0.473620359255064,0.526379640744936,0.5,0.5,0.5,0.5,0.526379640744936,0.5,0.5,0.5,0.5,0.551367510598209,0.5128508203484,0.4871491796516,0.526379640744936,0.5,0.112973496707814,0.635527237520884,0.473620359255064,0.0249878698532725,0.5,0.0527592814898725,1.08550349644304,6.05711754072926,3.59841540022683,0.5,75.0242154107523
CBC_1011,CBC_1011_MSI_TV_v3_Vset2_Tset3_2024-03-20_14h28.58.206.csv,1,11,3,2,z,0,1,1,tac,C,63,0,3C,2C,1,0,z,3.14303139999993,0,1,1,0,2C,3C,C32,3.25809653802148,0.526379640744936,0.448632489401791,0.5,0.5,0.473620359255064,0.551367510598209,0.5,0.5,0.5,0.5,0.526379640744936,0.5,0.5,0.5,0.5,0.551367510598209,0.5128508203484,0.4871491796516,0.526379640744936,0.5,0.142315513253059,0.637171999637189,-0.526379640744936,-0.0277714116366001,0.5,0.0527592814898725,1.08550349644304,6.05711754072926,3.59841540022683,0.5,75.0242154107523
CBC_1011,CBC_1011_MSI_TV_v3_Vset2_Tset3_2024-03-20_14h28.58.206.csv,1,12,1,3,b,1,0,0,tac,B,27,1,1B,3B,1,0,b,3.02031050000005,1,0,1,1,1B,3B,B13,3.29583686600433,0.526379640744936,0.448632489401791,0.5,0.5,0.473620359255064,0.551367510598209,0.5,0.5,0.5,0.5,0.498608229108336,0.5,0.5,0.5,0.5,0.551367510598209,0.524428903347499,0.475571096652501,0.551367510598209,0.5,0.180061223239063,0.743459137183165,0.448632489401791,0.0236695277938514,0.5,0.0527592814898725,1.08550349644304,6.05711754072926,3.59841540022683,0.5,75.0242154107523
CBC_1011,CBC_1011_MSI_TV_v3_Vset2_Tset3_2024-03-20_14h28.58.206.csv,1,13,3,2,z,0,1,1,tac,C,63,1,3C,2C,0,1,z,3.32474459999958,0,1,1,1,2C,3C,C32,2.63905732961526,0.526379640744936,0.448632489401791,0.5,0.5,0.473620359255064,0.57503703839206,0.5,0.5,0.5,0.5,0.498608229108336,0.5,0.5,0.5,0.5,0.551367510598209,0.499303144691234,0.500696855308766,0.498608229108336,0.5,0.101703350923269,0.493633563094404,0.501391770891664,0.026453069577179,0.5,0.0527592814898725,1.08550349644304,6.05711754072926,3.59841540022683,0.5,75.0242154107523
CBC_1011,CBC_1011_MSI_TV_v3_Vset2_Tset3_2024-03-20_14h28.58.206.csv,1,14,3,2,b,1,0,3,tac,D,63,1,3D,2D,1,0,b,2.75640279999971,1,0,1,1,3D,2D,D32,2.67414864942653,0.526379640744936,0.448632489401791,0.5,0.5,0.473620359255064,0.57503703839206,0.5,0.5,0.5,0.5,0.525061298685515,0.5,0.5,0.5,0.5,0.551367510598209,0.524428903347499,0.475571096652501,0.551367510598209,0.5,0.199069171001369,0.742693497028463,0.448632489401791,0.0236695277938514,0.5,0.0527592814898725,1.08550349644304,6.05711754072926,3.59841540022683,0.5,75.0242154107523
CBC_1011,CBC_1011_MSI_TV_v3_Vset2_Tset3_2024-03-20_14h28.58.206.csv,1,15,0,3,b,1,0,2,tac,A,9,1,0A,3A,1,0,b,3.07090650000009,1,0,1,1,0A,3A,A03,3.40119738166216,0.526379640744936,0.448632489401791,0.5,0.5,0.473620359255064,0.57503703839206,0.5,0.5,0.5,0.5,0.525061298685515,0.5,0.5,0.5,0.5,0.57503703839206,0.5128508203484,0.4871491796516,0.526379640744936,0.5,0.145832822737557,0.635744317965263,0.473620359255064,0.0249878698532725,0.5,0.0527592814898725,1.08550349644304,6.05711754072926,3.59841540022683,0.5,75.0242154107523
CBC_1011,CBC_1011_MSI_TV_v3_Vset2_Tset3_2024-03-20_14h28.58.206.csv,1,16,0,1,z,0,1,0,tac,B,63,0,0B,1B,NaN,NaN,None,NaN,NaN,NaN,NaN,NaN,,,B01,2.7408400239252,0.551367510598209,0.448632489401791,0.5,0.5,0.473620359255064,0.57503703839206,0.5,0.5,0.5,0.5,0.525061298685515,0.5,0.5,0.5,0.5,0.57503703839206,0,0,0,0,NaN,0,0,0,0.5,0.0527592814898725,1.08550349644304,6.05711754072926,3.59841540022683,0.5,75.0242154107523
CBC_1011,CBC_1011_MSI_TV_v3_Vset2_Tset3_2024-03-20_14h28.58.206.csv,1,17,2,3,z,0,1,3,tac,D,63,1,2D,3D,0,1,z,2.78667150000001,0,1,1,1,3D,2D,D23,3.46573590279973,0.551367510598209,0.448632489401791,0.5,0.5,0.473620359255064,0.57503703839206,0.5,0.5,0.5,0.5,0.525061298685515,0.5,0.5,0.5,0.5,0.57503703839206,0.534899745642389,0.465100254357611,0.57503703839206,0.5,0.2288635542551,0.819870273399871,0.42496296160794,0.0224207405142432,0.5,0.0527592814898725,1.08550349644304,6.05711754072926,3.59841540022683,0.5,75.0242154107523
CBC_1011,CBC_1011_MSI_TV_v3_Vset2_Tset3_2024-03-20_14h28.58.206.csv,1,18,0,2,z,0,1,1,tac,C,27,1,0C,2C,0,1,z,2.75445510000009,0,1,1,1,2C,0C,C02,3.49650756146648,0.551367510598209,0.448632489401791,0.5,0.5,0.473620359255064,0.57503703839206,0.5,0.5,0.5,0.5,0.525061298685515,0.5,0.5,0.5,0.5,0.597457778906303,0.512224292692375,0.487775707307625,0.525061298685515,0.5,0.161227429300269,0.629021721152005,0.474938701314485,0.0250574246330854,0.5,0.0527592814898725,1.08550349644304,6.05711754072926,3.59841540022683,0.5,75.0242154107523
CBC_1011,CBC_1011_MSI_TV_v3_Vset2_Tset3_2024-03-20_14h28.58.206.csv,1,19,0,1,b,1,0,2,tac,A,63,1,0A,1A,1,0,b,2.91395170000033,1,0,1,1,0A,1A,A01,2.83321334405622,0.551367510598209,0.448632489401791,0.5,0.5,0.473620359255064,0.57503703839206,0.5,0.5,0.5,0.5,0.5501187233186,0.5,0.5,0.5,0.5,0.597457778906303,0.551367510598209,0.448632489401791,0.551367510598209,0.448632489401791,0.256699369745769,0.903286732023085,0.448632489401791,0.0236695277938514,0.5,0.0527592814898725,1.08550349644304,6.05711754072926,3.59841540022683,0.5,75.0242154107523
CBC_1011,CBC_1011_MSI_TV_v3_Vset2_Tset3_2024-03-20_14h28.58.206.csv,1,20,1,0,b,1,0,0,tac,B,63,1,1B,0B,1,0,z,4.00519309999981,0,1,0,0,0B,1B,B10,2.86220088092947,0.57503703839206,0.448632489401791,0.5,0.5,0.473620359255064,0.57503703839206,0.5,0.5,0.5,0.5,0.5501187233186,0.5,0.5,0.5,0.5,0.597457778906303,0.451644512609864,0.548355487390136,0.473620359255064,0.57503703839206,0.0168609486651929,0.108481384028246,-0.473620359255064,-0.0249878698532725,0.5,0.0527592814898725,1.08550349644304,6.05711754072926,3.59841540022683,0.5,75.0242154107523
CBC_1011,CBC_1011_MSI_TV_v3_Vset2_Tset3_2024-03-20_14h28.58.206.csv,1,21,1,3,z,0,1,3,tac,D,27,1,1D,3D,NaN,NaN,None,NaN,NaN,NaN,NaN,NaN,,,D13,3.58351893845611,0.57503703839206,0.448632489401791,0.5,0.5,0.448632489401791,0.57503703839206,0.5,0.5,0.5,0.5,0.5501187233186,0.5,0.5,0.5,0.5,0.597457778906303,0,0,0,0,NaN,0,0,0,0.5,0.0527592814898725,1.08550349644304,6.05711754072926,3.59841540022683,0.5,75.0242154107523
CBC_1011,CBC_1011_MSI_TV_v3_Vset2_Tset3_2024-03-20_14h28.58.206.csv,1,22,3,2,z,0,1,1,tac,C,63,1,3C,2C,0,1,z,4.31981179999912,0,1,1,1,2C,3C,C32,2.51230562397611,0.57503703839206,0.448632489401791,0.5,0.5,0.448632489401791,0.57503703839206,0.5,0.5,0.5,0.5,0.5501187233186,0.5,0.5,0.5,0.5,0.597457778906303,0.523863360497094,0.476136639502906,0.5501187233186,0.5,0.103975118934649,0.739259667610133,0.4498812766814,0.0237354129134572,0.5,0.0527592814898725,1.08550349644304,6.05711754072926,3.59841540022683,0.5,75.0242154107523
CBC_1011,CBC_1011_MSI_TV_v3_Vset2_Tset3_2024-03-20_14h28.58.206.csv,1,23,0,1,b,1,0,2,tac,A,63,1,0A,1A,1,0,b,2.68182059999981,1,0,1,1,0A,1A,A01,2.53897387105828,0.57503703839206,0.448632489401791,0.5,0.5,0.448632489401791,0.57503703839206,0.5,0.5,0.5,0.5,0.573854136232058,0.5,0.5,0.5,0.5,0.597457778906303,0.561740896626418,0.438259103373582,0.57503703839206,0.448632489401791,0.316841417928581,0.936316446230734,0.42496296160794,0.0224207405142432,0.5,0.0527592814898725,1.08550349644304,6.05711754072926,3.59841540022683,0.5,75.0242154107523
CBC_1011,CBC_1011_MSI_TV_v3_Vset2_Tset3_2024-03-20_14h28.58.206.csv,1,24,2,3,z,0,1,3,tac,D,63,1,2D,3D,0,1,z,2.91414929999974,0,1,1,1,3D,2D,D23,2.9704144655697,0.597457778906303,0.448632489401791,0.5,0.5,0.448632489401791,0.57503703839206,0.5,0.5,0.5,0.5,0.573854136232058,0.5,0.5,0.5,0.5,0.597457778906303,0.54440160741465,0.45559839258535,0.597457778906303,0.5,0.241407228978605,0.873908678545984,0.402542221093697,0.0212378383542408,0.5,0.0527592814898725,1.08550349644304,6.05711754072926,3.59841540022683,0.5,75.0242154107523
CBC_1011,CBC_1011_MSI_TV_v3_Vset2_Tset3_2024-03-20_14h28.58.206.csv,1,25,2,0,b,1,0,1,tac,C,27,1,2C,0C,1,0,z,2.67814730000009,0,1,0,0,0C,2C,C20,3.68887945411394,0.597457778906303,0.448632489401791,0.5,0.5,0.448632489401791,0.57503703839206,0.5,0.5,0.5,0.5,0.573854136232058,0.5,0.5,0.5,0.5,0.618695617260544,0.465612584735578,0.534387415264422,0.5,0.573854136232058,0.0533563123569931,0.18339981462503,-0.5,-0.0263796407449363,0.5,0.0527592814898725,1.08550349644304,6.05711754072926,3.59841540022683,0.5,75.0242154107523
CBC_1011,CBC_1011_MSI_TV_v3_Vset2_Tset3_2024-03-20_14h28.58.206.csv,1,26,0,1,b,1,0,2,tac,A,63,1,0A,1A,1,0,b,2.65666039999996,1,0,1,1,0A,1A,A01,2.32727770558442,0.597457778906303,0.448632489401791,0.5,0.5,0.448632489401791,0.57503703839206,0.5,0.5,0.473620359255064,0.5,0.573854136232058,0.5,0.5,0.5,0.5,0.618695617260544,0.571134056980195,0.428865943019805,0.597457778906303,0.448632489401791,0.341823989755966,0.956843152528724,0.402542221093697,0.0212378383542408,0.5,0.0527592814898725,1.08550349644304,6.05711754072926,3.59841540022683,0.5,75.0242154107523
CBC_1011,CBC_1011_MSI_TV_v3_Vset2_Tset3_2024-03-20_14h28.58.206.csv,1,27,1,3,b,1,0,0,tac,B,27,1,1B,3B,1,0,b,2.79285509999954,1,0,1,1,1B,3B,B13,3.04452243772342,0.618695617260544,0.448632489401791,0.5,0.5,0.448632489401791,0.57503703839206,0.5,0.5,0.473620359255064,0.5,0.573854136232058,0.5,0.5,0.5,0.5,0.618695617260544,0.534899745642389,0.465100254357611,0.57503703839206,0.5,0.229033610141893,0.821506407909199,0.42496296160794,0.0224207405142432,0.5,0.0527592814898725,1.08550349644304,6.05711754072926,3.59841540022683,0.5,75.0242154107523
CBC_1011,CBC_1011_MSI_TV_v3_Vset2_Tset3_2024-03-20_14h28.58.206.csv,1,28,3,2,z,0,1,1,tac,C,63,1,3C,2C,0,1,z,2.96847539999908,0,1,1,1,2C,3C,C32,2.37490575457367,0.618695617260544,0.448632489401791,0.5,0.5,0.448632489401791,0.597457778906303,0.5,0.5,0.473620359255064,0.5,0.573854136232058,0.5,0.5,0.5,0.5,0.618695617260544,0.534387415264422,0.465612584735578,0.573854136232058,0.5,0.210709088205676,0.817507313121418,0.426145863767942,0.0224831495822777,0.5,0.0527592814898725,1.08550349644304,6.05711754072926,3.59841540022683,0.5,75.0242154107523
CBC_1011,CBC_1011_MSI_TV_v3_Vset2_Tset3_2024-03-20_14h28.58.206.csv,1,29,3,2,b,1,0,3,tac,D,63,0,3D,2D,0,1,b,2.82429609999963,1,0,1,0,3D,2D,D32,2.68557734525015,0.618695617260544,0.448632489401791,0.5,0.5,0.448632489401791,0.597457778906303,0.5,0.5,0.473620359255064,0.5,0.596337285814335,0.5,0.5,0.5,0.5,0.618695617260544,0.553050899381909,0.446949100618091,0.618695617260544,0.5,0.273279782449472,0.90970569381353,-0.618695617260544,-0.0326419362275995,0.5,0.0527592814898725,1.08550349644304,6.05711754072926,3.59841540022683,0.5,75.0242154107523
CBC_1011,CBC_1011_MSI_TV_v3_Vset2_Tset3_2024-03-20_14h28.58.206.csv,1,30,0,1,z,0,1,0,tac,B,63,1,0B,1B,0,1,z,2.57573090000005,0,1,1,1,1B,0B,B01,2.70805020110221,0.618695617260544,0.448632489401791,0.5,0.5,0.448632489401791,0.597457778906303,0.5,0.5,0.473620359255064,0.5,0.596337285814335,0.5,0.5,0.5,0.5,0.586053681032945,0.571134056980195,0.428865943019805,0.597457778906303,0.448632489401791,0.36083848637578,0.956976012717867,0.402542221093697,0.0212378383542408,0.5,0.0527592814898725,1.08550349644304,6.05711754072926,3.59841540022683,0.5,75.0242154107523
CBC_1011,CBC_1011_MSI_TV_v3_Vset2_Tset3_2024-03-20_14h28.58.206.csv,1,31,2,0,z,0,1,2,tac,A,27,1,2A,0A,0,1,z,3.00489449999986,0,1,1,1,0A,2A,A20,3.13549421592915,0.618695617260544,0.448632489401791,0.5,0.5,0.448632489401791,0.618695617260544,0.5,0.5,0.473620359255064,0.5,0.596337285814335,0.5,0.5,0.5,0.5,0.586053681032945,0.553050899381909,0.446949100618091,0.618695617260544,0.5,0.24750442276173,0.910000977534213,0.381304382739456,0.020117345262273,0.5,0.0527592814898725,1.08550349644304,6.05711754072926,3.59841540022683,0.5,75.0242154107523
CBC_1011,CBC_1011_MSI_TV_v3_Vset2_Tset3_2024-03-20_14h28.58.206.csv,1,32,3,0,b,1,0,3,tac,D,9,1,3D,0D,1,0,b,2.70472299999983,1,0,1,1,3D,0D,D30,3.85014760171006,0.638812962522817,0.448632489401791,0.5,0.5,0.448632489401791,0.618695617260544,0.5,0.5,0.473620359255064,0.5,0.596337285814335,0.5,0.5,0.5,0.5,0.586053681032945,0.539617600186714,0.460382399813286,0.586053681032945,0.5,0.252286981288474,0.849440770243628,0.413946318967055,0.0218395103640794,0.5,0.0527592814898725,1.08550349644304,6.05711754072926,3.59841540022683,0.5,75.0242154107523
CBC_1011,CBC_1011_MSI_TV_v3_Vset2_Tset3_2024-03-20_14h28.58.206.csv,1,33,3,2,z,0,1,1,tac,C,63,1,3C,2C,0,1,z,3.56000099999983,0,1,1,1,2C,3C,C32,2.26176309847379,0.638812962522817,0.448632489401791,0.5,0.5,0.448632489401791,0.618695617260544,0.5,0.5,0.473620359255064,0.5,0.596337285814335,0.5,0.5,0.5,0.5,0.607893191397024,0.543935970736769,0.456064029263231,0.596337285814335,0.5,0.173361534144716,0.872774030466154,0.403662714185665,0.0212969547646874,0.5,0.0527592814898725,1.08550349644304,6.05711754072926,3.59841540022683,0.5,75.0242154107523
CBC_1011,CBC_1011_MSI_TV_v3_Vset2_Tset3_2024-03-20_14h28.58.206.csv,1,34,0,1,z,0,1,0,tac,B,63,1,0B,1B,0,1,z,2.68716589999985,0,1,1,1,1B,0B,B01,2.50552593699074,0.638812962522817,0.448632489401791,0.5,0.5,0.448632489401791,0.618695617260544,0.5,0.5,0.473620359255064,0.5,0.617634240579023,0.5,0.5,0.5,0.5,0.607893191397024,0.57966768925001,0.42033231074999,0.618695617260544,0.448632489401791,0.346550163912314,0.96965900469329,0.381304382739456,0.020117345262273,0.5,0.0527592814898725,1.08550349644304,6.05711754072926,3.59841540022683,0.5,75.0242154107523
CBC_1011,CBC_1011_MSI_TV_v3_Vset2_Tset3_2024-03-20_14h28.58.206.csv,1,35,0,1,b,1,0,2,tac,A,63,0,0A,1A,0,1,b,3.36097419999987,1,0,1,0,0A,1A,A01,2.30258509299405,0.638812962522817,0.448632489401791,0.5,0.5,0.448632489401791,0.638812962522817,0.5,0.5,0.473620359255064,0.5,0.617634240579023,0.5,0.5,0.5,0.5,0.607893191397024,0.587443684087527,0.412556315912474,0.638812962522817,0.448632489401791,0.190578286173096,0.97843815884054,-0.638812962522817,-0.0337033129091207,0.5,0.0527592814898725,1.08550349644304,6.05711754072926,3.59841540022683,0.5,75.0242154107523
CBC_1011,CBC_1011_MSI_TV_v3_Vset2_Tset3_2024-03-20_14h28.58.206.csv,1,36,2,3,z,0,1,3,tac,D,63,1,2D,3D,0,1,z,2.73894469999959,0,1,1,1,3D,2D,D23,2.83321334405622,0.605109649613697,0.448632489401791,0.5,0.5,0.448632489401791,0.638812962522817,0.5,0.5,0.473620359255064,0.5,0.617634240579023,0.5,0.5,0.5,0.5,0.607893191397024,0.548692957152744,0.451307042847256,0.607893191397024,0.5,0.274586519675778,0.893018368672491,0.392106808602976,0.02068727348918,0.5,0.0527592814898725,1.08550349644304,6.05711754072926,3.59841540022683,0.5,75.0242154107523
CBC_1011,CBC_1011_MSI_TV_v3_Vset2_Tset3_2024-03-20_14h28.58.206.csv,1,37,1,2,b,1,0,0,tac,B,9,1,1B,2B,1,0,b,3.02007570000023,1,0,1,1,1B,2B,B12,3.95124371858143,0.605109649613697,0.448632489401791,0.5,0.5,0.448632489401791,0.638812962522817,0.5,0.5,0.473620359255064,0.5,0.617634240579023,0.5,0.5,0.5,0.5,0.628580464886204,0.560946339342373,0.439053660657627,0.638812962522817,0.5,0.25644025309318,0.934330578722216,0.361187037477183,0.0190559685807518,0.5,0.0527592814898725,1.08550349644304,6.05711754072926,3.59841540022683,0.5,75.0242154107523
CBC_1011,CBC_1011_MSI_TV_v3_Vset2_Tset3_2024-03-20_14h28.58.206.csv,1,38,2,0,z,0,1,2,tac,A,27,1,2A,0A,0,1,z,3.72697179999977,0,1,1,1,0A,2A,A20,2.87167962488401,0.605109649613697,0.448632489401791,0.5,0.5,0.448632489401791,0.657868931103569,0.5,0.5,0.473620359255064,0.5,0.617634240579023,0.5,0.5,0.5,0.5,0.628580464886204,0.547556208404496,0.452443791595504,0.605109649613697,0.5,0.161138616026531,0.888540395073164,0.394890350386303,0.0208341311536654,0.5,0.0527592814898725,1.08550349644304,6.05711754072926,3.59841540022683,0.5,75.0242154107523
CBC_1011,CBC_1011_MSI_TV_v3_Vset2_Tset3_2024-03-20_14h28.58.206.csv,1,39,2,3,b,1,0,1,tac,C,63,1,2C,3C,1,0,z,2.67665719999968,0,1,0,0,3C,2C,C23,3.29583686600433,0.625943780767362,0.448632489401791,0.5,0.5,0.448632489401791,0.657868931103569,0.5,0.5,0.473620359255064,0.5,0.617634240579023,0.5,0.5,0.5,0.5,0.628580464886204,0.447373551960041,0.552626448039959,0.5,0.617634240579023,0.0296100220253917,0.0913107750678351,-0.5,-0.0263796407449363,0.5,0.0527592814898725,1.08550349644304,6.05711754072926,3.59841540022683,0.5,75.0242154107523
CBC_1011,CBC_1011_MSI_TV_v3_Vset2_Tset3_2024-03-20_14h28.58.206.csv,1,40,1,3,z,0,1,3,tac,D,27,1,1D,3D,0,1,z,2.49227319999954,0,1,1,1,3D,1D,D13,3.31418600467253,0.625943780767362,0.448632489401791,0.5,0.5,0.448632489401791,0.657868931103569,0.5,0.5,0.473620359255064,0.5,0.617634240579023,0.473620359255064,0.5,0.5,0.5,0.628580464886204,0.556965572631619,0.44303442736838,0.628580464886204,0.5,0.336971775420634,0.922956735153711,0.371419535113796,0.0195958278039064,0.5,0.0527592814898725,1.08550349644304,6.05711754072926,3.59841540022683,0.5,75.0242154107523
CBC_1011,CBC_1011_MSI_TV_v3_Vset2_Tset3_2024-03-20_14h28.58.206.csv,1,41,0,1,b,1,0,2,tac,A,63,1,0A,1A,1,0,b,3.2009093000006,1,0,1,1,0A,1A,A01,2.23359222150709,0.625943780767362,0.448632489401791,0.5,0.5,0.448632489401791,0.657868931103569,0.5,0.5,0.473620359255064,0.5,0.617634240579023,0.473620359255064,0.5,0.5,0.5,0.64817629269011,0.582502888016343,0.417497111983657,0.625943780767362,0.448632489401791,0.226368854683894,0.973328184808361,0.374056219232638,0.0197349373635322,0.5,0.0527592814898725,1.08550349644304,6.05711754072926,3.59841540022683,0.5,75.0242154107523
CBC_1011,CBC_1011_MSI_TV_v3_Vset2_Tset3_2024-03-20_14h28.58.206.csv,1,42,0,2,z,0,1,1,tac,C,27,1,0C,2C,0,1,b,3.91507309999997,1,0,0,0,0C,2C,C02,3.3499040872746,0.645678718130894,0.448632489401791,0.5,0.5,0.448632489401791,0.657868931103569,0.5,0.5,0.473620359255064,0.5,0.617634240579023,0.473620359255064,0.5,0.5,0.5,0.64817629269011,0.434014536412559,0.565985463587441,0.473620359255064,0.617634240579023,0.00800143689210576,0.0537471813606679,-0.473620359255064,-0.0249878698532725,0.5,0.0527592814898725,1.08550349644304,6.05711754072926,3.59841540022683,0.5,75.0242154107523
CBC_1011,CBC_1011_MSI_TV_v3_Vset2_Tset3_2024-03-20_14h28.58.206.csv,1,43,3,2,b,1,0,3,tac,D,63,1,3D,2D,1,0,b,2.53016099999968,1,0,1,1,3D,2D,D32,2.67414864942653,0.645678718130894,0.448632489401791,0.5,0.5,0.448632489401791,0.657868931103569,0.5,0.5,0.448632489401791,0.5,0.617634240579023,0.473620359255064,0.5,0.5,0.5,0.64817629269011,0.564526803781561,0.435473196218439,0.64817629269011,0.5,0.353724357932254,0.943332188396504,0.35182370730989,0.018561966008773,0.5,0.0527592814898725,1.08550349644304,6.05711754072926,3.59841540022683,0.5,75.0242154107523
CBC_1011,CBC_1011_MSI_TV_v3_Vset2_Tset3_2024-03-20_14h28.58.206.csv,1,44,1,0,b,1,0,0,tac,B,63,1,1B,0B,1,0,b,2.64302580000003,1,0,1,1,1B,0B,B10,2.97892515523761,0.645678718130894,0.448632489401791,0.5,0.5,0.448632489401791,0.657868931103569,0.5,0.5,0.448632489401791,0.5,0.617634240579023,0.473620359255064,0.5,0.5,0.5,0.666738258698883,0.594548654807065,0.405451345192935,0.657868931103569,0.448632489401791,0.368965145010682,0.984017454729497,0.342131068896431,0.0180505893703378,0.5,0.0527592814898725,1.08550349644304,6.05711754072926,3.59841540022683,0.5,75.0242154107523
CBC_1011,CBC_1011_MSI_AV_v3_Vset3_Aset2_2024-03-20_15h53.25.911.csv,2,1,1,0,z,0,1,2,aud,A,63,1,1A,0A,0,1,b,2.78924820000066,1,0,0,0,1A,0A,A10,2.77258872223978,0.5,0.5,0.5,0.5,0.5,0.5,0.5,0.5,0.5,0.5,0.5,0.5,0.5,0.5,0.5,0.5,0.5,0.5,0.5,0.5,0.102255569091855,0.500777504385215,-0.5,-0.102864371502238,0.5,0.205728743004476,1.0996147140208,4.27648452872573,4.23354715608655,0.5,60.2038948814314
CBC_1011,CBC_1011_MSI_AV_v3_Vset3_Aset2_2024-03-20_15h53.25.911.csv,2,2,2,3,b,1,0,1,aud,C,63,1,2C,3C,1,0,z,2.6160562999994,0,1,0,0,3C,2C,C23,2.83321334405622,0.5,0.397135628497762,0.5,0.5,0.5,0.5,0.5,0.5,0.5,0.5,0.5,0.5,0.5,0.5,0.5,0.5,0.5,0.5,0.5,0.5,0.103443281407758,0.501134770219753,-0.5,-0.102864371502238,0.5,0.205728743004476,1.0996147140208,4.27648452872573,4.23354715608655,0.5,60.2038948814314
CBC_1011,CBC_1011_MSI_AV_v3_Vset3_Aset2_2024-03-20_15h53.25.911.csv,2,3,2,0,z,0,1,2,aud,A,27,1,2A,0A,0,1,z,2.88848590000089,0,1,1,1,0A,2A,A20,2.89037175789616,0.5,0.397135628497762,0.5,0.5,0.5,0.5,0.5,0.5,0.5,0.5,0.5,0.397135628497762,0.5,0.5,0.5,0.5,0.5,0.5,0.5,0.5,0.100610579920858,0.498725111356595,0.5,0.102864371502238,0.5,0.205728743004476,1.0996147140208,4.27648452872573,4.23354715608655,0.5,60.2038948814314
CBC_1011,CBC_1011_MSI_AV_v3_Vset3_Aset2_2024-03-20_15h53.25.911.csv,2,4,0,1,z,0,1,0,aud,B,63,1,0B,1B,0,1,z,2.42363359999945,0,1,1,1,1B,0B,B01,2.94443897916644,0.602864371502238,0.397135628497762,0.5,0.5,0.5,0.5,0.5,0.5,0.5,0.5,0.5,0.397135628497762,0.5,0.5,0.5,0.5,0.5,0.5,0.5,0.5,0.101716352656951,0.498293087301836,0.5,0.102864371502238,0.5,0.205728743004476,1.0996147140208,4.27648452872573,4.23354715608655,0.5,60.2038948814314
CBC_1011,CBC_1011_MSI_AV_v3_Vset3_Aset2_2024-03-20_15h53.25.911.csv,2,5,1,0,b,1,0,0,aud,B,63,1,1B,0B,1,0,b,2.12877070000104,1,0,1,1,1B,0B,B10,2.99573227355399,0.602864371502238,0.397135628497762,0.5,0.5,0.5,0.602864371502238,0.5,0.5,0.5,0.5,0.5,0.397135628497762,0.5,0.5,0.5,0.5,0.546635095919421,0.453364904080579,0.602864371502238,0.5,0.1968679266301,0.844494221745769,0.397135628497762,0.0817022136531371,0.5,0.205728743004476,1.0996147140208,4.27648452872573,4.23354715608655,0.5,60.2038948814314
CBC_1011,CBC_1011_MSI_AV_v3_Vset3_Aset2_2024-03-20_15h53.25.911.csv,2,6,2,3,b,1,0,1,aud,C,63,1,2C,3C,1,0,b,3.68263400000069,1,0,1,1,2C,3C,C23,2.35137525716348,0.602864371502238,0.397135628497762,0.5,0.5,0.5,0.684566585155375,0.5,0.5,0.5,0.5,0.5,0.397135628497762,0.5,0.5,0.5,0.5,0.557329331393561,0.442670668606439,0.5,0.397135628497762,0.176141789706209,0.887972839391553,0.5,0.102864371502238,0.5,0.205728743004476,1.0996147140208,4.27648452872573,4.23354715608655,0.5,60.2038948814314
CBC_1011,CBC_1011_MSI_AV_v3_Vset3_Aset2_2024-03-20_15h53.25.911.csv,2,7,1,3,z,0,1,3,aud,D,27,1,1D,3D,0,1,z,2.69922750000114,0,1,1,1,3D,1D,D13,3.09104245335832,0.602864371502238,0.397135628497762,0.5,0.5,0.5,0.684566585155375,0.5,0.5,0.5,0.5,0.602864371502238,0.397135628497762,0.5,0.5,0.5,0.5,0.5,0.5,0.5,0.5,0.102633521183186,0.498853089863248,0.5,0.102864371502238,0.5,0.205728743004476,1.0996147140208,4.27648452872573,4.23354715608655,0.5,60.2038948814314
CBC_1011,CBC_1011_MSI_AV_v3_Vset3_Aset2_2024-03-20_15h53.25.911.csv,2,8,2,1,b,1,0,1,aud,C,9,1,2C,1C,1,0,b,2.62874470000133,1,0,1,1,2C,1C,C21,3.13549421592915,0.602864371502238,0.397135628497762,0.5,0.5,0.5,0.684566585155375,0.5,0.5,0.5,0.5,0.602864371502238,0.397135628497762,0.5,0.5,0.5,0.602864371502238,0.546635095919421,0.453364904080579,0.602864371502238,0.5,0.212397834880029,0.843774799095695,0.397135628497762,0.0817022136531371,0.5,0.205728743004476,1.0996147140208,4.27648452872573,4.23354715608655,0.5,60.2038948814314
CBC_1011,CBC_1011_MSI_AV_v3_Vset3_Aset2_2024-03-20_15h53.25.911.csv,2,9,1,3,b,1,0,0,aud,B,27,1,1B,3B,1,0,z,2.92734270000074,0,1,0,0,3B,1B,B13,3.17805383034795,0.602864371502238,0.397135628497762,0.5,0.5,0.5,0.684566585155375,0.5,0.5,0.5,0.5,0.684566585155375,0.397135628497762,0.5,0.5,0.5,0.602864371502238,0.422095310019586,0.577904689980414,0.5,0.684566585155375,0.0163486550686579,0.0563513228206733,-0.5,-0.102864371502238,0.5,0.205728743004476,1.0996147140208,4.27648452872573,4.23354715608655,0.5,60.2038948814314
CBC_1011,CBC_1011_MSI_AV_v3_Vset3_Aset2_2024-03-20_15h53.25.911.csv,2,10,2,3,z,0,1,3,aud,D,63,1,2D,3D,0,1,z,3.47028119999959,0,1,1,1,3D,2D,D23,3.2188758248682,0.602864371502238,0.397135628497762,0.5,0.5,0.5,0.684566585155375,0.5,0.397135628497762,0.5,0.5,0.684566585155375,0.397135628497762,0.5,0.5,0.5,0.602864371502238,0.546635095919421,0.453364904080579,0.602864371502238,0.5,0.172935509546158,0.843964086096767,0.397135628497762,0.0817022136531371,0.5,0.205728743004476,1.0996147140208,4.27648452872573,4.23354715608655,0.5,60.2038948814314
CBC_1011,CBC_1011_MSI_AV_v3_Vset3_Aset2_2024-03-20_15h53.25.911.csv,2,11,0,1,z,0,1,0,aud,B,63,1,0B,1B,0,1,z,2.52958080000099,0,1,1,1,1B,0B,B01,2.56494935746154,0.602864371502238,0.397135628497762,0.5,0.5,0.5,0.684566585155375,0.5,0.397135628497762,0.5,0.5,0.684566585155375,0.397135628497762,0.5,0.5,0.5,0.684566585155375,0.577904689980414,0.422095310019586,0.684566585155375,0.5,0.307749194782216,0.94394497301387,0.315433414844625,0.0648937199375941,0.5,0.205728743004476,1.0996147140208,4.27648452872573,4.23354715608655,0.5,60.2038948814314
CBC_1011,CBC_1011_MSI_AV_v3_Vset3_Aset2_2024-03-20_15h53.25.911.csv,2,12,2,0,b,1,0,1,aud,C,27,1,2C,0C,1,0,b,3.64369980000083,1,0,1,1,2C,0C,C20,3.29583686600433,0.602864371502238,0.397135628497762,0.5,0.5,0.5,0.749460305092969,0.5,0.397135628497762,0.5,0.5,0.684566585155375,0.397135628497762,0.5,0.5,0.5,0.684566585155375,0.577904689980414,0.422095310019586,0.684566585155375,0.5,0.20043818788146,0.943797190625549,0.315433414844625,0.0648937199375941,0.5,0.205728743004476,1.0996147140208,4.27648452872573,4.23354715608655,0.5,60.2038948814314
CBC_1011,CBC_1011_MSI_AV_v3_Vset3_Aset2_2024-03-20_15h53.25.911.csv,2,13,2,3,z,0,1,3,aud,D,63,0,2D,3D,1,0,z,2.76234860000113,0,1,1,0,3D,2D,D23,2.63905732961526,0.602864371502238,0.397135628497762,0.5,0.5,0.5,0.749460305092969,0.5,0.397135628497762,0.5,0.5,0.749460305092969,0.397135628497762,0.5,0.5,0.5,0.684566585155375,0.577904689980414,0.422095310019586,0.684566585155375,0.5,0.289611908157446,0.943494060219338,-0.684566585155375,-0.140835023066882,0.5,0.205728743004476,1.0996147140208,4.27648452872573,4.23354715608655,0.5,60.2038948814314
CBC_1011,CBC_1011_MSI_AV_v3_Vset3_Aset2_2024-03-20_15h53.25.911.csv,2,14,0,1,b,1,0,2,aud,A,63,1,0A,1A,1,0,b,4.00499740000123,1,0,1,1,0A,1A,A01,3.36729582998647,0.602864371502238,0.397135628497762,0.5,0.5,0.5,0.749460305092969,0.5,0.397135628497762,0.5,0.5,0.749460305092969,0.397135628497762,0.5,0.5,0.5,0.543731562088493,0.602864371502238,0.397135628497762,0.602864371502238,0.397135628497762,0.164067407340745,0.976236514036766,0.397135628497762,0.0817022136531371,0.5,0.205728743004476,1.0996147140208,4.27648452872573,4.23354715608655,0.5,60.2038948814314
CBC_1011,CBC_1011_MSI_AV_v3_Vset3_Aset2_2024-03-20_15h53.25.911.csv,2,15,3,2,z,0,1,1,aud,C,63,1,3C,2C,0,1,z,3.59817730000032,0,1,1,1,2C,3C,C32,3.40119738166216,0.684566585155375,0.397135628497762,0.5,0.5,0.5,0.749460305092969,0.5,0.397135628497762,0.5,0.5,0.749460305092969,0.397135628497762,0.5,0.5,0.5,0.543731562088493,0.65363942356391,0.34636057643609,0.749460305092969,0.397135628497762,0.162475381574154,0.996178095656069,0.250539694907031,0.0515432165059483,0.5,0.205728743004476,1.0996147140208,4.27648452872573,4.23354715608655,0.5,60.2038948814314
CBC_1011,CBC_1011_MSI_AV_v3_Vset3_Aset2_2024-03-20_15h53.25.911.csv,2,16,2,0,z,0,1,2,aud,A,27,1,2A,0A,0,1,z,3.04793810000047,0,1,1,1,0A,2A,A20,2.7408400239252,0.684566585155375,0.397135628497762,0.5,0.5,0.5,0.749460305092969,0.5,0.397135628497762,0.5,0.5,0.801003521598918,0.397135628497762,0.5,0.5,0.5,0.543731562088493,0.577904689980414,0.422095310019586,0.684566585155375,0.5,0.261348437745603,0.943755685239108,0.315433414844625,0.0648937199375941,0.5,0.205728743004476,1.0996147140208,4.27648452872573,4.23354715608655,0.5,60.2038948814314
CBC_1011,CBC_1011_MSI_AV_v3_Vset3_Aset2_2024-03-20_15h53.25.911.csv,2,17,3,2,b,1,0,3,aud,D,63,1,3D,2D,1,0,b,2.70443489999889,1,0,1,1,3D,2D,D32,3.46573590279973,0.749460305092969,0.397135628497762,0.5,0.5,0.5,0.749460305092969,0.5,0.397135628497762,0.5,0.5,0.801003521598918,0.397135628497762,0.5,0.5,0.5,0.543731562088493,0.520949621376299,0.479050378623701,0.543731562088493,0.5,0.146828162720664,0.682356035738651,0.456268437911507,0.09386753220415,0.5,0.205728743004476,1.0996147140208,4.27648452872573,4.23354715608655,0.5,60.2038948814314
CBC_1011,CBC_1011_MSI_AV_v3_Vset3_Aset2_2024-03-20_15h53.25.911.csv,2,18,2,3,z,0,1,3,aud,D,63,1,2D,3D,0,1,z,2.5094936000005,0,1,1,1,3D,2D,D23,2.39789527279837,0.749460305092969,0.397135628497762,0.5,0.5,0.5,0.749460305092969,0.5,0.397135628497762,0.5,0.5,0.801003521598918,0.397135628497762,0.5,0.5,0.5,0.637599094292643,0.560477849790396,0.439522150209603,0.637599094292643,0.5,0.255379999938052,0.899897861038664,0.362400905707357,0.0745562827948581,0.5,0.205728743004476,1.0996147140208,4.27648452872573,4.23354715608655,0.5,60.2038948814314
CBC_1011,CBC_1011_MSI_AV_v3_Vset3_Aset2_2024-03-20_15h53.25.911.csv,2,19,1,3,b,1,0,0,aud,B,27,1,1B,3B,1,0,b,2.69977960000142,1,0,1,1,1B,3B,B13,2.83321334405622,0.749460305092969,0.397135628497762,0.5,0.5,0.5,0.749460305092969,0.5,0.397135628497762,0.5,0.5,0.801003521598918,0.397135628497762,0.5,0.5,0.5,0.712155377087501,0.65363942356391,0.34636057643609,0.749460305092969,0.397135628497762,0.417147417248721,0.996169780339507,0.250539694907031,0.0515432165059483,0.5,0.205728743004476,1.0996147140208,4.27648452872573,4.23354715608655,0.5,60.2038948814314
CBC_1011,CBC_1011_MSI_AV_v3_Vset3_Aset2_2024-03-20_15h53.25.911.csv,2,20,3,0,b,1,0,3,aud,D,9,1,3D,0D,1,0,z,2.52790400000049,0,1,0,0,0D,3D,D30,3.55534806148941,0.749460305092969,0.397135628497762,0.5,0.5,0.5,0.801003521598918,0.5,0.397135628497762,0.5,0.5,0.801003521598918,0.397135628497762,0.5,0.5,0.5,0.712155377087501,0.412488373562614,0.587511626437386,0.5,0.712155377087501,0.0141540992005332,0.0403098193926114,-0.5,-0.102864371502238,0.5,0.205728743004476,1.0996147140208,4.27648452872573,4.23354715608655,0.5,60.2038948814314
CBC_1011,CBC_1011_MSI_AV_v3_Vset3_Aset2_2024-03-20_15h53.25.911.csv,2,21,0,1,z,0,1,0,aud,B,63,1,0B,1B,0,1,z,2.83803330000046,0,1,1,1,1B,0B,B01,2.484906649788,0.749460305092969,0.397135628497762,0.5,0.5,0.5,0.801003521598918,0.5,0.397135628497762,0.5,0.5,0.801003521598918,0.397135628497762,0.397135628497762,0.5,0.5,0.712155377087501,0.615681286253933,0.384318713746067,0.801003521598918,0.5,0.352055695209336,0.985048342080511,0.198996478401082,0.040939295363772,0.5,0.205728743004476,1.0996147140208,4.27648452872573,4.23354715608655,0.5,60.2038948814314
CBC_1011,CBC_1011_MSI_AV_v3_Vset3_Aset2_2024-03-20_15h53.25.911.csv,2,22,0,1,b,1,0,2,aud,A,63,1,0A,1A,1,0,b,2.27680950000104,1,0,1,1,0A,1A,A01,2.91777073208428,0.749460305092969,0.397135628497762,0.5,0.5,0.5,0.84194281696269,0.5,0.397135628497762,0.5,0.5,0.801003521598918,0.397135628497762,0.397135628497762,0.5,0.5,0.712155377087501,0.65363942356391,0.34636057643609,0.749460305092969,0.397135628497762,0.575826816004169,0.996170392747008,0.250539694907031,0.0515432165059483,0.5,0.205728743004476,1.0996147140208,4.27648452872573,4.23354715608655,0.5,60.2038948814314
CBC_1011,CBC_1011_MSI_AV_v3_Vset3_Aset2_2024-03-20_15h53.25.911.csv,2,23,3,2,z,0,1,1,aud,C,63,1,3C,2C,0,1,z,2.66614280000067,0,1,1,1,2C,3C,C32,2.94443897916644,0.801003521598918,0.397135628497762,0.5,0.5,0.5,0.84194281696269,0.5,0.397135628497762,0.5,0.5,0.801003521598918,0.397135628497762,0.397135628497762,0.5,0.5,0.712155377087501,0.668539644609963,0.331460355390037,0.801003521598918,0.397135628497762,0.427877478227943,0.997779215094443,0.198996478401082,0.040939295363772,0.5,0.205728743004476,1.0996147140208,4.27648452872573,4.23354715608655,0.5,60.2038948814314
CBC_1011,CBC_1011_MSI_AV_v3_Vset3_Aset2_2024-03-20_15h53.25.911.csv,2,24,2,0,z,0,1,2,aud,A,27,1,2A,0A,0,1,z,2.35968800000046,0,1,1,1,0A,2A,A20,2.56494935746154,0.801003521598918,0.397135628497762,0.5,0.5,0.5,0.84194281696269,0.5,0.397135628497762,0.5,0.5,0.84194281696269,0.397135628497762,0.397135628497762,0.5,0.5,0.712155377087501,0.615681286253933,0.384318713746067,0.801003521598918,0.5,0.442359492964904,0.985099444906806,0.198996478401082,0.040939295363772,0.5,0.205728743004476,1.0996147140208,4.27648452872573,4.23354715608655,0.5,60.2038948814314
CBC_1011,CBC_1011_MSI_AV_v3_Vset3_Aset2_2024-03-20_15h53.25.911.csv,2,25,0,1,z,0,1,0,aud,B,63,1,0B,1B,0,1,z,2.91367420000097,0,1,1,1,1B,0B,B01,2.30258509299405,0.84194281696269,0.397135628497762,0.5,0.5,0.5,0.84194281696269,0.5,0.397135628497762,0.5,0.5,0.84194281696269,0.397135628497762,0.397135628497762,0.5,0.5,0.712155377087501,0.627405882218078,0.372594117781922,0.84194281696269,0.5,0.343731658501406,0.990195297853263,0.15805718303731,0.0325169055890942,0.5,0.205728743004476,1.0996147140208,4.27648452872573,4.23354715608655,0.5,60.2038948814314
CBC_1011,CBC_1011_MSI_AV_v3_Vset3_Aset2_2024-03-20_15h53.25.911.csv,2,26,3,2,b,1,0,3,aud,D,63,1,3D,2D,1,0,b,2.54728260000047,1,0,1,1,3D,2D,D32,3.02042488614436,0.84194281696269,0.397135628497762,0.5,0.5,0.5,0.874459722551784,0.5,0.397135628497762,0.5,0.5,0.84194281696269,0.397135628497762,0.397135628497762,0.5,0.5,0.712155377087501,0.587511626437386,0.412488373562614,0.712155377087501,0.5,0.335415634202294,0.959690670083012,0.287844622912499,0.0592179124523857,0.5,0.205728743004476,1.0996147140208,4.27648452872573,4.23354715608655,0.5,60.2038948814314
CBC_1011,CBC_1011_MSI_AV_v3_Vset3_Aset2_2024-03-20_15h53.25.911.csv,2,27,2,1,z,0,1,0,aud,B,9,1,2B,1B,0,1,z,2.64419970000017,0,1,1,1,1B,2B,B21,3.73766961828337,0.84194281696269,0.397135628497762,0.5,0.5,0.5,0.874459722551784,0.5,0.397135628497762,0.5,0.5,0.84194281696269,0.397135628497762,0.397135628497762,0.5,0.5,0.771373289539887,0.636220696906481,0.363779303093519,0.874459722551784,0.5,0.425766983344673,0.992834506181313,0.125540277448216,0.0258272434758547,0.5,0.205728743004476,1.0996147140208,4.27648452872573,4.23354715608655,0.5,60.2038948814314
CBC_1011,CBC_1011_MSI_AV_v3_Vset3_Aset2_2024-03-20_15h53.25.911.csv,2,28,3,1,b,1,0,3,aud,D,27,1,3D,1D,1,0,b,2.64473880000151,1,0,1,1,3D,1D,D31,3.76120011569356,0.84194281696269,0.397135628497762,0.5,0.5,0.5,0.900286966027638,0.5,0.397135628497762,0.5,0.5,0.84194281696269,0.397135628497762,0.397135628497762,0.5,0.5,0.771373289539887,0.606724473359865,0.393275526640135,0.771373289539887,0.5,0.374131721297078,0.979461193989,0.228626710460113,0.0470350857602073,0.5,0.205728743004476,1.0996147140208,4.27648452872573,4.23354715608655,0.5,60.2038948814314
CBC_1011,CBC_1011_MSI_AV_v3_Vset3_Aset2_2024-03-20_15h53.25.911.csv,2,29,0,1,b,1,0,2,aud,A,63,1,0A,1A,1,0,b,2.35544720000144,1,0,1,1,0A,1A,A01,2.68557734525015,0.84194281696269,0.397135628497762,0.5,0.5,0.5,0.900286966027638,0.5,0.397135628497762,0.5,0.5,0.84194281696269,0.397135628497762,0.397135628497762,0.5,0.5,0.818408375300094,0.679491133145986,0.320508866854014,0.84194281696269,0.397135628497762,0.591664741786476,0.998502044713269,0.15805718303731,0.0325169055890942,0.5,0.205728743004476,1.0996147140208,4.27648452872573,4.23354715608655,0.5,60.2038948814314
CBC_1011,CBC_1011_MSI_AV_v3_Vset3_Aset2_2024-03-20_15h53.25.911.csv,2,30,1,0,z,0,1,2,aud,A,63,1,1A,0A,0,1,z,2.40148370000134,0,1,1,1,0A,1A,A10,3.11351530921037,0.874459722551784,0.397135628497762,0.5,0.5,0.5,0.900286966027638,0.5,0.397135628497762,0.5,0.5,0.84194281696269,0.397135628497762,0.397135628497762,0.5,0.5,0.818408375300094,0.687687102528351,0.312312897471649,0.874459722551784,0.397135628497762,0.568331826393071,0.998879297286186,0.125540277448216,0.0258272434758547,0.5,0.205728743004476,1.0996147140208,4.27648452872573,4.23354715608655,0.5,60.2038948814314
CBC_1011,CBC_1011_MSI_AV_v3_Vset3_Aset2_2024-03-20_15h53.25.911.csv,2,31,2,0,b,1,0,1,aud,C,27,1,2C,0C,1,0,b,3.16907800000081,1,0,1,1,2C,0C,C20,3.13549421592915,0.900286966027638,0.397135628497762,0.5,0.5,0.5,0.900286966027638,0.5,0.397135628497762,0.5,0.5,0.84194281696269,0.397135628497762,0.397135628497762,0.5,0.5,0.818408375300094,0.627405882218078,0.372594117781922,0.84194281696269,0.5,0.282213833662308,0.990168880448101,0.15805718303731,0.0325169055890942,0.5,0.205728743004476,1.0996147140208,4.27648452872573,4.23354715608655,0.5,60.2038948814314
CBC_1011,CBC_1011_MSI_AV_v3_Vset3_Aset2_2024-03-20_15h53.25.911.csv,2,32,0,1,b,1,0,2,aud,A,63,1,0A,1A,NaN,NaN,[],NaN,NaN,NaN,NaN,NaN,,,A01,2.46385324059017,0.900286966027638,0.397135628497762,0.5,0.5,0.5,0.900286966027638,0.5,0.397135628497762,0.5,0.5,0.874459722551784,0.397135628497762,0.397135628497762,0.5,0.5,0.818408375300094,0,0,0,0,NaN,0,0,0,0.5,0.205728743004476,1.0996147140208,4.27648452872573,4.23354715608655,0.5,60.2038948814314
CBC_1011,CBC_1011_MSI_AV_v3_Vset3_Aset2_2024-03-20_15h53.25.911.csv,2,33,0,1,z,0,1,0,aud,B,63,1,0B,1B,0,1,z,2.83556410000165,0,1,1,1,1B,0B,B01,2.26176309847379,0.900286966027638,0.397135628497762,0.5,0.5,0.5,0.900286966027638,0.5,0.397135628497762,0.5,0.5,0.874459722551784,0.397135628497762,0.397135628497762,0.5,0.5,0.818408375300094,0.642930333474138,0.357069666525862,0.900286966027638,0.5,0.369175572833741,0.994373104780633,0.0997130339723615,0.0205138371402965,0.5,0.205728743004476,1.0996147140208,4.27648452872573,4.23354715608655,0.5,60.2038948814314
CBC_1011,CBC_1011_MSI_AV_v3_Vset3_Aset2_2024-03-20_15h53.25.911.csv,2,34,2,3,z,0,1,3,aud,D,63,1,2D,3D,0,1,z,3.13781139999992,0,1,1,1,3D,2D,D23,2.50552593699074,0.900286966027638,0.397135628497762,0.5,0.5,0.5,0.920800803167935,0.5,0.397135628497762,0.5,0.5,0.874459722551784,0.397135628497762,0.397135628497762,0.5,0.5,0.818408375300094,0.620754836386571,0.379245163613429,0.818408375300094,0.5,0.29006933349789,0.987524786694139,0.181591624699906,0.0373586166896521,0.5,0.205728743004476,1.0996147140208,4.27648452872573,4.23354715608655,0.5,60.2038948814314
CBC_1011,CBC_1011_MSI_AV_v3_Vset3_Aset2_2024-03-20_15h53.25.911.csv,2,35,1,3,b,1,0,0,aud,B,27,1,1B,3B,1,0,b,2.96168940000098,1,0,1,1,1B,3B,B13,2.81341071676004,0.900286966027638,0.397135628497762,0.5,0.5,0.5,0.920800803167935,0.5,0.397135628497762,0.5,0.5,0.874459722551784,0.397135628497762,0.397135628497762,0.5,0.5,0.855766991989746,0.698668601189031,0.301331398810969,0.920800803167935,0.397135628497762,0.246995401386944,0.999255563490475,0.079199196832065,0.0162935512112248,0.5,0.205728743004476,1.0996147140208,4.27648452872573,4.23354715608655,0.5,60.2038948814314
CBC_1011,CBC_1011_MSI_AV_v3_Vset3_Aset2_2024-03-20_15h53.25.911.csv,2,36,2,3,b,1,0,1,aud,C,63,1,2C,3C,1,0,b,2.71547720000126,1,0,1,1,2C,3C,C23,2.83321334405622,0.900286966027638,0.397135628497762,0.5,0.5,0.5,0.93709435437916,0.5,0.397135628497762,0.5,0.5,0.874459722551784,0.397135628497762,0.397135628497762,0.5,0.5,0.855766991989746,0.687687102528351,0.312312897471649,0.874459722551784,0.397135628497762,0.383175230245381,0.998882276760898,0.125540277448216,0.0258272434758547,0.5,0.205728743004476,1.0996147140208,4.27648452872573,4.23354715608655,0.5,60.2038948814314
CBC_1011,CBC_1011_MSI_AV_v3_Vset3_Aset2_2024-03-20_15h53.25.911.csv,2,37,0,2,z,0,1,1,aud,C,27,1,0C,2C,0,1,z,2.47102600000107,0,1,1,1,2C,0C,C02,3.95124371858143,0.900286966027638,0.397135628497762,0.5,0.5,0.5,0.93709435437916,0.5,0.397135628497762,0.5,0.5,0.900286966027638,0.397135628497762,0.397135628497762,0.5,0.5,0.855766991989746,0.642930333474138,0.357069666525862,0.900286966027638,0.5,0.489993937618292,0.994384151074293,0.0997130339723615,0.0205138371402965,0.5,0.205728743004476,1.0996147140208,4.27648452872573,4.23354715608655,0.5,60.2038948814314
CBC_1011,CBC_1011_MSI_AV_v3_Vset3_Aset2_2024-03-20_15h53.25.911.csv,2,38,0,1,z,0,1,0,aud,B,63,1,0B,1B,0,1,z,2.65121240000008,0,1,1,1,1B,0B,B01,2.17853244432407,0.900286966027638,0.397135628497762,0.5,0.5,0.5,0.93709435437916,0.5,0.397135628497762,0.5,0.5,0.920800803167935,0.397135628497762,0.397135628497762,0.5,0.5,0.855766991989746,0.652075732900638,0.347924267099362,0.93709435437916,0.5,0.43553132091299,0.995947309935359,0.0629056456208402,0.0129414994014605,0.5,0.205728743004476,1.0996147140208,4.27648452872573,4.23354715608655,0.5,60.2038948814314
CBC_1011,CBC_1011_MSI_AV_v3_Vset3_Aset2_2024-03-20_15h53.25.911.csv,2,39,0,3,b,1,0,2,aud,A,9,1,0A,3A,1,0,b,2.45966840000074,1,0,1,1,0A,3A,A03,3.98898404656427,0.900286966027638,0.397135628497762,0.5,0.5,0.5,0.95003585378062,0.5,0.397135628497762,0.5,0.5,0.920800803167935,0.397135628497762,0.397135628497762,0.5,0.5,0.855766991989746,0.642930333474138,0.357069666525862,0.900286966027638,0.5,0.493588747342207,0.994383448308679,0.0997130339723615,0.0205138371402965,0.5,0.205728743004476,1.0996147140208,4.27648452872573,4.23354715608655,0.5,60.2038948814314
CBC_1011,CBC_1011_MSI_AV_v3_Vset3_Aset2_2024-03-20_15h53.25.911.csv,2,40,2,3,b,1,0,1,aud,C,63,0,2C,3C,0,1,b,2.84584449999966,1,0,1,0,2C,3C,C23,2.62103882411258,0.920800803167935,0.397135628497762,0.5,0.5,0.5,0.95003585378062,0.5,0.397135628497762,0.5,0.5,0.920800803167935,0.397135628497762,0.397135628497762,0.5,0.5,0.855766991989746,0.698668601189031,0.301331398810969,0.920800803167935,0.397135628497762,0.296924996011894,0.999256109970642,-0.920800803167935,-0.189435191793251,0.5,0.205728743004476,1.0996147140208,4.27648452872573,4.23354715608655,0.5,60.2038948814314
CBC_1011,CBC_1011_MSI_AV_v3_Vset3_Aset2_2024-03-20_15h53.25.911.csv,2,41,0,1,b,1,0,2,aud,A,63,1,0A,1A,NaN,NaN,[],NaN,NaN,NaN,NaN,NaN,,,A01,2.41591377830105,0.920800803167935,0.397135628497762,0.5,0.5,0.5,0.95003585378062,0.5,0.397135628497762,0.5,0.5,0.731365611374684,0.397135628497762,0.397135628497762,0.5,0.5,0.855766991989746,0,0,0,0,NaN,0,0,0,0.5,0.205728743004476,1.0996147140208,4.27648452872573,4.23354715608655,0.5,60.2038948814314
CBC_1011,CBC_1011_MSI_AV_v3_Vset3_Aset2_2024-03-20_15h53.25.911.csv,2,42,2,3,z,0,1,3,aud,D,63,1,2D,3D,0,1,z,3.26224840000032,0,1,1,1,3D,2D,D23,2.43361335540045,0.920800803167935,0.397135628497762,0.5,0.5,0.5,0.95003585378062,0.5,0.397135628497762,0.5,0.5,0.731365611374684,0.397135628497762,0.397135628497762,0.5,0.5,0.855766991989746,0.6312050647684,0.3687949352316,0.855766991989746,0.5,0.259541560145162,0.991407950658829,0.144233008010254,0.029672875437704,0.5,0.205728743004476,1.0996147140208,4.27648452872573,4.23354715608655,0.5,60.2038948814314
CBC_1011,CBC_1011_MSI_AV_v3_Vset3_Aset2_2024-03-20_15h53.25.911.csv,2,43,3,2,z,0,1,1,aud,C,63,1,3C,2C,0,1,z,2.57405260000087,0,1,1,1,2C,3C,C32,2.96183072187831,0.920800803167935,0.397135628497762,0.5,0.5,0.5,0.95003585378062,0.5,0.397135628497762,0.5,0.5,0.731365611374684,0.397135628497762,0.397135628497762,0.5,0.5,0.88543986742745,0.648085784520139,0.351914215479861,0.731365611374684,0.397135628497762,0.461866704323348,0.995336520470434,0.268634388625316,0.0552658150996621,0.5,0.205728743004476,1.0996147140208,4.27648452872573,4.23354715608655,0.5,60.2038948814314
CBC_1011,CBC_1011_MSI_AV_v3_Vset3_Aset2_2024-03-20_15h53.25.911.csv,2,44,3,1,b,1,0,3,aud,D,27,1,3D,1D,1,0,b,2.63655910000125,1,0,1,1,3D,1D,D31,3.38439026334577,0.920800803167935,0.397135628497762,0.5,0.5,0.5,0.95003585378062,0.5,0.397135628497762,0.5,0.5,0.786631426474346,0.397135628497762,0.397135628497762,0.5,0.5,0.88543986742745,0.639103788078206,0.360896211921794,0.88543986742745,0.5,0.431486638818299,0.99357295139214,0.11456013257255,0.0235683120725767,0.5,0.205728743004476,1.0996147140208,4.27648452872573,4.23354715608655,0.5,60.2038948814314
