ID,filename,session,trial,visStimLeft,visStimRight,correctKey,leftCorrect,rightCorrect,secondStim,mod2Type,mod2Stim,frequency,rewardAccurate,stimPairLeft,stimPairRight,pCorrectLeft,pCorrectRight,key,reactionTime,choiceLeft,choiceRight,choiceAccurate,reward,chosenPair,otherPair,triplet,surprise,0A belief,1A belief,2A belief,3A belief,0B belief,1B belief,2B belief,3B belief,0C belief,1C belief,2C belief,3C belief,0D belief,1D belief,2D belief,3D belief,beliefPairNorm,beliefOtherPairNorm,beliefPair,beliefOtherPair,lik,corrLik,rewardPE,update2,fitCBCsimpleRW_CBCdriftDiffusionLR_pwBelief_startBelief,fitCBCsimpleRW_CBCdriftDiffusionLR_pwBelief_alpha1,fitCBCsimpleRW_CBCdriftDiffusionLR_pwBelief_nonDecisionTime,fitCBCsimpleRW_CBCdriftDiffusionLR_pwBelief_weight,fitCBCsimpleRW_CBCdriftDiffusionLR_pwBelief_startingBoundary,fitCBCsimpleRW_CBCdriftDiffusionLR_pwBelief_startingPoint,fit_CBCsimpleRW_CBCdriftDiffusionLR_pwBelief_NLL
CBC_1011,CBC_1011_MSI_TV_v3_Vset2_Tset3_2024-03-20_14h28.58.206.csv,1,1,1,0,b,1,0,0,tac,B,63,1,1B,0B,1,0,z,3.7255239999995,0,1,0,0,0B,1B,B10,2.77258872223978,0.5,0.5,0.5,0.5,0.5,0.5,0.5,0.5,0.5,0.5,0.5,0.5,0.5,0.5,0.5,0.5,0.5,0.5,0.5,0.5,0.0888516990122033,0.498875795627658,-0.5,-0.0243676823237853,0.5,0.0487353646475707,1.09832004359001,3.07055131682448,3.60565175341767,0.5,74.787004403466
CBC_1011,CBC_1011_MSI_TV_v3_Vset2_Tset3_2024-03-20_14h28.58.206.csv,1,2,0,1,b,1,0,2,tac,A,63,1,0A,1A,1,0,z,4.84421179999936,0,1,0,0,1A,0A,A01,2.83321334405622,0.5,0.5,0.5,0.5,0.475632317676215,0.5,0.5,0.5,0.5,0.5,0.5,0.5,0.5,0.5,0.5,0.5,0.5,0.5,0.5,0.5,0.0584356649271733,0.501172917499104,-0.5,-0.0243676823237853,0.5,0.0487353646475707,1.09832004359001,3.07055131682448,3.60565175341767,0.5,74.787004403466
CBC_1011,CBC_1011_MSI_TV_v3_Vset2_Tset3_2024-03-20_14h28.58.206.csv,1,3,1,2,z,0,1,1,tac,C,9,1,1C,2C,NaN,NaN,None,NaN,NaN,NaN,NaN,NaN,,,C12,2.89037175789616,0.5,0.475632317676215,0.5,0.5,0.475632317676215,0.5,0.5,0.5,0.5,0.5,0.5,0.5,0.5,0.5,0.5,0.5,0,0,0,0,NaN,0,0,0,0.5,0.0487353646475707,1.09832004359001,3.07055131682448,3.60565175341767,0.5,74.787004403466
CBC_1011,CBC_1011_MSI_TV_v3_Vset2_Tset3_2024-03-20_14h28.58.206.csv,1,4,1,0,z,0,1,2,tac,A,63,1,1A,0A,0,1,b,3.60578889999942,1,0,0,0,1A,0A,A10,2.94443897916644,0.5,0.475632317676215,0.5,0.5,0.475632317676215,0.5,0.5,0.5,0.5,0.5,0.5,0.5,0.5,0.5,0.5,0.5,0.475632317676215,0.524367682323785,0.475632317676215,0.5,0.0690579180812555,0.367744978673989,-0.475632317676215,-0.0231801144401195,0.5,0.0487353646475707,1.09832004359001,3.07055131682448,3.60565175341767,0.5,74.787004403466
CBC_1011,CBC_1011_MSI_TV_v3_Vset2_Tset3_2024-03-20_14h28.58.206.csv,1,5,3,1,b,1,0,3,tac,D,27,1,3D,1D,1,0,b,3.0253933999993,1,0,1,1,3D,1D,D31,2.99573227355399,0.5,0.452452203236095,0.5,0.5,0.475632317676215,0.5,0.5,0.5,0.5,0.5,0.5,0.5,0.5,0.5,0.5,0.5,0.5,0.5,0.5,0.5,0.115398189276131,0.500523424648577,0.5,0.0243676823237853,0.5,0.0487353646475707,1.09832004359001,3.07055131682448,3.60565175341767,0.5,74.787004403466
CBC_1011,CBC_1011_MSI_TV_v3_Vset2_Tset3_2024-03-20_14h28.58.206.csv,1,6,0,1,z,0,1,0,tac,B,63,1,0B,1B,0,1,z,4.16211500000009,0,1,1,1,1B,0B,B01,3.04452243772342,0.5,0.452452203236095,0.5,0.5,0.475632317676215,0.5,0.5,0.5,0.5,0.5,0.5,0.5,0.5,0.5,0.5,0.524367682323785,0.524367682323785,0.475632317676215,0.5,0.475632317676215,0.0955130440060633,0.631418152081816,0.5,0.0243676823237853,0.5,0.0487353646475707,1.09832004359001,3.07055131682448,3.60565175341767,0.5,74.787004403466
CBC_1011,CBC_1011_MSI_TV_v3_Vset2_Tset3_2024-03-20_14h28.58.206.csv,1,7,2,3,b,1,0,1,tac,C,63,1,2C,3C,1,0,b,3.21390640000027,1,0,1,1,2C,3C,C23,3.09104245335832,0.5,0.452452203236095,0.5,0.5,0.475632317676215,0.524367682323785,0.5,0.5,0.5,0.5,0.5,0.5,0.5,0.5,0.5,0.524367682323785,0.5,0.5,0.5,0.5,0.107550342371492,0.499194528366991,0.5,0.0243676823237853,0.5,0.0487353646475707,1.09832004359001,3.07055131682448,3.60565175341767,0.5,74.787004403466
CBC_1011,CBC_1011_MSI_TV_v3_Vset2_Tset3_2024-03-20_14h28.58.206.csv,1,8,2,0,z,0,1,2,tac,A,27,1,2A,0A,0,1,z,2.69831859999977,0,1,1,1,0A,2A,A20,3.13549421592915,0.5,0.452452203236095,0.5,0.5,0.475632317676215,0.524367682323785,0.5,0.5,0.5,0.5,0.524367682323785,0.5,0.5,0.5,0.5,0.524367682323785,0.5,0.5,0.5,0.5,0.12848045797165,0.499589801421735,0.5,0.0243676823237853,0.5,0.0487353646475707,1.09832004359001,3.07055131682448,3.60565175341767,0.5,74.787004403466
CBC_1011,CBC_1011_MSI_TV_v3_Vset2_Tset3_2024-03-20_14h28.58.206.csv,1,9,3,2,b,1,0,3,tac,D,63,1,3D,2D,1,0,b,2.85864680000032,1,0,1,1,3D,2D,D32,3.17805383034795,0.524367682323785,0.452452203236095,0.5,0.5,0.475632317676215,0.524367682323785,0.5,0.5,0.5,0.5,0.524367682323785,0.5,0.5,0.5,0.5,0.524367682323785,0.524367682323785,0.475632317676215,0.524367682323785,0.5,0.157145256316824,0.63291728827139,0.475632317676215,0.0231801144401195,0.5,0.0487353646475707,1.09832004359001,3.07055131682448,3.60565175341767,0.5,74.787004403466
CBC_1011,CBC_1011_MSI_TV_v3_Vset2_Tset3_2024-03-20_14h28.58.206.csv,1,10,3,1,z,0,1,0,tac,B,27,1,3B,1B,0,1,z,3.73511589999998,0,1,1,1,1B,3B,B31,3.2188758248682,0.524367682323785,0.452452203236095,0.5,0.5,0.475632317676215,0.524367682323785,0.5,0.5,0.5,0.5,0.524367682323785,0.5,0.5,0.5,0.5,0.547547796763905,0.524367682323785,0.475632317676215,0.524367682323785,0.5,0.1128415028291,0.631781093961784,0.475632317676215,0.0231801144401195,0.5,0.0487353646475707,1.09832004359001,3.07055131682448,3.60565175341767,0.5,74.787004403466
CBC_1011,CBC_1011_MSI_TV_v3_Vset2_Tset3_2024-03-20_14h28.58.206.csv,1,11,3,2,z,0,1,1,tac,C,63,0,3C,2C,1,0,z,3.14303139999993,0,1,1,0,2C,3C,C32,3.25809653802148,0.524367682323785,0.452452203236095,0.5,0.5,0.475632317676215,0.547547796763905,0.5,0.5,0.5,0.5,0.524367682323785,0.5,0.5,0.5,0.5,0.547547796763905,0.524367682323785,0.475632317676215,0.524367682323785,0.5,0.141513012578747,0.631825770907416,-0.524367682323785,-0.0255552502074512,0.5,0.0487353646475707,1.09832004359001,3.07055131682448,3.60565175341767,0.5,74.787004403466
CBC_1011,CBC_1011_MSI_TV_v3_Vset2_Tset3_2024-03-20_14h28.58.206.csv,1,12,1,3,b,1,0,0,tac,B,27,1,1B,3B,1,0,b,3.02031050000005,1,0,1,1,1B,3B,B13,3.29583686600433,0.524367682323785,0.452452203236095,0.5,0.5,0.475632317676215,0.547547796763905,0.5,0.5,0.5,0.5,0.498812432116334,0.5,0.5,0.5,0.5,0.547547796763905,0.547547796763905,0.452452203236095,0.547547796763905,0.5,0.180192761749592,0.741546910025341,0.452452203236095,0.0220504231103079,0.5,0.0487353646475707,1.09832004359001,3.07055131682448,3.60565175341767,0.5,74.787004403466
CBC_1011,CBC_1011_MSI_TV_v3_Vset2_Tset3_2024-03-20_14h28.58.206.csv,1,13,3,2,z,0,1,1,tac,C,63,1,3C,2C,0,1,z,3.32474459999958,0,1,1,1,2C,3C,C32,2.63905732961526,0.524367682323785,0.452452203236095,0.5,0.5,0.475632317676215,0.569598219874213,0.5,0.5,0.5,0.5,0.498812432116334,0.5,0.5,0.5,0.5,0.547547796763905,0.498812432116334,0.501187567883666,0.498812432116334,0.5,0.102271837206769,0.494391355219756,0.501187567883666,0.0244255588776395,0.5,0.0487353646475707,1.09832004359001,3.07055131682448,3.60565175341767,0.5,74.787004403466
CBC_1011,CBC_1011_MSI_TV_v3_Vset2_Tset3_2024-03-20_14h28.58.206.csv,1,14,3,2,b,1,0,3,tac,D,63,1,3D,2D,1,0,b,2.75640279999971,1,0,1,1,3D,2D,D32,2.67414864942653,0.524367682323785,0.452452203236095,0.5,0.5,0.475632317676215,0.569598219874213,0.5,0.5,0.5,0.5,0.523237990993974,0.5,0.5,0.5,0.5,0.547547796763905,0.547547796763905,0.452452203236095,0.547547796763905,0.5,0.198959511656406,0.740780302625606,0.452452203236095,0.0220504231103079,0.5,0.0487353646475707,1.09832004359001,3.07055131682448,3.60565175341767,0.5,74.787004403466
CBC_1011,CBC_1011_MSI_TV_v3_Vset2_Tset3_2024-03-20_14h28.58.206.csv,1,15,0,3,b,1,0,2,tac,A,9,1,0A,3A,1,0,b,3.07090650000009,1,0,1,1,0A,3A,A03,3.40119738166216,0.524367682323785,0.452452203236095,0.5,0.5,0.475632317676215,0.569598219874213,0.5,0.5,0.5,0.5,0.523237990993974,0.5,0.5,0.5,0.5,0.569598219874213,0.524367682323785,0.475632317676215,0.524367682323785,0.5,0.145304761772147,0.63168271052706,0.475632317676215,0.0231801144401195,0.5,0.0487353646475707,1.09832004359001,3.07055131682448,3.60565175341767,0.5,74.787004403466
CBC_1011,CBC_1011_MSI_TV_v3_Vset2_Tset3_2024-03-20_14h28.58.206.csv,1,16,0,1,z,0,1,0,tac,B,63,0,0B,1B,NaN,NaN,None,NaN,NaN,NaN,NaN,NaN,,,B01,2.7408400239252,0.547547796763905,0.452452203236095,0.5,0.5,0.475632317676215,0.569598219874213,0.5,0.5,0.5,0.5,0.523237990993974,0.5,0.5,0.5,0.5,0.569598219874213,0,0,0,0,NaN,0,0,0,0.5,0.0487353646475707,1.09832004359001,3.07055131682448,3.60565175341767,0.5,74.787004403466
CBC_1011,CBC_1011_MSI_TV_v3_Vset2_Tset3_2024-03-20_14h28.58.206.csv,1,17,2,3,z,0,1,3,tac,D,63,1,2D,3D,0,1,z,2.78667150000001,0,1,1,1,3D,2D,D23,3.46573590279973,0.547547796763905,0.452452203236095,0.5,0.5,0.475632317676215,0.569598219874213,0.5,0.5,0.5,0.5,0.523237990993974,0.5,0.5,0.5,0.5,0.569598219874213,0.569598219874213,0.430401780125787,0.569598219874213,0.5,0.231605363926545,0.823647260393104,0.430401780125787,0.0209757876993938,0.5,0.0487353646475707,1.09832004359001,3.07055131682448,3.60565175341767,0.5,74.787004403466
CBC_1011,CBC_1011_MSI_TV_v3_Vset2_Tset3_2024-03-20_14h28.58.206.csv,1,18,0,2,z,0,1,1,tac,C,27,1,0C,2C,0,1,z,2.75445510000009,0,1,1,1,2C,0C,C02,3.49650756146648,0.547547796763905,0.452452203236095,0.5,0.5,0.475632317676215,0.569598219874213,0.5,0.5,0.5,0.5,0.523237990993974,0.5,0.5,0.5,0.5,0.590574007573606,0.523237990993974,0.476762009006026,0.523237990993974,0.5,0.160415031752228,0.624975549392468,0.476762009006026,0.0232351703590171,0.5,0.0487353646475707,1.09832004359001,3.07055131682448,3.60565175341767,0.5,74.787004403466
CBC_1011,CBC_1011_MSI_TV_v3_Vset2_Tset3_2024-03-20_14h28.58.206.csv,1,19,0,1,b,1,0,2,tac,A,63,1,0A,1A,1,0,b,2.91395170000033,1,0,1,1,0A,1A,A01,2.83321334405622,0.547547796763905,0.452452203236095,0.5,0.5,0.475632317676215,0.569598219874213,0.5,0.5,0.5,0.5,0.546473161352991,0.5,0.5,0.5,0.5,0.590574007573606,0.594243334849544,0.405756665150456,0.547547796763905,0.452452203236095,0.250917716611088,0.889460041141028,0.452452203236095,0.0220504231103079,0.5,0.0487353646475707,1.09832004359001,3.07055131682448,3.60565175341767,0.5,74.787004403466
CBC_1011,CBC_1011_MSI_TV_v3_Vset2_Tset3_2024-03-20_14h28.58.206.csv,1,20,1,0,b,1,0,0,tac,B,63,1,1B,0B,1,0,z,4.00519309999981,0,1,0,0,0B,1B,B10,2.86220088092947,0.569598219874213,0.452452203236095,0.5,0.5,0.475632317676215,0.569598219874213,0.5,0.5,0.5,0.5,0.546473161352991,0.5,0.5,0.5,0.5,0.590574007573606,0.406667247524803,0.593332752475197,0.475632317676215,0.569598219874213,0.017666281843782,0.112258387423356,-0.475632317676215,-0.0231801144401195,0.5,0.0487353646475707,1.09832004359001,3.07055131682448,3.60565175341767,0.5,74.787004403466
CBC_1011,CBC_1011_MSI_TV_v3_Vset2_Tset3_2024-03-20_14h28.58.206.csv,1,21,1,3,z,0,1,3,tac,D,27,1,1D,3D,NaN,NaN,None,NaN,NaN,NaN,NaN,NaN,,,D13,3.58351893845611,0.569598219874213,0.452452203236095,0.5,0.5,0.452452203236095,0.569598219874213,0.5,0.5,0.5,0.5,0.546473161352991,0.5,0.5,0.5,0.5,0.590574007573606,0,0,0,0,NaN,0,0,0,0.5,0.0487353646475707,1.09832004359001,3.07055131682448,3.60565175341767,0.5,74.787004403466
CBC_1011,CBC_1011_MSI_TV_v3_Vset2_Tset3_2024-03-20_14h28.58.206.csv,1,22,3,2,z,0,1,1,tac,C,63,1,3C,2C,0,1,z,4.31981179999912,0,1,1,1,2C,3C,C32,2.51230562397611,0.569598219874213,0.452452203236095,0.5,0.5,0.452452203236095,0.569598219874213,0.5,0.5,0.5,0.5,0.546473161352991,0.5,0.5,0.5,0.5,0.590574007573606,0.546473161352991,0.453526838647009,0.546473161352991,0.5,0.104324522767253,0.736479171799064,0.453526838647009,0.0221027958589219,0.5,0.0487353646475707,1.09832004359001,3.07055131682448,3.60565175341767,0.5,74.787004403466
CBC_1011,CBC_1011_MSI_TV_v3_Vset2_Tset3_2024-03-20_14h28.58.206.csv,1,23,0,1,b,1,0,2,tac,A,63,1,0A,1A,1,0,b,2.68182059999981,1,0,1,1,0A,1A,A01,2.53897387105828,0.569598219874213,0.452452203236095,0.5,0.5,0.452452203236095,0.569598219874213,0.5,0.5,0.5,0.5,0.568575957211913,0.5,0.5,0.5,0.5,0.590574007573606,0.615615616416966,0.384384383583034,0.569598219874213,0.452452203236095,0.311649935298717,0.928017021097949,0.430401780125787,0.0209757876993938,0.5,0.0487353646475707,1.09832004359001,3.07055131682448,3.60565175341767,0.5,74.787004403466
CBC_1011,CBC_1011_MSI_TV_v3_Vset2_Tset3_2024-03-20_14h28.58.206.csv,1,24,2,3,z,0,1,3,tac,D,63,1,2D,3D,0,1,z,2.91414929999974,0,1,1,1,3D,2D,D23,2.9704144655697,0.590574007573606,0.452452203236095,0.5,0.5,0.452452203236095,0.569598219874213,0.5,0.5,0.5,0.5,0.568575957211913,0.5,0.5,0.5,0.5,0.590574007573606,0.590574007573606,0.409425992426394,0.590574007573606,0.5,0.246558784858412,0.881214253250468,0.409425992426394,0.0199535250370938,0.5,0.0487353646475707,1.09832004359001,3.07055131682448,3.60565175341767,0.5,74.787004403466
CBC_1011,CBC_1011_MSI_TV_v3_Vset2_Tset3_2024-03-20_14h28.58.206.csv,1,25,2,0,b,1,0,1,tac,C,27,1,2C,0C,1,0,z,2.67814730000009,0,1,0,0,0C,2C,C20,3.68887945411394,0.590574007573606,0.452452203236095,0.5,0.5,0.452452203236095,0.569598219874213,0.5,0.5,0.5,0.5,0.568575957211913,0.5,0.5,0.5,0.5,0.6105275326107,0.431424042788087,0.568575957211913,0.5,0.568575957211913,0.0528086099132025,0.180389710328907,-0.5,-0.0243676823237853,0.5,0.0487353646475707,1.09832004359001,3.07055131682448,3.60565175341767,0.5,74.787004403466
CBC_1011,CBC_1011_MSI_TV_v3_Vset2_Tset3_2024-03-20_14h28.58.206.csv,1,26,0,1,b,1,0,2,tac,A,63,1,0A,1A,1,0,b,2.65666039999996,1,0,1,1,0A,1A,A01,2.32727770558442,0.590574007573606,0.452452203236095,0.5,0.5,0.452452203236095,0.569598219874213,0.5,0.5,0.475632317676215,0.5,0.568575957211913,0.5,0.5,0.5,0.5,0.6105275326107,0.635782759199377,0.364217240800623,0.590574007573606,0.452452203236095,0.34069191262351,0.952954636239575,0.409425992426394,0.0199535250370938,0.5,0.0487353646475707,1.09832004359001,3.07055131682448,3.60565175341767,0.5,74.787004403466
CBC_1011,CBC_1011_MSI_TV_v3_Vset2_Tset3_2024-03-20_14h28.58.206.csv,1,27,1,3,b,1,0,0,tac,B,27,1,1B,3B,1,0,b,2.79285509999954,1,0,1,1,1B,3B,B13,3.04452243772342,0.6105275326107,0.452452203236095,0.5,0.5,0.452452203236095,0.569598219874213,0.5,0.5,0.475632317676215,0.5,0.568575957211913,0.5,0.5,0.5,0.5,0.6105275326107,0.569598219874213,0.430401780125787,0.569598219874213,0.5,0.231055401187071,0.823743214473552,0.430401780125787,0.0209757876993938,0.5,0.0487353646475707,1.09832004359001,3.07055131682448,3.60565175341767,0.5,74.787004403466
CBC_1011,CBC_1011_MSI_TV_v3_Vset2_Tset3_2024-03-20_14h28.58.206.csv,1,28,3,2,z,0,1,1,tac,C,63,1,3C,2C,0,1,z,2.96847539999908,0,1,1,1,2C,3C,C32,2.37490575457367,0.6105275326107,0.452452203236095,0.5,0.5,0.452452203236095,0.590574007573606,0.5,0.5,0.475632317676215,0.5,0.568575957211913,0.5,0.5,0.5,0.5,0.6105275326107,0.568575957211913,0.431424042788087,0.568575957211913,0.5,0.213179613579337,0.821065011437069,0.431424042788087,0.0210256080430066,0.5,0.0487353646475707,1.09832004359001,3.07055131682448,3.60565175341767,0.5,74.787004403466
CBC_1011,CBC_1011_MSI_TV_v3_Vset2_Tset3_2024-03-20_14h28.58.206.csv,1,29,3,2,b,1,0,3,tac,D,63,0,3D,2D,0,1,b,2.82429609999963,1,0,1,0,3D,2D,D32,2.68557734525015,0.6105275326107,0.452452203236095,0.5,0.5,0.452452203236095,0.590574007573606,0.5,0.5,0.475632317676215,0.5,0.589601565254919,0.5,0.5,0.5,0.5,0.6105275326107,0.6105275326107,0.3894724673893,0.6105275326107,0.5,0.282362063695641,0.920690944547111,-0.6105275326107,-0.0297542819291641,0.5,0.0487353646475707,1.09832004359001,3.07055131682448,3.60565175341767,0.5,74.787004403466
CBC_1011,CBC_1011_MSI_TV_v3_Vset2_Tset3_2024-03-20_14h28.58.206.csv,1,30,0,1,z,0,1,0,tac,B,63,1,0B,1B,0,1,z,2.57573090000005,0,1,1,1,1B,0B,B01,2.70805020110221,0.6105275326107,0.452452203236095,0.5,0.5,0.452452203236095,0.590574007573606,0.5,0.5,0.475632317676215,0.5,0.589601565254919,0.5,0.5,0.5,0.5,0.580773250681536,0.635782759199377,0.364217240800623,0.590574007573606,0.452452203236095,0.358494355109758,0.952849825069379,0.409425992426394,0.0199535250370938,0.5,0.0487353646475707,1.09832004359001,3.07055131682448,3.60565175341767,0.5,74.787004403466
CBC_1011,CBC_1011_MSI_TV_v3_Vset2_Tset3_2024-03-20_14h28.58.206.csv,1,31,2,0,z,0,1,2,tac,A,27,1,2A,0A,0,1,z,3.00489449999986,0,1,1,1,0A,2A,A20,3.13549421592915,0.6105275326107,0.452452203236095,0.5,0.5,0.452452203236095,0.6105275326107,0.5,0.5,0.475632317676215,0.5,0.589601565254919,0.5,0.5,0.5,0.5,0.580773250681536,0.6105275326107,0.3894724673893,0.6105275326107,0.5,0.254529849661315,0.9205569688356,0.3894724673893,0.0189810827184066,0.5,0.0487353646475707,1.09832004359001,3.07055131682448,3.60565175341767,0.5,74.787004403466
CBC_1011,CBC_1011_MSI_TV_v3_Vset2_Tset3_2024-03-20_14h28.58.206.csv,1,32,3,0,b,1,0,3,tac,D,9,1,3D,0D,1,0,b,2.70472299999983,1,0,1,1,3D,0D,D30,3.85014760171006,0.629508615329107,0.452452203236095,0.5,0.5,0.452452203236095,0.6105275326107,0.5,0.5,0.475632317676215,0.5,0.589601565254919,0.5,0.5,0.5,0.5,0.580773250681536,0.580773250681536,0.419226749318464,0.580773250681536,0.5,0.257199471498603,0.856126313116504,0.419226749318464,0.020431168498051,0.5,0.0487353646475707,1.09832004359001,3.07055131682448,3.60565175341767,0.5,74.787004403466
CBC_1011,CBC_1011_MSI_TV_v3_Vset2_Tset3_2024-03-20_14h28.58.206.csv,1,33,3,2,z,0,1,1,tac,C,63,1,3C,2C,0,1,z,3.56000099999983,0,1,1,1,2C,3C,C32,2.26176309847379,0.629508615329107,0.452452203236095,0.5,0.5,0.452452203236095,0.6105275326107,0.5,0.5,0.475632317676215,0.5,0.589601565254919,0.5,0.5,0.5,0.5,0.601204419179587,0.589601565254919,0.410398434745081,0.589601565254919,0.5,0.176210567325594,0.879937261492191,0.410398434745081,0.0200009173680937,0.5,0.0487353646475707,1.09832004359001,3.07055131682448,3.60565175341767,0.5,74.787004403466
CBC_1011,CBC_1011_MSI_TV_v3_Vset2_Tset3_2024-03-20_14h28.58.206.csv,1,34,0,1,z,0,1,0,tac,B,63,1,0B,1B,0,1,z,2.68716589999985,0,1,1,1,1B,0B,B01,2.50552593699074,0.629508615329107,0.452452203236095,0.5,0.5,0.452452203236095,0.6105275326107,0.5,0.5,0.475632317676215,0.5,0.609602482623013,0.5,0.5,0.5,0.5,0.601204419179587,0.654820785500016,0.345179214499984,0.6105275326107,0.452452203236095,0.349366365286189,0.968635927039087,0.3894724673893,0.0189810827184066,0.5,0.0487353646475707,1.09832004359001,3.07055131682448,3.60565175341767,0.5,74.787004403466
CBC_1011,CBC_1011_MSI_TV_v3_Vset2_Tset3_2024-03-20_14h28.58.206.csv,1,35,0,1,b,1,0,2,tac,A,63,0,0A,1A,0,1,b,3.36097419999987,1,0,1,0,0A,1A,A01,2.30258509299405,0.629508615329107,0.452452203236095,0.5,0.5,0.452452203236095,0.629508615329107,0.5,0.5,0.475632317676215,0.5,0.609602482623013,0.5,0.5,0.5,0.5,0.601204419179587,0.672800104078838,0.327199895921162,0.629508615329107,0.452452203236095,0.193303304355505,0.978720881444883,-0.629508615329107,-0.0306793319168513,0.5,0.0487353646475707,1.09832004359001,3.07055131682448,3.60565175341767,0.5,74.787004403466
CBC_1011,CBC_1011_MSI_TV_v3_Vset2_Tset3_2024-03-20_14h28.58.206.csv,1,36,2,3,z,0,1,3,tac,D,63,1,2D,3D,0,1,z,2.73894469999959,0,1,1,1,3D,2D,D23,2.83321334405622,0.598829283412255,0.452452203236095,0.5,0.5,0.452452203236095,0.629508615329107,0.5,0.5,0.475632317676215,0.5,0.609602482623013,0.5,0.5,0.5,0.5,0.601204419179587,0.601204419179587,0.398795580820413,0.601204419179587,0.5,0.283356165403346,0.903529714194269,0.398795580820413,0.0194354480511226,0.5,0.0487353646475707,1.09832004359001,3.07055131682448,3.60565175341767,0.5,74.787004403466
CBC_1011,CBC_1011_MSI_TV_v3_Vset2_Tset3_2024-03-20_14h28.58.206.csv,1,37,1,2,b,1,0,0,tac,B,9,1,1B,2B,1,0,b,3.02007570000023,1,0,1,1,1B,2B,B12,3.95124371858143,0.598829283412255,0.452452203236095,0.5,0.5,0.452452203236095,0.629508615329107,0.5,0.5,0.475632317676215,0.5,0.609602482623013,0.5,0.5,0.5,0.5,0.62063986723071,0.629508615329107,0.370491384670893,0.629508615329107,0.5,0.263871202008196,0.946361954713918,0.370491384670893,0.0180560327307194,0.5,0.0487353646475707,1.09832004359001,3.07055131682448,3.60565175341767,0.5,74.787004403466
CBC_1011,CBC_1011_MSI_TV_v3_Vset2_Tset3_2024-03-20_14h28.58.206.csv,1,38,2,0,z,0,1,2,tac,A,27,1,2A,0A,0,1,z,3.72697179999977,0,1,1,1,0A,2A,A20,2.87167962488401,0.598829283412255,0.452452203236095,0.5,0.5,0.452452203236095,0.647564648059826,0.5,0.5,0.475632317676215,0.5,0.609602482623013,0.5,0.5,0.5,0.5,0.62063986723071,0.598829283412255,0.401170716587745,0.598829283412255,0.5,0.163768321668188,0.898793698499089,0.401170716587745,0.019551201158831,0.5,0.0487353646475707,1.09832004359001,3.07055131682448,3.60565175341767,0.5,74.787004403466
CBC_1011,CBC_1011_MSI_TV_v3_Vset2_Tset3_2024-03-20_14h28.58.206.csv,1,39,2,3,b,1,0,1,tac,C,63,1,2C,3C,1,0,z,2.67665719999968,0,1,0,0,3C,2C,C23,3.29583686600433,0.618380484571086,0.452452203236095,0.5,0.5,0.452452203236095,0.647564648059826,0.5,0.5,0.475632317676215,0.5,0.609602482623013,0.5,0.5,0.5,0.5,0.62063986723071,0.390397517376987,0.609602482623013,0.5,0.609602482623013,0.0270037759667887,0.0814973013995979,-0.5,-0.0243676823237853,0.5,0.0487353646475707,1.09832004359001,3.07055131682448,3.60565175341767,0.5,74.787004403466
CBC_1011,CBC_1011_MSI_TV_v3_Vset2_Tset3_2024-03-20_14h28.58.206.csv,1,40,1,3,z,0,1,3,tac,D,27,1,1D,3D,0,1,z,2.49227319999954,0,1,1,1,3D,1D,D13,3.31418600467253,0.618380484571086,0.452452203236095,0.5,0.5,0.452452203236095,0.647564648059826,0.5,0.5,0.475632317676215,0.5,0.609602482623013,0.475632317676215,0.5,0.5,0.5,0.62063986723071,0.62063986723071,0.37936013276929,0.62063986723071,0.5,0.353378528272315,0.935473559464917,0.37936013276929,0.0184882544032622,0.5,0.0487353646475707,1.09832004359001,3.07055131682448,3.60565175341767,0.5,74.787004403466
CBC_1011,CBC_1011_MSI_TV_v3_Vset2_Tset3_2024-03-20_14h28.58.206.csv,1,41,0,1,b,1,0,2,tac,A,63,1,0A,1A,1,0,b,3.2009093000006,1,0,1,1,0A,1A,A01,2.23359222150709,0.618380484571086,0.452452203236095,0.5,0.5,0.452452203236095,0.647564648059826,0.5,0.5,0.475632317676215,0.5,0.609602482623013,0.475632317676215,0.5,0.5,0.5,0.639128121633972,0.662274679123814,0.337725320876186,0.618380484571086,0.452452203236095,0.229682497331255,0.973278727593461,0.381619515428914,0.0185983662410573,0.5,0.0487353646475707,1.09832004359001,3.07055131682448,3.60565175341767,0.5,74.787004403466
CBC_1011,CBC_1011_MSI_TV_v3_Vset2_Tset3_2024-03-20_14h28.58.206.csv,1,42,0,2,z,0,1,1,tac,C,27,1,0C,2C,0,1,b,3.91507309999997,1,0,0,0,0C,2C,C02,3.3499040872746,0.636978850812144,0.452452203236095,0.5,0.5,0.452452203236095,0.647564648059826,0.5,0.5,0.475632317676215,0.5,0.609602482623013,0.475632317676215,0.5,0.5,0.5,0.639128121633972,0.367445914840378,0.632554085159622,0.475632317676215,0.609602482623013,0.00757758040468396,0.0507956353115462,-0.475632317676215,-0.0231801144401195,0.5,0.0487353646475707,1.09832004359001,3.07055131682448,3.60565175341767,0.5,74.787004403466
CBC_1011,CBC_1011_MSI_TV_v3_Vset2_Tset3_2024-03-20_14h28.58.206.csv,1,43,3,2,b,1,0,3,tac,D,63,1,3D,2D,1,0,b,2.53016099999968,1,0,1,1,3D,2D,D32,2.67414864942653,0.636978850812144,0.452452203236095,0.5,0.5,0.452452203236095,0.647564648059826,0.5,0.5,0.452452203236095,0.5,0.609602482623013,0.475632317676215,0.5,0.5,0.5,0.639128121633972,0.639128121633972,0.360871878366028,0.639128121633972,0.5,0.372971967800953,0.95592295779736,0.360871878366028,0.0175872225832222,0.5,0.0487353646475707,1.09832004359001,3.07055131682448,3.60565175341767,0.5,74.787004403466
CBC_1011,CBC_1011_MSI_TV_v3_Vset2_Tset3_2024-03-20_14h28.58.206.csv,1,44,1,0,b,1,0,0,tac,B,63,1,1B,0B,1,0,b,2.64302580000003,1,0,1,1,1B,0B,B10,2.97892515523761,0.636978850812144,0.452452203236095,0.5,0.5,0.452452203236095,0.647564648059826,0.5,0.5,0.452452203236095,0.5,0.609602482623013,0.475632317676215,0.5,0.5,0.5,0.656715344217194,0.689786006496878,0.310213993503122,0.647564648059826,0.452452203236095,0.374374792551941,0.985297351084849,0.352435351940174,0.0171760653914993,0.5,0.0487353646475707,1.09832004359001,3.07055131682448,3.60565175341767,0.5,74.787004403466
CBC_1011,CBC_1011_MSI_AV_v3_Vset3_Aset2_2024-03-20_15h53.25.911.csv,2,1,1,0,z,0,1,2,aud,A,63,1,1A,0A,0,1,b,2.78924820000066,1,0,0,0,1A,0A,A10,2.77258872223978,0.5,0.5,0.5,0.5,0.5,0.5,0.5,0.5,0.5,0.5,0.5,0.5,0.5,0.5,0.5,0.5,0.5,0.5,0.5,0.5,0.10018605124937,0.500176587155141,-0.5,-0.17247422608662,0.5,0.344948452173239,1.09970156103156,1.45522767442153,4.28230963028474,0.5,59.961243872179
CBC_1011,CBC_1011_MSI_AV_v3_Vset3_Aset2_2024-03-20_15h53.25.911.csv,2,2,2,3,b,1,0,1,aud,C,63,1,2C,3C,1,0,z,2.6160562999994,0,1,0,0,3C,2C,C23,2.83321334405622,0.5,0.32752577391338,0.5,0.5,0.5,0.5,0.5,0.5,0.5,0.5,0.5,0.5,0.5,0.5,0.5,0.5,0.5,0.5,0.5,0.5,0.100922819831043,0.500186857398764,-0.5,-0.17247422608662,0.5,0.344948452173239,1.09970156103156,1.45522767442153,4.28230963028474,0.5,59.961243872179
CBC_1011,CBC_1011_MSI_AV_v3_Vset3_Aset2_2024-03-20_15h53.25.911.csv,2,3,2,0,z,0,1,2,aud,A,27,1,2A,0A,0,1,z,2.88848590000089,0,1,1,1,0A,2A,A20,2.89037175789616,0.5,0.32752577391338,0.5,0.5,0.5,0.5,0.5,0.5,0.5,0.5,0.5,0.32752577391338,0.5,0.5,0.5,0.5,0.5,0.5,0.5,0.5,0.0994999422978365,0.501938672380668,0.5,0.17247422608662,0.5,0.344948452173239,1.09970156103156,1.45522767442153,4.28230963028474,0.5,59.961243872179
CBC_1011,CBC_1011_MSI_AV_v3_Vset3_Aset2_2024-03-20_15h53.25.911.csv,2,4,0,1,z,0,1,0,aud,B,63,1,0B,1B,0,1,z,2.42363359999945,0,1,1,1,1B,0B,B01,2.94443897916644,0.67247422608662,0.32752577391338,0.5,0.5,0.5,0.5,0.5,0.5,0.5,0.5,0.5,0.32752577391338,0.5,0.5,0.5,0.5,0.5,0.5,0.5,0.5,0.0992728496792758,0.500017126267873,0.5,0.17247422608662,0.5,0.344948452173239,1.09970156103156,1.45522767442153,4.28230963028474,0.5,59.961243872179
CBC_1011,CBC_1011_MSI_AV_v3_Vset3_Aset2_2024-03-20_15h53.25.911.csv,2,5,1,0,b,1,0,0,aud,B,63,1,1B,0B,1,0,b,2.12877070000104,1,0,1,1,1B,0B,B10,2.99573227355399,0.67247422608662,0.32752577391338,0.5,0.5,0.5,0.67247422608662,0.5,0.5,0.5,0.5,0.5,0.32752577391338,0.5,0.5,0.5,0.5,0.67247422608662,0.32752577391338,0.67247422608662,0.5,0.227379889354793,0.896077261446842,0.32752577391338,0.112979508758263,0.5,0.344948452173239,1.09970156103156,1.45522767442153,4.28230963028474,0.5,59.961243872179
CBC_1011,CBC_1011_MSI_AV_v3_Vset3_Aset2_2024-03-20_15h53.25.911.csv,2,6,2,3,b,1,0,1,aud,C,63,1,2C,3C,1,0,b,3.68263400000069,1,0,1,1,2C,3C,C23,2.35137525716348,0.67247422608662,0.32752577391338,0.5,0.5,0.5,0.785453734844883,0.5,0.5,0.5,0.5,0.5,0.32752577391338,0.5,0.5,0.5,0.5,0.67247422608662,0.32752577391338,0.5,0.32752577391338,0.178725906067494,0.895463439727921,0.5,0.17247422608662,0.5,0.344948452173239,1.09970156103156,1.45522767442153,4.28230963028474,0.5,59.961243872179
CBC_1011,CBC_1011_MSI_AV_v3_Vset3_Aset2_2024-03-20_15h53.25.911.csv,2,7,1,3,z,0,1,3,aud,D,27,1,1D,3D,0,1,z,2.69922750000114,0,1,1,1,3D,1D,D13,3.09104245335832,0.67247422608662,0.32752577391338,0.5,0.5,0.5,0.785453734844883,0.5,0.5,0.5,0.5,0.67247422608662,0.32752577391338,0.5,0.5,0.5,0.5,0.5,0.5,0.5,0.5,0.100551484549292,0.499097702809,0.5,0.17247422608662,0.5,0.344948452173239,1.09970156103156,1.45522767442153,4.28230963028474,0.5,59.961243872179
CBC_1011,CBC_1011_MSI_AV_v3_Vset3_Aset2_2024-03-20_15h53.25.911.csv,2,8,2,1,b,1,0,1,aud,C,9,1,2C,1C,1,0,b,2.62874470000133,1,0,1,1,2C,1C,C21,3.13549421592915,0.67247422608662,0.32752577391338,0.5,0.5,0.5,0.785453734844883,0.5,0.5,0.5,0.5,0.67247422608662,0.32752577391338,0.5,0.5,0.5,0.67247422608662,0.67247422608662,0.32752577391338,0.67247422608662,0.5,0.243483742402796,0.895300475181928,0.32752577391338,0.112979508758263,0.5,0.344948452173239,1.09970156103156,1.45522767442153,4.28230963028474,0.5,59.961243872179
CBC_1011,CBC_1011_MSI_AV_v3_Vset3_Aset2_2024-03-20_15h53.25.911.csv,2,9,1,3,b,1,0,0,aud,B,27,1,1B,3B,1,0,z,2.92734270000074,0,1,0,0,3B,1B,B13,3.17805383034795,0.67247422608662,0.32752577391338,0.5,0.5,0.5,0.785453734844883,0.5,0.5,0.5,0.5,0.785453734844883,0.32752577391338,0.5,0.5,0.5,0.67247422608662,0.214546265155117,0.785453734844883,0.5,0.785453734844883,0.0088853605886926,0.0278001841998205,-0.5,-0.17247422608662,0.5,0.344948452173239,1.09970156103156,1.45522767442153,4.28230963028474,0.5,59.961243872179
CBC_1011,CBC_1011_MSI_AV_v3_Vset3_Aset2_2024-03-20_15h53.25.911.csv,2,10,2,3,z,0,1,3,aud,D,63,1,2D,3D,0,1,z,3.47028119999959,0,1,1,1,3D,2D,D23,3.2188758248682,0.67247422608662,0.32752577391338,0.5,0.5,0.5,0.785453734844883,0.5,0.32752577391338,0.5,0.5,0.785453734844883,0.32752577391338,0.5,0.5,0.5,0.67247422608662,0.67247422608662,0.32752577391338,0.67247422608662,0.5,0.193045283545295,0.895466220619866,0.32752577391338,0.112979508758263,0.5,0.344948452173239,1.09970156103156,1.45522767442153,4.28230963028474,0.5,59.961243872179
CBC_1011,CBC_1011_MSI_AV_v3_Vset3_Aset2_2024-03-20_15h53.25.911.csv,2,11,0,1,z,0,1,0,aud,B,63,1,0B,1B,0,1,z,2.52958080000099,0,1,1,1,1B,0B,B01,2.56494935746154,0.67247422608662,0.32752577391338,0.5,0.5,0.5,0.785453734844883,0.5,0.32752577391338,0.5,0.5,0.785453734844883,0.32752577391338,0.5,0.5,0.5,0.785453734844883,0.785453734844883,0.214546265155117,0.785453734844883,0.5,0.364048015906324,0.972436669799176,0.214546265155117,0.0740074020848071,0.5,0.344948452173239,1.09970156103156,1.45522767442153,4.28230963028474,0.5,59.961243872179
CBC_1011,CBC_1011_MSI_AV_v3_Vset3_Aset2_2024-03-20_15h53.25.911.csv,2,12,2,0,b,1,0,1,aud,C,27,1,2C,0C,1,0,b,3.64369980000083,1,0,1,1,2C,0C,C20,3.29583686600433,0.67247422608662,0.32752577391338,0.5,0.5,0.5,0.85946113692969,0.5,0.32752577391338,0.5,0.5,0.785453734844883,0.32752577391338,0.5,0.5,0.5,0.785453734844883,0.785453734844883,0.214546265155117,0.785453734844883,0.5,0.210014952420407,0.972267320320936,0.214546265155117,0.0740074020848071,0.5,0.344948452173239,1.09970156103156,1.45522767442153,4.28230963028474,0.5,59.961243872179
CBC_1011,CBC_1011_MSI_AV_v3_Vset3_Aset2_2024-03-20_15h53.25.911.csv,2,13,2,3,z,0,1,3,aud,D,63,0,2D,3D,1,0,z,2.76234860000113,0,1,1,0,3D,2D,D23,2.63905732961526,0.67247422608662,0.32752577391338,0.5,0.5,0.5,0.85946113692969,0.5,0.32752577391338,0.5,0.5,0.85946113692969,0.32752577391338,0.5,0.5,0.5,0.785453734844883,0.785453734844883,0.214546265155117,0.785453734844883,0.5,0.335393076805177,0.972503051292391,-0.785453734844883,-0.270941050088432,0.5,0.344948452173239,1.09970156103156,1.45522767442153,4.28230963028474,0.5,59.961243872179
CBC_1011,CBC_1011_MSI_AV_v3_Vset3_Aset2_2024-03-20_15h53.25.911.csv,2,14,0,1,b,1,0,2,aud,A,63,1,0A,1A,1,0,b,4.00499740000123,1,0,1,1,0A,1A,A01,3.36729582998647,0.67247422608662,0.32752577391338,0.5,0.5,0.5,0.85946113692969,0.5,0.32752577391338,0.5,0.5,0.85946113692969,0.32752577391338,0.5,0.5,0.5,0.51451268475645,0.80826783657619,0.19173216342381,0.67247422608662,0.32752577391338,0.165142506152277,0.979152296325297,0.32752577391338,0.112979508758263,0.5,0.344948452173239,1.09970156103156,1.45522767442153,4.28230963028474,0.5,59.961243872179
CBC_1011,CBC_1011_MSI_AV_v3_Vset3_Aset2_2024-03-20_15h53.25.911.csv,2,15,3,2,z,0,1,1,aud,C,63,1,3C,2C,0,1,z,3.59817730000032,0,1,1,1,2C,3C,C32,3.40119738166216,0.785453734844883,0.32752577391338,0.5,0.5,0.5,0.85946113692969,0.5,0.32752577391338,0.5,0.5,0.85946113692969,0.32752577391338,0.5,0.5,0.5,0.51451268475645,0.926233289728153,0.0737667102718469,0.85946113692969,0.32752577391338,0.179806615893397,0.995072709302699,0.14053886307031,0.0484786632862904,0.5,0.344948452173239,1.09970156103156,1.45522767442153,4.28230963028474,0.5,59.961243872179
CBC_1011,CBC_1011_MSI_AV_v3_Vset3_Aset2_2024-03-20_15h53.25.911.csv,2,16,2,0,z,0,1,2,aud,A,27,1,2A,0A,0,1,z,3.04793810000047,0,1,1,1,0A,2A,A20,2.7408400239252,0.785453734844883,0.32752577391338,0.5,0.5,0.5,0.85946113692969,0.5,0.32752577391338,0.5,0.5,0.90793980021598,0.32752577391338,0.5,0.5,0.5,0.51451268475645,0.785453734844883,0.214546265155117,0.785453734844883,0.5,0.293000597696638,0.972447014498625,0.214546265155117,0.0740074020848071,0.5,0.344948452173239,1.09970156103156,1.45522767442153,4.28230963028474,0.5,59.961243872179
CBC_1011,CBC_1011_MSI_AV_v3_Vset3_Aset2_2024-03-20_15h53.25.911.csv,2,17,3,2,b,1,0,3,aud,D,63,1,3D,2D,1,0,b,2.70443489999889,1,0,1,1,3D,2D,D32,3.46573590279973,0.85946113692969,0.32752577391338,0.5,0.5,0.5,0.85946113692969,0.5,0.32752577391338,0.5,0.5,0.90793980021598,0.32752577391338,0.5,0.5,0.5,0.51451268475645,0.51451268475645,0.48548731524355,0.51451268475645,0.5,0.110264040209021,0.5459271933135,0.48548731524355,0.167468097943004,0.5,0.344948452173239,1.09970156103156,1.45522767442153,4.28230963028474,0.5,59.961243872179
CBC_1011,CBC_1011_MSI_AV_v3_Vset3_Aset2_2024-03-20_15h53.25.911.csv,2,18,2,3,z,0,1,3,aud,D,63,1,2D,3D,0,1,z,2.5094936000005,0,1,1,1,3D,2D,D23,2.39789527279837,0.85946113692969,0.32752577391338,0.5,0.5,0.5,0.85946113692969,0.5,0.32752577391338,0.5,0.5,0.90793980021598,0.32752577391338,0.5,0.5,0.5,0.681980782699454,0.681980782699454,0.318019217300546,0.681980782699454,0.5,0.256102432883055,0.906262922334421,0.318019217300546,0.109700236769168,0.5,0.344948452173239,1.09970156103156,1.45522767442153,4.28230963028474,0.5,59.961243872179
CBC_1011,CBC_1011_MSI_AV_v3_Vset3_Aset2_2024-03-20_15h53.25.911.csv,2,19,1,3,b,1,0,0,aud,B,27,1,1B,3B,1,0,b,2.69977960000142,1,0,1,1,1B,3B,B13,2.83321334405622,0.85946113692969,0.32752577391338,0.5,0.5,0.5,0.85946113692969,0.5,0.32752577391338,0.5,0.5,0.90793980021598,0.32752577391338,0.5,0.5,0.5,0.791681019468623,0.926233289728153,0.0737667102718469,0.85946113692969,0.32752577391338,0.418797236205046,0.995088451606417,0.14053886307031,0.0484786632862904,0.5,0.344948452173239,1.09970156103156,1.45522767442153,4.28230963028474,0.5,59.961243872179
CBC_1011,CBC_1011_MSI_AV_v3_Vset3_Aset2_2024-03-20_15h53.25.911.csv,2,20,3,0,b,1,0,3,aud,D,9,1,3D,0D,1,0,z,2.52790400000049,0,1,0,0,0D,3D,D30,3.55534806148941,0.85946113692969,0.32752577391338,0.5,0.5,0.5,0.90793980021598,0.5,0.32752577391338,0.5,0.5,0.90793980021598,0.32752577391338,0.5,0.5,0.5,0.791681019468623,0.208318980531377,0.791681019468623,0.5,0.791681019468623,0.00979304745818584,0.0258076531766014,-0.5,-0.17247422608662,0.5,0.344948452173239,1.09970156103156,1.45522767442153,4.28230963028474,0.5,59.961243872179
CBC_1011,CBC_1011_MSI_AV_v3_Vset3_Aset2_2024-03-20_15h53.25.911.csv,2,21,0,1,z,0,1,0,aud,B,63,1,0B,1B,0,1,z,2.83803330000046,0,1,1,1,1B,0B,B01,2.484906649788,0.85946113692969,0.32752577391338,0.5,0.5,0.5,0.90793980021598,0.5,0.32752577391338,0.5,0.5,0.90793980021598,0.32752577391338,0.32752577391338,0.5,0.5,0.791681019468623,0.90793980021598,0.0920601997840199,0.90793980021598,0.5,0.372032807720812,0.993846503579976,0.0920601997840199,0.0317560234222568,0.5,0.344948452173239,1.09970156103156,1.45522767442153,4.28230963028474,0.5,59.961243872179
CBC_1011,CBC_1011_MSI_AV_v3_Vset3_Aset2_2024-03-20_15h53.25.911.csv,2,22,0,1,b,1,0,2,aud,A,63,1,0A,1A,1,0,b,2.27680950000104,1,0,1,1,0A,1A,A01,2.91777073208428,0.85946113692969,0.32752577391338,0.5,0.5,0.5,0.939695823638237,0.5,0.32752577391338,0.5,0.5,0.90793980021598,0.32752577391338,0.32752577391338,0.5,0.5,0.791681019468623,0.926233289728153,0.0737667102718469,0.85946113692969,0.32752577391338,0.549417161770419,0.995100871652367,0.14053886307031,0.0484786632862904,0.5,0.344948452173239,1.09970156103156,1.45522767442153,4.28230963028474,0.5,59.961243872179
CBC_1011,CBC_1011_MSI_AV_v3_Vset3_Aset2_2024-03-20_15h53.25.911.csv,2,23,3,2,z,0,1,1,aud,C,63,1,3C,2C,0,1,z,2.66614280000067,0,1,1,1,2C,3C,C32,2.94443897916644,0.90793980021598,0.32752577391338,0.5,0.5,0.5,0.939695823638237,0.5,0.32752577391338,0.5,0.5,0.90793980021598,0.32752577391338,0.32752577391338,0.5,0.5,0.791681019468623,0.952940172363612,0.0470598276363885,0.90793980021598,0.32752577391338,0.434916824282265,0.996493768328372,0.0920601997840199,0.0317560234222568,0.5,0.344948452173239,1.09970156103156,1.45522767442153,4.28230963028474,0.5,59.961243872179
CBC_1011,CBC_1011_MSI_AV_v3_Vset3_Aset2_2024-03-20_15h53.25.911.csv,2,24,2,0,z,0,1,2,aud,A,27,1,2A,0A,0,1,z,2.35968800000046,0,1,1,1,0A,2A,A20,2.56494935746154,0.90793980021598,0.32752577391338,0.5,0.5,0.5,0.939695823638237,0.5,0.32752577391338,0.5,0.5,0.939695823638237,0.32752577391338,0.32752577391338,0.5,0.5,0.791681019468623,0.90793980021598,0.0920601997840199,0.90793980021598,0.5,0.51172642413113,0.993823504512957,0.0920601997840199,0.0317560234222568,0.5,0.344948452173239,1.09970156103156,1.45522767442153,4.28230963028474,0.5,59.961243872179
CBC_1011,CBC_1011_MSI_AV_v3_Vset3_Aset2_2024-03-20_15h53.25.911.csv,2,25,0,1,z,0,1,0,aud,B,63,1,0B,1B,0,1,z,2.91367420000097,0,1,1,1,1B,0B,B01,2.30258509299405,0.939695823638237,0.32752577391338,0.5,0.5,0.5,0.939695823638237,0.5,0.32752577391338,0.5,0.5,0.939695823638237,0.32752577391338,0.32752577391338,0.5,0.5,0.791681019468623,0.939695823638237,0.0603041763617631,0.939695823638237,0.5,0.34652278655186,0.995834776878811,0.0603041763617631,0.0208018322955722,0.5,0.344948452173239,1.09970156103156,1.45522767442153,4.28230963028474,0.5,59.961243872179
CBC_1011,CBC_1011_MSI_AV_v3_Vset3_Aset2_2024-03-20_15h53.25.911.csv,2,26,3,2,b,1,0,3,aud,D,63,1,3D,2D,1,0,b,2.54728260000047,1,0,1,1,3D,2D,D32,3.02042488614436,0.939695823638237,0.32752577391338,0.5,0.5,0.5,0.960497655933809,0.5,0.32752577391338,0.5,0.5,0.939695823638237,0.32752577391338,0.32752577391338,0.5,0.5,0.791681019468623,0.791681019468623,0.208318980531377,0.791681019468623,0.5,0.367644733678448,0.974216372760208,0.208318980531377,0.0718593098926058,0.5,0.344948452173239,1.09970156103156,1.45522767442153,4.28230963028474,0.5,59.961243872179
CBC_1011,CBC_1011_MSI_AV_v3_Vset3_Aset2_2024-03-20_15h53.25.911.csv,2,27,2,1,z,0,1,0,aud,B,9,1,2B,1B,0,1,z,2.64419970000017,0,1,1,1,1B,2B,B21,3.73766961828337,0.939695823638237,0.32752577391338,0.5,0.5,0.5,0.960497655933809,0.5,0.32752577391338,0.5,0.5,0.939695823638237,0.32752577391338,0.32752577391338,0.5,0.5,0.863540329361228,0.960497655933809,0.0395023440661909,0.960497655933809,0.5,0.444296745223778,0.996800949879968,0.0395023440661909,0.0136262724428473,0.5,0.344948452173239,1.09970156103156,1.45522767442153,4.28230963028474,0.5,59.961243872179
CBC_1011,CBC_1011_MSI_AV_v3_Vset3_Aset2_2024-03-20_15h53.25.911.csv,2,28,3,1,b,1,0,3,aud,D,27,1,3D,1D,1,0,b,2.64473880000151,1,0,1,1,3D,1D,D31,3.76120011569356,0.939695823638237,0.32752577391338,0.5,0.5,0.5,0.974123928376656,0.5,0.32752577391338,0.5,0.5,0.939695823638237,0.32752577391338,0.32752577391338,0.5,0.5,0.863540329361228,0.863540329361228,0.136459670638772,0.863540329361228,0.5,0.409327782238709,0.989338877554946,0.136459670638772,0.0470715521709143,0.5,0.344948452173239,1.09970156103156,1.45522767442153,4.28230963028474,0.5,59.961243872179
CBC_1011,CBC_1011_MSI_AV_v3_Vset3_Aset2_2024-03-20_15h53.25.911.csv,2,29,0,1,b,1,0,2,aud,A,63,1,0A,1A,1,0,b,2.35544720000144,1,0,1,1,0A,1A,A01,2.68557734525015,0.939695823638237,0.32752577391338,0.5,0.5,0.5,0.974123928376656,0.5,0.32752577391338,0.5,0.5,0.939695823638237,0.32752577391338,0.32752577391338,0.5,0.5,0.910611881532143,0.969691562476362,0.0303084375236378,0.939695823638237,0.32752577391338,0.564870384415035,0.997133731494466,0.0603041763617631,0.0208018322955722,0.5,0.344948452173239,1.09970156103156,1.45522767442153,4.28230963028474,0.5,59.961243872179
CBC_1011,CBC_1011_MSI_AV_v3_Vset3_Aset2_2024-03-20_15h53.25.911.csv,2,30,1,0,z,0,1,2,aud,A,63,1,1A,0A,0,1,z,2.40148370000134,0,1,1,1,0A,1A,A10,3.11351530921037,0.960497655933809,0.32752577391338,0.5,0.5,0.5,0.974123928376656,0.5,0.32752577391338,0.5,0.5,0.939695823638237,0.32752577391338,0.32752577391338,0.5,0.5,0.910611881532143,0.98036263793472,0.0196373620652804,0.960497655933809,0.32752577391338,0.552877211428077,0.997501583407532,0.0395023440661909,0.0136262724428473,0.5,0.344948452173239,1.09970156103156,1.45522767442153,4.28230963028474,0.5,59.961243872179
CBC_1011,CBC_1011_MSI_AV_v3_Vset3_Aset2_2024-03-20_15h53.25.911.csv,2,31,2,0,b,1,0,1,aud,C,27,1,2C,0C,1,0,b,3.16907800000081,1,0,1,1,2C,0C,C20,3.13549421592915,0.974123928376656,0.32752577391338,0.5,0.5,0.5,0.974123928376656,0.5,0.32752577391338,0.5,0.5,0.939695823638237,0.32752577391338,0.32752577391338,0.5,0.5,0.910611881532143,0.939695823638237,0.0603041763617631,0.939695823638237,0.5,0.269578731560246,0.995844471132901,0.0603041763617631,0.0208018322955722,0.5,0.344948452173239,1.09970156103156,1.45522767442153,4.28230963028474,0.5,59.961243872179
CBC_1011,CBC_1011_MSI_AV_v3_Vset3_Aset2_2024-03-20_15h53.25.911.csv,2,32,0,1,b,1,0,2,aud,A,63,1,0A,1A,NaN,NaN,[],NaN,NaN,NaN,NaN,NaN,,,A01,2.46385324059017,0.974123928376656,0.32752577391338,0.5,0.5,0.5,0.974123928376656,0.5,0.32752577391338,0.5,0.5,0.960497655933809,0.32752577391338,0.32752577391338,0.5,0.5,0.910611881532143,0,0,0,0,NaN,0,0,0,0.5,0.344948452173239,1.09970156103156,1.45522767442153,4.28230963028474,0.5,59.961243872179
CBC_1011,CBC_1011_MSI_AV_v3_Vset3_Aset2_2024-03-20_15h53.25.911.csv,2,33,0,1,z,0,1,0,aud,B,63,1,0B,1B,0,1,z,2.83556410000165,0,1,1,1,1B,0B,B01,2.26176309847379,0.974123928376656,0.32752577391338,0.5,0.5,0.5,0.974123928376656,0.5,0.32752577391338,0.5,0.5,0.960497655933809,0.32752577391338,0.32752577391338,0.5,0.5,0.910611881532143,0.974123928376656,0.0258760716233436,0.974123928376656,0.5,0.366684093546054,0.997280077809536,0.0258760716233436,0.00892591085479626,0.5,0.344948452173239,1.09970156103156,1.45522767442153,4.28230963028474,0.5,59.961243872179
CBC_1011,CBC_1011_MSI_AV_v3_Vset3_Aset2_2024-03-20_15h53.25.911.csv,2,34,2,3,z,0,1,3,aud,D,63,1,2D,3D,0,1,z,3.13781139999992,0,1,1,1,3D,2D,D23,2.50552593699074,0.974123928376656,0.32752577391338,0.5,0.5,0.5,0.983049839231453,0.5,0.32752577391338,0.5,0.5,0.960497655933809,0.32752577391338,0.32752577391338,0.5,0.5,0.910611881532143,0.910611881532143,0.0893881184678572,0.910611881532143,0.5,0.287278314833917,0.994047691760794,0.0893881184678572,0.0308342931081655,0.5,0.344948452173239,1.09970156103156,1.45522767442153,4.28230963028474,0.5,59.961243872179
CBC_1011,CBC_1011_MSI_AV_v3_Vset3_Aset2_2024-03-20_15h53.25.911.csv,2,35,1,3,b,1,0,0,aud,B,27,1,1B,3B,1,0,b,2.96168940000098,1,0,1,1,1B,3B,B13,2.81341071676004,0.974123928376656,0.32752577391338,0.5,0.5,0.5,0.983049839231453,0.5,0.32752577391338,0.5,0.5,0.960497655933809,0.32752577391338,0.32752577391338,0.5,0.5,0.941446174640308,0.991672086380802,0.00832791361919771,0.983049839231453,0.32752577391338,0.312642949877087,0.997804533093178,0.0169501607685474,0.00584693172119798,0.5,0.344948452173239,1.09970156103156,1.45522767442153,4.28230963028474,0.5,59.961243872179
CBC_1011,CBC_1011_MSI_AV_v3_Vset3_Aset2_2024-03-20_15h53.25.911.csv,2,36,2,3,b,1,0,1,aud,C,63,1,2C,3C,1,0,b,2.71547720000126,1,0,1,1,2C,3C,C23,2.83321334405622,0.974123928376656,0.32752577391338,0.5,0.5,0.5,0.988896770952651,0.5,0.32752577391338,0.5,0.5,0.960497655933809,0.32752577391338,0.32752577391338,0.5,0.5,0.941446174640308,0.98036263793472,0.0196373620652804,0.960497655933809,0.32752577391338,0.414004842716841,0.997515672258813,0.0395023440661909,0.0136262724428473,0.5,0.344948452173239,1.09970156103156,1.45522767442153,4.28230963028474,0.5,59.961243872179
CBC_1011,CBC_1011_MSI_AV_v3_Vset3_Aset2_2024-03-20_15h53.25.911.csv,2,37,0,2,z,0,1,1,aud,C,27,1,0C,2C,0,1,z,2.47102600000107,0,1,1,1,2C,0C,C02,3.95124371858143,0.974123928376656,0.32752577391338,0.5,0.5,0.5,0.988896770952651,0.5,0.32752577391338,0.5,0.5,0.974123928376656,0.32752577391338,0.32752577391338,0.5,0.5,0.941446174640308,0.974123928376656,0.0258760716233436,0.974123928376656,0.5,0.519862149261372,0.99727679240538,0.0258760716233436,0.00892591085479626,0.5,0.344948452173239,1.09970156103156,1.45522767442153,4.28230963028474,0.5,59.961243872179
CBC_1011,CBC_1011_MSI_AV_v3_Vset3_Aset2_2024-03-20_15h53.25.911.csv,2,38,0,1,z,0,1,0,aud,B,63,1,0B,1B,0,1,z,2.65121240000008,0,1,1,1,1B,0B,B01,2.17853244432407,0.974123928376656,0.32752577391338,0.5,0.5,0.5,0.988896770952651,0.5,0.32752577391338,0.5,0.5,0.983049839231453,0.32752577391338,0.32752577391338,0.5,0.5,0.941446174640308,0.988896770952651,0.0111032290473494,0.988896770952651,0.5,0.441399981668945,0.997735363260895,0.0111032290473494,0.00383004167400812,0.5,0.344948452173239,1.09970156103156,1.45522767442153,4.28230963028474,0.5,59.961243872179
CBC_1011,CBC_1011_MSI_AV_v3_Vset3_Aset2_2024-03-20_15h53.25.911.csv,2,39,0,3,b,1,0,2,aud,A,9,1,0A,3A,1,0,b,2.45966840000074,1,0,1,1,0A,3A,A03,3.98898404656427,0.974123928376656,0.32752577391338,0.5,0.5,0.5,0.992726812626659,0.5,0.32752577391338,0.5,0.5,0.983049839231453,0.32752577391338,0.32752577391338,0.5,0.5,0.941446174640308,0.974123928376656,0.0258760716233436,0.974123928376656,0.5,0.524814163564624,0.997284370541588,0.0258760716233436,0.00892591085479626,0.5,0.344948452173239,1.09970156103156,1.45522767442153,4.28230963028474,0.5,59.961243872179
CBC_1011,CBC_1011_MSI_AV_v3_Vset3_Aset2_2024-03-20_15h53.25.911.csv,2,40,2,3,b,1,0,1,aud,C,63,0,2C,3C,0,1,b,2.84584449999966,1,0,1,0,2C,3C,C23,2.62103882411258,0.983049839231453,0.32752577391338,0.5,0.5,0.5,0.992726812626659,0.5,0.32752577391338,0.5,0.5,0.983049839231453,0.32752577391338,0.32752577391338,0.5,0.5,0.941446174640308,0.991672086380802,0.00832791361919771,0.983049839231453,0.32752577391338,0.356921361112492,0.997819551606756,-0.983049839231453,-0.339101520452041,0.5,0.344948452173239,1.09970156103156,1.45522767442153,4.28230963028474,0.5,59.961243872179
CBC_1011,CBC_1011_MSI_AV_v3_Vset3_Aset2_2024-03-20_15h53.25.911.csv,2,41,0,1,b,1,0,2,aud,A,63,1,0A,1A,NaN,NaN,[],NaN,NaN,NaN,NaN,NaN,,,A01,2.41591377830105,0.983049839231453,0.32752577391338,0.5,0.5,0.5,0.992726812626659,0.5,0.32752577391338,0.5,0.5,0.643948318779411,0.32752577391338,0.32752577391338,0.5,0.5,0.941446174640308,0,0,0,0,NaN,0,0,0,0.5,0.344948452173239,1.09970156103156,1.45522767442153,4.28230963028474,0.5,59.961243872179
CBC_1011,CBC_1011_MSI_AV_v3_Vset3_Aset2_2024-03-20_15h53.25.911.csv,2,42,2,3,z,0,1,3,aud,D,63,1,2D,3D,0,1,z,3.26224840000032,0,1,1,1,3D,2D,D23,2.43361335540045,0.983049839231453,0.32752577391338,0.5,0.5,0.5,0.992726812626659,0.5,0.32752577391338,0.5,0.5,0.643948318779411,0.32752577391338,0.32752577391338,0.5,0.5,0.941446174640308,0.941446174640308,0.0585538253596917,0.941446174640308,0.5,0.244194426723379,0.995957711534799,0.0585538253596917,0.0201980514266478,0.5,0.344948452173239,1.09970156103156,1.45522767442153,4.28230963028474,0.5,59.961243872179
CBC_1011,CBC_1011_MSI_AV_v3_Vset3_Aset2_2024-03-20_15h53.25.911.csv,2,43,3,2,z,0,1,1,aud,C,63,1,3C,2C,0,1,z,2.57405260000087,0,1,1,1,2C,3C,C32,2.96183072187831,0.983049839231453,0.32752577391338,0.5,0.5,0.5,0.992726812626659,0.5,0.32752577391338,0.5,0.5,0.643948318779411,0.32752577391338,0.32752577391338,0.5,0.5,0.961644226066956,0.787837542572455,0.212162457427545,0.643948318779411,0.32752577391338,0.361000384229917,0.973007987354961,0.356051681220589,0.122819476330722,0.5,0.344948452173239,1.09970156103156,1.45522767442153,4.28230963028474,0.5,59.961243872179
CBC_1011,CBC_1011_MSI_AV_v3_Vset3_Aset2_2024-03-20_15h53.25.911.csv,2,44,3,1,b,1,0,3,aud,D,27,1,3D,1D,1,0,b,2.63655910000125,1,0,1,1,3D,1D,D31,3.38439026334577,0.983049839231453,0.32752577391338,0.5,0.5,0.5,0.992726812626659,0.5,0.32752577391338,0.5,0.5,0.766767795110133,0.32752577391338,0.32752577391338,0.5,0.5,0.961644226066956,0.961644226066956,0.0383557739330439,0.961644226066956,0.5,0.447521375485086,0.996853732362062,0.0383557739330439,0.0132307648501102,0.5,0.344948452173239,1.09970156103156,1.45522767442153,4.28230963028474,0.5,59.961243872179
