ID,filename,session,trial,visStimLeft,visStimRight,correctKey,leftCorrect,rightCorrect,secondStim,mod2Type,mod2Stim,frequency,rewardAccurate,stimPairLeft,stimPairRight,pCorrectLeft,pCorrectRight,key,reactionTime,choiceLeft,choiceRight,choiceAccurate,reward,chosenPair,otherPair,triplet,surprise,0A belief,1A belief,2A belief,3A belief,0B belief,1B belief,2B belief,3B belief,0C belief,1C belief,2C belief,3C belief,0D belief,1D belief,2D belief,3D belief,beliefPairNorm,beliefOtherPairNorm,beliefPair,beliefOtherPair,lik,corrLik,rewardPE,update2,fitCBCsimpleRW_CBCdriftDiffusionLR_startBelief,fitCBCsimpleRW_CBCdriftDiffusionLR_alpha1,fitCBCsimpleRW_CBCdriftDiffusionLR_nonDecisionTime,fitCBCsimpleRW_CBCdriftDiffusionLR_weight,fitCBCsimpleRW_CBCdriftDiffusionLR_startingBoundary,fitCBCsimpleRW_CBCdriftDiffusionLR_startingPoint,fit_CBCsimpleRW_CBCdriftDiffusionLR_NLL
CBC_1054,CBC_1054_MSI_TV_v3_Vset5_Tset2_2024-03-03_10h27.49.019.csv,1,1,0,1,b,1,0,1,tac,A,63,1,0A,1A,1,0,b,2.27460690000134,1,0,1,1,0A,1A,A01,2.77258872223978,0.5,0.5,0.5,0.5,0.5,0.5,0.5,0.5,0.5,0.5,0.5,0.5,0.5,0.5,0.5,0.5,0.5,0.5,0.5,0.5,0.196092582210192,0.49962231346447,0.5,0.0231129840708072,0.5,0.0462259681416144,1.0941421025249,3.16489793989891,2.24779552994436,0.5,72.7908677893749
CBC_1054,CBC_1054_MSI_TV_v3_Vset5_Tset2_2024-03-03_10h27.49.019.csv,1,2,2,3,z,0,1,2,tac,D,63,1,2D,3D,0,1,z,2.65640070000063,0,1,1,1,3D,2D,D23,2.83321334405622,0.523112984070807,0.5,0.5,0.5,0.5,0.5,0.5,0.5,0.5,0.5,0.5,0.5,0.5,0.5,0.5,0.5,0.5,0.5,0.5,0.5,0.135046019762944,0.499443196162986,0.5,0.0231129840708072,0.5,0.0462259681416144,1.0941421025249,3.16489793989891,2.24779552994436,0.5,72.7908677893749
CBC_1054,CBC_1054_MSI_TV_v3_Vset5_Tset2_2024-03-03_10h27.49.019.csv,1,3,0,2,z,0,1,3,tac,C,27,1,0C,2C,0,1,z,2.76712080000016,0,1,1,1,2C,0C,C02,2.89037175789616,0.523112984070807,0.5,0.5,0.5,0.5,0.5,0.5,0.5,0.5,0.5,0.5,0.5,0.5,0.5,0.5,0.523112984070807,0.5,0.5,0.5,0.5,0.121361646760809,0.500087664111736,0.5,0.0231129840708072,0.5,0.0462259681416144,1.0941421025249,3.16489793989891,2.24779552994436,0.5,72.7908677893749
CBC_1054,CBC_1054_MSI_TV_v3_Vset5_Tset2_2024-03-03_10h27.49.019.csv,1,4,0,1,b,1,0,1,tac,A,63,1,0A,1A,1,0,z,2.08436930000062,0,1,0,0,1A,0A,A01,2.2512917986065,0.523112984070807,0.5,0.5,0.5,0.5,0.5,0.5,0.5,0.5,0.5,0.523112984070807,0.5,0.5,0.5,0.5,0.523112984070807,0.488704578853626,0.511295421146374,0.5,0.523112984070807,0.217577389924808,0.460520733542282,-0.5,-0.0231129840708072,0.5,0.0462259681416144,1.0941421025249,3.16489793989891,2.24779552994436,0.5,72.7908677893749
CBC_1054,CBC_1054_MSI_TV_v3_Vset5_Tset2_2024-03-03_10h27.49.019.csv,1,5,1,3,b,1,0,0,tac,B,27,1,1B,3B,1,0,b,3.02775860000111,1,0,1,1,1B,3B,B13,2.99573227355399,0.523112984070807,0.476887015929193,0.5,0.5,0.5,0.5,0.5,0.5,0.5,0.5,0.523112984070807,0.5,0.5,0.5,0.5,0.523112984070807,0.5,0.5,0.5,0.5,0.094224580184107,0.500820019783846,0.5,0.0231129840708072,0.5,0.0462259681416144,1.0941421025249,3.16489793989891,2.24779552994436,0.5,72.7908677893749
CBC_1054,CBC_1054_MSI_TV_v3_Vset5_Tset2_2024-03-03_10h27.49.019.csv,1,6,3,2,z,0,1,3,tac,C,63,1,3C,2C,0,1,z,2.60212950000005,0,1,1,1,2C,3C,C32,3.04452243772342,0.523112984070807,0.476887015929193,0.5,0.5,0.5,0.523112984070807,0.5,0.5,0.5,0.5,0.523112984070807,0.5,0.5,0.5,0.5,0.523112984070807,0.511295421146374,0.488704578853626,0.523112984070807,0.5,0.153799381449041,0.539772742381882,0.476887015929193,0.0220445640054924,0.5,0.0462259681416144,1.0941421025249,3.16489793989891,2.24779552994436,0.5,72.7908677893749
CBC_1054,CBC_1054_MSI_TV_v3_Vset5_Tset2_2024-03-03_10h27.49.019.csv,1,7,3,2,b,1,0,2,tac,D,63,1,3D,2D,1,0,b,2.05612420000034,1,0,1,1,3D,2D,D32,3.09104245335832,0.523112984070807,0.476887015929193,0.5,0.5,0.5,0.523112984070807,0.5,0.5,0.5,0.5,0.5451575480763,0.5,0.5,0.5,0.5,0.523112984070807,0.511295421146374,0.488704578853626,0.523112984070807,0.5,0.262211962126868,0.540018330852591,0.476887015929193,0.0220445640054924,0.5,0.0462259681416144,1.0941421025249,3.16489793989891,2.24779552994436,0.5,72.7908677893749
CBC_1054,CBC_1054_MSI_TV_v3_Vset5_Tset2_2024-03-03_10h27.49.019.csv,1,8,0,1,z,0,1,0,tac,B,63,1,0B,1B,0,1,z,2.15701270000045,0,1,1,1,1B,0B,B01,3.13549421592915,0.523112984070807,0.476887015929193,0.5,0.5,0.5,0.523112984070807,0.5,0.5,0.5,0.5,0.5451575480763,0.5,0.5,0.5,0.5,0.5451575480763,0.511295421146374,0.488704578853626,0.523112984070807,0.5,0.238057822801166,0.540691411350922,0.476887015929193,0.0220445640054924,0.5,0.0462259681416144,1.0941421025249,3.16489793989891,2.24779552994436,0.5,72.7908677893749
CBC_1054,CBC_1054_MSI_TV_v3_Vset5_Tset2_2024-03-03_10h27.49.019.csv,1,9,2,0,z,0,1,1,tac,A,27,1,2A,0A,0,1,b,2.79823120000037,1,0,0,0,2A,0A,A20,3.17805383034795,0.523112984070807,0.476887015929193,0.5,0.5,0.5,0.5451575480763,0.5,0.5,0.5,0.5,0.5451575480763,0.5,0.5,0.5,0.5,0.5451575480763,0.488704578853626,0.511295421146374,0.5,0.523112984070807,0.108084992837087,0.459645562445261,-0.5,-0.0231129840708072,0.5,0.0462259681416144,1.0941421025249,3.16489793989891,2.24779552994436,0.5,72.7908677893749
CBC_1054,CBC_1054_MSI_TV_v3_Vset5_Tset2_2024-03-03_10h27.49.019.csv,1,10,3,0,b,1,0,2,tac,D,9,1,3D,0D,1,0,z,3.0741366000002,0,1,0,0,0D,3D,D30,3.2188758248682,0.523112984070807,0.476887015929193,0.476887015929193,0.5,0.5,0.5451575480763,0.5,0.5,0.5,0.5,0.5451575480763,0.5,0.5,0.5,0.5,0.5451575480763,0.478396774649231,0.521603225350769,0.5,0.5451575480763,0.0756819813515471,0.423752961972125,-0.5,-0.0231129840708072,0.5,0.0462259681416144,1.0941421025249,3.16489793989891,2.24779552994436,0.5,72.7908677893749
CBC_1054,CBC_1054_MSI_TV_v3_Vset5_Tset2_2024-03-03_10h27.49.019.csv,1,11,2,3,b,1,0,3,tac,C,63,1,2C,3C,1,0,b,3.06897709999976,1,0,1,1,2C,3C,C23,3.25809653802148,0.523112984070807,0.476887015929193,0.476887015929193,0.5,0.5,0.5451575480763,0.5,0.5,0.5,0.5,0.5451575480763,0.5,0.476887015929193,0.5,0.5,0.5451575480763,0.521603225350769,0.478396774649231,0.5451575480763,0.5,0.103462741767314,0.576374484292587,0.4548424519237,0.0210255326920788,0.5,0.0462259681416144,1.0941421025249,3.16489793989891,2.24779552994436,0.5,72.7908677893749
CBC_1054,CBC_1054_MSI_TV_v3_Vset5_Tset2_2024-03-03_10h27.49.019.csv,1,12,0,1,z,0,1,0,tac,B,63,1,0B,1B,0,1,z,2.33694210000067,0,1,1,1,1B,0B,B01,2.60268968544438,0.523112984070807,0.476887015929193,0.476887015929193,0.5,0.5,0.5451575480763,0.5,0.5,0.5,0.5,0.566183080768378,0.5,0.476887015929193,0.5,0.5,0.5451575480763,0.521603225350769,0.478396774649231,0.5451575480763,0.5,0.21281701752068,0.576123743137839,0.4548424519237,0.0210255326920788,0.5,0.0462259681416144,1.0941421025249,3.16489793989891,2.24779552994436,0.5,72.7908677893749
CBC_1054,CBC_1054_MSI_TV_v3_Vset5_Tset2_2024-03-03_10h27.49.019.csv,1,13,2,3,z,0,1,2,tac,D,63,1,2D,3D,0,1,b,2.66775039999993,1,0,0,0,2D,3D,D23,2.63905732961526,0.523112984070807,0.476887015929193,0.476887015929193,0.5,0.5,0.566183080768378,0.5,0.5,0.5,0.5,0.566183080768378,0.5,0.476887015929193,0.5,0.5,0.5451575480763,0.478396774649231,0.521603225350769,0.5,0.5451575480763,0.113114095170287,0.424227694285756,-0.5,-0.0231129840708072,0.5,0.0462259681416144,1.0941421025249,3.16489793989891,2.24779552994436,0.5,72.7908677893749
CBC_1054,CBC_1054_MSI_TV_v3_Vset5_Tset2_2024-03-03_10h27.49.019.csv,1,14,2,3,b,1,0,3,tac,C,63,1,2C,3C,1,0,b,2.96942459999991,1,0,1,1,2C,3C,C23,2.67414864942653,0.523112984070807,0.476887015929193,0.476887015929193,0.5,0.5,0.566183080768378,0.5,0.5,0.5,0.5,0.566183080768378,0.5,0.476887015929193,0.5,0.476887015929193,0.5451575480763,0.531037390276669,0.468962609723331,0.566183080768378,0.5,0.119697299863422,0.6081719211453,0.433816919231622,0.0200536070876942,0.5,0.0462259681416144,1.0941421025249,3.16489793989891,2.24779552994436,0.5,72.7908677893749
CBC_1054,CBC_1054_MSI_TV_v3_Vset5_Tset2_2024-03-03_10h27.49.019.csv,1,15,3,1,z,0,1,0,tac,B,27,1,3B,1B,0,1,z,2.39124690000062,0,1,1,1,1B,3B,B31,3.40119738166216,0.523112984070807,0.476887015929193,0.476887015929193,0.5,0.5,0.566183080768378,0.5,0.5,0.5,0.5,0.586236687856073,0.5,0.476887015929193,0.5,0.476887015929193,0.5451575480763,0.531037390276669,0.468962609723331,0.566183080768378,0.5,0.213010980400828,0.608625861164112,0.433816919231622,0.0200536070876942,0.5,0.0462259681416144,1.0941421025249,3.16489793989891,2.24779552994436,0.5,72.7908677893749
CBC_1054,CBC_1054_MSI_TV_v3_Vset5_Tset2_2024-03-03_10h27.49.019.csv,1,16,0,3,b,1,0,1,tac,A,9,1,0A,3A,1,0,b,1.77079229999981,1,0,1,1,0A,3A,A03,3.43398720448515,0.523112984070807,0.476887015929193,0.476887015929193,0.5,0.5,0.586236687856073,0.5,0.5,0.5,0.5,0.586236687856073,0.5,0.476887015929193,0.5,0.476887015929193,0.5451575480763,0.511295421146374,0.488704578853626,0.523112984070807,0.5,0.342526157068437,0.540766274211243,0.476887015929193,0.0220445640054924,0.5,0.0462259681416144,1.0941421025249,3.16489793989891,2.24779552994436,0.5,72.7908677893749
CBC_1054,CBC_1054_MSI_TV_v3_Vset5_Tset2_2024-03-03_10h27.49.019.csv,1,17,2,3,z,0,1,2,tac,D,63,1,2D,3D,0,1,b,3.03768780000064,1,0,0,0,2D,3D,D23,2.36712361413162,0.5451575480763,0.476887015929193,0.476887015929193,0.5,0.5,0.586236687856073,0.5,0.5,0.5,0.5,0.586236687856073,0.5,0.476887015929193,0.5,0.476887015929193,0.5451575480763,0.466601000312771,0.533398999687229,0.476887015929193,0.5451575480763,0.0703506052823039,0.383447634437912,-0.476887015929193,-0.0220445640054924,0.5,0.0462259681416144,1.0941421025249,3.16489793989891,2.24779552994436,0.5,72.7908677893749
CBC_1054,CBC_1054_MSI_TV_v3_Vset5_Tset2_2024-03-03_10h27.49.019.csv,1,18,0,2,z,0,1,3,tac,C,27,1,0C,2C,0,1,z,1.84963170000083,0,1,1,1,2C,0C,C02,2.80336038090653,0.5451575480763,0.476887015929193,0.476887015929193,0.5,0.5,0.586236687856073,0.5,0.5,0.5,0.5,0.586236687856073,0.5,0.476887015929193,0.5,0.4548424519237,0.5451575480763,0.539695164424192,0.460304835575808,0.586236687856073,0.5,0.381729109515762,0.637384779000699,0.413763312143927,0.019126609685334,0.5,0.0462259681416144,1.0941421025249,3.16489793989891,2.24779552994436,0.5,72.7908677893749
CBC_1054,CBC_1054_MSI_TV_v3_Vset5_Tset2_2024-03-03_10h27.49.019.csv,1,19,0,1,b,1,0,1,tac,A,63,1,0A,1A,1,0,b,2.31717900000058,1,0,1,1,0A,1A,A01,2.42774823594805,0.5451575480763,0.476887015929193,0.476887015929193,0.5,0.5,0.586236687856073,0.5,0.5,0.5,0.5,0.605363297541407,0.5,0.476887015929193,0.5,0.4548424519237,0.5451575480763,0.533398999687229,0.466601000312771,0.5451575480763,0.476887015929193,0.232472901105789,0.617017729056675,0.4548424519237,0.0210255326920788,0.5,0.0462259681416144,1.0941421025249,3.16489793989891,2.24779552994436,0.5,72.7908677893749
CBC_1054,CBC_1054_MSI_TV_v3_Vset5_Tset2_2024-03-03_10h27.49.019.csv,1,20,1,0,b,1,0,0,tac,B,63,0,1B,0B,0,1,z,3.14275610000095,0,1,0,1,0B,1B,B10,3.55534806148941,0.566183080768378,0.476887015929193,0.476887015929193,0.5,0.5,0.586236687856073,0.5,0.5,0.5,0.5,0.605363297541407,0.5,0.476887015929193,0.5,0.4548424519237,0.5451575480763,0.460304835575808,0.539695164424192,0.5,0.586236687856073,0.0592398227558034,0.361468550631542,0.5,0.0231129840708072,0.5,0.0462259681416144,1.0941421025249,3.16489793989891,2.24779552994436,0.5,72.7908677893749
CBC_1054,CBC_1054_MSI_TV_v3_Vset5_Tset2_2024-03-03_10h27.49.019.csv,1,21,3,1,b,1,0,2,tac,D,27,1,3D,1D,1,0,z,2.66496540000026,0,1,0,0,1D,3D,D31,3.58351893845611,0.566183080768378,0.476887015929193,0.476887015929193,0.5,0.523112984070807,0.586236687856073,0.5,0.5,0.5,0.5,0.605363297541407,0.5,0.476887015929193,0.5,0.4548424519237,0.5451575480763,0.478396774649231,0.521603225350769,0.5,0.5451575480763,0.113784874163583,0.425530273868463,-0.5,-0.0231129840708072,0.5,0.0462259681416144,1.0941421025249,3.16489793989891,2.24779552994436,0.5,72.7908677893749
CBC_1054,CBC_1054_MSI_TV_v3_Vset5_Tset2_2024-03-03_10h27.49.019.csv,1,22,3,2,z,0,1,3,tac,C,63,1,3C,2C,0,1,z,1.31443920000038,0,1,1,1,2C,3C,C32,2.91777073208428,0.566183080768378,0.476887015929193,0.476887015929193,0.5,0.523112984070807,0.586236687856073,0.5,0.5,0.5,0.5,0.605363297541407,0.5,0.476887015929193,0.476887015929193,0.4548424519237,0.5451575480763,0.547660030768056,0.452339969231944,0.605363297541407,0.5,0.341994719975021,0.662316063617906,0.394636702458593,0.0182424636353627,0.5,0.0462259681416144,1.0941421025249,3.16489793989891,2.24779552994436,0.5,72.7908677893749
CBC_1054,CBC_1054_MSI_TV_v3_Vset5_Tset2_2024-03-03_10h27.49.019.csv,1,23,0,1,z,0,1,0,tac,B,63,1,0B,1B,0,1,b,3.13673930000095,1,0,0,0,0B,1B,B01,2.53897387105828,0.566183080768378,0.476887015929193,0.476887015929193,0.5,0.523112984070807,0.586236687856073,0.5,0.5,0.5,0.5,0.623605761176769,0.5,0.476887015929193,0.476887015929193,0.4548424519237,0.5451575480763,0.471549230426317,0.528450769573683,0.523112984070807,0.586236687856073,0.0668263808347956,0.400165726891925,-0.523112984070807,-0.024181404136122,0.5,0.0462259681416144,1.0941421025249,3.16489793989891,2.24779552994436,0.5,72.7908677893749
CBC_1054,CBC_1054_MSI_TV_v3_Vset5_Tset2_2024-03-03_10h27.49.019.csv,1,24,0,2,b,1,0,1,tac,A,27,1,0A,2A,1,0,z,2.1094705000005,0,1,0,0,2A,0A,A02,3.66356164612965,0.566183080768378,0.476887015929193,0.476887015929193,0.5,0.498931579934685,0.586236687856073,0.5,0.5,0.5,0.5,0.623605761176769,0.5,0.476887015929193,0.476887015929193,0.4548424519237,0.5451575480763,0.457195558993637,0.542804441006363,0.476887015929193,0.566183080768378,0.163698903146539,0.352266956056925,-0.476887015929193,-0.0220445640054924,0.5,0.0462259681416144,1.0941421025249,3.16489793989891,2.24779552994436,0.5,72.7908677893749
CBC_1054,CBC_1054_MSI_TV_v3_Vset5_Tset2_2024-03-03_10h27.49.019.csv,1,25,3,2,b,1,0,2,tac,D,63,1,3D,2D,1,0,z,2.70778010000049,0,1,0,0,2D,3D,D32,2.99573227355399,0.566183080768378,0.476887015929193,0.4548424519237,0.5,0.498931579934685,0.586236687856073,0.5,0.5,0.5,0.5,0.623605761176769,0.5,0.476887015929193,0.476887015929193,0.4548424519237,0.5451575480763,0.4548424519237,0.5451575480763,0.4548424519237,0.5451575480763,0.0873468241288368,0.344842509792915,-0.4548424519237,-0.0210255326920787,0.5,0.0462259681416144,1.0941421025249,3.16489793989891,2.24779552994436,0.5,72.7908677893749
CBC_1054,CBC_1054_MSI_TV_v3_Vset5_Tset2_2024-03-03_10h27.49.019.csv,1,26,0,2,z,0,1,3,tac,C,27,1,0C,2C,NaN,NaN,None,NaN,NaN,NaN,NaN,NaN,,,C02,2.6149597780362,0.566183080768378,0.476887015929193,0.4548424519237,0.5,0.498931579934685,0.586236687856073,0.5,0.5,0.5,0.5,0.623605761176769,0.5,0.476887015929193,0.476887015929193,0.433816919231622,0.5451575480763,0,0,0,0,NaN,0,0,0,0.5,0.0462259681416144,1.0941421025249,3.16489793989891,2.24779552994436,0.5,72.7908677893749
CBC_1054,CBC_1054_MSI_TV_v3_Vset5_Tset2_2024-03-03_10h27.49.019.csv,1,27,0,1,z,0,1,0,tac,B,63,1,0B,1B,0,1,z,1.34441580000021,0,1,1,1,1B,0B,B01,2.35137525716348,0.566183080768378,0.476887015929193,0.4548424519237,0.5,0.498931579934685,0.586236687856073,0.5,0.5,0.5,0.5,0.623605761176769,0.5,0.476887015929193,0.476887015929193,0.433816919231622,0.5451575480763,0.540226530074975,0.459773469925025,0.586236687856073,0.498931579934685,0.378861054656459,0.638922685181218,0.413763312143927,0.019126609685334,0.5,0.0462259681416144,1.0941421025249,3.16489793989891,2.24779552994436,0.5,72.7908677893749
CBC_1054,CBC_1054_MSI_TV_v3_Vset5_Tset2_2024-03-03_10h27.49.019.csv,1,28,1,0,z,0,1,1,tac,A,63,1,1A,0A,0,1,z,1.47352709999996,0,1,1,1,0A,1A,A10,3.76120011569356,0.566183080768378,0.476887015929193,0.4548424519237,0.5,0.498931579934685,0.605363297541407,0.5,0.5,0.5,0.5,0.623605761176769,0.5,0.476887015929193,0.476887015929193,0.433816919231622,0.5451575480763,0.542804441006363,0.457195558993637,0.566183080768378,0.476887015929193,0.486024506898444,0.648210728177356,0.433816919231622,0.0200536070876942,0.5,0.0462259681416144,1.0941421025249,3.16489793989891,2.24779552994436,0.5,72.7908677893749
CBC_1054,CBC_1054_MSI_TV_v3_Vset5_Tset2_2024-03-03_10h27.49.019.csv,1,29,2,3,b,1,0,3,tac,C,63,1,2C,3C,NaN,NaN,None,NaN,NaN,NaN,NaN,NaN,,,C23,2.68557734525015,0.586236687856073,0.476887015929193,0.4548424519237,0.5,0.498931579934685,0.605363297541407,0.5,0.5,0.5,0.5,0.623605761176769,0.5,0.476887015929193,0.476887015929193,0.433816919231622,0.5451575480763,0,0,0,0,NaN,0,0,0,0.5,0.0462259681416144,1.0941421025249,3.16489793989891,2.24779552994436,0.5,72.7908677893749
CBC_1054,CBC_1054_MSI_TV_v3_Vset5_Tset2_2024-03-03_10h27.49.019.csv,1,30,1,3,z,0,1,2,tac,D,27,1,1D,3D,0,1,z,2.32282910000049,0,1,1,1,3D,1D,D13,3.80666248977032,0.586236687856073,0.476887015929193,0.4548424519237,0.5,0.498931579934685,0.605363297541407,0.5,0.5,0.5,0.5,0.623605761176769,0.5,0.476887015929193,0.476887015929193,0.433816919231622,0.5451575480763,0.533398999687229,0.466601000312771,0.5451575480763,0.476887015929193,0.230644719046555,0.615629447629051,0.4548424519237,0.0210255326920788,0.5,0.0462259681416144,1.0941421025249,3.16489793989891,2.24779552994436,0.5,72.7908677893749
CBC_1054,CBC_1054_MSI_TV_v3_Vset5_Tset2_2024-03-03_10h27.49.019.csv,1,31,0,1,b,1,0,1,tac,A,63,1,0A,1A,1,0,z,3.78671170000052,0,1,0,0,1A,0A,A01,2.4423470353692,0.586236687856073,0.476887015929193,0.4548424519237,0.5,0.498931579934685,0.605363297541407,0.5,0.5,0.5,0.5,0.623605761176769,0.5,0.476887015929193,0.476887015929193,0.433816919231622,0.566183080768378,0.448571520163863,0.551428479836137,0.476887015929193,0.586236687856073,0.0269381160590409,0.324640724412722,-0.476887015929193,-0.0220445640054924,0.5,0.0462259681416144,1.0941421025249,3.16489793989891,2.24779552994436,0.5,72.7908677893749
CBC_1054,CBC_1054_MSI_TV_v3_Vset5_Tset2_2024-03-03_10h27.49.019.csv,1,32,2,3,z,0,1,2,tac,D,63,1,2D,3D,0,1,z,2.1247172000003,0,1,1,1,3D,2D,D23,2.46385324059017,0.586236687856073,0.4548424519237,0.4548424519237,0.5,0.498931579934685,0.605363297541407,0.5,0.5,0.5,0.5,0.623605761176769,0.5,0.476887015929193,0.476887015929193,0.433816919231622,0.566183080768378,0.566183080768378,0.433816919231622,0.566183080768378,0.433816919231622,0.331825473833879,0.718866602752608,0.433816919231622,0.0200536070876942,0.5,0.0462259681416144,1.0941421025249,3.16489793989891,2.24779552994436,0.5,72.7908677893749
CBC_1054,CBC_1054_MSI_TV_v3_Vset5_Tset2_2024-03-03_10h27.49.019.csv,1,33,1,2,b,1,0,0,tac,B,9,1,1B,2B,1,0,b,1.47620190000089,1,0,1,1,1B,2B,B12,3.87120101090789,0.586236687856073,0.4548424519237,0.4548424519237,0.5,0.498931579934685,0.605363297541407,0.5,0.5,0.5,0.5,0.623605761176769,0.5,0.476887015929193,0.476887015929193,0.433816919231622,0.586236687856073,0.547660030768056,0.452339969231944,0.605363297541407,0.5,0.501450678865208,0.663330867145593,0.394636702458593,0.0182424636353627,0.5,0.0462259681416144,1.0941421025249,3.16489793989891,2.24779552994436,0.5,72.7908677893749
CBC_1054,CBC_1054_MSI_TV_v3_Vset5_Tset2_2024-03-03_10h27.49.019.csv,1,34,0,1,b,1,0,1,tac,A,63,1,0A,1A,1,0,b,1.58255710000049,1,0,1,1,0A,1A,A01,2.28238238567653,0.586236687856073,0.4548424519237,0.4548424519237,0.5,0.498931579934685,0.623605761176769,0.5,0.5,0.5,0.5,0.623605761176769,0.5,0.476887015929193,0.476887015929193,0.433816919231622,0.586236687856073,0.563104825998227,0.436895174001773,0.586236687856073,0.4548424519237,0.542539422964803,0.710008833867924,0.413763312143927,0.019126609685334,0.5,0.0462259681416144,1.0941421025249,3.16489793989891,2.24779552994436,0.5,72.7908677893749
CBC_1054,CBC_1054_MSI_TV_v3_Vset5_Tset2_2024-03-03_10h27.49.019.csv,1,35,1,2,z,0,1,3,tac,C,9,1,1C,2C,0,1,z,1.5044611000003,0,1,1,1,2C,1C,C12,3.91202300542815,0.605363297541407,0.4548424519237,0.4548424519237,0.5,0.498931579934685,0.623605761176769,0.5,0.5,0.5,0.5,0.623605761176769,0.5,0.476887015929193,0.476887015929193,0.433816919231622,0.586236687856073,0.555004061676987,0.444995938323013,0.623605761176769,0.5,0.527288049848602,0.685600615518391,0.376394238823231,0.0173991880925299,0.5,0.0462259681416144,1.0941421025249,3.16489793989891,2.24779552994436,0.5,72.7908677893749
CBC_1054,CBC_1054_MSI_TV_v3_Vset5_Tset2_2024-03-03_10h27.49.019.csv,1,36,0,1,z,0,1,0,tac,B,63,1,0B,1B,0,1,z,1.26606370000081,0,1,1,1,1B,0B,B01,2.32238772029023,0.605363297541407,0.4548424519237,0.4548424519237,0.5,0.498931579934685,0.623605761176769,0.5,0.5,0.5,0.5,0.641004949269299,0.5,0.476887015929193,0.476887015929193,0.433816919231622,0.586236687856073,0.555532309116168,0.444467690883833,0.623605761176769,0.498931579934685,0.233897254463147,0.68665781530928,0.376394238823231,0.0173991880925299,0.5,0.0462259681416144,1.0941421025249,3.16489793989891,2.24779552994436,0.5,72.7908677893749
CBC_1054,CBC_1054_MSI_TV_v3_Vset5_Tset2_2024-03-03_10h27.49.019.csv,1,37,1,0,z,0,1,1,tac,A,63,0,1A,0A,1,0,z,2.18947310000021,0,1,1,0,0A,1A,A10,3.25809653802148,0.605363297541407,0.4548424519237,0.4548424519237,0.5,0.498931579934685,0.641004949269299,0.5,0.5,0.5,0.5,0.641004949269299,0.5,0.476887015929193,0.476887015929193,0.433816919231622,0.586236687856073,0.570986620141254,0.429013379858746,0.605363297541407,0.4548424519237,0.316080973761685,0.732573507455672,-0.605363297541407,-0.0279835045062517,0.5,0.0462259681416144,1.0941421025249,3.16489793989891,2.24779552994436,0.5,72.7908677893749
CBC_1054,CBC_1054_MSI_TV_v3_Vset5_Tset2_2024-03-03_10h27.49.019.csv,1,38,1,0,b,1,0,0,tac,B,63,1,1B,0B,1,0,b,2.03151460000117,1,0,1,1,1B,0B,B10,3.27714473299218,0.577379793035155,0.4548424519237,0.4548424519237,0.5,0.498931579934685,0.641004949269299,0.5,0.5,0.5,0.5,0.641004949269299,0.5,0.476887015929193,0.476887015929193,0.433816919231622,0.586236687856073,0.562316350820788,0.437683649179212,0.641004949269299,0.498931579934685,0.359753833735031,0.708158623381537,0.358995050730701,0.0165948937780746,0.5,0.0462259681416144,1.0941421025249,3.16489793989891,2.24779552994436,0.5,72.7908677893749
CBC_1054,CBC_1054_MSI_TV_v3_Vset5_Tset2_2024-03-03_10h27.49.019.csv,1,39,3,1,b,1,0,2,tac,D,27,1,3D,1D,1,0,b,2.37797150000097,1,0,1,1,3D,1D,D31,3.29583686600433,0.577379793035155,0.4548424519237,0.4548424519237,0.5,0.498931579934685,0.657599843047374,0.5,0.5,0.5,0.5,0.641004949269299,0.5,0.476887015929193,0.476887015929193,0.433816919231622,0.586236687856073,0.551428479836137,0.448571520163863,0.586236687856073,0.476887015929193,0.239127878199417,0.67560840878652,0.413763312143927,0.019126609685334,0.5,0.0462259681416144,1.0941421025249,3.16489793989891,2.24779552994436,0.5,72.7908677893749
CBC_1054,CBC_1054_MSI_TV_v3_Vset5_Tset2_2024-03-03_10h27.49.019.csv,1,40,2,3,b,1,0,3,tac,C,63,1,2C,3C,1,0,z,3.44524660000025,0,1,0,0,3C,2C,C23,2.62103882411258,0.577379793035155,0.4548424519237,0.4548424519237,0.5,0.498931579934685,0.657599843047374,0.5,0.5,0.5,0.5,0.641004949269299,0.5,0.476887015929193,0.476887015929193,0.433816919231622,0.605363297541407,0.438210193847275,0.561789806152725,0.5,0.641004949269299,0.0336774343402943,0.293340647425597,-0.5,-0.0231129840708072,0.5,0.0462259681416144,1.0941421025249,3.16489793989891,2.24779552994436,0.5,72.7908677893749
CBC_1054,CBC_1054_MSI_TV_v3_Vset5_Tset2_2024-03-03_10h27.49.019.csv,1,41,2,0,z,0,1,1,tac,A,27,1,2A,0A,0,1,b,2.11779280000064,1,0,0,0,2A,0A,A20,3.3322045101752,0.577379793035155,0.4548424519237,0.4548424519237,0.5,0.498931579934685,0.657599843047374,0.5,0.5,0.5,0.5,0.641004949269299,0.476887015929193,0.476887015929193,0.476887015929193,0.433816919231622,0.605363297541407,0.440643915731375,0.559356084268625,0.4548424519237,0.577379793035155,0.139380925594495,0.300561882662565,-0.4548424519237,-0.0210255326920787,0.5,0.0462259681416144,1.0941421025249,3.16489793989891,2.24779552994436,0.5,72.7908677893749
CBC_1054,CBC_1054_MSI_TV_v3_Vset5_Tset2_2024-03-03_10h27.49.019.csv,1,42,3,2,b,1,0,2,tac,D,63,1,3D,2D,1,0,z,2.88229450000108,0,1,0,0,2D,3D,D32,2.94443897916644,0.577379793035155,0.4548424519237,0.433816919231622,0.5,0.498931579934685,0.657599843047374,0.5,0.5,0.5,0.5,0.641004949269299,0.476887015929193,0.476887015929193,0.476887015929193,0.433816919231622,0.605363297541407,0.417460717813466,0.582539282186534,0.433816919231622,0.605363297541407,0.0472681486795833,0.236253725338628,-0.433816919231622,-0.0200536070876942,0.5,0.0462259681416144,1.0941421025249,3.16489793989891,2.24779552994436,0.5,72.7908677893749
CBC_1054,CBC_1054_MSI_TV_v3_Vset5_Tset2_2024-03-03_10h27.49.019.csv,1,43,3,1,z,0,1,0,tac,B,27,1,3B,1B,0,1,z,1.36886680000043,0,1,1,1,1B,3B,B31,3.36729582998647,0.577379793035155,0.4548424519237,0.433816919231622,0.5,0.498931579934685,0.657599843047374,0.5,0.5,0.5,0.5,0.641004949269299,0.476887015929193,0.476887015929193,0.476887015929193,0.413763312143927,0.605363297541407,0.568071814277589,0.431928185722411,0.657599843047374,0.5,0.494363525647973,0.724755586827714,0.342400156952626,0.0158277787469759,0.5,0.0462259681416144,1.0941421025249,3.16489793989891,2.24779552994436,0.5,72.7908677893749
CBC_1054,CBC_1054_MSI_TV_v3_Vset5_Tset2_2024-03-03_10h27.49.019.csv,1,44,2,3,b,1,0,3,tac,C,63,1,2C,3C,1,0,b,1.31414200000108,1,0,1,1,2C,3C,C23,2.46809953147162,0.577379793035155,0.4548424519237,0.433816919231622,0.5,0.498931579934685,0.67342762179435,0.5,0.5,0.5,0.5,0.641004949269299,0.476887015929193,0.476887015929193,0.476887015929193,0.413763312143927,0.605363297541407,0.573405095684253,0.426594904315747,0.641004949269299,0.476887015929193,0.405230622300156,0.739689557651,0.358995050730701,0.0165948937780746,0.5,0.0462259681416144,1.0941421025249,3.16489793989891,2.24779552994436,0.5,72.7908677893749
CBC_1054,CBC_1054_MSI_AV_v3_Vset4_Aset2_2024-03-03_11h43.50.758.csv,2,1,1,0,b,1,0,0,aud,B,63,1,1B,0B,1,0,z,2.346483299998,0,1,0,0,0B,1B,B10,2.77258872223978,0.5,0.5,0.5,0.5,0.5,0.5,0.5,0.5,0.5,0.5,0.5,0.5,0.5,0.5,0.5,0.5,0.5,0.5,0.5,0.5,0.183931440261252,0.500243086899991,-0.5,-0.0843743255520796,0.5,0.168748651104159,1.09980190033981,3.36599969684808,2.73177932259363,0.5,59.2712350132165
CBC_1054,CBC_1054_MSI_AV_v3_Vset4_Aset2_2024-03-03_11h43.50.758.csv,2,2,3,2,b,1,0,2,aud,D,63,1,3D,2D,1,0,z,1.4278706999994,0,1,0,0,2D,3D,D32,2.83321334405622,0.5,0.5,0.5,0.5,0.41562567444792,0.5,0.5,0.5,0.5,0.5,0.5,0.5,0.5,0.5,0.5,0.5,0.5,0.5,0.5,0.5,0.168587211331172,0.499210990596005,-0.5,-0.0843743255520796,0.5,0.168748651104159,1.09980190033981,3.36599969684808,2.73177932259363,0.5,59.2712350132165
CBC_1054,CBC_1054_MSI_AV_v3_Vset4_Aset2_2024-03-03_11h43.50.758.csv,2,3,3,1,z,0,1,0,aud,B,27,1,3B,1B,0,1,z,2.45151699999951,0,1,1,1,1B,3B,B31,2.89037175789616,0.5,0.5,0.5,0.5,0.41562567444792,0.5,0.5,0.5,0.5,0.5,0.5,0.5,0.5,0.5,0.41562567444792,0.5,0.5,0.5,0.5,0.5,0.171539605091861,0.49921988304149,0.5,0.0843743255520796,0.5,0.168748651104159,1.09980190033981,3.36599969684808,2.73177932259363,0.5,59.2712350132165
CBC_1054,CBC_1054_MSI_AV_v3_Vset4_Aset2_2024-03-03_11h43.50.758.csv,2,4,2,3,b,1,0,3,aud,C,63,1,2C,3C,1,0,z,1.82583090000116,0,1,0,0,3C,2C,C23,2.94443897916644,0.5,0.5,0.5,0.5,0.41562567444792,0.58437432555208,0.5,0.5,0.5,0.5,0.5,0.5,0.5,0.5,0.41562567444792,0.5,0.5,0.5,0.5,0.5,0.243344267270313,0.499272352281841,-0.5,-0.0843743255520796,0.5,0.168748651104159,1.09980190033981,3.36599969684808,2.73177932259363,0.5,59.2712350132165
CBC_1054,CBC_1054_MSI_AV_v3_Vset4_Aset2_2024-03-03_11h43.50.758.csv,2,5,0,2,z,0,1,3,aud,C,27,1,0C,2C,0,1,z,1.77245969999967,0,1,1,1,2C,0C,C02,2.99573227355399,0.5,0.5,0.5,0.5,0.41562567444792,0.58437432555208,0.5,0.5,0.5,0.5,0.5,0.41562567444792,0.5,0.5,0.41562567444792,0.5,0.5,0.5,0.5,0.5,0.247631677000705,0.501683957228299,0.5,0.0843743255520796,0.5,0.168748651104159,1.09980190033981,3.36599969684808,2.73177932259363,0.5,59.2712350132165
CBC_1054,CBC_1054_MSI_AV_v3_Vset4_Aset2_2024-03-03_11h43.50.758.csv,2,6,0,3,b,1,0,1,aud,A,9,1,0A,3A,1,0,b,2.70640349999849,1,0,1,1,0A,3A,A03,3.04452243772342,0.5,0.5,0.5,0.5,0.41562567444792,0.58437432555208,0.5,0.5,0.5,0.5,0.58437432555208,0.41562567444792,0.5,0.5,0.41562567444792,0.5,0.5,0.5,0.5,0.5,0.145645915970166,0.500804262932001,0.5,0.0843743255520796,0.5,0.168748651104159,1.09980190033981,3.36599969684808,2.73177932259363,0.5,59.2712350132165
CBC_1054,CBC_1054_MSI_AV_v3_Vset4_Aset2_2024-03-03_11h43.50.758.csv,2,7,2,3,b,1,0,3,aud,C,63,1,2C,3C,1,0,b,1.79529459999867,1,0,1,1,2C,3C,C23,2.39789527279837,0.58437432555208,0.5,0.5,0.5,0.41562567444792,0.58437432555208,0.5,0.5,0.5,0.5,0.58437432555208,0.41562567444792,0.5,0.5,0.41562567444792,0.5,0.58437432555208,0.41562567444792,0.58437432555208,0.41562567444792,0.476393408982371,0.824582188852153,0.41562567444792,0.070136271927343,0.5,0.168748651104159,1.09980190033981,3.36599969684808,2.73177932259363,0.5,59.2712350132165
CBC_1054,CBC_1054_MSI_AV_v3_Vset4_Aset2_2024-03-03_11h43.50.758.csv,2,8,1,0,z,0,1,1,aud,A,63,1,1A,0A,0,1,z,2.39383689999886,0,1,1,1,0A,1A,A10,3.13549421592915,0.58437432555208,0.5,0.5,0.5,0.41562567444792,0.58437432555208,0.5,0.5,0.5,0.5,0.654510597479423,0.41562567444792,0.5,0.5,0.41562567444792,0.5,0.538904612348288,0.461095387651712,0.58437432555208,0.5,0.243486380031104,0.670454795351658,0.41562567444792,0.070136271927343,0.5,0.168748651104159,1.09980190033981,3.36599969684808,2.73177932259363,0.5,59.2712350132165
CBC_1054,CBC_1054_MSI_AV_v3_Vset4_Aset2_2024-03-03_11h43.50.758.csv,2,9,2,3,z,0,1,2,aud,D,63,1,2D,3D,0,1,b,2.46844189999865,1,0,0,0,2D,3D,D23,3.17805383034795,0.654510597479423,0.5,0.5,0.5,0.41562567444792,0.58437432555208,0.5,0.5,0.5,0.5,0.654510597479423,0.41562567444792,0.5,0.5,0.41562567444792,0.5,0.453925316913512,0.546074683086488,0.41562567444792,0.5,0.103829667022279,0.298991637599543,-0.41562567444792,-0.070136271927343,0.5,0.168748651104159,1.09980190033981,3.36599969684808,2.73177932259363,0.5,59.2712350132165
CBC_1054,CBC_1054_MSI_AV_v3_Vset4_Aset2_2024-03-03_11h43.50.758.csv,2,10,3,2,z,0,1,3,aud,C,63,1,3C,2C,0,1,z,2.7788400999998,0,1,1,1,2C,3C,C32,3.2188758248682,0.654510597479423,0.5,0.5,0.5,0.41562567444792,0.58437432555208,0.5,0.5,0.5,0.5,0.654510597479423,0.41562567444792,0.5,0.5,0.345489402520577,0.5,0.611614253856317,0.388385746143683,0.654510597479423,0.41562567444792,0.240903018118566,0.886734370358911,0.345489402520577,0.0583008706461293,0.5,0.168748651104159,1.09980190033981,3.36599969684808,2.73177932259363,0.5,59.2712350132165
CBC_1054,CBC_1054_MSI_AV_v3_Vset4_Aset2_2024-03-03_11h43.50.758.csv,2,11,3,1,b,1,0,2,aud,D,27,1,3D,1D,1,0,z,1.89982500000042,0,1,0,0,1D,3D,D31,3.25809653802148,0.654510597479423,0.5,0.5,0.5,0.41562567444792,0.58437432555208,0.5,0.5,0.5,0.5,0.712811468125552,0.41562567444792,0.5,0.5,0.345489402520577,0.5,0.5,0.5,0.5,0.5,0.237539346001729,0.500653034244168,-0.5,-0.0843743255520796,0.5,0.168748651104159,1.09980190033981,3.36599969684808,2.73177932259363,0.5,59.2712350132165
CBC_1054,CBC_1054_MSI_AV_v3_Vset4_Aset2_2024-03-03_11h43.50.758.csv,2,12,0,1,b,1,0,1,aud,A,63,0,0A,1A,0,1,b,3.02372309999919,1,0,1,0,0A,1A,A01,3.29583686600433,0.654510597479423,0.5,0.5,0.5,0.41562567444792,0.58437432555208,0.5,0.5,0.5,0.5,0.712811468125552,0.41562567444792,0.5,0.41562567444792,0.345489402520577,0.5,0.566916058551891,0.433083941448109,0.654510597479423,0.5,0.179483049019706,0.773689576927551,-0.654510597479423,-0.11044778045803,0.5,0.168748651104159,1.09980190033981,3.36599969684808,2.73177932259363,0.5,59.2712350132165
CBC_1054,CBC_1054_MSI_AV_v3_Vset4_Aset2_2024-03-03_11h43.50.758.csv,2,13,3,2,z,0,1,3,aud,C,63,1,3C,2C,0,1,z,1.77105110000048,0,1,1,1,2C,3C,C32,2.63905732961526,0.544062817021393,0.5,0.5,0.5,0.41562567444792,0.58437432555208,0.5,0.5,0.5,0.5,0.712811468125552,0.41562567444792,0.5,0.41562567444792,0.345489402520577,0.5,0.631680260452913,0.368319739547087,0.712811468125552,0.41562567444792,0.636352425577452,0.918426569906011,0.287188531874448,0.0484626773663969,0.5,0.168748651104159,1.09980190033981,3.36599969684808,2.73177932259363,0.5,59.2712350132165
CBC_1054,CBC_1054_MSI_AV_v3_Vset4_Aset2_2024-03-03_11h43.50.758.csv,2,14,2,0,z,0,1,1,aud,A,27,1,2A,0A,0,1,z,2.4186950000003,0,1,1,1,0A,2A,A20,3.36729582998647,0.544062817021393,0.5,0.5,0.5,0.41562567444792,0.58437432555208,0.5,0.5,0.5,0.5,0.761274145491949,0.41562567444792,0.5,0.41562567444792,0.345489402520577,0.5,0.521101612040499,0.478898387959501,0.544062817021393,0.5,0.210608910003449,0.596735839344933,0.455937182978607,0.0769387846158702,0.5,0.168748651104159,1.09980190033981,3.36599969684808,2.73177932259363,0.5,59.2712350132165
CBC_1054,CBC_1054_MSI_AV_v3_Vset4_Aset2_2024-03-03_11h43.50.758.csv,2,15,1,0,b,1,0,0,aud,B,63,1,1B,0B,1,0,b,2.2755715000003,1,0,1,1,1B,0B,B10,2.70805020110221,0.621001601637263,0.5,0.5,0.5,0.41562567444792,0.58437432555208,0.5,0.5,0.5,0.5,0.761274145491949,0.41562567444792,0.5,0.41562567444792,0.345489402520577,0.5,0.58437432555208,0.41562567444792,0.58437432555208,0.41562567444792,0.345460869492046,0.824941478843414,0.41562567444792,0.070136271927343,0.5,0.168748651104159,1.09980190033981,3.36599969684808,2.73177932259363,0.5,59.2712350132165
CBC_1054,CBC_1054_MSI_AV_v3_Vset4_Aset2_2024-03-03_11h43.50.758.csv,2,16,2,3,z,0,1,2,aud,D,63,1,2D,3D,0,1,z,2.73584850000043,0,1,1,1,3D,2D,D23,2.7408400239252,0.621001601637263,0.5,0.5,0.5,0.41562567444792,0.654510597479423,0.5,0.5,0.5,0.5,0.761274145491949,0.41562567444792,0.5,0.41562567444792,0.345489402520577,0.5,0.591373467851161,0.408626532148839,0.5,0.345489402520577,0.242510975153191,0.843145469780611,0.5,0.0843743255520796,0.5,0.168748651104159,1.09980190033981,3.36599969684808,2.73177932259363,0.5,59.2712350132165
CBC_1054,CBC_1054_MSI_AV_v3_Vset4_Aset2_2024-03-03_11h43.50.758.csv,2,17,2,1,z,0,1,0,aud,B,9,1,2B,1B,0,1,z,2.38819349999903,0,1,1,1,1B,2B,B21,3.46573590279973,0.621001601637263,0.5,0.5,0.5,0.41562567444792,0.654510597479423,0.5,0.5,0.5,0.5,0.761274145491949,0.41562567444792,0.5,0.41562567444792,0.345489402520577,0.58437432555208,0.566916058551891,0.433083941448109,0.654510597479423,0.5,0.290828424736445,0.774440044465591,0.345489402520577,0.0583008706461293,0.5,0.168748651104159,1.09980190033981,3.36599969684808,2.73177932259363,0.5,59.2712350132165
CBC_1054,CBC_1054_MSI_AV_v3_Vset4_Aset2_2024-03-03_11h43.50.758.csv,2,18,3,1,b,1,0,2,aud,D,27,1,3D,1D,1,0,z,3.53333139999995,0,1,0,0,1D,3D,D31,2.80336038090653,0.621001601637263,0.5,0.5,0.5,0.41562567444792,0.712811468125552,0.5,0.5,0.5,0.5,0.761274145491949,0.41562567444792,0.5,0.41562567444792,0.345489402520577,0.58437432555208,0.41562567444792,0.58437432555208,0.41562567444792,0.58437432555208,0.0262919450145499,0.175465001574505,-0.41562567444792,-0.070136271927343,0.5,0.168748651104159,1.09980190033981,3.36599969684808,2.73177932259363,0.5,59.2712350132165
CBC_1054,CBC_1054_MSI_AV_v3_Vset4_Aset2_2024-03-03_11h43.50.758.csv,2,19,1,0,z,0,1,1,aud,A,63,1,1A,0A,0,1,z,2.6028409999999,0,1,1,1,0A,1A,A10,2.83321334405622,0.621001601637263,0.5,0.5,0.5,0.41562567444792,0.712811468125552,0.5,0.5,0.5,0.5,0.761274145491949,0.41562567444792,0.5,0.345489402520577,0.345489402520577,0.58437432555208,0.553970307205866,0.446029692794134,0.621001601637263,0.5,0.231339034709974,0.729072903470478,0.378998398362737,0.0639554684943487,0.5,0.168748651104159,1.09980190033981,3.36599969684808,2.73177932259363,0.5,59.2712350132165
CBC_1054,CBC_1054_MSI_AV_v3_Vset4_Aset2_2024-03-03_11h43.50.758.csv,2,20,0,1,b,1,0,1,aud,A,63,1,0A,1A,1,0,b,2.45311239999864,1,0,1,1,0A,1A,A01,2.86220088092947,0.684957070131611,0.5,0.5,0.5,0.41562567444792,0.712811468125552,0.5,0.5,0.5,0.5,0.761274145491949,0.41562567444792,0.5,0.345489402520577,0.345489402520577,0.58437432555208,0.578043785211167,0.421956214788833,0.684957070131611,0.5,0.291847724900546,0.807748764825889,0.315042929868389,0.0531630694551928,0.5,0.168748651104159,1.09980190033981,3.36599969684808,2.73177932259363,0.5,59.2712350132165
CBC_1054,CBC_1054_MSI_AV_v3_Vset4_Aset2_2024-03-03_11h43.50.758.csv,2,21,0,2,z,0,1,3,aud,C,27,1,0C,2C,0,1,z,1.62410029999955,0,1,1,1,2C,0C,C02,2.89037175789616,0.738120139586804,0.5,0.5,0.5,0.41562567444792,0.712811468125552,0.5,0.5,0.5,0.5,0.761274145491949,0.41562567444792,0.5,0.345489402520577,0.345489402520577,0.58437432555208,0.603575478188384,0.396424521811616,0.761274145491949,0.5,0.551852845913745,0.869929814512991,0.238725854508051,0.0402846659319214,0.5,0.168748651104159,1.09980190033981,3.36599969684808,2.73177932259363,0.5,59.2712350132165
CBC_1054,CBC_1054_MSI_AV_v3_Vset4_Aset2_2024-03-03_11h43.50.758.csv,2,22,1,0,b,1,0,0,aud,B,63,1,1B,0B,1,0,b,2.48911159999989,1,0,1,1,1B,0B,B10,2.51230562397611,0.738120139586804,0.5,0.5,0.5,0.41562567444792,0.712811468125552,0.5,0.5,0.5,0.5,0.80155881142387,0.41562567444792,0.5,0.345489402520577,0.345489402520577,0.58437432555208,0.631680260452913,0.368319739547087,0.712811468125552,0.41562567444792,0.32599533435631,0.918466440170719,0.287188531874448,0.0484626773663969,0.5,0.168748651104159,1.09980190033981,3.36599969684808,2.73177932259363,0.5,59.2712350132165
CBC_1054,CBC_1054_MSI_AV_v3_Vset4_Aset2_2024-03-03_11h43.50.758.csv,2,23,0,2,z,0,1,3,aud,C,27,1,0C,2C,0,1,z,1.37319620000017,0,1,1,1,2C,0C,C02,2.53897387105828,0.738120139586804,0.5,0.5,0.5,0.41562567444792,0.761274145491949,0.5,0.5,0.5,0.5,0.80155881142387,0.41562567444792,0.5,0.345489402520577,0.345489402520577,0.58437432555208,0.615845249856198,0.384154750143801,0.80155881142387,0.5,0.335795475514199,0.893952736035697,0.19844118857613,0.033486682895728,0.5,0.168748651104159,1.09980190033981,3.36599969684808,2.73177932259363,0.5,59.2712350132165
CBC_1054,CBC_1054_MSI_AV_v3_Vset4_Aset2_2024-03-03_11h43.50.758.csv,2,24,2,3,z,0,1,2,aud,D,63,1,2D,3D,0,1,z,1.64442290000079,0,1,1,1,3D,2D,D23,2.56494935746154,0.738120139586804,0.5,0.5,0.5,0.41562567444792,0.761274145491949,0.5,0.5,0.5,0.5,0.835045494319598,0.41562567444792,0.5,0.345489402520577,0.345489402520577,0.58437432555208,0.628451576193128,0.371548423806872,0.58437432555208,0.345489402520577,0.649249802408432,0.913662209437814,0.41562567444792,0.070136271927343,0.5,0.168748651104159,1.09980190033981,3.36599969684808,2.73177932259363,0.5,59.2712350132165
CBC_1054,CBC_1054_MSI_AV_v3_Vset4_Aset2_2024-03-03_11h43.50.758.csv,2,25,0,1,b,1,0,1,aud,A,63,1,0A,1A,1,0,b,2.3781283999997,1,0,1,1,0A,1A,A01,2.59026716544583,0.738120139586804,0.5,0.5,0.5,0.41562567444792,0.761274145491949,0.5,0.5,0.5,0.5,0.835045494319598,0.41562567444792,0.5,0.345489402520577,0.345489402520577,0.654510597479423,0.596161968444464,0.403838031555536,0.738120139586804,0.5,0.333915217776632,0.854729572371531,0.261879860413196,0.0441918731960723,0.5,0.168748651104159,1.09980190033981,3.36599969684808,2.73177932259363,0.5,59.2712350132165
CBC_1054,CBC_1054_MSI_AV_v3_Vset4_Aset2_2024-03-03_11h43.50.758.csv,2,26,2,3,b,1,0,3,aud,C,63,1,2C,3C,1,0,b,1.79196290000073,1,0,1,1,2C,3C,C23,2.6149597780362,0.782312012782877,0.5,0.5,0.5,0.41562567444792,0.761274145491949,0.5,0.5,0.5,0.5,0.835045494319598,0.41562567444792,0.5,0.345489402520577,0.345489402520577,0.654510597479423,0.667677895815331,0.332322104184668,0.835045494319598,0.41562567444792,0.740027993677197,0.956423825000953,0.164954505680402,0.0278358503271212,0.5,0.168748651104159,1.09980190033981,3.36599969684808,2.73177932259363,0.5,59.2712350132165
CBC_1054,CBC_1054_MSI_AV_v3_Vset4_Aset2_2024-03-03_11h43.50.758.csv,2,27,0,2,b,1,0,1,aud,A,27,1,0A,2A,1,0,b,2.62557689999994,1,0,1,1,0A,2A,A02,3.73766961828337,0.782312012782877,0.5,0.5,0.5,0.41562567444792,0.761274145491949,0.5,0.5,0.5,0.5,0.862881344646719,0.41562567444792,0.5,0.345489402520577,0.345489402520577,0.654510597479423,0.610079298161686,0.389920701838314,0.782312012782877,0.5,0.277614633402586,0.883684095223644,0.217687987217123,0.036734554204469,0.5,0.168748651104159,1.09980190033981,3.36599969684808,2.73177932259363,0.5,59.2712350132165
CBC_1054,CBC_1054_MSI_AV_v3_Vset4_Aset2_2024-03-03_11h43.50.758.csv,2,28,2,3,z,0,1,2,aud,D,63,1,2D,3D,0,1,b,2.88326459999917,1,0,0,0,2D,3D,D23,2.37490575457367,0.819046566987346,0.5,0.5,0.5,0.41562567444792,0.761274145491949,0.5,0.5,0.5,0.5,0.862881344646719,0.41562567444792,0.5,0.345489402520577,0.345489402520577,0.654510597479423,0.345489402520577,0.654510597479423,0.345489402520577,0.654510597479423,0.0118906494134893,0.0550479693562676,-0.345489402520577,-0.0583008706461293,0.5,0.168748651104159,1.09980190033981,3.36599969684808,2.73177932259363,0.5,59.2712350132165
CBC_1054,CBC_1054_MSI_AV_v3_Vset4_Aset2_2024-03-03_11h43.50.758.csv,2,29,2,3,z,0,1,2,aud,D,63,1,2D,3D,NaN,NaN,[],NaN,NaN,NaN,NaN,NaN,,,D23,2.17475172148416,0.819046566987346,0.5,0.5,0.5,0.41562567444792,0.761274145491949,0.5,0.5,0.5,0.5,0.862881344646719,0.41562567444792,0.5,0.345489402520577,0.287188531874448,0.654510597479423,0,0,0,0,NaN,0,0,0,0.5,0.168748651104159,1.09980190033981,3.36599969684808,2.73177932259363,0.5,59.2712350132165
CBC_1054,CBC_1054_MSI_AV_v3_Vset4_Aset2_2024-03-03_11h43.50.758.csv,2,30,1,3,b,1,0,0,aud,B,27,1,1B,3B,1,0,b,2.98819499999991,1,0,1,1,1B,3B,B13,3.80666248977032,0.819046566987346,0.5,0.5,0.5,0.41562567444792,0.761274145491949,0.5,0.5,0.5,0.5,0.862881344646719,0.41562567444792,0.5,0.345489402520577,0.287188531874448,0.654510597479423,0.603575478188384,0.396424521811616,0.761274145491949,0.5,0.19775875005449,0.870458809914889,0.238725854508051,0.0402846659319214,0.5,0.168748651104159,1.09980190033981,3.36599969684808,2.73177932259363,0.5,59.2712350132165
CBC_1054,CBC_1054_MSI_AV_v3_Vset4_Aset2_2024-03-03_11h43.50.758.csv,2,31,3,0,b,1,0,2,aud,D,9,1,3D,0D,1,0,b,2.03947339999831,1,0,1,1,3D,0D,D30,3.8286413964891,0.819046566987346,0.5,0.5,0.5,0.41562567444792,0.80155881142387,0.5,0.5,0.5,0.5,0.862881344646719,0.41562567444792,0.5,0.345489402520577,0.287188531874448,0.654510597479423,0.566916058551891,0.433083941448109,0.654510597479423,0.5,0.372978505397182,0.774626804399701,0.345489402520577,0.0583008706461293,0.5,0.168748651104159,1.09980190033981,3.36599969684808,2.73177932259363,0.5,59.2712350132165
CBC_1054,CBC_1054_MSI_AV_v3_Vset4_Aset2_2024-03-03_11h43.50.758.csv,2,32,0,1,z,0,1,0,aud,B,63,1,0B,1B,0,1,z,2.17941369999971,0,1,1,1,1B,0B,B01,3.85014760171006,0.819046566987346,0.5,0.5,0.5,0.41562567444792,0.80155881142387,0.5,0.5,0.5,0.5,0.862881344646719,0.41562567444792,0.5,0.345489402520577,0.287188531874448,0.712811468125552,0.658535185691071,0.341464814308929,0.80155881142387,0.41562567444792,0.474113101103737,0.94852049485597,0.19844118857613,0.033486682895728,0.5,0.168748651104159,1.09980190033981,3.36599969684808,2.73177932259363,0.5,59.2712350132165
CBC_1054,CBC_1054_MSI_AV_v3_Vset4_Aset2_2024-03-03_11h43.50.758.csv,2,33,0,1,b,1,0,1,aud,A,63,1,0A,1A,1,0,b,3.24567029999889,1,0,1,1,0A,1A,A01,2.484906649788,0.819046566987346,0.5,0.5,0.5,0.41562567444792,0.835045494319598,0.5,0.5,0.5,0.5,0.862881344646719,0.41562567444792,0.5,0.345489402520577,0.287188531874448,0.712811468125552,0.620938325822733,0.379061674177267,0.819046566987346,0.5,0.152126157626419,0.902195398017959,0.180953433012654,0.0305356477335523,0.5,0.168748651104159,1.09980190033981,3.36599969684808,2.73177932259363,0.5,59.2712350132165
CBC_1054,CBC_1054_MSI_AV_v3_Vset4_Aset2_2024-03-03_11h43.50.758.csv,2,34,0,1,z,0,1,0,aud,B,63,1,0B,1B,0,1,z,2.47311470000022,0,1,1,1,1B,0B,B01,3.19867311755068,0.849582214720898,0.5,0.5,0.5,0.41562567444792,0.835045494319598,0.5,0.5,0.5,0.5,0.862881344646719,0.41562567444792,0.5,0.345489402520577,0.287188531874448,0.712811468125552,0.667677895815331,0.332322104184668,0.835045494319598,0.41562567444792,0.330033096757238,0.956237918070519,0.164954505680402,0.0278358503271212,0.5,0.168748651104159,1.09980190033981,3.36599969684808,2.73177932259363,0.5,59.2712350132165
CBC_1054,CBC_1054_MSI_AV_v3_Vset4_Aset2_2024-03-03_11h43.50.758.csv,2,35,2,3,b,1,0,3,aud,C,63,1,2C,3C,1,0,b,2.15289639999901,1,0,1,1,2C,3C,C23,2.52572864430826,0.849582214720898,0.5,0.5,0.5,0.41562567444792,0.862881344646719,0.5,0.5,0.5,0.5,0.862881344646719,0.41562567444792,0.5,0.345489402520577,0.287188531874448,0.712811468125552,0.674913263485842,0.325086736514158,0.862881344646719,0.41562567444792,0.499092366528969,0.961298835502382,0.137118655353281,0.0231385881320822,0.5,0.168748651104159,1.09980190033981,3.36599969684808,2.73177932259363,0.5,59.2712350132165
CBC_1054,CBC_1054_MSI_AV_v3_Vset4_Aset2_2024-03-03_11h43.50.758.csv,2,36,2,0,z,0,1,1,aud,A,27,1,2A,0A,0,1,z,2.5496351999991,0,1,1,1,0A,2A,A20,3.23867845216438,0.849582214720898,0.5,0.5,0.5,0.41562567444792,0.862881344646719,0.5,0.5,0.5,0.5,0.886019932778802,0.41562567444792,0.5,0.345489402520577,0.287188531874448,0.712811468125552,0.62951497541526,0.37048502458474,0.849582214720898,0.5,0.305577002128979,0.915274707567932,0.150417785279102,0.0253827983679235,0.5,0.168748651104159,1.09980190033981,3.36599969684808,2.73177932259363,0.5,59.2712350132165
CBC_1054,CBC_1054_MSI_AV_v3_Vset4_Aset2_2024-03-03_11h43.50.758.csv,2,37,0,1,z,0,1,0,aud,B,63,1,0B,1B,0,1,z,2.37991229999898,0,1,1,1,1B,0B,B01,2.85263142991332,0.874965013088821,0.5,0.5,0.5,0.41562567444792,0.862881344646719,0.5,0.5,0.5,0.5,0.886019932778802,0.41562567444792,0.5,0.345489402520577,0.287188531874448,0.712811468125552,0.674913263485842,0.325086736514158,0.862881344646719,0.41562567444792,0.369958505182877,0.961558093672488,0.137118655353281,0.0231385881320822,0.5,0.168748651104159,1.09980190033981,3.36599969684808,2.73177932259363,0.5,59.2712350132165
CBC_1054,CBC_1054_MSI_AV_v3_Vset4_Aset2_2024-03-03_11h43.50.758.csv,2,38,1,3,b,1,0,0,aud,B,27,1,1B,3B,1,0,b,2.69631300000037,1,0,1,1,1B,3B,B13,3.27714473299218,0.874965013088821,0.5,0.5,0.5,0.41562567444792,0.886019932778802,0.5,0.5,0.5,0.5,0.886019932778802,0.41562567444792,0.5,0.345489402520577,0.287188531874448,0.712811468125552,0.639254827311494,0.360745172688506,0.886019932778802,0.5,0.261226428459598,0.927962806324039,0.113980067221198,0.0192339825963386,0.5,0.168748651104159,1.09980190033981,3.36599969684808,2.73177932259363,0.5,59.2712350132165
CBC_1054,CBC_1054_MSI_AV_v3_Vset4_Aset2_2024-03-03_11h43.50.758.csv,2,39,2,3,b,1,0,3,aud,C,63,1,2C,3C,1,0,b,1.6581012000006,1,0,1,1,2C,3C,C23,2.37954613413017,0.874965013088821,0.5,0.5,0.5,0.41562567444792,0.90525391537514,0.5,0.5,0.5,0.5,0.886019932778802,0.41562567444792,0.5,0.345489402520577,0.287188531874448,0.712811468125552,0.680692139134976,0.319307860865024,0.886019932778802,0.41562567444792,0.857051627043985,0.965340348826112,0.113980067221198,0.0192339825963386,0.5,0.168748651104159,1.09980190033981,3.36599969684808,2.73177932259363,0.5,59.2712350132165
CBC_1054,CBC_1054_MSI_AV_v3_Vset4_Aset2_2024-03-03_11h43.50.758.csv,2,40,1,3,z,0,1,2,aud,D,27,1,1D,3D,0,1,z,2.0681354999997,0,1,1,1,3D,1D,D13,4.00733318523247,0.874965013088821,0.5,0.5,0.5,0.41562567444792,0.90525391537514,0.5,0.5,0.5,0.5,0.90525391537514,0.41562567444792,0.5,0.345489402520577,0.287188531874448,0.712811468125552,0.67354330691456,0.32645669308544,0.712811468125552,0.345489402520577,0.554982446960215,0.960431244165713,0.287188531874448,0.0484626773663969,0.5,0.168748651104159,1.09980190033981,3.36599969684808,2.73177932259363,0.5,59.2712350132165
CBC_1054,CBC_1054_MSI_AV_v3_Vset4_Aset2_2024-03-03_11h43.50.758.csv,2,41,2,1,b,1,0,3,aud,C,9,1,2C,1C,1,0,b,2.62981720000062,1,0,1,1,2C,1C,C21,4.02535169073515,0.874965013088821,0.5,0.5,0.5,0.41562567444792,0.90525391537514,0.5,0.5,0.5,0.5,0.90525391537514,0.41562567444792,0.5,0.345489402520577,0.287188531874448,0.761274145491949,0.644192416381546,0.355807583618454,0.90525391537514,0.5,0.28003382798517,0.934165216573227,0.0947460846248598,0.0159882739778456,0.5,0.168748651104159,1.09980190033981,3.36599969684808,2.73177932259363,0.5,59.2712350132165
CBC_1054,CBC_1054_MSI_AV_v3_Vset4_Aset2_2024-03-03_11h43.50.758.csv,2,42,1,0,b,1,0,0,aud,B,63,0,1B,0B,0,1,b,2.62210369999957,1,0,1,0,1B,0B,B10,2.65675690671466,0.874965013088821,0.5,0.5,0.5,0.41562567444792,0.90525391537514,0.5,0.5,0.5,0.5,0.921242189352986,0.41562567444792,0.5,0.345489402520577,0.287188531874448,0.761274145491949,0.685341739209101,0.314658260790899,0.90525391537514,0.41562567444792,0.258451838584368,0.967896933561671,-0.90525391537514,-0.152760377126314,0.5,0.168748651104159,1.09980190033981,3.36599969684808,2.73177932259363,0.5,59.2712350132165
CBC_1054,CBC_1054_MSI_AV_v3_Vset4_Aset2_2024-03-03_11h43.50.758.csv,2,43,2,3,z,0,1,2,aud,D,63,1,2D,3D,0,1,z,2.04292899999928,0,1,1,1,3D,2D,D23,2.26868354131836,0.874965013088821,0.5,0.5,0.5,0.41562567444792,0.752493538248827,0.5,0.5,0.5,0.5,0.921242189352986,0.41562567444792,0.5,0.345489402520577,0.287188531874448,0.761274145491949,0.726086070516283,0.273913929483717,0.761274145491949,0.287188531874448,0.592715327156814,0.984643668994812,0.238725854508051,0.0402846659319214,0.5,0.168748651104159,1.09980190033981,3.36599969684808,2.73177932259363,0.5,59.2712350132165
CBC_1054,CBC_1054_MSI_AV_v3_Vset4_Aset2_2024-03-03_11h43.50.758.csv,2,44,1,0,z,0,1,1,aud,A,63,1,1A,0A,0,1,b,2.33051599999817,1,0,0,0,1A,0A,A10,2.97892515523761,0.874965013088821,0.5,0.5,0.5,0.41562567444792,0.752493538248827,0.5,0.5,0.5,0.5,0.921242189352986,0.41562567444792,0.5,0.345489402520577,0.287188531874448,0.80155881142387,0.363645616608646,0.636354383391354,0.5,0.874965013088821,0.0316051322397761,0.0754302133083661,-0.5,-0.0843743255520796,0.5,0.168748651104159,1.09980190033981,3.36599969684808,2.73177932259363,0.5,59.2712350132165
