ID,filename,session,trial,visStimLeft,visStimRight,correctKey,leftCorrect,rightCorrect,secondStim,mod2Type,mod2Stim,frequency,rewardAccurate,stimPairLeft,stimPairRight,pCorrectLeft,pCorrectRight,key,reactionTime,choiceLeft,choiceRight,choiceAccurate,reward,chosenPair,otherPair,triplet,surprise,0A belief,1A belief,2A belief,3A belief,0B belief,1B belief,2B belief,3B belief,0C belief,1C belief,2C belief,3C belief,0D belief,1D belief,2D belief,3D belief,beliefPairNorm,beliefOtherPairNorm,beliefPair,beliefOtherPair,lik,corrLik,rewardPE,update2,fitCBCsimpleRW_CBCdriftDiffusionLR_startBelief,fitCBCsimpleRW_CBCdriftDiffusionLR_alpha1,fitCBCsimpleRW_CBCdriftDiffusionLR_nonDecisionTime,fitCBCsimpleRW_CBCdriftDiffusionLR_weight,fitCBCsimpleRW_CBCdriftDiffusionLR_startingBoundary,fitCBCsimpleRW_CBCdriftDiffusionLR_startingPoint,fit_CBCsimpleRW_CBCdriftDiffusionLR_NLL
CBC_1059,CBC_1059_MSI_TV_v3_Vset1_Tset3_2024-01-26_15h04.43.497.csv,1,1,1,0,b,1,0,0,tac,B,63,1,1B,0B,1,0,b,2.15438559999984,1,0,1,1,1B,0B,B10,2.77258872223978,0.5,0.5,0.5,0.5,0.5,0.5,0.5,0.5,0.5,0.5,0.5,0.5,0.5,0.5,0.5,0.5,0.5,0.5,0.5,0.5,0.167596635242635,0.500389087402821,0.5,0.0321462489801367,0.5,0.0642924979602735,1.08446246010334,4.9274393864092,3.28932134680135,0.5,83.5603247312027
CBC_1059,CBC_1059_MSI_TV_v3_Vset1_Tset3_2024-01-26_15h04.43.497.csv,1,2,0,1,b,1,0,2,tac,A,63,1,0A,1A,1,0,z,1.49067639999976,0,1,0,0,1A,0A,A01,2.83321334405622,0.5,0.5,0.5,0.5,0.5,0.532146248980137,0.5,0.5,0.5,0.5,0.5,0.5,0.5,0.5,0.5,0.5,0.5,0.5,0.5,0.5,0.0908239580862421,0.500336653919542,-0.5,-0.0321462489801367,0.5,0.0642924979602735,1.08446246010334,4.9274393864092,3.28932134680135,0.5,83.5603247312027
CBC_1059,CBC_1059_MSI_TV_v3_Vset1_Tset3_2024-01-26_15h04.43.497.csv,1,3,1,2,z,0,1,1,tac,C,9,1,1C,2C,0,1,z,3.13637989999916,0,1,1,1,2C,1C,C12,2.89037175789616,0.5,0.467853751019863,0.5,0.5,0.5,0.532146248980137,0.5,0.5,0.5,0.5,0.5,0.5,0.5,0.5,0.5,0.5,0.5,0.5,0.5,0.5,0.113507242419599,0.499150370805627,0.5,0.0321462489801367,0.5,0.0642924979602735,1.08446246010334,4.9274393864092,3.28932134680135,0.5,83.5603247312027
CBC_1059,CBC_1059_MSI_TV_v3_Vset1_Tset3_2024-01-26_15h04.43.497.csv,1,4,1,0,z,0,1,2,tac,A,63,1,1A,0A,0,1,b,3.42280349999965,1,0,0,0,1A,0A,A10,2.94443897916644,0.5,0.467853751019863,0.5,0.5,0.5,0.532146248980137,0.5,0.5,0.5,0.5,0.532146248980137,0.5,0.5,0.5,0.5,0.5,0.48339302350884,0.51660697649116,0.467853751019863,0.5,0.0741083489648467,0.369327456738627,-0.467853751019863,-0.0300794863331509,0.5,0.0642924979602735,1.08446246010334,4.9274393864092,3.28932134680135,0.5,83.5603247312027
CBC_1059,CBC_1059_MSI_TV_v3_Vset1_Tset3_2024-01-26_15h04.43.497.csv,1,5,3,1,b,1,0,3,tac,D,27,1,3D,1D,1,0,z,2.88937389999955,0,1,0,0,1D,3D,D31,2.99573227355399,0.5,0.437774264686712,0.5,0.5,0.5,0.532146248980137,0.5,0.5,0.5,0.5,0.532146248980137,0.5,0.5,0.5,0.5,0.5,0.5,0.5,0.5,0.5,0.126890086628013,0.499780816362032,-0.5,-0.0321462489801367,0.5,0.0642924979602735,1.08446246010334,4.9274393864092,3.28932134680135,0.5,83.5603247312027
CBC_1059,CBC_1059_MSI_TV_v3_Vset1_Tset3_2024-01-26_15h04.43.497.csv,1,6,0,1,z,0,1,0,tac,B,63,1,0B,1B,0,1,b,2.90436930000033,1,0,0,0,0B,1B,B01,3.04452243772342,0.5,0.437774264686712,0.5,0.5,0.5,0.532146248980137,0.5,0.5,0.5,0.5,0.532146248980137,0.5,0.5,0.467853751019863,0.5,0.5,0.484427473813958,0.515572526186042,0.5,0.532146248980137,0.0960563829480378,0.377065853895659,-0.5,-0.0321462489801367,0.5,0.0642924979602735,1.08446246010334,4.9274393864092,3.28932134680135,0.5,83.5603247312027
CBC_1059,CBC_1059_MSI_TV_v3_Vset1_Tset3_2024-01-26_15h04.43.497.csv,1,7,2,3,b,1,0,1,tac,C,63,1,2C,3C,1,0,b,2.56845429999976,1,0,1,1,2C,3C,C23,3.09104245335832,0.5,0.437774264686712,0.5,0.5,0.467853751019863,0.532146248980137,0.5,0.5,0.5,0.5,0.532146248980137,0.5,0.5,0.467853751019863,0.5,0.5,0.515572526186042,0.484427473813958,0.532146248980137,0.5,0.183951465984629,0.62299259466609,0.467853751019863,0.0300794863331509,0.5,0.0642924979602735,1.08446246010334,4.9274393864092,3.28932134680135,0.5,83.5603247312027
CBC_1059,CBC_1059_MSI_TV_v3_Vset1_Tset3_2024-01-26_15h04.43.497.csv,1,8,2,0,z,0,1,2,tac,A,27,1,2A,0A,0,1,b,3.45403669999905,1,0,0,0,2A,0A,A20,3.13549421592915,0.5,0.437774264686712,0.5,0.5,0.467853751019863,0.532146248980137,0.5,0.5,0.5,0.5,0.562225735313288,0.5,0.5,0.467853751019863,0.5,0.5,0.5,0.5,0.5,0.5,0.0983452774812185,0.499322910003132,-0.5,-0.0321462489801367,0.5,0.0642924979602735,1.08446246010334,4.9274393864092,3.28932134680135,0.5,83.5603247312027
CBC_1059,CBC_1059_MSI_TV_v3_Vset1_Tset3_2024-01-26_15h04.43.497.csv,1,9,3,2,b,1,0,3,tac,D,63,1,3D,2D,1,0,b,2.70333779999964,1,0,1,1,3D,2D,D32,3.17805383034795,0.5,0.437774264686712,0.467853751019863,0.5,0.467853751019863,0.532146248980137,0.5,0.5,0.5,0.5,0.562225735313288,0.5,0.5,0.467853751019863,0.5,0.5,0.5,0.5,0.5,0.5,0.137768427782366,0.5005055297093,0.5,0.0321462489801367,0.5,0.0642924979602735,1.08446246010334,4.9274393864092,3.28932134680135,0.5,83.5603247312027
CBC_1059,CBC_1059_MSI_TV_v3_Vset1_Tset3_2024-01-26_15h04.43.497.csv,1,10,3,1,z,0,1,0,tac,B,27,1,3B,1B,0,1,b,3.19483609999952,1,0,0,0,3B,1B,B31,3.2188758248682,0.5,0.437774264686712,0.467853751019863,0.5,0.467853751019863,0.532146248980137,0.5,0.5,0.5,0.5,0.562225735313288,0.5,0.5,0.467853751019863,0.5,0.532146248980137,0.484427473813958,0.515572526186042,0.5,0.532146248980137,0.0839903030912171,0.376697508838431,-0.5,-0.0321462489801367,0.5,0.0642924979602735,1.08446246010334,4.9274393864092,3.28932134680135,0.5,83.5603247312027
CBC_1059,CBC_1059_MSI_TV_v3_Vset1_Tset3_2024-01-26_15h04.43.497.csv,1,11,3,2,z,0,1,1,tac,C,63,0,3C,2C,1,0,z,2.99305960000038,0,1,1,0,2C,3C,C32,3.25809653802148,0.5,0.437774264686712,0.467853751019863,0.5,0.467853751019863,0.532146248980137,0.5,0.467853751019863,0.5,0.5,0.562225735313288,0.5,0.5,0.467853751019863,0.5,0.532146248980137,0.52929025970875,0.47070974029125,0.562225735313288,0.5,0.17995691139185,0.720837497652955,-0.562225735313288,-0.0361468969408428,0.5,0.0642924979602735,1.08446246010334,4.9274393864092,3.28932134680135,0.5,83.5603247312027
CBC_1059,CBC_1059_MSI_TV_v3_Vset1_Tset3_2024-01-26_15h04.43.497.csv,1,12,1,3,b,1,0,0,tac,B,27,1,1B,3B,1,0,b,4.12322229999972,1,0,1,1,1B,3B,B13,3.29583686600433,0.5,0.437774264686712,0.467853751019863,0.5,0.467853751019863,0.532146248980137,0.5,0.467853751019863,0.5,0.5,0.526078838372445,0.5,0.5,0.467853751019863,0.5,0.532146248980137,0.532146248980137,0.467853751019863,0.532146248980137,0.467853751019863,0.104934742358159,0.738959432488157,0.467853751019863,0.0300794863331509,0.5,0.0642924979602735,1.08446246010334,4.9274393864092,3.28932134680135,0.5,83.5603247312027
CBC_1059,CBC_1059_MSI_TV_v3_Vset1_Tset3_2024-01-26_15h04.43.497.csv,1,13,3,2,z,0,1,1,tac,C,63,1,3C,2C,0,1,z,2.82469910000054,0,1,1,1,2C,3C,C32,2.63905732961526,0.5,0.437774264686712,0.467853751019863,0.5,0.467853751019863,0.562225735313288,0.5,0.467853751019863,0.5,0.5,0.526078838372445,0.5,0.5,0.467853751019863,0.5,0.532146248980137,0.512708009071608,0.487291990928392,0.526078838372445,0.5,0.158407112253934,0.60193685857195,0.473921161627555,0.03046957531727,0.5,0.0642924979602735,1.08446246010334,4.9274393864092,3.28932134680135,0.5,83.5603247312027
CBC_1059,CBC_1059_MSI_TV_v3_Vset1_Tset3_2024-01-26_15h04.43.497.csv,1,14,3,2,b,1,0,3,tac,D,63,1,3D,2D,1,0,b,2.63134959999934,1,0,1,1,3D,2D,D32,2.67414864942653,0.5,0.437774264686712,0.467853751019863,0.5,0.467853751019863,0.562225735313288,0.5,0.467853751019863,0.5,0.5,0.556548413689715,0.5,0.5,0.467853751019863,0.5,0.532146248980137,0.515572526186042,0.484427473813958,0.532146248980137,0.5,0.178909433825701,0.622365454775757,0.467853751019863,0.0300794863331509,0.5,0.0642924979602735,1.08446246010334,4.9274393864092,3.28932134680135,0.5,83.5603247312027
CBC_1059,CBC_1059_MSI_TV_v3_Vset1_Tset3_2024-01-26_15h04.43.497.csv,1,15,0,3,b,1,0,2,tac,A,9,1,0A,3A,1,0,b,4.22155669999938,1,0,1,1,0A,3A,A03,3.40119738166216,0.5,0.437774264686712,0.467853751019863,0.5,0.467853751019863,0.562225735313288,0.5,0.467853751019863,0.5,0.5,0.556548413689715,0.5,0.5,0.467853751019863,0.5,0.562225735313288,0.5,0.5,0.5,0.5,0.0693707732319842,0.499597238915551,0.5,0.0321462489801367,0.5,0.0642924979602735,1.08446246010334,4.9274393864092,3.28932134680135,0.5,83.5603247312027
CBC_1059,CBC_1059_MSI_TV_v3_Vset1_Tset3_2024-01-26_15h04.43.497.csv,1,16,0,1,z,0,1,0,tac,B,63,0,0B,1B,1,0,z,3.71650849999969,0,1,1,0,1B,0B,B01,2.7408400239252,0.532146248980137,0.437774264686712,0.467853751019863,0.5,0.467853751019863,0.562225735313288,0.5,0.467853751019863,0.5,0.5,0.556548413689715,0.5,0.5,0.467853751019863,0.5,0.562225735313288,0.545808107794364,0.454191892205636,0.562225735313288,0.467853751019863,0.140355313491329,0.8147341903515,-0.562225735313288,-0.0361468969408428,0.5,0.0642924979602735,1.08446246010334,4.9274393864092,3.28932134680135,0.5,83.5603247312027
CBC_1059,CBC_1059_MSI_TV_v3_Vset1_Tset3_2024-01-26_15h04.43.497.csv,1,17,2,3,z,0,1,3,tac,D,63,1,2D,3D,0,1,z,2.45690789999935,0,1,1,1,3D,2D,D23,3.46573590279973,0.532146248980137,0.437774264686712,0.467853751019863,0.5,0.467853751019863,0.526078838372445,0.5,0.467853751019863,0.5,0.5,0.556548413689715,0.5,0.5,0.467853751019863,0.5,0.562225735313288,0.52929025970875,0.47070974029125,0.562225735313288,0.5,0.230869058751771,0.720689312701184,0.437774264686712,0.0281456010194307,0.5,0.0642924979602735,1.08446246010334,4.9274393864092,3.28932134680135,0.5,83.5603247312027
CBC_1059,CBC_1059_MSI_TV_v3_Vset1_Tset3_2024-01-26_15h04.43.497.csv,1,18,0,2,z,0,1,1,tac,C,27,1,0C,2C,0,1,b,3.31130359999952,1,0,0,0,0C,2C,C02,3.49650756146648,0.532146248980137,0.437774264686712,0.467853751019863,0.5,0.467853751019863,0.526078838372445,0.5,0.467853751019863,0.5,0.5,0.556548413689715,0.5,0.5,0.467853751019863,0.5,0.590371336332718,0.473239080690948,0.526760919309052,0.5,0.556548413689715,0.0632023338870906,0.296683547688582,-0.5,-0.0321462489801367,0.5,0.0642924979602735,1.08446246010334,4.9274393864092,3.28932134680135,0.5,83.5603247312027
CBC_1059,CBC_1059_MSI_TV_v3_Vset1_Tset3_2024-01-26_15h04.43.497.csv,1,19,0,1,b,1,0,2,tac,A,63,1,0A,1A,1,0,b,3.22114909999982,1,0,1,1,0A,1A,A01,2.83321334405622,0.532146248980137,0.437774264686712,0.467853751019863,0.5,0.467853751019863,0.526078838372445,0.5,0.467853751019863,0.467853751019863,0.5,0.556548413689715,0.5,0.5,0.467853751019863,0.5,0.590371336332718,0.548649339282785,0.451350660717214,0.532146248980137,0.437774264686712,0.188299198797503,0.828585534307458,0.467853751019863,0.0300794863331509,0.5,0.0642924979602735,1.08446246010334,4.9274393864092,3.28932134680135,0.5,83.5603247312027
CBC_1059,CBC_1059_MSI_TV_v3_Vset1_Tset3_2024-01-26_15h04.43.497.csv,1,20,1,0,b,1,0,0,tac,B,63,1,1B,0B,1,0,b,2.22754910000003,1,0,1,1,1B,0B,B10,2.86220088092947,0.562225735313288,0.437774264686712,0.467853751019863,0.5,0.467853751019863,0.526078838372445,0.5,0.467853751019863,0.467853751019863,0.5,0.556548413689715,0.5,0.5,0.467853751019863,0.5,0.590371336332718,0.52929025970875,0.47070974029125,0.526078838372445,0.467853751019863,0.252058853188878,0.721103492988391,0.473921161627555,0.03046957531727,0.5,0.0642924979602735,1.08446246010334,4.9274393864092,3.28932134680135,0.5,83.5603247312027
CBC_1059,CBC_1059_MSI_TV_v3_Vset1_Tset3_2024-01-26_15h04.43.497.csv,1,21,1,3,z,0,1,3,tac,D,27,1,1D,3D,0,1,z,3.70147329999963,0,1,1,1,3D,1D,D13,3.58351893845611,0.562225735313288,0.437774264686712,0.467853751019863,0.5,0.467853751019863,0.556548413689715,0.5,0.467853751019863,0.467853751019863,0.5,0.556548413689715,0.5,0.5,0.467853751019863,0.5,0.590371336332718,0.557888244560221,0.442111755439779,0.590371336332718,0.467853751019863,0.146887440655433,0.86713814247238,0.409628663667282,0.0263360500232983,0.5,0.0642924979602735,1.08446246010334,4.9274393864092,3.28932134680135,0.5,83.5603247312027
CBC_1059,CBC_1059_MSI_TV_v3_Vset1_Tset3_2024-01-26_15h04.43.497.csv,1,22,3,2,z,0,1,1,tac,C,63,1,3C,2C,0,1,z,2.73550780000096,0,1,1,1,2C,3C,C32,2.51230562397611,0.562225735313288,0.437774264686712,0.467853751019863,0.5,0.467853751019863,0.556548413689715,0.5,0.467853751019863,0.467853751019863,0.5,0.556548413689715,0.5,0.5,0.467853751019863,0.5,0.616707386356017,0.526760919309052,0.473239080690948,0.556548413689715,0.5,0.197642203635909,0.703843097832792,0.443451586310285,0.0285106102083341,0.5,0.0642924979602735,1.08446246010334,4.9274393864092,3.28932134680135,0.5,83.5603247312027
CBC_1059,CBC_1059_MSI_TV_v3_Vset1_Tset3_2024-01-26_15h04.43.497.csv,1,23,0,1,b,1,0,2,tac,A,63,1,0A,1A,1,0,z,4.01533499999914,0,1,0,0,1A,0A,A01,2.53897387105828,0.562225735313288,0.437774264686712,0.467853751019863,0.5,0.467853751019863,0.556548413689715,0.5,0.467853751019863,0.467853751019863,0.5,0.585059023898049,0.5,0.5,0.467853751019863,0.5,0.616707386356017,0.437774264686712,0.562225735313288,0.437774264686712,0.562225735313288,0.0160027523693567,0.117230321123395,-0.437774264686712,-0.0281456010194307,0.5,0.0642924979602735,1.08446246010334,4.9274393864092,3.28932134680135,0.5,83.5603247312027
CBC_1059,CBC_1059_MSI_TV_v3_Vset1_Tset3_2024-01-26_15h04.43.497.csv,1,24,2,3,z,0,1,3,tac,D,63,1,2D,3D,0,1,z,2.68825340000058,0,1,1,1,3D,2D,D23,2.9704144655697,0.562225735313288,0.409628663667282,0.467853751019863,0.5,0.467853751019863,0.556548413689715,0.5,0.467853751019863,0.467853751019863,0.5,0.585059023898049,0.5,0.5,0.467853751019863,0.5,0.616707386356017,0.552255133162883,0.447744866837117,0.616707386356017,0.5,0.261704847835719,0.845761951244525,0.383292613643983,0.0246428395808937,0.5,0.0642924979602735,1.08446246010334,4.9274393864092,3.28932134680135,0.5,83.5603247312027
CBC_1059,CBC_1059_MSI_TV_v3_Vset1_Tset3_2024-01-26_15h04.43.497.csv,1,25,2,0,b,1,0,1,tac,C,27,1,2C,0C,1,0,b,3.03443659999994,1,0,1,1,2C,0C,C20,3.68887945411394,0.562225735313288,0.409628663667282,0.467853751019863,0.5,0.467853751019863,0.556548413689715,0.5,0.467853751019863,0.467853751019863,0.5,0.585059023898049,0.5,0.5,0.467853751019863,0.5,0.64135022593691,0.555657636449194,0.444342363550806,0.585059023898049,0.467853751019863,0.218719058162473,0.858460566302001,0.414940976101951,0.0266775918596686,0.5,0.0642924979602735,1.08446246010334,4.9274393864092,3.28932134680135,0.5,83.5603247312027
CBC_1059,CBC_1059_MSI_TV_v3_Vset1_Tset3_2024-01-26_15h04.43.497.csv,1,26,0,1,b,1,0,2,tac,A,63,1,0A,1A,1,0,b,3.14882579999994,1,0,1,1,0A,1A,A01,2.32727770558442,0.562225735313288,0.409628663667282,0.467853751019863,0.5,0.467853751019863,0.556548413689715,0.5,0.467853751019863,0.467853751019863,0.5,0.611736615757717,0.5,0.5,0.467853751019863,0.5,0.64135022593691,0.578508196189714,0.421491803810286,0.562225735313288,0.409628663667282,0.217599039433346,0.92767670919641,0.437774264686712,0.0281456010194307,0.5,0.0642924979602735,1.08446246010334,4.9274393864092,3.28932134680135,0.5,83.5603247312027
CBC_1059,CBC_1059_MSI_TV_v3_Vset1_Tset3_2024-01-26_15h04.43.497.csv,1,27,1,3,b,1,0,0,tac,B,27,1,1B,3B,1,0,b,2.95870149999882,1,0,1,1,1B,3B,B13,3.04452243772342,0.590371336332718,0.409628663667282,0.467853751019863,0.5,0.467853751019863,0.556548413689715,0.5,0.467853751019863,0.467853751019863,0.5,0.611736615757717,0.5,0.5,0.467853751019863,0.5,0.64135022593691,0.543290938717899,0.456709061282101,0.556548413689715,0.467853751019863,0.209571170553254,0.803266570625861,0.443451586310285,0.0285106102083341,0.5,0.0642924979602735,1.08446246010334,4.9274393864092,3.28932134680135,0.5,83.5603247312027
CBC_1059,CBC_1059_MSI_TV_v3_Vset1_Tset3_2024-01-26_15h04.43.497.csv,1,28,3,2,z,0,1,1,tac,C,63,1,3C,2C,0,1,b,3.85286969999925,1,0,0,0,3C,2C,C32,2.37490575457367,0.590371336332718,0.409628663667282,0.467853751019863,0.5,0.467853751019863,0.585059023898049,0.5,0.467853751019863,0.467853751019863,0.5,0.611736615757717,0.5,0.5,0.467853751019863,0.5,0.64135022593691,0.44974681315072,0.55025318684928,0.5,0.611736615757717,0.0258789992345464,0.163830841361465,-0.5,-0.0321462489801367,0.5,0.0642924979602735,1.08446246010334,4.9274393864092,3.28932134680135,0.5,83.5603247312027
CBC_1059,CBC_1059_MSI_TV_v3_Vset1_Tset3_2024-01-26_15h04.43.497.csv,1,29,3,2,b,1,0,3,tac,D,63,0,3D,2D,0,1,b,2.47435459999997,1,0,1,0,3D,2D,D32,2.68557734525015,0.590371336332718,0.409628663667282,0.467853751019863,0.5,0.467853751019863,0.585059023898049,0.5,0.467853751019863,0.467853751019863,0.5,0.611736615757717,0.467853751019863,0.5,0.467853751019863,0.5,0.64135022593691,0.561922371733391,0.438077628266609,0.64135022593691,0.5,0.317894016737519,0.880987174878117,-0.64135022593691,-0.0412340080928697,0.5,0.0642924979602735,1.08446246010334,4.9274393864092,3.28932134680135,0.5,83.5603247312027
CBC_1059,CBC_1059_MSI_TV_v3_Vset1_Tset3_2024-01-26_15h04.43.497.csv,1,30,0,1,z,0,1,0,tac,B,63,1,0B,1B,0,1,z,2.40777029999936,0,1,1,1,1B,0B,B01,2.70805020110221,0.590371336332718,0.409628663667282,0.467853751019863,0.5,0.467853751019863,0.585059023898049,0.5,0.467853751019863,0.467853751019863,0.5,0.611736615757717,0.467853751019863,0.5,0.467853751019863,0.5,0.600116217844041,0.555657636449194,0.444342363550806,0.585059023898049,0.467853751019863,0.313225076039313,0.85892191900223,0.414940976101951,0.0266775918596686,0.5,0.0642924979602735,1.08446246010334,4.9274393864092,3.28932134680135,0.5,83.5603247312027
CBC_1059,CBC_1059_MSI_TV_v3_Vset1_Tset3_2024-01-26_15h04.43.497.csv,1,31,2,0,z,0,1,2,tac,A,27,1,2A,0A,0,1,b,2.73063809999894,1,0,0,0,2A,0A,A20,3.13549421592915,0.590371336332718,0.409628663667282,0.467853751019863,0.5,0.467853751019863,0.611736615757717,0.5,0.467853751019863,0.467853751019863,0.5,0.611736615757717,0.467853751019863,0.5,0.467853751019863,0.5,0.600116217844041,0.442111755439779,0.557888244560221,0.467853751019863,0.590371336332718,0.0406083751355818,0.13238257078505,-0.467853751019863,-0.0300794863331509,0.5,0.0642924979602735,1.08446246010334,4.9274393864092,3.28932134680135,0.5,83.5603247312027
CBC_1059,CBC_1059_MSI_TV_v3_Vset1_Tset3_2024-01-26_15h04.43.497.csv,1,32,3,0,b,1,0,3,tac,D,9,1,3D,0D,1,0,b,2.68365080000058,1,0,1,1,3D,0D,D30,3.85014760171006,0.590371336332718,0.409628663667282,0.437774264686712,0.5,0.467853751019863,0.611736615757717,0.5,0.467853751019863,0.467853751019863,0.5,0.611736615757717,0.467853751019863,0.5,0.467853751019863,0.5,0.600116217844041,0.545502564283728,0.454497435716272,0.600116217844041,0.5,0.247476274189695,0.814712388821363,0.399883782155959,0.0257095272486085,0.5,0.0642924979602735,1.08446246010334,4.9274393864092,3.28932134680135,0.5,83.5603247312027
CBC_1059,CBC_1059_MSI_TV_v3_Vset1_Tset3_2024-01-26_15h04.43.497.csv,1,33,3,2,z,0,1,1,tac,C,63,1,3C,2C,0,1,z,2.51115229999868,0,1,1,1,2C,3C,C32,2.26176309847379,0.590371336332718,0.409628663667282,0.437774264686712,0.5,0.467853751019863,0.611736615757717,0.5,0.467853751019863,0.467853751019863,0.5,0.611736615757717,0.467853751019863,0.5,0.467853751019863,0.5,0.625825745092649,0.566637712397955,0.433362287602045,0.611736615757717,0.467853751019863,0.322228986844104,0.896188611763763,0.388263384242283,0.0249624228394458,0.5,0.0642924979602735,1.08446246010334,4.9274393864092,3.28932134680135,0.5,83.5603247312027
CBC_1059,CBC_1059_MSI_TV_v3_Vset1_Tset3_2024-01-26_15h04.43.497.csv,1,34,0,1,z,0,1,0,tac,B,63,1,0B,1B,0,1,z,2.40192089999891,0,1,1,1,1B,0B,B01,2.50552593699074,0.590371336332718,0.409628663667282,0.437774264686712,0.5,0.467853751019863,0.611736615757717,0.5,0.467853751019863,0.467853751019863,0.5,0.636699038597163,0.467853751019863,0.5,0.467853751019863,0.5,0.625825745092649,0.566637712397955,0.433362287602045,0.611736615757717,0.467853751019863,0.344035356543171,0.896357756842977,0.388263384242283,0.0249624228394458,0.5,0.0642924979602735,1.08446246010334,4.9274393864092,3.28932134680135,0.5,83.5603247312027
CBC_1059,CBC_1059_MSI_TV_v3_Vset1_Tset3_2024-01-26_15h04.43.497.csv,1,35,0,1,b,1,0,2,tac,A,63,0,0A,1A,0,1,b,2.76738969999951,1,0,1,0,0A,1A,A01,2.30258509299405,0.590371336332718,0.409628663667282,0.437774264686712,0.5,0.467853751019863,0.636699038597163,0.5,0.467853751019863,0.467853751019863,0.5,0.636699038597163,0.467853751019863,0.5,0.467853751019863,0.5,0.625825745092649,0.590371336332718,0.409628663667282,0.590371336332718,0.409628663667282,0.297219529682058,0.949388135909896,-0.590371336332718,-0.0379564479369752,0.5,0.0642924979602735,1.08446246010334,4.9274393864092,3.28932134680135,0.5,83.5603247312027
CBC_1059,CBC_1059_MSI_TV_v3_Vset1_Tset3_2024-01-26_15h04.43.497.csv,1,36,2,3,z,0,1,3,tac,D,63,1,2D,3D,0,1,z,3.90340429999833,0,1,1,1,3D,2D,D23,2.83321334405622,0.552414888395743,0.409628663667282,0.437774264686712,0.5,0.467853751019863,0.636699038597163,0.5,0.467853751019863,0.467853751019863,0.5,0.636699038597163,0.467853751019863,0.5,0.467853751019863,0.5,0.625825745092649,0.555881536570428,0.444118463429572,0.625825745092649,0.5,0.129498874353159,0.859966935292891,0.374174254907351,0.0240565975204177,0.5,0.0642924979602735,1.08446246010334,4.9274393864092,3.28932134680135,0.5,83.5603247312027
CBC_1059,CBC_1059_MSI_TV_v3_Vset1_Tset3_2024-01-26_15h04.43.497.csv,1,37,1,2,b,1,0,0,tac,B,9,1,1B,2B,1,0,b,2.51270509999904,1,0,1,1,1B,2B,B12,3.95124371858143,0.552414888395743,0.409628663667282,0.437774264686712,0.5,0.467853751019863,0.636699038597163,0.5,0.467853751019863,0.467853751019863,0.5,0.636699038597163,0.467853751019863,0.5,0.467853751019863,0.5,0.649882342613067,0.560129829425152,0.439870170574848,0.636699038597163,0.5,0.307217755832207,0.875591730716039,0.363300961402837,0.0233575263199573,0.5,0.0642924979602735,1.08446246010334,4.9274393864092,3.28932134680135,0.5,83.5603247312027
CBC_1059,CBC_1059_MSI_TV_v3_Vset1_Tset3_2024-01-26_15h04.43.497.csv,1,38,2,0,z,0,1,2,tac,A,27,1,2A,0A,0,1,b,3.93388609999874,1,0,0,0,2A,0A,A20,2.87167962488401,0.552414888395743,0.409628663667282,0.437774264686712,0.5,0.467853751019863,0.66005656491712,0.5,0.467853751019863,0.467853751019863,0.5,0.636699038597163,0.467853751019863,0.5,0.467853751019863,0.5,0.649882342613067,0.442111755439779,0.557888244560221,0.437774264686712,0.552414888395743,0.0195342784542412,0.13310176973028,-0.437774264686712,-0.0281456010194307,0.5,0.0642924979602735,1.08446246010334,4.9274393864092,3.28932134680135,0.5,83.5603247312027
CBC_1059,CBC_1059_MSI_TV_v3_Vset1_Tset3_2024-01-26_15h04.43.497.csv,1,39,2,3,b,1,0,1,tac,C,63,1,2C,3C,1,0,b,2.42764710000029,1,0,1,1,2C,3C,C23,3.29583686600433,0.552414888395743,0.409628663667282,0.409628663667282,0.5,0.467853751019863,0.66005656491712,0.5,0.467853751019863,0.467853751019863,0.5,0.636699038597163,0.467853751019863,0.5,0.467853751019863,0.5,0.649882342613067,0.576431515616308,0.423568484383692,0.636699038597163,0.467853751019863,0.362983963436053,0.922799164767318,0.363300961402837,0.0233575263199573,0.5,0.0642924979602735,1.08446246010334,4.9274393864092,3.28932134680135,0.5,83.5603247312027
CBC_1059,CBC_1059_MSI_TV_v3_Vset1_Tset3_2024-01-26_15h04.43.497.csv,1,40,1,3,z,0,1,3,tac,D,27,1,1D,3D,0,1,z,2.87974019999911,0,1,1,1,3D,1D,D13,3.31418600467253,0.552414888395743,0.409628663667282,0.409628663667282,0.5,0.467853751019863,0.66005656491712,0.5,0.467853751019863,0.467853751019863,0.5,0.66005656491712,0.467853751019863,0.5,0.467853751019863,0.5,0.649882342613067,0.581427356882412,0.418572643117588,0.649882342613067,0.467853751019863,0.267685633934583,0.933425575543419,0.350117657386933,0.0225099387734051,0.5,0.0642924979602735,1.08446246010334,4.9274393864092,3.28932134680135,0.5,83.5603247312027
CBC_1059,CBC_1059_MSI_TV_v3_Vset1_Tset3_2024-01-26_15h04.43.497.csv,1,41,0,1,b,1,0,2,tac,A,63,1,0A,1A,1,0,b,3.09605290000127,1,0,1,1,0A,1A,A01,2.23359222150709,0.552414888395743,0.409628663667282,0.409628663667282,0.5,0.467853751019863,0.66005656491712,0.5,0.467853751019863,0.467853751019863,0.5,0.66005656491712,0.467853751019863,0.5,0.467853751019863,0.5,0.672392281386472,0.574209854856502,0.425790145143498,0.552414888395743,0.409628663667282,0.225108963890171,0.917316473184139,0.447585111604257,0.0287763648748655,0.5,0.0642924979602735,1.08446246010334,4.9274393864092,3.28932134680135,0.5,83.5603247312027
CBC_1059,CBC_1059_MSI_TV_v3_Vset1_Tset3_2024-01-26_15h04.43.497.csv,1,42,0,2,z,0,1,1,tac,C,27,1,0C,2C,0,1,z,3.24732130000029,0,1,1,1,2C,0C,C02,3.3499040872746,0.581191253270608,0.409628663667282,0.409628663667282,0.5,0.467853751019863,0.66005656491712,0.5,0.467853751019863,0.467853751019863,0.5,0.66005656491712,0.467853751019863,0.5,0.467853751019863,0.5,0.672392281386472,0.585203057007945,0.414796942992055,0.66005656491712,0.467853751019863,0.200753966773775,0.940543877188202,0.33994343508288,0.0218558126066744,0.5,0.0642924979602735,1.08446246010334,4.9274393864092,3.28932134680135,0.5,83.5603247312027
CBC_1059,CBC_1059_MSI_TV_v3_Vset1_Tset3_2024-01-26_15h04.43.497.csv,1,43,3,2,b,1,0,3,tac,D,63,1,3D,2D,1,0,b,2.44184699999914,1,0,1,1,3D,2D,D32,2.67414864942653,0.581191253270608,0.409628663667282,0.409628663667282,0.5,0.467853751019863,0.66005656491712,0.5,0.467853751019863,0.467853751019863,0.5,0.681912377523795,0.467853751019863,0.5,0.467853751019863,0.5,0.672392281386472,0.573521586641035,0.426478413358965,0.672392281386472,0.5,0.353020566848412,0.915764578482951,0.327607718613528,0.0210627185807301,0.5,0.0642924979602735,1.08446246010334,4.9274393864092,3.28932134680135,0.5,83.5603247312027
CBC_1059,CBC_1059_MSI_TV_v3_Vset1_Tset3_2024-01-26_15h04.43.497.csv,1,44,1,0,b,1,0,0,tac,B,63,1,1B,0B,1,0,b,2.57196580000073,1,0,1,1,1B,0B,B10,2.97892515523761,0.581191253270608,0.409628663667282,0.409628663667282,0.5,0.467853751019863,0.66005656491712,0.5,0.467853751019863,0.467853751019863,0.5,0.681912377523795,0.467853751019863,0.5,0.467853751019863,0.5,0.693454999967202,0.585203057007945,0.414796942992055,0.66005656491712,0.467853751019863,0.342366862685889,0.940529191530913,0.33994343508288,0.0218558126066744,0.5,0.0642924979602735,1.08446246010334,4.9274393864092,3.28932134680135,0.5,83.5603247312027
CBC_1059,CBC_1059_MSI_AV_v3_Vset3_Aset2_2024-01-26_16h15.47.111.csv,2,1,0,1,b,1,0,2,aud,A,63,1,0A,1A,1,0,z,1.78147759999956,0,1,0,0,1A,0A,A01,2.77258872223978,0.5,0.5,0.5,0.5,0.5,0.5,0.5,0.5,0.5,0.5,0.5,0.5,0.5,0.5,0.5,0.5,0.5,0.5,0.5,0.5,0.217755624018627,0.50057054769946,-0.5,-0.0158513056118981,0.5,0.0317026112237963,1.0958565060634,11.0598685145673,2.91535530488573,0.5,66.403409789033
CBC_1059,CBC_1059_MSI_AV_v3_Vset3_Aset2_2024-01-26_16h15.47.111.csv,2,2,2,3,z,0,1,3,aud,D,63,1,2D,3D,0,1,b,2.84665709999899,1,0,0,0,2D,3D,D23,2.83321334405622,0.5,0.484148694388102,0.5,0.5,0.5,0.5,0.5,0.5,0.5,0.5,0.5,0.5,0.5,0.5,0.5,0.5,0.5,0.5,0.5,0.5,0.13382669956711,0.500732235029423,-0.5,-0.0158513056118981,0.5,0.0317026112237963,1.0958565060634,11.0598685145673,2.91535530488573,0.5,66.403409789033
CBC_1059,CBC_1059_MSI_AV_v3_Vset3_Aset2_2024-01-26_16h15.47.111.csv,2,3,0,2,z,0,1,1,aud,C,27,1,0C,2C,0,1,b,2.38588770000024,1,0,0,0,0C,2C,C02,2.89037175789616,0.5,0.484148694388102,0.5,0.5,0.5,0.5,0.5,0.5,0.5,0.5,0.5,0.5,0.5,0.5,0.484148694388102,0.5,0.5,0.5,0.5,0.5,0.173698147698325,0.500675152615457,-0.5,-0.0158513056118981,0.5,0.0317026112237963,1.0958565060634,11.0598685145673,2.91535530488573,0.5,66.403409789033
CBC_1059,CBC_1059_MSI_AV_v3_Vset3_Aset2_2024-01-26_16h15.47.111.csv,2,4,0,1,b,1,0,2,aud,A,63,1,0A,1A,1,0,z,2.21665329999996,0,1,0,0,1A,0A,A01,2.2512917986065,0.5,0.484148694388102,0.5,0.5,0.5,0.5,0.5,0.5,0.484148694388102,0.5,0.5,0.5,0.5,0.5,0.484148694388102,0.5,0.491946691743693,0.508053308256307,0.484148694388102,0.5,0.143788163579072,0.373265355862166,-0.484148694388102,-0.0153487778326945,0.5,0.0317026112237963,1.0958565060634,11.0598685145673,2.91535530488573,0.5,66.403409789033
CBC_1059,CBC_1059_MSI_AV_v3_Vset3_Aset2_2024-01-26_16h15.47.111.csv,2,5,1,3,b,1,0,0,aud,B,27,1,1B,3B,1,0,b,2.38526040000033,1,0,1,1,1B,3B,B13,2.99573227355399,0.5,0.468799916555407,0.5,0.5,0.5,0.5,0.5,0.5,0.484148694388102,0.5,0.5,0.5,0.5,0.5,0.484148694388102,0.5,0.5,0.5,0.5,0.5,0.173527210207279,0.500011489737133,0.5,0.0158513056118981,0.5,0.0317026112237963,1.0958565060634,11.0598685145673,2.91535530488573,0.5,66.403409789033
CBC_1059,CBC_1059_MSI_AV_v3_Vset3_Aset2_2024-01-26_16h15.47.111.csv,2,6,3,2,z,0,1,1,aud,C,63,1,3C,2C,0,1,z,2.5360150000015,0,1,1,1,2C,3C,C32,3.04452243772342,0.5,0.468799916555407,0.5,0.5,0.5,0.515851305611898,0.5,0.5,0.484148694388102,0.5,0.5,0.5,0.5,0.5,0.484148694388102,0.5,0.5,0.5,0.5,0.5,0.159482967213526,0.499674669974703,0.5,0.0158513056118981,0.5,0.0317026112237963,1.0958565060634,11.0598685145673,2.91535530488573,0.5,66.403409789033
CBC_1059,CBC_1059_MSI_AV_v3_Vset3_Aset2_2024-01-26_16h15.47.111.csv,2,7,3,2,b,1,0,3,aud,D,63,0,3D,2D,0,1,z,2.77762370000164,0,1,0,1,2D,3D,D32,3.09104245335832,0.5,0.468799916555407,0.5,0.5,0.5,0.515851305611898,0.5,0.5,0.484148694388102,0.5,0.515851305611898,0.5,0.5,0.5,0.484148694388102,0.5,0.491946691743693,0.508053308256307,0.484148694388102,0.5,0.104877305663562,0.374684432979151,0.515851305611898,0.0163538333911017,0.5,0.0317026112237963,1.0958565060634,11.0598685145673,2.91535530488573,0.5,66.403409789033
CBC_1059,CBC_1059_MSI_AV_v3_Vset3_Aset2_2024-01-26_16h15.47.111.csv,2,8,0,1,z,0,1,0,aud,B,63,1,0B,1B,0,1,z,1.85642080000071,0,1,1,1,1B,0B,B01,3.13549421592915,0.5,0.468799916555407,0.5,0.5,0.5,0.515851305611898,0.5,0.5,0.484148694388102,0.5,0.515851305611898,0.5,0.5,0.5,0.500502527779204,0.5,0.507801981217295,0.492198018782705,0.515851305611898,0.5,0.276428292467585,0.624445997322496,0.484148694388102,0.0153487778326945,0.5,0.0317026112237963,1.0958565060634,11.0598685145673,2.91535530488573,0.5,66.403409789033
CBC_1059,CBC_1059_MSI_AV_v3_Vset3_Aset2_2024-01-26_16h15.47.111.csv,2,9,2,0,z,0,1,2,aud,A,27,1,2A,0A,0,1,z,1.62452950000079,0,1,1,1,0A,2A,A20,3.17805383034795,0.5,0.468799916555407,0.5,0.5,0.5,0.531200083444593,0.5,0.5,0.484148694388102,0.5,0.515851305611898,0.5,0.5,0.5,0.500502527779204,0.5,0.5,0.5,0.5,0.5,0.202650008297647,0.499662169345755,0.5,0.0158513056118981,0.5,0.0317026112237963,1.0958565060634,11.0598685145673,2.91535530488573,0.5,66.403409789033
CBC_1059,CBC_1059_MSI_AV_v3_Vset3_Aset2_2024-01-26_16h15.47.111.csv,2,10,3,0,b,1,0,3,aud,D,9,1,3D,0D,1,0,b,3.08278600000085,1,0,1,1,3D,0D,D30,3.2188758248682,0.515851305611898,0.468799916555407,0.5,0.5,0.5,0.531200083444593,0.5,0.5,0.484148694388102,0.5,0.515851305611898,0.5,0.5,0.5,0.500502527779204,0.5,0.5,0.5,0.5,0.5,0.116663830253431,0.500363315296478,0.5,0.0158513056118981,0.5,0.0317026112237963,1.0958565060634,11.0598685145673,2.91535530488573,0.5,66.403409789033
CBC_1059,CBC_1059_MSI_AV_v3_Vset3_Aset2_2024-01-26_16h15.47.111.csv,2,11,2,3,b,1,0,1,aud,C,63,1,2C,3C,1,0,z,2.42945070000133,0,1,0,0,3C,2C,C23,3.25809653802148,0.515851305611898,0.468799916555407,0.5,0.5,0.5,0.531200083444593,0.5,0.5,0.484148694388102,0.5,0.515851305611898,0.5,0.5,0.5,0.500502527779204,0.515851305611898,0.492198018782705,0.507801981217295,0.5,0.515851305611898,0.129033846426168,0.376578676508814,-0.5,-0.0158513056118981,0.5,0.0317026112237963,1.0958565060634,11.0598685145673,2.91535530488573,0.5,66.403409789033
CBC_1059,CBC_1059_MSI_AV_v3_Vset3_Aset2_2024-01-26_16h15.47.111.csv,2,12,0,1,z,0,1,0,aud,B,63,1,0B,1B,0,1,z,2.20969280000099,0,1,1,1,1B,0B,B01,2.60268968544438,0.515851305611898,0.468799916555407,0.5,0.5,0.5,0.531200083444593,0.5,0.5,0.484148694388102,0.5,0.515851305611898,0.484148694388102,0.5,0.5,0.500502527779204,0.515851305611898,0.515128045442148,0.484871954557852,0.531200083444593,0.5,0.290908432817914,0.725655972708484,0.468799916555407,0.0148621814963042,0.5,0.0317026112237963,1.0958565060634,11.0598685145673,2.91535530488573,0.5,66.403409789033
CBC_1059,CBC_1059_MSI_AV_v3_Vset3_Aset2_2024-01-26_16h15.47.111.csv,2,13,2,3,z,0,1,3,aud,D,63,1,2D,3D,0,1,b,2.52924490000078,1,0,0,0,2D,3D,D23,2.63905732961526,0.515851305611898,0.468799916555407,0.5,0.5,0.5,0.546062264940897,0.5,0.5,0.484148694388102,0.5,0.515851305611898,0.484148694388102,0.5,0.5,0.500502527779204,0.515851305611898,0.492449097288548,0.507550902711452,0.500502527779204,0.515851305611898,0.123080546231568,0.380575823802278,-0.500502527779204,-0.0158672370547114,0.5,0.0317026112237963,1.0958565060634,11.0598685145673,2.91535530488573,0.5,66.403409789033
CBC_1059,CBC_1059_MSI_AV_v3_Vset3_Aset2_2024-01-26_16h15.47.111.csv,2,14,2,3,b,1,0,1,aud,C,63,1,2C,3C,1,0,z,2.72372460000042,0,1,0,0,3C,2C,C23,2.67414864942653,0.515851305611898,0.468799916555407,0.5,0.5,0.5,0.546062264940897,0.5,0.5,0.484148694388102,0.5,0.515851305611898,0.484148694388102,0.5,0.5,0.484635290724492,0.515851305611898,0.484148694388102,0.515851305611898,0.484148694388102,0.515851305611898,0.0779082336161565,0.264855707228843,-0.484148694388102,-0.0153487778326945,0.5,0.0317026112237963,1.0958565060634,11.0598685145673,2.91535530488573,0.5,66.403409789033
CBC_1059,CBC_1059_MSI_AV_v3_Vset3_Aset2_2024-01-26_16h15.47.111.csv,2,15,3,1,z,0,1,0,aud,B,27,1,3B,1B,0,1,z,1.90308469999945,0,1,1,1,1B,3B,B31,3.40119738166216,0.515851305611898,0.468799916555407,0.5,0.5,0.5,0.546062264940897,0.5,0.5,0.484148694388102,0.5,0.515851305611898,0.468799916555407,0.5,0.5,0.484635290724492,0.515851305611898,0.522016980482275,0.477983019517725,0.546062264940897,0.5,0.397989250815817,0.805981512843551,0.453937735059103,0.0143910115343894,0.5,0.0317026112237963,1.0958565060634,11.0598685145673,2.91535530488573,0.5,66.403409789033
CBC_1059,CBC_1059_MSI_AV_v3_Vset3_Aset2_2024-01-26_16h15.47.111.csv,2,16,0,3,b,1,0,2,aud,A,9,1,0A,3A,1,0,b,1.69202250000126,1,0,1,1,0A,3A,A03,3.43398720448515,0.515851305611898,0.468799916555407,0.5,0.5,0.5,0.560453276475286,0.5,0.5,0.484148694388102,0.5,0.515851305611898,0.468799916555407,0.5,0.5,0.484635290724492,0.515851305611898,0.507801981217295,0.492198018782705,0.515851305611898,0.5,0.271189964774174,0.623544895413143,0.484148694388102,0.0153487778326945,0.5,0.0317026112237963,1.0958565060634,11.0598685145673,2.91535530488573,0.5,66.403409789033
CBC_1059,CBC_1059_MSI_AV_v3_Vset3_Aset2_2024-01-26_16h15.47.111.csv,2,17,2,3,z,0,1,3,aud,D,63,1,2D,3D,0,1,b,2.62202130000151,1,0,0,0,2D,3D,D23,2.36712361413162,0.531200083444593,0.468799916555407,0.5,0.5,0.5,0.560453276475286,0.5,0.5,0.484148694388102,0.5,0.515851305611898,0.468799916555407,0.5,0.5,0.484635290724492,0.515851305611898,0.484399583661733,0.515600416338267,0.484635290724492,0.515851305611898,0.0838545860155369,0.267493352269534,-0.484635290724492,-0.01536420420717,0.5,0.0317026112237963,1.0958565060634,11.0598685145673,2.91535530488573,0.5,66.403409789033
CBC_1059,CBC_1059_MSI_AV_v3_Vset3_Aset2_2024-01-26_16h15.47.111.csv,2,18,0,2,z,0,1,1,aud,C,27,1,0C,2C,0,1,z,1.92406080000183,0,1,1,1,2C,0C,C02,2.80336038090653,0.531200083444593,0.468799916555407,0.5,0.5,0.5,0.560453276475286,0.5,0.5,0.484148694388102,0.5,0.515851305611898,0.468799916555407,0.5,0.5,0.469271086517322,0.515851305611898,0.515851305611898,0.484148694388102,0.515851305611898,0.484148694388102,0.338890982436721,0.735390173106238,0.484148694388102,0.0153487778326945,0.5,0.0317026112237963,1.0958565060634,11.0598685145673,2.91535530488573,0.5,66.403409789033
CBC_1059,CBC_1059_MSI_AV_v3_Vset3_Aset2_2024-01-26_16h15.47.111.csv,2,19,0,1,b,1,0,2,aud,A,63,1,0A,1A,1,0,b,1.74153880000085,1,0,1,1,0A,1A,A01,2.42774823594805,0.531200083444593,0.468799916555407,0.5,0.5,0.5,0.560453276475286,0.5,0.5,0.484148694388102,0.5,0.531200083444593,0.468799916555407,0.5,0.5,0.469271086517322,0.515851305611898,0.531200083444593,0.468799916555407,0.531200083444593,0.468799916555407,0.507175857505629,0.882113350524429,0.468799916555407,0.0148621814963042,0.5,0.0317026112237963,1.0958565060634,11.0598685145673,2.91535530488573,0.5,66.403409789033
CBC_1059,CBC_1059_MSI_AV_v3_Vset3_Aset2_2024-01-26_16h15.47.111.csv,2,20,1,0,b,1,0,0,aud,B,63,0,1B,0B,0,1,b,2.10167530000035,1,0,1,0,1B,0B,B10,3.55534806148941,0.546062264940897,0.468799916555407,0.5,0.5,0.5,0.560453276475286,0.5,0.5,0.484148694388102,0.5,0.531200083444593,0.468799916555407,0.5,0.5,0.469271086517322,0.515851305611898,0.528503507800089,0.471496492199911,0.560453276475286,0.5,0.411407926252262,0.862891266023567,-0.560453276475286,-0.0177678323331988,0.5,0.0317026112237963,1.0958565060634,11.0598685145673,2.91535530488573,0.5,66.403409789033
CBC_1059,CBC_1059_MSI_AV_v3_Vset3_Aset2_2024-01-26_16h15.47.111.csv,2,21,3,1,b,1,0,3,aud,D,27,1,3D,1D,1,0,b,3.23348490000171,1,0,1,1,3D,1D,D31,3.58351893845611,0.546062264940897,0.468799916555407,0.5,0.5,0.5,0.542685444142087,0.5,0.5,0.484148694388102,0.5,0.531200083444593,0.468799916555407,0.5,0.5,0.469271086517322,0.515851305611898,0.507801981217295,0.492198018782705,0.515851305611898,0.5,0.132706925520163,0.621430956561761,0.484148694388102,0.0153487778326945,0.5,0.0317026112237963,1.0958565060634,11.0598685145673,2.91535530488573,0.5,66.403409789033
CBC_1059,CBC_1059_MSI_AV_v3_Vset3_Aset2_2024-01-26_16h15.47.111.csv,2,22,3,2,z,0,1,1,aud,C,63,1,3C,2C,0,1,z,2.61553650000133,0,1,1,1,2C,3C,C32,2.91777073208428,0.546062264940897,0.468799916555407,0.5,0.5,0.5,0.542685444142087,0.5,0.5,0.484148694388102,0.5,0.531200083444593,0.468799916555407,0.5,0.5,0.469271086517322,0.531200083444593,0.531200083444593,0.468799916555407,0.531200083444593,0.468799916555407,0.290533456043872,0.882089271047127,0.468799916555407,0.0148621814963042,0.5,0.0317026112237963,1.0958565060634,11.0598685145673,2.91535530488573,0.5,66.403409789033
CBC_1059,CBC_1059_MSI_AV_v3_Vset3_Aset2_2024-01-26_16h15.47.111.csv,2,23,0,1,z,0,1,0,aud,B,63,1,0B,1B,0,1,z,2.50734569999986,0,1,1,1,1B,0B,B01,2.53897387105828,0.546062264940897,0.468799916555407,0.5,0.5,0.5,0.542685444142087,0.5,0.5,0.484148694388102,0.5,0.546062264940897,0.468799916555407,0.5,0.5,0.469271086517322,0.531200083444593,0.520468993972199,0.479531006027801,0.542685444142087,0.5,0.271034412926732,0.788131276859934,0.457314555857913,0.0144980655713465,0.5,0.0317026112237963,1.0958565060634,11.0598685145673,2.91535530488573,0.5,66.403409789033
CBC_1059,CBC_1059_MSI_AV_v3_Vset3_Aset2_2024-01-26_16h15.47.111.csv,2,24,0,2,b,1,0,2,aud,A,27,1,0A,2A,1,0,b,2.23897829999987,1,0,1,1,0A,2A,A02,3.66356164612965,0.546062264940897,0.468799916555407,0.5,0.5,0.5,0.557183509713434,0.5,0.5,0.484148694388102,0.5,0.546062264940897,0.468799916555407,0.5,0.5,0.469271086517322,0.531200083444593,0.522016980482275,0.477983019517725,0.546062264940897,0.5,0.333620468166954,0.806227491977443,0.453937735059103,0.0143910115343894,0.5,0.0317026112237963,1.0958565060634,11.0598685145673,2.91535530488573,0.5,66.403409789033
CBC_1059,CBC_1059_MSI_AV_v3_Vset3_Aset2_2024-01-26_16h15.47.111.csv,2,25,3,2,b,1,0,3,aud,D,63,1,3D,2D,1,0,b,2.53294939999978,1,0,1,1,3D,2D,D32,2.99573227355399,0.560453276475286,0.468799916555407,0.5,0.5,0.5,0.557183509713434,0.5,0.5,0.484148694388102,0.5,0.546062264940897,0.468799916555407,0.5,0.5,0.469271086517322,0.531200083444593,0.53094991579299,0.46905008420701,0.531200083444593,0.469271086517322,0.309651665984467,0.880344092717285,0.468799916555407,0.0148621814963042,0.5,0.0317026112237963,1.0958565060634,11.0598685145673,2.91535530488573,0.5,66.403409789033
CBC_1059,CBC_1059_MSI_AV_v3_Vset3_Aset2_2024-01-26_16h15.47.111.csv,2,26,0,2,z,0,1,1,aud,C,27,1,0C,2C,0,1,z,2.31926209999983,0,1,1,1,2C,0C,C02,2.6149597780362,0.560453276475286,0.468799916555407,0.5,0.5,0.5,0.557183509713434,0.5,0.5,0.484148694388102,0.5,0.546062264940897,0.468799916555407,0.5,0.5,0.469271086517322,0.546062264940897,0.530048976858643,0.469951023141357,0.546062264940897,0.484148694388102,0.361818959956053,0.874403817297455,0.453937735059103,0.0143910115343894,0.5,0.0317026112237963,1.0958565060634,11.0598685145673,2.91535530488573,0.5,66.403409789033
CBC_1059,CBC_1059_MSI_AV_v3_Vset3_Aset2_2024-01-26_16h15.47.111.csv,2,27,0,1,z,0,1,0,aud,B,63,1,0B,1B,0,1,z,3.33216089999951,0,1,1,1,1B,0B,B01,2.35137525716348,0.560453276475286,0.468799916555407,0.5,0.5,0.5,0.557183509713434,0.5,0.5,0.484148694388102,0.5,0.560453276475286,0.468799916555407,0.5,0.5,0.469271086517322,0.546062264940897,0.527045214566833,0.472954785433167,0.557183509713434,0.5,0.161722271438555,0.8513106544774,0.442816490286566,0.014038439035041,0.5,0.0317026112237963,1.0958565060634,11.0598685145673,2.91535530488573,0.5,66.403409789033
CBC_1059,CBC_1059_MSI_AV_v3_Vset3_Aset2_2024-01-26_16h15.47.111.csv,2,28,1,0,z,0,1,2,aud,A,63,1,1A,0A,0,1,z,2.82413140000062,0,1,1,1,0A,1A,A10,3.76120011569356,0.560453276475286,0.468799916555407,0.5,0.5,0.5,0.571221948748475,0.5,0.5,0.484148694388102,0.5,0.560453276475286,0.468799916555407,0.5,0.5,0.469271086517322,0.546062264940897,0.544524204802319,0.455475795197681,0.560453276475286,0.468799916555407,0.246085426040564,0.9462980707475,0.439546723524714,0.0139347788905975,0.5,0.0317026112237963,1.0958565060634,11.0598685145673,2.91535530488573,0.5,66.403409789033
CBC_1059,CBC_1059_MSI_AV_v3_Vset3_Aset2_2024-01-26_16h15.47.111.csv,2,29,2,3,b,1,0,1,aud,C,63,0,2C,3C,0,1,b,2.09514090000084,1,0,1,0,2C,3C,C23,2.68557734525015,0.574388055365884,0.468799916555407,0.5,0.5,0.5,0.571221948748475,0.5,0.5,0.484148694388102,0.5,0.560453276475286,0.468799916555407,0.5,0.5,0.469271086517322,0.546062264940897,0.544524204802319,0.455475795197681,0.560453276475286,0.468799916555407,0.520002628486525,0.946373293316277,-0.560453276475286,-0.0177678323331988,0.5,0.0317026112237963,1.0958565060634,11.0598685145673,2.91535530488573,0.5,66.403409789033
CBC_1059,CBC_1059_MSI_AV_v3_Vset3_Aset2_2024-01-26_16h15.47.111.csv,2,30,1,3,z,0,1,3,aud,D,27,1,1D,3D,0,1,z,3.85970160000034,0,1,1,1,3D,1D,D13,3.80666248977032,0.574388055365884,0.468799916555407,0.5,0.5,0.5,0.571221948748475,0.5,0.5,0.484148694388102,0.5,0.542685444142087,0.468799916555407,0.5,0.5,0.469271086517322,0.546062264940897,0.522016980482275,0.477983019517725,0.546062264940897,0.5,0.108840333701026,0.805192594354364,0.453937735059103,0.0143910115343894,0.5,0.0317026112237963,1.0958565060634,11.0598685145673,2.91535530488573,0.5,66.403409789033
CBC_1059,CBC_1059_MSI_AV_v3_Vset3_Aset2_2024-01-26_16h15.47.111.csv,2,31,0,1,b,1,0,2,aud,A,63,1,0A,1A,1,0,b,1.59857240000019,1,0,1,1,0A,1A,A01,2.4423470353692,0.574388055365884,0.468799916555407,0.5,0.5,0.5,0.571221948748475,0.5,0.5,0.484148694388102,0.5,0.542685444142087,0.468799916555407,0.5,0.5,0.469271086517322,0.560453276475286,0.550608395443828,0.449391604556171,0.574388055365884,0.468799916555407,0.735377344269849,0.96312026804597,0.425611944634116,0.0134930100129393,0.5,0.0317026112237963,1.0958565060634,11.0598685145673,2.91535530488573,0.5,66.403409789033
CBC_1059,CBC_1059_MSI_AV_v3_Vset3_Aset2_2024-01-26_16h15.47.111.csv,2,32,2,3,z,0,1,3,aud,D,63,1,2D,3D,0,1,z,2.40478050000092,0,1,1,1,3D,2D,D23,2.46385324059017,0.587881065378823,0.468799916555407,0.5,0.5,0.5,0.571221948748475,0.5,0.5,0.484148694388102,0.5,0.542685444142087,0.468799916555407,0.5,0.5,0.469271086517322,0.560453276475286,0.544275047398591,0.455724952601409,0.560453276475286,0.469271086517322,0.382165044170966,0.94588772642683,0.439546723524714,0.0139347788905975,0.5,0.0317026112237963,1.0958565060634,11.0598685145673,2.91535530488573,0.5,66.403409789033
CBC_1059,CBC_1059_MSI_AV_v3_Vset3_Aset2_2024-01-26_16h15.47.111.csv,2,33,1,2,b,1,0,0,aud,B,9,1,1B,2B,1,0,b,2.65669580000031,1,0,1,1,1B,2B,B12,3.87120101090789,0.587881065378823,0.468799916555407,0.5,0.5,0.5,0.571221948748475,0.5,0.5,0.484148694388102,0.5,0.542685444142087,0.468799916555407,0.5,0.5,0.469271086517322,0.574388055365884,0.533243320318298,0.466756679681702,0.571221948748475,0.5,0.285503333435588,0.895291110303254,0.428778051251525,0.0135933838601241,0.5,0.0317026112237963,1.0958565060634,11.0598685145673,2.91535530488573,0.5,66.403409789033
CBC_1059,CBC_1059_MSI_AV_v3_Vset3_Aset2_2024-01-26_16h15.47.111.csv,2,34,0,1,b,1,0,2,aud,A,63,1,0A,1A,1,0,b,2.37250590000076,1,0,1,1,0A,1A,A01,2.28238238567653,0.587881065378823,0.468799916555407,0.5,0.5,0.5,0.584815332608599,0.5,0.5,0.484148694388102,0.5,0.542685444142087,0.468799916555407,0.5,0.5,0.469271086517322,0.574388055365884,0.556346783399773,0.443653216600227,0.587881065378823,0.468799916555407,0.398792300226503,0.974271248097318,0.412118934621177,0.0130652463622603,0.5,0.0317026112237963,1.0958565060634,11.0598685145673,2.91535530488573,0.5,66.403409789033
CBC_1059,CBC_1059_MSI_AV_v3_Vset3_Aset2_2024-01-26_16h15.47.111.csv,2,35,1,2,z,0,1,1,aud,C,9,1,1C,2C,0,1,z,2.51260270000057,0,1,1,1,2C,1C,C12,3.91202300542815,0.600946311741083,0.468799916555407,0.5,0.5,0.5,0.584815332608599,0.5,0.5,0.484148694388102,0.5,0.542685444142087,0.468799916555407,0.5,0.5,0.469271086517322,0.574388055365884,0.520468993972199,0.479531006027801,0.542685444142087,0.5,0.27057830242227,0.789199964244505,0.457314555857913,0.0144980655713465,0.5,0.0317026112237963,1.0958565060634,11.0598685145673,2.91535530488573,0.5,66.403409789033
CBC_1059,CBC_1059_MSI_AV_v3_Vset3_Aset2_2024-01-26_16h15.47.111.csv,2,36,0,1,z,0,1,0,aud,B,63,1,0B,1B,0,1,z,2.6321108000011,0,1,1,1,1B,0B,B01,2.32238772029023,0.600946311741083,0.468799916555407,0.5,0.5,0.5,0.584815332608599,0.5,0.5,0.484148694388102,0.5,0.557183509713434,0.468799916555407,0.5,0.5,0.469271086517322,0.574388055365884,0.539092060214824,0.460907939785176,0.584815332608599,0.5,0.300157225275099,0.925663983264726,0.415184667391401,0.0131624380963907,0.5,0.0317026112237963,1.0958565060634,11.0598685145673,2.91535530488573,0.5,66.403409789033
CBC_1059,CBC_1059_MSI_AV_v3_Vset3_Aset2_2024-01-26_16h15.47.111.csv,2,37,1,0,z,0,1,2,aud,A,63,0,1A,0A,1,0,z,1.79386309999973,0,1,1,0,0A,1A,A10,3.25809653802148,0.600946311741083,0.468799916555407,0.5,0.5,0.5,0.59797777070499,0.5,0.5,0.484148694388102,0.5,0.557183509713434,0.468799916555407,0.5,0.5,0.469271086517322,0.574388055365884,0.561765300820977,0.438234699179023,0.600946311741083,0.468799916555407,0.830794177808118,0.981652978868305,-0.600946311741083,-0.0190515672875018,0.5,0.0317026112237963,1.0958565060634,11.0598685145673,2.91535530488573,0.5,66.403409789033
CBC_1059,CBC_1059_MSI_AV_v3_Vset3_Aset2_2024-01-26_16h15.47.111.csv,2,38,1,0,b,1,0,0,aud,B,63,1,1B,0B,1,0,b,2.29591550000077,1,0,1,1,1B,0B,B10,3.27714473299218,0.581894744453581,0.468799916555407,0.5,0.5,0.5,0.59797777070499,0.5,0.5,0.484148694388102,0.5,0.557183509713434,0.468799916555407,0.5,0.5,0.469271086517322,0.574388055365884,0.544617374467463,0.455382625532537,0.59797777070499,0.5,0.427813227314208,0.946831691094325,0.40202222929501,0.0127451544386636,0.5,0.0317026112237963,1.0958565060634,11.0598685145673,2.91535530488573,0.5,66.403409789033
CBC_1059,CBC_1059_MSI_AV_v3_Vset3_Aset2_2024-01-26_16h15.47.111.csv,2,39,3,1,b,1,0,3,aud,D,27,1,3D,1D,1,0,b,2.58162889999949,1,0,1,1,3D,1D,D31,3.29583686600433,0.581894744453581,0.468799916555407,0.5,0.5,0.5,0.610722925143653,0.5,0.5,0.484148694388102,0.5,0.557183509713434,0.468799916555407,0.5,0.5,0.469271086517322,0.574388055365884,0.534618802300697,0.465381197699303,0.574388055365884,0.5,0.307228763914734,0.903256501623743,0.425611944634116,0.0134930100129393,0.5,0.0317026112237963,1.0958565060634,11.0598685145673,2.91535530488573,0.5,66.403409789033
CBC_1059,CBC_1059_MSI_AV_v3_Vset3_Aset2_2024-01-26_16h15.47.111.csv,2,40,2,3,b,1,0,1,aud,C,63,1,2C,3C,1,0,z,3.63584550000087,0,1,0,0,3C,2C,C23,2.62103882411258,0.581894744453581,0.468799916555407,0.5,0.5,0.5,0.610722925143653,0.5,0.5,0.484148694388102,0.5,0.557183509713434,0.468799916555407,0.5,0.5,0.469271086517322,0.587881065378823,0.456927377726048,0.543072622273952,0.468799916555407,0.557183509713434,0.00667998401464632,0.0586711138610526,-0.468799916555407,-0.0148621814963042,0.5,0.0317026112237963,1.0958565060634,11.0598685145673,2.91535530488573,0.5,66.403409789033
CBC_1059,CBC_1059_MSI_AV_v3_Vset3_Aset2_2024-01-26_16h15.47.111.csv,2,41,2,0,z,0,1,2,aud,A,27,1,2A,0A,0,1,z,3.58017459999974,0,1,1,1,0A,2A,A20,3.3322045101752,0.581894744453581,0.468799916555407,0.5,0.5,0.5,0.610722925143653,0.5,0.5,0.484148694388102,0.5,0.557183509713434,0.453937735059103,0.5,0.5,0.469271086517322,0.587881065378823,0.537847833568571,0.462152166431429,0.581894744453581,0.5,0.123968219381254,0.919796101576913,0.418105255546419,0.0132550283672141,0.5,0.0317026112237963,1.0958565060634,11.0598685145673,2.91535530488573,0.5,66.403409789033
CBC_1059,CBC_1059_MSI_AV_v3_Vset3_Aset2_2024-01-26_16h15.47.111.csv,2,42,3,2,b,1,0,3,aud,D,63,1,3D,2D,1,0,b,2.83447150000029,1,0,1,1,3D,2D,D32,2.94443897916644,0.595149772820795,0.468799916555407,0.5,0.5,0.5,0.610722925143653,0.5,0.5,0.484148694388102,0.5,0.557183509713434,0.453937735059103,0.5,0.5,0.469271086517322,0.587881065378823,0.556098821086803,0.443901178913197,0.587881065378823,0.469271086517322,0.215122559525742,0.97397713202704,0.412118934621177,0.0130652463622603,0.5,0.0317026112237963,1.0958565060634,11.0598685145673,2.91535530488573,0.5,66.403409789033
CBC_1059,CBC_1059_MSI_AV_v3_Vset3_Aset2_2024-01-26_16h15.47.111.csv,2,43,3,1,z,0,1,0,aud,B,27,1,3B,1B,0,1,z,2.77388360000077,0,1,1,1,1B,3B,B31,3.36729582998647,0.595149772820795,0.468799916555407,0.5,0.5,0.5,0.610722925143653,0.5,0.5,0.484148694388102,0.5,0.557183509713434,0.453937735059103,0.5,0.5,0.469271086517322,0.600946311741083,0.549842729738082,0.450157270261918,0.610722925143653,0.5,0.250731985566058,0.96132548117847,0.389277074856347,0.0123410997625074,0.5,0.0317026112237963,1.0958565060634,11.0598685145673,2.91535530488573,0.5,66.403409789033
CBC_1059,CBC_1059_MSI_AV_v3_Vset3_Aset2_2024-01-26_16h15.47.111.csv,2,44,2,3,b,1,0,1,aud,C,63,1,2C,3C,1,0,b,2.36178640000071,1,0,1,1,2C,3C,C23,2.46809953147162,0.595149772820795,0.468799916555407,0.5,0.5,0.5,0.623064024906161,0.5,0.5,0.484148694388102,0.5,0.557183509713434,0.453937735059103,0.5,0.5,0.469271086517322,0.600946311741083,0.551055091161474,0.448944908838526,0.557183509713434,0.453937735059103,0.406688020228697,0.964370702005458,0.442816490286566,0.014038439035041,0.5,0.0317026112237963,1.0958565060634,11.0598685145673,2.91535530488573,0.5,66.403409789033
