ID,session,trialNr,mod2Stim,visStimLeft,visStimRight,correctKey,frequency,rewardAccurate,probFB,stimPairLeft,stimPairRight,leftCorrect,rightCorrect,pCorrectLeft,pCorrectRight,triplet,rt,surprise,0A belief,1A belief,2A belief,3A belief,0B belief,1B belief,2B belief,3B belief,0C belief,1C belief,2C belief,3C belief,0D belief,1D belief,2D belief,3D belief,reactionTime,choice,choiceLeft,choiceRight,chosenPair,otherPair,beliefPair,beliefOtherPair,beliefPairNorm,beliefOtherPairNorm,choiceAccurate,reward,rewardPE,update2,sim_CBCsimpleRW_CBCdriftDiffusionLR_startBelief,sim_CBCsimpleRW_CBCdriftDiffusionLR_alpha1,sim_CBCsimpleRW_CBCdriftDiffusionLR_nonDecisionTime,sim_CBCsimpleRW_CBCdriftDiffusionLR_weight,sim_CBCsimpleRW_CBCdriftDiffusionLR_startingBoundary,sim_CBCsimpleRW_CBCdriftDiffusionLR_startingPoint,lik,corrLik,fitCBCsimpleRW_CBCdriftDiffusionLR_startBelief,fitCBCsimpleRW_CBCdriftDiffusionLR_alpha1,fitCBCsimpleRW_CBCdriftDiffusionLR_nonDecisionTime,fitCBCsimpleRW_CBCdriftDiffusionLR_weight,fitCBCsimpleRW_CBCdriftDiffusionLR_startingBoundary,fitCBCsimpleRW_CBCdriftDiffusionLR_startingPoint,fit_CBCsimpleRW_CBCdriftDiffusionLR_NLL
171,1,1,C,0,2,l,27,1,0.95,0C,2C,0,1,0,1,C02,2.00385671214991,2.77258872223978,0.5,0.5,0.5,0.5,0.5,0.5,0.5,0.5,0.5,0.5,0.5,0.5,0.5,0.5,0.5,0.5,1.75701237515107,0,0,1,2C,0C,0.5,0.5,0.5,0.5,1,1,0.5,0.156061560342818,0.5,0.250347233033358,1.09901237515107,12.8690451621997,3.03924811635533,0.5,0.145649373450706,0.500678620547579,0.5,0.312123120685636,1.09676959998073,13.2673459679189,3.37338887907383,0.5,1.95855308062181
171,1,2,D,2,3,l,63,1,0.95,2D,3D,0,1,0,1,D23,1.75100717566889,2.83321334405622,0.5,0.5,0.5,0.5,0.5,0.5,0.5,0.5,0.5,0.5,0.656061560342818,0.5,0.5,0.5,0.5,0.5,10.1060123751511,0,0,1,3D,2D,0.5,0.5,0.5,0.5,1,1,0.5,0.156061560342818,0.5,0.250347233033358,1.09901237515107,12.8690451621997,3.03924811635533,0.5,0.00555349816406066,0.500307758559254,0.5,0.312123120685636,1.09676959998073,13.2673459679189,3.37338887907383,0.5,1.95855308062181
171,1,3,A,0,1,a,63,1,0.95,0A,1A,1,0,1,0,A01,0.273676690534249,2.89037175789616,0.5,0.5,0.5,0.5,0.5,0.5,0.5,0.5,0.5,0.5,0.656061560342818,0.5,0.5,0.5,0.5,0.656061560342818,1.97601237515107,0,0,1,1A,0A,0.5,0.5,0.5,0.5,0,0,-0.5,-0.156061560342818,0.5,0.250347233033358,1.09901237515107,12.8690451621997,3.03924811635533,0.5,0.161699816670544,0.499477239450749,0.5,0.312123120685636,1.09676959998073,13.2673459679189,3.37338887907383,0.5,1.95855308062181
171,1,4,C,3,2,l,63,1,0.95,3C,2C,0,1,0,1,C32,3.46437133843749,2.94443897916644,0.5,0.343938439657182,0.5,0.5,0.5,0.5,0.5,0.5,0.5,0.5,0.656061560342818,0.5,0.5,0.5,0.5,0.656061560342818,1.99101237515107,0,0,1,2C,3C,0.656061560342818,0.5,0.567497080474045,0.432502919525955,1,1,0.343938439657182,0.107351139109548,0.5,0.250347233033358,1.09901237515107,12.8690451621997,3.03924811635533,0.5,0.792508500879853,0.997628927722106,0.5,0.312123120685636,1.09676959998073,13.2673459679189,3.37338887907383,0.5,1.95855308062181
171,1,5,A,2,0,l,27,1,0.95,2A,0A,0,1,0,1,A20,1.1175903921188,2.99573227355399,0.5,0.343938439657182,0.5,0.5,0.5,0.5,0.5,0.5,0.5,0.5,0.763412699452366,0.5,0.5,0.5,0.5,0.656061560342818,3.13701237515107,1,1,0,2A,0A,0.5,0.5,0.5,0.5,0,0,-0.5,-0.156061560342818,0.5,0.250347233033358,1.09901237515107,12.8690451621997,3.03924811635533,0.5,0.113456364314326,0.499025097881395,0.5,0.312123120685636,1.09676959998073,13.2673459679189,3.37338887907383,0.5,1.95855308062181
171,1,6,D,3,2,a,63,1,0.95,3D,2D,1,0,1,0,D32,2.68158049790124,3.04452243772342,0.5,0.343938439657182,0.343938439657182,0.5,0.5,0.5,0.5,0.5,0.5,0.5,0.763412699452366,0.5,0.5,0.5,0.5,0.656061560342818,2.12301237515107,1,1,0,3D,2D,0.656061560342818,0.5,0.567497080474045,0.432502919525955,1,1,0.343938439657182,0.107351139109548,0.5,0.250347233033358,1.09901237515107,12.8690451621997,3.03924811635533,0.5,0.64017631462269,0.997616918385473,0.5,0.312123120685636,1.09676959998073,13.2673459679189,3.37338887907383,0.5,1.95855308062181
171,1,7,D,2,3,l,63,1,0.95,2D,3D,0,1,0,1,D23,0.394648784448693,2.39789527279837,0.5,0.343938439657182,0.343938439657182,0.5,0.5,0.5,0.5,0.5,0.5,0.5,0.763412699452366,0.5,0.5,0.5,0.5,0.763412699452366,1.27501237515107,0,0,1,3D,2D,0.763412699452366,0.5,0.604246498221264,0.395753501778736,1,1,0.236587300547634,0.073844366561518,0.5,0.250347233033358,1.09901237515107,12.8690451621997,3.03924811635533,0.5,0.164520920757553,0.99991173122122,0.5,0.312123120685636,1.09676959998073,13.2673459679189,3.37338887907383,0.5,1.95855308062181
171,1,8,B,1,3,a,27,1,0.95,1B,3B,1,0,1,0,B13,0.746409382747335,3.13549421592915,0.5,0.343938439657182,0.343938439657182,0.5,0.5,0.5,0.5,0.5,0.5,0.5,0.763412699452366,0.5,0.5,0.5,0.5,0.837257066013884,6.75301237515107,1,1,0,1B,3B,0.5,0.5,0.5,0.5,1,1,0.5,0.156061560342818,0.5,0.250347233033358,1.09901237515107,12.8690451621997,3.03924811635533,0.5,0.0237080032734896,0.49899163660128,0.5,0.312123120685636,1.09676959998073,13.2673459679189,3.37338887907383,0.5,1.95855308062181
171,1,9,D,3,0,a,9,1,0.95,3D,0D,1,0,1,0,D30,1.01339471014204,3.17805383034795,0.5,0.343938439657182,0.343938439657182,0.5,0.5,0.656061560342818,0.5,0.5,0.5,0.5,0.763412699452366,0.5,0.5,0.5,0.5,0.837257066013884,1.32801237515107,1,1,0,3D,0D,0.837257066013884,0.5,0.626100311819322,0.373899688180678,1,1,0.162742933986116,0.050795832425283,0.5,0.250347233033358,1.09901237515107,12.8690451621997,3.03924811635533,0.5,0.999138997053175,0.999987519293269,0.5,0.312123120685636,1.09676959998073,13.2673459679189,3.37338887907383,0.5,1.95855308062181
171,1,10,B,0,1,l,63,1,0.95,0B,1B,0,1,0,1,B01,3.01135707688027,3.2188758248682,0.5,0.343938439657182,0.343938439657182,0.5,0.5,0.656061560342818,0.5,0.5,0.5,0.5,0.763412699452366,0.5,0.5,0.5,0.5,0.888052898439167,2.01701237515107,0,0,1,1B,0B,0.656061560342818,0.5,0.567497080474045,0.432502919525955,1,1,0.343938439657182,0.107351139109548,0.5,0.250347233033358,1.09901237515107,12.8690451621997,3.03924811635533,0.5,0.761640897530596,0.997634680346895,0.5,0.312123120685636,1.09676959998073,13.2673459679189,3.37338887907383,0.5,1.95855308062181
171,1,11,A,0,1,a,63,1,0.95,0A,1A,1,0,1,0,A01,1.78073493782961,2.56494935746154,0.5,0.343938439657182,0.343938439657182,0.5,0.5,0.763412699452366,0.5,0.5,0.5,0.5,0.763412699452366,0.5,0.5,0.5,0.5,0.888052898439167,1.99901237515107,1,1,0,0A,1A,0.5,0.343938439657182,0.592460274949801,0.407539725050199,1,1,0.5,0.156061560342818,0.5,0.250347233033358,1.09901237515107,12.8690451621997,3.03924811635533,0.5,0.673243460640534,0.999745490445017,0.5,0.312123120685636,1.09676959998073,13.2673459679189,3.37338887907383,0.5,1.95855308062181
171,1,12,B,1,0,a,63,1,0.95,1B,0B,1,0,1,0,B10,1.21821639863401,3.29583686600433,0.656061560342818,0.343938439657182,0.343938439657182,0.5,0.5,0.763412699452366,0.5,0.5,0.5,0.5,0.763412699452366,0.5,0.5,0.5,0.5,0.888052898439167,1.39001237515107,1,1,0,1B,0B,0.763412699452366,0.5,0.604246498221264,0.395753501778736,1,1,0.236587300547634,0.073844366561518,0.5,0.250347233033358,1.09901237515107,12.8690451621997,3.03924811635533,0.5,1.14642481697918,0.999911313662715,0.5,0.312123120685636,1.09676959998073,13.2673459679189,3.37338887907383,0.5,1.95855308062181
171,1,13,D,3,2,a,63,1,0.95,3D,2D,1,0,1,0,D32,1.9156955713698,2.63905732961526,0.656061560342818,0.343938439657182,0.343938439657182,0.5,0.5,0.837257066013884,0.5,0.5,0.5,0.5,0.763412699452366,0.5,0.5,0.5,0.5,0.888052898439167,1.44101237515107,1,1,0,3D,2D,0.888052898439167,0.5,0.639783180769091,0.360216819230909,1,1,0.111947101560833,0.0349412786908791,0.5,0.250347233033358,1.09901237515107,12.8690451621997,3.03924811635533,0.5,2.61151024725503,0.999996333236021,0.5,0.312123120685636,1.09676959998073,13.2673459679189,3.37338887907383,0.5,1.95855308062181
171,1,14,B,3,1,l,27,1,0.95,3B,1B,0,1,0,1,B31,2.25364108623379,3.36729582998647,0.656061560342818,0.343938439657182,0.343938439657182,0.5,0.5,0.837257066013884,0.5,0.5,0.5,0.5,0.763412699452366,0.5,0.5,0.5,0.5,0.922994177130046,1.60701237515107,0,0,1,1B,3B,0.837257066013884,0.5,0.626100311819322,0.373899688180678,1,1,0.162742933986116,0.050795832425283,0.5,0.250347233033358,1.09901237515107,12.8690451621997,3.03924811635533,0.5,1.84548690692534,0.999987421793654,0.5,0.312123120685636,1.09676959998073,13.2673459679189,3.37338887907383,0.5,1.95855308062181
171,1,15,C,2,3,a,63,1,0.95,2C,3C,1,0,1,0,C23,0.166572040482272,3.40119738166216,0.656061560342818,0.343938439657182,0.343938439657182,0.5,0.5,0.888052898439167,0.5,0.5,0.5,0.5,0.763412699452366,0.5,0.5,0.5,0.5,0.922994177130046,1.61801237515107,1,1,0,2C,3C,0.763412699452366,0.5,0.604246498221264,0.395753501778736,1,1,0.236587300547634,0.073844366561518,0.5,0.250347233033358,1.09901237515107,12.8690451621997,3.03924811635533,0.5,1.6884382991742,0.999911614583564,0.5,0.312123120685636,1.09676959998073,13.2673459679189,3.37338887907383,0.5,1.95855308062181
171,1,16,C,0,2,l,27,1,0.95,0C,2C,0,1,0,1,C02,0.560943479162708,2.7408400239252,0.656061560342818,0.343938439657182,0.343938439657182,0.5,0.5,0.888052898439167,0.5,0.5,0.5,0.5,0.837257066013884,0.5,0.5,0.5,0.5,0.922994177130046,2.02501237515107,0,0,1,2C,0C,0.837257066013884,0.5,0.626100311819322,0.373899688180678,1,1,0.162742933986116,0.050795832425283,0.5,0.250347233033358,1.09901237515107,12.8690451621997,3.03924811635533,0.5,0.254145760091509,0.999987482765659,0.5,0.312123120685636,1.09676959998073,13.2673459679189,3.37338887907383,0.5,1.95855308062181
171,1,17,A,3,0,l,9,1,0.95,3A,0A,0,1,0,1,A30,2.73299079937639,3.46573590279973,0.656061560342818,0.343938439657182,0.343938439657182,0.5,0.5,0.888052898439167,0.5,0.5,0.5,0.5,0.888052898439167,0.5,0.5,0.5,0.5,0.922994177130046,1.52801237515107,0,0,1,0A,3A,0.656061560342818,0.5,0.567497080474045,0.432502919525955,1,1,0.343938439657182,0.107351139109548,0.5,0.250347233033358,1.09901237515107,12.8690451621997,3.03924811635533,0.5,0.901266763318494,0.997627318945418,0.5,0.312123120685636,1.09676959998073,13.2673459679189,3.37338887907383,0.5,1.95855308062181
171,1,18,C,3,2,l,63,0,0.95,3C,2C,0,1,1,0,C32,2.31433109072672,2.80336038090653,0.763412699452366,0.343938439657182,0.343938439657182,0.5,0.5,0.888052898439167,0.5,0.5,0.5,0.5,0.888052898439167,0.5,0.5,0.5,0.5,0.922994177130046,1.74901237515107,0,0,1,2C,3C,0.888052898439167,0.5,0.639783180769091,0.360216819230909,1,0,-0.888052898439167,-0.277181841994756,0.5,0.250347233033358,1.09901237515107,12.8690451621997,3.03924811635533,0.5,0.847540042412455,0.999996299916273,0.5,0.312123120685636,1.09676959998073,13.2673459679189,3.37338887907383,0.5,1.95855308062181
171,1,19,A,0,1,a,63,1,0.95,0A,1A,1,0,1,0,A01,2.67351410751375,2.42774823594805,0.763412699452366,0.343938439657182,0.343938439657182,0.5,0.5,0.888052898439167,0.5,0.5,0.5,0.5,0.61087105644441,0.5,0.5,0.5,0.5,0.922994177130046,1.52701237515107,1,1,0,0A,1A,0.763412699452366,0.343938439657182,0.689404356477429,0.310595643522571,1,1,0.236587300547634,0.073844366561518,0.5,0.250347233033358,1.09901237515107,12.8690451621997,3.03924811635533,0.5,1.83363674509678,0.999999956573267,0.5,0.312123120685636,1.09676959998073,13.2673459679189,3.37338887907383,0.5,1.95855308062181
171,1,20,D,2,3,l,63,1,0.95,2D,3D,0,1,0,1,D23,0.328889134271363,2.4567357728213,0.837257066013884,0.343938439657182,0.343938439657182,0.5,0.5,0.888052898439167,0.5,0.5,0.5,0.5,0.61087105644441,0.5,0.5,0.5,0.5,0.922994177130046,1.45801237515107,0,0,1,3D,2D,0.922994177130046,0.5,0.6486282178551,0.3513717821449,1,1,0.0770058228699543,0.0240352977451354,0.5,0.250347233033358,1.09901237515107,12.8690451621997,3.03924811635533,0.5,2.81847529450348,0.999998333982026,0.5,0.312123120685636,1.09676959998073,13.2673459679189,3.37338887907383,0.5,1.95855308062181
171,1,21,C,2,3,a,63,1,0.95,2C,3C,1,0,1,0,C23,0.0770944573087574,2.89037175789616,0.837257066013884,0.343938439657182,0.343938439657182,0.5,0.5,0.888052898439167,0.5,0.5,0.5,0.5,0.61087105644441,0.5,0.5,0.5,0.5,0.947029474875181,2.11101237515107,1,1,0,2C,3C,0.61087105644441,0.5,0.549902756850681,0.450097243149318,1,1,0.38912894355559,0.121456140211675,0.5,0.250347233033358,1.09901237515107,12.8690451621997,3.03924811635533,0.5,0.621213776769207,0.988600014513359,0.5,0.312123120685636,1.09676959998073,13.2673459679189,3.37338887907383,0.5,1.95855308062181
171,1,22,D,1,3,l,27,1,0.95,1D,3D,0,1,0,1,D13,2.03967073980007,3.61091791264422,0.837257066013884,0.343938439657182,0.343938439657182,0.5,0.5,0.888052898439167,0.5,0.5,0.5,0.5,0.732327196656085,0.5,0.5,0.5,0.5,0.947029474875181,1.60401237515107,0,0,1,3D,1D,0.947029474875181,0.5,0.654464536706739,0.345535463293261,1,1,0.0529705251248188,0.0165333256063153,0.5,0.250347233033358,1.09901237515107,12.8690451621997,3.03924811635533,0.5,1.59986634570209,0.999999013709739,0.5,0.312123120685636,1.09676959998073,13.2673459679189,3.37338887907383,0.5,1.95855308062181
171,1,23,A,1,0,l,63,1,0.95,1A,0A,0,1,0,1,A10,3.35027187372855,3.63758615972639,0.837257066013884,0.343938439657182,0.343938439657182,0.5,0.5,0.888052898439167,0.5,0.5,0.5,0.5,0.732327196656085,0.5,0.5,0.5,0.5,0.963562800481496,1.51301237515107,0,0,1,0A,1A,0.837257066013884,0.343938439657182,0.708821750501173,0.291178249498827,1,1,0.162742933986116,0.050795832425283,0.5,0.250347233033358,1.09901237515107,12.8690451621997,3.03924811635533,0.5,1.57817893465326,0.999999992416303,0.5,0.312123120685636,1.09676959998073,13.2673459679189,3.37338887907383,0.5,1.95855308062181
171,1,24,C,2,3,a,63,1,0.95,2C,3C,1,0,1,0,C23,1.07153480136596,2.56494935746154,0.888052898439167,0.343938439657182,0.343938439657182,0.5,0.5,0.888052898439167,0.5,0.5,0.5,0.5,0.732327196656085,0.5,0.5,0.5,0.5,0.963562800481496,1.39801237515107,1,1,0,2C,3C,0.732327196656085,0.5,0.594263600319178,0.405736399680822,1,1,0.267672803343915,0.0835468707023751,0.5,0.250347233033358,1.09901237515107,12.8690451621997,3.03924811635533,0.5,0.957858475780189,0.999782585564191,0.5,0.312123120685636,1.09676959998073,13.2673459679189,3.37338887907383,0.5,1.95855308062181
171,1,25,A,2,0,l,27,1,0.95,2A,0A,0,1,0,1,A20,1.63240473601566,2.99573227355399,0.888052898439167,0.343938439657182,0.343938439657182,0.5,0.5,0.888052898439167,0.5,0.5,0.5,0.5,0.81587406735846,0.5,0.5,0.5,0.5,0.963562800481496,1.36601237515107,0,0,1,0A,2A,0.888052898439167,0.343938439657182,0.720827225791514,0.279172774208486,1,1,0.111947101560833,0.0349412786908791,0.5,0.250347233033358,1.09901237515107,12.8690451621997,3.03924811635533,0.5,4.71185653313474,0.999999997406689,0.5,0.312123120685636,1.09676959998073,13.2673459679189,3.37338887907383,0.5,1.95855308062181
171,1,26,B,0,1,l,63,1,0.95,0B,1B,0,1,0,1,B01,0.982818976975314,3.02042488614436,0.922994177130046,0.343938439657182,0.343938439657182,0.5,0.5,0.888052898439167,0.5,0.5,0.5,0.5,0.81587406735846,0.5,0.5,0.5,0.5,0.963562800481496,1.61901237515107,0,0,1,1B,0B,0.888052898439167,0.5,0.639783180769091,0.360216819230909,1,1,0.111947101560833,0.0349412786908791,0.5,0.250347233033358,1.09901237515107,12.8690451621997,3.03924811635533,0.5,1.67911084454724,0.999996318340964,0.5,0.312123120685636,1.09676959998073,13.2673459679189,3.37338887907383,0.5,1.95855308062181
171,1,27,B,1,0,a,63,1,0.95,1B,0B,1,0,1,0,B10,0.252969095153522,3.04452243772342,0.922994177130046,0.343938439657182,0.343938439657182,0.5,0.5,0.922994177130046,0.5,0.5,0.5,0.5,0.81587406735846,0.5,0.5,0.5,0.5,0.963562800481496,1.47701237515107,1,1,0,1B,0B,0.922994177130046,0.5,0.6486282178551,0.3513717821449,1,1,0.0770058228699543,0.0240352977451354,0.5,0.250347233033358,1.09901237515107,12.8690451621997,3.03924811635533,0.5,2.74103823217566,0.999998335597378,0.5,0.312123120685636,1.09676959998073,13.2673459679189,3.37338887907383,0.5,1.95855308062181
171,1,28,C,2,3,a,63,1,0.95,2C,3C,1,0,1,0,C23,2.21929708491516,2.37490575457367,0.922994177130046,0.343938439657182,0.343938439657182,0.5,0.5,0.947029474875181,0.5,0.5,0.5,0.5,0.81587406735846,0.5,0.5,0.5,0.5,0.963562800481496,1.49401237515107,1,1,0,2C,3C,0.81587406735846,0.5,0.620024429082549,0.379975570917451,1,1,0.18412593264154,0.0574699606952304,0.5,0.250347233033358,1.09901237515107,12.8690451621997,3.03924811635533,0.5,2.15003776019712,0.999978506383018,0.5,0.312123120685636,1.09676959998073,13.2673459679189,3.37338887907383,0.5,1.95855308062181
171,1,29,D,1,3,l,27,1,0.95,1D,3D,0,1,0,1,D13,1.78601050008387,3.09104245335832,0.922994177130046,0.343938439657182,0.343938439657182,0.5,0.5,0.947029474875181,0.5,0.5,0.5,0.5,0.873344028053691,0.5,0.5,0.5,0.5,0.963562800481496,1.47301237515107,0,0,1,3D,1D,0.963562800481496,0.5,0.658367922554806,0.341632077445194,1,1,0.0364371995185035,0.0113728924227605,0.5,0.250347233033358,1.09901237515107,12.8690451621997,3.03924811635533,0.5,2.87293043956859,0.999999303583471,0.5,0.312123120685636,1.09676959998073,13.2673459679189,3.37338887907383,0.5,1.95855308062181
171,1,30,C,2,1,a,9,1,0.95,2C,1C,1,0,1,0,C21,3.02078361969936,3.80666248977032,0.922994177130046,0.343938439657182,0.343938439657182,0.5,0.5,0.947029474875181,0.5,0.5,0.5,0.5,0.873344028053691,0.5,0.5,0.5,0.5,0.974935692904257,1.59901237515107,1,1,0,2C,1C,0.873344028053691,0.5,0.635925165299912,0.364074834700088,1,1,0.126655971946309,0.0395322572173543,0.5,0.250347233033358,1.09901237515107,12.8690451621997,3.03924811635533,0.5,1.86149394410319,0.999994795336829,0.5,0.312123120685636,1.09676959998073,13.2673459679189,3.37338887907383,0.5,1.95855308062181
171,1,31,B,1,3,a,27,1,0.95,1B,3B,1,0,1,0,B13,0.0415003834428967,3.13549421592915,0.922994177130046,0.343938439657182,0.343938439657182,0.5,0.5,0.947029474875181,0.5,0.5,0.5,0.5,0.912876285271045,0.5,0.5,0.5,0.5,0.974935692904257,1.91601237515107,1,1,0,1B,3B,0.947029474875181,0.5,0.654464536706739,0.345535463293261,1,1,0.0529705251248188,0.0165333256063153,0.5,0.250347233033358,1.09901237515107,12.8690451621997,3.03924811635533,0.5,0.164526015791093,0.999999017187977,0.5,0.312123120685636,1.09676959998073,13.2673459679189,3.37338887907383,0.5,1.95855308062181
171,1,32,D,2,3,l,63,1,0.95,2D,3D,0,1,0,1,D23,0.747117211269387,2.46385324059017,0.922994177130046,0.343938439657182,0.343938439657182,0.5,0.5,0.963562800481496,0.5,0.5,0.5,0.5,0.912876285271045,0.5,0.5,0.5,0.5,0.974935692904257,1.38501237515107,0,0,1,3D,2D,0.974935692904257,0.5,0.661002169514616,0.338997830485384,1,1,0.025064307095743,0.00782314974854643,0.5,0.250347233033358,1.09901237515107,12.8690451621997,3.03924811635533,0.5,3.03673326616302,0.999999451401306,0.5,0.312123120685636,1.09676959998073,13.2673459679189,3.37338887907383,0.5,1.95855308062181
171,1,33,B,1,0,a,63,1,0.95,1B,0B,1,0,1,0,B10,1.54684017650438,2.77258872223978,0.922994177130046,0.343938439657182,0.343938439657182,0.5,0.5,0.963562800481496,0.5,0.5,0.5,0.5,0.912876285271045,0.5,0.5,0.5,0.5,0.982758842652803,1.36601237515107,1,1,0,1B,0B,0.963562800481496,0.5,0.658367922554806,0.341632077445194,1,1,0.0364371995185035,0.0113728924227605,0.5,0.250347233033358,1.09901237515107,12.8690451621997,3.03924811635533,0.5,2.71735302580672,0.999999303342674,0.5,0.312123120685636,1.09676959998073,13.2673459679189,3.37338887907383,0.5,1.95855308062181
171,1,34,A,0,1,a,63,0,0.95,0A,1A,1,0,0,1,A01,0.676726478514995,2.50552593699074,0.922994177130046,0.343938439657182,0.343938439657182,0.5,0.5,0.974935692904257,0.5,0.5,0.5,0.5,0.912876285271045,0.5,0.5,0.5,0.5,0.982758842652803,1.44401237515107,1,1,0,0A,1A,0.922994177130046,0.343938439657182,0.728526651615171,0.271473348384829,1,0,-0.922994177130046,-0.2880878229405,0.5,0.250347233033358,1.09901237515107,12.8690451621997,3.03924811635533,0.5,2.55414999082307,0.999999998693215,0.5,0.312123120685636,1.09676959998073,13.2673459679189,3.37338887907383,0.5,1.95855308062181
171,1,35,C,3,2,l,63,1,0.95,3C,2C,0,1,0,1,C32,2.86262703924046,2.81341071676004,0.634906354189546,0.343938439657182,0.343938439657182,0.5,0.5,0.974935692904257,0.5,0.5,0.5,0.5,0.912876285271045,0.5,0.5,0.5,0.5,0.982758842652803,1.42101237515107,0,0,1,2C,3C,0.912876285271045,0.5,0.646111973700457,0.353888026299543,1,1,0.0871237147289547,0.0271933257269264,0.5,0.250347233033358,1.09901237515107,12.8690451621997,3.03924811635533,0.5,2.74078241231247,0.999997904347842,0.5,0.312123120685636,1.09676959998073,13.2673459679189,3.37338887907383,0.5,1.95855308062181
171,1,36,A,2,0,l,27,1,0.95,2A,0A,0,1,0,1,A20,0.528172023002501,2.83321334405622,0.634906354189546,0.343938439657182,0.343938439657182,0.5,0.5,0.974935692904257,0.5,0.5,0.5,0.5,0.940069610997972,0.5,0.5,0.5,0.5,0.982758842652803,1.68301237515107,0,0,1,0A,2A,0.634906354189546,0.343938439657182,0.6486282178551,0.3513717821449,1,1,0.365093645810454,0.113954168072855,0.5,0.250347233033358,1.09901237515107,12.8690451621997,3.03924811635533,0.5,1.07367541989352,0.99999833452655,0.5,0.312123120685636,1.09676959998073,13.2673459679189,3.37338887907383,0.5,1.95855308062181
171,1,37,B,1,0,a,63,1,0.95,1B,0B,1,0,1,0,B10,2.46357135235275,2.56494935746154,0.748860522262401,0.343938439657182,0.343938439657182,0.5,0.5,0.974935692904257,0.5,0.5,0.5,0.5,0.940069610997972,0.5,0.5,0.5,0.5,0.982758842652803,1.36201237515107,1,1,0,1B,0B,0.974935692904257,0.5,0.661002169514616,0.338997830485384,1,1,0.025064307095743,0.00782314974854643,0.5,0.250347233033358,1.09901237515107,12.8690451621997,3.03924811635533,0.5,2.76009314079956,0.999999443517217,0.5,0.312123120685636,1.09676959998073,13.2673459679189,3.37338887907383,0.5,1.95855308062181
171,1,38,D,3,2,a,63,1,0.95,3D,2D,1,0,1,0,D32,1.2569669828568,2.87167962488401,0.748860522262401,0.343938439657182,0.343938439657182,0.5,0.5,0.982758842652803,0.5,0.5,0.5,0.5,0.940069610997972,0.5,0.5,0.5,0.5,0.982758842652803,1.60401237515107,1,1,0,3D,2D,0.982758842652803,0.5,0.662790748153321,0.337209251846679,1,1,0.0172411573471966,0.00538136383543906,0.5,0.250347233033358,1.09901237515107,12.8690451621997,3.03924811635533,0.5,1.44896781023762,0.999999531644019,0.5,0.312123120685636,1.09676959998073,13.2673459679189,3.37338887907383,0.5,1.95855308062181
171,1,39,B,2,1,l,9,1,0.95,2B,1B,0,1,0,1,B21,1.06354401532152,3.98898404656427,0.748860522262401,0.343938439657182,0.343938439657182,0.5,0.5,0.982758842652803,0.5,0.5,0.5,0.5,0.940069610997972,0.5,0.5,0.5,0.5,0.988140206488243,1.51401237515107,0,0,1,1B,2B,0.982758842652803,0.5,0.662790748153321,0.337209251846679,1,1,0.0172411573471966,0.00538136383543906,0.5,0.250347233033358,1.09901237515107,12.8690451621997,3.03924811635533,0.5,2.45701148774846,0.999999530481029,0.5,0.312123120685636,1.09676959998073,13.2673459679189,3.37338887907383,0.5,1.95855308062181
171,1,40,D,3,1,a,27,1,0.95,3D,1D,1,0,1,0,D31,2.95861094909085,4.00733318523247,0.748860522262401,0.343938439657182,0.343938439657182,0.5,0.5,0.988140206488243,0.5,0.5,0.5,0.5,0.940069610997972,0.5,0.5,0.5,0.5,0.988140206488243,1.33801237515107,1,1,0,3D,1D,0.988140206488243,0.5,0.664010153196576,0.335989846803424,1,1,0.0118597935117575,0.003701715761577,0.5,0.250347233033358,1.09901237515107,12.8690451621997,3.03924811635533,0.5,2.45053848982112,0.999999579223676,0.5,0.312123120685636,1.09676959998073,13.2673459679189,3.37338887907383,0.5,1.95855308062181
171,1,41,A,0,1,a,63,1,0.95,0A,1A,1,0,1,0,A01,1.34885505998734,2.41591377830105,0.748860522262401,0.343938439657182,0.343938439657182,0.5,0.5,0.988140206488243,0.5,0.5,0.5,0.5,0.940069610997972,0.5,0.5,0.5,0.5,0.991841922249819,1.30401237515107,1,1,0,0A,1A,0.748860522262401,0.343938439657182,0.685268332381073,0.314731667618927,1,1,0.251139477737599,0.0783864375188202,0.5,0.250347233033358,1.09901237515107,12.8690451621997,3.03924811635533,0.5,2.43289898002452,0.999999937429065,0.5,0.312123120685636,1.09676959998073,13.2673459679189,3.37338887907383,0.5,1.95855308062181
171,1,42,A,1,0,l,63,1,0.95,1A,0A,0,1,0,1,A10,0.777181892123555,3.3499040872746,0.827246959781221,0.343938439657182,0.343938439657182,0.5,0.5,0.988140206488243,0.5,0.5,0.5,0.5,0.940069610997972,0.5,0.5,0.5,0.5,0.991841922249819,1.41701237515107,0,0,1,0A,1A,0.827246959781221,0.343938439657182,0.706333053825547,0.293666946174453,1,1,0.172753040218779,0.0539202180210164,0.5,0.250347233033358,1.09901237515107,12.8690451621997,3.03924811635533,0.5,3.68711075548124,0.999999990508347,0.5,0.312123120685636,1.09676959998073,13.2673459679189,3.37338887907383,0.5,1.95855308062181
171,1,43,C,0,2,l,27,1,0.95,0C,2C,0,1,0,1,C02,1.44126141246023,2.96183072187831,0.881167177802237,0.343938439657182,0.343938439657182,0.5,0.5,0.988140206488243,0.5,0.5,0.5,0.5,0.940069610997972,0.5,0.5,0.5,0.5,0.991841922249819,1.37201237515107,0,0,1,2C,0C,0.940069610997972,0.5,0.652794562025721,0.347205437974279,1,1,0.0599303890020283,0.0187056600392172,0.5,0.250347233033358,1.09901237515107,12.8690451621997,3.03924811635533,0.5,2.57466222981576,0.999998841257612,0.5,0.312123120685636,1.09676959998073,13.2673459679189,3.37338887907383,0.5,1.95855308062181
171,1,44,B,1,0,a,63,1,0.95,1B,0B,1,0,1,0,B10,1.20480603265624,2.46809953147162,0.881167177802237,0.343938439657182,0.343938439657182,0.5,0.5,0.988140206488243,0.5,0.5,0.5,0.5,0.958775271037189,0.5,0.5,0.5,0.5,0.991841922249819,1.74901237515107,1,1,0,1B,0B,0.988140206488243,0.5,0.664010153196576,0.335989846803424,1,1,0.0118597935117575,0.003701715761577,0.5,0.250347233033358,1.09901237515107,12.8690451621997,3.03924811635533,0.5,0.461330309586019,0.999999580844368,0.5,0.312123120685636,1.09676959998073,13.2673459679189,3.37338887907383,0.5,1.95855308062181
