ID,filename,session,trial,visStimLeft,visStimRight,correctKey,leftCorrect,rightCorrect,secondStim,mod2Type,mod2Stim,frequency,rewardAccurate,stimPairLeft,stimPairRight,pCorrectLeft,pCorrectRight,key,reactionTime,choiceLeft,choiceRight,choiceAccurate,reward,chosenPair,otherPair,triplet,surprise,0A belief,1A belief,2A belief,3A belief,0B belief,1B belief,2B belief,3B belief,0C belief,1C belief,2C belief,3C belief,0D belief,1D belief,2D belief,3D belief,beliefPairNorm,beliefOtherPairNorm,beliefPair,beliefOtherPair,lik,corrLik,rewardPE,update2,fitCBCsimpleRW_CBCdriftDiffusionLR_startBelief,fitCBCsimpleRW_CBCdriftDiffusionLR_alpha1,fitCBCsimpleRW_CBCdriftDiffusionLR_nonDecisionTime,fitCBCsimpleRW_CBCdriftDiffusionLR_weight,fitCBCsimpleRW_CBCdriftDiffusionLR_startingBoundary,fitCBCsimpleRW_CBCdriftDiffusionLR_startingPoint,fit_CBCsimpleRW_CBCdriftDiffusionLR_NLL
CBC_1102,CBC_1102_MSI_TV_v3_Vset4_Tset3_2024-05-26_11h06.10.825.csv,1,1,2,0,b,1,0,3,tac,C,27,1,2C,0C,1,0,r,2.4036371000002,0,1,0,0,0C,2C,C20,2.77258872223978,0.5,0.5,0.5,0.5,0.5,0.5,0.5,0.5,0.5,0.5,0.5,0.5,0.5,0.5,0.5,0.5,0.5,0.5,0.5,0.5,0.175103390596026,0.500969617172832,-0.5,-0.269591817457086,0.5,0.539183634914173,1.0941616755827,0.200066809769279,2.80990789880409,0.5,76.5100070212329
CBC_1102,CBC_1102_MSI_TV_v3_Vset4_Tset3_2024-05-26_11h06.10.825.csv,1,2,3,2,b,1,0,2,tac,D,63,1,3D,2D,1,0,b,2.81562529999974,1,0,1,1,3D,2D,D32,2.83321334405622,0.5,0.5,0.5,0.5,0.5,0.5,0.5,0.5,0.230408182542914,0.5,0.5,0.5,0.5,0.5,0.5,0.5,0.5,0.5,0.5,0.5,0.135843717589494,0.500900838173274,0.5,0.269591817457086,0.5,0.539183634914173,1.0941616755827,0.200066809769279,2.80990789880409,0.5,76.5100070212329
CBC_1102,CBC_1102_MSI_TV_v3_Vset4_Tset3_2024-05-26_11h06.10.825.csv,1,3,1,0,r,0,1,1,tac,A,63,1,1A,0A,0,1,b,2.9850477,1,0,0,0,1A,0A,A10,2.89037175789616,0.5,0.5,0.5,0.5,0.5,0.5,0.5,0.5,0.230408182542914,0.5,0.5,0.5,0.5,0.5,0.5,0.769591817457086,0.5,0.5,0.5,0.5,0.12190317006926,0.499549801928671,-0.5,-0.269591817457086,0.5,0.539183634914173,1.0941616755827,0.200066809769279,2.80990789880409,0.5,76.5100070212329
CBC_1102,CBC_1102_MSI_TV_v3_Vset4_Tset3_2024-05-26_11h06.10.825.csv,1,4,2,3,b,1,0,3,tac,C,63,1,2C,3C,1,0,r,3.01840579999953,0,1,0,0,3C,2C,C23,2.94443897916644,0.5,0.230408182542914,0.5,0.5,0.5,0.5,0.5,0.5,0.230408182542914,0.5,0.5,0.5,0.5,0.5,0.5,0.769591817457086,0.5,0.5,0.5,0.5,0.119698170119344,0.500829905268049,-0.5,-0.269591817457086,0.5,0.539183634914173,1.0941616755827,0.200066809769279,2.80990789880409,0.5,76.5100070212329
CBC_1102,CBC_1102_MSI_TV_v3_Vset4_Tset3_2024-05-26_11h06.10.825.csv,1,5,0,2,b,1,0,1,tac,A,27,1,0A,2A,1,0,r,2.43337580000116,0,1,0,0,2A,0A,A02,2.99573227355399,0.5,0.230408182542914,0.5,0.5,0.5,0.5,0.5,0.5,0.230408182542914,0.5,0.5,0.230408182542914,0.5,0.5,0.5,0.769591817457086,0.5,0.5,0.5,0.5,0.171352958871247,0.499139077170206,-0.5,-0.269591817457086,0.5,0.539183634914173,1.0941616755827,0.200066809769279,2.80990789880409,0.5,76.5100070212329
CBC_1102,CBC_1102_MSI_TV_v3_Vset4_Tset3_2024-05-26_11h06.10.825.csv,1,6,2,3,r,0,1,2,tac,D,63,1,2D,3D,0,1,b,2.60182069999973,1,0,0,0,2D,3D,D23,3.04452243772342,0.5,0.230408182542914,0.230408182542914,0.5,0.5,0.5,0.5,0.5,0.230408182542914,0.5,0.5,0.230408182542914,0.5,0.5,0.5,0.769591817457086,0.393827364925421,0.606172635074579,0.5,0.769591817457086,0.145414024770868,0.469405139394145,-0.5,-0.269591817457086,0.5,0.539183634914173,1.0941616755827,0.200066809769279,2.80990789880409,0.5,76.5100070212329
CBC_1102,CBC_1102_MSI_TV_v3_Vset4_Tset3_2024-05-26_11h06.10.825.csv,1,7,3,2,b,1,0,2,tac,D,63,1,3D,2D,1,0,b,2.97122329999911,1,0,1,1,3D,2D,D32,2.39789527279837,0.5,0.230408182542914,0.230408182542914,0.5,0.5,0.5,0.5,0.5,0.230408182542914,0.5,0.5,0.230408182542914,0.5,0.5,0.230408182542914,0.769591817457086,0.769591817457086,0.230408182542914,0.769591817457086,0.230408182542914,0.141912069172397,0.576244016714575,0.230408182542914,0.124232321377456,0.5,0.539183634914173,1.0941616755827,0.200066809769279,2.80990789880409,0.5,76.5100070212329
CBC_1102,CBC_1102_MSI_TV_v3_Vset4_Tset3_2024-05-26_11h06.10.825.csv,1,8,3,1,r,0,1,0,tac,B,27,1,3B,1B,0,1,r,3.83142459999908,0,1,1,1,1B,3B,B31,3.13549421592915,0.5,0.230408182542914,0.230408182542914,0.5,0.5,0.5,0.5,0.5,0.230408182542914,0.5,0.5,0.230408182542914,0.5,0.5,0.230408182542914,0.893824138834543,0.5,0.5,0.5,0.5,0.0718877991570041,0.499869752691758,0.5,0.269591817457086,0.5,0.539183634914173,1.0941616755827,0.200066809769279,2.80990789880409,0.5,76.5100070212329
CBC_1102,CBC_1102_MSI_TV_v3_Vset4_Tset3_2024-05-26_11h06.10.825.csv,1,9,0,3,r,0,1,2,tac,D,9,1,0D,3D,0,1,r,2.35951310000019,0,1,1,1,3D,0D,D03,3.17805383034795,0.5,0.230408182542914,0.230408182542914,0.5,0.5,0.769591817457086,0.5,0.5,0.230408182542914,0.5,0.5,0.230408182542914,0.5,0.5,0.230408182542914,0.893824138834543,0.641274687337472,0.358725312662528,0.893824138834543,0.5,0.19370079984717,0.539086006282084,0.106175861165457,0.0572482867633338,0.5,0.539183634914173,1.0941616755827,0.200066809769279,2.80990789880409,0.5,76.5100070212329
CBC_1102,CBC_1102_MSI_TV_v3_Vset4_Tset3_2024-05-26_11h06.10.825.csv,1,10,1,0,b,1,0,0,tac,B,63,1,1B,0B,1,0,b,3.99241400000028,1,0,1,1,1B,0B,B10,3.2188758248682,0.5,0.230408182542914,0.230408182542914,0.5,0.5,0.769591817457086,0.5,0.5,0.230408182542914,0.5,0.5,0.230408182542914,0.5,0.5,0.230408182542914,0.951072425597877,0.606172635074579,0.393827364925421,0.769591817457086,0.5,0.068894812143665,0.530223376919125,0.230408182542914,0.124232321377456,0.5,0.539183634914173,1.0941616755827,0.200066809769279,2.80990789880409,0.5,76.5100070212329
CBC_1102,CBC_1102_MSI_TV_v3_Vset4_Tset3_2024-05-26_11h06.10.825.csv,1,11,1,0,r,0,1,1,tac,A,63,1,1A,0A,0,1,b,2.31560339999851,1,0,0,0,1A,0A,A10,2.56494935746154,0.5,0.230408182542914,0.230408182542914,0.5,0.5,0.893824138834543,0.5,0.5,0.230408182542914,0.5,0.5,0.230408182542914,0.5,0.5,0.230408182542914,0.951072425597877,0.315451261431311,0.684548738568689,0.230408182542914,0.5,0.165505760263933,0.448318509235147,-0.230408182542914,-0.124232321377456,0.5,0.539183634914173,1.0941616755827,0.200066809769279,2.80990789880409,0.5,76.5100070212329
CBC_1102,CBC_1102_MSI_TV_v3_Vset4_Tset3_2024-05-26_11h06.10.825.csv,1,12,0,1,r,0,1,0,tac,B,63,1,0B,1B,0,1,r,2.77428330000112,0,1,1,1,1B,0B,B01,3.29583686600433,0.5,0.106175861165457,0.230408182542914,0.5,0.5,0.893824138834543,0.5,0.5,0.230408182542914,0.5,0.5,0.230408182542914,0.5,0.5,0.230408182542914,0.951072425597877,0.641274687337472,0.358725312662528,0.893824138834543,0.5,0.150223854119764,0.539612329337163,0.106175861165457,0.0572482867633338,0.5,0.539183634914173,1.0941616755827,0.200066809769279,2.80990789880409,0.5,76.5100070212329
CBC_1102,CBC_1102_MSI_TV_v3_Vset4_Tset3_2024-05-26_11h06.10.825.csv,1,13,2,3,r,0,1,2,tac,D,63,1,2D,3D,0,1,b,2.61724529999992,1,0,0,0,2D,3D,D23,2.63905732961526,0.5,0.106175861165457,0.230408182542914,0.5,0.5,0.951072425597877,0.5,0.5,0.230408182542914,0.5,0.5,0.230408182542914,0.5,0.5,0.230408182542914,0.951072425597877,0.195016474206454,0.804983525793546,0.230408182542914,0.951072425597877,0.127764148519598,0.415196917147733,-0.230408182542914,-0.124232321377456,0.5,0.539183634914173,1.0941616755827,0.200066809769279,2.80990789880409,0.5,76.5100070212329
CBC_1102,CBC_1102_MSI_TV_v3_Vset4_Tset3_2024-05-26_11h06.10.825.csv,1,14,1,3,b,1,0,0,tac,B,27,1,1B,3B,1,0,r,3.37381810000079,0,1,0,0,3B,1B,B13,3.36729582998647,0.5,0.106175861165457,0.230408182542914,0.5,0.5,0.951072425597877,0.5,0.5,0.230408182542914,0.5,0.5,0.230408182542914,0.5,0.5,0.106175861165457,0.951072425597877,0.344572738878963,0.655427261121037,0.5,0.951072425597877,0.0872834406688181,0.456242931787834,-0.5,-0.269591817457086,0.5,0.539183634914173,1.0941616755827,0.200066809769279,2.80990789880409,0.5,76.5100070212329
CBC_1102,CBC_1102_MSI_TV_v3_Vset4_Tset3_2024-05-26_11h06.10.825.csv,1,15,3,2,r,0,1,3,tac,C,63,1,3C,2C,0,1,b,2.45090460000029,1,0,0,0,3C,2C,C32,3.40119738166216,0.5,0.106175861165457,0.230408182542914,0.5,0.5,0.951072425597877,0.5,0.230408182542914,0.230408182542914,0.5,0.5,0.230408182542914,0.5,0.5,0.106175861165457,0.951072425597877,0.315451261431311,0.684548738568689,0.230408182542914,0.5,0.152146086173953,0.447150491654075,-0.230408182542914,-0.124232321377456,0.5,0.539183634914173,1.0941616755827,0.200066809769279,2.80990789880409,0.5,76.5100070212329
CBC_1102,CBC_1102_MSI_TV_v3_Vset4_Tset3_2024-05-26_11h06.10.825.csv,1,16,2,0,b,1,0,3,tac,C,27,1,2C,0C,1,0,b,2.46456769999895,1,0,1,1,2C,0C,C20,2.7408400239252,0.5,0.106175861165457,0.230408182542914,0.5,0.5,0.951072425597877,0.5,0.230408182542914,0.230408182542914,0.5,0.5,0.106175861165457,0.5,0.5,0.106175861165457,0.951072425597877,0.684548738568689,0.315451261431311,0.5,0.230408182542914,0.186197078926137,0.551850607384329,0.5,0.269591817457086,0.5,0.539183634914173,1.0941616755827,0.200066809769279,2.80990789880409,0.5,76.5100070212329
CBC_1102,CBC_1102_MSI_TV_v3_Vset4_Tset3_2024-05-26_11h06.10.825.csv,1,17,0,3,b,1,0,1,tac,A,9,1,0A,3A,NaN,NaN,None,NaN,NaN,NaN,NaN,NaN,,,A03,3.46573590279973,0.5,0.106175861165457,0.230408182542914,0.5,0.5,0.951072425597877,0.5,0.230408182542914,0.230408182542914,0.5,0.769591817457086,0.106175861165457,0.5,0.5,0.106175861165457,0.951072425597877,0,0,0,0,NaN,0,0,0,0.5,0.539183634914173,1.0941616755827,0.200066809769279,2.80990789880409,0.5,76.5100070212329
CBC_1102,CBC_1102_MSI_TV_v3_Vset4_Tset3_2024-05-26_11h06.10.825.csv,1,18,2,3,b,1,0,3,tac,C,63,0,2C,3C,0,1,b,1.60259410000072,1,0,1,0,2C,3C,C23,2.80336038090653,0.5,0.106175861165457,0.230408182542914,0.5,0.5,0.951072425597877,0.5,0.230408182542914,0.230408182542914,0.5,0.769591817457086,0.106175861165457,0.5,0.5,0.106175861165457,0.951072425597877,0.878762526001808,0.121237473998192,0.769591817457086,0.106175861165457,0.272922736730926,0.604784006268317,-0.769591817457086,-0.414951313536716,0.5,0.539183634914173,1.0941616755827,0.200066809769279,2.80990789880409,0.5,76.5100070212329
CBC_1102,CBC_1102_MSI_TV_v3_Vset4_Tset3_2024-05-26_11h06.10.825.csv,1,19,1,0,r,0,1,1,tac,A,63,1,1A,0A,0,1,b,2.42281709999952,1,0,0,0,1A,0A,A10,2.42774823594805,0.5,0.106175861165457,0.230408182542914,0.5,0.5,0.951072425597877,0.5,0.230408182542914,0.230408182542914,0.5,0.35464050392037,0.106175861165457,0.5,0.5,0.106175861165457,0.951072425597877,0.175156861181043,0.824843138818957,0.106175861165457,0.5,0.142385286421049,0.409922178634866,-0.106175861165457,-0.0572482867633338,0.5,0.539183634914173,1.0941616755827,0.200066809769279,2.80990789880409,0.5,76.5100070212329
CBC_1102,CBC_1102_MSI_TV_v3_Vset4_Tset3_2024-05-26_11h06.10.825.csv,1,20,3,2,b,1,0,2,tac,D,63,1,3D,2D,1,0,r,3.03765910000038,0,1,0,0,2D,3D,D32,2.4567357728213,0.5,0.0489275744021235,0.230408182542914,0.5,0.5,0.951072425597877,0.5,0.230408182542914,0.230408182542914,0.5,0.35464050392037,0.106175861165457,0.5,0.5,0.106175861165457,0.951072425597877,0.100426609808472,0.899573390191527,0.106175861165457,0.951072425597877,0.0918444923319043,0.38886276966268,-0.106175861165457,-0.0572482867633338,0.5,0.539183634914173,1.0941616755827,0.200066809769279,2.80990789880409,0.5,76.5100070212329
CBC_1102,CBC_1102_MSI_TV_v3_Vset4_Tset3_2024-05-26_11h06.10.825.csv,1,21,3,2,r,0,1,3,tac,C,63,1,3C,2C,0,1,r,2.81199379999998,0,1,1,1,2C,3C,C32,2.89037175789616,0.5,0.0489275744021235,0.230408182542914,0.5,0.5,0.951072425597877,0.5,0.230408182542914,0.230408182542914,0.5,0.35464050392037,0.106175861165457,0.5,0.5,0.0489275744021235,0.951072425597877,0.769591817457086,0.230408182542914,0.35464050392037,0.106175861165457,0.156373012230487,0.574482082647864,0.64535949607963,0.347967278922593,0.5,0.539183634914173,1.0941616755827,0.200066809769279,2.80990789880409,0.5,76.5100070212329
CBC_1102,CBC_1102_MSI_TV_v3_Vset4_Tset3_2024-05-26_11h06.10.825.csv,1,22,3,1,b,1,0,2,tac,D,27,1,3D,1D,1,0,b,3.23398670000097,1,0,1,1,3D,1D,D31,3.61091791264422,0.5,0.0489275744021235,0.230408182542914,0.5,0.5,0.951072425597877,0.5,0.230408182542914,0.230408182542914,0.5,0.702607782842964,0.106175861165457,0.5,0.5,0.0489275744021235,0.951072425597877,0.655427261121037,0.344572738878963,0.951072425597877,0.5,0.113548498108391,0.543733900891084,0.0489275744021235,0.0263809474136706,0.5,0.539183634914173,1.0941616755827,0.200066809769279,2.80990789880409,0.5,76.5100070212329
CBC_1102,CBC_1102_MSI_TV_v3_Vset4_Tset3_2024-05-26_11h06.10.825.csv,1,23,0,1,b,1,0,1,tac,A,63,1,0A,1A,1,0,b,2.5357554000002,1,0,1,1,0A,1A,A01,3.63758615972639,0.5,0.0489275744021235,0.230408182542914,0.5,0.5,0.951072425597877,0.5,0.230408182542914,0.230408182542914,0.5,0.702607782842964,0.106175861165457,0.5,0.5,0.0489275744021235,0.977453373011547,0.910866976476061,0.0891330235239395,0.5,0.0489275744021235,0.199669424568752,0.614743600284748,0.5,0.269591817457086,0.5,0.539183634914173,1.0941616755827,0.200066809769279,2.80990789880409,0.5,76.5100070212329
CBC_1102,CBC_1102_MSI_TV_v3_Vset4_Tset3_2024-05-26_11h06.10.825.csv,1,24,3,2,r,0,1,3,tac,C,63,1,3C,2C,0,1,r,2.54551910000009,0,1,1,1,2C,3C,C32,2.56494935746154,0.769591817457086,0.0489275744021235,0.230408182542914,0.5,0.5,0.951072425597877,0.5,0.230408182542914,0.230408182542914,0.5,0.702607782842964,0.106175861165457,0.5,0.5,0.0489275744021235,0.977453373011547,0.868721552479427,0.131278447520573,0.702607782842964,0.106175861165457,0.194218140411758,0.602488289766638,0.297392217157036,0.160349016641916,0.5,0.539183634914173,1.0941616755827,0.200066809769279,2.80990789880409,0.5,76.5100070212329
CBC_1102,CBC_1102_MSI_TV_v3_Vset4_Tset3_2024-05-26_11h06.10.825.csv,1,25,0,2,b,1,0,1,tac,A,27,1,0A,2A,1,0,r,3.36898579999979,0,1,0,0,2A,0A,A02,2.99573227355399,0.769591817457086,0.0489275744021235,0.230408182542914,0.5,0.5,0.951072425597877,0.5,0.230408182542914,0.230408182542914,0.5,0.862956799484879,0.106175861165457,0.5,0.5,0.0489275744021235,0.977453373011547,0.230408182542914,0.769591817457086,0.230408182542914,0.769591817457086,0.0812057478169064,0.423722379191174,-0.230408182542914,-0.124232321377456,0.5,0.539183634914173,1.0941616755827,0.200066809769279,2.80990789880409,0.5,76.5100070212329
CBC_1102,CBC_1102_MSI_TV_v3_Vset4_Tset3_2024-05-26_11h06.10.825.csv,1,26,1,0,b,1,0,0,tac,B,63,1,1B,0B,NaN,NaN,None,NaN,NaN,NaN,NaN,NaN,,,B10,3.02042488614436,0.769591817457086,0.0489275744021235,0.106175861165457,0.5,0.5,0.951072425597877,0.5,0.230408182542914,0.230408182542914,0.5,0.862956799484879,0.106175861165457,0.5,0.5,0.0489275744021235,0.977453373011547,0,0,0,0,NaN,0,0,0,0.5,0.539183634914173,1.0941616755827,0.200066809769279,2.80990789880409,0.5,76.5100070212329
CBC_1102,CBC_1102_MSI_TV_v3_Vset4_Tset3_2024-05-26_11h06.10.825.csv,1,27,0,1,r,0,1,0,tac,B,63,1,0B,1B,0,1,r,3.15841769999861,0,1,1,1,1B,0B,B01,3.04452243772342,0.769591817457086,0.0489275744021235,0.106175861165457,0.5,0.5,0.951072425597877,0.5,0.230408182542914,0.230408182542914,0.5,0.862956799484879,0.106175861165457,0.5,0.5,0.0489275744021235,0.977453373011547,0.655427261121037,0.344572738878963,0.951072425597877,0.5,0.118979576851927,0.543392302950801,0.0489275744021235,0.0263809474136706,0.5,0.539183634914173,1.0941616755827,0.200066809769279,2.80990789880409,0.5,76.5100070212329
CBC_1102,CBC_1102_MSI_TV_v3_Vset4_Tset3_2024-05-26_11h06.10.825.csv,1,28,3,2,r,0,1,3,tac,C,63,1,3C,2C,0,1,b,3.37364270000035,1,0,0,0,3C,2C,C32,2.37490575457367,0.769591817457086,0.0489275744021235,0.106175861165457,0.5,0.5,0.977453373011547,0.5,0.230408182542914,0.230408182542914,0.5,0.862956799484879,0.106175861165457,0.5,0.5,0.0489275744021235,0.977453373011547,0.109557613190136,0.890442386809864,0.106175861165457,0.862956799484879,0.0750228068507683,0.393372890836349,-0.106175861165457,-0.0572482867633338,0.5,0.539183634914173,1.0941616755827,0.200066809769279,2.80990789880409,0.5,76.5100070212329
CBC_1102,CBC_1102_MSI_TV_v3_Vset4_Tset3_2024-05-26_11h06.10.825.csv,1,29,3,1,b,1,0,2,tac,D,27,1,3D,1D,1,0,r,2.8376573000005,0,1,0,0,1D,3D,D31,3.09104245335832,0.769591817457086,0.0489275744021235,0.106175861165457,0.5,0.5,0.977453373011547,0.5,0.230408182542914,0.230408182542914,0.5,0.862956799484879,0.0489275744021235,0.5,0.5,0.0489275744021235,0.977453373011547,0.338420155338528,0.661579844661472,0.5,0.977453373011547,0.121677206384579,0.454642176821604,-0.5,-0.269591817457086,0.5,0.539183634914173,1.0941616755827,0.200066809769279,2.80990789880409,0.5,76.5100070212329
CBC_1102,CBC_1102_MSI_TV_v3_Vset4_Tset3_2024-05-26_11h06.10.825.csv,1,30,1,2,r,0,1,3,tac,C,9,1,1C,2C,0,1,r,2.90605439999854,0,1,1,1,2C,1C,C12,3.80666248977032,0.769591817457086,0.0489275744021235,0.106175861165457,0.5,0.5,0.977453373011547,0.5,0.230408182542914,0.230408182542914,0.5,0.862956799484879,0.0489275744021235,0.5,0.230408182542914,0.0489275744021235,0.977453373011547,0.633150514976724,0.366849485023276,0.862956799484879,0.5,0.137903315728986,0.537829957465265,0.137043200515121,0.0738914509940145,0.5,0.539183634914173,1.0941616755827,0.200066809769279,2.80990789880409,0.5,76.5100070212329
CBC_1102,CBC_1102_MSI_TV_v3_Vset4_Tset3_2024-05-26_11h06.10.825.csv,1,31,3,1,r,0,1,0,tac,B,27,1,3B,1B,NaN,NaN,None,NaN,NaN,NaN,NaN,NaN,,,B31,3.13549421592915,0.769591817457086,0.0489275744021235,0.106175861165457,0.5,0.5,0.977453373011547,0.5,0.230408182542914,0.230408182542914,0.5,0.936848250478894,0.0489275744021235,0.5,0.230408182542914,0.0489275744021235,0.977453373011547,0,0,0,0,NaN,0,0,0,0.5,0.539183634914173,1.0941616755827,0.200066809769279,2.80990789880409,0.5,76.5100070212329
CBC_1102,CBC_1102_MSI_TV_v3_Vset4_Tset3_2024-05-26_11h06.10.825.csv,1,32,3,2,b,1,0,2,tac,D,63,1,3D,2D,1,0,r,6.23177209999994,0,1,0,0,2D,3D,D32,2.46385324059017,0.769591817457086,0.0489275744021235,0.106175861165457,0.5,0.5,0.977453373011547,0.5,0.230408182542914,0.230408182542914,0.5,0.936848250478894,0.0489275744021235,0.5,0.230408182542914,0.0489275744021235,0.977453373011547,0.0476699947767092,0.952330005223291,0.0489275744021235,0.977453373011547,0.011446073568699,0.375796106345458,-0.0489275744021235,-0.0263809474136706,0.5,0.539183634914173,1.0941616755827,0.200066809769279,2.80990789880409,0.5,76.5100070212329
CBC_1102,CBC_1102_MSI_TV_v3_Vset4_Tset3_2024-05-26_11h06.10.825.csv,1,33,0,1,r,0,1,0,tac,B,63,1,0B,1B,0,1,b,2.41467130000092,1,0,0,0,0B,1B,B01,2.77258872223978,0.769591817457086,0.0489275744021235,0.106175861165457,0.5,0.5,0.977453373011547,0.5,0.230408182542914,0.230408182542914,0.5,0.936848250478894,0.0489275744021235,0.5,0.230408182542914,0.0225466269884529,0.977453373011547,0.338420155338528,0.661579844661472,0.5,0.977453373011547,0.15770416067963,0.453558893852114,-0.5,-0.269591817457086,0.5,0.539183634914173,1.0941616755827,0.200066809769279,2.80990789880409,0.5,76.5100070212329
CBC_1102,CBC_1102_MSI_TV_v3_Vset4_Tset3_2024-05-26_11h06.10.825.csv,1,34,1,0,r,0,1,1,tac,A,63,0,1A,0A,1,0,r,2.44185189999916,0,1,1,0,0A,1A,A10,2.50552593699074,0.769591817457086,0.0489275744021235,0.106175861165457,0.5,0.230408182542914,0.977453373011547,0.5,0.230408182542914,0.230408182542914,0.5,0.936848250478894,0.0489275744021235,0.5,0.230408182542914,0.0225466269884529,0.977453373011547,0.940224294147769,0.0597757058522315,0.769591817457086,0.0489275744021235,0.214457735864596,0.621974115083008,-0.769591817457086,-0.414951313536716,0.5,0.539183634914173,1.0941616755827,0.200066809769279,2.80990789880409,0.5,76.5100070212329
CBC_1102,CBC_1102_MSI_TV_v3_Vset4_Tset3_2024-05-26_11h06.10.825.csv,1,35,2,3,b,1,0,3,tac,C,63,1,2C,3C,1,0,b,3.50942250000116,1,0,1,1,2C,3C,C23,2.81341071676004,0.35464050392037,0.0489275744021235,0.106175861165457,0.5,0.230408182542914,0.977453373011547,0.5,0.230408182542914,0.230408182542914,0.5,0.936848250478894,0.0489275744021235,0.5,0.230408182542914,0.0225466269884529,0.977453373011547,0.950366428992079,0.0496335710079206,0.936848250478894,0.0489275744021235,0.109014214758118,0.624570272660118,0.063151749521106,0.0340503898579793,0.5,0.539183634914173,1.0941616755827,0.200066809769279,2.80990789880409,0.5,76.5100070212329
CBC_1102,CBC_1102_MSI_TV_v3_Vset4_Tset3_2024-05-26_11h06.10.825.csv,1,36,0,2,b,1,0,1,tac,A,27,1,0A,2A,1,0,r,1.92090489999828,0,1,0,0,2A,0A,A02,2.83321334405622,0.35464050392037,0.0489275744021235,0.106175861165457,0.5,0.230408182542914,0.977453373011547,0.5,0.230408182542914,0.230408182542914,0.5,0.970898640336873,0.0489275744021235,0.5,0.230408182542914,0.0225466269884529,0.977453373011547,0.230408182542914,0.769591817457086,0.106175861165457,0.35464050392037,0.193370816957029,0.425143656297622,-0.106175861165457,-0.0572482867633338,0.5,0.539183634914173,1.0941616755827,0.200066809769279,2.80990789880409,0.5,76.5100070212329
CBC_1102,CBC_1102_MSI_TV_v3_Vset4_Tset3_2024-05-26_11h06.10.825.csv,1,37,0,1,r,0,1,0,tac,B,63,1,0B,1B,0,1,r,2.31126359999871,0,1,1,1,1B,0B,B01,2.56494935746154,0.35464050392037,0.0489275744021235,0.0489275744021235,0.5,0.230408182542914,0.977453373011547,0.5,0.230408182542914,0.230408182542914,0.5,0.970898640336873,0.0489275744021235,0.5,0.230408182542914,0.0225466269884529,0.977453373011547,0.809242887578166,0.190757112421834,0.977453373011547,0.230408182542914,0.218091198719633,0.587009779540117,0.0225466269884529,0.012156772294688,0.5,0.539183634914173,1.0941616755827,0.200066809769279,2.80990789880409,0.5,76.5100070212329
CBC_1102,CBC_1102_MSI_TV_v3_Vset4_Tset3_2024-05-26_11h06.10.825.csv,1,38,2,3,r,0,1,2,tac,D,63,1,2D,3D,0,1,b,3.01362379999955,1,0,0,0,2D,3D,D23,2.87167962488401,0.35464050392037,0.0489275744021235,0.0489275744021235,0.5,0.230408182542914,0.989610145306235,0.5,0.230408182542914,0.230408182542914,0.5,0.970898640336873,0.0489275744021235,0.5,0.230408182542914,0.0225466269884529,0.977453373011547,0.0225466269884529,0.977453373011547,0.0225466269884529,0.977453373011547,0.0884355576330766,0.368711279767379,-0.0225466269884529,-0.012156772294688,0.5,0.539183634914173,1.0941616755827,0.200066809769279,2.80990789880409,0.5,76.5100070212329
CBC_1102,CBC_1102_MSI_TV_v3_Vset4_Tset3_2024-05-26_11h06.10.825.csv,1,39,1,2,b,1,0,0,tac,B,9,1,1B,2B,1,0,r,2.30294099999992,0,1,0,0,2B,1B,B12,3.98898404656427,0.35464050392037,0.0489275744021235,0.0489275744021235,0.5,0.230408182542914,0.989610145306235,0.5,0.230408182542914,0.230408182542914,0.5,0.970898640336873,0.0489275744021235,0.5,0.230408182542914,0.0103898546937649,0.977453373011547,0.33565829393382,0.66434170606618,0.5,0.989610145306235,0.168542945705261,0.453303302567528,-0.5,-0.269591817457086,0.5,0.539183634914173,1.0941616755827,0.200066809769279,2.80990789880409,0.5,76.5100070212329
CBC_1102,CBC_1102_MSI_TV_v3_Vset4_Tset3_2024-05-26_11h06.10.825.csv,1,40,1,3,r,0,1,2,tac,D,27,1,1D,3D,0,1,b,2.67355800000041,1,0,0,0,1D,3D,D13,4.00733318523247,0.35464050392037,0.0489275744021235,0.0489275744021235,0.5,0.230408182542914,0.989610145306235,0.230408182542914,0.230408182542914,0.230408182542914,0.5,0.970898640336873,0.0489275744021235,0.5,0.230408182542914,0.0103898546937649,0.977453373011547,0.190757112421834,0.809242887578166,0.230408182542914,0.977453373011547,0.123053802455512,0.414209992197495,-0.230408182542914,-0.124232321377456,0.5,0.539183634914173,1.0941616755827,0.200066809769279,2.80990789880409,0.5,76.5100070212329
CBC_1102,CBC_1102_MSI_TV_v3_Vset4_Tset3_2024-05-26_11h06.10.825.csv,1,41,1,0,r,0,1,1,tac,A,63,1,1A,0A,0,1,r,2.77291389999846,0,1,1,1,0A,1A,A10,2.41591377830105,0.35464050392037,0.0489275744021235,0.0489275744021235,0.5,0.230408182542914,0.989610145306235,0.230408182542914,0.230408182542914,0.230408182542914,0.5,0.970898640336873,0.0489275744021235,0.5,0.106175861165457,0.0103898546937649,0.977453373011547,0.878762526001808,0.121237473998192,0.35464050392037,0.0489275744021235,0.168911243676994,0.604566099962129,0.64535949607963,0.347967278922593,0.5,0.539183634914173,1.0941616755827,0.200066809769279,2.80990789880409,0.5,76.5100070212329
CBC_1102,CBC_1102_MSI_TV_v3_Vset4_Tset3_2024-05-26_11h06.10.825.csv,1,42,0,1,b,1,0,1,tac,A,63,1,0A,1A,NaN,NaN,None,NaN,NaN,NaN,NaN,NaN,,,A01,3.3499040872746,0.702607782842964,0.0489275744021235,0.0489275744021235,0.5,0.230408182542914,0.989610145306235,0.230408182542914,0.230408182542914,0.230408182542914,0.5,0.970898640336873,0.0489275744021235,0.5,0.106175861165457,0.0103898546937649,0.977453373011547,0,0,0,0,NaN,0,0,0,0.5,0.539183634914173,1.0941616755827,0.200066809769279,2.80990789880409,0.5,76.5100070212329
CBC_1102,CBC_1102_MSI_TV_v3_Vset4_Tset3_2024-05-26_11h06.10.825.csv,1,43,2,0,b,1,0,3,tac,C,27,1,2C,0C,1,0,b,2.69204159999936,1,0,1,1,2C,0C,C20,2.96183072187831,0.702607782842964,0.0489275744021235,0.0489275744021235,0.5,0.230408182542914,0.989610145306235,0.230408182542914,0.230408182542914,0.230408182542914,0.5,0.970898640336873,0.0489275744021235,0.5,0.106175861165457,0.0103898546937649,0.977453373011547,0.808202052835614,0.191797947164386,0.970898640336873,0.230408182542914,0.17190559126803,0.585411838220162,0.0291013596631268,0.0156909768841094,0.5,0.539183634914173,1.0941616755827,0.200066809769279,2.80990789880409,0.5,76.5100070212329
CBC_1102,CBC_1102_MSI_TV_v3_Vset4_Tset3_2024-05-26_11h06.10.825.csv,1,44,0,1,r,0,1,0,tac,B,63,1,0B,1B,0,1,r,2.04520179999963,0,1,1,1,1B,0B,B01,2.46809953147162,0.702607782842964,0.0489275744021235,0.0489275744021235,0.5,0.230408182542914,0.989610145306235,0.230408182542914,0.230408182542914,0.230408182542914,0.5,0.986589617220983,0.0489275744021235,0.5,0.106175861165457,0.0103898546937649,0.977453373011547,0.811143671137207,0.188856328862793,0.989610145306235,0.230408182542914,0.252454220730795,0.585552302952379,0.0103898546937649,0.00560203962001421,0.5,0.539183634914173,1.0941616755827,0.200066809769279,2.80990789880409,0.5,76.5100070212329
CBC_1102,CBC_1102_MSI_AV_v3_Vset6_Aset3_2024-05-26_14h20.21.975.csv,2,1,0,1,b,1,0,1,aud,A,63,1,0A,1A,1,0,r,2.43634810000003,0,1,0,0,1A,0A,A01,2.77258872223978,0.5,0.5,0.5,0.5,0.5,0.5,0.5,0.5,0.5,0.5,0.5,0.5,0.5,0.5,0.5,0.5,0.5,0.5,0.5,0.5,0.14678266912276,0.500495333151765,-0.5,-0.486609112103831,0.5,0.973218224207662,0.871212443282238,0.23173118172866,2.5224691274599,0.5,80.5986902959353
CBC_1102,CBC_1102_MSI_AV_v3_Vset6_Aset3_2024-05-26_14h20.21.975.csv,2,2,3,2,r,0,1,3,aud,C,63,1,3C,2C,0,1,b,2.22079060000033,1,0,0,0,3C,2C,C32,2.83321334405622,0.5,0.013390887896169,0.5,0.5,0.5,0.5,0.5,0.5,0.5,0.5,0.5,0.5,0.5,0.5,0.5,0.5,0.5,0.5,0.5,0.5,0.173531768084992,0.500865699350895,-0.5,-0.486609112103831,0.5,0.973218224207662,0.871212443282238,0.23173118172866,2.5224691274599,0.5,80.5986902959353
CBC_1102,CBC_1102_MSI_AV_v3_Vset6_Aset3_2024-05-26_14h20.21.975.csv,2,3,0,2,b,1,0,1,aud,A,27,1,0A,2A,1,0,b,1.56774959999893,1,0,1,1,0A,2A,A02,2.89037175789616,0.5,0.013390887896169,0.5,0.5,0.5,0.5,0.5,0.5,0.5,0.5,0.5,0.013390887896169,0.5,0.5,0.5,0.5,0.5,0.5,0.5,0.5,0.275918455458508,0.499471097371151,0.5,0.486609112103831,0.5,0.973218224207662,0.871212443282238,0.23173118172866,2.5224691274599,0.5,80.5986902959353
CBC_1102,CBC_1102_MSI_AV_v3_Vset6_Aset3_2024-05-26_14h20.21.975.csv,2,4,1,0,b,1,0,0,aud,B,63,1,1B,0B,1,0,b,2.62213540000084,1,0,1,1,1B,0B,B10,2.94443897916644,0.986609112103831,0.013390887896169,0.5,0.5,0.5,0.5,0.5,0.5,0.5,0.5,0.5,0.013390887896169,0.5,0.5,0.5,0.5,0.5,0.5,0.5,0.5,0.127058560354494,0.500325538413946,0.5,0.486609112103831,0.5,0.973218224207662,0.871212443282238,0.23173118172866,2.5224691274599,0.5,80.5986902959353
CBC_1102,CBC_1102_MSI_AV_v3_Vset6_Aset3_2024-05-26_14h20.21.975.csv,2,5,0,1,r,0,1,0,aud,B,63,1,0B,1B,0,1,r,2.4061815999994,0,1,1,1,1B,0B,B01,2.99573227355399,0.986609112103831,0.013390887896169,0.5,0.5,0.5,0.986609112103831,0.5,0.5,0.5,0.5,0.5,0.013390887896169,0.5,0.5,0.5,0.5,0.663664109193838,0.336335890806162,0.986609112103831,0.5,0.164514102830361,0.54791932917905,0.013390887896169,0.0130322561388735,0.5,0.973218224207662,0.871212443282238,0.23173118172866,2.5224691274599,0.5,80.5986902959353
CBC_1102,CBC_1102_MSI_AV_v3_Vset6_Aset3_2024-05-26_14h20.21.975.csv,2,6,3,2,r,0,1,3,aud,C,63,1,3C,2C,0,1,r,5.80161009999938,0,1,1,1,2C,3C,C32,2.35137525716348,0.986609112103831,0.013390887896169,0.5,0.5,0.5,0.999641368242704,0.5,0.5,0.5,0.5,0.5,0.013390887896169,0.5,0.5,0.5,0.5,0.973916779179615,0.0260832208203844,0.5,0.013390887896169,0.0126318765537209,0.634956998945189,0.5,0.486609112103831,0.5,0.973218224207662,0.871212443282238,0.23173118172866,2.5224691274599,0.5,80.5986902959353
CBC_1102,CBC_1102_MSI_AV_v3_Vset6_Aset3_2024-05-26_14h20.21.975.csv,2,7,3,1,b,1,0,2,aud,D,27,1,3D,1D,1,0,b,1.92660169999726,1,0,1,1,3D,1D,D31,3.09104245335832,0.986609112103831,0.013390887896169,0.5,0.5,0.5,0.999641368242704,0.5,0.5,0.5,0.5,0.986609112103831,0.013390887896169,0.5,0.5,0.5,0.5,0.5,0.5,0.5,0.5,0.216952460663385,0.500249846496786,0.5,0.486609112103831,0.5,0.973218224207662,0.871212443282238,0.23173118172866,2.5224691274599,0.5,80.5986902959353
CBC_1102,CBC_1102_MSI_AV_v3_Vset6_Aset3_2024-05-26_14h20.21.975.csv,2,8,1,2,r,0,1,3,aud,C,9,1,1C,2C,0,1,r,2.61636390000058,0,1,1,1,2C,1C,C12,3.13549421592915,0.986609112103831,0.013390887896169,0.5,0.5,0.5,0.999641368242704,0.5,0.5,0.5,0.5,0.986609112103831,0.013390887896169,0.5,0.5,0.5,0.986609112103831,0.663664109193838,0.336335890806162,0.986609112103831,0.5,0.139516491358081,0.547170739967116,0.013390887896169,0.0130322561388735,0.5,0.973218224207662,0.871212443282238,0.23173118172866,2.5224691274599,0.5,80.5986902959353
CBC_1102,CBC_1102_MSI_AV_v3_Vset6_Aset3_2024-05-26_14h20.21.975.csv,2,9,3,1,r,0,1,0,aud,B,27,1,3B,1B,0,1,r,2.33557279999877,0,1,1,1,1B,3B,B31,3.17805383034795,0.986609112103831,0.013390887896169,0.5,0.5,0.5,0.999641368242704,0.5,0.5,0.5,0.5,0.999641368242704,0.013390887896169,0.5,0.5,0.5,0.986609112103831,0.666586951661713,0.333413048338287,0.999641368242704,0.5,0.173829646227362,0.548046120942857,0.000358631757295558,0.000349026961979656,0.5,0.973218224207662,0.871212443282238,0.23173118172866,2.5224691274599,0.5,80.5986902959353
CBC_1102,CBC_1102_MSI_AV_v3_Vset6_Aset3_2024-05-26_14h20.21.975.csv,2,10,3,2,b,1,0,2,aud,D,63,1,3D,2D,1,0,r,2.24685420000242,0,1,0,0,2D,3D,D32,3.2188758248682,0.986609112103831,0.013390887896169,0.5,0.5,0.5,0.999990395204684,0.5,0.5,0.5,0.5,0.999641368242704,0.013390887896169,0.5,0.5,0.5,0.986609112103831,0.336335890806162,0.663664109193838,0.5,0.986609112103831,0.153370853335646,0.45138073479799,-0.5,-0.486609112103831,0.5,0.973218224207662,0.871212443282238,0.23173118172866,2.5224691274599,0.5,80.5986902959353
CBC_1102,CBC_1102_MSI_AV_v3_Vset6_Aset3_2024-05-26_14h20.21.975.csv,2,11,1,0,b,1,0,0,aud,B,63,1,1B,0B,NaN,NaN,[],NaN,NaN,NaN,NaN,NaN,,,B10,2.56494935746154,0.986609112103831,0.013390887896169,0.5,0.5,0.5,0.999990395204684,0.5,0.5,0.5,0.5,0.999641368242704,0.013390887896169,0.5,0.5,0.013390887896169,0.986609112103831,0,0,0,0,NaN,0,0,0,0.5,0.973218224207662,0.871212443282238,0.23173118172866,2.5224691274599,0.5,80.5986902959353
CBC_1102,CBC_1102_MSI_AV_v3_Vset6_Aset3_2024-05-26_14h20.21.975.csv,2,12,0,2,r,0,1,3,aud,C,27,1,0C,2C,0,1,b,2.66773100000137,1,0,0,0,0C,2C,C02,3.29583686600433,0.986609112103831,0.013390887896169,0.5,0.5,0.5,0.999990395204684,0.5,0.5,0.5,0.5,0.999641368242704,0.013390887896169,0.5,0.5,0.013390887896169,0.986609112103831,0.333413048338287,0.666586951661713,0.5,0.999641368242704,0.110571327863328,0.451350286475777,-0.5,-0.486609112103831,0.5,0.973218224207662,0.871212443282238,0.23173118172866,2.5224691274599,0.5,80.5986902959353
CBC_1102,CBC_1102_MSI_AV_v3_Vset6_Aset3_2024-05-26_14h20.21.975.csv,2,13,3,2,b,1,0,2,aud,D,63,0,3D,2D,0,1,b,2.55104260000007,1,0,1,0,3D,2D,D32,2.63905732961526,0.986609112103831,0.013390887896169,0.5,0.5,0.5,0.999990395204684,0.5,0.5,0.013390887896169,0.5,0.999641368242704,0.013390887896169,0.5,0.5,0.013390887896169,0.986609112103831,0.986609112103831,0.013390887896169,0.986609112103831,0.013390887896169,0.170881537145621,0.638602014592146,-0.986609112103831,-0.960185968068789,0.5,0.973218224207662,0.871212443282238,0.23173118172866,2.5224691274599,0.5,80.5986902959353
CBC_1102,CBC_1102_MSI_AV_v3_Vset6_Aset3_2024-05-26_14h20.21.975.csv,2,14,1,0,r,0,1,1,aud,A,63,1,1A,0A,0,1,b,2.77626760000203,1,0,0,0,1A,0A,A10,3.36729582998647,0.986609112103831,0.013390887896169,0.5,0.5,0.5,0.999990395204684,0.5,0.5,0.013390887896169,0.5,0.999641368242704,0.013390887896169,0.5,0.5,0.013390887896169,0.0264231440350424,0.013390887896169,0.986609112103831,0.013390887896169,0.986609112103831,0.080800581790369,0.361625515565385,-0.013390887896169,-0.0130322561388735,0.5,0.973218224207662,0.871212443282238,0.23173118172866,2.5224691274599,0.5,80.5986902959353
CBC_1102,CBC_1102_MSI_AV_v3_Vset6_Aset3_2024-05-26_14h20.21.975.csv,2,15,2,3,b,1,0,3,aud,C,63,1,2C,3C,1,0,r,2.1398775000016,0,1,0,0,3C,2C,C23,3.40119738166216,0.986609112103831,0.00035863175729553,0.5,0.5,0.5,0.999990395204684,0.5,0.5,0.013390887896169,0.5,0.999641368242704,0.013390887896169,0.5,0.5,0.013390887896169,0.0264231440350424,0.0132186194615439,0.986781380538456,0.013390887896169,0.999641368242704,0.134439864469093,0.361829709403258,-0.013390887896169,-0.0130322561388735,0.5,0.973218224207662,0.871212443282238,0.23173118172866,2.5224691274599,0.5,80.5986902959353
CBC_1102,CBC_1102_MSI_AV_v3_Vset6_Aset3_2024-05-26_14h20.21.975.csv,2,16,0,2,b,1,0,1,aud,A,27,1,0A,2A,1,0,b,2.58864440000252,1,0,1,1,0A,2A,A02,2.7408400239252,0.986609112103831,0.00035863175729553,0.5,0.5,0.5,0.999990395204684,0.5,0.5,0.013390887896169,0.5,0.999641368242704,0.00035863175729553,0.5,0.5,0.013390887896169,0.0264231440350424,0.663664109193838,0.336335890806162,0.986609112103831,0.5,0.142493180657915,0.546920349498619,0.013390887896169,0.0130322561388735,0.5,0.973218224207662,0.871212443282238,0.23173118172866,2.5224691274599,0.5,80.5986902959353
CBC_1102,CBC_1102_MSI_AV_v3_Vset6_Aset3_2024-05-26_14h20.21.975.csv,2,17,2,3,r,0,1,2,aud,D,63,1,2D,3D,0,1,r,4.3185310000008,0,1,1,1,3D,2D,D23,3.46573590279973,0.999641368242704,0.00035863175729553,0.5,0.5,0.5,0.999990395204684,0.5,0.5,0.013390887896169,0.5,0.999641368242704,0.00035863175729553,0.5,0.5,0.013390887896169,0.0264231440350424,0.663664109193837,0.336335890806163,0.0264231440350424,0.013390887896169,0.037167561589284,0.548500053545397,0.973576855964958,0.947502738891895,0.5,0.973218224207662,0.871212443282238,0.23173118172866,2.5224691274599,0.5,80.5986902959353
CBC_1102,CBC_1102_MSI_AV_v3_Vset6_Aset3_2024-05-26_14h20.21.975.csv,2,18,3,2,b,1,0,2,aud,D,63,1,3D,2D,1,0,b,1.04698450000069,1,0,1,1,3D,2D,D32,2.39789527279837,0.999641368242704,0.00035863175729553,0.5,0.5,0.5,0.999990395204684,0.5,0.5,0.013390887896169,0.5,0.999641368242704,0.00035863175729553,0.5,0.5,0.013390887896169,0.973925882926937,0.986437090615806,0.0135629093841942,0.973925882926937,0.013390887896169,0.0979030468548199,0.638590176981354,0.0260741170730628,0.0253758059156289,0.5,0.973218224207662,0.871212443282238,0.23173118172866,2.5224691274599,0.5,80.5986902959353
CBC_1102,CBC_1102_MSI_AV_v3_Vset6_Aset3_2024-05-26_14h20.21.975.csv,2,19,3,1,r,0,1,0,aud,B,27,1,3B,1B,0,1,b,2.78212020000137,1,0,0,0,3B,1B,B31,2.83321334405622,0.999641368242704,0.00035863175729553,0.5,0.5,0.5,0.999990395204684,0.5,0.5,0.013390887896169,0.5,0.999641368242704,0.00035863175729553,0.5,0.5,0.013390887896169,0.999301688842566,0.33333546774596,0.666664532254041,0.5,0.999990395204684,0.101434235904775,0.45258753146934,-0.5,-0.486609112103831,0.5,0.973218224207662,0.871212443282238,0.23173118172866,2.5224691274599,0.5,80.5986902959353
CBC_1102,CBC_1102_MSI_AV_v3_Vset6_Aset3_2024-05-26_14h20.21.975.csv,2,20,0,3,r,0,1,2,aud,D,9,1,0D,3D,0,1,r,1.44168920000084,0,1,1,1,3D,0D,D03,3.55534806148941,0.999641368242704,0.00035863175729553,0.5,0.5,0.5,0.999990395204684,0.5,0.013390887896169,0.013390887896169,0.5,0.999641368242704,0.00035863175729553,0.5,0.5,0.013390887896169,0.999301688842566,0.666511414133075,0.333488585866925,0.999301688842566,0.5,0.318347832877882,0.547957697600732,0.000698311157433906,0.000679609144582223,0.5,0.973218224207662,0.871212443282238,0.23173118172866,2.5224691274599,0.5,80.5986902959353
CBC_1102,CBC_1102_MSI_AV_v3_Vset6_Aset3_2024-05-26_14h20.21.975.csv,2,21,1,0,b,1,0,0,aud,B,63,1,1B,0B,1,0,b,1.37712570000076,1,0,1,1,1B,0B,B10,2.484906649788,0.999641368242704,0.00035863175729553,0.5,0.5,0.5,0.999990395204684,0.5,0.013390887896169,0.013390887896169,0.5,0.999641368242704,0.00035863175729553,0.5,0.5,0.013390887896169,0.999981297987148,0.666664532254041,0.33333546774596,0.999990395204684,0.5,0.319267489439818,0.548176174776467,9.60479531586511e-06,9.34756184118431e-06,0.5,0.973218224207662,0.871212443282238,0.23173118172866,2.5224691274599,0.5,80.5986902959353
CBC_1102,CBC_1102_MSI_AV_v3_Vset6_Aset3_2024-05-26_14h20.21.975.csv,2,22,1,0,r,0,1,1,aud,A,63,1,1A,0A,0,1,b,1.74137939999855,1,0,0,0,1A,0A,A10,2.91777073208428,0.999641368242704,0.00035863175729553,0.5,0.5,0.5,0.999999742766525,0.5,0.013390887896169,0.013390887896169,0.5,0.999641368242704,0.00035863175729553,0.5,0.5,0.013390887896169,0.999981297987148,0.00035863175729553,0.999641368242704,0.00035863175729553,0.999641368242704,0.180561385447557,0.35718506998273,-0.00035863175729553,-0.000349026961979629,0.5,0.973218224207662,0.871212443282238,0.23173118172866,2.5224691274599,0.5,80.5986902959353
CBC_1102,CBC_1102_MSI_AV_v3_Vset6_Aset3_2024-05-26_14h20.21.975.csv,2,23,2,3,b,1,0,3,aud,C,63,1,2C,3C,1,0,r,2.08274829999937,0,1,0,0,3C,2C,C23,2.94443897916644,0.999641368242704,9.60479531590105e-06,0.5,0.5,0.5,0.999999742766525,0.5,0.013390887896169,0.013390887896169,0.5,0.999641368242704,0.00035863175729553,0.5,0.5,0.013390887896169,0.999981297987148,0.00035863175729553,0.999641368242704,0.00035863175729553,0.999641368242704,0.138973333081468,0.357261455100671,-0.00035863175729553,-0.000349026961979629,0.5,0.973218224207662,0.871212443282238,0.23173118172866,2.5224691274599,0.5,80.5986902959353
CBC_1102,CBC_1102_MSI_AV_v3_Vset6_Aset3_2024-05-26_14h20.21.975.csv,2,24,0,2,b,1,0,1,aud,A,27,1,0A,2A,1,0,b,3.93978860000061,1,0,1,1,0A,2A,A02,2.56494935746154,0.999641368242704,9.60479531590105e-06,0.5,0.5,0.5,0.999999742766525,0.5,0.013390887896169,0.013390887896169,0.5,0.999641368242704,9.60479531590105e-06,0.5,0.5,0.013390887896169,0.999981297987148,0.666586951661713,0.333413048338287,0.999641368242704,0.5,0.0499911002667212,0.549442362041804,0.000358631757295558,0.000349026961979656,0.5,0.973218224207662,0.871212443282238,0.23173118172866,2.5224691274599,0.5,80.5986902959353
CBC_1102,CBC_1102_MSI_AV_v3_Vset6_Aset3_2024-05-26_14h20.21.975.csv,2,25,1,0,b,1,0,0,aud,B,63,1,1B,0B,1,0,r,2.31093200000032,0,1,0,0,0B,1B,B10,2.30258509299405,0.999990395204684,9.60479531590105e-06,0.5,0.5,0.5,0.999999742766525,0.5,0.013390887896169,0.013390887896169,0.5,0.999641368242704,9.60479531590105e-06,0.5,0.5,0.013390887896169,0.999981297987148,0.333333390496337,0.666666609503662,0.5,0.999999742766525,0.146129633505612,0.451986378621475,-0.5,-0.486609112103831,0.5,0.973218224207662,0.871212443282238,0.23173118172866,2.5224691274599,0.5,80.5986902959353
CBC_1102,CBC_1102_MSI_AV_v3_Vset6_Aset3_2024-05-26_14h20.21.975.csv,2,26,2,3,r,0,1,2,aud,D,63,1,2D,3D,0,1,b,2.25730900000053,1,0,0,0,2D,3D,D23,3.02042488614436,0.999990395204684,9.60479531590105e-06,0.5,0.5,0.013390887896169,0.999999742766525,0.5,0.013390887896169,0.013390887896169,0.5,0.999641368242704,9.60479531590105e-06,0.5,0.5,0.013390887896169,0.999981297987148,0.0132141853533277,0.986785814646672,0.013390887896169,0.999981297987148,0.122320990582977,0.361454409322318,-0.013390887896169,-0.0130322561388735,0.5,0.973218224207662,0.871212443282238,0.23173118172866,2.5224691274599,0.5,80.5986902959353
CBC_1102,CBC_1102_MSI_AV_v3_Vset6_Aset3_2024-05-26_14h20.21.975.csv,2,27,1,2,b,1,0,0,aud,B,9,1,1B,2B,1,0,b,1.08500730000014,1,0,1,1,1B,2B,B12,3.73766961828337,0.999990395204684,9.60479531590105e-06,0.5,0.5,0.013390887896169,0.999999742766525,0.5,0.013390887896169,0.013390887896169,0.5,0.999641368242704,9.60479531590105e-06,0.5,0.5,0.00035863175729553,0.999981297987148,0.666666609503662,0.333333390496337,0.999999742766525,0.5,0.135987502947904,0.549033219628171,2.57233474632024e-07,2.50344305388145e-07,0.5,0.973218224207662,0.871212443282238,0.23173118172866,2.5224691274599,0.5,80.5986902959353
CBC_1102,CBC_1102_MSI_AV_v3_Vset6_Aset3_2024-05-26_14h20.21.975.csv,2,28,1,3,r,0,1,2,aud,D,27,1,1D,3D,0,1,r,1.81997829999818,0,1,1,1,3D,1D,D13,3.76120011569356,0.999990395204684,9.60479531590105e-06,0.5,0.5,0.013390887896169,0.999999993110831,0.5,0.013390887896169,0.013390887896169,0.5,0.999641368242704,9.60479531590105e-06,0.5,0.5,0.00035863175729553,0.999981297987148,0.666662510611993,0.333337489388007,0.999981297987148,0.5,0.257807241758053,0.548454887694347,1.87020128517013e-05,1.82011397366416e-05,0.5,0.973218224207662,0.871212443282238,0.23173118172866,2.5224691274599,0.5,80.5986902959353
CBC_1102,CBC_1102_MSI_AV_v3_Vset6_Aset3_2024-05-26_14h20.21.975.csv,2,29,1,0,r,0,1,1,aud,A,63,1,1A,0A,0,1,r,1.63828759999888,0,1,1,1,0A,1A,A10,2.68557734525015,0.999990395204684,9.60479531590105e-06,0.5,0.5,0.013390887896169,0.999999993110831,0.5,0.013390887896169,0.013390887896169,0.5,0.999641368242704,9.60479531590105e-06,0.5,0.5,0.00035863175729553,0.999999499126885,0.999990395204684,9.60479531590105e-06,0.999990395204684,9.60479531590105e-06,0.348632233395806,0.642806133365886,9.60479531586511e-06,9.34756184118431e-06,0.5,0.973218224207662,0.871212443282238,0.23173118172866,2.5224691274599,0.5,80.5986902959353
CBC_1102,CBC_1102_MSI_AV_v3_Vset6_Aset3_2024-05-26_14h20.21.975.csv,2,30,0,1,b,1,0,1,aud,A,63,1,0A,1A,1,0,b,2.25177949999852,1,0,1,1,0A,1A,A01,3.11351530921037,0.999999742766525,9.60479531590105e-06,0.5,0.5,0.013390887896169,0.999999993110831,0.5,0.013390887896169,0.013390887896169,0.5,0.999641368242704,9.60479531590105e-06,0.5,0.5,0.00035863175729553,0.999999499126885,0.999990395294465,9.60470553532209e-06,0.999999742766525,9.60479531590105e-06,0.218162912800545,0.64169436140534,2.57233474632024e-07,2.50344305388145e-07,0.5,0.973218224207662,0.871212443282238,0.23173118172866,2.5224691274599,0.5,80.5986902959353
CBC_1102,CBC_1102_MSI_AV_v3_Vset6_Aset3_2024-05-26_14h20.21.975.csv,2,31,0,2,r,0,1,3,aud,C,27,1,0C,2C,0,1,r,2.31031240000084,0,1,1,1,2C,0C,C02,3.13549421592915,0.999999993110831,9.60479531590105e-06,0.5,0.5,0.013390887896169,0.999999993110831,0.5,0.013390887896169,0.013390887896169,0.5,0.999641368242704,9.60479531590105e-06,0.5,0.5,0.00035863175729553,0.999999499126885,0.986781380538456,0.0132186194615439,0.999641368242704,0.013390887896169,0.206982262643783,0.638066331897068,0.000358631757295558,0.000349026961979656,0.5,0.973218224207662,0.871212443282238,0.23173118172866,2.5224691274599,0.5,80.5986902959353
CBC_1102,CBC_1102_MSI_AV_v3_Vset6_Aset3_2024-05-26_14h20.21.975.csv,2,32,1,0,r,0,1,1,aud,A,63,1,1A,0A,0,1,r,2.3109841000005,0,1,1,1,0A,1A,A10,2.46385324059017,0.999999993110831,9.60479531590105e-06,0.5,0.5,0.013390887896169,0.999999993110831,0.5,0.013390887896169,0.013390887896169,0.5,0.999990395204684,9.60479531590105e-06,0.5,0.5,0.00035863175729553,0.999999499126885,0.999990395296869,9.60470313086183e-06,0.999999993110831,9.60479531590105e-06,0.207943684167374,0.641286154916036,6.88916923508032e-09,6.70466504923092e-09,0.5,0.973218224207662,0.871212443282238,0.23173118172866,2.5224691274599,0.5,80.5986902959353
CBC_1102,CBC_1102_MSI_AV_v3_Vset6_Aset3_2024-05-26_14h20.21.975.csv,2,33,1,0,b,1,0,0,aud,B,63,1,1B,0B,1,0,b,2.66807820000031,1,0,1,1,1B,0B,B10,2.26176309847379,0.999999999815496,9.60479531590105e-06,0.5,0.5,0.013390887896169,0.999999993110831,0.5,0.013390887896169,0.013390887896169,0.5,0.999990395204684,9.60479531590105e-06,0.5,0.5,0.00035863175729553,0.999999499126885,0.98678605842312,0.0132139415768795,0.999999993110831,0.013390887896169,0.155502654548004,0.638191001139668,6.88916923508032e-09,6.70466504923092e-09,0.5,0.973218224207662,0.871212443282238,0.23173118172866,2.5224691274599,0.5,80.5986902959353
CBC_1102,CBC_1102_MSI_AV_v3_Vset6_Aset3_2024-05-26_14h20.21.975.csv,2,34,3,2,b,1,0,2,aud,D,63,1,3D,2D,1,0,b,3.09046760000274,1,0,1,1,3D,2D,D32,2.50552593699074,0.999999999815496,9.60479531590105e-06,0.5,0.5,0.013390887896169,0.999999999815496,0.5,0.013390887896169,0.013390887896169,0.5,0.999990395204684,9.60479531590105e-06,0.5,0.5,0.00035863175729553,0.999999499126885,0.999641496633832,0.000358503366168023,0.999999499126885,0.00035863175729553,0.111560921259402,0.642934191227317,5.00873115094613e-07,4.87458843625739e-07,0.5,0.973218224207662,0.871212443282238,0.23173118172866,2.5224691274599,0.5,80.5986902959353
CBC_1102,CBC_1102_MSI_AV_v3_Vset6_Aset3_2024-05-26_14h20.21.975.csv,2,35,3,1,r,0,1,0,aud,B,27,1,3B,1B,0,1,b,2.56607059999806,1,0,0,0,3B,1B,B31,2.81341071676004,0.999999999815496,9.60479531590105e-06,0.5,0.5,0.013390887896169,0.999999999815496,0.5,0.013390887896169,0.013390887896169,0.5,0.999990395204684,9.60479531590105e-06,0.5,0.5,0.00035863175729553,0.999999986585729,0.0132139414894552,0.986786058510545,0.013390887896169,0.999999999815496,0.0956025532171645,0.361596584130745,-0.013390887896169,-0.0130322561388735,0.5,0.973218224207662,0.871212443282238,0.23173118172866,2.5224691274599,0.5,80.5986902959353
CBC_1102,CBC_1102_MSI_AV_v3_Vset6_Aset3_2024-05-26_14h20.21.975.csv,2,36,3,2,r,0,1,3,aud,C,63,1,3C,2C,0,1,r,2.83027370000127,0,1,1,1,2C,3C,C32,2.83321334405622,0.999999999815496,9.60479531590105e-06,0.5,0.5,0.013390887896169,0.999999999815496,0.5,0.00035863175729553,0.013390887896169,0.5,0.999990395204684,9.60479531590105e-06,0.5,0.5,0.00035863175729553,0.999999986585729,0.999990395204684,9.60479531590105e-06,0.999990395204684,9.60479531590105e-06,0.137304040186988,0.642050118181384,9.60479531586511e-06,9.34756184118431e-06,0.5,0.973218224207662,0.871212443282238,0.23173118172866,2.5224691274599,0.5,80.5986902959353
CBC_1102,CBC_1102_MSI_AV_v3_Vset6_Aset3_2024-05-26_14h20.21.975.csv,2,37,2,0,b,1,0,3,aud,C,27,1,2C,0C,1,0,b,3.51491659999738,1,0,1,1,2C,0C,C20,3.95124371858143,0.999999999815496,9.60479531590105e-06,0.5,0.5,0.013390887896169,0.999999999815496,0.5,0.00035863175729553,0.013390887896169,0.5,0.999999742766525,9.60479531590105e-06,0.5,0.5,0.00035863175729553,0.999999986585729,0.986786055158797,0.0132139448412032,0.999999742766525,0.013390887896169,0.0789937799721544,0.63895677677328,2.57233474632024e-07,2.50344305388145e-07,0.5,0.973218224207662,0.871212443282238,0.23173118172866,2.5224691274599,0.5,80.5986902959353
CBC_1102,CBC_1102_MSI_AV_v3_Vset6_Aset3_2024-05-26_14h20.21.975.csv,2,38,1,0,b,1,0,0,aud,B,63,1,1B,0B,1,0,b,1.4613731999998,1,0,1,1,1B,0B,B10,2.17853244432407,0.999999999815496,9.60479531590105e-06,0.5,0.5,0.013390887896169,0.999999999815496,0.5,0.00035863175729553,0.013390887896169,0.5,0.999999993110831,9.60479531590105e-06,0.5,0.5,0.00035863175729553,0.999999986585729,0.986786058510545,0.0132139414894552,0.999999999815496,0.013390887896169,0.378091959074532,0.639286031896065,1.84504189704171e-10,1.79562839862767e-10,0.5,0.973218224207662,0.871212443282238,0.23173118172866,2.5224691274599,0.5,80.5986902959353
CBC_1102,CBC_1102_MSI_AV_v3_Vset6_Aset3_2024-05-26_14h20.21.975.csv,2,39,3,0,r,0,1,1,aud,A,9,1,3A,0A,0,1,r,1.63244040000063,0,1,1,1,0A,3A,A30,3.98898404656427,0.999999999815496,9.60479531590105e-06,0.5,0.5,0.013390887896169,0.999999999995059,0.5,0.00035863175729553,0.013390887896169,0.5,0.999999993110831,9.60479531590105e-06,0.5,0.5,0.00035863175729553,0.999999986585729,0.666666666625666,0.333333333374334,0.999999999815496,0.5,0.292816013739245,0.548447659584639,1.84504189704171e-10,1.79562839862767e-10,0.5,0.973218224207662,0.871212443282238,0.23173118172866,2.5224691274599,0.5,80.5986902959353
CBC_1102,CBC_1102_MSI_AV_v3_Vset6_Aset3_2024-05-26_14h20.21.975.csv,2,40,3,2,r,0,1,3,aud,C,63,0,3C,2C,1,0,b,3.14580750000096,1,0,0,1,3C,2C,C32,2.62103882411258,0.999999999995059,9.60479531590105e-06,0.5,0.5,0.013390887896169,0.999999999995059,0.5,0.00035863175729553,0.013390887896169,0.5,0.999999993110831,9.60479531590105e-06,0.5,0.5,0.00035863175729553,0.999999986585729,9.60470313086183e-06,0.999990395296869,9.60479531590105e-06,0.999999993110831,0.0595688240461254,0.358721133114605,0.999990395204684,0.973208876645821,0.5,0.973218224207662,0.871212443282238,0.23173118172866,2.5224691274599,0.5,80.5986902959353
CBC_1102,CBC_1102_MSI_AV_v3_Vset6_Aset3_2024-05-26_14h20.21.975.csv,2,41,1,0,r,0,1,1,aud,A,63,1,1A,0A,0,1,b,2.6287928999991,1,0,0,0,1A,0A,A10,2.41591377830105,0.999999999995059,9.60479531590105e-06,0.5,0.5,0.013390887896169,0.999999999995059,0.5,0.00035863175729553,0.013390887896169,0.5,0.999999993110831,0.973218481441137,0.5,0.5,0.00035863175729553,0.999999986585729,9.60470306474151e-06,0.999990395296935,9.60479531590105e-06,0.999999999995059,0.0898319751162851,0.357390806915613,-9.60479531590105e-06,-9.34756184121929e-06,0.5,0.973218224207662,0.871212443282238,0.23173118172866,2.5224691274599,0.5,80.5986902959353
CBC_1102,CBC_1102_MSI_AV_v3_Vset6_Aset3_2024-05-26_14h20.21.975.csv,2,42,3,2,b,1,0,2,aud,D,63,1,3D,2D,1,0,b,2.90211319999798,1,0,1,1,3D,2D,D32,2.43361335540045,0.999999999995059,2.5723347468176e-07,0.5,0.5,0.013390887896169,0.999999999995059,0.5,0.00035863175729553,0.013390887896169,0.5,0.999999993110831,0.973218481441137,0.5,0.5,0.00035863175729553,0.999999986585729,0.999641496808525,0.000358503191475034,0.999999986585729,0.00035863175729553,0.129568168611309,0.641791490583172,1.34142714713903e-08,1.3055013460426e-08,0.5,0.973218224207662,0.871212443282238,0.23173118172866,2.5224691274599,0.5,80.5986902959353
CBC_1102,CBC_1102_MSI_AV_v3_Vset6_Aset3_2024-05-26_14h20.21.975.csv,2,43,2,3,b,1,0,3,aud,C,63,1,2C,3C,1,0,r,2.43981030000214,0,1,0,0,3C,2C,C23,2.96183072187831,0.999999999995059,2.5723347468176e-07,0.5,0.5,0.013390887896169,0.999999999995059,0.5,0.00035863175729553,0.013390887896169,0.5,0.999999993110831,0.973218481441137,0.5,0.5,0.00035863175729553,0.999999999640742,0.493213749005727,0.506786250994273,0.973218481441137,0.999999993110831,0.145517261171166,0.497512691294149,-0.973218481441137,-0.94715396227422,0.5,0.973218224207662,0.871212443282238,0.23173118172866,2.5224691274599,0.5,80.5986902959353
CBC_1102,CBC_1102_MSI_AV_v3_Vset6_Aset3_2024-05-26_14h20.21.975.csv,2,44,1,3,r,0,1,2,aud,D,27,1,1D,3D,0,1,b,2.32041290000052,1,0,0,0,1D,3D,D13,3.38439026334577,0.999999999995059,2.5723347468176e-07,0.5,0.5,0.013390887896169,0.999999999995059,0.5,0.00035863175729553,0.013390887896169,0.5,0.999999993110831,0.0260645191669162,0.5,0.5,0.00035863175729553,0.999999999640742,0.333333333413168,0.666666666586832,0.5,0.999999999640742,0.144830999311102,0.45127256919793,-0.5,-0.486609112103831,0.5,0.973218224207662,0.871212443282238,0.23173118172866,2.5224691274599,0.5,80.5986902959353
