ID,filename,session,trial,visStimLeft,visStimRight,correctKey,leftCorrect,rightCorrect,secondStim,mod2Type,mod2Stim,frequency,rewardAccurate,stimPairLeft,stimPairRight,pCorrectLeft,pCorrectRight,key,reactionTime,choiceLeft,choiceRight,choiceAccurate,reward,chosenPair,otherPair,triplet,surprise,0A belief,1A belief,2A belief,3A belief,0B belief,1B belief,2B belief,3B belief,0C belief,1C belief,2C belief,3C belief,0D belief,1D belief,2D belief,3D belief,beliefPairNorm,beliefOtherPairNorm,beliefPair,beliefOtherPair,lik,corrLik,rewardPE,update2,fitCBCsimpleRW_CBCdriftDiffusionLR_startBelief,fitCBCsimpleRW_CBCdriftDiffusionLR_alpha1,fitCBCsimpleRW_CBCdriftDiffusionLR_nonDecisionTime,fitCBCsimpleRW_CBCdriftDiffusionLR_weight,fitCBCsimpleRW_CBCdriftDiffusionLR_startingBoundary,fitCBCsimpleRW_CBCdriftDiffusionLR_startingPoint,fit_CBCsimpleRW_CBCdriftDiffusionLR_NLL
CBC_1109,CBC_1109_MSI_AV_v3_Vset3_Aset2_2024-06-07_14h04.19.059.csv,1,1,1,0,r,0,1,2,aud,A,63,1,1A,0A,0,1,r,1.38629750000018,0,1,1,1,0A,1A,A10,2.77258872223978,0.5,0.5,0.5,0.5,0.5,0.5,0.5,0.5,0.5,0.5,0.5,0.5,0.5,0.5,0.5,0.5,0.5,0.5,0.5,0.5,0.225324987437533,0.499539539158725,0.5,0.0983813118297591,0.5,0.196762623659518,1.08901462775934,1.41563575798701,2.49124487031703,0.5,74.0155780531293
CBC_1109,CBC_1109_MSI_AV_v3_Vset3_Aset2_2024-06-07_14h04.19.059.csv,1,2,3,2,b,1,0,3,aud,D,63,1,3D,2D,NaN,NaN,[],NaN,NaN,NaN,NaN,NaN,,,D32,2.83321334405622,0.598381311829759,0.5,0.5,0.5,0.5,0.5,0.5,0.5,0.5,0.5,0.5,0.5,0.5,0.5,0.5,0.5,0,0,0,0,NaN,0,0,0,0.5,0.196762623659518,1.08901462775934,1.41563575798701,2.49124487031703,0.5,74.0155780531293
CBC_1109,CBC_1109_MSI_AV_v3_Vset3_Aset2_2024-06-07_14h04.19.059.csv,1,3,2,0,b,1,0,0,aud,C,27,1,2C,0C,1,0,b,2.40168790000007,1,0,1,1,2C,0C,C20,2.89037175789616,0.598381311829759,0.5,0.5,0.5,0.5,0.5,0.5,0.5,0.5,0.5,0.5,0.5,0.5,0.5,0.5,0.5,0.5,0.5,0.5,0.5,0.178311208257491,0.500531600560514,0.5,0.0983813118297591,0.5,0.196762623659518,1.08901462775934,1.41563575798701,2.49124487031703,0.5,74.0155780531293
CBC_1109,CBC_1109_MSI_AV_v3_Vset3_Aset2_2024-06-07_14h04.19.059.csv,1,4,1,0,r,0,1,2,aud,A,63,1,1A,0A,0,1,b,1.63377080000009,1,0,0,0,1A,0A,A10,2.2512917986065,0.598381311829759,0.5,0.5,0.5,0.5,0.5,0.5,0.5,0.5,0.5,0.598381311829759,0.5,0.5,0.5,0.5,0.5,0.455215319684441,0.544784680315559,0.5,0.598381311829759,0.2527681187541,0.421379175088467,-0.5,-0.0983813118297591,0.5,0.196762623659518,1.08901462775934,1.41563575798701,2.49124487031703,0.5,74.0155780531293
CBC_1109,CBC_1109_MSI_AV_v3_Vset3_Aset2_2024-06-07_14h04.19.059.csv,1,5,3,1,r,0,1,1,aud,B,27,1,3B,1B,0,1,r,2.23418310000034,0,1,1,1,1B,3B,B31,2.99573227355399,0.598381311829759,0.401618688170241,0.5,0.5,0.5,0.5,0.5,0.5,0.5,0.5,0.598381311829759,0.5,0.5,0.5,0.5,0.5,0.5,0.5,0.5,0.5,0.203389716491415,0.500409913311916,0.5,0.0983813118297591,0.5,0.196762623659518,1.08901462775934,1.41563575798701,2.49124487031703,0.5,74.0155780531293
CBC_1109,CBC_1109_MSI_AV_v3_Vset3_Aset2_2024-06-07_14h04.19.059.csv,1,6,2,3,b,1,0,0,aud,C,63,1,2C,3C,1,0,r,2.40137660000073,0,1,0,0,3C,2C,C23,3.04452243772342,0.598381311829759,0.401618688170241,0.5,0.5,0.5,0.598381311829759,0.5,0.5,0.5,0.5,0.598381311829759,0.5,0.5,0.5,0.5,0.5,0.455215319684441,0.544784680315559,0.5,0.598381311829759,0.15050946912527,0.421594881569966,-0.5,-0.0983813118297591,0.5,0.196762623659518,1.08901462775934,1.41563575798701,2.49124487031703,0.5,74.0155780531293
CBC_1109,CBC_1109_MSI_AV_v3_Vset3_Aset2_2024-06-07_14h04.19.059.csv,1,7,2,3,r,0,1,3,aud,D,63,1,2D,3D,0,1,r,2.38133230000039,0,1,1,1,3D,2D,D23,3.09104245335832,0.598381311829759,0.401618688170241,0.5,0.5,0.5,0.598381311829759,0.5,0.5,0.5,0.5,0.598381311829759,0.401618688170241,0.5,0.5,0.5,0.5,0.5,0.5,0.5,0.5,0.181193479608577,0.50050549373561,0.5,0.0983813118297591,0.5,0.196762623659518,1.08901462775934,1.41563575798701,2.49124487031703,0.5,74.0155780531293
CBC_1109,CBC_1109_MSI_AV_v3_Vset3_Aset2_2024-06-07_14h04.19.059.csv,1,8,1,0,b,1,0,1,aud,B,63,1,1B,0B,1,0,b,3.28032960000019,1,0,1,1,1B,0B,B10,3.13549421592915,0.598381311829759,0.401618688170241,0.5,0.5,0.5,0.598381311829759,0.5,0.5,0.5,0.5,0.598381311829759,0.401618688170241,0.5,0.5,0.5,0.598381311829759,0.544784680315559,0.455215319684441,0.598381311829759,0.5,0.101895860003152,0.577745561896109,0.401618688170241,0.0790235467950705,0.5,0.196762623659518,1.08901462775934,1.41563575798701,2.49124487031703,0.5,74.0155780531293
CBC_1109,CBC_1109_MSI_AV_v3_Vset3_Aset2_2024-06-07_14h04.19.059.csv,1,9,0,2,b,1,0,2,aud,A,27,1,0A,2A,1,0,b,2.46626540000034,1,0,1,1,0A,2A,A02,3.17805383034795,0.598381311829759,0.401618688170241,0.5,0.5,0.5,0.67740485862483,0.5,0.5,0.5,0.5,0.598381311829759,0.401618688170241,0.5,0.5,0.5,0.598381311829759,0.544784680315559,0.455215319684441,0.598381311829759,0.5,0.196078621019975,0.578482981843139,0.401618688170241,0.0790235467950705,0.5,0.196762623659518,1.08901462775934,1.41563575798701,2.49124487031703,0.5,74.0155780531293
CBC_1109,CBC_1109_MSI_AV_v3_Vset3_Aset2_2024-06-07_14h04.19.059.csv,1,10,0,3,r,0,1,3,aud,D,9,1,0D,3D,0,1,r,1.52652920000037,0,1,1,1,3D,0D,D03,3.2188758248682,0.67740485862483,0.401618688170241,0.5,0.5,0.5,0.67740485862483,0.5,0.5,0.5,0.5,0.598381311829759,0.401618688170241,0.5,0.5,0.5,0.598381311829759,0.544784680315559,0.455215319684441,0.598381311829759,0.5,0.340340000986149,0.578459720371009,0.401618688170241,0.0790235467950705,0.5,0.196762623659518,1.08901462775934,1.41563575798701,2.49124487031703,0.5,74.0155780531293
CBC_1109,CBC_1109_MSI_AV_v3_Vset3_Aset2_2024-06-07_14h04.19.059.csv,1,11,3,2,r,0,1,0,aud,C,63,1,3C,2C,0,1,b,2.86105750000024,1,0,0,0,3C,2C,C32,3.25809653802148,0.67740485862483,0.401618688170241,0.5,0.5,0.5,0.67740485862483,0.5,0.5,0.5,0.5,0.598381311829759,0.401618688170241,0.5,0.5,0.5,0.67740485862483,0.401618688170241,0.598381311829759,0.401618688170241,0.598381311829759,0.0816706807164634,0.333326154059031,-0.401618688170241,-0.0790235467950705,0.5,0.196762623659518,1.08901462775934,1.41563575798701,2.49124487031703,0.5,74.0155780531293
CBC_1109,CBC_1109_MSI_AV_v3_Vset3_Aset2_2024-06-07_14h04.19.059.csv,1,12,1,0,b,1,0,1,aud,B,63,1,1B,0B,1,0,b,1.93071319999945,1,0,1,1,1B,0B,B10,2.60268968544438,0.67740485862483,0.401618688170241,0.5,0.5,0.5,0.67740485862483,0.5,0.5,0.5,0.5,0.598381311829759,0.32259514137517,0.5,0.5,0.5,0.67740485862483,0.575337237367966,0.424662762632034,0.67740485862483,0.5,0.32629344001666,0.628649938337196,0.32259514137517,0.0634746663967917,0.5,0.196762623659518,1.08901462775934,1.41563575798701,2.49124487031703,0.5,74.0155780531293
CBC_1109,CBC_1109_MSI_AV_v3_Vset3_Aset2_2024-06-07_14h04.19.059.csv,1,13,3,2,b,1,0,3,aud,D,63,1,3D,2D,1,0,b,2.65705520000029,1,0,1,1,3D,2D,D32,2.63905732961526,0.67740485862483,0.401618688170241,0.5,0.5,0.5,0.740879525021621,0.5,0.5,0.5,0.5,0.598381311829759,0.32259514137517,0.5,0.5,0.5,0.67740485862483,0.575337237367966,0.424662762632034,0.67740485862483,0.5,0.183098371530005,0.629815077860601,0.32259514137517,0.0634746663967917,0.5,0.196762623659518,1.08901462775934,1.41563575798701,2.49124487031703,0.5,74.0155780531293
CBC_1109,CBC_1109_MSI_AV_v3_Vset3_Aset2_2024-06-07_14h04.19.059.csv,1,14,3,2,r,0,1,0,aud,C,63,1,3C,2C,0,1,r,3.84886490000008,0,1,1,1,2C,3C,C32,2.67414864942653,0.67740485862483,0.401618688170241,0.5,0.5,0.5,0.740879525021621,0.5,0.5,0.5,0.5,0.598381311829759,0.32259514137517,0.5,0.5,0.5,0.740879525021621,0.649724875969887,0.350275124030113,0.598381311829759,0.32259514137517,0.0746260870497724,0.741589054063186,0.401618688170241,0.0790235467950705,0.5,0.196762623659518,1.08901462775934,1.41563575798701,2.49124487031703,0.5,74.0155780531293
CBC_1109,CBC_1109_MSI_AV_v3_Vset3_Aset2_2024-06-07_14h04.19.059.csv,1,15,1,3,b,1,0,1,aud,B,27,1,1B,3B,1,0,b,2.76355479999984,1,0,1,1,1B,3B,B13,3.40119738166216,0.67740485862483,0.401618688170241,0.5,0.5,0.5,0.740879525021621,0.5,0.5,0.5,0.5,0.67740485862483,0.32259514137517,0.5,0.5,0.5,0.740879525021621,0.597059996625145,0.402940003374855,0.740879525021621,0.5,0.1767739136594,0.665063985810577,0.259120474978379,0.0509852245006463,0.5,0.196762623659518,1.08901462775934,1.41563575798701,2.49124487031703,0.5,74.0155780531293
CBC_1109,CBC_1109_MSI_AV_v3_Vset3_Aset2_2024-06-07_14h04.19.059.csv,1,16,3,0,r,0,1,2,aud,A,9,1,3A,0A,0,1,r,1.51078409999991,0,1,1,1,0A,3A,A30,3.43398720448515,0.67740485862483,0.401618688170241,0.5,0.5,0.5,0.791864749522268,0.5,0.5,0.5,0.5,0.67740485862483,0.32259514137517,0.5,0.5,0.5,0.740879525021621,0.575337237367966,0.424662762632034,0.67740485862483,0.5,0.371993995728501,0.629177003531181,0.32259514137517,0.0634746663967917,0.5,0.196762623659518,1.08901462775934,1.41563575798701,2.49124487031703,0.5,74.0155780531293
CBC_1109,CBC_1109_MSI_AV_v3_Vset3_Aset2_2024-06-07_14h04.19.059.csv,1,17,3,2,b,1,0,3,aud,D,63,1,3D,2D,1,0,b,2.87101669999993,1,0,1,1,3D,2D,D32,2.36712361413162,0.740879525021621,0.401618688170241,0.5,0.5,0.5,0.791864749522268,0.5,0.5,0.5,0.5,0.67740485862483,0.32259514137517,0.5,0.5,0.5,0.740879525021621,0.597059996625145,0.402940003374855,0.740879525021621,0.5,0.161673074252371,0.665202895911973,0.259120474978379,0.0509852245006463,0.5,0.196762623659518,1.08901462775934,1.41563575798701,2.49124487031703,0.5,74.0155780531293
CBC_1109,CBC_1109_MSI_AV_v3_Vset3_Aset2_2024-06-07_14h04.19.059.csv,1,18,2,0,b,1,0,0,aud,C,27,1,2C,0C,1,0,b,3.56027189999986,1,0,1,1,2C,0C,C20,2.80336038090653,0.740879525021621,0.401618688170241,0.5,0.5,0.5,0.791864749522268,0.5,0.5,0.5,0.5,0.67740485862483,0.32259514137517,0.5,0.5,0.5,0.791864749522268,0.575337237367966,0.424662762632034,0.67740485862483,0.5,0.087436924246488,0.629393040209496,0.32259514137517,0.0634746663967917,0.5,0.196762623659518,1.08901462775934,1.41563575798701,2.49124487031703,0.5,74.0155780531293
CBC_1109,CBC_1109_MSI_AV_v3_Vset3_Aset2_2024-06-07_14h04.19.059.csv,1,19,1,0,r,0,1,2,aud,A,63,1,1A,0A,0,1,r,1.70527979999952,0,1,1,1,0A,1A,A10,2.42774823594805,0.740879525021621,0.401618688170241,0.5,0.5,0.5,0.791864749522268,0.5,0.5,0.5,0.5,0.740879525021621,0.32259514137517,0.5,0.5,0.5,0.791864749522268,0.648473246143453,0.351526753856547,0.740879525021621,0.401618688170241,0.465835646620643,0.739794954619227,0.259120474978379,0.0509852245006463,0.5,0.196762623659518,1.08901462775934,1.41563575798701,2.49124487031703,0.5,74.0155780531293
CBC_1109,CBC_1109_MSI_AV_v3_Vset3_Aset2_2024-06-07_14h04.19.059.csv,1,20,0,1,r,0,1,1,aud,B,63,0,0B,1B,1,0,r,3.24476360000062,0,1,1,0,1B,0B,B01,3.55534806148941,0.791864749522268,0.401618688170241,0.5,0.5,0.5,0.791864749522268,0.5,0.5,0.5,0.5,0.740879525021621,0.32259514137517,0.5,0.5,0.5,0.791864749522268,0.612962579724464,0.387037420275536,0.791864749522268,0.5,0.121617752849993,0.68921866178681,-0.791864749522268,-0.155809385699489,0.5,0.196762623659518,1.08901462775934,1.41563575798701,2.49124487031703,0.5,74.0155780531293
CBC_1109,CBC_1109_MSI_AV_v3_Vset3_Aset2_2024-06-07_14h04.19.059.csv,1,21,1,3,r,0,1,3,aud,D,27,1,1D,3D,0,1,r,2.01940520000062,0,1,1,1,3D,1D,D13,3.58351893845611,0.791864749522268,0.401618688170241,0.5,0.5,0.5,0.636055363822779,0.5,0.5,0.5,0.5,0.740879525021621,0.32259514137517,0.5,0.5,0.5,0.791864749522268,0.612962579724464,0.387037420275536,0.791864749522268,0.5,0.340041850972543,0.688849937274459,0.208135250477732,0.0409532379600296,0.5,0.196762623659518,1.08901462775934,1.41563575798701,2.49124487031703,0.5,74.0155780531293
CBC_1109,CBC_1109_MSI_AV_v3_Vset3_Aset2_2024-06-07_14h04.19.059.csv,1,22,2,3,b,1,0,0,aud,C,63,1,2C,3C,1,0,b,2.27308050000011,1,0,1,1,2C,3C,C23,2.91777073208428,0.791864749522268,0.401618688170241,0.5,0.5,0.5,0.636055363822779,0.5,0.5,0.5,0.5,0.740879525021621,0.32259514137517,0.5,0.5,0.5,0.832817987482297,0.69665930786281,0.30334069213719,0.740879525021621,0.32259514137517,0.328344880566993,0.800282213842843,0.259120474978379,0.0509852245006463,0.5,0.196762623659518,1.08901462775934,1.41563575798701,2.49124487031703,0.5,74.0155780531293
CBC_1109,CBC_1109_MSI_AV_v3_Vset3_Aset2_2024-06-07_14h04.19.059.csv,1,23,1,0,b,1,0,1,aud,B,63,1,1B,0B,1,0,b,1.73182940000061,1,0,1,1,1B,0B,B10,2.53897387105828,0.791864749522268,0.401618688170241,0.5,0.5,0.5,0.636055363822779,0.5,0.5,0.5,0.5,0.791864749522268,0.32259514137517,0.5,0.5,0.5,0.832817987482297,0.559880604482584,0.440119395517416,0.636055363822779,0.5,0.352535675584569,0.603504035179689,0.363944636177221,0.0716107014810388,0.5,0.196762623659518,1.08901462775934,1.41563575798701,2.49124487031703,0.5,74.0155780531293
CBC_1109,CBC_1109_MSI_AV_v3_Vset3_Aset2_2024-06-07_14h04.19.059.csv,1,24,2,0,r,0,1,2,aud,A,27,1,2A,0A,0,1,r,3.11378870000044,0,1,1,1,0A,2A,A20,3.66356164612965,0.791864749522268,0.401618688170241,0.5,0.5,0.5,0.707666065303818,0.5,0.5,0.5,0.5,0.791864749522268,0.32259514137517,0.5,0.5,0.5,0.832817987482297,0.612962579724464,0.387037420275536,0.791864749522268,0.5,0.135895128030256,0.689369814495946,0.208135250477732,0.0409532379600296,0.5,0.196762623659518,1.08901462775934,1.41563575798701,2.49124487031703,0.5,74.0155780531293
CBC_1109,CBC_1109_MSI_AV_v3_Vset3_Aset2_2024-06-07_14h04.19.059.csv,1,25,2,3,r,0,1,3,aud,D,63,1,2D,3D,0,1,r,3.21781910000027,0,1,1,1,3D,2D,D23,2.99573227355399,0.832817987482297,0.401618688170241,0.5,0.5,0.5,0.707666065303818,0.5,0.5,0.5,0.5,0.791864749522268,0.32259514137517,0.5,0.5,0.5,0.832817987482297,0.62485500293667,0.37514499706333,0.832817987482297,0.5,0.126718015067567,0.707379494786357,0.167182012517703,0.0328951714116616,0.5,0.196762623659518,1.08901462775934,1.41563575798701,2.49124487031703,0.5,74.0155780531293
CBC_1109,CBC_1109_MSI_AV_v3_Vset3_Aset2_2024-06-07_14h04.19.059.csv,1,26,2,0,b,1,0,0,aud,C,27,1,2C,0C,1,0,b,4.44489320000048,1,0,1,1,2C,0C,C20,2.6149597780362,0.832817987482297,0.401618688170241,0.5,0.5,0.5,0.707666065303818,0.5,0.5,0.5,0.5,0.791864749522268,0.32259514137517,0.5,0.5,0.5,0.865713158893959,0.612962579724464,0.387037420275536,0.791864749522268,0.5,0.0440527020140776,0.689501260765721,0.208135250477732,0.0409532379600296,0.5,0.196762623659518,1.08901462775934,1.41563575798701,2.49124487031703,0.5,74.0155780531293
CBC_1109,CBC_1109_MSI_AV_v3_Vset3_Aset2_2024-06-07_14h04.19.059.csv,1,27,1,0,b,1,0,1,aud,B,63,1,1B,0B,1,0,b,3.30145850000008,1,0,1,1,1B,0B,B10,2.35137525716348,0.832817987482297,0.401618688170241,0.5,0.5,0.5,0.707666065303818,0.5,0.5,0.5,0.5,0.832817987482297,0.32259514137517,0.5,0.5,0.5,0.865713158893959,0.585978264716569,0.414021735283431,0.707666065303818,0.5,0.110529927018925,0.64702849947779,0.292333934696182,0.0575203919755311,0.5,0.196762623659518,1.08901462775934,1.41563575798701,2.49124487031703,0.5,74.0155780531293
CBC_1109,CBC_1109_MSI_AV_v3_Vset3_Aset2_2024-06-07_14h04.19.059.csv,1,28,0,1,b,1,0,2,aud,A,63,1,0A,1A,1,0,b,1.69316400000025,1,0,1,1,0A,1A,A01,3.76120011569356,0.832817987482297,0.401618688170241,0.5,0.5,0.5,0.765186457279349,0.5,0.5,0.5,0.5,0.832817987482297,0.32259514137517,0.5,0.5,0.5,0.865713158893959,0.67465428070019,0.32534571929981,0.832817987482297,0.401618688170241,0.503215888734893,0.773590908416829,0.167182012517703,0.0328951714116616,0.5,0.196762623659518,1.08901462775934,1.41563575798701,2.49124487031703,0.5,74.0155780531293
CBC_1109,CBC_1109_MSI_AV_v3_Vset3_Aset2_2024-06-07_14h04.19.059.csv,1,29,3,2,r,0,1,0,aud,C,63,1,3C,2C,0,1,b,3.35948530000042,1,0,0,0,3C,2C,C32,2.68557734525015,0.865713158893959,0.401618688170241,0.5,0.5,0.5,0.765186457279349,0.5,0.5,0.5,0.5,0.832817987482297,0.32259514137517,0.5,0.5,0.5,0.865713158893959,0.279203285230253,0.720796714769747,0.32259514137517,0.832817987482297,0.0246036770050768,0.17451196821878,-0.32259514137517,-0.0634746663967917,0.5,0.196762623659518,1.08901462775934,1.41563575798701,2.49124487031703,0.5,74.0155780531293
CBC_1109,CBC_1109_MSI_AV_v3_Vset3_Aset2_2024-06-07_14h04.19.059.csv,1,30,3,1,b,1,0,3,aud,D,27,1,3D,1D,1,0,r,2.35146950000035,0,1,0,0,1D,3D,D31,3.80666248977032,0.865713158893959,0.401618688170241,0.5,0.5,0.5,0.765186457279349,0.5,0.5,0.5,0.5,0.832817987482297,0.259120474978379,0.5,0.5,0.5,0.865713158893959,0.366109088679303,0.633890911320697,0.5,0.865713158893959,0.105589823524636,0.280112496056693,-0.5,-0.0983813118297591,0.5,0.196762623659518,1.08901462775934,1.41563575798701,2.49124487031703,0.5,74.0155780531293
CBC_1109,CBC_1109_MSI_AV_v3_Vset3_Aset2_2024-06-07_14h04.19.059.csv,1,31,1,0,r,0,1,2,aud,A,63,1,1A,0A,0,1,r,1.69104380000044,0,1,1,1,0A,1A,A10,2.4423470353692,0.865713158893959,0.401618688170241,0.5,0.5,0.5,0.765186457279349,0.5,0.5,0.5,0.5,0.832817987482297,0.259120474978379,0.5,0.401618688170241,0.5,0.865713158893959,0.683099032743003,0.316900967256996,0.865713158893959,0.401618688170241,0.514645148851192,0.783371851909669,0.134286841106041,0.0264226311789735,0.5,0.196762623659518,1.08901462775934,1.41563575798701,2.49124487031703,0.5,74.0155780531293
CBC_1109,CBC_1109_MSI_AV_v3_Vset3_Aset2_2024-06-07_14h04.19.059.csv,1,32,3,2,b,1,0,3,aud,D,63,1,3D,2D,1,0,b,2.50266240000019,1,0,1,1,3D,2D,D32,2.46385324059017,0.892135790072932,0.401618688170241,0.5,0.5,0.5,0.765186457279349,0.5,0.5,0.5,0.5,0.832817987482297,0.259120474978379,0.5,0.401618688170241,0.5,0.865713158893959,0.633890911320697,0.366109088679303,0.865713158893959,0.5,0.238347848767839,0.72040571336892,0.134286841106041,0.0264226311789735,0.5,0.196762623659518,1.08901462775934,1.41563575798701,2.49124487031703,0.5,74.0155780531293
CBC_1109,CBC_1109_MSI_AV_v3_Vset3_Aset2_2024-06-07_14h04.19.059.csv,1,33,2,1,r,0,1,1,aud,B,9,1,2B,1B,0,1,b,1.71055680000063,1,0,0,0,2B,1B,B21,3.87120101090789,0.892135790072932,0.401618688170241,0.5,0.5,0.5,0.765186457279349,0.5,0.5,0.5,0.5,0.832817987482297,0.259120474978379,0.5,0.401618688170241,0.5,0.892135790072932,0.395198665875066,0.604801334124934,0.5,0.765186457279349,0.195551878777886,0.322916740997739,-0.5,-0.0983813118297591,0.5,0.196762623659518,1.08901462775934,1.41563575798701,2.49124487031703,0.5,74.0155780531293
CBC_1109,CBC_1109_MSI_AV_v3_Vset3_Aset2_2024-06-07_14h04.19.059.csv,1,34,1,0,r,0,1,2,aud,A,63,1,1A,0A,0,1,r,1.55253530000027,0,1,1,1,0A,1A,A10,2.28238238567653,0.892135790072932,0.401618688170241,0.5,0.5,0.5,0.765186457279349,0.401618688170241,0.5,0.5,0.5,0.832817987482297,0.259120474978379,0.5,0.401618688170241,0.5,0.892135790072932,0.689571170632305,0.310428829367695,0.892135790072932,0.401618688170241,0.539151849453082,0.792050133799787,0.107864209927068,0.0212236449442109,0.5,0.196762623659518,1.08901462775934,1.41563575798701,2.49124487031703,0.5,74.0155780531293
CBC_1109,CBC_1109_MSI_AV_v3_Vset3_Aset2_2024-06-07_14h04.19.059.csv,1,35,2,1,b,1,0,0,aud,C,9,1,2C,1C,1,0,b,3.17948379999962,1,0,1,1,2C,1C,C21,3.91202300542815,0.913359435017143,0.401618688170241,0.5,0.5,0.5,0.765186457279349,0.401618688170241,0.5,0.5,0.5,0.832817987482297,0.259120474978379,0.5,0.401618688170241,0.5,0.892135790072932,0.62485500293667,0.37514499706333,0.832817987482297,0.5,0.130892306330702,0.706894021440829,0.167182012517703,0.0328951714116616,0.5,0.196762623659518,1.08901462775934,1.41563575798701,2.49124487031703,0.5,74.0155780531293
CBC_1109,CBC_1109_MSI_AV_v3_Vset3_Aset2_2024-06-07_14h04.19.059.csv,1,36,1,0,b,1,0,1,aud,B,63,1,1B,0B,1,0,b,1.45355740000014,1,0,1,1,1B,0B,B10,2.32238772029023,0.913359435017143,0.401618688170241,0.5,0.5,0.5,0.765186457279349,0.401618688170241,0.5,0.5,0.5,0.865713158893959,0.259120474978379,0.5,0.401618688170241,0.5,0.892135790072932,0.604801334124934,0.395198665875066,0.765186457279349,0.5,0.382268388237871,0.676132158298818,0.234813542720651,0.0462025287365017,0.5,0.196762623659518,1.08901462775934,1.41563575798701,2.49124487031703,0.5,74.0155780531293
CBC_1109,CBC_1109_MSI_AV_v3_Vset3_Aset2_2024-06-07_14h04.19.059.csv,1,37,0,1,b,1,0,2,aud,A,63,0,0A,1A,0,1,b,2.3899763999998,1,0,1,0,0A,1A,A01,3.25809653802148,0.913359435017143,0.401618688170241,0.5,0.5,0.5,0.811388986015851,0.401618688170241,0.5,0.5,0.5,0.865713158893959,0.259120474978379,0.5,0.401618688170241,0.5,0.892135790072932,0.6945814678675,0.3054185321325,0.913359435017143,0.401618688170241,0.293204687248427,0.798036191762637,-0.913359435017143,-0.179714998778148,0.5,0.196762623659518,1.08901462775934,1.41563575798701,2.49124487031703,0.5,74.0155780531293
CBC_1109,CBC_1109_MSI_AV_v3_Vset3_Aset2_2024-06-07_14h04.19.059.csv,1,38,0,1,r,0,1,1,aud,B,63,1,0B,1B,0,1,r,1.71165509999992,0,1,1,1,1B,0B,B01,3.27714473299218,0.733644436238995,0.401618688170241,0.5,0.5,0.5,0.811388986015851,0.401618688170241,0.5,0.5,0.5,0.865713158893959,0.259120474978379,0.5,0.401618688170241,0.5,0.892135790072932,0.618724874669676,0.381275125330324,0.811388986015851,0.5,0.426115121296494,0.69698379539209,0.188611013984149,0.0371115979626033,0.5,0.196762623659518,1.08901462775934,1.41563575798701,2.49124487031703,0.5,74.0155780531293
CBC_1109,CBC_1109_MSI_AV_v3_Vset3_Aset2_2024-06-07_14h04.19.059.csv,1,39,1,3,r,0,1,3,aud,D,27,1,1D,3D,0,1,b,3.83309539999937,1,0,0,0,1D,3D,D13,3.29583686600433,0.733644436238995,0.401618688170241,0.5,0.5,0.5,0.848500583978454,0.401618688170241,0.5,0.5,0.5,0.865713158893959,0.259120474978379,0.5,0.401618688170241,0.5,0.892135790072932,0.310428829367695,0.689571170632305,0.401618688170241,0.892135790072932,0.0197624118689271,0.208372369140069,-0.401618688170241,-0.0790235467950705,0.5,0.196762623659518,1.08901462775934,1.41563575798701,2.49124487031703,0.5,74.0155780531293
CBC_1109,CBC_1109_MSI_AV_v3_Vset3_Aset2_2024-06-07_14h04.19.059.csv,1,40,3,2,r,0,1,0,aud,C,63,1,3C,2C,0,1,r,3.16711120000036,0,1,1,1,2C,3C,C32,2.62103882411258,0.733644436238995,0.401618688170241,0.5,0.5,0.5,0.848500583978454,0.401618688170241,0.5,0.5,0.5,0.865713158893959,0.259120474978379,0.5,0.32259514137517,0.5,0.892135790072932,0.769636622540941,0.230363377459059,0.865713158893959,0.259120474978379,0.137004300026738,0.870032565548549,0.134286841106041,0.0264226311789735,0.5,0.196762623659518,1.08901462775934,1.41563575798701,2.49124487031703,0.5,74.0155780531293
CBC_1109,CBC_1109_MSI_AV_v3_Vset3_Aset2_2024-06-07_14h04.19.059.csv,1,41,0,2,b,1,0,2,aud,A,27,1,0A,2A,1,0,b,1.3065088000003,1,0,1,1,0A,2A,A02,3.3322045101752,0.733644436238995,0.401618688170241,0.5,0.5,0.5,0.848500583978454,0.401618688170241,0.5,0.5,0.5,0.892135790072932,0.259120474978379,0.5,0.32259514137517,0.5,0.892135790072932,0.594696830535428,0.405303169464572,0.733644436238995,0.5,0.191920520300896,0.661529131667924,0.266355563761005,0.0524088195519255,0.5,0.196762623659518,1.08901462775934,1.41563575798701,2.49124487031703,0.5,74.0155780531293
CBC_1109,CBC_1109_MSI_AV_v3_Vset3_Aset2_2024-06-07_14h04.19.059.csv,1,42,2,3,r,0,1,3,aud,D,63,1,2D,3D,0,1,b,3.73049660000015,1,0,0,0,2D,3D,D23,2.94443897916644,0.78605325579092,0.401618688170241,0.5,0.5,0.5,0.848500583978454,0.401618688170241,0.5,0.5,0.5,0.892135790072932,0.259120474978379,0.5,0.32259514137517,0.5,0.892135790072932,0.359160366083114,0.640839633916886,0.5,0.892135790072932,0.0305461401745462,0.27010018895795,-0.5,-0.0983813118297591,0.5,0.196762623659518,1.08901462775934,1.41563575798701,2.49124487031703,0.5,74.0155780531293
CBC_1109,CBC_1109_MSI_AV_v3_Vset3_Aset2_2024-06-07_14h04.19.059.csv,1,43,1,3,b,1,0,1,aud,B,27,1,1B,3B,1,0,r,1.75335580000046,0,1,0,0,3B,1B,B13,3.36729582998647,0.78605325579092,0.401618688170241,0.5,0.5,0.5,0.848500583978454,0.401618688170241,0.5,0.5,0.5,0.892135790072932,0.259120474978379,0.5,0.32259514137517,0.401618688170241,0.892135790072932,0.370782190189981,0.629217809810019,0.5,0.848500583978454,0.172560329743548,0.285698906028773,-0.5,-0.0983813118297591,0.5,0.196762623659518,1.08901462775934,1.41563575798701,2.49124487031703,0.5,74.0155780531293
CBC_1109,CBC_1109_MSI_AV_v3_Vset3_Aset2_2024-06-07_14h04.19.059.csv,1,44,3,2,r,0,1,0,aud,C,63,1,3C,2C,NaN,NaN,[],NaN,NaN,NaN,NaN,NaN,,,C32,2.46809953147162,0.78605325579092,0.401618688170241,0.5,0.5,0.5,0.848500583978454,0.401618688170241,0.401618688170241,0.5,0.5,0.892135790072932,0.259120474978379,0.5,0.32259514137517,0.401618688170241,0.892135790072932,0,0,0,0,NaN,0,0,0,0.5,0.196762623659518,1.08901462775934,1.41563575798701,2.49124487031703,0.5,74.0155780531293
CBC_1109,CBC_1109_MSI_TV_v3_Vset1_Tset3_2024-06-07_15h09.59.248.csv,2,1,3,1,r,0,1,1,tac,B,27,1,3B,1B,0,1,b,2.46447120000084,1,0,0,0,3B,1B,B31,2.77258872223978,0.5,0.5,0.5,0.5,0.5,0.5,0.5,0.5,0.5,0.5,0.5,0.5,0.5,0.5,0.5,0.5,0.5,0.5,0.5,0.5,0.141845746641754,0.499373236612655,-0.5,-0.00724072084006089,0.5,0.0144814416801218,0.819815400086456,7.56333554662647,2.91926880912396,0.5,91.1832393001452
CBC_1109,CBC_1109_MSI_TV_v3_Vset1_Tset3_2024-06-07_15h09.59.248.csv,2,2,2,3,b,1,0,0,tac,C,63,1,2C,3C,1,0,b,2.63567049999983,1,0,1,1,2C,3C,C23,2.83321334405622,0.5,0.5,0.5,0.5,0.5,0.5,0.5,0.492759279159939,0.5,0.5,0.5,0.5,0.5,0.5,0.5,0.5,0.5,0.5,0.5,0.5,0.128611089932807,0.499562827865277,0.5,0.00724072084006089,0.5,0.0144814416801218,0.819815400086456,7.56333554662647,2.91926880912396,0.5,91.1832393001452
CBC_1109,CBC_1109_MSI_TV_v3_Vset1_Tset3_2024-06-07_15h09.59.248.csv,2,3,2,3,r,0,1,3,tac,D,63,1,2D,3D,0,1,r,1.48756189999949,0,1,1,1,3D,2D,D23,2.89037175789616,0.5,0.5,0.5,0.5,0.5,0.5,0.5,0.492759279159939,0.5,0.5,0.507240720840061,0.5,0.5,0.5,0.5,0.5,0.5,0.5,0.5,0.5,0.216997451942182,0.50121891271758,0.5,0.00724072084006089,0.5,0.0144814416801218,0.819815400086456,7.56333554662647,2.91926880912396,0.5,91.1832393001452
CBC_1109,CBC_1109_MSI_TV_v3_Vset1_Tset3_2024-06-07_15h09.59.248.csv,2,4,1,0,b,1,0,1,tac,B,63,1,1B,0B,1,0,b,2.44850489999953,1,0,1,1,1B,0B,B10,2.94443897916644,0.5,0.5,0.5,0.5,0.5,0.5,0.5,0.492759279159939,0.5,0.5,0.507240720840061,0.5,0.5,0.5,0.5,0.507240720840061,0.5,0.5,0.5,0.5,0.14336976977242,0.500150349112318,0.5,0.00724072084006089,0.5,0.0144814416801218,0.819815400086456,7.56333554662647,2.91926880912396,0.5,91.1832393001452
CBC_1109,CBC_1109_MSI_TV_v3_Vset1_Tset3_2024-06-07_15h09.59.248.csv,2,5,3,0,r,0,1,2,tac,A,9,1,3A,0A,0,1,b,2.65718890000062,1,0,0,0,3A,0A,A30,2.99573227355399,0.5,0.5,0.5,0.5,0.5,0.507240720840061,0.5,0.492759279159939,0.5,0.5,0.507240720840061,0.5,0.5,0.5,0.5,0.507240720840061,0.5,0.5,0.5,0.5,0.126633145804902,0.498015245630978,-0.5,-0.00724072084006089,0.5,0.0144814416801218,0.819815400086456,7.56333554662647,2.91926880912396,0.5,91.1832393001452
CBC_1109,CBC_1109_MSI_TV_v3_Vset1_Tset3_2024-06-07_15h09.59.248.csv,2,6,2,3,r,0,1,3,tac,D,63,1,2D,3D,0,1,r,2.10947039999883,0,1,1,1,3D,2D,D23,2.35137525716348,0.5,0.5,0.5,0.492759279159939,0.5,0.507240720840061,0.5,0.492759279159939,0.5,0.5,0.507240720840061,0.5,0.5,0.5,0.5,0.507240720840061,0.503594334844813,0.496405665155187,0.507240720840061,0.5,0.187157115193308,0.539137298406764,0.492759279159939,0.0071358647634935,0.5,0.0144814416801218,0.819815400086456,7.56333554662647,2.91926880912396,0.5,91.1832393001452
CBC_1109,CBC_1109_MSI_TV_v3_Vset1_Tset3_2024-06-07_15h09.59.248.csv,2,7,2,0,b,1,0,0,tac,C,27,1,2C,0C,1,0,r,2.88620939999964,0,1,0,0,0C,2C,C20,3.09104245335832,0.5,0.5,0.5,0.492759279159939,0.5,0.507240720840061,0.5,0.492759279159939,0.5,0.5,0.507240720840061,0.5,0.5,0.5,0.5,0.514376585603554,0.496405665155187,0.503594334844813,0.5,0.507240720840061,0.102445811738349,0.459803204517119,-0.5,-0.00724072084006089,0.5,0.0144814416801218,0.819815400086456,7.56333554662647,2.91926880912396,0.5,91.1832393001452
CBC_1109,CBC_1109_MSI_TV_v3_Vset1_Tset3_2024-06-07_15h09.59.248.csv,2,8,1,0,r,0,1,2,tac,A,63,1,1A,0A,0,1,b,3.14141319999908,1,0,0,0,1A,0A,A10,3.13549421592915,0.5,0.5,0.5,0.492759279159939,0.5,0.507240720840061,0.5,0.492759279159939,0.492759279159939,0.5,0.507240720840061,0.5,0.5,0.5,0.5,0.514376585603554,0.5,0.5,0.5,0.5,0.095844247377403,0.498655940224453,-0.5,-0.00724072084006089,0.5,0.0144814416801218,0.819815400086456,7.56333554662647,2.91926880912396,0.5,91.1832393001452
CBC_1109,CBC_1109_MSI_TV_v3_Vset1_Tset3_2024-06-07_15h09.59.248.csv,2,9,0,1,r,0,1,1,tac,B,63,1,0B,1B,0,1,r,3.15994560000036,0,1,1,1,1B,0B,B01,3.17805383034795,0.5,0.492759279159939,0.5,0.492759279159939,0.5,0.507240720840061,0.5,0.492759279159939,0.492759279159939,0.5,0.507240720840061,0.5,0.5,0.5,0.5,0.514376585603554,0.503594334844813,0.496405665155187,0.507240720840061,0.5,0.102691575970105,0.54021696850644,0.492759279159939,0.0071358647634935,0.5,0.0144814416801218,0.819815400086456,7.56333554662647,2.91926880912396,0.5,91.1832393001452
CBC_1109,CBC_1109_MSI_TV_v3_Vset1_Tset3_2024-06-07_15h09.59.248.csv,2,10,3,1,b,1,0,3,tac,D,27,1,3D,1D,1,0,b,1.91827450000164,1,0,1,1,3D,1D,D31,3.2188758248682,0.5,0.492759279159939,0.5,0.492759279159939,0.5,0.514376585603554,0.5,0.492759279159939,0.492759279159939,0.5,0.507240720840061,0.5,0.5,0.5,0.5,0.514376585603554,0.507086414359121,0.492913585640879,0.514376585603554,0.5,0.222052736771524,0.576372233287375,0.485623414396446,0.00703252715408374,0.5,0.0144814416801218,0.819815400086456,7.56333554662647,2.91926880912396,0.5,91.1832393001452
CBC_1109,CBC_1109_MSI_TV_v3_Vset1_Tset3_2024-06-07_15h09.59.248.csv,2,11,2,3,b,1,0,0,tac,C,63,1,2C,3C,1,0,b,2.67188170000009,1,0,1,1,2C,3C,C23,2.56494935746154,0.5,0.492759279159939,0.5,0.492759279159939,0.5,0.514376585603554,0.5,0.492759279159939,0.492759279159939,0.5,0.507240720840061,0.5,0.5,0.5,0.5,0.521409112757638,0.503594334844813,0.496405665155187,0.507240720840061,0.5,0.13609952191466,0.539576335421642,0.492759279159939,0.0071358647634935,0.5,0.0144814416801218,0.819815400086456,7.56333554662647,2.91926880912396,0.5,91.1832393001452
CBC_1109,CBC_1109_MSI_TV_v3_Vset1_Tset3_2024-06-07_15h09.59.248.csv,2,12,0,1,r,0,1,1,tac,B,63,1,0B,1B,0,1,r,3.73165579999841,0,1,1,1,1B,0B,B01,2.60268968544438,0.5,0.492759279159939,0.5,0.492759279159939,0.5,0.514376585603554,0.5,0.492759279159939,0.492759279159939,0.5,0.514376585603554,0.5,0.5,0.5,0.5,0.521409112757638,0.507086414359121,0.492913585640879,0.514376585603554,0.5,0.0784837382847771,0.577267692424094,0.485623414396446,0.00703252715408374,0.5,0.0144814416801218,0.819815400086456,7.56333554662647,2.91926880912396,0.5,91.1832393001452
CBC_1109,CBC_1109_MSI_TV_v3_Vset1_Tset3_2024-06-07_15h09.59.248.csv,2,13,1,0,r,0,1,2,tac,A,63,1,1A,0A,0,1,b,3.29929059999995,1,0,0,0,1A,0A,A10,2.63905732961526,0.5,0.492759279159939,0.5,0.492759279159939,0.5,0.521409112757638,0.5,0.492759279159939,0.492759279159939,0.5,0.514376585603554,0.5,0.5,0.5,0.5,0.521409112757638,0.49635323436806,0.50364676563194,0.492759279159939,0.5,0.0806552300033101,0.460029710377294,-0.492759279159939,-0.0071358647634935,0.5,0.0144814416801218,0.819815400086456,7.56333554662647,2.91926880912396,0.5,91.1832393001452
CBC_1109,CBC_1109_MSI_TV_v3_Vset1_Tset3_2024-06-07_15h09.59.248.csv,2,14,2,1,b,1,0,0,tac,C,9,1,2C,1C,1,0,b,3.21690540000054,1,0,1,1,2C,1C,C21,3.36729582998647,0.5,0.485623414396446,0.5,0.492759279159939,0.5,0.521409112757638,0.5,0.492759279159939,0.492759279159939,0.5,0.514376585603554,0.5,0.5,0.5,0.5,0.521409112757638,0.507086414359121,0.492913585640879,0.514376585603554,0.5,0.10595453805446,0.576769640320329,0.485623414396446,0.00703252715408374,0.5,0.0144814416801218,0.819815400086456,7.56333554662647,2.91926880912396,0.5,91.1832393001452
CBC_1109,CBC_1109_MSI_TV_v3_Vset1_Tset3_2024-06-07_15h09.59.248.csv,2,15,0,1,b,1,0,2,tac,A,63,1,0A,1A,1,0,r,2.52767019999919,0,1,0,0,1A,0A,A01,3.40119738166216,0.5,0.485623414396446,0.5,0.492759279159939,0.5,0.521409112757638,0.5,0.492759279159939,0.492759279159939,0.5,0.521409112757638,0.5,0.5,0.5,0.5,0.521409112757638,0.49270685669924,0.50729314330076,0.485623414396446,0.5,0.115034328469719,0.418829625579128,-0.485623414396446,-0.00703252715408374,0.5,0.0144814416801218,0.819815400086456,7.56333554662647,2.91926880912396,0.5,91.1832393001452
CBC_1109,CBC_1109_MSI_TV_v3_Vset1_Tset3_2024-06-07_15h09.59.248.csv,2,16,1,3,r,0,1,3,tac,D,27,1,1D,3D,0,1,b,2.56316370000059,1,0,0,0,1D,3D,D13,3.43398720448515,0.5,0.478590887242362,0.5,0.492759279159939,0.5,0.521409112757638,0.5,0.492759279159939,0.492759279159939,0.5,0.521409112757638,0.5,0.5,0.5,0.5,0.521409112757638,0.489519815081815,0.510480184918185,0.5,0.521409112757638,0.104268224593243,0.386675631985658,-0.5,-0.00724072084006089,0.5,0.0144814416801218,0.819815400086456,7.56333554662647,2.91926880912396,0.5,91.1832393001452
CBC_1109,CBC_1109_MSI_TV_v3_Vset1_Tset3_2024-06-07_15h09.59.248.csv,2,17,1,0,b,1,0,1,tac,B,63,1,1B,0B,1,0,r,2.46928939999998,0,1,0,0,0B,1B,B10,2.77258872223978,0.5,0.478590887242362,0.5,0.492759279159939,0.5,0.521409112757638,0.5,0.492759279159939,0.492759279159939,0.5,0.521409112757638,0.5,0.5,0.492759279159939,0.5,0.521409112757638,0.489519815081815,0.510480184918185,0.5,0.521409112757638,0.109812577522722,0.385384310078157,-0.5,-0.00724072084006089,0.5,0.0144814416801218,0.819815400086456,7.56333554662647,2.91926880912396,0.5,91.1832393001452
CBC_1109,CBC_1109_MSI_TV_v3_Vset1_Tset3_2024-06-07_15h09.59.248.csv,2,18,3,2,r,0,1,0,tac,C,63,0,3C,2C,1,0,r,4.04157210000085,0,1,1,0,2C,3C,C32,3.49650756146648,0.5,0.478590887242362,0.5,0.492759279159939,0.492759279159939,0.521409112757638,0.5,0.492759279159939,0.492759279159939,0.5,0.521409112757638,0.5,0.5,0.492759279159939,0.5,0.521409112757638,0.510480184918185,0.489519815081815,0.521409112757638,0.5,0.0689973179586537,0.612889776981545,-0.521409112757638,-0.00755075565788378,0.5,0.0144814416801218,0.819815400086456,7.56333554662647,2.91926880912396,0.5,91.1832393001452
CBC_1109,CBC_1109_MSI_TV_v3_Vset1_Tset3_2024-06-07_15h09.59.248.csv,2,19,0,2,b,1,0,2,tac,A,27,1,0A,2A,1,0,b,2.40050510000037,1,0,1,1,0A,2A,A02,3.52636052461616,0.5,0.478590887242362,0.5,0.492759279159939,0.492759279159939,0.521409112757638,0.5,0.492759279159939,0.492759279159939,0.5,0.513858357099754,0.5,0.5,0.492759279159939,0.5,0.521409112757638,0.5,0.5,0.5,0.5,0.147317780377897,0.500033364671605,0.5,0.00724072084006089,0.5,0.0144814416801218,0.819815400086456,7.56333554662647,2.91926880912396,0.5,91.1832393001452
CBC_1109,CBC_1109_MSI_TV_v3_Vset1_Tset3_2024-06-07_15h09.59.248.csv,2,20,2,3,r,0,1,3,tac,D,63,1,2D,3D,NaN,NaN,None,NaN,NaN,NaN,NaN,NaN,,,D23,2.4567357728213,0.507240720840061,0.478590887242362,0.5,0.492759279159939,0.492759279159939,0.521409112757638,0.5,0.492759279159939,0.492759279159939,0.5,0.513858357099754,0.5,0.5,0.492759279159939,0.5,0.521409112757638,0,0,0,0,NaN,0,0,0,0.5,0.0144814416801218,0.819815400086456,7.56333554662647,2.91926880912396,0.5,91.1832393001452
CBC_1109,CBC_1109_MSI_TV_v3_Vset1_Tset3_2024-06-07_15h09.59.248.csv,2,21,1,3,b,1,0,1,tac,B,27,1,1B,3B,1,0,r,2.28769710000051,0,1,0,0,3B,1B,B13,3.58351893845611,0.507240720840061,0.478590887242362,0.5,0.492759279159939,0.492759279159939,0.521409112757638,0.5,0.492759279159939,0.492759279159939,0.5,0.513858357099754,0.5,0.5,0.492759279159939,0.5,0.521409112757638,0.485875208778925,0.514124791221075,0.492759279159939,0.521409112757638,0.111494677310182,0.350005719424669,-0.492759279159939,-0.0071358647634935,0.5,0.0144814416801218,0.819815400086456,7.56333554662647,2.91926880912396,0.5,91.1832393001452
CBC_1109,CBC_1109_MSI_TV_v3_Vset1_Tset3_2024-06-07_15h09.59.248.csv,2,22,2,3,b,1,0,0,tac,C,63,1,2C,3C,1,0,b,1.80327660000148,1,0,1,1,2C,3C,C23,2.51230562397611,0.507240720840061,0.478590887242362,0.5,0.492759279159939,0.492759279159939,0.521409112757638,0.5,0.485623414396446,0.492759279159939,0.5,0.513858357099754,0.5,0.5,0.492759279159939,0.5,0.521409112757638,0.506834464105715,0.493165535894285,0.513858357099754,0.5,0.233865790612335,0.575293804314091,0.486141642900246,0.00704003184993849,0.5,0.0144814416801218,0.819815400086456,7.56333554662647,2.91926880912396,0.5,91.1832393001452
CBC_1109,CBC_1109_MSI_TV_v3_Vset1_Tset3_2024-06-07_15h09.59.248.csv,2,23,1,0,r,0,1,2,tac,A,63,1,1A,0A,0,1,r,3.79003840000041,0,1,1,1,0A,1A,A10,2.53897387105828,0.507240720840061,0.478590887242362,0.5,0.492759279159939,0.492759279159939,0.521409112757638,0.5,0.485623414396446,0.492759279159939,0.5,0.520898388949693,0.5,0.5,0.492759279159939,0.5,0.521409112757638,0.51453079479437,0.48546920520563,0.507240720840061,0.478590887242362,0.084792911290137,0.656149103557914,0.492759279159939,0.0071358647634935,0.5,0.0144814416801218,0.819815400086456,7.56333554662647,2.91926880912396,0.5,91.1832393001452
CBC_1109,CBC_1109_MSI_TV_v3_Vset1_Tset3_2024-06-07_15h09.59.248.csv,2,24,1,2,b,1,0,1,tac,B,9,1,1B,2B,1,0,b,2.45523290000165,1,0,1,1,1B,2B,B12,3.66356164612965,0.514376585603554,0.478590887242362,0.5,0.492759279159939,0.492759279159939,0.521409112757638,0.5,0.485623414396446,0.492759279159939,0.5,0.520898388949693,0.5,0.5,0.492759279159939,0.5,0.521409112757638,0.510480184918185,0.489519815081815,0.521409112757638,0.5,0.175925798296753,0.612487853567056,0.478590887242362,0.006930686022238,0.5,0.0144814416801218,0.819815400086456,7.56333554662647,2.91926880912396,0.5,91.1832393001452
CBC_1109,CBC_1109_MSI_TV_v3_Vset1_Tset3_2024-06-07_15h09.59.248.csv,2,25,3,2,r,0,1,0,tac,C,63,1,3C,2C,0,1,r,3.6751615000012,0,1,1,1,2C,3C,C32,2.99573227355399,0.514376585603554,0.478590887242362,0.5,0.492759279159939,0.492759279159939,0.528339798779876,0.5,0.485623414396446,0.492759279159939,0.5,0.520898388949693,0.5,0.5,0.492759279159939,0.5,0.521409112757638,0.510235293333744,0.489764706666256,0.520898388949693,0.5,0.0855713715267171,0.611915154636803,0.479101611050307,0.00693808203927741,0.5,0.0144814416801218,0.819815400086456,7.56333554662647,2.91926880912396,0.5,91.1832393001452
CBC_1109,CBC_1109_MSI_TV_v3_Vset1_Tset3_2024-06-07_15h09.59.248.csv,2,26,3,2,b,1,0,3,tac,D,63,1,3D,2D,1,0,b,1.6533459000002,1,0,1,1,3D,2D,D32,3.71357206670431,0.514376585603554,0.478590887242362,0.5,0.492759279159939,0.492759279159939,0.528339798779876,0.5,0.485623414396446,0.492759279159939,0.5,0.52783647098897,0.5,0.5,0.492759279159939,0.5,0.521409112757638,0.510480184918185,0.489519815081815,0.521409112757638,0.5,0.266167890920403,0.61430252151793,0.478590887242362,0.006930686022238,0.5,0.0144814416801218,0.819815400086456,7.56333554662647,2.91926880912396,0.5,91.1832393001452
CBC_1109,CBC_1109_MSI_TV_v3_Vset1_Tset3_2024-06-07_15h09.59.248.csv,2,27,1,0,b,1,0,1,tac,B,63,1,1B,0B,1,0,r,4.06915929999923,0,1,0,0,0B,1B,B10,2.63905732961526,0.514376585603554,0.478590887242362,0.5,0.492759279159939,0.492759279159939,0.528339798779876,0.5,0.485623414396446,0.492759279159939,0.5,0.52783647098897,0.5,0.5,0.492759279159939,0.5,0.528339798779876,0.482577342204772,0.517422657795228,0.492759279159939,0.528339798779876,0.0341283338765049,0.316451255453299,-0.492759279159939,-0.0071358647634935,0.5,0.0144814416801218,0.819815400086456,7.56333554662647,2.91926880912396,0.5,91.1832393001452
CBC_1109,CBC_1109_MSI_TV_v3_Vset1_Tset3_2024-06-07_15h09.59.248.csv,2,28,2,0,r,0,1,2,tac,A,27,1,2A,0A,0,1,b,1.28547400000025,1,0,0,0,2A,0A,A20,3.76120011569356,0.514376585603554,0.478590887242362,0.5,0.492759279159939,0.485623414396446,0.528339798779876,0.5,0.485623414396446,0.492759279159939,0.5,0.52783647098897,0.5,0.5,0.492759279159939,0.5,0.528339798779876,0.492913585640879,0.507086414359121,0.5,0.514376585603554,0.158874064090793,0.423084517296416,-0.5,-0.00724072084006089,0.5,0.0144814416801218,0.819815400086456,7.56333554662647,2.91926880912396,0.5,91.1832393001452
CBC_1109,CBC_1109_MSI_TV_v3_Vset1_Tset3_2024-06-07_15h09.59.248.csv,2,29,3,1,b,1,0,3,tac,D,27,1,3D,1D,1,0,r,2.52661609999996,0,1,0,0,1D,3D,D31,3.09104245335832,0.514376585603554,0.478590887242362,0.492759279159939,0.492759279159939,0.485623414396446,0.528339798779876,0.5,0.485623414396446,0.492759279159939,0.5,0.52783647098897,0.5,0.5,0.492759279159939,0.5,0.528339798779876,0.482577342204772,0.517422657795228,0.492759279159939,0.528339798779876,0.0880747676779626,0.317201008990304,-0.492759279159939,-0.0071358647634935,0.5,0.0144814416801218,0.819815400086456,7.56333554662647,2.91926880912396,0.5,91.1832393001452
CBC_1109,CBC_1109_MSI_TV_v3_Vset1_Tset3_2024-06-07_15h09.59.248.csv,2,30,0,1,b,1,0,2,tac,A,63,1,0A,1A,1,0,b,3.17818289999923,1,0,1,1,0A,1A,A01,3.11351530921037,0.514376585603554,0.478590887242362,0.492759279159939,0.492759279159939,0.485623414396446,0.528339798779876,0.5,0.485623414396446,0.492759279159939,0.5,0.52783647098897,0.5,0.5,0.485623414396446,0.5,0.528339798779876,0.518019572312187,0.481980427687813,0.514376585603554,0.478590887242362,0.128302851047109,0.689064905133976,0.485623414396446,0.00703252715408374,0.5,0.0144814416801218,0.819815400086456,7.56333554662647,2.91926880912396,0.5,91.1832393001452
CBC_1109,CBC_1109_MSI_TV_v3_Vset1_Tset3_2024-06-07_15h09.59.248.csv,2,31,0,2,r,0,1,0,tac,C,27,1,0C,2C,0,1,r,4.22359289999986,0,1,1,1,2C,0C,C02,3.8286413964891,0.521409112757638,0.478590887242362,0.492759279159939,0.492759279159939,0.485623414396446,0.528339798779876,0.5,0.485623414396446,0.492759279159939,0.5,0.52783647098897,0.5,0.5,0.485623414396446,0.5,0.528339798779876,0.517184664850855,0.482815335149145,0.52783647098897,0.492759279159939,0.0668264114569361,0.679826949160775,0.47216352901103,0.00683760860885371,0.5,0.0144814416801218,0.819815400086456,7.56333554662647,2.91926880912396,0.5,91.1832393001452
CBC_1109,CBC_1109_MSI_TV_v3_Vset1_Tset3_2024-06-07_15h09.59.248.csv,2,32,3,2,b,1,0,3,tac,D,63,1,3D,2D,1,0,b,3.13100639999902,1,0,1,1,3D,2D,D32,3.15700042115011,0.521409112757638,0.478590887242362,0.492759279159939,0.492759279159939,0.485623414396446,0.528339798779876,0.5,0.485623414396446,0.492759279159939,0.5,0.534674079597824,0.5,0.5,0.485623414396446,0.5,0.528339798779876,0.513779394132903,0.486220605867097,0.528339798779876,0.5,0.124638005989513,0.647552763674697,0.471660201220124,0.00683031969680373,0.5,0.0144814416801218,0.819815400086456,7.56333554662647,2.91926880912396,0.5,91.1832393001452
CBC_1109,CBC_1109_MSI_TV_v3_Vset1_Tset3_2024-06-07_15h09.59.248.csv,2,33,0,1,r,0,1,1,tac,B,63,1,0B,1B,0,1,r,3.41348079999989,0,1,1,1,1B,0B,B01,2.77258872223978,0.521409112757638,0.478590887242362,0.492759279159939,0.492759279159939,0.485623414396446,0.528339798779876,0.5,0.485623414396446,0.492759279159939,0.5,0.534674079597824,0.5,0.5,0.485623414396446,0.5,0.53517011847668,0.521064070090678,0.478935929909322,0.528339798779876,0.485623414396446,0.114556106864531,0.716849995704024,0.471660201220124,0.00683031969680373,0.5,0.0144814416801218,0.819815400086456,7.56333554662647,2.91926880912396,0.5,91.1832393001452
CBC_1109,CBC_1109_MSI_TV_v3_Vset1_Tset3_2024-06-07_15h09.59.248.csv,2,34,1,0,r,0,1,2,tac,A,63,1,1A,0A,0,1,r,3.22820519999914,0,1,1,1,0A,1A,A10,2.50552593699074,0.521409112757638,0.478590887242362,0.492759279159939,0.492759279159939,0.485623414396446,0.53517011847668,0.5,0.485623414396446,0.492759279159939,0.5,0.534674079597824,0.5,0.5,0.485623414396446,0.5,0.53517011847668,0.521409112757638,0.478590887242362,0.521409112757638,0.478590887242362,0.129136775032443,0.719571107332255,0.478590887242362,0.006930686022238,0.5,0.0144814416801218,0.819815400086456,7.56333554662647,2.91926880912396,0.5,91.1832393001452
CBC_1109,CBC_1109_MSI_TV_v3_Vset1_Tset3_2024-06-07_15h09.59.248.csv,2,35,3,2,b,1,0,3,tac,D,63,0,3D,2D,0,1,b,1.04757389999941,1,0,1,0,3D,2D,D32,2.81341071676004,0.528339798779876,0.478590887242362,0.492759279159939,0.492759279159939,0.485623414396446,0.53517011847668,0.5,0.485623414396446,0.492759279159939,0.5,0.534674079597824,0.5,0.5,0.485623414396446,0.5,0.53517011847668,0.516987603220442,0.483012396779558,0.53517011847668,0.5,0.0719022037424614,0.678629758867675,-0.53517011847668,-0.0077500348596639,0.5,0.0144814416801218,0.819815400086456,7.56333554662647,2.91926880912396,0.5,91.1832393001452
CBC_1109,CBC_1109_MSI_TV_v3_Vset1_Tset3_2024-06-07_15h09.59.248.csv,2,36,0,2,r,0,1,0,tac,C,27,1,0C,2C,0,1,r,1.18003719999979,0,1,1,1,2C,0C,C02,3.23867845216438,0.528339798779876,0.478590887242362,0.492759279159939,0.492759279159939,0.485623414396446,0.53517011847668,0.5,0.485623414396446,0.492759279159939,0.5,0.534674079597824,0.5,0.5,0.485623414396446,0.5,0.527420083617016,0.520397819518223,0.479602180481777,0.534674079597824,0.492759279159939,0.215593257063426,0.71059700646298,0.465325920402176,0.0067385901785531,0.5,0.0144814416801218,0.819815400086456,7.56333554662647,2.91926880912396,0.5,91.1832393001452
CBC_1109,CBC_1109_MSI_TV_v3_Vset1_Tset3_2024-06-07_15h09.59.248.csv,2,37,1,0,r,0,1,2,tac,A,63,1,1A,0A,0,1,b,4.10590699999921,1,0,0,0,1A,0A,A10,2.34180580614733,0.528339798779876,0.478590887242362,0.492759279159939,0.492759279159939,0.485623414396446,0.53517011847668,0.5,0.485623414396446,0.492759279159939,0.5,0.541412669776377,0.5,0.5,0.485623414396446,0.5,0.527420083617016,0.475296754668367,0.524703245331633,0.478590887242362,0.528339798779876,0.0254050604091314,0.252033768259059,-0.478590887242362,-0.006930686022238,0.5,0.0144814416801218,0.819815400086456,7.56333554662647,2.91926880912396,0.5,91.1832393001452
CBC_1109,CBC_1109_MSI_TV_v3_Vset1_Tset3_2024-06-07_15h09.59.248.csv,2,38,3,1,r,0,1,1,tac,B,27,1,3B,1B,0,1,r,2.48224300000038,0,1,1,1,1B,3B,B31,3.27714473299218,0.528339798779876,0.471660201220124,0.492759279159939,0.492759279159939,0.485623414396446,0.53517011847668,0.5,0.485623414396446,0.492759279159939,0.5,0.541412669776377,0.5,0.5,0.485623414396446,0.5,0.527420083617016,0.524268719620891,0.475731280379109,0.53517011847668,0.485623414396446,0.214971459509524,0.745481392636934,0.46482988152332,0.00673140682045788,0.5,0.0144814416801218,0.819815400086456,7.56333554662647,2.91926880912396,0.5,91.1832393001452
CBC_1109,CBC_1109_MSI_TV_v3_Vset1_Tset3_2024-06-07_15h09.59.248.csv,2,39,2,3,b,1,0,0,tac,C,63,1,2C,3C,1,0,b,2.69221479999942,1,0,1,1,2C,3C,C23,2.60268968544438,0.528339798779876,0.471660201220124,0.492759279159939,0.492759279159939,0.485623414396446,0.541901525297138,0.5,0.485623414396446,0.492759279159939,0.5,0.541412669776377,0.5,0.5,0.485623414396446,0.5,0.527420083617016,0.519882929686879,0.480117070313121,0.541412669776377,0.5,0.177508211345819,0.706153306562214,0.458587330223623,0.00664100567787614,0.5,0.0144814416801218,0.819815400086456,7.56333554662647,2.91926880912396,0.5,91.1832393001452
CBC_1109,CBC_1109_MSI_TV_v3_Vset1_Tset3_2024-06-07_15h09.59.248.csv,2,40,2,3,r,0,1,3,tac,D,63,1,2D,3D,0,1,b,1.60396250000122,1,0,0,0,2D,3D,D23,2.62103882411258,0.528339798779876,0.471660201220124,0.492759279159939,0.492759279159939,0.485623414396446,0.541901525297138,0.5,0.485623414396446,0.492759279159939,0.5,0.548053675454253,0.5,0.5,0.485623414396446,0.5,0.527420083617016,0.486655855742821,0.513344144257179,0.5,0.527420083617016,0.158036180935189,0.356907499827741,-0.5,-0.00724072084006089,0.5,0.0144814416801218,0.819815400086456,7.56333554662647,2.91926880912396,0.5,91.1832393001452
CBC_1109,CBC_1109_MSI_TV_v3_Vset1_Tset3_2024-06-07_15h09.59.248.csv,2,41,1,0,b,1,0,1,tac,B,63,1,1B,0B,1,0,r,2.3702925000016,0,1,0,0,0B,1B,B10,2.63905732961526,0.528339798779876,0.471660201220124,0.492759279159939,0.492759279159939,0.485623414396446,0.541901525297138,0.5,0.485623414396446,0.492759279159939,0.5,0.548053675454253,0.5,0.5,0.485623414396446,0.492759279159939,0.527420083617016,0.472614722657012,0.527385277342988,0.485623414396446,0.541901525297138,0.0717675242099295,0.230167398359557,-0.485623414396446,-0.00703252715408374,0.5,0.0144814416801218,0.819815400086456,7.56333554662647,2.91926880912396,0.5,91.1832393001452
CBC_1109,CBC_1109_MSI_TV_v3_Vset1_Tset3_2024-06-07_15h09.59.248.csv,2,42,0,2,b,1,0,2,tac,A,27,1,0A,2A,1,0,b,4.15937750000012,1,0,1,1,0A,2A,A02,3.3499040872746,0.528339798779876,0.471660201220124,0.492759279159939,0.492759279159939,0.478590887242362,0.541901525297138,0.5,0.485623414396446,0.492759279159939,0.5,0.548053675454253,0.5,0.5,0.485623414396446,0.492759279159939,0.527420083617016,0.517422657795228,0.482577342204772,0.528339798779876,0.492759279159939,0.0697320869193958,0.683313726207844,0.471660201220124,0.00683031969680373,0.5,0.0144814416801218,0.819815400086456,7.56333554662647,2.91926880912396,0.5,91.1832393001452
CBC_1109,CBC_1109_MSI_TV_v3_Vset1_Tset3_2024-06-07_15h09.59.248.csv,2,43,0,3,r,0,1,3,tac,D,9,1,0D,3D,0,1,r,1.99539700000059,0,1,1,1,3D,0D,D03,4.06044301054642,0.53517011847668,0.471660201220124,0.492759279159939,0.492759279159939,0.478590887242362,0.541901525297138,0.5,0.485623414396446,0.492759279159939,0.5,0.548053675454253,0.5,0.5,0.485623414396446,0.492759279159939,0.527420083617016,0.513344144257179,0.486655855742821,0.527420083617016,0.5,0.241489651292038,0.643240744392818,0.472579916382984,0.00684363849829701,0.5,0.0144814416801218,0.819815400086456,7.56333554662647,2.91926880912396,0.5,91.1832393001452
CBC_1109,CBC_1109_MSI_TV_v3_Vset1_Tset3_2024-06-07_15h09.59.248.csv,2,44,2,3,b,1,0,0,tac,C,63,1,2C,3C,1,0,b,1.57177389999924,1,0,1,1,2C,3C,C23,2.46809953147162,0.53517011847668,0.471660201220124,0.492759279159939,0.492759279159939,0.478590887242362,0.541901525297138,0.5,0.485623414396446,0.492759279159939,0.5,0.548053675454253,0.5,0.5,0.485623414396446,0.492759279159939,0.534263722115313,0.522925197716341,0.477074802283659,0.548053675454253,0.5,0.343947930699652,0.734244548401685,0.451946324545747,0.00654483434145462,0.5,0.0144814416801218,0.819815400086456,7.56333554662647,2.91926880912396,0.5,91.1832393001452
