ID,filename,session,trial,visStimLeft,visStimRight,correctKey,leftCorrect,rightCorrect,secondStim,mod2Type,mod2Stim,frequency,rewardAccurate,stimPairLeft,stimPairRight,pCorrectLeft,pCorrectRight,key,reactionTime,choiceLeft,choiceRight,choiceAccurate,reward,chosenPair,otherPair,triplet,surprise,0A belief,1A belief,2A belief,3A belief,0B belief,1B belief,2B belief,3B belief,0C belief,1C belief,2C belief,3C belief,0D belief,1D belief,2D belief,3D belief,beliefPairNorm,beliefOtherPairNorm,beliefPair,beliefOtherPair,lik,corrLik,rewardPE,update2,fitCBCsimpleRW_CBCdriftDiffusionLR_pwBelief_startBelief,fitCBCsimpleRW_CBCdriftDiffusionLR_pwBelief_alpha1,fitCBCsimpleRW_CBCdriftDiffusionLR_pwBelief_nonDecisionTime,fitCBCsimpleRW_CBCdriftDiffusionLR_pwBelief_weight,fitCBCsimpleRW_CBCdriftDiffusionLR_pwBelief_startingBoundary,fitCBCsimpleRW_CBCdriftDiffusionLR_pwBelief_startingPoint,fit_CBCsimpleRW_CBCdriftDiffusionLR_pwBelief_NLL
CBC_1109,CBC_1109_MSI_AV_v3_Vset3_Aset2_2024-06-07_14h04.19.059.csv,1,1,1,0,r,0,1,2,aud,A,63,1,1A,0A,0,1,r,1.38629750000018,0,1,1,1,0A,1A,A10,2.77258872223978,0.5,0.5,0.5,0.5,0.5,0.5,0.5,0.5,0.5,0.5,0.5,0.5,0.5,0.5,0.5,0.5,0.5,0.5,0.5,0.5,0.219977337182958,0.499555168720628,0.5,0.191920841865143,0.5,0.383841683730286,1.09145965362558,0.511416901902502,2.49987152868258,0.5,73.6468810073656
CBC_1109,CBC_1109_MSI_AV_v3_Vset3_Aset2_2024-06-07_14h04.19.059.csv,1,2,3,2,b,1,0,3,aud,D,63,1,3D,2D,NaN,NaN,[],NaN,NaN,NaN,NaN,NaN,,,D32,2.83321334405622,0.691920841865143,0.5,0.5,0.5,0.5,0.5,0.5,0.5,0.5,0.5,0.5,0.5,0.5,0.5,0.5,0.5,0,0,0,0,NaN,0,0,0,0.5,0.383841683730286,1.09145965362558,0.511416901902502,2.49987152868258,0.5,73.6468810073656
CBC_1109,CBC_1109_MSI_AV_v3_Vset3_Aset2_2024-06-07_14h04.19.059.csv,1,3,2,0,b,1,0,0,aud,C,27,1,2C,0C,1,0,b,2.40168790000007,1,0,1,1,2C,0C,C20,2.89037175789616,0.691920841865143,0.5,0.5,0.5,0.5,0.5,0.5,0.5,0.5,0.5,0.5,0.5,0.5,0.5,0.5,0.5,0.5,0.5,0.5,0.5,0.178580906662863,0.500209825962563,0.5,0.191920841865143,0.5,0.383841683730286,1.09145965362558,0.511416901902502,2.49987152868258,0.5,73.6468810073656
CBC_1109,CBC_1109_MSI_AV_v3_Vset3_Aset2_2024-06-07_14h04.19.059.csv,1,4,1,0,r,0,1,2,aud,A,63,1,1A,0A,0,1,b,1.63377080000009,1,0,0,0,1A,0A,A10,2.2512917986065,0.691920841865143,0.5,0.5,0.5,0.5,0.5,0.5,0.5,0.5,0.5,0.691920841865143,0.5,0.5,0.5,0.5,0.5,0.308079158134857,0.691920841865143,0.5,0.691920841865143,0.228631452483198,0.379122217860334,-0.5,-0.191920841865143,0.5,0.383841683730286,1.09145965362558,0.511416901902502,2.49987152868258,0.5,73.6468810073656
CBC_1109,CBC_1109_MSI_AV_v3_Vset3_Aset2_2024-06-07_14h04.19.059.csv,1,5,3,1,r,0,1,1,aud,B,27,1,3B,1B,0,1,r,2.23418310000034,0,1,1,1,1B,3B,B31,2.99573227355399,0.691920841865143,0.308079158134857,0.5,0.5,0.5,0.5,0.5,0.5,0.5,0.5,0.691920841865143,0.5,0.5,0.5,0.5,0.5,0.5,0.5,0.5,0.5,0.203287532434272,0.499583308053069,0.5,0.191920841865143,0.5,0.383841683730286,1.09145965362558,0.511416901902502,2.49987152868258,0.5,73.6468810073656
CBC_1109,CBC_1109_MSI_AV_v3_Vset3_Aset2_2024-06-07_14h04.19.059.csv,1,6,2,3,b,1,0,0,aud,C,63,1,2C,3C,1,0,r,2.40137660000073,0,1,0,0,3C,2C,C23,3.04452243772342,0.691920841865143,0.308079158134857,0.5,0.5,0.5,0.691920841865143,0.5,0.5,0.5,0.5,0.691920841865143,0.5,0.5,0.5,0.5,0.5,0.308079158134857,0.691920841865143,0.5,0.691920841865143,0.136194313617188,0.379651159118637,-0.5,-0.191920841865143,0.5,0.383841683730286,1.09145965362558,0.511416901902502,2.49987152868258,0.5,73.6468810073656
CBC_1109,CBC_1109_MSI_AV_v3_Vset3_Aset2_2024-06-07_14h04.19.059.csv,1,7,2,3,r,0,1,3,aud,D,63,1,2D,3D,0,1,r,2.38133230000039,0,1,1,1,3D,2D,D23,3.09104245335832,0.691920841865143,0.308079158134857,0.5,0.5,0.5,0.691920841865143,0.5,0.5,0.5,0.5,0.691920841865143,0.308079158134857,0.5,0.5,0.5,0.5,0.5,0.5,0.5,0.5,0.181570165193912,0.500525714003434,0.5,0.191920841865143,0.5,0.383841683730286,1.09145965362558,0.511416901902502,2.49987152868258,0.5,73.6468810073656
CBC_1109,CBC_1109_MSI_AV_v3_Vset3_Aset2_2024-06-07_14h04.19.059.csv,1,8,1,0,b,1,0,1,aud,B,63,1,1B,0B,1,0,b,3.28032960000019,1,0,1,1,1B,0B,B10,3.13549421592915,0.691920841865143,0.308079158134857,0.5,0.5,0.5,0.691920841865143,0.5,0.5,0.5,0.5,0.691920841865143,0.308079158134857,0.5,0.5,0.5,0.691920841865143,0.691920841865143,0.308079158134857,0.691920841865143,0.5,0.109427092217595,0.620640098063779,0.308079158134857,0.118253622780693,0.5,0.383841683730286,1.09145965362558,0.511416901902502,2.49987152868258,0.5,73.6468810073656
CBC_1109,CBC_1109_MSI_AV_v3_Vset3_Aset2_2024-06-07_14h04.19.059.csv,1,9,0,2,b,1,0,2,aud,A,27,1,0A,2A,1,0,b,2.46626540000034,1,0,1,1,0A,2A,A02,3.17805383034795,0.691920841865143,0.308079158134857,0.5,0.5,0.5,0.810174464645836,0.5,0.5,0.5,0.5,0.691920841865143,0.308079158134857,0.5,0.5,0.5,0.691920841865143,0.691920841865143,0.308079158134857,0.691920841865143,0.5,0.21130723343761,0.62061043678999,0.308079158134857,0.118253622780693,0.5,0.383841683730286,1.09145965362558,0.511416901902502,2.49987152868258,0.5,73.6468810073656
CBC_1109,CBC_1109_MSI_AV_v3_Vset3_Aset2_2024-06-07_14h04.19.059.csv,1,10,0,3,r,0,1,3,aud,D,9,1,0D,3D,0,1,r,1.52652920000037,0,1,1,1,3D,0D,D03,3.2188758248682,0.810174464645836,0.308079158134857,0.5,0.5,0.5,0.810174464645836,0.5,0.5,0.5,0.5,0.691920841865143,0.308079158134857,0.5,0.5,0.5,0.691920841865143,0.691920841865143,0.308079158134857,0.691920841865143,0.5,0.366083520270227,0.620836130373091,0.308079158134857,0.118253622780693,0.5,0.383841683730286,1.09145965362558,0.511416901902502,2.49987152868258,0.5,73.6468810073656
CBC_1109,CBC_1109_MSI_AV_v3_Vset3_Aset2_2024-06-07_14h04.19.059.csv,1,11,3,2,r,0,1,0,aud,C,63,1,3C,2C,0,1,b,2.86105750000024,1,0,0,0,3C,2C,C32,3.25809653802148,0.810174464645836,0.308079158134857,0.5,0.5,0.5,0.810174464645836,0.5,0.5,0.5,0.5,0.691920841865143,0.308079158134857,0.5,0.5,0.5,0.810174464645836,0.165449174224316,0.834550825775684,0.308079158134857,0.691920841865143,0.0730988553978752,0.298444422766295,-0.308079158134857,-0.118253622780693,0.5,0.383841683730286,1.09145965362558,0.511416901902502,2.49987152868258,0.5,73.6468810073656
CBC_1109,CBC_1109_MSI_AV_v3_Vset3_Aset2_2024-06-07_14h04.19.059.csv,1,12,1,0,b,1,0,1,aud,B,63,1,1B,0B,1,0,b,1.93071319999945,1,0,1,1,1B,0B,B10,2.60268968544438,0.810174464645836,0.308079158134857,0.5,0.5,0.5,0.810174464645836,0.5,0.5,0.5,0.5,0.691920841865143,0.189825535354164,0.5,0.5,0.5,0.810174464645836,0.810174464645836,0.189825535354164,0.810174464645836,0.5,0.364186426419177,0.689108513598706,0.189825535354164,0.0728629531053454,0.5,0.383841683730286,1.09145965362558,0.511416901902502,2.49987152868258,0.5,73.6468810073656
CBC_1109,CBC_1109_MSI_AV_v3_Vset3_Aset2_2024-06-07_14h04.19.059.csv,1,13,3,2,b,1,0,3,aud,D,63,1,3D,2D,1,0,b,2.65705520000029,1,0,1,1,3D,2D,D32,2.63905732961526,0.810174464645836,0.308079158134857,0.5,0.5,0.5,0.883037417751181,0.5,0.5,0.5,0.5,0.691920841865143,0.189825535354164,0.5,0.5,0.5,0.810174464645836,0.810174464645836,0.189825535354164,0.810174464645836,0.5,0.200412898174461,0.68781150865378,0.189825535354164,0.0728629531053454,0.5,0.383841683730286,1.09145965362558,0.511416901902502,2.49987152868258,0.5,73.6468810073656
CBC_1109,CBC_1109_MSI_AV_v3_Vset3_Aset2_2024-06-07_14h04.19.059.csv,1,14,3,2,r,0,1,0,aud,C,63,1,3C,2C,0,1,r,3.84886490000008,0,1,1,1,2C,3C,C32,2.67414864942653,0.810174464645836,0.308079158134857,0.5,0.5,0.5,0.883037417751181,0.5,0.5,0.5,0.5,0.691920841865143,0.189825535354164,0.5,0.5,0.5,0.883037417751181,0.905531789213495,0.0944682107865051,0.691920841865143,0.189825535354164,0.0754746106114804,0.737893104343407,0.308079158134857,0.118253622780693,0.5,0.383841683730286,1.09145965362558,0.511416901902502,2.49987152868258,0.5,73.6468810073656
CBC_1109,CBC_1109_MSI_AV_v3_Vset3_Aset2_2024-06-07_14h04.19.059.csv,1,15,1,3,b,1,0,1,aud,B,27,1,1B,3B,1,0,b,2.76355479999984,1,0,1,1,1B,3B,B13,3.40119738166216,0.810174464645836,0.308079158134857,0.5,0.5,0.5,0.883037417751181,0.5,0.5,0.5,0.5,0.810174464645836,0.189825535354164,0.5,0.5,0.5,0.883037417751181,0.883037417751181,0.116962582248819,0.883037417751181,0.5,0.192556454284188,0.726535671757708,0.116962582248819,0.0448951145038287,0.5,0.383841683730286,1.09145965362558,0.511416901902502,2.49987152868258,0.5,73.6468810073656
CBC_1109,CBC_1109_MSI_AV_v3_Vset3_Aset2_2024-06-07_14h04.19.059.csv,1,16,3,0,r,0,1,2,aud,A,9,1,3A,0A,0,1,r,1.51078409999991,0,1,1,1,0A,3A,A30,3.43398720448515,0.810174464645836,0.308079158134857,0.5,0.5,0.5,0.92793253225501,0.5,0.5,0.5,0.5,0.810174464645836,0.189825535354164,0.5,0.5,0.5,0.883037417751181,0.810174464645836,0.189825535354164,0.810174464645836,0.5,0.414799473556189,0.688352059542164,0.189825535354164,0.0728629531053454,0.5,0.383841683730286,1.09145965362558,0.511416901902502,2.49987152868258,0.5,73.6468810073656
CBC_1109,CBC_1109_MSI_AV_v3_Vset3_Aset2_2024-06-07_14h04.19.059.csv,1,17,3,2,b,1,0,3,aud,D,63,1,3D,2D,1,0,b,2.87101669999993,1,0,1,1,3D,2D,D32,2.36712361413162,0.883037417751181,0.308079158134857,0.5,0.5,0.5,0.92793253225501,0.5,0.5,0.5,0.5,0.810174464645836,0.189825535354164,0.5,0.5,0.5,0.883037417751181,0.883037417751181,0.116962582248819,0.883037417751181,0.5,0.175571283560193,0.727148924703774,0.116962582248819,0.0448951145038287,0.5,0.383841683730286,1.09145965362558,0.511416901902502,2.49987152868258,0.5,73.6468810073656
CBC_1109,CBC_1109_MSI_AV_v3_Vset3_Aset2_2024-06-07_14h04.19.059.csv,1,18,2,0,b,1,0,0,aud,C,27,1,2C,0C,1,0,b,3.56027189999986,1,0,1,1,2C,0C,C20,2.80336038090653,0.883037417751181,0.308079158134857,0.5,0.5,0.5,0.92793253225501,0.5,0.5,0.5,0.5,0.810174464645836,0.189825535354164,0.5,0.5,0.5,0.92793253225501,0.810174464645836,0.189825535354164,0.810174464645836,0.5,0.0939033880943457,0.687868353089062,0.189825535354164,0.0728629531053454,0.5,0.383841683730286,1.09145965362558,0.511416901902502,2.49987152868258,0.5,73.6468810073656
CBC_1109,CBC_1109_MSI_AV_v3_Vset3_Aset2_2024-06-07_14h04.19.059.csv,1,19,1,0,r,0,1,2,aud,A,63,1,1A,0A,0,1,r,1.70527979999952,0,1,1,1,0A,1A,A10,2.42774823594805,0.883037417751181,0.308079158134857,0.5,0.5,0.5,0.92793253225501,0.5,0.5,0.5,0.5,0.883037417751181,0.189825535354164,0.5,0.5,0.5,0.92793253225501,0.944308653661351,0.0556913463386487,0.883037417751181,0.308079158134857,0.481375005188477,0.757316026701003,0.116962582248819,0.0448951145038287,0.5,0.383841683730286,1.09145965362558,0.511416901902502,2.49987152868258,0.5,73.6468810073656
CBC_1109,CBC_1109_MSI_AV_v3_Vset3_Aset2_2024-06-07_14h04.19.059.csv,1,20,0,1,r,0,1,1,aud,B,63,0,0B,1B,1,0,r,3.24476360000062,0,1,1,0,1B,0B,B01,3.55534806148941,0.92793253225501,0.308079158134857,0.5,0.5,0.5,0.92793253225501,0.5,0.5,0.5,0.5,0.883037417751181,0.189825535354164,0.5,0.5,0.5,0.92793253225501,0.92793253225501,0.0720674677449901,0.92793253225501,0.5,0.129090244350271,0.749222351710402,-0.92793253225501,-0.356179185568871,0.5,0.383841683730286,1.09145965362558,0.511416901902502,2.49987152868258,0.5,73.6468810073656
CBC_1109,CBC_1109_MSI_AV_v3_Vset3_Aset2_2024-06-07_14h04.19.059.csv,1,21,1,3,r,0,1,3,aud,D,27,1,1D,3D,0,1,r,2.01940520000062,0,1,1,1,3D,1D,D13,3.58351893845611,0.92793253225501,0.308079158134857,0.5,0.5,0.5,0.571753346686139,0.5,0.5,0.5,0.5,0.883037417751181,0.189825535354164,0.5,0.5,0.5,0.92793253225501,0.92793253225501,0.0720674677449901,0.92793253225501,0.5,0.378913976204141,0.749403952606798,0.0720674677449901,0.0276624981614151,0.5,0.383841683730286,1.09145965362558,0.511416901902502,2.49987152868258,0.5,73.6468810073656
CBC_1109,CBC_1109_MSI_AV_v3_Vset3_Aset2_2024-06-07_14h04.19.059.csv,1,22,2,3,b,1,0,0,aud,C,63,1,2C,3C,1,0,b,2.27308050000011,1,0,1,1,2C,3C,C23,2.91777073208428,0.92793253225501,0.308079158134857,0.5,0.5,0.5,0.571753346686139,0.5,0.5,0.5,0.5,0.883037417751181,0.189825535354164,0.5,0.5,0.5,0.955595030416425,0.969899705067514,0.0301002949324858,0.883037417751181,0.189825535354164,0.313677218114277,0.768056983506226,0.116962582248819,0.0448951145038287,0.5,0.383841683730286,1.09145965362558,0.511416901902502,2.49987152868258,0.5,73.6468810073656
CBC_1109,CBC_1109_MSI_AV_v3_Vset3_Aset2_2024-06-07_14h04.19.059.csv,1,23,1,0,b,1,0,1,aud,B,63,1,1B,0B,1,0,b,1.73182940000061,1,0,1,1,1B,0B,B10,2.53897387105828,0.92793253225501,0.308079158134857,0.5,0.5,0.5,0.571753346686139,0.5,0.5,0.5,0.5,0.92793253225501,0.189825535354164,0.5,0.5,0.5,0.955595030416425,0.571753346686139,0.428246653313861,0.571753346686139,0.5,0.314089801239235,0.545348584958914,0.428246653313861,0.164378916459853,0.5,0.383841683730286,1.09145965362558,0.511416901902502,2.49987152868258,0.5,73.6468810073656
CBC_1109,CBC_1109_MSI_AV_v3_Vset3_Aset2_2024-06-07_14h04.19.059.csv,1,24,2,0,r,0,1,2,aud,A,27,1,2A,0A,0,1,r,3.11378870000044,0,1,1,1,0A,2A,A20,3.66356164612965,0.92793253225501,0.308079158134857,0.5,0.5,0.5,0.736132263145991,0.5,0.5,0.5,0.5,0.92793253225501,0.189825535354164,0.5,0.5,0.5,0.955595030416425,0.92793253225501,0.0720674677449901,0.92793253225501,0.5,0.145004354521728,0.749583812551892,0.0720674677449901,0.0276624981614151,0.5,0.383841683730286,1.09145965362558,0.511416901902502,2.49987152868258,0.5,73.6468810073656
CBC_1109,CBC_1109_MSI_AV_v3_Vset3_Aset2_2024-06-07_14h04.19.059.csv,1,25,2,3,r,0,1,3,aud,D,63,1,2D,3D,0,1,r,3.21781910000027,0,1,1,1,3D,2D,D23,2.99573227355399,0.955595030416425,0.308079158134857,0.5,0.5,0.5,0.736132263145991,0.5,0.5,0.5,0.5,0.92793253225501,0.189825535354164,0.5,0.5,0.5,0.955595030416425,0.955595030416425,0.044404969583575,0.955595030416425,0.5,0.133290445115303,0.762251845476292,0.044404969583575,0.0170444782909516,0.5,0.383841683730286,1.09145965362558,0.511416901902502,2.49987152868258,0.5,73.6468810073656
CBC_1109,CBC_1109_MSI_AV_v3_Vset3_Aset2_2024-06-07_14h04.19.059.csv,1,26,2,0,b,1,0,0,aud,C,27,1,2C,0C,1,0,b,4.44489320000048,1,0,1,1,2C,0C,C20,2.6149597780362,0.955595030416425,0.308079158134857,0.5,0.5,0.5,0.736132263145991,0.5,0.5,0.5,0.5,0.92793253225501,0.189825535354164,0.5,0.5,0.5,0.972639508707377,0.92793253225501,0.0720674677449901,0.92793253225501,0.5,0.0445836571025097,0.75016912234308,0.0720674677449901,0.0276624981614151,0.5,0.383841683730286,1.09145965362558,0.511416901902502,2.49987152868258,0.5,73.6468810073656
CBC_1109,CBC_1109_MSI_AV_v3_Vset3_Aset2_2024-06-07_14h04.19.059.csv,1,27,1,0,b,1,0,1,aud,B,63,1,1B,0B,1,0,b,3.30145850000008,1,0,1,1,1B,0B,B10,2.35137525716348,0.955595030416425,0.308079158134857,0.5,0.5,0.5,0.736132263145991,0.5,0.5,0.5,0.5,0.955595030416425,0.189825535354164,0.5,0.5,0.5,0.972639508707377,0.736132263145991,0.263867736854009,0.736132263145991,0.5,0.11132543665668,0.646638301902243,0.263867736854009,0.101283436396143,0.5,0.383841683730286,1.09145965362558,0.511416901902502,2.49987152868258,0.5,73.6468810073656
CBC_1109,CBC_1109_MSI_AV_v3_Vset3_Aset2_2024-06-07_14h04.19.059.csv,1,28,0,1,b,1,0,2,aud,A,63,1,0A,1A,1,0,b,1.69316400000025,1,0,1,1,0A,1A,A01,3.76120011569356,0.955595030416425,0.308079158134857,0.5,0.5,0.5,0.837415699542134,0.5,0.5,0.5,0.5,0.955595030416425,0.189825535354164,0.5,0.5,0.5,0.972639508707377,0.979729256520616,0.0202707434793836,0.955595030416425,0.308079158134857,0.501858322896533,0.774099493314878,0.044404969583575,0.0170444782909516,0.5,0.383841683730286,1.09145965362558,0.511416901902502,2.49987152868258,0.5,73.6468810073656
CBC_1109,CBC_1109_MSI_AV_v3_Vset3_Aset2_2024-06-07_14h04.19.059.csv,1,29,3,2,r,0,1,0,aud,C,63,1,3C,2C,0,1,b,3.35948530000042,1,0,0,0,3C,2C,C32,2.68557734525015,0.972639508707377,0.308079158134857,0.5,0.5,0.5,0.837415699542134,0.5,0.5,0.5,0.5,0.955595030416425,0.189825535354164,0.5,0.5,0.5,0.972639508707377,0.0107703766230784,0.989229623376922,0.189825535354164,0.955595030416425,0.0337823543770156,0.222593365354447,-0.189825535354164,-0.0728629531053454,0.5,0.383841683730286,1.09145965362558,0.511416901902502,2.49987152868258,0.5,73.6468810073656
CBC_1109,CBC_1109_MSI_AV_v3_Vset3_Aset2_2024-06-07_14h04.19.059.csv,1,30,3,1,b,1,0,3,aud,D,27,1,3D,1D,1,0,r,2.35146950000035,0,1,0,0,1D,3D,D31,3.80666248977032,0.972639508707377,0.308079158134857,0.5,0.5,0.5,0.837415699542134,0.5,0.5,0.5,0.5,0.955595030416425,0.116962582248819,0.5,0.5,0.5,0.972639508707377,0.0273604912926234,0.972639508707377,0.5,0.972639508707377,0.0876487985750928,0.230163762076885,-0.5,-0.191920841865143,0.5,0.383841683730286,1.09145965362558,0.511416901902502,2.49987152868258,0.5,73.6468810073656
CBC_1109,CBC_1109_MSI_AV_v3_Vset3_Aset2_2024-06-07_14h04.19.059.csv,1,31,1,0,r,0,1,2,aud,A,63,1,1A,0A,0,1,r,1.69104380000044,0,1,1,1,0A,1A,A10,2.4423470353692,0.972639508707377,0.308079158134857,0.5,0.5,0.5,0.837415699542134,0.5,0.5,0.5,0.5,0.955595030416425,0.116962582248819,0.5,0.308079158134857,0.5,0.972639508707377,0.987629930659131,0.0123700693408689,0.972639508707377,0.308079158134857,0.506078990575818,0.777483332694828,0.0273604912926234,0.0105020970454484,0.5,0.383841683730286,1.09145965362558,0.511416901902502,2.49987152868258,0.5,73.6468810073656
CBC_1109,CBC_1109_MSI_AV_v3_Vset3_Aset2_2024-06-07_14h04.19.059.csv,1,32,3,2,b,1,0,3,aud,D,63,1,3D,2D,1,0,b,2.50266240000019,1,0,1,1,3D,2D,D32,2.46385324059017,0.983141605752825,0.308079158134857,0.5,0.5,0.5,0.837415699542134,0.5,0.5,0.5,0.5,0.955595030416425,0.116962582248819,0.5,0.308079158134857,0.5,0.972639508707377,0.972639508707377,0.0273604912926234,0.972639508707377,0.5,0.256107967883908,0.770814074003899,0.0273604912926234,0.0105020970454484,0.5,0.383841683730286,1.09145965362558,0.511416901902502,2.49987152868258,0.5,73.6468810073656
CBC_1109,CBC_1109_MSI_AV_v3_Vset3_Aset2_2024-06-07_14h04.19.059.csv,1,33,2,1,r,0,1,1,aud,B,9,1,2B,1B,0,1,b,1.71055680000063,1,0,0,0,2B,1B,B21,3.87120101090789,0.983141605752825,0.308079158134857,0.5,0.5,0.5,0.837415699542134,0.5,0.5,0.5,0.5,0.955595030416425,0.116962582248819,0.5,0.308079158134857,0.5,0.983141605752825,0.162584300457866,0.837415699542134,0.5,0.837415699542134,0.181576437430993,0.297009326341262,-0.5,-0.191920841865143,0.5,0.383841683730286,1.09145965362558,0.511416901902502,2.49987152868258,0.5,73.6468810073656
CBC_1109,CBC_1109_MSI_AV_v3_Vset3_Aset2_2024-06-07_14h04.19.059.csv,1,34,1,0,r,0,1,2,aud,A,63,1,1A,0A,0,1,r,1.55253530000027,0,1,1,1,0A,1A,A10,2.28238238567653,0.983141605752825,0.308079158134857,0.5,0.5,0.5,0.837415699542134,0.308079158134857,0.5,0.5,0.5,0.955595030416425,0.116962582248819,0.5,0.308079158134857,0.5,0.983141605752825,0.992422903552248,0.00757709644775162,0.983141605752825,0.308079158134857,0.517459866925386,0.778406882665753,0.0168583942471749,0.00647095443282461,0.5,0.383841683730286,1.09145965362558,0.511416901902502,2.49987152868258,0.5,73.6468810073656
CBC_1109,CBC_1109_MSI_AV_v3_Vset3_Aset2_2024-06-07_14h04.19.059.csv,1,35,2,1,b,1,0,0,aud,C,9,1,2C,1C,1,0,b,3.17948379999962,1,0,1,1,2C,1C,C21,3.91202300542815,0.98961256018565,0.308079158134857,0.5,0.5,0.5,0.837415699542134,0.308079158134857,0.5,0.5,0.5,0.955595030416425,0.116962582248819,0.5,0.308079158134857,0.5,0.983141605752825,0.955595030416425,0.044404969583575,0.955595030416425,0.5,0.137896347524859,0.761500006539692,0.044404969583575,0.0170444782909516,0.5,0.383841683730286,1.09145965362558,0.511416901902502,2.49987152868258,0.5,73.6468810073656
CBC_1109,CBC_1109_MSI_AV_v3_Vset3_Aset2_2024-06-07_14h04.19.059.csv,1,36,1,0,b,1,0,1,aud,B,63,1,1B,0B,1,0,b,1.45355740000014,1,0,1,1,1B,0B,B10,2.32238772029023,0.98961256018565,0.308079158134857,0.5,0.5,0.5,0.837415699542134,0.308079158134857,0.5,0.5,0.5,0.972639508707377,0.116962582248819,0.5,0.308079158134857,0.5,0.983141605752825,0.837415699542134,0.162584300457866,0.837415699542134,0.5,0.399008172420291,0.703626826249953,0.162584300457866,0.062406631635858,0.5,0.383841683730286,1.09145965362558,0.511416901902502,2.49987152868258,0.5,73.6468810073656
CBC_1109,CBC_1109_MSI_AV_v3_Vset3_Aset2_2024-06-07_14h04.19.059.csv,1,37,0,1,b,1,0,2,aud,A,63,0,0A,1A,0,1,b,2.3899763999998,1,0,1,0,0A,1A,A01,3.25809653802148,0.98961256018565,0.308079158134857,0.5,0.5,0.5,0.899822331177992,0.308079158134857,0.5,0.5,0.5,0.972639508707377,0.116962582248819,0.5,0.308079158134857,0.5,0.983141605752825,0.995348165573085,0.00465183442691541,0.98961256018565,0.308079158134857,0.287157538016544,0.779863951966435,-0.98961256018565,-0.379854551342299,0.5,0.383841683730286,1.09145965362558,0.511416901902502,2.49987152868258,0.5,73.6468810073656
CBC_1109,CBC_1109_MSI_AV_v3_Vset3_Aset2_2024-06-07_14h04.19.059.csv,1,38,0,1,r,0,1,1,aud,B,63,1,0B,1B,0,1,r,1.71165509999992,0,1,1,1,1B,0B,B01,3.27714473299218,0.609758008843351,0.308079158134857,0.5,0.5,0.5,0.899822331177992,0.308079158134857,0.5,0.5,0.5,0.972639508707377,0.116962582248819,0.5,0.308079158134857,0.5,0.983141605752825,0.899822331177992,0.100177668822008,0.899822331177992,0.5,0.459012584761264,0.735897016398642,0.100177668822008,0.0384523650728145,0.5,0.383841683730286,1.09145965362558,0.511416901902502,2.49987152868258,0.5,73.6468810073656
CBC_1109,CBC_1109_MSI_AV_v3_Vset3_Aset2_2024-06-07_14h04.19.059.csv,1,39,1,3,r,0,1,3,aud,D,27,1,1D,3D,0,1,b,3.83309539999937,1,0,0,0,1D,3D,D13,3.29583686600433,0.609758008843351,0.308079158134857,0.5,0.5,0.5,0.938274696250807,0.308079158134857,0.5,0.5,0.5,0.972639508707377,0.116962582248819,0.5,0.308079158134857,0.5,0.983141605752825,0.00757709644775162,0.992422903552248,0.308079158134857,0.983141605752825,0.0217632676545785,0.221529732382143,-0.308079158134857,-0.118253622780693,0.5,0.383841683730286,1.09145965362558,0.511416901902502,2.49987152868258,0.5,73.6468810073656
CBC_1109,CBC_1109_MSI_AV_v3_Vset3_Aset2_2024-06-07_14h04.19.059.csv,1,40,3,2,r,0,1,0,aud,C,63,1,3C,2C,0,1,r,3.16711120000036,0,1,1,1,2C,3C,C32,2.62103882411258,0.609758008843351,0.308079158134857,0.5,0.5,0.5,0.938274696250807,0.308079158134857,0.5,0.5,0.5,0.972639508707377,0.116962582248819,0.5,0.189825535354164,0.5,0.983141605752825,0.996287857297008,0.00371214270299214,0.972639508707377,0.116962582248819,0.140886869870876,0.780409015011844,0.0273604912926234,0.0105020970454484,0.5,0.383841683730286,1.09145965362558,0.511416901902502,2.49987152868258,0.5,73.6468810073656
CBC_1109,CBC_1109_MSI_AV_v3_Vset3_Aset2_2024-06-07_14h04.19.059.csv,1,41,0,2,b,1,0,2,aud,A,27,1,0A,2A,1,0,b,1.3065088000003,1,0,1,1,0A,2A,A02,3.3322045101752,0.609758008843351,0.308079158134857,0.5,0.5,0.5,0.938274696250807,0.308079158134857,0.5,0.5,0.5,0.983141605752825,0.116962582248819,0.5,0.189825535354164,0.5,0.983141605752825,0.609758008843351,0.390241991156649,0.609758008843351,0.5,0.151654859954147,0.568661880940547,0.390241991156649,0.149791142947828,0.5,0.383841683730286,1.09145965362558,0.511416901902502,2.49987152868258,0.5,73.6468810073656
CBC_1109,CBC_1109_MSI_AV_v3_Vset3_Aset2_2024-06-07_14h04.19.059.csv,1,42,2,3,r,0,1,3,aud,D,63,1,2D,3D,0,1,b,3.73049660000015,1,0,0,0,2D,3D,D23,2.94443897916644,0.759549151791178,0.308079158134857,0.5,0.5,0.5,0.938274696250807,0.308079158134857,0.5,0.5,0.5,0.983141605752825,0.116962582248819,0.5,0.189825535354164,0.5,0.983141605752825,0.0168583942471749,0.983141605752825,0.5,0.983141605752825,0.0244094454745351,0.225037943543137,-0.5,-0.191920841865143,0.5,0.383841683730286,1.09145965362558,0.511416901902502,2.49987152868258,0.5,73.6468810073656
CBC_1109,CBC_1109_MSI_AV_v3_Vset3_Aset2_2024-06-07_14h04.19.059.csv,1,43,1,3,b,1,0,1,aud,B,27,1,1B,3B,1,0,r,1.75335580000046,0,1,0,0,3B,1B,B13,3.36729582998647,0.759549151791178,0.308079158134857,0.5,0.5,0.5,0.938274696250807,0.308079158134857,0.5,0.5,0.5,0.983141605752825,0.116962582248819,0.5,0.189825535354164,0.308079158134857,0.983141605752825,0.0617253037491934,0.938274696250807,0.5,0.938274696250807,0.152076943426011,0.246123778027522,-0.5,-0.191920841865143,0.5,0.383841683730286,1.09145965362558,0.511416901902502,2.49987152868258,0.5,73.6468810073656
CBC_1109,CBC_1109_MSI_AV_v3_Vset3_Aset2_2024-06-07_14h04.19.059.csv,1,44,3,2,r,0,1,0,aud,C,63,1,3C,2C,NaN,NaN,[],NaN,NaN,NaN,NaN,NaN,,,C32,2.46809953147162,0.759549151791178,0.308079158134857,0.5,0.5,0.5,0.938274696250807,0.308079158134857,0.308079158134857,0.5,0.5,0.983141605752825,0.116962582248819,0.5,0.189825535354164,0.308079158134857,0.983141605752825,0,0,0,0,NaN,0,0,0,0.5,0.383841683730286,1.09145965362558,0.511416901902502,2.49987152868258,0.5,73.6468810073656
CBC_1109,CBC_1109_MSI_TV_v3_Vset1_Tset3_2024-06-07_15h09.59.248.csv,2,1,3,1,r,0,1,1,tac,B,27,1,3B,1B,0,1,b,2.46447120000084,1,0,0,0,3B,1B,B31,2.77258872223978,0.5,0.5,0.5,0.5,0.5,0.5,0.5,0.5,0.5,0.5,0.5,0.5,0.5,0.5,0.5,0.5,0.5,0.5,0.5,0.5,0.145760953483211,0.500879627800737,-0.5,-0.0295223369311037,0.5,0.0590446738622075,0.856620782191589,0.935628341947744,2.78810819851238,0.5,91.0981707147863
CBC_1109,CBC_1109_MSI_TV_v3_Vset1_Tset3_2024-06-07_15h09.59.248.csv,2,2,2,3,b,1,0,0,tac,C,63,1,2C,3C,1,0,b,2.63567049999983,1,0,1,1,2C,3C,C23,2.83321334405622,0.5,0.5,0.5,0.5,0.5,0.5,0.5,0.470477663068896,0.5,0.5,0.5,0.5,0.5,0.5,0.5,0.5,0.5,0.5,0.5,0.5,0.130344393008908,0.499078380954024,0.5,0.0295223369311037,0.5,0.0590446738622075,0.856620782191589,0.935628341947744,2.78810819851238,0.5,91.0981707147863
CBC_1109,CBC_1109_MSI_TV_v3_Vset1_Tset3_2024-06-07_15h09.59.248.csv,2,3,2,3,r,0,1,3,tac,D,63,1,2D,3D,0,1,r,1.48756189999949,0,1,1,1,3D,2D,D23,2.89037175789616,0.5,0.5,0.5,0.5,0.5,0.5,0.5,0.470477663068896,0.5,0.5,0.529522336931104,0.5,0.5,0.5,0.5,0.5,0.5,0.5,0.5,0.5,0.237949328401467,0.500147026300618,0.5,0.0295223369311037,0.5,0.0590446738622075,0.856620782191589,0.935628341947744,2.78810819851238,0.5,91.0981707147863
CBC_1109,CBC_1109_MSI_TV_v3_Vset1_Tset3_2024-06-07_15h09.59.248.csv,2,4,1,0,b,1,0,1,tac,B,63,1,1B,0B,1,0,b,2.44850489999953,1,0,1,1,1B,0B,B10,2.94443897916644,0.5,0.5,0.5,0.5,0.5,0.5,0.5,0.470477663068896,0.5,0.5,0.529522336931104,0.5,0.5,0.5,0.5,0.529522336931104,0.5,0.5,0.5,0.5,0.147035315774617,0.500199620914379,0.5,0.0295223369311037,0.5,0.0590446738622075,0.856620782191589,0.935628341947744,2.78810819851238,0.5,91.0981707147863
CBC_1109,CBC_1109_MSI_TV_v3_Vset1_Tset3_2024-06-07_15h09.59.248.csv,2,5,3,0,r,0,1,2,tac,A,9,1,3A,0A,0,1,b,2.65718890000062,1,0,0,0,3A,0A,A30,2.99573227355399,0.5,0.5,0.5,0.5,0.5,0.529522336931104,0.5,0.470477663068896,0.5,0.5,0.529522336931104,0.5,0.5,0.5,0.5,0.529522336931104,0.5,0.5,0.5,0.5,0.128584418497487,0.499092767828118,-0.5,-0.0295223369311037,0.5,0.0590446738622075,0.856620782191589,0.935628341947744,2.78810819851238,0.5,91.0981707147863
CBC_1109,CBC_1109_MSI_TV_v3_Vset1_Tset3_2024-06-07_15h09.59.248.csv,2,6,2,3,r,0,1,3,tac,D,63,1,2D,3D,0,1,r,2.10947039999883,0,1,1,1,3D,2D,D23,2.35137525716348,0.5,0.5,0.5,0.470477663068896,0.5,0.529522336931104,0.5,0.470477663068896,0.5,0.5,0.529522336931104,0.5,0.5,0.5,0.5,0.529522336931104,0.529522336931104,0.470477663068896,0.529522336931104,0.5,0.195852849267914,0.538966954804783,0.470477663068896,0.0277792001753565,0.5,0.0590446738622075,0.856620782191589,0.935628341947744,2.78810819851238,0.5,91.0981707147863
CBC_1109,CBC_1109_MSI_TV_v3_Vset1_Tset3_2024-06-07_15h09.59.248.csv,2,7,2,0,b,1,0,0,tac,C,27,1,2C,0C,1,0,r,2.88620939999964,0,1,0,0,0C,2C,C20,3.09104245335832,0.5,0.5,0.5,0.470477663068896,0.5,0.529522336931104,0.5,0.470477663068896,0.5,0.5,0.529522336931104,0.5,0.5,0.5,0.5,0.55730153710646,0.470477663068896,0.529522336931104,0.5,0.529522336931104,0.102895518997204,0.461840445634043,-0.5,-0.0295223369311037,0.5,0.0590446738622075,0.856620782191589,0.935628341947744,2.78810819851238,0.5,91.0981707147863
CBC_1109,CBC_1109_MSI_TV_v3_Vset1_Tset3_2024-06-07_15h09.59.248.csv,2,8,1,0,r,0,1,2,tac,A,63,1,1A,0A,0,1,b,3.14141319999908,1,0,0,0,1A,0A,A10,3.13549421592915,0.5,0.5,0.5,0.470477663068896,0.5,0.529522336931104,0.5,0.470477663068896,0.470477663068896,0.5,0.529522336931104,0.5,0.5,0.5,0.5,0.55730153710646,0.5,0.5,0.5,0.5,0.0946535728598621,0.499462370592074,-0.5,-0.0295223369311037,0.5,0.0590446738622075,0.856620782191589,0.935628341947744,2.78810819851238,0.5,91.0981707147863
CBC_1109,CBC_1109_MSI_TV_v3_Vset1_Tset3_2024-06-07_15h09.59.248.csv,2,9,0,1,r,0,1,1,tac,B,63,1,0B,1B,0,1,r,3.15994560000036,0,1,1,1,1B,0B,B01,3.17805383034795,0.5,0.470477663068896,0.5,0.470477663068896,0.5,0.529522336931104,0.5,0.470477663068896,0.470477663068896,0.5,0.529522336931104,0.5,0.5,0.5,0.5,0.55730153710646,0.529522336931104,0.470477663068896,0.529522336931104,0.5,0.10084945077492,0.538755179544603,0.470477663068896,0.0277792001753565,0.5,0.0590446738622075,0.856620782191589,0.935628341947744,2.78810819851238,0.5,91.0981707147863
CBC_1109,CBC_1109_MSI_TV_v3_Vset1_Tset3_2024-06-07_15h09.59.248.csv,2,10,3,1,b,1,0,3,tac,D,27,1,3D,1D,1,0,b,1.91827450000164,1,0,1,1,3D,1D,D31,3.2188758248682,0.5,0.470477663068896,0.5,0.470477663068896,0.5,0.55730153710646,0.5,0.470477663068896,0.470477663068896,0.5,0.529522336931104,0.5,0.5,0.5,0.5,0.55730153710646,0.55730153710646,0.44269846289354,0.55730153710646,0.5,0.234504985929322,0.574218702243567,0.44269846289354,0.0261389863608496,0.5,0.0590446738622075,0.856620782191589,0.935628341947744,2.78810819851238,0.5,91.0981707147863
CBC_1109,CBC_1109_MSI_TV_v3_Vset1_Tset3_2024-06-07_15h09.59.248.csv,2,11,2,3,b,1,0,0,tac,C,63,1,2C,3C,1,0,b,2.67188170000009,1,0,1,1,2C,3C,C23,2.56494935746154,0.5,0.470477663068896,0.5,0.470477663068896,0.5,0.55730153710646,0.5,0.470477663068896,0.470477663068896,0.5,0.529522336931104,0.5,0.5,0.5,0.5,0.58344052346731,0.529522336931104,0.470477663068896,0.529522336931104,0.5,0.137253990839895,0.537623865107188,0.470477663068896,0.0277792001753565,0.5,0.0590446738622075,0.856620782191589,0.935628341947744,2.78810819851238,0.5,91.0981707147863
CBC_1109,CBC_1109_MSI_TV_v3_Vset1_Tset3_2024-06-07_15h09.59.248.csv,2,12,0,1,r,0,1,1,tac,B,63,1,0B,1B,0,1,r,3.73165579999841,0,1,1,1,1B,0B,B01,2.60268968544438,0.5,0.470477663068896,0.5,0.470477663068896,0.5,0.55730153710646,0.5,0.470477663068896,0.470477663068896,0.5,0.55730153710646,0.5,0.5,0.5,0.5,0.58344052346731,0.55730153710646,0.44269846289354,0.55730153710646,0.5,0.0744843063889182,0.574822126309419,0.44269846289354,0.0261389863608496,0.5,0.0590446738622075,0.856620782191589,0.935628341947744,2.78810819851238,0.5,91.0981707147863
CBC_1109,CBC_1109_MSI_TV_v3_Vset1_Tset3_2024-06-07_15h09.59.248.csv,2,13,1,0,r,0,1,2,tac,A,63,1,1A,0A,0,1,b,3.29929059999995,1,0,0,0,1A,0A,A10,2.63905732961526,0.5,0.470477663068896,0.5,0.470477663068896,0.5,0.58344052346731,0.5,0.470477663068896,0.470477663068896,0.5,0.55730153710646,0.5,0.5,0.5,0.5,0.58344052346731,0.470477663068896,0.529522336931104,0.470477663068896,0.5,0.0791548806705325,0.462048240017164,-0.470477663068896,-0.0277792001753565,0.5,0.0590446738622075,0.856620782191589,0.935628341947744,2.78810819851238,0.5,91.0981707147863
CBC_1109,CBC_1109_MSI_TV_v3_Vset1_Tset3_2024-06-07_15h09.59.248.csv,2,14,2,1,b,1,0,0,tac,C,9,1,2C,1C,1,0,b,3.21690540000054,1,0,1,1,2C,1C,C21,3.36729582998647,0.5,0.44269846289354,0.5,0.470477663068896,0.5,0.58344052346731,0.5,0.470477663068896,0.470477663068896,0.5,0.55730153710646,0.5,0.5,0.5,0.5,0.58344052346731,0.55730153710646,0.44269846289354,0.55730153710646,0.5,0.103532990744537,0.574543761778639,0.44269846289354,0.0261389863608496,0.5,0.0590446738622075,0.856620782191589,0.935628341947744,2.78810819851238,0.5,91.0981707147863
CBC_1109,CBC_1109_MSI_TV_v3_Vset1_Tset3_2024-06-07_15h09.59.248.csv,2,15,0,1,b,1,0,2,tac,A,63,1,0A,1A,1,0,r,2.52767019999919,0,1,0,0,1A,0A,A01,3.40119738166216,0.5,0.44269846289354,0.5,0.470477663068896,0.5,0.58344052346731,0.5,0.470477663068896,0.470477663068896,0.5,0.58344052346731,0.5,0.5,0.5,0.5,0.58344052346731,0.44269846289354,0.55730153710646,0.44269846289354,0.5,0.119506943852916,0.42673848397526,-0.44269846289354,-0.0261389863608496,0.5,0.0590446738622075,0.856620782191589,0.935628341947744,2.78810819851238,0.5,91.0981707147863
CBC_1109,CBC_1109_MSI_TV_v3_Vset1_Tset3_2024-06-07_15h09.59.248.csv,2,16,1,3,r,0,1,3,tac,D,27,1,1D,3D,0,1,b,2.56316370000059,1,0,0,0,1D,3D,D13,3.43398720448515,0.5,0.41655947653269,0.5,0.470477663068896,0.5,0.58344052346731,0.5,0.470477663068896,0.470477663068896,0.5,0.58344052346731,0.5,0.5,0.5,0.5,0.58344052346731,0.41655947653269,0.58344052346731,0.5,0.58344052346731,0.107767927356738,0.393075683720399,-0.5,-0.0295223369311037,0.5,0.0590446738622075,0.856620782191589,0.935628341947744,2.78810819851238,0.5,91.0981707147863
CBC_1109,CBC_1109_MSI_TV_v3_Vset1_Tset3_2024-06-07_15h09.59.248.csv,2,17,1,0,b,1,0,1,tac,B,63,1,1B,0B,1,0,r,2.46928939999998,0,1,0,0,0B,1B,B10,2.77258872223978,0.5,0.41655947653269,0.5,0.470477663068896,0.5,0.58344052346731,0.5,0.470477663068896,0.470477663068896,0.5,0.58344052346731,0.5,0.5,0.470477663068896,0.5,0.58344052346731,0.41655947653269,0.58344052346731,0.5,0.58344052346731,0.114452844439376,0.392981059451717,-0.5,-0.0295223369311037,0.5,0.0590446738622075,0.856620782191589,0.935628341947744,2.78810819851238,0.5,91.0981707147863
CBC_1109,CBC_1109_MSI_TV_v3_Vset1_Tset3_2024-06-07_15h09.59.248.csv,2,18,3,2,r,0,1,0,tac,C,63,0,3C,2C,1,0,r,4.04157210000085,0,1,1,0,2C,3C,C32,3.49650756146648,0.5,0.41655947653269,0.5,0.470477663068896,0.470477663068896,0.58344052346731,0.5,0.470477663068896,0.470477663068896,0.5,0.58344052346731,0.5,0.5,0.470477663068896,0.5,0.58344052346731,0.58344052346731,0.41655947653269,0.58344052346731,0.5,0.0640244704502104,0.607543219608147,-0.58344052346731,-0.0344490554261229,0.5,0.0590446738622075,0.856620782191589,0.935628341947744,2.78810819851238,0.5,91.0981707147863
CBC_1109,CBC_1109_MSI_TV_v3_Vset1_Tset3_2024-06-07_15h09.59.248.csv,2,19,0,2,b,1,0,2,tac,A,27,1,0A,2A,1,0,b,2.40050510000037,1,0,1,1,0A,2A,A02,3.52636052461616,0.5,0.41655947653269,0.5,0.470477663068896,0.470477663068896,0.58344052346731,0.5,0.470477663068896,0.470477663068896,0.5,0.548991468041187,0.5,0.5,0.470477663068896,0.5,0.58344052346731,0.5,0.5,0.5,0.5,0.151145227309416,0.498876939775221,0.5,0.0295223369311037,0.5,0.0590446738622075,0.856620782191589,0.935628341947744,2.78810819851238,0.5,91.0981707147863
CBC_1109,CBC_1109_MSI_TV_v3_Vset1_Tset3_2024-06-07_15h09.59.248.csv,2,20,2,3,r,0,1,3,tac,D,63,1,2D,3D,NaN,NaN,None,NaN,NaN,NaN,NaN,NaN,,,D23,2.4567357728213,0.529522336931104,0.41655947653269,0.5,0.470477663068896,0.470477663068896,0.58344052346731,0.5,0.470477663068896,0.470477663068896,0.5,0.548991468041187,0.5,0.5,0.470477663068896,0.5,0.58344052346731,0,0,0,0,NaN,0,0,0,0.5,0.0590446738622075,0.856620782191589,0.935628341947744,2.78810819851238,0.5,91.0981707147863
CBC_1109,CBC_1109_MSI_TV_v3_Vset1_Tset3_2024-06-07_15h09.59.248.csv,2,21,1,3,b,1,0,1,tac,B,27,1,1B,3B,1,0,r,2.28769710000051,0,1,0,0,3B,1B,B13,3.58351893845611,0.529522336931104,0.41655947653269,0.5,0.470477663068896,0.470477663068896,0.58344052346731,0.5,0.470477663068896,0.470477663068896,0.5,0.548991468041187,0.5,0.5,0.470477663068896,0.5,0.58344052346731,0.388139351453702,0.611860648546298,0.470477663068896,0.58344052346731,0.117653965923309,0.357995123714226,-0.470477663068896,-0.0277792001753565,0.5,0.0590446738622075,0.856620782191589,0.935628341947744,2.78810819851238,0.5,91.0981707147863
CBC_1109,CBC_1109_MSI_TV_v3_Vset1_Tset3_2024-06-07_15h09.59.248.csv,2,22,2,3,b,1,0,0,tac,C,63,1,2C,3C,1,0,b,1.80327660000148,1,0,1,1,2C,3C,C23,2.51230562397611,0.529522336931104,0.41655947653269,0.5,0.470477663068896,0.470477663068896,0.58344052346731,0.5,0.44269846289354,0.470477663068896,0.5,0.548991468041187,0.5,0.5,0.470477663068896,0.5,0.58344052346731,0.548991468041187,0.451008531958813,0.548991468041187,0.5,0.244998312505967,0.564304761223018,0.451008531958813,0.0266296516785811,0.5,0.0590446738622075,0.856620782191589,0.935628341947744,2.78810819851238,0.5,91.0981707147863
CBC_1109,CBC_1109_MSI_TV_v3_Vset1_Tset3_2024-06-07_15h09.59.248.csv,2,23,1,0,r,0,1,2,tac,A,63,1,1A,0A,0,1,r,3.79003840000041,0,1,1,1,0A,1A,A10,2.53897387105828,0.529522336931104,0.41655947653269,0.5,0.470477663068896,0.470477663068896,0.58344052346731,0.5,0.44269846289354,0.470477663068896,0.5,0.575621119719768,0.5,0.5,0.470477663068896,0.5,0.58344052346731,0.611860648546298,0.388139351453702,0.529522336931104,0.41655947653269,0.0787778884591302,0.641508468919327,0.470477663068896,0.0277792001753565,0.5,0.0590446738622075,0.856620782191589,0.935628341947744,2.78810819851238,0.5,91.0981707147863
CBC_1109,CBC_1109_MSI_TV_v3_Vset1_Tset3_2024-06-07_15h09.59.248.csv,2,24,1,2,b,1,0,1,tac,B,9,1,1B,2B,1,0,b,2.45523290000165,1,0,1,1,1B,2B,B12,3.66356164612965,0.55730153710646,0.41655947653269,0.5,0.470477663068896,0.470477663068896,0.58344052346731,0.5,0.44269846289354,0.470477663068896,0.5,0.575621119719768,0.5,0.5,0.470477663068896,0.5,0.58344052346731,0.58344052346731,0.41655947653269,0.58344052346731,0.5,0.178821102091606,0.608409699988397,0.41655947653269,0.0245956184360846,0.5,0.0590446738622075,0.856620782191589,0.935628341947744,2.78810819851238,0.5,91.0981707147863
CBC_1109,CBC_1109_MSI_TV_v3_Vset1_Tset3_2024-06-07_15h09.59.248.csv,2,25,3,2,r,0,1,0,tac,C,63,1,3C,2C,0,1,r,3.6751615000012,0,1,1,1,2C,3C,C32,2.99573227355399,0.55730153710646,0.41655947653269,0.5,0.470477663068896,0.470477663068896,0.608036141903395,0.5,0.44269846289354,0.470477663068896,0.5,0.575621119719768,0.5,0.5,0.470477663068896,0.5,0.58344052346731,0.575621119719768,0.424378880280232,0.575621119719768,0.5,0.0799627923508048,0.597388820589572,0.424378880280232,0.0250573125801551,0.5,0.0590446738622075,0.856620782191589,0.935628341947744,2.78810819851238,0.5,91.0981707147863
CBC_1109,CBC_1109_MSI_TV_v3_Vset1_Tset3_2024-06-07_15h09.59.248.csv,2,26,3,2,b,1,0,3,tac,D,63,1,3D,2D,1,0,b,1.6533459000002,1,0,1,1,3D,2D,D32,3.71357206670431,0.55730153710646,0.41655947653269,0.5,0.470477663068896,0.470477663068896,0.608036141903395,0.5,0.44269846289354,0.470477663068896,0.5,0.600678432299923,0.5,0.5,0.470477663068896,0.5,0.58344052346731,0.58344052346731,0.41655947653269,0.58344052346731,0.5,0.284749272207043,0.607951100710456,0.41655947653269,0.0245956184360846,0.5,0.0590446738622075,0.856620782191589,0.935628341947744,2.78810819851238,0.5,91.0981707147863
CBC_1109,CBC_1109_MSI_TV_v3_Vset1_Tset3_2024-06-07_15h09.59.248.csv,2,27,1,0,b,1,0,1,tac,B,63,1,1B,0B,1,0,r,4.06915929999923,0,1,0,0,0B,1B,B10,2.63905732961526,0.55730153710646,0.41655947653269,0.5,0.470477663068896,0.470477663068896,0.608036141903395,0.5,0.44269846289354,0.470477663068896,0.5,0.600678432299923,0.5,0.5,0.470477663068896,0.5,0.608036141903395,0.364174373309019,0.635825626690981,0.470477663068896,0.608036141903395,0.0333644645638255,0.330793543176488,-0.470477663068896,-0.0277792001753565,0.5,0.0590446738622075,0.856620782191589,0.935628341947744,2.78810819851238,0.5,91.0981707147863
CBC_1109,CBC_1109_MSI_TV_v3_Vset1_Tset3_2024-06-07_15h09.59.248.csv,2,28,2,0,r,0,1,2,tac,A,27,1,2A,0A,0,1,b,1.28547400000025,1,0,0,0,2A,0A,A20,3.76120011569356,0.55730153710646,0.41655947653269,0.5,0.470477663068896,0.44269846289354,0.608036141903395,0.5,0.44269846289354,0.470477663068896,0.5,0.600678432299923,0.5,0.5,0.470477663068896,0.5,0.608036141903395,0.44269846289354,0.55730153710646,0.5,0.55730153710646,0.176411230685536,0.425605547895698,-0.5,-0.0295223369311037,0.5,0.0590446738622075,0.856620782191589,0.935628341947744,2.78810819851238,0.5,91.0981707147863
CBC_1109,CBC_1109_MSI_TV_v3_Vset1_Tset3_2024-06-07_15h09.59.248.csv,2,29,3,1,b,1,0,3,tac,D,27,1,3D,1D,1,0,r,2.52661609999996,0,1,0,0,1D,3D,D31,3.09104245335832,0.55730153710646,0.41655947653269,0.470477663068896,0.470477663068896,0.44269846289354,0.608036141903395,0.5,0.44269846289354,0.470477663068896,0.5,0.600678432299923,0.5,0.5,0.470477663068896,0.5,0.608036141903395,0.364174373309019,0.635825626690981,0.470477663068896,0.608036141903395,0.0927955867973626,0.329110546462446,-0.470477663068896,-0.0277792001753565,0.5,0.0590446738622075,0.856620782191589,0.935628341947744,2.78810819851238,0.5,91.0981707147863
CBC_1109,CBC_1109_MSI_TV_v3_Vset1_Tset3_2024-06-07_15h09.59.248.csv,2,30,0,1,b,1,0,2,tac,A,63,1,0A,1A,1,0,b,3.17818289999923,1,0,1,1,0A,1A,A01,3.11351530921037,0.55730153710646,0.41655947653269,0.470477663068896,0.470477663068896,0.44269846289354,0.608036141903395,0.5,0.44269846289354,0.470477663068896,0.5,0.600678432299923,0.5,0.5,0.44269846289354,0.5,0.608036141903395,0.638100870243288,0.361899129756712,0.55730153710646,0.41655947653269,0.122806941818309,0.672654363891383,0.44269846289354,0.0261389863608496,0.5,0.0590446738622075,0.856620782191589,0.935628341947744,2.78810819851238,0.5,91.0981707147863
CBC_1109,CBC_1109_MSI_TV_v3_Vset1_Tset3_2024-06-07_15h09.59.248.csv,2,31,0,2,r,0,1,0,tac,C,27,1,0C,2C,0,1,r,4.22359289999986,0,1,1,1,2C,0C,C02,3.8286413964891,0.58344052346731,0.41655947653269,0.470477663068896,0.470477663068896,0.44269846289354,0.608036141903395,0.5,0.44269846289354,0.470477663068896,0.5,0.600678432299923,0.5,0.5,0.44269846289354,0.5,0.608036141903395,0.62867099330656,0.37132900669344,0.600678432299923,0.470477663068896,0.0604442406251991,0.661077041222289,0.399321567700077,0.0235778117309964,0.5,0.0590446738622075,0.856620782191589,0.935628341947744,2.78810819851238,0.5,91.0981707147863
CBC_1109,CBC_1109_MSI_TV_v3_Vset1_Tset3_2024-06-07_15h09.59.248.csv,2,32,3,2,b,1,0,3,tac,D,63,1,3D,2D,1,0,b,3.13100639999902,1,0,1,1,3D,2D,D32,3.15700042115011,0.58344052346731,0.41655947653269,0.470477663068896,0.470477663068896,0.44269846289354,0.608036141903395,0.5,0.44269846289354,0.470477663068896,0.5,0.62425624403092,0.5,0.5,0.44269846289354,0.5,0.608036141903395,0.608036141903395,0.391963858096605,0.608036141903395,0.5,0.120481401313813,0.636086145899327,0.391963858096605,0.0231433781670866,0.5,0.0590446738622075,0.856620782191589,0.935628341947744,2.78810819851238,0.5,91.0981707147863
CBC_1109,CBC_1109_MSI_TV_v3_Vset1_Tset3_2024-06-07_15h09.59.248.csv,2,33,0,1,r,0,1,1,tac,B,63,1,0B,1B,0,1,r,3.41348079999989,0,1,1,1,1B,0B,B01,2.77258872223978,0.58344052346731,0.41655947653269,0.470477663068896,0.470477663068896,0.44269846289354,0.608036141903395,0.5,0.44269846289354,0.470477663068896,0.5,0.62425624403092,0.5,0.5,0.44269846289354,0.5,0.631179520070481,0.661342429362135,0.338657570637865,0.608036141903395,0.44269846289354,0.108156244368801,0.699421246620767,0.391963858096605,0.0231433781670866,0.5,0.0590446738622075,0.856620782191589,0.935628341947744,2.78810819851238,0.5,91.0981707147863
CBC_1109,CBC_1109_MSI_TV_v3_Vset1_Tset3_2024-06-07_15h09.59.248.csv,2,34,1,0,r,0,1,2,tac,A,63,1,1A,0A,0,1,r,3.22820519999914,0,1,1,1,0A,1A,A10,2.50552593699074,0.58344052346731,0.41655947653269,0.470477663068896,0.470477663068896,0.44269846289354,0.631179520070481,0.5,0.44269846289354,0.470477663068896,0.5,0.62425624403092,0.5,0.5,0.44269846289354,0.5,0.631179520070481,0.662359452461195,0.337640547538805,0.58344052346731,0.41655947653269,0.122767372054322,0.6999498024396,0.41655947653269,0.0245956184360846,0.5,0.0590446738622075,0.856620782191589,0.935628341947744,2.78810819851238,0.5,91.0981707147863
CBC_1109,CBC_1109_MSI_TV_v3_Vset1_Tset3_2024-06-07_15h09.59.248.csv,2,35,3,2,b,1,0,3,tac,D,63,0,3D,2D,0,1,b,1.04757389999941,1,0,1,0,3D,2D,D32,2.81341071676004,0.608036141903395,0.41655947653269,0.470477663068896,0.470477663068896,0.44269846289354,0.631179520070481,0.5,0.44269846289354,0.470477663068896,0.5,0.62425624403092,0.5,0.5,0.44269846289354,0.5,0.631179520070481,0.631179520070481,0.368820479929519,0.631179520070481,0.5,0.057703760634732,0.666056802988045,-0.631179520070481,-0.0372677889110662,0.5,0.0590446738622075,0.856620782191589,0.935628341947744,2.78810819851238,0.5,91.0981707147863
CBC_1109,CBC_1109_MSI_TV_v3_Vset1_Tset3_2024-06-07_15h09.59.248.csv,2,36,0,2,r,0,1,0,tac,C,27,1,0C,2C,0,1,r,1.18003719999979,0,1,1,1,2C,0C,C02,3.23867845216438,0.608036141903395,0.41655947653269,0.470477663068896,0.470477663068896,0.44269846289354,0.631179520070481,0.5,0.44269846289354,0.470477663068896,0.5,0.62425624403092,0.5,0.5,0.44269846289354,0.5,0.593911731159415,0.651554766524793,0.348445233475207,0.62425624403092,0.470477663068896,0.219498161736948,0.687618588411386,0.37574375596908,0.0221856675269552,0.5,0.0590446738622075,0.856620782191589,0.935628341947744,2.78810819851238,0.5,91.0981707147863
CBC_1109,CBC_1109_MSI_TV_v3_Vset1_Tset3_2024-06-07_15h09.59.248.csv,2,37,1,0,r,0,1,2,tac,A,63,1,1A,0A,0,1,b,4.10590699999921,1,0,0,0,1A,0A,A10,2.34180580614733,0.608036141903395,0.41655947653269,0.470477663068896,0.470477663068896,0.44269846289354,0.631179520070481,0.5,0.44269846289354,0.470477663068896,0.5,0.646441911557875,0.5,0.5,0.44269846289354,0.5,0.593911731159415,0.315187376395128,0.684812623604872,0.41655947653269,0.608036141903395,0.0261914296493017,0.276655346932818,-0.41655947653269,-0.0245956184360846,0.5,0.0590446738622075,0.856620782191589,0.935628341947744,2.78810819851238,0.5,91.0981707147863
CBC_1109,CBC_1109_MSI_TV_v3_Vset1_Tset3_2024-06-07_15h09.59.248.csv,2,38,3,1,r,0,1,1,tac,B,27,1,3B,1B,0,1,r,2.48224300000038,0,1,1,1,1B,3B,B31,3.27714473299218,0.608036141903395,0.391963858096606,0.470477663068896,0.470477663068896,0.44269846289354,0.631179520070481,0.5,0.44269846289354,0.470477663068896,0.5,0.646441911557875,0.5,0.5,0.44269846289354,0.5,0.593911731159415,0.682979388004718,0.317020611995282,0.631179520070481,0.44269846289354,0.21062037840951,0.721396891773993,0.368820479929519,0.0217768849511413,0.5,0.0590446738622075,0.856620782191589,0.935628341947744,2.78810819851238,0.5,91.0981707147863
CBC_1109,CBC_1109_MSI_TV_v3_Vset1_Tset3_2024-06-07_15h09.59.248.csv,2,39,2,3,b,1,0,0,tac,C,63,1,2C,3C,1,0,b,2.69221479999942,1,0,1,1,2C,3C,C23,2.60268968544438,0.608036141903395,0.391963858096606,0.470477663068896,0.470477663068896,0.44269846289354,0.652956405021622,0.5,0.44269846289354,0.470477663068896,0.5,0.646441911557875,0.5,0.5,0.44269846289354,0.5,0.593911731159415,0.646441911557875,0.353558088442125,0.646441911557875,0.5,0.172395142021885,0.682550975024289,0.353558088442125,0.0208757220234108,0.5,0.0590446738622075,0.856620782191589,0.935628341947744,2.78810819851238,0.5,91.0981707147863
CBC_1109,CBC_1109_MSI_TV_v3_Vset1_Tset3_2024-06-07_15h09.59.248.csv,2,40,2,3,r,0,1,3,tac,D,63,1,2D,3D,0,1,b,1.60396250000122,1,0,0,0,2D,3D,D23,2.62103882411258,0.608036141903395,0.391963858096606,0.470477663068896,0.470477663068896,0.44269846289354,0.652956405021622,0.5,0.44269846289354,0.470477663068896,0.5,0.667317633581286,0.5,0.5,0.44269846289354,0.5,0.593911731159415,0.406088268840585,0.593911731159415,0.5,0.593911731159415,0.18159933927427,0.380217937637542,-0.5,-0.0295223369311037,0.5,0.0590446738622075,0.856620782191589,0.935628341947744,2.78810819851238,0.5,91.0981707147863
CBC_1109,CBC_1109_MSI_TV_v3_Vset1_Tset3_2024-06-07_15h09.59.248.csv,2,41,1,0,b,1,0,1,tac,B,63,1,1B,0B,1,0,r,2.3702925000016,0,1,0,0,0B,1B,B10,2.63905732961526,0.608036141903395,0.391963858096606,0.470477663068896,0.470477663068896,0.44269846289354,0.652956405021622,0.5,0.44269846289354,0.470477663068896,0.5,0.667317633581286,0.5,0.5,0.44269846289354,0.470477663068896,0.593911731159415,0.296863720957176,0.703136279042824,0.44269846289354,0.652956405021622,0.0813584762548273,0.256981337810515,-0.44269846289354,-0.0261389863608496,0.5,0.0590446738622075,0.856620782191589,0.935628341947744,2.78810819851238,0.5,91.0981707147863
CBC_1109,CBC_1109_MSI_TV_v3_Vset1_Tset3_2024-06-07_15h09.59.248.csv,2,42,0,2,b,1,0,2,tac,A,27,1,0A,2A,1,0,b,4.15937750000012,1,0,1,1,0A,2A,A02,3.3499040872746,0.608036141903395,0.391963858096606,0.470477663068896,0.470477663068896,0.41655947653269,0.652956405021622,0.5,0.44269846289354,0.470477663068896,0.5,0.667317633581286,0.5,0.5,0.44269846289354,0.470477663068896,0.593911731159415,0.635825626690981,0.364174373309019,0.608036141903395,0.470477663068896,0.0636254606255199,0.670400770516632,0.391963858096605,0.0231433781670866,0.5,0.0590446738622075,0.856620782191589,0.935628341947744,2.78810819851238,0.5,91.0981707147863
CBC_1109,CBC_1109_MSI_TV_v3_Vset1_Tset3_2024-06-07_15h09.59.248.csv,2,43,0,3,r,0,1,3,tac,D,9,1,0D,3D,0,1,r,1.99539700000059,0,1,1,1,3D,0D,D03,4.06044301054642,0.631179520070481,0.391963858096606,0.470477663068896,0.470477663068896,0.41655947653269,0.652956405021622,0.5,0.44269846289354,0.470477663068896,0.5,0.667317633581286,0.5,0.5,0.44269846289354,0.470477663068896,0.593911731159415,0.593911731159415,0.406088268840585,0.593911731159415,0.5,0.243767600521198,0.619687864829526,0.406088268840585,0.0239773493929608,0.5,0.0590446738622075,0.856620782191589,0.935628341947744,2.78810819851238,0.5,91.0981707147863
CBC_1109,CBC_1109_MSI_TV_v3_Vset1_Tset3_2024-06-07_15h09.59.248.csv,2,44,2,3,b,1,0,0,tac,C,63,1,2C,3C,1,0,b,1.57177389999924,1,0,1,1,2C,3C,C23,2.46809953147162,0.631179520070481,0.391963858096606,0.470477663068896,0.470477663068896,0.41655947653269,0.652956405021622,0.5,0.44269846289354,0.470477663068896,0.5,0.667317633581286,0.5,0.5,0.44269846289354,0.470477663068896,0.617889080552376,0.667317633581286,0.332682366418714,0.667317633581286,0.5,0.352798360735732,0.705028343080725,0.332682366418714,0.0196431218249004,0.5,0.0590446738622075,0.856620782191589,0.935628341947744,2.78810819851238,0.5,91.0981707147863
