ID,session,trialNr,mod2Stim,visStimLeft,visStimRight,correctKey,frequency,rewardAccurate,probFB,stimPairLeft,stimPairRight,leftCorrect,rightCorrect,pCorrectLeft,pCorrectRight,triplet,rt,surprise,0A belief,1A belief,2A belief,3A belief,0B belief,1B belief,2B belief,3B belief,0C belief,1C belief,2C belief,3C belief,0D belief,1D belief,2D belief,3D belief,reactionTime,choice,choiceLeft,choiceRight,chosenPair,otherPair,beliefPair,beliefOtherPair,beliefPairNorm,beliefOtherPairNorm,choiceAccurate,reward,rewardPE,update2,sim_CBCsimpleRW_CBCdriftDiffusionLR_startBelief,sim_CBCsimpleRW_CBCdriftDiffusionLR_alpha1,sim_CBCsimpleRW_CBCdriftDiffusionLR_nonDecisionTime,sim_CBCsimpleRW_CBCdriftDiffusionLR_weight,sim_CBCsimpleRW_CBCdriftDiffusionLR_startingBoundary,sim_CBCsimpleRW_CBCdriftDiffusionLR_startingPoint,lik,corrLik,fitCBCsimpleRW_CBCdriftDiffusionLR_startBelief,fitCBCsimpleRW_CBCdriftDiffusionLR_alpha1,fitCBCsimpleRW_CBCdriftDiffusionLR_nonDecisionTime,fitCBCsimpleRW_CBCdriftDiffusionLR_weight,fitCBCsimpleRW_CBCdriftDiffusionLR_startingBoundary,fitCBCsimpleRW_CBCdriftDiffusionLR_startingPoint,fit_CBCsimpleRW_CBCdriftDiffusionLR_NLL
116,1,1,B,1,0,a,63,1,0.95,1B,0B,1,0,1,0,B10,0.24102252894749,2.77258872223978,0.5,0.5,0.5,0.5,0.5,0.5,0.5,0.5,0.5,0.5,0.5,0.5,0.5,0.5,0.5,0.5,0.465768050532442,1,1,0,1B,0B,0.5,0.5,0.5,0.5,1,1,0.5,0.492440397578567,0.5,0.848814340295035,0.316768050532442,6.77454909286027,1.39430249436617,0.5,1.24375375214352,0.499963007079536,0.5,0.984880795157133,0.354504078953588,6.53993696190579,1.21486800750279,0.5,-17.7773112238097
116,1,2,A,0,1,a,63,1,0.95,0A,1A,1,0,1,0,A01,0.495908435673522,2.83321334405622,0.5,0.5,0.5,0.5,0.5,0.992440397578567,0.5,0.5,0.5,0.5,0.5,0.5,0.5,0.5,0.5,0.5,0.464768050532442,1,1,0,0A,1A,0.5,0.5,0.5,0.5,1,1,0.5,0.492440397578567,0.5,0.848814340295035,0.316768050532442,6.77454909286027,1.39430249436617,0.5,1.24185097091388,0.499944817029735,0.5,0.984880795157133,0.354504078953588,6.53993696190579,1.21486800750279,0.5,-17.7773112238097
116,1,3,C,1,2,l,9,1,0.95,1C,2C,0,1,0,1,C12,0.983864647739565,2.89037175789616,0.992440397578567,0.5,0.5,0.5,0.5,0.992440397578567,0.5,0.5,0.5,0.5,0.5,0.5,0.5,0.5,0.5,0.5,0.655768050532442,0,0,1,2C,1C,0.5,0.5,0.5,0.5,1,1,0.5,0.492440397578567,0.5,0.848814340295035,0.316768050532442,6.77454909286027,1.39430249436617,0.5,0.777003290522708,0.500239976947892,0.5,0.984880795157133,0.354504078953588,6.53993696190579,1.21486800750279,0.5,-17.7773112238097
116,1,4,A,1,0,l,63,1,0.95,1A,0A,0,1,0,1,A10,3.47211903260272,2.94443897916644,0.992440397578567,0.5,0.5,0.5,0.5,0.992440397578567,0.5,0.5,0.5,0.5,0.992440397578567,0.5,0.5,0.5,0.5,0.5,0.401768050532442,0,0,1,0A,1A,0.992440397578567,0.5,0.664978245823932,0.335021754176068,1,1,0.00755960242143339,0.0074453072438931,0.5,0.848814340295035,0.316768050532442,6.77454909286027,1.39430249436617,0.5,1.58098855023537,0.932252626161082,0.5,0.984880795157133,0.354504078953588,6.53993696190579,1.21486800750279,0.5,-17.7773112238097
116,1,5,D,3,1,a,27,1,0.95,3D,1D,1,0,1,0,D31,3.04823115047803,2.99573227355399,0.99988570482246,0.5,0.5,0.5,0.5,0.992440397578567,0.5,0.5,0.5,0.5,0.992440397578567,0.5,0.5,0.5,0.5,0.5,0.832768050532442,1,1,0,3D,1D,0.5,0.5,0.5,0.5,1,1,0.5,0.492440397578567,0.5,0.848814340295035,0.316768050532442,6.77454909286027,1.39430249436617,0.5,0.430150089835978,0.500020751424696,0.5,0.984880795157133,0.354504078953588,6.53993696190579,1.21486800750279,0.5,-17.7773112238097
116,1,6,B,0,1,l,63,1,0.95,0B,1B,0,1,0,1,B01,1.4278783903098,3.04452243772342,0.99988570482246,0.5,0.5,0.5,0.5,0.992440397578567,0.5,0.5,0.5,0.5,0.992440397578567,0.5,0.5,0.5,0.5,0.992440397578567,0.568768050532442,0,0,1,1B,0B,0.992440397578567,0.5,0.664978245823932,0.335021754176068,1,1,0.00755960242143339,0.0074453072438931,0.5,0.848814340295035,0.316768050532442,6.77454909286027,1.39430249436617,0.5,2.31873873242916,0.932147129883998,0.5,0.984880795157133,0.354504078953588,6.53993696190579,1.21486800750279,0.5,-17.7773112238097
116,1,7,C,2,3,a,63,1,0.95,2C,3C,1,0,1,0,C23,3.34053881200331,3.09104245335832,0.99988570482246,0.5,0.5,0.5,0.5,0.99988570482246,0.5,0.5,0.5,0.5,0.992440397578567,0.5,0.5,0.5,0.5,0.992440397578567,0.446768050532442,1,1,0,2C,3C,0.992440397578567,0.5,0.664978245823932,0.335021754176068,1,1,0.00755960242143339,0.0074453072438931,0.5,0.848814340295035,0.316768050532442,6.77454909286027,1.39430249436617,0.5,3.50292189333329,0.932235882747769,0.5,0.984880795157133,0.354504078953588,6.53993696190579,1.21486800750279,0.5,-17.7773112238097
116,1,8,A,2,0,l,27,1,0.95,2A,0A,0,1,0,1,A20,1.84065586546952,3.13549421592915,0.99988570482246,0.5,0.5,0.5,0.5,0.99988570482246,0.5,0.5,0.5,0.5,0.99988570482246,0.5,0.5,0.5,0.5,0.992440397578567,0.643768050532442,0,0,1,0A,2A,0.99988570482246,0.5,0.66664126580286,0.33335873419714,1,1,0.000114295177540247,0.000112567125338464,0.5,0.848814340295035,0.316768050532442,6.77454909286027,1.39430249436617,0.5,1.52784708343038,0.933815610464957,0.5,0.984880795157133,0.354504078953588,6.53993696190579,1.21486800750279,0.5,-17.7773112238097
116,1,9,D,3,2,a,63,1,0.95,3D,2D,1,0,1,0,D32,1.25881909370371,3.17805383034795,0.999998271947798,0.5,0.5,0.5,0.5,0.99988570482246,0.5,0.5,0.5,0.5,0.99988570482246,0.5,0.5,0.5,0.5,0.992440397578567,0.902768050532442,1,1,0,3D,2D,0.992440397578567,0.5,0.664978245823932,0.335021754176068,1,1,0.00755960242143339,0.0074453072438931,0.5,0.848814340295035,0.316768050532442,6.77454909286027,1.39430249436617,0.5,0.352599064588031,0.932102333416782,0.5,0.984880795157133,0.354504078953588,6.53993696190579,1.21486800750279,0.5,-17.7773112238097
116,1,10,B,3,1,l,27,1,0.95,3B,1B,0,1,0,1,B31,1.05211936312046,3.2188758248682,0.999998271947798,0.5,0.5,0.5,0.5,0.99988570482246,0.5,0.5,0.5,0.5,0.99988570482246,0.5,0.5,0.5,0.5,0.99988570482246,0.580768050532442,0,0,1,1B,3B,0.99988570482246,0.5,0.66664126580286,0.33335873419714,1,1,0.000114295177540247,0.000112567125338464,0.5,0.848814340295035,0.316768050532442,6.77454909286027,1.39430249436617,0.5,2.17766333650981,0.93381448162607,0.5,0.984880795157133,0.354504078953588,6.53993696190579,1.21486800750279,0.5,-17.7773112238097
116,1,11,C,3,2,l,63,1,0.95,3C,2C,0,1,0,1,C32,3.23430564673117,3.25809653802148,0.999998271947798,0.5,0.5,0.5,0.5,0.999998271947798,0.5,0.5,0.5,0.5,0.99988570482246,0.5,0.5,0.5,0.5,0.99988570482246,0.504768050532442,0,0,1,2C,3C,0.99988570482246,0.5,0.66664126580286,0.33335873419714,1,1,0.000114295177540247,0.000112567125338464,0.5,0.848814340295035,0.316768050532442,6.77454909286027,1.39430249436617,0.5,3.20558253643453,0.933933154098233,0.5,0.984880795157133,0.354504078953588,6.53993696190579,1.21486800750279,0.5,-17.7773112238097
116,1,12,B,1,3,a,27,1,0.95,1B,3B,1,0,1,0,B13,3.38362485684692,3.29583686600433,0.999998271947798,0.5,0.5,0.5,0.5,0.999998271947798,0.5,0.5,0.5,0.5,0.999998271947798,0.5,0.5,0.5,0.5,0.99988570482246,0.418768050532442,1,1,0,1B,3B,0.999998271947798,0.5,0.666666282654624,0.333333717345376,1,1,1.72805220177707e-06,1.70192542655924e-06,0.5,0.848814340295035,0.316768050532442,6.77454909286027,1.39430249436617,0.5,2.71985816993667,0.933941709803433,0.5,0.984880795157133,0.354504078953588,6.53993696190579,1.21486800750279,0.5,-17.7773112238097
116,1,13,C,3,2,l,63,1,0.95,3C,2C,0,1,0,1,C32,0.927252678838241,2.63905732961526,0.999998271947798,0.5,0.5,0.5,0.5,0.999999973873225,0.5,0.5,0.5,0.5,0.999998271947798,0.5,0.5,0.5,0.5,0.99988570482246,0.500768050532442,0,0,1,2C,3C,0.999998271947798,0.5,0.666666282654624,0.333333717345376,1,1,1.72805220177707e-06,1.70192542655924e-06,0.5,0.848814340295035,0.316768050532442,6.77454909286027,1.39430249436617,0.5,3.25743908847922,0.933831213560051,0.5,0.984880795157133,0.354504078953588,6.53993696190579,1.21486800750279,0.5,-17.7773112238097
116,1,14,D,3,2,a,63,1,0.95,3D,2D,1,0,1,0,D32,0.749041452840018,2.67414864942653,0.999998271947798,0.5,0.5,0.5,0.5,0.999999973873225,0.5,0.5,0.5,0.5,0.999999973873225,0.5,0.5,0.5,0.5,0.99988570482246,1.16776805053244,1,1,0,3D,2D,0.99988570482246,0.5,0.66664126580286,0.33335873419714,1,1,0.000114295177540247,0.000112567125338464,0.5,0.848814340295035,0.316768050532442,6.77454909286027,1.39430249436617,0.5,0.0764284520269443,0.933872860195231,0.5,0.984880795157133,0.354504078953588,6.53993696190579,1.21486800750279,0.5,-17.7773112238097
116,1,15,A,0,3,a,9,1,0.95,0A,3A,1,0,1,0,A03,2.68776520469897,3.40119738166216,0.999998271947798,0.5,0.5,0.5,0.5,0.999999973873225,0.5,0.5,0.5,0.5,0.999999973873225,0.5,0.5,0.5,0.5,0.999998271947798,0.846768050532442,1,1,0,0A,3A,0.999998271947798,0.5,0.666666282654624,0.333333717345376,1,1,1.72805220177707e-06,1.70192542655924e-06,0.5,0.848814340295035,0.316768050532442,6.77454909286027,1.39430249436617,0.5,0.479094616219532,0.933893023181458,0.5,0.984880795157133,0.354504078953588,6.53993696190579,1.21486800750279,0.5,-17.7773112238097
116,1,16,B,0,1,l,63,0,0.95,0B,1B,0,1,1,0,B01,0.747841622087217,2.7408400239252,0.999999973873225,0.5,0.5,0.5,0.5,0.999999973873225,0.5,0.5,0.5,0.5,0.999999973873225,0.5,0.5,0.5,0.5,0.999998271947798,0.583768050532442,0,0,1,1B,0B,0.999999973873225,0.5,0.666666660860717,0.333333339139283,1,0,-0.999999973873225,-0.984880769425374,0.5,0.848814340295035,0.316768050532442,6.77454909286027,1.39430249436617,0.5,2.14224980960293,0.933958603635771,0.5,0.984880795157133,0.354504078953588,6.53993696190579,1.21486800750279,0.5,-17.7773112238097
116,1,17,D,2,3,l,63,1,0.95,2D,3D,0,1,0,1,D23,0.334348017012676,3.46573590279973,0.999999973873225,0.5,0.5,0.5,0.5,0.0151192044478508,0.5,0.5,0.5,0.5,0.999999973873225,0.5,0.5,0.5,0.5,0.999998271947798,0.669768050532441,0,0,1,3D,2D,0.999998271947798,0.5,0.666666282654624,0.333333717345376,1,1,1.72805220177707e-06,1.70192542655924e-06,0.5,0.848814340295035,0.316768050532442,6.77454909286027,1.39430249436617,0.5,1.31749218916248,0.933952365326326,0.5,0.984880795157133,0.354504078953588,6.53993696190579,1.21486800750279,0.5,-17.7773112238097
116,1,18,C,0,2,l,27,1,0.95,0C,2C,0,1,0,1,C02,3.34346092083903,3.49650756146648,0.999999973873225,0.5,0.5,0.5,0.5,0.0151192044478508,0.5,0.5,0.5,0.5,0.999999973873225,0.5,0.5,0.5,0.5,0.999999973873225,0.505768050532442,0,0,1,2C,0C,0.999999973873225,0.5,0.666666660860717,0.333333339139283,1,1,2.61267751877625e-08,2.57317591218152e-08,0.5,0.848814340295035,0.316768050532442,6.77454909286027,1.39430249436617,0.5,3.1926268938646,0.93397921275865,0.5,0.984880795157133,0.354504078953588,6.53993696190579,1.21486800750279,0.5,-17.7773112238097
116,1,19,A,0,1,a,63,1,0.95,0A,1A,1,0,1,0,A01,0.513381357761142,2.83321334405622,0.999999973873225,0.5,0.5,0.5,0.5,0.0151192044478508,0.5,0.5,0.5,0.5,0.999999999604984,0.5,0.5,0.5,0.5,0.999999973873225,0.562768050532441,1,1,0,0A,1A,0.999999973873225,0.5,0.666666660860717,0.333333339139283,1,1,2.61267751877625e-08,2.57317591218152e-08,0.5,0.848814340295035,0.316768050532442,6.77454909286027,1.39430249436617,0.5,2.40326754635622,0.933852478420414,0.5,0.984880795157133,0.354504078953588,6.53993696190579,1.21486800750279,0.5,-17.7773112238097
116,1,20,B,1,0,a,63,1,0.95,1B,0B,1,0,1,0,B10,0.850478820994165,2.86220088092947,0.999999999604984,0.5,0.5,0.5,0.5,0.0151192044478508,0.5,0.5,0.5,0.5,0.999999999604984,0.5,0.5,0.5,0.5,0.999999973873225,0.422768050532442,0,0,1,0B,1B,0.5,0.0151192044478508,0.970649115161496,0.0293508848385042,0,0,-0.5,-0.492440397578567,0.5,0.848814340295035,0.316768050532442,6.77454909286027,1.39430249436617,0.5,10.5118344852883,0.99943561361715,0.5,0.984880795157133,0.354504078953588,6.53993696190579,1.21486800750279,0.5,-17.7773112238097
116,1,21,D,1,3,l,27,1,0.95,1D,3D,0,1,0,1,D13,2.12093034589594,3.58351893845611,0.999999999604984,0.5,0.5,0.5,0.00755960242143339,0.0151192044478508,0.5,0.5,0.5,0.5,0.999999999604984,0.5,0.5,0.5,0.5,0.999999973873225,0.893768050532442,0,0,1,3D,1D,0.999999973873225,0.5,0.666666660860717,0.333333339139283,1,1,2.61267751877625e-08,2.57317591218152e-08,0.5,0.848814340295035,0.316768050532442,6.77454909286027,1.39430249436617,0.5,0.366346077347467,0.933829792296252,0.5,0.984880795157133,0.354504078953588,6.53993696190579,1.21486800750279,0.5,-17.7773112238097
116,1,22,C,3,2,l,63,1,0.95,3C,2C,0,1,0,1,C32,2.22223249091081,2.51230562397611,0.999999999604984,0.5,0.5,0.5,0.00755960242143339,0.0151192044478508,0.5,0.5,0.5,0.5,0.999999999604984,0.5,0.5,0.5,0.5,0.999999999604984,0.461768050532442,0,0,1,2C,3C,0.999999999604984,0.5,0.666666666578885,0.333333333421115,1,1,3.95016019894001e-10,3.8904369177301e-10,0.5,0.848814340295035,0.316768050532442,6.77454909286027,1.39430249436617,0.5,3.59918487912735,0.933930277072996,0.5,0.984880795157133,0.354504078953588,6.53993696190579,1.21486800750279,0.5,-17.7773112238097
116,1,23,A,0,1,a,63,1,0.95,0A,1A,1,0,1,0,A01,0.863289556142585,2.53897387105828,0.999999999604984,0.5,0.5,0.5,0.00755960242143339,0.0151192044478508,0.5,0.5,0.5,0.5,0.999999999994028,0.5,0.5,0.5,0.5,0.999999999604984,1.27976805053244,1,1,0,0A,1A,0.999999999604984,0.5,0.666666666578885,0.333333333421115,1,1,3.95016019894001e-10,3.8904369177301e-10,0.5,0.848814340295035,0.316768050532442,6.77454909286027,1.39430249436617,0.5,0.0401601518111623,0.934032047831342,0.5,0.984880795157133,0.354504078953588,6.53993696190579,1.21486800750279,0.5,-17.7773112238097
116,1,24,D,2,3,l,63,1,0.95,2D,3D,0,1,0,1,D23,0.0478331375062081,2.9704144655697,0.999999999994028,0.5,0.5,0.5,0.00755960242143339,0.0151192044478508,0.5,0.5,0.5,0.5,0.999999999994028,0.5,0.5,0.5,0.5,0.999999999604984,0.746768050532442,0,0,1,3D,2D,0.999999999604984,0.5,0.666666666578885,0.333333333421115,1,1,3.95016019894001e-10,3.8904369177301e-10,0.5,0.848814340295035,0.316768050532442,6.77454909286027,1.39430249436617,0.5,0.848966232137832,0.933808328286835,0.5,0.984880795157133,0.354504078953588,6.53993696190579,1.21486800750279,0.5,-17.7773112238097
116,1,25,C,2,0,a,27,1,0.95,2C,0C,1,0,1,0,C20,0.508829782142363,3.68887945411394,0.999999999994028,0.5,0.5,0.5,0.00755960242143339,0.0151192044478508,0.5,0.5,0.5,0.5,0.999999999994028,0.5,0.5,0.5,0.5,0.999999999994028,0.503768050532442,1,1,0,2C,0C,0.999999999994028,0.5,0.666666666665339,0.333333333334661,1,1,5.97233373866857e-12,5.88203680148367e-12,0.5,0.848814340295035,0.316768050532442,6.77454909286027,1.39430249436617,0.5,3.21775802129355,0.93383037827923,0.5,0.984880795157133,0.354504078953588,6.53993696190579,1.21486800750279,0.5,-17.7773112238097
116,1,26,A,0,1,a,63,1,0.95,0A,1A,1,0,1,0,A01,0.324445903109354,2.32727770558442,0.999999999994028,0.5,0.5,0.5,0.00755960242143339,0.0151192044478508,0.5,0.5,0.5,0.5,0.99999999999991,0.5,0.5,0.5,0.5,0.999999999994028,0.529768050532442,1,1,0,0A,1A,0.999999999994028,0.5,0.666666666665339,0.333333333334661,1,1,5.97233373866857e-12,5.88203680148367e-12,0.5,0.848814340295035,0.316768050532442,6.77454909286027,1.39430249436617,0.5,2.8550507332136,0.933877554912123,0.5,0.984880795157133,0.354504078953588,6.53993696190579,1.21486800750279,0.5,-17.7773112238097
116,1,27,B,1,3,a,27,1,0.95,1B,3B,1,0,1,0,B13,2.06304849838388,3.04452243772342,0.99999999999991,0.5,0.5,0.5,0.00755960242143339,0.0151192044478508,0.5,0.5,0.5,0.5,0.99999999999991,0.5,0.5,0.5,0.5,0.999999999994028,0.398768050532442,0,0,1,3B,1B,0.5,0.0151192044478508,0.970649115161496,0.0293508848385042,0,0,-0.5,-0.492440397578567,0.5,0.848814340295035,0.316768050532442,6.77454909286027,1.39430249436617,0.5,7.32812432928675,0.999435457977331,0.5,0.984880795157133,0.354504078953588,6.53993696190579,1.21486800750279,0.5,-17.7773112238097
116,1,28,C,3,2,l,63,1,0.95,3C,2C,0,1,0,1,C32,3.15468726675607,2.37490575457367,0.99999999999991,0.5,0.5,0.5,0.00755960242143339,0.0151192044478508,0.5,0.00755960242143339,0.5,0.5,0.99999999999991,0.5,0.5,0.5,0.5,0.999999999994028,0.786768050532442,0,0,1,2C,3C,0.99999999999991,0.5,0.666666666666647,0.333333333333353,1,1,9.02611319020252e-14,8.88964553594495e-14,0.5,0.848814340295035,0.316768050532442,6.77454909286027,1.39430249436617,0.5,0.675116391062897,0.933924810504534,0.5,0.984880795157133,0.354504078953588,6.53993696190579,1.21486800750279,0.5,-17.7773112238097
116,1,29,D,3,2,a,63,1,0.95,3D,2D,1,0,1,0,D32,1.59954515676666,2.68557734525015,0.99999999999991,0.5,0.5,0.5,0.00755960242143339,0.0151192044478508,0.5,0.00755960242143339,0.5,0.5,0.999999999999999,0.5,0.5,0.5,0.5,0.999999999994028,0.553768050532442,0,0,1,2D,3D,0.5,0.999999999994028,0.333333333334661,0.666666666665339,0,0,-0.5,-0.492440397578567,0.5,0.848814340295035,0.316768050532442,6.77454909286027,1.39430249436617,0.5,0.178599551333903,0.0661244824058258,0.5,0.984880795157133,0.354504078953588,6.53993696190579,1.21486800750279,0.5,-17.7773112238097
116,1,30,B,0,1,l,63,1,0.95,0B,1B,0,1,0,1,B01,1.34042156870067,2.70805020110221,0.99999999999991,0.5,0.5,0.5,0.00755960242143339,0.0151192044478508,0.5,0.00755960242143339,0.5,0.5,0.999999999999999,0.5,0.5,0.5,0.00755960242143339,0.999999999994028,0.617768050532442,0,0,1,1B,0B,0.0151192044478508,0.00755960242143339,0.666666660860717,0.333333339139283,1,1,0.984880795552149,0.969990181058391,0.5,0.848814340295035,0.316768050532442,6.77454909286027,1.39430249436617,0.5,1.7704605755204,0.933942087212853,0.5,0.984880795157133,0.354504078953588,6.53993696190579,1.21486800750279,0.5,-17.7773112238097
116,1,31,A,2,0,l,27,1,0.95,2A,0A,0,1,0,1,A20,2.06858268580105,3.13549421592915,0.99999999999991,0.5,0.5,0.5,0.00755960242143339,0.985109385506241,0.5,0.00755960242143339,0.5,0.5,0.999999999999999,0.5,0.5,0.5,0.00755960242143339,0.999999999994028,0.407768050532442,0,0,1,0A,2A,0.99999999999991,0.5,0.666666666666647,0.333333333333353,1,1,9.02611319020252e-14,8.88964553594495e-14,0.5,0.848814340295035,0.316768050532442,6.77454909286027,1.39430249436617,0.5,2.04369150440265,0.933833708153057,0.5,0.984880795157133,0.354504078953588,6.53993696190579,1.21486800750279,0.5,-17.7773112238097
116,1,32,D,3,0,a,9,1,0.95,3D,0D,1,0,1,0,D30,1.30271160936775,3.85014760171006,0.999999999999999,0.5,0.5,0.5,0.00755960242143339,0.985109385506241,0.5,0.00755960242143339,0.5,0.5,0.999999999999999,0.5,0.5,0.5,0.00755960242143339,0.999999999994028,0.445768050532442,1,1,0,3D,0D,0.999999999994028,0.5,0.666666666665339,0.333333333334661,1,1,5.97233373866857e-12,5.88203680148367e-12,0.5,0.848814340295035,0.316768050532442,6.77454909286027,1.39430249436617,0.5,3.52461521002751,0.933978303358664,0.5,0.984880795157133,0.354504078953588,6.53993696190579,1.21486800750279,0.5,-17.7773112238097
116,1,33,C,3,2,l,63,1,0.95,3C,2C,0,1,0,1,C32,2.79202394549425,2.26176309847379,0.999999999999999,0.5,0.5,0.5,0.00755960242143339,0.985109385506241,0.5,0.00755960242143339,0.5,0.5,0.999999999999999,0.5,0.5,0.5,0.00755960242143339,0.99999999999991,0.756768050532442,0,0,1,2C,3C,0.999999999999999,0.5,0.666666666666666,0.333333333333334,1,1,1.33226762955019e-15,1.3121248023535e-15,0.5,0.848814340295035,0.316768050532442,6.77454909286027,1.39430249436617,0.5,0.801436045080984,0.933938266750159,0.5,0.984880795157133,0.354504078953588,6.53993696190579,1.21486800750279,0.5,-17.7773112238097
116,1,34,B,0,1,l,63,1,0.95,0B,1B,0,1,0,1,B01,2.54498089791959,2.50552593699074,0.999999999999999,0.5,0.5,0.5,0.00755960242143339,0.985109385506241,0.5,0.00755960242143339,0.5,0.5,1,0.5,0.5,0.5,0.00755960242143339,0.99999999999991,0.399768050532442,0,0,1,1B,0B,0.985109385506241,0.00755960242143339,0.992384568760212,0.00761543123978824,1,1,0.0148906144937585,0.0146654802429912,0.5,0.848814340295035,0.316768050532442,6.77454909286027,1.39430249436617,0.5,8.35570042146407,0.999600208427759,0.5,0.984880795157133,0.354504078953588,6.53993696190579,1.21486800750279,0.5,-17.7773112238097
116,1,35,A,0,1,a,63,0,0.95,0A,1A,1,0,0,1,A01,0.986944981432306,2.30258509299405,0.999999999999999,0.5,0.5,0.5,0.00755960242143339,0.999774865749233,0.5,0.00755960242143339,0.5,0.5,1,0.5,0.5,0.5,0.00755960242143339,0.99999999999991,0.422768050532442,0,0,1,1A,0A,0.5,0.999999999999999,0.333333333333334,0.666666666666666,0,1,0.5,0.492440397578567,0.5,0.848814340295035,0.316768050532442,6.77454909286027,1.39430249436617,0.5,0.206013962360486,0.0660931167540323,0.5,0.984880795157133,0.354504078953588,6.53993696190579,1.21486800750279,0.5,-17.7773112238097
116,1,36,D,2,3,l,63,1,0.95,2D,3D,0,1,0,1,D23,2.8096766361498,2.83321334405622,0.999999999999999,0.992440397578567,0.5,0.5,0.00755960242143339,0.999774865749233,0.5,0.00755960242143339,0.5,0.5,1,0.5,0.5,0.5,0.00755960242143339,0.99999999999991,0.400768050532442,0,0,1,3D,2D,0.99999999999991,0.00755960242143339,0.992497116395629,0.00750288360437073,1,1,9.02611319020252e-14,8.88964553594495e-14,0.5,0.848814340295035,0.316768050532442,6.77454909286027,1.39430249436617,0.5,8.65332988676882,0.999600863812376,0.5,0.984880795157133,0.354504078953588,6.53993696190579,1.21486800750279,0.5,-17.7773112238097
116,1,37,B,1,2,a,9,1,0.95,1B,2B,1,0,1,0,B12,0.558807196904462,3.95124371858143,0.999999999999999,0.992440397578567,0.5,0.5,0.00755960242143339,0.999774865749233,0.5,0.00755960242143339,0.5,0.5,1,0.5,0.5,0.5,0.00755960242143339,0.999999999999999,0.524768050532442,1,1,0,1B,2B,0.999774865749233,0.5,0.666616629323083,0.333383370676917,1,1,0.000225134250767312,0.000221730399912815,0.5,0.848814340295035,0.316768050532442,6.77454909286027,1.39430249436617,0.5,2.92651133874628,0.933940274189856,0.5,0.984880795157133,0.354504078953588,6.53993696190579,1.21486800750279,0.5,-17.7773112238097
116,1,38,A,2,0,l,27,1,0.95,2A,0A,0,1,0,1,A20,0.941704367324604,2.87167962488401,0.999999999999999,0.992440397578567,0.5,0.5,0.00755960242143339,0.999996596149145,0.5,0.00755960242143339,0.5,0.5,1,0.5,0.5,0.5,0.00755960242143339,0.999999999999999,0.562768050532441,0,0,1,0A,2A,0.999999999999999,0.5,0.666666666666666,0.333333333333334,1,1,1.33226762955019e-15,1.3121248023535e-15,0.5,0.848814340295035,0.316768050532442,6.77454909286027,1.39430249436617,0.5,2.4036306389655,0.933926305262733,0.5,0.984880795157133,0.354504078953588,6.53993696190579,1.21486800750279,0.5,-17.7773112238097
116,1,39,C,2,3,a,63,1,0.95,2C,3C,1,0,1,0,C23,0.559195948823266,3.29583686600433,1,0.992440397578567,0.5,0.5,0.00755960242143339,0.999996596149145,0.5,0.00755960242143339,0.5,0.5,1,0.5,0.5,0.5,0.00755960242143339,0.999999999999999,0.733768050532442,1,1,0,2C,3C,1,0.5,0.666666666666667,0.333333333333333,1,1,0,0,0.5,0.848814340295035,0.316768050532442,6.77454909286027,1.39430249436617,0.5,0.914762768305044,0.933683689404678,0.5,0.984880795157133,0.354504078953588,6.53993696190579,1.21486800750279,0.5,-17.7773112238097
116,1,40,D,1,3,l,27,1,0.95,1D,3D,0,1,0,1,D13,3.0098561305995,3.31418600467253,1,0.992440397578567,0.5,0.5,0.00755960242143339,0.999996596149145,0.5,0.00755960242143339,0.5,0.5,1,0.5,0.5,0.5,0.00755960242143339,0.999999999999999,0.588768050532442,0,0,1,3D,1D,0.999999999999999,0.5,0.666666666666666,0.333333333333334,1,1,1.33226762955019e-15,1.3121248023535e-15,0.5,0.848814340295035,0.316768050532442,6.77454909286027,1.39430249436617,0.5,2.08338601608118,0.93389891152313,0.5,0.984880795157133,0.354504078953588,6.53993696190579,1.21486800750279,0.5,-17.7773112238097
116,1,41,A,0,1,a,63,1,0.95,0A,1A,1,0,1,0,A01,2.52390863019903,2.23359222150709,1,0.992440397578567,0.5,0.5,0.00755960242143339,0.999996596149145,0.5,0.00755960242143339,0.5,0.5,1,0.5,0.5,0.5,0.00755960242143339,1,0.459768050532442,1,1,0,0A,1A,1,0.992440397578567,0.501897071157215,0.498102928842785,1,1,0,0,0.5,0.848814340295035,0.316768050532442,6.77454909286027,1.39430249436617,0.5,1.24799592685307,0.507359123092753,0.5,0.984880795157133,0.354504078953588,6.53993696190579,1.21486800750279,0.5,-17.7773112238097
116,1,42,C,0,2,l,27,1,0.95,0C,2C,0,1,0,1,C02,2.11346592724129,3.3499040872746,1,0.992440397578567,0.5,0.5,0.00755960242143339,0.999996596149145,0.5,0.00755960242143339,0.5,0.5,1,0.5,0.5,0.5,0.00755960242143339,1,0.658768050532442,0,0,1,2C,0C,1,0.5,0.666666666666667,0.333333333333333,1,1,0,0,0.5,0.848814340295035,0.316768050532442,6.77454909286027,1.39430249436617,0.5,1.40276315033376,0.933942671437541,0.5,0.984880795157133,0.354504078953588,6.53993696190579,1.21486800750279,0.5,-17.7773112238097
116,1,43,D,3,2,a,63,1,0.95,3D,2D,1,0,1,0,D32,3.49436007197853,2.67414864942653,1,0.992440397578567,0.5,0.5,0.00755960242143339,0.999996596149145,0.5,0.00755960242143339,0.5,0.5,1,0.5,0.5,0.5,0.00755960242143339,1,0.482768050532442,1,1,0,3D,2D,1,0.00755960242143339,0.99249711639563,0.00750288360437006,1,1,0,0,0.5,0.848814340295035,0.316768050532442,6.77454909286027,1.39430249436617,0.5,4.37853868164993,0.999600143682521,0.5,0.984880795157133,0.354504078953588,6.53993696190579,1.21486800750279,0.5,-17.7773112238097
116,1,44,B,1,0,a,63,1,0.95,1B,0B,1,0,1,0,B10,1.22605980697102,2.97892515523761,1,0.992440397578567,0.5,0.5,0.00755960242143339,0.999996596149145,0.5,0.00755960242143339,0.5,0.5,1,0.5,0.5,0.5,0.00755960242143339,1,0.476768050532442,1,1,0,1B,0B,0.999996596149145,0.00755960242143339,0.992497091048462,0.00750290895153859,1,1,3.40385085451089e-06,3.35238733618698e-06,0.5,0.848814340295035,0.316768050532442,6.77454909286027,1.39430249436617,0.5,4.96336348535728,0.999601085566968,0.5,0.984880795157133,0.354504078953588,6.53993696190579,1.21486800750279,0.5,-17.7773112238097
