ID,session,trialNr,mod2Stim,visStimLeft,visStimRight,correctKey,frequency,rewardAccurate,probFB,stimPairLeft,stimPairRight,leftCorrect,rightCorrect,pCorrectLeft,pCorrectRight,triplet,rt,surprise,0A belief,1A belief,2A belief,3A belief,0B belief,1B belief,2B belief,3B belief,0C belief,1C belief,2C belief,3C belief,0D belief,1D belief,2D belief,3D belief,reactionTime,choice,choiceLeft,choiceRight,chosenPair,otherPair,beliefPair,beliefOtherPair,beliefPairNorm,beliefOtherPairNorm,choiceAccurate,reward,rewardPE,update2,sim_CBCsimpleRW_CBCdriftDiffusionLR_startBelief,sim_CBCsimpleRW_CBCdriftDiffusionLR_alpha1,sim_CBCsimpleRW_CBCdriftDiffusionLR_nonDecisionTime,sim_CBCsimpleRW_CBCdriftDiffusionLR_weight,sim_CBCsimpleRW_CBCdriftDiffusionLR_startingBoundary,sim_CBCsimpleRW_CBCdriftDiffusionLR_startingPoint,lik,corrLik,fitCBCsimpleRW_CBCdriftDiffusionLR_startBelief,fitCBCsimpleRW_CBCdriftDiffusionLR_alpha1,fitCBCsimpleRW_CBCdriftDiffusionLR_nonDecisionTime,fitCBCsimpleRW_CBCdriftDiffusionLR_weight,fitCBCsimpleRW_CBCdriftDiffusionLR_startingBoundary,fitCBCsimpleRW_CBCdriftDiffusionLR_startingPoint,fit_CBCsimpleRW_CBCdriftDiffusionLR_NLL
188,1,1,B,1,3,a,27,1,0.91,1B,3B,1,0,1,0,B13,3.25610709910335,2.77258872223978,0.5,0.5,0.5,0.5,0.5,0.5,0.5,0.5,0.5,0.5,0.5,0.5,0.5,0.5,0.5,0.5,2.94545571937526,0,0,1,3B,1B,0.5,0.5,0.5,0.5,0,0,-0.5,-0.285613367722131,0.5,0.565112282241048,0.441455719375257,13.8088141065492,2.30690722139265,0.5,0.0406258786002485,0.499217765761664,0.5,0.571226735444261,0.473682024684112,14.945522847723,2.04552494415381,0.5,-37.8522838650887
188,1,2,C,3,2,l,63,1,0.91,3C,2C,0,1,0,1,C32,1.97079283782247,2.83321334405622,0.5,0.5,0.5,0.5,0.5,0.5,0.5,0.214386632277869,0.5,0.5,0.5,0.5,0.5,0.5,0.5,0.5,0.879455719375257,0,0,1,2C,3C,0.5,0.5,0.5,0.5,1,1,0.5,0.285613367722131,0.5,0.565112282241048,0.441455719375257,13.8088141065492,2.30690722139265,0.5,0.434899469203513,0.499949979431009,0.5,0.571226735444261,0.473682024684112,14.945522847723,2.04552494415381,0.5,-37.8522838650887
188,1,3,D,3,2,a,63,1,0.91,3D,2D,1,0,1,0,D32,1.23112011124014,2.89037175789616,0.5,0.5,0.5,0.5,0.5,0.5,0.5,0.214386632277869,0.5,0.5,0.785613367722131,0.5,0.5,0.5,0.5,0.5,1.73945571937526,0,0,1,2D,3D,0.5,0.5,0.5,0.5,0,0,-0.5,-0.285613367722131,0.5,0.565112282241048,0.441455719375257,13.8088141065492,2.30690722139265,0.5,0.16859107767799,0.499585043402474,0.5,0.571226735444261,0.473682024684112,14.945522847723,2.04552494415381,0.5,-37.8522838650887
188,1,4,B,0,1,l,63,0,0.91,0B,1B,0,1,1,0,B01,3.24033808896253,2.94443897916644,0.5,0.5,0.5,0.5,0.5,0.5,0.5,0.214386632277869,0.5,0.5,0.785613367722131,0.5,0.5,0.5,0.214386632277869,0.5,1.54245571937526,0,0,1,1B,0B,0.5,0.5,0.5,0.5,1,0,-0.5,-0.285613367722131,0.5,0.565112282241048,0.441455719375257,13.8088141065492,2.30690722139265,0.5,0.212810037580971,0.499928944123513,0.5,0.571226735444261,0.473682024684112,14.945522847723,2.04552494415381,0.5,-37.8522838650887
188,1,5,A,0,3,a,9,1,0.91,0A,3A,1,0,1,0,A03,1.95648728264541,2.99573227355399,0.5,0.5,0.5,0.5,0.5,0.214386632277869,0.5,0.214386632277869,0.5,0.5,0.785613367722131,0.5,0.5,0.5,0.214386632277869,0.5,1.36045571937526,0,0,1,3A,0A,0.5,0.5,0.5,0.5,0,0,-0.5,-0.285613367722131,0.5,0.565112282241048,0.441455719375257,13.8088141065492,2.30690722139265,0.5,0.263305193134251,0.499347235531102,0.5,0.571226735444261,0.473682024684112,14.945522847723,2.04552494415381,0.5,-37.8522838650887
188,1,6,D,3,2,a,63,1,0.91,3D,2D,1,0,1,0,D32,0.477430882683106,2.35137525716348,0.5,0.5,0.5,0.214386632277869,0.5,0.214386632277869,0.5,0.214386632277869,0.5,0.5,0.785613367722131,0.5,0.5,0.5,0.214386632277869,0.5,0.581455719375257,1,1,0,3D,2D,0.5,0.214386632277869,0.699901114338767,0.300098885661233,1,1,0.5,0.285613367722131,0.5,0.565112282241048,0.441455719375257,13.8088141065492,2.30690722139265,0.5,5.93187413185804,0.999995103965517,0.5,0.571226735444261,0.473682024684112,14.945522847723,2.04552494415381,0.5,-37.8522838650887
188,1,7,C,0,2,l,27,1,0.91,0C,2C,0,1,0,1,C02,1.97191150214628,3.09104245335832,0.5,0.5,0.5,0.214386632277869,0.5,0.214386632277869,0.5,0.214386632277869,0.5,0.5,0.785613367722131,0.5,0.5,0.5,0.214386632277869,0.785613367722131,0.746455719375257,0,0,1,2C,0C,0.785613367722131,0.5,0.611080584137121,0.388919415862879,1,1,0.214386632277869,0.122463376078977,0.5,0.565112282241048,0.441455719375257,13.8088141065492,2.30690722139265,0.5,2.79292207447497,0.998877760744144,0.5,0.571226735444261,0.473682024684112,14.945522847723,2.04552494415381,0.5,-37.8522838650887
188,1,8,A,0,1,a,63,1,0.91,0A,1A,1,0,1,0,A01,3.44981411907497,3.13549421592915,0.5,0.5,0.5,0.214386632277869,0.5,0.214386632277869,0.5,0.214386632277869,0.5,0.5,0.908076743801107,0.5,0.5,0.5,0.214386632277869,0.785613367722131,1.60945571937526,0,0,1,1A,0A,0.5,0.5,0.5,0.5,0,0,-0.5,-0.285613367722131,0.5,0.565112282241048,0.441455719375257,13.8088141065492,2.30690722139265,0.5,0.196628422591764,0.499867355925,0.5,0.571226735444261,0.473682024684112,14.945522847723,2.04552494415381,0.5,-37.8522838650887
188,1,9,B,1,0,a,63,1,0.91,1B,0B,1,0,1,0,B10,2.92401188652284,3.17805383034795,0.5,0.214386632277869,0.5,0.214386632277869,0.5,0.214386632277869,0.5,0.214386632277869,0.5,0.5,0.908076743801107,0.5,0.5,0.5,0.214386632277869,0.785613367722131,0.601455719375257,0,0,1,0B,1B,0.5,0.214386632277869,0.699901114338767,0.300098885661233,0,0,-0.5,-0.285613367722131,0.5,0.565112282241048,0.441455719375257,13.8088141065492,2.30690722139265,0.5,6.8684815913549,0.999995089554277,0.5,0.571226735444261,0.473682024684112,14.945522847723,2.04552494415381,0.5,-37.8522838650887
188,1,10,D,1,3,l,27,1,0.91,1D,3D,0,1,0,1,D13,2.80734048715682,3.2188758248682,0.5,0.214386632277869,0.5,0.214386632277869,0.214386632277869,0.214386632277869,0.5,0.214386632277869,0.5,0.5,0.908076743801107,0.5,0.5,0.5,0.214386632277869,0.785613367722131,0.908455719375257,0,0,1,3D,1D,0.785613367722131,0.5,0.611080584137121,0.388919415862879,1,1,0.214386632277869,0.122463376078977,0.5,0.565112282241048,0.441455719375257,13.8088141065492,2.30690722139265,0.5,1.16134279260288,0.9988757229541,0.5,0.571226735444261,0.473682024684112,14.945522847723,2.04552494415381,0.5,-37.8522838650887
188,1,11,C,3,2,l,63,1,0.91,3C,2C,0,1,0,1,C32,0.358020176382367,2.56494935746154,0.5,0.214386632277869,0.5,0.214386632277869,0.214386632277869,0.214386632277869,0.5,0.214386632277869,0.5,0.5,0.908076743801107,0.5,0.5,0.5,0.214386632277869,0.908076743801107,0.664455719375257,0,0,1,2C,3C,0.908076743801107,0.5,0.64490571824214,0.35509428175786,1,1,0.0919232561988927,0.0525090215498999,0.5,0.565112282241048,0.441455719375257,13.8088141065492,2.30690722139265,0.5,4.42594450455238,0.999858146856357,0.5,0.571226735444261,0.473682024684112,14.945522847723,2.04552494415381,0.5,-37.8522838650887
188,1,12,B,1,0,a,63,1,0.91,1B,0B,1,0,1,0,B10,1.1067031778121,2.60268968544438,0.5,0.214386632277869,0.5,0.214386632277869,0.214386632277869,0.214386632277869,0.5,0.214386632277869,0.5,0.5,0.960585765351007,0.5,0.5,0.5,0.214386632277869,0.908076743801107,1.06045571937526,1,1,0,1B,0B,0.214386632277869,0.214386632277869,0.5,0.5,1,1,0.785613367722131,0.448763359365285,0.5,0.565112282241048,0.441455719375257,13.8088141065492,2.30690722139265,0.5,0.37118717019601,0.499731435581308,0.5,0.571226735444261,0.473682024684112,14.945522847723,2.04552494415381,0.5,-37.8522838650887
188,1,13,A,0,1,a,63,1,0.91,0A,1A,1,0,1,0,A01,3.30898925692223,2.63905732961526,0.5,0.214386632277869,0.5,0.214386632277869,0.214386632277869,0.663149991643154,0.5,0.214386632277869,0.5,0.5,0.960585765351007,0.5,0.5,0.5,0.214386632277869,0.908076743801107,0.774455719375257,1,1,0,0A,1A,0.5,0.214386632277869,0.699901114338767,0.300098885661233,1,1,0.5,0.285613367722131,0.5,0.565112282241048,0.441455719375257,13.8088141065492,2.30690722139265,0.5,0.911878549939984,0.999995093244962,0.5,0.571226735444261,0.473682024684112,14.945522847723,2.04552494415381,0.5,-37.8522838650887
188,1,14,C,1,2,l,9,1,0.91,1C,2C,0,1,0,1,C12,0.311569864181957,3.36729582998647,0.785613367722131,0.214386632277869,0.5,0.214386632277869,0.214386632277869,0.663149991643154,0.5,0.214386632277869,0.5,0.5,0.960585765351007,0.5,0.5,0.5,0.214386632277869,0.908076743801107,0.762455719375257,0,0,1,2C,1C,0.960585765351007,0.5,0.657671591863118,0.342328408136882,1,1,0.0394142346489927,0.0225144645885782,0.5,0.565112282241048,0.441455719375257,13.8088141065492,2.30690722139265,0.5,2.15596096515319,0.999935133531917,0.5,0.571226735444261,0.473682024684112,14.945522847723,2.04552494415381,0.5,-37.8522838650887
188,1,15,A,1,0,l,63,1,0.91,1A,0A,0,1,0,1,A10,1.08156771256788,3.40119738166216,0.785613367722131,0.214386632277869,0.5,0.214386632277869,0.214386632277869,0.663149991643154,0.5,0.214386632277869,0.5,0.5,0.983100229939585,0.5,0.5,0.5,0.214386632277869,0.908076743801107,0.590455719375257,0,0,1,0A,1A,0.785613367722131,0.214386632277869,0.785613367722131,0.214386632277869,1,1,0.214386632277869,0.122463376078977,0.5,0.565112282241048,0.441455719375257,13.8088141065492,2.30690722139265,0.5,10.1963237765457,0.999999974031284,0.5,0.571226735444261,0.473682024684112,14.945522847723,2.04552494415381,0.5,-37.8522838650887
188,1,16,D,3,1,a,27,1,0.91,3D,1D,1,0,1,0,D31,0.49042891962572,3.43398720448515,0.908076743801107,0.214386632277869,0.5,0.214386632277869,0.214386632277869,0.663149991643154,0.5,0.214386632277869,0.5,0.5,0.983100229939585,0.5,0.5,0.5,0.214386632277869,0.908076743801107,0.800455719375257,1,1,0,3D,1D,0.908076743801107,0.5,0.64490571824214,0.35509428175786,1,1,0.0919232561988927,0.0525090215498999,0.5,0.565112282241048,0.441455719375257,13.8088141065492,2.30690722139265,0.5,1.72469353589661,0.999858335506522,0.5,0.571226735444261,0.473682024684112,14.945522847723,2.04552494415381,0.5,-37.8522838650887
188,1,17,B,0,1,l,63,1,0.91,0B,1B,0,1,0,1,B01,1.75639785222456,2.77258872223978,0.908076743801107,0.214386632277869,0.5,0.214386632277869,0.214386632277869,0.663149991643154,0.5,0.214386632277869,0.5,0.5,0.983100229939585,0.5,0.5,0.5,0.214386632277869,0.960585765351007,0.571455719375257,0,0,1,1B,0B,0.663149991643154,0.214386632277869,0.755694946018385,0.244305053981615,1,1,0.336850008356846,0.192417730608053,0.5,0.565112282241048,0.441455719375257,13.8088141065492,2.30690722139265,0.5,9.05229485770474,0.999999837577134,0.5,0.571226735444261,0.473682024684112,14.945522847723,2.04552494415381,0.5,-37.8522838650887
188,1,18,C,2,3,a,63,0,0.91,2C,3C,1,0,0,1,C23,2.70366836430664,3.49650756146648,0.908076743801107,0.214386632277869,0.5,0.214386632277869,0.214386632277869,0.855567722251207,0.5,0.214386632277869,0.5,0.5,0.983100229939585,0.5,0.5,0.5,0.214386632277869,0.960585765351007,0.585455719375257,1,1,0,2C,3C,0.983100229939585,0.5,0.662868368633206,0.337131631366794,1,0,-0.983100229939585,-0.561573134962892,0.5,0.565112282241048,0.441455719375257,13.8088141065492,2.30690722139265,0.5,3.91880501401334,0.999952668285342,0.5,0.571226735444261,0.473682024684112,14.945522847723,2.04552494415381,0.5,-37.8522838650887
188,1,19,A,2,0,l,27,1,0.91,2A,0A,0,1,0,1,A20,3.3960476851735,3.52636052461616,0.908076743801107,0.214386632277869,0.5,0.214386632277869,0.214386632277869,0.855567722251207,0.5,0.214386632277869,0.5,0.5,0.421527094976694,0.5,0.5,0.5,0.214386632277869,0.960585765351007,0.651455719375257,0,0,1,0A,2A,0.908076743801107,0.5,0.64490571824214,0.35509428175786,1,1,0.0919232561988927,0.0525090215498999,0.5,0.565112282241048,0.441455719375257,13.8088141065492,2.30690722139265,0.5,4.54540912410901,0.999857329113865,0.5,0.571226735444261,0.473682024684112,14.945522847723,2.04552494415381,0.5,-37.8522838650887
188,1,20,D,3,2,a,63,1,0.91,3D,2D,1,0,1,0,D32,2.60718277205334,2.4567357728213,0.960585765351007,0.214386632277869,0.5,0.214386632277869,0.214386632277869,0.855567722251207,0.5,0.214386632277869,0.5,0.5,0.421527094976694,0.5,0.5,0.5,0.214386632277869,0.960585765351007,0.533455719375257,1,1,0,3D,2D,0.960585765351007,0.214386632277869,0.817539005417909,0.182460994582091,1,1,0.0394142346489927,0.0225144645885782,0.5,0.565112282241048,0.441455719375257,13.8088141065492,2.30690722139265,0.5,4.92649434562443,0.999999996304213,0.5,0.571226735444261,0.473682024684112,14.945522847723,2.04552494415381,0.5,-37.8522838650887
188,1,21,B,3,1,l,27,1,0.91,3B,1B,0,1,0,1,B31,3.49051287481523,3.58351893845611,0.960585765351007,0.214386632277869,0.5,0.214386632277869,0.214386632277869,0.855567722251207,0.5,0.214386632277869,0.5,0.5,0.421527094976694,0.5,0.5,0.5,0.214386632277869,0.983100229939585,0.563455719375257,0,0,1,1B,3B,0.855567722251207,0.214386632277869,0.799630113779734,0.200369886220266,1,1,0.144432277748793,0.0825035785112217,0.5,0.565112282241048,0.441455719375257,13.8088141065492,2.30690722139265,0.5,11.6207864592364,0.999999988942041,0.5,0.571226735444261,0.473682024684112,14.945522847723,2.04552494415381,0.5,-37.8522838650887
188,1,22,C,3,2,l,63,1,0.91,3C,2C,0,1,0,1,C32,0.499687807508708,2.51230562397611,0.960585765351007,0.214386632277869,0.5,0.214386632277869,0.214386632277869,0.938071300762429,0.5,0.214386632277869,0.5,0.5,0.421527094976694,0.5,0.5,0.5,0.214386632277869,0.983100229939585,0.847455719375257,1,1,0,3C,2C,0.5,0.421527094976694,0.542577643919027,0.457422356080973,0,0,-0.5,-0.285613367722131,0.5,0.565112282241048,0.441455719375257,13.8088141065492,2.30690722139265,0.5,1.19626616688624,0.931043467818727,0.5,0.571226735444261,0.473682024684112,14.945522847723,2.04552494415381,0.5,-37.8522838650887
188,1,23,A,0,1,a,63,0,0.91,0A,1A,1,0,0,1,A01,0.970366826354179,2.53897387105828,0.960585765351007,0.214386632277869,0.5,0.214386632277869,0.214386632277869,0.938071300762429,0.5,0.214386632277869,0.5,0.5,0.421527094976694,0.214386632277869,0.5,0.5,0.214386632277869,0.983100229939585,0.569455719375257,1,1,0,0A,1A,0.960585765351007,0.214386632277869,0.817539005417909,0.182460994582091,1,0,-0.960585765351007,-0.548712270855683,0.5,0.565112282241048,0.441455719375257,13.8088141065492,2.30690722139265,0.5,12.8642558780098,0.999999996284312,0.5,0.571226735444261,0.473682024684112,14.945522847723,2.04552494415381,0.5,-37.8522838650887
188,1,24,B,2,1,l,9,1,0.91,2B,1B,0,1,0,1,B21,2.81862897307641,3.66356164612965,0.411873494495324,0.214386632277869,0.5,0.214386632277869,0.214386632277869,0.938071300762429,0.5,0.214386632277869,0.5,0.5,0.421527094976694,0.214386632277869,0.5,0.5,0.214386632277869,0.983100229939585,0.800455719375257,0,0,1,1B,2B,0.938071300762429,0.5,0.65231209347206,0.34768790652794,1,1,0.061928699237571,0.0353753286957872,0.5,0.565112282241048,0.441455719375257,13.8088141065492,2.30690722139265,0.5,1.5685261000625,0.999909889732472,0.5,0.571226735444261,0.473682024684112,14.945522847723,2.04552494415381,0.5,-37.8522838650887
188,1,25,C,2,3,a,63,1,0.91,2C,3C,1,0,1,0,C23,1.55710088990493,2.99573227355399,0.411873494495324,0.214386632277869,0.5,0.214386632277869,0.214386632277869,0.973446629458216,0.5,0.214386632277869,0.5,0.5,0.421527094976694,0.214386632277869,0.5,0.5,0.214386632277869,0.983100229939585,0.720455719375257,1,1,0,2C,3C,0.421527094976694,0.214386632277869,0.662868368633206,0.337131631366794,1,1,0.578472905023306,0.330439189079421,0.5,0.565112282241048,0.441455719375257,13.8088141065492,2.30690722139265,0.5,3.11968869075156,0.999952734239873,0.5,0.571226735444261,0.473682024684112,14.945522847723,2.04552494415381,0.5,-37.8522838650887
188,1,26,D,2,3,l,63,1,0.91,2D,3D,0,1,0,1,D23,1.16181507207892,3.71357206670431,0.411873494495324,0.214386632277869,0.5,0.214386632277869,0.214386632277869,0.973446629458216,0.5,0.214386632277869,0.5,0.5,0.751966284056115,0.214386632277869,0.5,0.5,0.214386632277869,0.983100229939585,0.537455719375257,0,0,1,3D,2D,0.983100229939585,0.214386632277869,0.820969532909215,0.179030467090785,1,1,0.0168997700604145,0.00965360048136926,0.5,0.565112282241048,0.441455719375257,13.8088141065492,2.30690722139265,0.5,6.74280086242325,0.999999997002317,0.5,0.571226735444261,0.473682024684112,14.945522847723,2.04552494415381,0.5,-37.8522838650887
188,1,27,B,0,1,l,63,1,0.91,0B,1B,0,1,0,1,B01,2.87159493057055,2.63905732961526,0.411873494495324,0.214386632277869,0.5,0.214386632277869,0.214386632277869,0.973446629458216,0.5,0.214386632277869,0.5,0.5,0.751966284056115,0.214386632277869,0.5,0.5,0.214386632277869,0.992753830420955,0.587455719375257,0,0,1,1B,0B,0.973446629458216,0.214386632277869,0.819514540311381,0.180485459688619,1,1,0.0265533705417839,0.015167995169625,0.5,0.565112282241048,0.441455719375257,13.8088141065492,2.30690722139265,0.5,10.442321857142,0.99999999673279,0.5,0.571226735444261,0.473682024684112,14.945522847723,2.04552494415381,0.5,-37.8522838650887
188,1,28,A,0,2,a,27,1,0.91,0A,2A,1,0,1,0,A02,0.949235717370123,3.76120011569356,0.411873494495324,0.214386632277869,0.5,0.214386632277869,0.214386632277869,0.988614624627841,0.5,0.214386632277869,0.5,0.5,0.751966284056115,0.214386632277869,0.5,0.5,0.214386632277869,0.992753830420955,2.07745571937526,0,0,1,2A,0A,0.5,0.411873494495324,0.548321672927586,0.451678327072414,0,0,-0.5,-0.285613367722131,0.5,0.565112282241048,0.441455719375257,13.8088141065492,2.30690722139265,0.5,0.0930955659729709,0.950505969255023,0.5,0.571226735444261,0.473682024684112,14.945522847723,2.04552494415381,0.5,-37.8522838650887
188,1,29,D,1,3,l,27,1,0.91,1D,3D,0,1,0,1,D13,2.66351296680028,3.09104245335832,0.411873494495324,0.214386632277869,0.214386632277869,0.214386632277869,0.214386632277869,0.988614624627841,0.5,0.214386632277869,0.5,0.5,0.751966284056115,0.214386632277869,0.5,0.5,0.214386632277869,0.992753830420955,0.617455719375257,0,0,1,3D,1D,0.992753830420955,0.5,0.66504859018918,0.33495140981082,1,1,0.00724616957904523,0.00413920579311352,0.5,0.565112282241048,0.441455719375257,13.8088141065492,2.30690722139265,0.5,5.31659507654424,0.999958491368171,0.5,0.571226735444261,0.473682024684112,14.945522847723,2.04552494415381,0.5,-37.8522838650887
188,1,30,A,1,0,l,63,1,0.91,1A,0A,0,1,0,1,A10,3.06614763315591,3.11351530921037,0.411873494495324,0.214386632277869,0.214386632277869,0.214386632277869,0.214386632277869,0.988614624627841,0.5,0.214386632277869,0.5,0.5,0.751966284056115,0.214386632277869,0.5,0.5,0.214386632277869,0.996893036214068,0.600455719375257,0,0,1,0A,1A,0.411873494495324,0.214386632277869,0.657671591863118,0.342328408136882,1,1,0.588126505504676,0.335953583767677,0.5,0.565112282241048,0.441455719375257,13.8088141065492,2.30690722139265,0.5,4.42901373656205,0.999934937681524,0.5,0.571226735444261,0.473682024684112,14.945522847723,2.04552494415381,0.5,-37.8522838650887
188,1,31,C,2,0,a,27,1,0.91,2C,0C,1,0,1,0,C20,1.54392718658153,3.8286413964891,0.747827078263001,0.214386632277869,0.214386632277869,0.214386632277869,0.214386632277869,0.988614624627841,0.5,0.214386632277869,0.5,0.5,0.751966284056115,0.214386632277869,0.5,0.5,0.214386632277869,0.996893036214068,0.764455719375257,1,1,0,2C,0C,0.751966284056115,0.5,0.600628222686555,0.399371777313445,1,1,0.248033715943885,0.141683489838735,0.5,0.565112282241048,0.441455719375257,13.8088141065492,2.30690722139265,0.5,2.50604595973939,0.997878694313272,0.5,0.571226735444261,0.473682024684112,14.945522847723,2.04552494415381,0.5,-37.8522838650887
188,1,32,D,2,3,l,63,1,0.91,2D,3D,0,1,0,1,D23,0.701960329153974,3.15700042115011,0.747827078263001,0.214386632277869,0.214386632277869,0.214386632277869,0.214386632277869,0.988614624627841,0.5,0.214386632277869,0.5,0.5,0.89364977389485,0.214386632277869,0.5,0.5,0.214386632277869,0.996893036214068,0.596455719375257,0,0,1,3D,2D,0.996893036214068,0.214386632277869,0.823008147618969,0.176991852381031,1,1,0.00310696378593167,0.00177478078058129,0.5,0.565112282241048,0.441455719375257,13.8088141065492,2.30690722139265,0.5,8.51690660908841,0.999999997350162,0.5,0.571226735444261,0.473682024684112,14.945522847723,2.04552494415381,0.5,-37.8522838650887
188,1,33,B,1,0,a,63,1,0.91,1B,0B,1,0,1,0,B10,1.14723818235492,2.77258872223978,0.747827078263001,0.214386632277869,0.214386632277869,0.214386632277869,0.214386632277869,0.988614624627841,0.5,0.214386632277869,0.5,0.5,0.89364977389485,0.214386632277869,0.5,0.5,0.214386632277869,0.99866781699465,0.615455719375257,1,1,0,1B,0B,0.988614624627841,0.214386632277869,0.8217901843018,0.1782098156982,1,1,0.0113853753721589,0.00650363080564581,0.5,0.565112282241048,0.441455719375257,13.8088141065492,2.30690722139265,0.5,5.07263307104269,0.999999997149864,0.5,0.571226735444261,0.473682024684112,14.945522847723,2.04552494415381,0.5,-37.8522838650887
188,1,34,A,0,1,a,63,1,0.91,0A,1A,1,0,1,0,A01,0.486426141038743,2.50552593699074,0.747827078263001,0.214386632277869,0.214386632277869,0.214386632277869,0.214386632277869,0.995118255433487,0.5,0.214386632277869,0.5,0.5,0.89364977389485,0.214386632277869,0.5,0.5,0.214386632277869,0.99866781699465,0.573455719375257,1,1,0,0A,1A,0.747827078263001,0.214386632277869,0.777194369681804,0.222805630318197,1,1,0.252172921736999,0.144047914851267,0.5,0.565112282241048,0.441455719375257,13.8088141065492,2.30690722139265,0.5,10.6793859697963,0.99999995647139,0.5,0.571226735444261,0.473682024684112,14.945522847723,2.04552494415381,0.5,-37.8522838650887
188,1,35,D,2,3,l,63,0,0.91,2D,3D,0,1,1,0,D23,0.896031362519483,2.81341071676004,0.891874993114268,0.214386632277869,0.214386632277869,0.214386632277869,0.214386632277869,0.995118255433487,0.5,0.214386632277869,0.5,0.5,0.89364977389485,0.214386632277869,0.5,0.5,0.214386632277869,0.99866781699465,0.571455719375257,0,0,1,3D,2D,0.99866781699465,0.214386632277869,0.823267098680987,0.176732901319013,1,0,-0.99866781699465,-0.5704657568951,0.5,0.565112282241048,0.441455719375257,13.8088141065492,2.30690722139265,0.5,12.9378469164859,0.999999997397347,0.5,0.571226735444261,0.473682024684112,14.945522847723,2.04552494415381,0.5,-37.8522838650887
188,1,36,C,2,0,a,27,1,0.91,2C,0C,1,0,1,0,C20,2.36913156015812,3.23867845216438,0.891874993114268,0.214386632277869,0.214386632277869,0.214386632277869,0.214386632277869,0.995118255433487,0.5,0.214386632277869,0.5,0.5,0.89364977389485,0.214386632277869,0.5,0.5,0.214386632277869,0.428202060099549,0.581455719375257,1,1,0,2C,0C,0.89364977389485,0.5,0.641229805819403,0.358770194180597,1,1,0.10635022610515,0.0607500924718041,0.5,0.565112282241048,0.441455719375257,13.8088141065492,2.30690722139265,0.5,2.58441434409751,0.999822314833433,0.5,0.571226735444261,0.473682024684112,14.945522847723,2.04552494415381,0.5,-37.8522838650887
188,1,37,A,0,1,a,63,1,0.91,0A,1A,1,0,1,0,A01,1.75960568692286,2.34180580614733,0.891874993114268,0.214386632277869,0.214386632277869,0.214386632277869,0.214386632277869,0.995118255433487,0.5,0.214386632277869,0.5,0.5,0.954399866366654,0.214386632277869,0.5,0.5,0.214386632277869,0.428202060099549,0.577455719375257,1,1,0,0A,1A,0.891874993114268,0.214386632277869,0.806206210757898,0.193793789242102,1,1,0.108125006885732,0.0617638947032248,0.5,0.565112282241048,0.441455719375257,13.8088141065492,2.30690722139265,0.5,11.8970735768861,0.999999992613049,0.5,0.571226735444261,0.473682024684112,14.945522847723,2.04552494415381,0.5,-37.8522838650887
188,1,38,B,1,3,a,27,1,0.91,1B,3B,1,0,1,0,B13,1.81581409903503,3.27714473299218,0.953638887817493,0.214386632277869,0.214386632277869,0.214386632277869,0.214386632277869,0.995118255433487,0.5,0.214386632277869,0.5,0.5,0.954399866366654,0.214386632277869,0.5,0.5,0.214386632277869,0.428202060099549,0.639455719375257,1,1,0,1B,3B,0.995118255433487,0.214386632277869,0.822748436607367,0.177251563392633,1,1,0.00488174456651302,0.00278858301200199,0.5,0.565112282241048,0.441455719375257,13.8088141065492,2.30690722139265,0.5,2.21938473462863,0.999999997306243,0.5,0.571226735444261,0.473682024684112,14.945522847723,2.04552494415381,0.5,-37.8522838650887
188,1,39,C,3,2,l,63,1,0.91,3C,2C,0,1,0,1,C32,0.974860031817904,2.60268968544438,0.953638887817493,0.214386632277869,0.214386632277869,0.214386632277869,0.214386632277869,0.997906838445489,0.5,0.214386632277869,0.5,0.5,0.954399866366654,0.214386632277869,0.5,0.5,0.214386632277869,0.428202060099549,0.662455719375257,0,0,1,2C,3C,0.954399866366654,0.214386632277869,0.816573315548648,0.183426684451352,1,1,0.0456001336333463,0.0260480154711984,0.5,0.565112282241048,0.441455719375257,13.8088141065492,2.30690722139265,0.5,1.06227014200011,0.999999996073874,0.5,0.571226735444261,0.473682024684112,14.945522847723,2.04552494415381,0.5,-37.8522838650887
188,1,40,D,3,2,a,63,1,0.91,3D,2D,1,0,1,0,D32,2.61304531174876,2.62103882411258,0.953638887817493,0.214386632277869,0.214386632277869,0.214386632277869,0.214386632277869,0.997906838445489,0.5,0.214386632277869,0.5,0.5,0.980447881837852,0.214386632277869,0.5,0.5,0.214386632277869,0.428202060099549,0.629455719375257,1,1,0,3D,2D,0.428202060099549,0.214386632277869,0.666370362844867,0.333629637155133,1,1,0.571797939900451,0.326626270543088,0.5,0.565112282241048,0.441455719375257,13.8088141065492,2.30690722139265,0.5,5.44480105115622,0.999961677142587,0.5,0.571226735444261,0.473682024684112,14.945522847723,2.04552494415381,0.5,-37.8522838650887
188,1,41,B,0,1,l,63,1,0.91,0B,1B,0,1,0,1,B01,2.86740718215149,2.63905732961526,0.953638887817493,0.214386632277869,0.214386632277869,0.214386632277869,0.214386632277869,0.997906838445489,0.5,0.214386632277869,0.5,0.5,0.980447881837852,0.214386632277869,0.5,0.5,0.214386632277869,0.754828330642638,0.547455719375257,0,0,1,1B,0B,0.997906838445489,0.214386632277869,0.823156160240682,0.176843839759318,1,1,0.002093161554511,0.00119566984154075,0.5,0.565112282241048,0.441455719375257,13.8088141065492,2.30690722139265,0.5,10.6075050674764,0.99999999737286,0.5,0.571226735444261,0.473682024684112,14.945522847723,2.04552494415381,0.5,-37.8522838650887
188,1,42,A,2,0,l,27,1,0.91,2A,0A,0,1,0,1,A20,3.07304519556529,3.3499040872746,0.953638887817493,0.214386632277869,0.214386632277869,0.214386632277869,0.214386632277869,0.99910250828703,0.5,0.214386632277869,0.5,0.5,0.980447881837852,0.214386632277869,0.5,0.5,0.214386632277869,0.754828330642638,0.547455719375257,0,0,1,0A,2A,0.953638887817493,0.214386632277869,0.816453811505449,0.183546188494551,1,1,0.0463611121825069,0.0264827067635786,0.5,0.565112282241048,0.441455719375257,13.8088141065492,2.30690722139265,0.5,9.95325716590014,0.999999996041249,0.5,0.571226735444261,0.473682024684112,14.945522847723,2.04552494415381,0.5,-37.8522838650887
188,1,43,D,3,0,a,9,1,0.91,3D,0D,1,0,1,0,D30,2.42260256695296,4.06044301054642,0.980121594581072,0.214386632277869,0.214386632277869,0.214386632277869,0.214386632277869,0.99910250828703,0.5,0.214386632277869,0.5,0.5,0.980447881837852,0.214386632277869,0.5,0.5,0.214386632277869,0.754828330642638,0.643455719375257,1,1,0,3D,0D,0.754828330642638,0.5,0.601539120698738,0.398460879301262,1,1,0.245171669357362,0.140048612310426,0.5,0.565112282241048,0.441455719375257,13.8088141065492,2.30690722139265,0.5,2.73380321398358,0.997996914822764,0.5,0.571226735444261,0.473682024684112,14.945522847723,2.04552494415381,0.5,-37.8522838650887
188,1,44,C,3,2,l,63,1,0.91,3C,2C,0,1,0,1,C32,0.588691844596861,2.46809953147162,0.980121594581072,0.214386632277869,0.214386632277869,0.214386632277869,0.214386632277869,0.99910250828703,0.5,0.214386632277869,0.5,0.5,0.980447881837852,0.214386632277869,0.5,0.5,0.214386632277869,0.894876942953064,0.674455719375257,0,0,1,2C,3C,0.980447881837852,0.214386632277869,0.820572112920145,0.179427887079855,1,1,0.0195521181621479,0.0111686926287842,0.5,0.565112282241048,0.441455719375257,13.8088141065492,2.30690722139265,0.5,0.600509128114565,0.999999996925801,0.5,0.571226735444261,0.473682024684112,14.945522847723,2.04552494415381,0.5,-37.8522838650887
