ID,filename,session,trial,visStimLeft,visStimRight,correctKey,leftCorrect,rightCorrect,secondStim,mod2Type,mod2Stim,frequency,rewardAccurate,stimPairLeft,stimPairRight,pCorrectLeft,pCorrectRight,key,reactionTime,choiceLeft,choiceRight,choiceAccurate,reward,chosenPair,otherPair,triplet,surprise,0A belief,1A belief,2A belief,3A belief,0B belief,1B belief,2B belief,3B belief,0C belief,1C belief,2C belief,3C belief,0D belief,1D belief,2D belief,3D belief,beliefPairNorm,beliefOtherPairNorm,beliefPair,beliefOtherPair,lik,corrLik,rewardPE,update2,fitCBCsimpleRW_CBCdriftDiffusionLR_pwBelief_startBelief,fitCBCsimpleRW_CBCdriftDiffusionLR_pwBelief_alpha1,fitCBCsimpleRW_CBCdriftDiffusionLR_pwBelief_nonDecisionTime,fitCBCsimpleRW_CBCdriftDiffusionLR_pwBelief_weight,fitCBCsimpleRW_CBCdriftDiffusionLR_pwBelief_startingBoundary,fitCBCsimpleRW_CBCdriftDiffusionLR_pwBelief_startingPoint,fit_CBCsimpleRW_CBCdriftDiffusionLR_pwBelief_NLL
CBC_1022,CBC_1022_MSI_TV_v3_Vset1_Tset1_2023-07-18_13h36.12.008.csv,1,1,1,0,z,0,1,3,tac,A,63,1,1A,0A,0,1,z,1.80552249999982,0,1,1,1,0A,1A,A10,2.77258872223978,0.5,0.5,0.5,0.5,0.5,0.5,0.5,0.5,0.5,0.5,0.5,0.5,0.5,0.5,0.5,0.5,0.5,0.5,0.5,0.5,0.16998372188044,0.499373443345585,0.5,0.0125055545516419,0.5,0.0250111091032837,0.495820004530986,0.330415216361107,2.95639462137695,0.5,92.6091803092866
CBC_1022,CBC_1022_MSI_TV_v3_Vset1_Tset1_2023-07-18_13h36.12.008.csv,1,2,2,3,b,1,0,2,tac,C,63,1,2C,3C,1,0,b,2.82121400000005,1,0,1,1,2C,3C,C23,2.83321334405622,0.512505554551642,0.5,0.5,0.5,0.5,0.5,0.5,0.5,0.5,0.5,0.5,0.5,0.5,0.5,0.5,0.5,0.5,0.5,0.5,0.5,0.096581288976587,0.499426813340159,0.5,0.0125055545516419,0.5,0.0250111091032837,0.495820004530986,0.330415216361107,2.95639462137695,0.5,92.6091803092866
CBC_1022,CBC_1022_MSI_TV_v3_Vset1_Tset1_2023-07-18_13h36.12.008.csv,1,3,2,0,z,0,1,3,tac,A,27,1,2A,0A,0,1,b,2.5391754999996,1,0,0,0,2A,0A,A20,2.89037175789616,0.512505554551642,0.5,0.5,0.5,0.5,0.5,0.5,0.5,0.5,0.5,0.512505554551642,0.5,0.5,0.5,0.5,0.5,0.487494445448358,0.512505554551642,0.5,0.512505554551642,0.11174086521901,0.49285916408015,-0.5,-0.0125055545516419,0.5,0.0250111091032837,0.495820004530986,0.330415216361107,2.95639462137695,0.5,92.6091803092866
CBC_1022,CBC_1022_MSI_TV_v3_Vset1_Tset1_2023-07-18_13h36.12.008.csv,1,4,0,1,z,0,1,1,tac,B,63,1,0B,1B,NaN,NaN,None,NaN,NaN,NaN,NaN,NaN,,,B01,2.94443897916644,0.512505554551642,0.5,0.487494445448358,0.5,0.5,0.5,0.5,0.5,0.5,0.5,0.512505554551642,0.5,0.5,0.5,0.5,0.5,0,0,0,0,NaN,0,0,0,0.5,0.0250111091032837,0.495820004530986,0.330415216361107,2.95639462137695,0.5,92.6091803092866
CBC_1022,CBC_1022_MSI_TV_v3_Vset1_Tset1_2023-07-18_13h36.12.008.csv,1,5,1,0,b,1,0,1,tac,B,63,1,1B,0B,NaN,NaN,None,NaN,NaN,NaN,NaN,NaN,,,B10,2.99573227355399,0.512505554551642,0.5,0.487494445448358,0.5,0.5,0.5,0.5,0.5,0.5,0.5,0.512505554551642,0.5,0.5,0.5,0.5,0.5,0,0,0,0,NaN,0,0,0,0.5,0.0250111091032837,0.495820004530986,0.330415216361107,2.95639462137695,0.5,92.6091803092866
CBC_1022,CBC_1022_MSI_TV_v3_Vset1_Tset1_2023-07-18_13h36.12.008.csv,1,6,2,3,b,1,0,2,tac,C,63,1,2C,3C,1,0,b,0.68416679999973,1,0,1,1,2C,3C,C23,2.35137525716348,0.512505554551642,0.5,0.487494445448358,0.5,0.5,0.5,0.5,0.5,0.5,0.5,0.512505554551642,0.5,0.5,0.5,0.5,0.5,0.512505554551642,0.487494445448358,0.512505554551642,0.5,0.0221070823987926,0.50635383787871,0.487494445448358,0.0121927767623537,0.5,0.0250111091032837,0.495820004530986,0.330415216361107,2.95639462137695,0.5,92.6091803092866
CBC_1022,CBC_1022_MSI_TV_v3_Vset1_Tset1_2023-07-18_13h36.12.008.csv,1,7,1,3,z,0,1,0,tac,D,27,1,1D,3D,0,1,z,1.53228749999971,0,1,1,1,3D,1D,D13,3.09104245335832,0.512505554551642,0.5,0.487494445448358,0.5,0.5,0.5,0.5,0.5,0.5,0.5,0.524698331313996,0.5,0.5,0.5,0.5,0.5,0.5,0.5,0.5,0.5,0.195126460887773,0.501241640075469,0.5,0.0125055545516419,0.5,0.0250111091032837,0.495820004530986,0.330415216361107,2.95639462137695,0.5,92.6091803092866
CBC_1022,CBC_1022_MSI_TV_v3_Vset1_Tset1_2023-07-18_13h36.12.008.csv,1,8,2,1,b,1,0,2,tac,C,9,1,2C,1C,1,0,z,2.81967489999988,0,1,0,0,1C,2C,C21,3.13549421592915,0.512505554551642,0.5,0.487494445448358,0.5,0.5,0.5,0.5,0.5,0.5,0.5,0.524698331313996,0.5,0.5,0.5,0.5,0.512505554551642,0.475301668686004,0.524698331313996,0.5,0.524698331313996,0.0945901694289876,0.488713950719969,-0.5,-0.0125055545516419,0.5,0.0250111091032837,0.495820004530986,0.330415216361107,2.95639462137695,0.5,92.6091803092866
CBC_1022,CBC_1022_MSI_TV_v3_Vset1_Tset1_2023-07-18_13h36.12.008.csv,1,9,1,3,b,1,0,1,tac,B,27,1,1B,3B,1,0,b,2.74382409999953,1,0,1,1,1B,3B,B13,3.17805383034795,0.512505554551642,0.5,0.487494445448358,0.5,0.5,0.5,0.5,0.5,0.5,0.487494445448358,0.524698331313996,0.5,0.5,0.5,0.5,0.512505554551642,0.5,0.5,0.5,0.5,0.101052200969207,0.50022246585147,0.5,0.0125055545516419,0.5,0.0250111091032837,0.495820004530986,0.330415216361107,2.95639462137695,0.5,92.6091803092866
CBC_1022,CBC_1022_MSI_TV_v3_Vset1_Tset1_2023-07-18_13h36.12.008.csv,1,10,2,3,z,0,1,0,tac,D,63,1,2D,3D,0,1,z,2.32186249999995,0,1,1,1,3D,2D,D23,3.2188758248682,0.512505554551642,0.5,0.487494445448358,0.5,0.5,0.512505554551642,0.5,0.5,0.5,0.487494445448358,0.524698331313996,0.5,0.5,0.5,0.5,0.512505554551642,0.512505554551642,0.487494445448358,0.512505554551642,0.5,0.129278046685182,0.504617817146016,0.487494445448358,0.0121927767623537,0.5,0.0250111091032837,0.495820004530986,0.330415216361107,2.95639462137695,0.5,92.6091803092866
CBC_1022,CBC_1022_MSI_TV_v3_Vset1_Tset1_2023-07-18_13h36.12.008.csv,1,11,0,1,z,0,1,1,tac,B,63,1,0B,1B,0,1,b,2.61090719999993,1,0,0,0,0B,1B,B01,2.56494935746154,0.512505554551642,0.5,0.487494445448358,0.5,0.5,0.512505554551642,0.5,0.5,0.5,0.487494445448358,0.524698331313996,0.5,0.5,0.5,0.5,0.524698331313996,0.487494445448358,0.512505554551642,0.5,0.512505554551642,0.107542724565456,0.493909373834503,-0.5,-0.0125055545516419,0.5,0.0250111091032837,0.495820004530986,0.330415216361107,2.95639462137695,0.5,92.6091803092866
CBC_1022,CBC_1022_MSI_TV_v3_Vset1_Tset1_2023-07-18_13h36.12.008.csv,1,12,2,0,b,1,0,2,tac,C,27,1,2C,0C,1,0,z,2.48932849999983,0,1,0,0,0C,2C,C20,3.29583686600433,0.512505554551642,0.5,0.487494445448358,0.5,0.487494445448358,0.512505554551642,0.5,0.5,0.5,0.487494445448358,0.524698331313996,0.5,0.5,0.5,0.5,0.524698331313996,0.475301668686004,0.524698331313996,0.5,0.524698331313996,0.113877300565625,0.488371267054887,-0.5,-0.0125055545516419,0.5,0.0250111091032837,0.495820004530986,0.330415216361107,2.95639462137695,0.5,92.6091803092866
CBC_1022,CBC_1022_MSI_TV_v3_Vset1_Tset1_2023-07-18_13h36.12.008.csv,1,13,2,3,z,0,1,0,tac,D,63,0,2D,3D,1,0,b,2.28586599999971,1,0,0,1,2D,3D,D23,2.63905732961526,0.512505554551642,0.5,0.487494445448358,0.5,0.487494445448358,0.512505554551642,0.5,0.5,0.487494445448358,0.487494445448358,0.524698331313996,0.5,0.5,0.5,0.5,0.524698331313996,0.475301668686004,0.524698331313996,0.5,0.524698331313996,0.127436231287143,0.487464330471317,0.5,0.0125055545516419,0.5,0.0250111091032837,0.495820004530986,0.330415216361107,2.95639462137695,0.5,92.6091803092866
CBC_1022,CBC_1022_MSI_TV_v3_Vset1_Tset1_2023-07-18_13h36.12.008.csv,1,14,0,1,b,1,0,3,tac,A,63,1,0A,1A,1,0,z,2.90308109999978,0,1,0,0,1A,0A,A01,3.36729582998647,0.512505554551642,0.5,0.487494445448358,0.5,0.487494445448358,0.512505554551642,0.5,0.5,0.487494445448358,0.487494445448358,0.524698331313996,0.5,0.5,0.5,0.512505554551642,0.524698331313996,0.487494445448358,0.512505554551642,0.5,0.512505554551642,0.0911474603233991,0.493617079398917,-0.5,-0.0125055545516419,0.5,0.0250111091032837,0.495820004530986,0.330415216361107,2.95639462137695,0.5,92.6091803092866
CBC_1022,CBC_1022_MSI_TV_v3_Vset1_Tset1_2023-07-18_13h36.12.008.csv,1,15,3,2,z,0,1,2,tac,C,63,1,3C,2C,0,1,z,2.32672140000022,0,1,1,1,2C,3C,C32,3.40119738166216,0.512505554551642,0.487494445448358,0.487494445448358,0.5,0.487494445448358,0.512505554551642,0.5,0.5,0.487494445448358,0.487494445448358,0.524698331313996,0.5,0.5,0.5,0.512505554551642,0.524698331313996,0.524698331313996,0.475301668686004,0.524698331313996,0.5,0.130826544782051,0.512035816039472,0.475301668686004,0.0118878218924785,0.5,0.0250111091032837,0.495820004530986,0.330415216361107,2.95639462137695,0.5,92.6091803092866
CBC_1022,CBC_1022_MSI_TV_v3_Vset1_Tset1_2023-07-18_13h36.12.008.csv,1,16,2,0,z,0,1,3,tac,A,27,1,2A,0A,0,1,b,2.46401939999987,1,0,0,0,2A,0A,A20,2.7408400239252,0.512505554551642,0.487494445448358,0.487494445448358,0.5,0.487494445448358,0.512505554551642,0.5,0.5,0.487494445448358,0.487494445448358,0.536586153206474,0.5,0.5,0.5,0.512505554551642,0.524698331313996,0.475004526954319,0.524995473045681,0.487494445448358,0.512505554551642,0.115192670623354,0.487020276729561,-0.487494445448358,-0.0121927767623537,0.5,0.0250111091032837,0.495820004530986,0.330415216361107,2.95639462137695,0.5,92.6091803092866
CBC_1022,CBC_1022_MSI_TV_v3_Vset1_Tset1_2023-07-18_13h36.12.008.csv,1,17,3,2,b,1,0,0,tac,D,63,1,3D,2D,1,0,z,1.68661300000031,0,1,0,0,2D,3D,D32,3.46573590279973,0.512505554551642,0.487494445448358,0.475301668686004,0.5,0.487494445448358,0.512505554551642,0.5,0.5,0.487494445448358,0.487494445448358,0.536586153206474,0.5,0.5,0.5,0.512505554551642,0.524698331313996,0.487792140851057,0.512207859148943,0.512505554551642,0.524698331313996,0.178676226770439,0.493671130704212,-0.512505554551642,-0.0128183323409301,0.5,0.0250111091032837,0.495820004530986,0.330415216361107,2.95639462137695,0.5,92.6091803092866
CBC_1022,CBC_1022_MSI_TV_v3_Vset1_Tset1_2023-07-18_13h36.12.008.csv,1,18,2,3,z,0,1,0,tac,D,63,1,2D,3D,0,1,b,3.2816171999998,1,0,0,0,2D,3D,D23,2.39789527279837,0.512505554551642,0.487494445448358,0.475301668686004,0.5,0.487494445448358,0.512505554551642,0.5,0.5,0.487494445448358,0.487494445448358,0.536586153206474,0.5,0.5,0.5,0.499687222210712,0.524698331313996,0.474989663725058,0.525010336274942,0.499687222210712,0.524698331313996,0.0726572216840708,0.487257235282947,-0.499687222210712,-0.0124977316322289,0.5,0.0250111091032837,0.495820004530986,0.330415216361107,2.95639462137695,0.5,92.6091803092866
CBC_1022,CBC_1022_MSI_TV_v3_Vset1_Tset1_2023-07-18_13h36.12.008.csv,1,19,1,3,b,1,0,1,tac,B,27,1,1B,3B,1,0,z,2.40949210000008,0,1,0,0,3B,1B,B13,2.83321334405622,0.512505554551642,0.487494445448358,0.475301668686004,0.5,0.487494445448358,0.512505554551642,0.5,0.5,0.487494445448358,0.487494445448358,0.536586153206474,0.5,0.5,0.5,0.487189490578483,0.524698331313996,0.487494445448358,0.512505554551642,0.5,0.512505554551642,0.12060546513192,0.494515871888462,-0.5,-0.0125055545516419,0.5,0.0250111091032837,0.495820004530986,0.330415216361107,2.95639462137695,0.5,92.6091803092866
CBC_1022,CBC_1022_MSI_TV_v3_Vset1_Tset1_2023-07-18_13h36.12.008.csv,1,20,3,0,b,1,0,0,tac,D,9,1,3D,0D,1,0,z,4.03261359999988,0,1,0,0,0D,3D,D30,3.55534806148941,0.512505554551642,0.487494445448358,0.475301668686004,0.5,0.487494445448358,0.512505554551642,0.5,0.487494445448358,0.487494445448358,0.487494445448358,0.536586153206474,0.5,0.5,0.5,0.487189490578483,0.524698331313996,0.475301668686004,0.524698331313996,0.5,0.524698331313996,0.0476917990029563,0.488760436285177,-0.5,-0.0125055545516419,0.5,0.0250111091032837,0.495820004530986,0.330415216361107,2.95639462137695,0.5,92.6091803092866
CBC_1022,CBC_1022_MSI_TV_v3_Vset1_Tset1_2023-07-18_13h36.12.008.csv,1,21,0,1,z,0,1,1,tac,B,63,1,0B,1B,0,1,b,2.56753979999985,1,0,0,0,0B,1B,B01,2.484906649788,0.512505554551642,0.487494445448358,0.475301668686004,0.5,0.487494445448358,0.512505554551642,0.5,0.487494445448358,0.487494445448358,0.487494445448358,0.536586153206474,0.5,0.487494445448358,0.5,0.487189490578483,0.524698331313996,0.475004526954319,0.524995473045681,0.487494445448358,0.512505554551642,0.108654512408101,0.486960225798258,-0.487494445448358,-0.0121927767623537,0.5,0.0250111091032837,0.495820004530986,0.330415216361107,2.95639462137695,0.5,92.6091803092866
CBC_1022,CBC_1022_MSI_TV_v3_Vset1_Tset1_2023-07-18_13h36.12.008.csv,1,22,0,1,b,1,0,3,tac,A,63,1,0A,1A,1,0,z,2.50583659999984,0,1,0,0,1A,0A,A01,2.91777073208428,0.512505554551642,0.487494445448358,0.475301668686004,0.5,0.475301668686004,0.512505554551642,0.5,0.487494445448358,0.487494445448358,0.487494445448358,0.536586153206474,0.5,0.487494445448358,0.5,0.487189490578483,0.524698331313996,0.475004526954319,0.524995473045681,0.487494445448358,0.512505554551642,0.112703794528122,0.487851752928643,-0.487494445448358,-0.0121927767623537,0.5,0.0250111091032837,0.495820004530986,0.330415216361107,2.95639462137695,0.5,92.6091803092866
CBC_1022,CBC_1022_MSI_TV_v3_Vset1_Tset1_2023-07-18_13h36.12.008.csv,1,23,3,2,z,0,1,2,tac,C,63,1,3C,2C,0,1,b,2.52404249999972,1,0,0,0,3C,2C,C32,2.94443897916644,0.512505554551642,0.475301668686004,0.475301668686004,0.5,0.475301668686004,0.512505554551642,0.5,0.487494445448358,0.487494445448358,0.487494445448358,0.536586153206474,0.5,0.487494445448358,0.5,0.487189490578483,0.524698331313996,0.463413846793526,0.536586153206474,0.5,0.536586153206474,0.110314136176565,0.482418519610699,-0.5,-0.0125055545516419,0.5,0.0250111091032837,0.495820004530986,0.330415216361107,2.95639462137695,0.5,92.6091803092866
CBC_1022,CBC_1022_MSI_TV_v3_Vset1_Tset1_2023-07-18_13h36.12.008.csv,1,24,2,0,z,0,1,3,tac,A,27,1,2A,0A,0,1,b,2.61054349999949,1,0,0,0,2A,0A,A20,2.56494935746154,0.512505554551642,0.475301668686004,0.475301668686004,0.5,0.475301668686004,0.512505554551642,0.5,0.487494445448358,0.487494445448358,0.487494445448358,0.536586153206474,0.487494445448358,0.487494445448358,0.5,0.487189490578483,0.524698331313996,0.462842021528064,0.537157978471936,0.475301668686004,0.512505554551642,0.104994752758676,0.482099768838703,-0.475301668686004,-0.0118878218924785,0.5,0.0250111091032837,0.495820004530986,0.330415216361107,2.95639462137695,0.5,92.6091803092866
CBC_1022,CBC_1022_MSI_TV_v3_Vset1_Tset1_2023-07-18_13h36.12.008.csv,1,25,0,1,z,0,1,1,tac,B,63,1,0B,1B,0,1,z,2.50133180000057,0,1,1,1,1B,0B,B01,2.30258509299405,0.512505554551642,0.475301668686004,0.463413846793526,0.5,0.475301668686004,0.512505554551642,0.5,0.487494445448358,0.487494445448358,0.487494445448358,0.536586153206474,0.487494445448358,0.487494445448358,0.5,0.487189490578483,0.524698331313996,0.537157978471936,0.462842021528064,0.512505554551642,0.475301668686004,0.120285634436164,0.519332128176415,0.487494445448358,0.0121927767623537,0.5,0.0250111091032837,0.495820004530986,0.330415216361107,2.95639462137695,0.5,92.6091803092866
CBC_1022,CBC_1022_MSI_TV_v3_Vset1_Tset1_2023-07-18_13h36.12.008.csv,1,26,3,2,b,1,0,0,tac,D,63,1,3D,2D,1,0,b,1.87911109999959,1,0,1,1,3D,2D,D32,3.02042488614436,0.512505554551642,0.475301668686004,0.463413846793526,0.5,0.475301668686004,0.524698331313996,0.5,0.487494445448358,0.487494445448358,0.487494445448358,0.536586153206474,0.487494445448358,0.487494445448358,0.5,0.487189490578483,0.524698331313996,0.537461429818758,0.462538570181242,0.524698331313996,0.487189490578483,0.169749840658012,0.518515923532718,0.475301668686004,0.0118878218924785,0.5,0.0250111091032837,0.495820004530986,0.330415216361107,2.95639462137695,0.5,92.6091803092866
CBC_1022,CBC_1022_MSI_TV_v3_Vset1_Tset1_2023-07-18_13h36.12.008.csv,1,27,2,1,z,0,1,1,tac,B,9,1,2B,1B,0,1,z,2.79780989999972,0,1,1,1,1B,2B,B21,3.73766961828337,0.512505554551642,0.475301668686004,0.463413846793526,0.5,0.475301668686004,0.524698331313996,0.5,0.487494445448358,0.487494445448358,0.487494445448358,0.536586153206474,0.487494445448358,0.487494445448358,0.5,0.487189490578483,0.536586153206474,0.524698331313996,0.475301668686004,0.524698331313996,0.5,0.100328141976051,0.512004180098246,0.475301668686004,0.0118878218924785,0.5,0.0250111091032837,0.495820004530986,0.330415216361107,2.95639462137695,0.5,92.6091803092866
CBC_1022,CBC_1022_MSI_TV_v3_Vset1_Tset1_2023-07-18_13h36.12.008.csv,1,28,3,1,b,1,0,0,tac,D,27,1,3D,1D,1,0,b,1.96394529999952,1,0,1,1,3D,1D,D31,3.76120011569356,0.512505554551642,0.475301668686004,0.463413846793526,0.5,0.475301668686004,0.536586153206474,0.5,0.487494445448358,0.487494445448358,0.487494445448358,0.536586153206474,0.487494445448358,0.487494445448358,0.5,0.487189490578483,0.536586153206474,0.536586153206474,0.463413846793526,0.536586153206474,0.5,0.161557825645638,0.516779752942181,0.463413846793526,0.0115904942821253,0.5,0.0250111091032837,0.495820004530986,0.330415216361107,2.95639462137695,0.5,92.6091803092866
CBC_1022,CBC_1022_MSI_TV_v3_Vset1_Tset1_2023-07-18_13h36.12.008.csv,1,29,0,1,b,1,0,3,tac,A,63,1,0A,1A,1,0,b,2.69706900000028,1,0,1,1,0A,1A,A01,2.68557734525015,0.512505554551642,0.475301668686004,0.463413846793526,0.5,0.475301668686004,0.536586153206474,0.5,0.487494445448358,0.487494445448358,0.487494445448358,0.536586153206474,0.487494445448358,0.487494445448358,0.5,0.487189490578483,0.548176647488599,0.537157978471936,0.462842021528064,0.512505554551642,0.475301668686004,0.107541931798725,0.518495345713737,0.487494445448358,0.0121927767623537,0.5,0.0250111091032837,0.495820004530986,0.330415216361107,2.95639462137695,0.5,92.6091803092866
CBC_1022,CBC_1022_MSI_TV_v3_Vset1_Tset1_2023-07-18_13h36.12.008.csv,1,30,1,0,z,0,1,3,tac,A,63,1,1A,0A,0,1,z,2.35810889999948,0,1,1,1,0A,1A,A10,3.11351530921037,0.524698331313996,0.475301668686004,0.463413846793526,0.5,0.475301668686004,0.536586153206474,0.5,0.487494445448358,0.487494445448358,0.487494445448358,0.536586153206474,0.487494445448358,0.487494445448358,0.5,0.487189490578483,0.548176647488599,0.549276426654923,0.450723573345077,0.524698331313996,0.475301668686004,0.131614354511322,0.524209909854784,0.475301668686004,0.0118878218924785,0.5,0.0250111091032837,0.495820004530986,0.330415216361107,2.95639462137695,0.5,92.6091803092866
CBC_1022,CBC_1022_MSI_TV_v3_Vset1_Tset1_2023-07-18_13h36.12.008.csv,1,31,2,0,b,1,0,2,tac,C,27,1,2C,0C,1,0,b,2.41943469999978,1,0,1,1,2C,0C,C20,3.13549421592915,0.536586153206474,0.475301668686004,0.463413846793526,0.5,0.475301668686004,0.536586153206474,0.5,0.487494445448358,0.487494445448358,0.487494445448358,0.536586153206474,0.487494445448358,0.487494445448358,0.5,0.487189490578483,0.548176647488599,0.549002028139963,0.450997971860037,0.536586153206474,0.487494445448358,0.127357817181357,0.525055076275585,0.463413846793526,0.0115904942821253,0.5,0.0250111091032837,0.495820004530986,0.330415216361107,2.95639462137695,0.5,92.6091803092866
CBC_1022,CBC_1022_MSI_TV_v3_Vset1_Tset1_2023-07-18_13h36.12.008.csv,1,32,0,1,b,1,0,3,tac,A,63,1,0A,1A,1,0,b,1.90789379999978,1,0,1,1,0A,1A,A01,2.46385324059017,0.536586153206474,0.475301668686004,0.463413846793526,0.5,0.475301668686004,0.536586153206474,0.5,0.487494445448358,0.487494445448358,0.487494445448358,0.548176647488599,0.487494445448358,0.487494445448358,0.5,0.487189490578483,0.548176647488599,0.561063771488732,0.438936228511268,0.536586153206474,0.475301668686004,0.170442578315791,0.528612200555804,0.463413846793526,0.0115904942821253,0.5,0.0250111091032837,0.495820004530986,0.330415216361107,2.95639462137695,0.5,92.6091803092866
CBC_1022,CBC_1022_MSI_TV_v3_Vset1_Tset1_2023-07-18_13h36.12.008.csv,1,33,0,1,z,0,1,1,tac,B,63,1,0B,1B,0,1,z,2.54128420000006,0,1,1,1,1B,0B,B01,2.26176309847379,0.548176647488599,0.475301668686004,0.463413846793526,0.5,0.475301668686004,0.536586153206474,0.5,0.487494445448358,0.487494445448358,0.487494445448358,0.548176647488599,0.487494445448358,0.487494445448358,0.5,0.487189490578483,0.548176647488599,0.561063771488732,0.438936228511268,0.536586153206474,0.475301668686004,0.11999977061328,0.529859604894104,0.463413846793526,0.0115904942821253,0.5,0.0250111091032837,0.495820004530986,0.330415216361107,2.95639462137695,0.5,92.6091803092866
CBC_1022,CBC_1022_MSI_TV_v3_Vset1_Tset1_2023-07-18_13h36.12.008.csv,1,34,2,3,z,0,1,0,tac,D,63,1,2D,3D,0,1,b,2.1315568999994,1,0,0,0,2D,3D,D23,2.50552593699074,0.548176647488599,0.475301668686004,0.463413846793526,0.5,0.475301668686004,0.548176647488599,0.5,0.487494445448358,0.487494445448358,0.487494445448358,0.548176647488599,0.487494445448358,0.487494445448358,0.5,0.487189490578483,0.548176647488599,0.439163029468751,0.560836970531249,0.487189490578483,0.548176647488599,0.13411734017544,0.47047524682788,-0.487189490578483,-0.0121851495028317,0.5,0.0250111091032837,0.495820004530986,0.330415216361107,2.95639462137695,0.5,92.6091803092866
CBC_1022,CBC_1022_MSI_TV_v3_Vset1_Tset1_2023-07-18_13h36.12.008.csv,1,35,1,3,b,1,0,1,tac,B,27,1,1B,3B,1,0,b,2.39294169999948,1,0,1,1,1B,3B,B13,2.81341071676004,0.548176647488599,0.475301668686004,0.463413846793526,0.5,0.475301668686004,0.548176647488599,0.5,0.487494445448358,0.487494445448358,0.487494445448358,0.548176647488599,0.487494445448358,0.487494445448358,0.5,0.475004341075651,0.548176647488599,0.560536315405869,0.439463684594131,0.548176647488599,0.487494445448358,0.13015367325435,0.528614385326266,0.451823352511401,0.0113006031650741,0.5,0.0250111091032837,0.495820004530986,0.330415216361107,2.95639462137695,0.5,92.6091803092866
CBC_1022,CBC_1022_MSI_TV_v3_Vset1_Tset1_2023-07-18_13h36.12.008.csv,1,36,2,3,b,1,0,2,tac,C,63,1,2C,3C,1,0,z,2.97239389999913,0,1,0,0,3C,2C,C23,2.83321334405622,0.548176647488599,0.475301668686004,0.463413846793526,0.5,0.475301668686004,0.559477250653673,0.5,0.487494445448358,0.487494445448358,0.487494445448358,0.548176647488599,0.487494445448358,0.487494445448358,0.5,0.475004341075651,0.548176647488599,0.439463684594131,0.560536315405869,0.487494445448358,0.548176647488599,0.0836494181482096,0.471184465525802,-0.487494445448358,-0.0121927767623537,0.5,0.0250111091032837,0.495820004530986,0.330415216361107,2.95639462137695,0.5,92.6091803092866
CBC_1022,CBC_1022_MSI_TV_v3_Vset1_Tset1_2023-07-18_13h36.12.008.csv,1,37,0,2,z,0,1,2,tac,C,27,1,0C,2C,0,1,b,2.38686919999918,1,0,0,0,0C,2C,C02,3.95124371858143,0.548176647488599,0.475301668686004,0.463413846793526,0.5,0.475301668686004,0.559477250653673,0.5,0.487494445448358,0.487494445448358,0.487494445448358,0.548176647488599,0.475301668686004,0.487494445448358,0.5,0.475004341075651,0.548176647488599,0.439463684594131,0.560536315405869,0.487494445448358,0.548176647488599,0.116278207594035,0.470643171720735,-0.487494445448358,-0.0121927767623537,0.5,0.0250111091032837,0.495820004530986,0.330415216361107,2.95639462137695,0.5,92.6091803092866
CBC_1022,CBC_1022_MSI_TV_v3_Vset1_Tset1_2023-07-18_13h36.12.008.csv,1,38,0,1,z,0,1,1,tac,B,63,1,0B,1B,0,1,z,3.12484379999978,0,1,1,1,1B,0B,B01,2.17853244432407,0.548176647488599,0.475301668686004,0.463413846793526,0.5,0.475301668686004,0.559477250653673,0.5,0.487494445448358,0.475301668686004,0.487494445448358,0.548176647488599,0.475301668686004,0.487494445448358,0.5,0.475004341075651,0.548176647488599,0.583683859345039,0.416316140654961,0.559477250653673,0.475301668686004,0.0880183853555173,0.540593426012364,0.440522749346327,0.0110179625463795,0.5,0.0250111091032837,0.495820004530986,0.330415216361107,2.95639462137695,0.5,92.6091803092866
CBC_1022,CBC_1022_MSI_TV_v3_Vset1_Tset1_2023-07-18_13h36.12.008.csv,1,39,0,3,b,1,0,3,tac,A,9,1,0A,3A,1,0,b,2.46242889999894,1,0,1,1,0A,3A,A03,3.98898404656427,0.548176647488599,0.475301668686004,0.463413846793526,0.5,0.475301668686004,0.570495213200053,0.5,0.487494445448358,0.475301668686004,0.487494445448358,0.548176647488599,0.475301668686004,0.487494445448358,0.5,0.475004341075651,0.548176647488599,0.548176647488599,0.451823352511401,0.548176647488599,0.5,0.123823898674238,0.523005932910135,0.451823352511401,0.0113006031650741,0.5,0.0250111091032837,0.495820004530986,0.330415216361107,2.95639462137695,0.5,92.6091803092866
CBC_1022,CBC_1022_MSI_TV_v3_Vset1_Tset1_2023-07-18_13h36.12.008.csv,1,40,2,3,b,1,0,2,tac,C,63,0,2C,3C,0,1,b,2.46913579999955,1,0,1,0,2C,3C,C23,2.62103882411258,0.559477250653673,0.475301668686004,0.463413846793526,0.5,0.475301668686004,0.570495213200053,0.5,0.487494445448358,0.475301668686004,0.487494445448358,0.548176647488599,0.475301668686004,0.487494445448358,0.5,0.475004341075651,0.548176647488599,0.572529771093777,0.427470228906223,0.548176647488599,0.475301668686004,0.12629612616685,0.535392552537885,-0.548176647488599,-0.0137105059382097,0.5,0.0250111091032837,0.495820004530986,0.330415216361107,2.95639462137695,0.5,92.6091803092866
CBC_1022,CBC_1022_MSI_TV_v3_Vset1_Tset1_2023-07-18_13h36.12.008.csv,1,41,0,1,b,1,0,3,tac,A,63,1,0A,1A,1,0,z,3.04731539999966,0,1,0,0,1A,0A,A01,2.41591377830105,0.559477250653673,0.475301668686004,0.463413846793526,0.5,0.475301668686004,0.570495213200053,0.5,0.487494445448358,0.475301668686004,0.487494445448358,0.53446614155039,0.475301668686004,0.487494445448358,0.5,0.475004341075651,0.548176647488599,0.416316140654961,0.583683859345039,0.475301668686004,0.559477250653673,0.0782374616413227,0.459884551269734,-0.475301668686004,-0.0118878218924785,0.5,0.0250111091032837,0.495820004530986,0.330415216361107,2.95639462137695,0.5,92.6091803092866
CBC_1022,CBC_1022_MSI_TV_v3_Vset1_Tset1_2023-07-18_13h36.12.008.csv,1,42,2,3,z,0,1,0,tac,D,63,1,2D,3D,0,1,z,2.71819350000033,0,1,1,1,3D,2D,D23,2.43361335540045,0.559477250653673,0.463413846793526,0.463413846793526,0.5,0.475301668686004,0.570495213200053,0.5,0.487494445448358,0.475301668686004,0.487494445448358,0.53446614155039,0.475301668686004,0.487494445448358,0.5,0.475004341075651,0.548176647488599,0.572821537577543,0.427178462422457,0.548176647488599,0.475004341075651,0.109528455165953,0.534421960225165,0.451823352511401,0.0113006031650741,0.5,0.0250111091032837,0.495820004530986,0.330415216361107,2.95639462137695,0.5,92.6091803092866
CBC_1022,CBC_1022_MSI_TV_v3_Vset1_Tset1_2023-07-18_13h36.12.008.csv,1,43,3,2,z,0,1,2,tac,C,63,1,3C,2C,0,1,b,2.53661479999982,1,0,0,0,3C,2C,C32,2.96183072187831,0.559477250653673,0.463413846793526,0.463413846793526,0.5,0.475301668686004,0.570495213200053,0.5,0.487494445448358,0.475301668686004,0.487494445448358,0.53446614155039,0.475301668686004,0.487494445448358,0.5,0.475004341075651,0.559477250653673,0.44103629999246,0.55896370000754,0.475301668686004,0.53446614155039,0.107047794207767,0.471431360504939,-0.475301668686004,-0.0118878218924785,0.5,0.0250111091032837,0.495820004530986,0.330415216361107,2.95639462137695,0.5,92.6091803092866
CBC_1022,CBC_1022_MSI_TV_v3_Vset1_Tset1_2023-07-18_13h36.12.008.csv,1,44,3,1,b,1,0,0,tac,D,27,1,3D,1D,1,0,z,2.63015120000045,0,1,0,0,1D,3D,D31,3.38439026334577,0.559477250653673,0.463413846793526,0.463413846793526,0.5,0.475301668686004,0.570495213200053,0.5,0.487494445448358,0.475301668686004,0.487494445448358,0.53446614155039,0.463413846793526,0.487494445448358,0.5,0.475004341075651,0.559477250653673,0.440522749346327,0.559477250653673,0.5,0.559477250653673,0.10163967850602,0.471873892466051,-0.5,-0.0125055545516419,0.5,0.0250111091032837,0.495820004530986,0.330415216361107,2.95639462137695,0.5,92.6091803092866
CBC_1022,CBC_1022_MSI_AV_v3_Vset4_Aset1_2023-07-18_13h44.55.295.csv,2,1,0,1,b,1,0,3,aud,A,63,1,0A,1A,1,0,z,2.37517919999937,0,1,0,0,1A,0A,A01,2.77258872223978,0.5,0.5,0.5,0.5,0.5,0.5,0.5,0.5,0.5,0.5,0.5,0.5,0.5,0.5,0.5,0.5,0.5,0.5,0.5,0.5,0.183479845310079,0.500731929172032,-0.5,-0.5,0.5,1,1.09847464241167,0.109563031795075,2.52905411192998,0.5,68.2287177875703
CBC_1022,CBC_1022_MSI_AV_v3_Vset4_Aset1_2023-07-18_13h44.55.295.csv,2,2,2,3,b,1,0,2,aud,C,63,1,2C,3C,1,0,b,2.48816729999908,1,0,1,1,2C,3C,C23,2.83321334405622,0.5,0,0.5,0.5,0.5,0.5,0.5,0.5,0.5,0.5,0.5,0.5,0.5,0.5,0.5,0.5,0.5,0.5,0.5,0.5,0.168041223792931,0.500085604588085,0.5,0.5,0.5,1,1.09847464241167,0.109563031795075,2.52905411192998,0.5,68.2287177875703
CBC_1022,CBC_1022_MSI_AV_v3_Vset4_Aset1_2023-07-18_13h44.55.295.csv,2,3,2,0,z,0,1,3,aud,A,27,1,2A,0A,0,1,b,2.56537929999922,1,0,0,0,2A,0A,A20,2.89037175789616,0.5,0,0.5,0.5,0.5,0.5,0.5,0.5,0.5,0.5,1,0.5,0.5,0.5,0.5,0.5,0.5,0.5,0.5,0.5,0.158600272239824,0.500853731334985,-0.5,-0.5,0.5,1,1.09847464241167,0.109563031795075,2.52905411192998,0.5,68.2287177875703
CBC_1022,CBC_1022_MSI_AV_v3_Vset4_Aset1_2023-07-18_13h44.55.295.csv,2,4,0,1,z,0,1,1,aud,B,63,1,0B,1B,0,1,z,2.6163751999984,0,1,1,1,1B,0B,B01,2.94443897916644,0.5,0,0,0.5,0.5,0.5,0.5,0.5,0.5,0.5,1,0.5,0.5,0.5,0.5,0.5,0.5,0.5,0.5,0.5,0.152296161172094,0.500198210105893,0.5,0.5,0.5,1,1.09847464241167,0.109563031795075,2.52905411192998,0.5,68.2287177875703
CBC_1022,CBC_1022_MSI_AV_v3_Vset4_Aset1_2023-07-18_13h44.55.295.csv,2,5,3,2,b,1,0,0,aud,D,63,1,3D,2D,1,0,b,2.22103229999902,1,0,1,1,3D,2D,D32,2.99573227355399,0.5,0,0,0.5,0.5,1,0.5,0.5,0.5,0.5,1,0.5,0.5,0.5,0.5,0.5,0.5,0.5,0.5,0.5,0.205868258351458,0.499736252755311,0.5,0.5,0.5,1,1.09847464241167,0.109563031795075,2.52905411192998,0.5,68.2287177875703
CBC_1022,CBC_1022_MSI_AV_v3_Vset4_Aset1_2023-07-18_13h44.55.295.csv,2,6,2,1,z,0,1,1,aud,B,9,1,2B,1B,0,1,z,2.57462739999937,0,1,1,1,1B,2B,B21,3.04452243772342,0.5,0,0,0.5,0.5,1,0.5,0.5,0.5,0.5,1,0.5,0.5,0.5,0.5,1,1,0,1,0.5,0.178889293089195,0.568560949526614,0,0,0.5,1,1.09847464241167,0.109563031795075,2.52905411192998,0.5,68.2287177875703
CBC_1022,CBC_1022_MSI_AV_v3_Vset4_Aset1_2023-07-18_13h44.55.295.csv,2,7,3,1,b,1,0,0,aud,D,27,1,3D,1D,1,0,b,2.5777349,1,0,1,1,3D,1D,D31,3.09104245335832,0.5,0,0,0.5,0.5,1,0.5,0.5,0.5,0.5,1,0.5,0.5,0.5,0.5,1,1,0,1,0.5,0.178474257393044,0.568609865203517,0,0,0.5,1,1.09847464241167,0.109563031795075,2.52905411192998,0.5,68.2287177875703
CBC_1022,CBC_1022_MSI_AV_v3_Vset4_Aset1_2023-07-18_13h44.55.295.csv,2,8,0,1,b,1,0,3,aud,A,63,1,0A,1A,1,0,z,2.37503889999971,0,1,0,0,1A,0A,A01,2.4423470353692,0.5,0,0,0.5,0.5,1,0.5,0.5,0.5,0.5,1,0.5,0.5,0.5,0.5,1,0,1,0,0.5,0.158093049886595,0.430567754159376,0,0,0.5,1,1.09847464241167,0.109563031795075,2.52905411192998,0.5,68.2287177875703
CBC_1022,CBC_1022_MSI_AV_v3_Vset4_Aset1_2023-07-18_13h44.55.295.csv,2,9,1,0,z,0,1,3,aud,A,63,1,1A,0A,0,1,b,2.30635139999958,1,0,0,0,1A,0A,A10,3.17805383034795,0.5,0,0,0.5,0.5,1,0.5,0.5,0.5,0.5,1,0.5,0.5,0.5,0.5,1,0,1,0,0.5,0.166947434195682,0.431314099620854,0,0,0.5,1,1.09847464241167,0.109563031795075,2.52905411192998,0.5,68.2287177875703
CBC_1022,CBC_1022_MSI_AV_v3_Vset4_Aset1_2023-07-18_13h44.55.295.csv,2,10,0,2,z,0,1,2,aud,C,27,1,0C,2C,0,1,z,2.40748389999862,0,1,1,1,2C,0C,C02,3.2188758248682,0.5,0,0,0.5,0.5,1,0.5,0.5,0.5,0.5,1,0.5,0.5,0.5,0.5,1,1,0,1,0.5,0.203897694533142,0.569390003004719,0,0,0.5,1,1.09847464241167,0.109563031795075,2.52905411192998,0.5,68.2287177875703
CBC_1022,CBC_1022_MSI_AV_v3_Vset4_Aset1_2023-07-18_13h44.55.295.csv,2,11,1,0,b,1,0,1,aud,B,63,1,1B,0B,1,0,z,2.60643809999965,0,1,0,0,0B,1B,B10,3.25809653802148,0.5,0,0,0.5,0.5,1,0.5,0.5,0.5,0.5,1,0.5,0.5,0.5,0.5,1,0,1,0.5,1,0.132544175928937,0.431788384216461,-0.5,-0.5,0.5,1,1.09847464241167,0.109563031795075,2.52905411192998,0.5,68.2287177875703
CBC_1022,CBC_1022_MSI_AV_v3_Vset4_Aset1_2023-07-18_13h44.55.295.csv,2,12,1,0,z,0,1,3,aud,A,63,1,1A,0A,0,1,b,2.44906489999994,1,0,0,0,1A,0A,A10,2.60268968544438,0.5,0,0,0.5,0,1,0.5,0.5,0.5,0.5,1,0.5,0.5,0.5,0.5,1,0,1,0,0.5,0.149288239384799,0.430499272013599,0,0,0.5,1,1.09847464241167,0.109563031795075,2.52905411192998,0.5,68.2287177875703
CBC_1022,CBC_1022_MSI_AV_v3_Vset4_Aset1_2023-07-18_13h44.55.295.csv,2,13,2,3,b,1,0,2,aud,C,63,1,2C,3C,1,0,z,2.38543129999925,0,1,0,0,3C,2C,C23,2.63905732961526,0.5,0,0,0.5,0,1,0.5,0.5,0.5,0.5,1,0.5,0.5,0.5,0.5,1,0,1,0.5,1,0.156680376401125,0.430142608852152,-0.5,-0.5,0.5,1,1.09847464241167,0.109563031795075,2.52905411192998,0.5,68.2287177875703
CBC_1022,CBC_1022_MSI_AV_v3_Vset4_Aset1_2023-07-18_13h44.55.295.csv,2,14,2,0,z,0,1,3,aud,A,27,1,2A,0A,0,1,b,2.08566399999927,1,0,0,0,2A,0A,A20,2.67414864942653,0.5,0,0,0.5,0,1,0.5,0.5,0.5,0.5,1,0,0.5,0.5,0.5,1,0,1,0,0.5,0.196609847956879,0.429967517496297,0,0,0.5,1,1.09847464241167,0.109563031795075,2.52905411192998,0.5,68.2287177875703
CBC_1022,CBC_1022_MSI_AV_v3_Vset4_Aset1_2023-07-18_13h44.55.295.csv,2,15,0,1,z,0,1,1,aud,B,63,1,0B,1B,0,1,z,2.52400699999907,0,1,1,1,1B,0B,B01,2.70805020110221,0.5,0,0,0.5,0,1,0.5,0.5,0.5,0.5,1,0,0.5,0.5,0.5,1,1,0,1,0,0.186151671107584,0.568874053505296,0,0,0.5,1,1.09847464241167,0.109563031795075,2.52905411192998,0.5,68.2287177875703
CBC_1022,CBC_1022_MSI_AV_v3_Vset4_Aset1_2023-07-18_13h44.55.295.csv,2,16,1,0,b,1,0,1,aud,B,63,1,1B,0B,1,0,b,2.64442309999959,1,0,1,1,1B,0B,B10,2.7408400239252,0.5,0,0,0.5,0,1,0.5,0.5,0.5,0.5,1,0,0.5,0.5,0.5,1,1,0,1,0,0.169488759013672,0.568656416701587,0,0,0.5,1,1.09847464241167,0.109563031795075,2.52905411192998,0.5,68.2287177875703
CBC_1022,CBC_1022_MSI_AV_v3_Vset4_Aset1_2023-07-18_13h44.55.295.csv,2,17,2,3,b,1,0,2,aud,C,63,1,2C,3C,1,0,z,2.33843139999954,0,1,0,0,3C,2C,C23,2.36712361413162,0.5,0,0,0.5,0,1,0.5,0.5,0.5,0.5,1,0,0.5,0.5,0.5,1,0,1,0,1,0.162643568268356,0.430655413345728,0,0,0.5,1,1.09847464241167,0.109563031795075,2.52905411192998,0.5,68.2287177875703
CBC_1022,CBC_1022_MSI_AV_v3_Vset4_Aset1_2023-07-18_13h44.55.295.csv,2,18,1,3,z,0,1,0,aud,D,27,1,1D,3D,0,1,b,2.43688339999881,1,0,0,0,1D,3D,D13,3.49650756146648,0.5,0,0,0.5,0,1,0.5,0.5,0.5,0.5,1,0,0.5,0.5,0.5,1,0,1,0.5,1,0.151101318505286,0.431666026718599,-0.5,-0.5,0.5,1,1.09847464241167,0.109563031795075,2.52905411192998,0.5,68.2287177875703
CBC_1022,CBC_1022_MSI_AV_v3_Vset4_Aset1_2023-07-18_13h44.55.295.csv,2,19,2,1,b,1,0,2,aud,C,9,1,2C,1C,1,0,z,2.42348799999854,0,1,0,0,1C,2C,C21,3.52636052461616,0.5,0,0,0.5,0,1,0.5,0.5,0.5,0.5,1,0,0.5,0,0.5,1,0,1,0.5,1,0.152156918765739,0.430177106746663,-0.5,-0.5,0.5,1,1.09847464241167,0.109563031795075,2.52905411192998,0.5,68.2287177875703
CBC_1022,CBC_1022_MSI_AV_v3_Vset4_Aset1_2023-07-18_13h44.55.295.csv,2,20,1,3,b,1,0,1,aud,B,27,1,1B,3B,1,0,b,2.67926899999929,1,0,1,1,1B,3B,B13,3.55534806148941,0.5,0,0,0.5,0,1,0.5,0.5,0.5,0,1,0,0.5,0,0.5,1,1,0,1,0.5,0.16482460423378,0.56817160476282,0,0,0.5,1,1.09847464241167,0.109563031795075,2.52905411192998,0.5,68.2287177875703
CBC_1022,CBC_1022_MSI_AV_v3_Vset4_Aset1_2023-07-18_13h44.55.295.csv,2,21,2,3,z,0,1,0,aud,D,63,1,2D,3D,0,1,z,2.31008999999904,0,1,1,1,3D,2D,D23,3.58351893845611,0.5,0,0,0.5,0,1,0.5,0.5,0.5,0,1,0,0.5,0,0.5,1,1,0,1,0.5,0.219950030415586,0.569835675839839,0,0,0.5,1,1.09847464241167,0.109563031795075,2.52905411192998,0.5,68.2287177875703
CBC_1022,CBC_1022_MSI_AV_v3_Vset4_Aset1_2023-07-18_13h44.55.295.csv,2,22,0,1,z,0,1,1,aud,B,63,0,0B,1B,1,0,b,2.75126249999994,1,0,0,1,0B,1B,B01,2.51230562397611,0.5,0,0,0.5,0,1,0.5,0.5,0.5,0,1,0,0.5,0,0.5,1,0,1,0,1,0.118151754272126,0.43070815513276,1,1,0.5,1,1.09847464241167,0.109563031795075,2.52905411192998,0.5,68.2287177875703
CBC_1022,CBC_1022_MSI_AV_v3_Vset4_Aset1_2023-07-18_13h44.55.295.csv,2,23,0,3,b,1,0,3,aud,A,9,1,0A,3A,1,0,z,2.05466869999964,0,1,0,0,3A,0A,A03,3.63758615972639,0.5,0,0,0.5,1,1,0.5,0.5,0.5,0,1,0,0.5,0,0.5,1,0.5,0.5,0.5,0.5,0.232519639158754,0.499075783918384,-0.5,-0.5,0.5,1,1.09847464241167,0.109563031795075,2.52905411192998,0.5,68.2287177875703
CBC_1022,CBC_1022_MSI_AV_v3_Vset4_Aset1_2023-07-18_13h44.55.295.csv,2,24,3,2,b,1,0,0,aud,D,63,1,3D,2D,1,0,z,2.38792429999921,0,1,0,0,2D,3D,D32,2.9704144655697,0.5,0,0,0,1,1,0.5,0.5,0.5,0,1,0,0.5,0,0.5,1,0,1,0.5,1,0.156373071903415,0.430124685970004,-0.5,-0.5,0.5,1,1.09847464241167,0.109563031795075,2.52905411192998,0.5,68.2287177875703
CBC_1022,CBC_1022_MSI_AV_v3_Vset4_Aset1_2023-07-18_13h44.55.295.csv,2,25,3,1,z,0,1,1,aud,B,27,1,3B,1B,0,1,b,1.88349989999915,1,0,0,0,3B,1B,B31,3.68887945411394,0.5,0,0,0,1,1,0.5,0.5,0.5,0,1,0,0.5,0,0,1,0,1,0.5,1,0.227333334670683,0.432282284397064,-0.5,-0.5,0.5,1,1.09847464241167,0.109563031795075,2.52905411192998,0.5,68.2287177875703
CBC_1022,CBC_1022_MSI_AV_v3_Vset4_Aset1_2023-07-18_13h44.55.295.csv,2,26,3,2,z,0,1,2,aud,C,63,1,3C,2C,0,1,b,2.52796489999946,1,0,0,0,3C,2C,C32,3.71357206670431,0.5,0,0,0,1,1,0.5,0,0.5,0,1,0,0.5,0,0,1,0,1,0,1,0.140771377691688,0.431519184003198,0,0,0.5,1,1.09847464241167,0.109563031795075,2.52905411192998,0.5,68.2287177875703
CBC_1022,CBC_1022_MSI_AV_v3_Vset4_Aset1_2023-07-18_13h44.55.295.csv,2,27,0,2,z,0,1,2,aud,C,27,1,0C,2C,0,1,z,2.89382739999928,0,1,1,1,2C,0C,C02,3.04452243772342,0.5,0,0,0,1,1,0.5,0,0.5,0,1,0,0.5,0,0,1,1,0,1,0.5,0.139706319881496,0.568946325481284,0,0,0.5,1,1.09847464241167,0.109563031795075,2.52905411192998,0.5,68.2287177875703
CBC_1022,CBC_1022_MSI_AV_v3_Vset4_Aset1_2023-07-18_13h44.55.295.csv,2,28,1,0,b,1,0,1,aud,B,63,1,1B,0B,1,0,b,2.76276639999924,1,0,1,1,1B,0B,B10,2.66258782702545,0.5,0,0,0,1,1,0.5,0,0.5,0,1,0,0.5,0,0,1,NaN,NaN,1,1,NaN,NaN,0,0,0.5,1,1.09847464241167,0.109563031795075,2.52905411192998,0.5,68.2287177875703
CBC_1022,CBC_1022_MSI_AV_v3_Vset4_Aset1_2023-07-18_13h44.55.295.csv,2,29,3,2,z,0,1,2,aud,C,63,1,3C,2C,0,1,z,2.4173697999986,0,1,1,1,2C,3C,C32,3.09104245335832,0.5,0,0,0,1,1,0.5,0,0.5,0,1,0,0.5,0,0,1,1,0,1,0,0.202267185633101,0.569170385565534,0,0,0.5,1,1.09847464241167,0.109563031795075,2.52905411192998,0.5,68.2287177875703
CBC_1022,CBC_1022_MSI_AV_v3_Vset4_Aset1_2023-07-18_13h44.55.295.csv,2,30,0,1,b,1,0,3,aud,A,63,1,0A,1A,1,0,b,2.21809940000003,1,0,1,1,0A,1A,A01,2.70805020110221,0.5,0,0,0,1,1,0.5,0,0.5,0,1,0,0.5,0,0,1,1,0,0.5,0,0.235677973493269,0.569195757184808,0.5,0.5,0.5,1,1.09847464241167,0.109563031795075,2.52905411192998,0.5,68.2287177875703
CBC_1022,CBC_1022_MSI_AV_v3_Vset4_Aset1_2023-07-18_13h44.55.295.csv,2,31,3,2,b,1,0,0,aud,D,63,1,3D,2D,1,0,b,2.48921579999933,1,0,1,1,3D,2D,D32,2.73002910782099,1,0,0,0,1,1,0.5,0,0.5,0,1,0,0.5,0,0,1,1,0,1,0,0.191179532251047,0.568711268040725,0,0,0.5,1,1.09847464241167,0.109563031795075,2.52905411192998,0.5,68.2287177875703
CBC_1022,CBC_1022_MSI_AV_v3_Vset4_Aset1_2023-07-18_13h44.55.295.csv,2,32,3,2,z,0,1,2,aud,C,63,1,3C,2C,0,1,z,2.31592289999935,0,1,1,1,2C,3C,C32,2.75153531304195,1,0,0,0,1,1,0.5,0,0.5,0,1,0,0.5,0,0,1,1,0,1,0,0.218424039518484,0.568472019708759,0,0,0.5,1,1.09847464241167,0.109563031795075,2.52905411192998,0.5,68.2287177875703
CBC_1022,CBC_1022_MSI_AV_v3_Vset4_Aset1_2023-07-18_13h44.55.295.csv,2,33,1,3,z,0,1,0,aud,D,27,1,1D,3D,0,1,b,2.03532069999892,1,0,0,0,1D,3D,D13,3.17805383034795,1,0,0,0,1,1,0.5,0,0.5,0,1,0,0.5,0,0,1,0,1,0,1,0.204254878086828,0.43063876630474,0,0,0.5,1,1.09847464241167,0.109563031795075,2.52905411192998,0.5,68.2287177875703
CBC_1022,CBC_1022_MSI_AV_v3_Vset4_Aset1_2023-07-18_13h44.55.295.csv,2,34,2,0,b,1,0,2,aud,C,27,1,2C,0C,1,0,z,2.41926629999944,0,1,0,0,0C,2C,C20,3.89182029811063,1,0,0,0,1,1,0.5,0,0.5,0,1,0,0.5,0,0,1,0,1,0.5,1,0.15329283405738,0.432015216526936,-0.5,-0.5,0.5,1,1.09847464241167,0.109563031795075,2.52905411192998,0.5,68.2287177875703
CBC_1022,CBC_1022_MSI_AV_v3_Vset4_Aset1_2023-07-18_13h44.55.295.csv,2,35,3,2,b,1,0,0,aud,D,63,0,3D,2D,0,1,z,2.43097969999872,0,1,0,1,2D,3D,D32,2.52572864430826,1,0,0,0,1,1,0.5,0,0,0,1,0,0.5,0,0,1,0,1,0,1,0.151885404736104,0.431936705420123,1,1,0.5,1,1.09847464241167,0.109563031795075,2.52905411192998,0.5,68.2287177875703
CBC_1022,CBC_1022_MSI_AV_v3_Vset4_Aset1_2023-07-18_13h44.55.295.csv,2,36,0,1,b,1,0,3,aud,A,63,1,0A,1A,1,0,b,3.36003859999892,1,0,1,1,0A,1A,A01,2.54553127160444,1,0,0,0,1,1,0.5,0,0,0,1,0,0.5,0,1,1,1,0,1,0,0.0971346968582547,0.568346729812445,0,0,0.5,1,1.09847464241167,0.109563031795075,2.52905411192998,0.5,68.2287177875703
CBC_1022,CBC_1022_MSI_AV_v3_Vset4_Aset1_2023-07-18_13h44.55.295.csv,2,37,3,2,z,0,1,2,aud,C,63,1,3C,2C,0,1,b,2.21212989999913,1,0,0,0,3C,2C,C32,2.56494935746154,1,0,0,0,1,1,0.5,0,0,0,1,0,0.5,0,1,1,0,1,0,1,0.179445115099057,0.431450363858642,0,0,0.5,1,1.09847464241167,0.109563031795075,2.52905411192998,0.5,68.2287177875703
CBC_1022,CBC_1022_MSI_AV_v3_Vset4_Aset1_2023-07-18_13h44.55.295.csv,2,38,2,0,z,0,1,3,aud,A,27,1,2A,0A,0,1,z,2.10371219999979,0,1,1,1,0A,2A,A20,2.87167962488401,1,0,0,0,1,1,0.5,0,0,0,1,0,0.5,0,1,1,1,0,1,0,0.256641031337156,0.568845219146995,0,0,0.5,1,1.09847464241167,0.109563031795075,2.52905411192998,0.5,68.2287177875703
CBC_1022,CBC_1022_MSI_AV_v3_Vset4_Aset1_2023-07-18_13h44.55.295.csv,2,39,3,2,b,1,0,0,aud,D,63,1,3D,2D,1,0,b,2.06390839999949,1,0,1,1,3D,2D,D32,2.37954613413017,1,0,0,0,1,1,0.5,0,0,0,1,0,0.5,0,1,1,NaN,NaN,1,1,NaN,NaN,0,0,0.5,1,1.09847464241167,0.109563031795075,2.52905411192998,0.5,68.2287177875703
CBC_1022,CBC_1022_MSI_AV_v3_Vset4_Aset1_2023-07-18_13h44.55.295.csv,2,40,2,3,z,0,1,0,aud,D,63,1,2D,3D,0,1,b,2.39348449999943,1,0,0,0,2D,3D,D23,3.31418600467253,1,0,0,0,1,1,0.5,0,0,0,1,0,0.5,0,1,1,NaN,NaN,1,1,NaN,NaN,-1,-1,0.5,1,1.09847464241167,0.109563031795075,2.52905411192998,0.5,68.2287177875703
CBC_1022,CBC_1022_MSI_AV_v3_Vset4_Aset1_2023-07-18_13h44.55.295.csv,2,41,1,3,b,1,0,1,aud,B,27,1,1B,3B,1,0,z,2.44307709999885,0,1,0,0,3B,1B,B13,3.3322045101752,1,0,0,0,1,1,0.5,0,0,0,1,0,0.5,0,0,1,0,1,0,1,0.150488498070715,0.431983767644977,0,0,0.5,1,1.09847464241167,0.109563031795075,2.52905411192998,0.5,68.2287177875703
CBC_1022,CBC_1022_MSI_AV_v3_Vset4_Aset1_2023-07-18_13h44.55.295.csv,2,42,0,3,z,0,1,0,aud,D,9,1,0D,3D,0,1,b,2.47795849999966,1,0,0,0,0D,3D,D03,4.04305126783455,1,0,0,0,1,1,0.5,0,0,0,1,0,0.5,0,0,1,0,1,0.5,1,0.146647789246463,0.432475124353633,-0.5,-0.5,0.5,1,1.09847464241167,0.109563031795075,2.52905411192998,0.5,68.2287177875703
CBC_1022,CBC_1022_MSI_AV_v3_Vset4_Aset1_2023-07-18_13h44.55.295.csv,2,43,1,0,b,1,0,1,aud,B,63,1,1B,0B,1,0,z,2.72351199999957,0,1,0,0,0B,1B,B10,2.67414864942653,1,0,0,0,1,1,0.5,0,0,0,1,0,0,0,0,1,NaN,NaN,1,1,NaN,NaN,-1,-1,0.5,1,1.09847464241167,0.109563031795075,2.52905411192998,0.5,68.2287177875703
CBC_1022,CBC_1022_MSI_AV_v3_Vset4_Aset1_2023-07-18_13h44.55.295.csv,2,44,1,0,z,0,1,3,aud,A,63,1,1A,0A,0,1,b,2.19975919999888,1,0,0,0,1A,0A,A10,2.97892515523761,1,0,0,0,0,1,0.5,0,0,0,1,0,0,0,0,1,0,1,0,1,0.181498461912338,0.432350229187204,0,0,0.5,1,1.09847464241167,0.109563031795075,2.52905411192998,0.5,68.2287177875703
CBC_1022,CBC_1022_MSI_TV_v3_Vset3_Tset3_2023-07-18_15h32.56.687.csv,3,1,1,0,b,1,0,1,tac,B,63,1,1B,0B,1,0,z,2.35119350000059,0,1,0,0,0B,1B,B10,2.77258872223978,0.5,0.5,0.5,0.5,0.5,0.5,0.5,0.5,0.5,0.5,0.5,0.5,0.5,0.5,0.5,0.5,0.5,0.5,0.5,0.5,0.184323244035443,0.499954713382998,-0.5,-0.0285376330236182,0.5,0.0570752660472363,1.08647676838042,0.641095187622419,2.59374453653775,0.5,74.807089175353
CBC_1022,CBC_1022_MSI_TV_v3_Vset3_Tset3_2023-07-18_15h32.56.687.csv,3,2,3,2,b,1,0,0,tac,D,63,1,3D,2D,1,0,b,2.79892680000012,1,0,1,1,3D,2D,D32,2.83321334405622,0.5,0.5,0.5,0.5,0.471462366976382,0.5,0.5,0.5,0.5,0.5,0.5,0.5,0.5,0.5,0.5,0.5,0.5,0.5,0.5,0.5,0.132897991251135,0.499778916672227,0.5,0.0285376330236182,0.5,0.0570752660472363,1.08647676838042,0.641095187622419,2.59374453653775,0.5,74.807089175353
CBC_1022,CBC_1022_MSI_TV_v3_Vset3_Tset3_2023-07-18_15h32.56.687.csv,3,3,3,1,z,0,1,1,tac,B,27,1,3B,1B,0,1,z,2.30700509999951,0,1,1,1,1B,3B,B31,2.89037175789616,0.5,0.5,0.5,0.5,0.471462366976382,0.5,0.5,0.5,0.5,0.5,0.5,0.5,0.5,0.5,0.5,0.528537633023618,0.5,0.5,0.5,0.5,0.18983350868817,0.498743583987803,0.5,0.0285376330236182,0.5,0.0570752660472363,1.08647676838042,0.641095187622419,2.59374453653775,0.5,74.807089175353
CBC_1022,CBC_1022_MSI_TV_v3_Vset3_Tset3_2023-07-18_15h32.56.687.csv,3,4,2,3,b,1,0,2,tac,C,63,1,2C,3C,1,0,b,2.4456054000002,1,0,1,1,2C,3C,C23,2.94443897916644,0.5,0.5,0.5,0.5,0.471462366976382,0.528537633023618,0.5,0.5,0.5,0.5,0.5,0.5,0.5,0.5,0.5,0.528537633023618,0.5,0.5,0.5,0.5,0.171956663080932,0.499475256441359,0.5,0.0285376330236182,0.5,0.0570752660472363,1.08647676838042,0.641095187622419,2.59374453653775,0.5,74.807089175353
CBC_1022,CBC_1022_MSI_TV_v3_Vset3_Tset3_2023-07-18_15h32.56.687.csv,3,5,0,2,z,0,1,2,tac,C,27,1,0C,2C,0,1,b,1.93832679999832,1,0,0,0,0C,2C,C02,2.99573227355399,0.5,0.5,0.5,0.5,0.471462366976382,0.528537633023618,0.5,0.5,0.5,0.5,0.528537633023618,0.5,0.5,0.5,0.5,0.528537633023618,0.471462366976382,0.528537633023618,0.5,0.528537633023618,0.233937965706801,0.477313336849317,-0.5,-0.0285376330236182,0.5,0.0570752660472363,1.08647676838042,0.641095187622419,2.59374453653775,0.5,74.807089175353
CBC_1022,CBC_1022_MSI_TV_v3_Vset3_Tset3_2023-07-18_15h32.56.687.csv,3,6,0,3,b,1,0,3,tac,A,9,1,0A,3A,1,0,b,2.2878395000007,1,0,1,1,0A,3A,A03,3.04452243772342,0.5,0.5,0.5,0.5,0.471462366976382,0.528537633023618,0.5,0.5,0.471462366976382,0.5,0.528537633023618,0.5,0.5,0.5,0.5,0.528537633023618,0.5,0.5,0.5,0.5,0.192874674014002,0.499798603160572,0.5,0.0285376330236182,0.5,0.0570752660472363,1.08647676838042,0.641095187622419,2.59374453653775,0.5,74.807089175353
CBC_1022,CBC_1022_MSI_TV_v3_Vset3_Tset3_2023-07-18_15h32.56.687.csv,3,7,2,3,b,1,0,2,tac,C,63,1,2C,3C,1,0,z,2.58219479999934,0,1,0,0,3C,2C,C23,2.39789527279837,0.528537633023618,0.5,0.5,0.5,0.471462366976382,0.528537633023618,0.5,0.5,0.471462366976382,0.5,0.528537633023618,0.5,0.5,0.5,0.5,0.528537633023618,0.471462366976382,0.528537633023618,0.5,0.528537633023618,0.148849453870199,0.477594962086917,-0.5,-0.0285376330236182,0.5,0.0570752660472363,1.08647676838042,0.641095187622419,2.59374453653775,0.5,74.807089175353
CBC_1022,CBC_1022_MSI_TV_v3_Vset3_Tset3_2023-07-18_15h32.56.687.csv,3,8,1,0,z,0,1,3,tac,A,63,1,1A,0A,0,1,z,2.4204232000011,0,1,1,1,0A,1A,A10,3.13549421592915,0.528537633023618,0.5,0.5,0.5,0.471462366976382,0.528537633023618,0.5,0.5,0.471462366976382,0.5,0.528537633023618,0.471462366976382,0.5,0.5,0.5,0.528537633023618,0.528537633023618,0.471462366976382,0.528537633023618,0.5,0.183787212731854,0.524029563161086,0.471462366976382,0.0269088400264368,0.5,0.0570752660472363,1.08647676838042,0.641095187622419,2.59374453653775,0.5,74.807089175353
CBC_1022,CBC_1022_MSI_TV_v3_Vset3_Tset3_2023-07-18_15h32.56.687.csv,3,9,2,3,z,0,1,0,tac,D,63,1,2D,3D,0,1,z,2.95001100000081,0,1,1,1,3D,2D,D23,3.17805383034795,0.555446473050055,0.5,0.5,0.5,0.471462366976382,0.528537633023618,0.5,0.5,0.471462366976382,0.5,0.528537633023618,0.471462366976382,0.5,0.5,0.5,0.528537633023618,0.528537633023618,0.471462366976382,0.528537633023618,0.5,0.124669970602588,0.523807861704452,0.471462366976382,0.0269088400264368,0.5,0.0570752660472363,1.08647676838042,0.641095187622419,2.59374453653775,0.5,74.807089175353
CBC_1022,CBC_1022_MSI_TV_v3_Vset3_Tset3_2023-07-18_15h32.56.687.csv,3,10,3,2,z,0,1,2,tac,C,63,1,3C,2C,0,1,z,2.35953829999926,0,1,1,1,2C,3C,C32,3.2188758248682,0.555446473050055,0.5,0.5,0.5,0.471462366976382,0.528537633023618,0.5,0.5,0.471462366976382,0.5,0.528537633023618,0.471462366976382,0.5,0.5,0.5,0.555446473050055,0.556889942168409,0.443110057831591,0.528537633023618,0.471462366976382,0.201073385495782,0.548072973496003,0.471462366976382,0.0269088400264368,0.5,0.0570752660472363,1.08647676838042,0.641095187622419,2.59374453653775,0.5,74.807089175353
CBC_1022,CBC_1022_MSI_TV_v3_Vset3_Tset3_2023-07-18_15h32.56.687.csv,3,11,3,1,b,1,0,0,tac,D,27,1,3D,1D,1,0,z,2.74256239999886,0,1,0,0,1D,3D,D31,3.25809653802148,0.555446473050055,0.5,0.5,0.5,0.471462366976382,0.528537633023618,0.5,0.5,0.471462366976382,0.5,0.555446473050055,0.471462366976382,0.5,0.5,0.5,0.555446473050055,0.444553526949945,0.555446473050055,0.5,0.555446473050055,0.12570080602599,0.453563080262946,-0.5,-0.0285376330236182,0.5,0.0570752660472363,1.08647676838042,0.641095187622419,2.59374453653775,0.5,74.807089175353
CBC_1022,CBC_1022_MSI_TV_v3_Vset3_Tset3_2023-07-18_15h32.56.687.csv,3,12,0,1,b,1,0,3,tac,A,63,0,0A,1A,0,1,z,2.34213319999981,0,1,0,1,1A,0A,A01,3.29583686600433,0.555446473050055,0.5,0.5,0.5,0.471462366976382,0.528537633023618,0.5,0.5,0.471462366976382,0.5,0.555446473050055,0.471462366976382,0.5,0.471462366976382,0.5,0.555446473050055,0.444553526949945,0.555446473050055,0.5,0.555446473050055,0.168383173903971,0.453235772945922,0.5,0.0285376330236182,0.5,0.0570752660472363,1.08647676838042,0.641095187622419,2.59374453653775,0.5,74.807089175353
CBC_1022,CBC_1022_MSI_TV_v3_Vset3_Tset3_2023-07-18_15h32.56.687.csv,3,13,3,2,z,0,1,2,tac,C,63,1,3C,2C,0,1,z,2.32980259999931,0,1,1,1,2C,3C,C32,2.63905732961526,0.555446473050055,0.528537633023618,0.5,0.5,0.471462366976382,0.528537633023618,0.5,0.5,0.471462366976382,0.5,0.555446473050055,0.471462366976382,0.5,0.471462366976382,0.5,0.555446473050055,0.583455893328061,0.416544106671939,0.555446473050055,0.471462366976382,0.213456606212667,0.568696881805774,0.444553526949945,0.0253730108229054,0.5,0.0570752660472363,1.08647676838042,0.641095187622419,2.59374453653775,0.5,74.807089175353
CBC_1022,CBC_1022_MSI_TV_v3_Vset3_Tset3_2023-07-18_15h32.56.687.csv,3,14,2,0,z,0,1,3,tac,A,27,1,2A,0A,0,1,z,2.27757639999982,0,1,1,1,0A,2A,A20,3.36729582998647,0.555446473050055,0.528537633023618,0.5,0.5,0.471462366976382,0.528537633023618,0.5,0.5,0.471462366976382,0.5,0.58081948387296,0.471462366976382,0.5,0.471462366976382,0.5,0.555446473050055,0.555446473050055,0.444553526949945,0.555446473050055,0.5,0.212126754140943,0.545007344133035,0.444553526949945,0.0253730108229054,0.5,0.0570752660472363,1.08647676838042,0.641095187622419,2.59374453653775,0.5,74.807089175353
CBC_1022,CBC_1022_MSI_TV_v3_Vset3_Tset3_2023-07-18_15h32.56.687.csv,3,15,1,0,b,1,0,1,tac,B,63,1,1B,0B,1,0,z,2.39590759999919,0,1,0,0,0B,1B,B10,2.70805020110221,0.58081948387296,0.528537633023618,0.5,0.5,0.471462366976382,0.528537633023618,0.5,0.5,0.471462366976382,0.5,0.58081948387296,0.471462366976382,0.5,0.471462366976382,0.5,0.555446473050055,0.443110057831592,0.556889942168408,0.471462366976382,0.528537633023618,0.161966314329462,0.453336831974638,-0.471462366976382,-0.0269088400264368,0.5,0.0570752660472363,1.08647676838042,0.641095187622419,2.59374453653775,0.5,74.807089175353
CBC_1022,CBC_1022_MSI_TV_v3_Vset3_Tset3_2023-07-18_15h32.56.687.csv,3,16,2,3,z,0,1,0,tac,D,63,1,2D,3D,0,1,b,3.32743599999958,1,0,0,0,2D,3D,D23,2.7408400239252,0.58081948387296,0.528537633023618,0.5,0.5,0.444553526949945,0.528537633023618,0.5,0.5,0.471462366976382,0.5,0.58081948387296,0.471462366976382,0.5,0.471462366976382,0.5,0.555446473050055,0.444553526949945,0.555446473050055,0.5,0.555446473050055,0.0820080697280321,0.455006447596451,-0.5,-0.0285376330236182,0.5,0.0570752660472363,1.08647676838042,0.641095187622419,2.59374453653775,0.5,74.807089175353
CBC_1022,CBC_1022_MSI_TV_v3_Vset3_Tset3_2023-07-18_15h32.56.687.csv,3,17,2,1,z,0,1,1,tac,B,9,1,2B,1B,0,1,z,3.09016109999902,0,1,1,1,1B,2B,B21,3.46573590279973,0.58081948387296,0.528537633023618,0.5,0.5,0.444553526949945,0.528537633023618,0.5,0.5,0.471462366976382,0.5,0.58081948387296,0.471462366976382,0.5,0.471462366976382,0.471462366976382,0.555446473050055,0.528537633023618,0.471462366976382,0.528537633023618,0.5,0.112457892630278,0.523690043544358,0.471462366976382,0.0269088400264368,0.5,0.0570752660472363,1.08647676838042,0.641095187622419,2.59374453653775,0.5,74.807089175353
CBC_1022,CBC_1022_MSI_TV_v3_Vset3_Tset3_2023-07-18_15h32.56.687.csv,3,18,3,1,b,1,0,0,tac,D,27,1,3D,1D,1,0,b,2.85028389999934,1,0,1,1,3D,1D,D31,2.80336038090653,0.58081948387296,0.528537633023618,0.5,0.5,0.444553526949945,0.555446473050055,0.5,0.5,0.471462366976382,0.5,0.58081948387296,0.471462366976382,0.5,0.471462366976382,0.471462366976382,0.555446473050055,0.583455893328061,0.416544106671939,0.555446473050055,0.471462366976382,0.146035341399916,0.570547143098573,0.444553526949945,0.0253730108229054,0.5,0.0570752660472363,1.08647676838042,0.641095187622419,2.59374453653775,0.5,74.807089175353
CBC_1022,CBC_1022_MSI_TV_v3_Vset3_Tset3_2023-07-18_15h32.56.687.csv,3,19,1,0,z,0,1,3,tac,A,63,1,1A,0A,0,1,z,2.38036339999962,0,1,1,1,0A,1A,A10,2.83321334405622,0.58081948387296,0.528537633023618,0.5,0.5,0.444553526949945,0.555446473050055,0.5,0.5,0.471462366976382,0.5,0.58081948387296,0.471462366976382,0.5,0.471462366976382,0.471462366976382,0.58081948387296,0.552768672836094,0.447231327163906,0.58081948387296,0.528537633023618,0.196658313216001,0.54430148522376,0.41918051612704,0.0239248394797686,0.5,0.0570752660472363,1.08647676838042,0.641095187622419,2.59374453653775,0.5,74.807089175353
CBC_1022,CBC_1022_MSI_TV_v3_Vset3_Tset3_2023-07-18_15h32.56.687.csv,3,20,0,1,b,1,0,3,tac,A,63,1,0A,1A,1,0,z,2.30071379999936,0,1,0,0,1A,0A,A01,2.86220088092947,0.604744323352729,0.528537633023618,0.5,0.5,0.444553526949945,0.555446473050055,0.5,0.5,0.471462366976382,0.5,0.58081948387296,0.471462366976382,0.5,0.471462366976382,0.471462366976382,0.58081948387296,0.422871108809033,0.577128891190967,0.528537633023618,0.604744323352729,0.16685101893077,0.435369154306104,-0.528537633023618,-0.0301664260207996,0.5,0.0570752660472363,1.08647676838042,0.641095187622419,2.59374453653775,0.5,74.807089175353
CBC_1022,CBC_1022_MSI_TV_v3_Vset3_Tset3_2023-07-18_15h32.56.687.csv,3,21,0,2,z,0,1,2,tac,C,27,1,0C,2C,0,1,z,2.32545829999799,0,1,1,1,2C,0C,C02,2.89037175789616,0.604744323352729,0.498371207002819,0.5,0.5,0.444553526949945,0.555446473050055,0.5,0.5,0.471462366976382,0.5,0.58081948387296,0.471462366976382,0.5,0.471462366976382,0.471462366976382,0.58081948387296,0.608357455751938,0.391642544248062,0.58081948387296,0.471462366976382,0.222079543350895,0.588819280560635,0.41918051612704,0.0239248394797686,0.5,0.0570752660472363,1.08647676838042,0.641095187622419,2.59374453653775,0.5,74.807089175353
CBC_1022,CBC_1022_MSI_TV_v3_Vset3_Tset3_2023-07-18_15h32.56.687.csv,3,22,1,0,b,1,0,1,tac,B,63,1,1B,0B,1,0,z,2.38590649999787,0,1,0,0,0B,1B,B10,2.51230562397611,0.604744323352729,0.498371207002819,0.5,0.5,0.444553526949945,0.555446473050055,0.5,0.5,0.471462366976382,0.5,0.604744323352729,0.471462366976382,0.5,0.471462366976382,0.471462366976382,0.58081948387296,0.390454165914567,0.609545834085433,0.444553526949945,0.555446473050055,0.147953732288451,0.410010956039756,-0.444553526949945,-0.0253730108229054,0.5,0.0570752660472363,1.08647676838042,0.641095187622419,2.59374453653775,0.5,74.807089175353
CBC_1022,CBC_1022_MSI_TV_v3_Vset3_Tset3_2023-07-18_15h32.56.687.csv,3,23,0,2,z,0,1,2,tac,C,27,1,0C,2C,0,1,z,2.34757079999872,0,1,1,1,2C,0C,C02,2.53897387105828,0.604744323352729,0.498371207002819,0.5,0.5,0.41918051612704,0.555446473050055,0.5,0.5,0.471462366976382,0.5,0.604744323352729,0.471462366976382,0.5,0.471462366976382,0.471462366976382,0.58081948387296,0.631707183598575,0.368292816401425,0.604744323352729,0.471462366976382,0.225884867117364,0.607557673023405,0.395255676647271,0.0225593229013234,0.5,0.0570752660472363,1.08647676838042,0.641095187622419,2.59374453653775,0.5,74.807089175353
CBC_1022,CBC_1022_MSI_TV_v3_Vset3_Tset3_2023-07-18_15h32.56.687.csv,3,24,2,3,z,0,1,0,tac,D,63,1,2D,3D,0,1,z,3.46789199999876,0,1,1,1,3D,2D,D23,2.56494935746154,0.604744323352729,0.498371207002819,0.5,0.5,0.41918051612704,0.555446473050055,0.5,0.5,0.471462366976382,0.5,0.627303646254052,0.471462366976382,0.5,0.471462366976382,0.471462366976382,0.58081948387296,0.608357455751938,0.391642544248062,0.58081948387296,0.471462366976382,0.0953648581680775,0.589821153900859,0.41918051612704,0.0239248394797686,0.5,0.0570752660472363,1.08647676838042,0.641095187622419,2.59374453653775,0.5,74.807089175353
CBC_1022,CBC_1022_MSI_TV_v3_Vset3_Tset3_2023-07-18_15h32.56.687.csv,3,25,0,1,b,1,0,3,tac,A,63,1,0A,1A,1,0,z,2.435951999998,0,1,0,0,1A,0A,A01,2.59026716544583,0.604744323352729,0.498371207002819,0.5,0.5,0.41918051612704,0.555446473050055,0.5,0.5,0.471462366976382,0.5,0.627303646254052,0.471462366976382,0.5,0.471462366976382,0.471462366976382,0.604744323352729,0.393699426061783,0.606300573938217,0.498371207002819,0.604744323352729,0.143582958692076,0.412908851164567,-0.498371207002819,-0.0284446692299682,0.5,0.0570752660472363,1.08647676838042,0.641095187622419,2.59374453653775,0.5,74.807089175353
CBC_1022,CBC_1022_MSI_TV_v3_Vset3_Tset3_2023-07-18_15h32.56.687.csv,3,26,2,3,b,1,0,2,tac,C,63,1,2C,3C,NaN,NaN,None,NaN,NaN,NaN,NaN,NaN,,,C23,2.6149597780362,0.604744323352729,0.46992653777285,0.5,0.5,0.41918051612704,0.555446473050055,0.5,0.5,0.471462366976382,0.5,0.627303646254052,0.471462366976382,0.5,0.471462366976382,0.471462366976382,0.604744323352729,0,0,0,0,NaN,0,0,0,0.5,0.0570752660472363,1.08647676838042,0.641095187622419,2.59374453653775,0.5,74.807089175353
CBC_1022,CBC_1022_MSI_TV_v3_Vset3_Tset3_2023-07-18_15h32.56.687.csv,3,27,0,2,b,1,0,3,tac,A,27,1,0A,2A,1,0,z,2.40767740000047,0,1,0,0,2A,0A,A02,3.73766961828337,0.604744323352729,0.46992653777285,0.5,0.5,0.41918051612704,0.555446473050055,0.5,0.5,0.471462366976382,0.5,0.627303646254052,0.471462366976382,0.5,0.471462366976382,0.471462366976382,0.604744323352729,0.395255676647271,0.604744323352729,0.5,0.604744323352729,0.146719587488052,0.41325270076321,-0.5,-0.0285376330236182,0.5,0.0570752660472363,1.08647676838042,0.641095187622419,2.59374453653775,0.5,74.807089175353
CBC_1022,CBC_1022_MSI_TV_v3_Vset3_Tset3_2023-07-18_15h32.56.687.csv,3,28,2,3,z,0,1,0,tac,D,63,1,2D,3D,0,1,z,2.75067680000029,0,1,1,1,3D,2D,D23,2.37490575457367,0.604744323352729,0.46992653777285,0.471462366976382,0.5,0.41918051612704,0.555446473050055,0.5,0.5,0.471462366976382,0.5,0.627303646254052,0.471462366976382,0.5,0.471462366976382,0.471462366976382,0.604744323352729,0.631707183598575,0.368292816401425,0.604744323352729,0.471462366976382,0.167648829813041,0.608528866312881,0.395255676647271,0.0225593229013234,0.5,0.0570752660472363,1.08647676838042,0.641095187622419,2.59374453653775,0.5,74.807089175353
CBC_1022,CBC_1022_MSI_TV_v3_Vset3_Tset3_2023-07-18_15h32.56.687.csv,3,29,2,3,z,0,1,0,tac,D,63,1,2D,3D,0,1,z,3.06266779999896,0,1,1,1,3D,2D,D23,2.17475172148416,0.604744323352729,0.46992653777285,0.471462366976382,0.5,0.41918051612704,0.555446473050055,0.5,0.5,0.471462366976382,0.5,0.627303646254052,0.471462366976382,0.5,0.471462366976382,0.471462366976382,0.627303646254052,0.653609066280618,0.346390933719382,0.627303646254052,0.471462366976382,0.136171841063436,0.625110578266038,0.372696353745948,0.0212717435448849,0.5,0.0570752660472363,1.08647676838042,0.641095187622419,2.59374453653775,0.5,74.807089175353
CBC_1022,CBC_1022_MSI_TV_v3_Vset3_Tset3_2023-07-18_15h32.56.687.csv,3,30,1,3,b,1,0,1,tac,B,27,1,1B,3B,1,0,b,2.49224520000098,1,0,1,1,1B,3B,B13,3.80666248977032,0.604744323352729,0.46992653777285,0.471462366976382,0.5,0.41918051612704,0.555446473050055,0.5,0.5,0.471462366976382,0.5,0.627303646254052,0.471462366976382,0.5,0.471462366976382,0.471462366976382,0.648575389798937,0.555446473050055,0.444553526949945,0.555446473050055,0.5,0.181588305072689,0.545307615016916,0.444553526949945,0.0253730108229054,0.5,0.0570752660472363,1.08647676838042,0.641095187622419,2.59374453653775,0.5,74.807089175353
CBC_1022,CBC_1022_MSI_TV_v3_Vset3_Tset3_2023-07-18_15h32.56.687.csv,3,31,3,0,b,1,0,0,tac,D,9,1,3D,0D,1,0,z,2.54125849999946,0,1,0,0,0D,3D,D30,3.8286413964891,0.604744323352729,0.46992653777285,0.471462366976382,0.5,0.41918051612704,0.58081948387296,0.5,0.5,0.471462366976382,0.5,0.627303646254052,0.471462366976382,0.5,0.471462366976382,0.471462366976382,0.648575389798937,0.351424610201063,0.648575389798937,0.5,0.648575389798937,0.122078487544227,0.378749362045081,-0.5,-0.0285376330236182,0.5,0.0570752660472363,1.08647676838042,0.641095187622419,2.59374453653775,0.5,74.807089175353
CBC_1022,CBC_1022_MSI_TV_v3_Vset3_Tset3_2023-07-18_15h32.56.687.csv,3,32,0,1,z,0,1,1,tac,B,63,1,0B,1B,0,1,z,2.4051958,0,1,1,1,1B,0B,B01,3.85014760171006,0.604744323352729,0.46992653777285,0.471462366976382,0.5,0.41918051612704,0.58081948387296,0.5,0.5,0.471462366976382,0.5,0.627303646254052,0.471462366976382,0.471462366976382,0.471462366976382,0.471462366976382,0.648575389798937,0.657523331116893,0.342476668883107,0.58081948387296,0.41918051612704,0.224389465852176,0.628457027910273,0.41918051612704,0.0239248394797686,0.5,0.0570752660472363,1.08647676838042,0.641095187622419,2.59374453653775,0.5,74.807089175353
CBC_1022,CBC_1022_MSI_TV_v3_Vset3_Tset3_2023-07-18_15h32.56.687.csv,3,33,0,1,b,1,0,3,tac,A,63,1,0A,1A,1,0,z,1.93373900000006,0,1,0,0,1A,0A,A01,2.484906649788,0.604744323352729,0.46992653777285,0.471462366976382,0.5,0.41918051612704,0.604744323352729,0.5,0.5,0.471462366976382,0.5,0.627303646254052,0.471462366976382,0.471462366976382,0.471462366976382,0.471462366976382,0.648575389798937,0.366859794037352,0.633140205962648,0.46992653777285,0.604744323352729,0.194477311854005,0.391193113300976,-0.46992653777285,-0.0268211821660421,0.5,0.0570752660472363,1.08647676838042,0.641095187622419,2.59374453653775,0.5,74.807089175353
CBC_1022,CBC_1022_MSI_TV_v3_Vset3_Tset3_2023-07-18_15h32.56.687.csv,3,34,0,1,z,0,1,1,tac,B,63,1,0B,1B,0,1,z,2.32521749999796,0,1,1,1,1B,0B,B01,3.19867311755068,0.604744323352729,0.443105355606808,0.471462366976382,0.5,0.41918051612704,0.604744323352729,0.5,0.5,0.471462366976382,0.5,0.627303646254052,0.471462366976382,0.471462366976382,0.471462366976382,0.471462366976382,0.648575389798937,0.679486132418082,0.320513867581918,0.604744323352729,0.41918051612704,0.244873280879771,0.644684516902299,0.395255676647271,0.0225593229013234,0.5,0.0570752660472363,1.08647676838042,0.641095187622419,2.59374453653775,0.5,74.807089175353
CBC_1022,CBC_1022_MSI_TV_v3_Vset3_Tset3_2023-07-18_15h32.56.687.csv,3,35,2,3,b,1,0,2,tac,C,63,1,2C,3C,1,0,z,2.39494299999933,0,1,0,0,3C,2C,C23,2.52572864430826,0.604744323352729,0.443105355606808,0.471462366976382,0.5,0.41918051612704,0.627303646254052,0.5,0.5,0.471462366976382,0.5,0.627303646254052,0.471462366976382,0.471462366976382,0.471462366976382,0.471462366976382,0.648575389798937,0.346390933719382,0.653609066280618,0.471462366976382,0.627303646254052,0.134842225084255,0.374920655725183,-0.471462366976382,-0.0269088400264368,0.5,0.0570752660472363,1.08647676838042,0.641095187622419,2.59374453653775,0.5,74.807089175353
CBC_1022,CBC_1022_MSI_TV_v3_Vset3_Tset3_2023-07-18_15h32.56.687.csv,3,36,2,0,z,0,1,3,tac,A,27,1,2A,0A,0,1,z,1.69164489999821,0,1,1,1,0A,2A,A20,3.23867845216438,0.604744323352729,0.443105355606808,0.471462366976382,0.5,0.41918051612704,0.627303646254052,0.5,0.5,0.471462366976382,0.5,0.627303646254052,0.444553526949945,0.471462366976382,0.471462366976382,0.471462366976382,0.648575389798937,0.631707183598575,0.368292816401425,0.604744323352729,0.471462366976382,0.337698261554542,0.607407520555092,0.395255676647271,0.0225593229013234,0.5,0.0570752660472363,1.08647676838042,0.641095187622419,2.59374453653775,0.5,74.807089175353
CBC_1022,CBC_1022_MSI_TV_v3_Vset3_Tset3_2023-07-18_15h32.56.687.csv,3,37,0,1,z,0,1,1,tac,B,63,1,0B,1B,0,1,z,2.37842269999965,0,1,1,1,1B,0B,B01,2.85263142991332,0.627303646254052,0.443105355606808,0.471462366976382,0.5,0.41918051612704,0.627303646254052,0.5,0.5,0.471462366976382,0.5,0.627303646254052,0.444553526949945,0.471462366976382,0.471462366976382,0.471462366976382,0.648575389798937,0.699896497719165,0.300103502280835,0.627303646254052,0.41918051612704,0.241746711299469,0.66085212645377,0.372696353745948,0.0212717435448849,0.5,0.0570752660472363,1.08647676838042,0.641095187622419,2.59374453653775,0.5,74.807089175353
CBC_1022,CBC_1022_MSI_TV_v3_Vset3_Tset3_2023-07-18_15h32.56.687.csv,3,38,1,3,b,1,0,1,tac,B,27,1,1B,3B,NaN,NaN,None,NaN,NaN,NaN,NaN,NaN,,,B13,3.27714473299218,0.627303646254052,0.443105355606808,0.471462366976382,0.5,0.41918051612704,0.648575389798937,0.5,0.5,0.471462366976382,0.5,0.627303646254052,0.444553526949945,0.471462366976382,0.471462366976382,0.471462366976382,0.648575389798937,0,0,0,0,NaN,0,0,0,0.5,0.0570752660472363,1.08647676838042,0.641095187622419,2.59374453653775,0.5,74.807089175353
CBC_1022,CBC_1022_MSI_TV_v3_Vset3_Tset3_2023-07-18_15h32.56.687.csv,3,39,2,3,b,1,0,2,tac,C,63,1,2C,3C,1,0,z,2.34728519999953,0,1,0,0,3C,2C,C23,2.37954613413017,0.627303646254052,0.443105355606808,0.471462366976382,0.5,0.41918051612704,0.648575389798937,0.5,0.5,0.471462366976382,0.5,0.627303646254052,0.444553526949945,0.471462366976382,0.471462366976382,0.471462366976382,0.648575389798937,0.322267993323588,0.677732006676412,0.444553526949945,0.627303646254052,0.133615720994632,0.357756366254073,-0.444553526949945,-0.0253730108229054,0.5,0.0570752660472363,1.08647676838042,0.641095187622419,2.59374453653775,0.5,74.807089175353
CBC_1022,CBC_1022_MSI_TV_v3_Vset3_Tset3_2023-07-18_15h32.56.687.csv,3,40,1,3,z,0,1,0,tac,D,27,1,1D,3D,0,1,z,3.02041819999977,0,1,1,1,3D,1D,D13,4.00733318523247,0.627303646254052,0.443105355606808,0.471462366976382,0.5,0.41918051612704,0.648575389798937,0.5,0.5,0.471462366976382,0.5,0.627303646254052,0.41918051612704,0.471462366976382,0.471462366976382,0.471462366976382,0.648575389798937,0.674159288293998,0.325840711706002,0.648575389798937,0.471462366976382,0.143805136194024,0.640489517725366,0.351424610201063,0.020057653122772,0.5,0.0570752660472363,1.08647676838042,0.641095187622419,2.59374453653775,0.5,74.807089175353
CBC_1022,CBC_1022_MSI_TV_v3_Vset3_Tset3_2023-07-18_15h32.56.687.csv,3,41,2,1,b,1,0,2,tac,C,9,1,2C,1C,1,0,z,2.44544700000006,0,1,0,0,1C,2C,C21,4.02535169073515,0.627303646254052,0.443105355606808,0.471462366976382,0.5,0.41918051612704,0.648575389798937,0.5,0.5,0.471462366976382,0.5,0.627303646254052,0.41918051612704,0.471462366976382,0.471462366976382,0.471462366976382,0.668633042921709,0.372696353745948,0.627303646254052,0.5,0.627303646254052,0.136601380312437,0.395077271494118,-0.5,-0.0285376330236182,0.5,0.0570752660472363,1.08647676838042,0.641095187622419,2.59374453653775,0.5,74.807089175353
CBC_1022,CBC_1022_MSI_TV_v3_Vset3_Tset3_2023-07-18_15h32.56.687.csv,3,42,1,0,b,1,0,1,tac,B,63,0,1B,0B,0,1,z,2.30880230000002,0,1,0,1,0B,1B,B10,2.65675690671466,0.627303646254052,0.443105355606808,0.471462366976382,0.5,0.41918051612704,0.648575389798937,0.5,0.5,0.471462366976382,0.471462366976382,0.627303646254052,0.41918051612704,0.471462366976382,0.471462366976382,0.471462366976382,0.668633042921709,0.281118266661046,0.718881733338954,0.41918051612704,0.648575389798937,0.12614899524961,0.326413169628032,0.58081948387296,0.0331504265674677,0.5,0.0570752660472363,1.08647676838042,0.641095187622419,2.59374453653775,0.5,74.807089175353
CBC_1022,CBC_1022_MSI_TV_v3_Vset3_Tset3_2023-07-18_15h32.56.687.csv,3,43,2,3,z,0,1,0,tac,D,63,1,2D,3D,0,1,z,2.30549349999819,0,1,1,1,3D,2D,D23,2.26868354131836,0.627303646254052,0.443105355606808,0.471462366976382,0.5,0.452330942694507,0.648575389798937,0.5,0.5,0.471462366976382,0.471462366976382,0.627303646254052,0.41918051612704,0.471462366976382,0.471462366976382,0.471462366976382,0.668633042921709,0.693446909679798,0.306553090320202,0.668633042921709,0.471462366976382,0.252842749550799,0.654828035028079,0.331366957078291,0.0189128572345066,0.5,0.0570752660472363,1.08647676838042,0.641095187622419,2.59374453653775,0.5,74.807089175353
CBC_1022,CBC_1022_MSI_TV_v3_Vset3_Tset3_2023-07-18_15h32.56.687.csv,3,44,1,0,z,0,1,3,tac,A,63,1,1A,0A,0,1,z,2.27174220000052,0,1,1,1,0A,1A,A10,2.97892515523761,0.627303646254052,0.443105355606808,0.471462366976382,0.5,0.452330942694507,0.648575389798937,0.5,0.5,0.471462366976382,0.471462366976382,0.627303646254052,0.41918051612704,0.471462366976382,0.471462366976382,0.471462366976382,0.687545900156216,0.679012028843175,0.320987971156825,0.627303646254052,0.443105355606808,0.254598202680496,0.644152306161427,0.372696353745948,0.0212717435448849,0.5,0.0570752660472363,1.08647676838042,0.641095187622419,2.59374453653775,0.5,74.807089175353
