ID,filename,session,trial,visStimLeft,visStimRight,correctKey,leftCorrect,rightCorrect,secondStim,mod2Type,mod2Stim,frequency,rewardAccurate,stimPairLeft,stimPairRight,pCorrectLeft,pCorrectRight,key,reactionTime,choiceLeft,choiceRight,choiceAccurate,reward,chosenPair,otherPair,triplet,surprise,0A belief,1A belief,2A belief,3A belief,0B belief,1B belief,2B belief,3B belief,0C belief,1C belief,2C belief,3C belief,0D belief,1D belief,2D belief,3D belief,beliefPairNorm,beliefOtherPairNorm,beliefPair,beliefOtherPair,lik,corrLik,rewardPE,update2,fitCBCsimpleRW_CBCdriftDiffusionLR_startBelief,fitCBCsimpleRW_CBCdriftDiffusionLR_alpha1,fitCBCsimpleRW_CBCdriftDiffusionLR_nonDecisionTime,fitCBCsimpleRW_CBCdriftDiffusionLR_weight,fitCBCsimpleRW_CBCdriftDiffusionLR_startingBoundary,fitCBCsimpleRW_CBCdriftDiffusionLR_startingPoint,fit_CBCsimpleRW_CBCdriftDiffusionLR_NLL
CBC_1022,CBC_1022_MSI_TV_v3_Vset1_Tset1_2023-07-18_13h36.12.008.csv,1,1,1,0,z,0,1,3,tac,A,63,1,1A,0A,0,1,z,1.80552249999982,0,1,1,1,0A,1A,A10,2.77258872223978,0.5,0.5,0.5,0.5,0.5,0.5,0.5,0.5,0.5,0.5,0.5,0.5,0.5,0.5,0.5,0.5,0.5,0.5,0.5,0.5,0.170397576338172,0.499848456341024,0.5,0.129079646166527,0.5,0.258159292333053,0.492735366964581,0.122235354644115,2.94118284362152,0.5,92.5709102165741
CBC_1022,CBC_1022_MSI_TV_v3_Vset1_Tset1_2023-07-18_13h36.12.008.csv,1,2,2,3,b,1,0,2,tac,C,63,1,2C,3C,1,0,b,2.82121400000005,1,0,1,1,2C,3C,C23,2.83321334405622,0.629079646166526,0.5,0.5,0.5,0.5,0.5,0.5,0.5,0.5,0.5,0.5,0.5,0.5,0.5,0.5,0.5,0.5,0.5,0.5,0.5,0.095959736871742,0.498724479666255,0.5,0.129079646166527,0.5,0.258159292333053,0.492735366964581,0.122235354644115,2.94118284362152,0.5,92.5709102165741
CBC_1022,CBC_1022_MSI_TV_v3_Vset1_Tset1_2023-07-18_13h36.12.008.csv,1,3,2,0,z,0,1,3,tac,A,27,1,2A,0A,0,1,b,2.5391754999996,1,0,0,0,2A,0A,A20,2.89037175789616,0.629079646166526,0.5,0.5,0.5,0.5,0.5,0.5,0.5,0.5,0.5,0.629079646166526,0.5,0.5,0.5,0.5,0.5,0.442838555896043,0.557161444103957,0.5,0.629079646166526,0.110792136072078,0.490325603802012,-0.5,-0.129079646166527,0.5,0.258159292333053,0.492735366964581,0.122235354644115,2.94118284362152,0.5,92.5709102165741
CBC_1022,CBC_1022_MSI_TV_v3_Vset1_Tset1_2023-07-18_13h36.12.008.csv,1,4,0,1,z,0,1,1,tac,B,63,1,0B,1B,NaN,NaN,None,NaN,NaN,NaN,NaN,NaN,,,B01,2.94443897916644,0.629079646166526,0.5,0.370920353833473,0.5,0.5,0.5,0.5,0.5,0.5,0.5,0.629079646166526,0.5,0.5,0.5,0.5,0.5,0,0,0,0,NaN,0,0,0,0.5,0.258159292333053,0.492735366964581,0.122235354644115,2.94118284362152,0.5,92.5709102165741
CBC_1022,CBC_1022_MSI_TV_v3_Vset1_Tset1_2023-07-18_13h36.12.008.csv,1,5,1,0,b,1,0,1,tac,B,63,1,1B,0B,NaN,NaN,None,NaN,NaN,NaN,NaN,NaN,,,B10,2.99573227355399,0.629079646166526,0.5,0.370920353833473,0.5,0.5,0.5,0.5,0.5,0.5,0.5,0.629079646166526,0.5,0.5,0.5,0.5,0.5,0,0,0,0,NaN,0,0,0,0.5,0.258159292333053,0.492735366964581,0.122235354644115,2.94118284362152,0.5,92.5709102165741
CBC_1022,CBC_1022_MSI_TV_v3_Vset1_Tset1_2023-07-18_13h36.12.008.csv,1,6,2,3,b,1,0,2,tac,C,63,1,2C,3C,1,0,b,0.68416679999973,1,0,1,1,2C,3C,C23,2.35137525716348,0.629079646166526,0.5,0.370920353833473,0.5,0.5,0.5,0.5,0.5,0.5,0.5,0.629079646166526,0.5,0.5,0.5,0.5,0.5,0.557161444103957,0.442838555896043,0.629079646166526,0.5,0.0252657043969743,0.511874252826424,0.370920353833474,0.0957565360575752,0.5,0.258159292333053,0.492735366964581,0.122235354644115,2.94118284362152,0.5,92.5709102165741
CBC_1022,CBC_1022_MSI_TV_v3_Vset1_Tset1_2023-07-18_13h36.12.008.csv,1,7,1,3,z,0,1,0,tac,D,27,1,1D,3D,0,1,z,1.53228749999971,0,1,1,1,3D,1D,D13,3.09104245335832,0.629079646166526,0.5,0.370920353833473,0.5,0.5,0.5,0.5,0.5,0.5,0.5,0.724836182224102,0.5,0.5,0.5,0.5,0.5,0.5,0.5,0.5,0.5,0.195562893568833,0.500246987349258,0.5,0.129079646166527,0.5,0.258159292333053,0.492735366964581,0.122235354644115,2.94118284362152,0.5,92.5709102165741
CBC_1022,CBC_1022_MSI_TV_v3_Vset1_Tset1_2023-07-18_13h36.12.008.csv,1,8,2,1,b,1,0,2,tac,C,9,1,2C,1C,1,0,z,2.81967489999988,0,1,0,0,1C,2C,C21,3.13549421592915,0.629079646166526,0.5,0.370920353833473,0.5,0.5,0.5,0.5,0.5,0.5,0.5,0.724836182224102,0.5,0.5,0.5,0.5,0.629079646166526,0.408217855788749,0.591782144211251,0.5,0.724836182224102,0.0927447434235657,0.481617359724298,-0.5,-0.129079646166527,0.5,0.258159292333053,0.492735366964581,0.122235354644115,2.94118284362152,0.5,92.5709102165741
CBC_1022,CBC_1022_MSI_TV_v3_Vset1_Tset1_2023-07-18_13h36.12.008.csv,1,9,1,3,b,1,0,1,tac,B,27,1,1B,3B,1,0,b,2.74382409999953,1,0,1,1,1B,3B,B13,3.17805383034795,0.629079646166526,0.5,0.370920353833473,0.5,0.5,0.5,0.5,0.5,0.5,0.370920353833473,0.724836182224102,0.5,0.5,0.5,0.5,0.629079646166526,0.5,0.5,0.5,0.5,0.100812103606759,0.501330902518397,0.5,0.129079646166527,0.5,0.258159292333053,0.492735366964581,0.122235354644115,2.94118284362152,0.5,92.5709102165741
CBC_1022,CBC_1022_MSI_TV_v3_Vset1_Tset1_2023-07-18_13h36.12.008.csv,1,10,2,3,z,0,1,0,tac,D,63,1,2D,3D,0,1,z,2.32186249999995,0,1,1,1,3D,2D,D23,3.2188758248682,0.629079646166526,0.5,0.370920353833473,0.5,0.5,0.629079646166526,0.5,0.5,0.5,0.370920353833473,0.724836182224102,0.5,0.5,0.5,0.5,0.629079646166526,0.557161444103957,0.442838555896043,0.629079646166526,0.5,0.130635713806358,0.510953445510346,0.370920353833474,0.0957565360575752,0.5,0.258159292333053,0.492735366964581,0.122235354644115,2.94118284362152,0.5,92.5709102165741
CBC_1022,CBC_1022_MSI_TV_v3_Vset1_Tset1_2023-07-18_13h36.12.008.csv,1,11,0,1,z,0,1,1,tac,B,63,1,0B,1B,0,1,b,2.61090719999993,1,0,0,0,0B,1B,B01,2.56494935746154,0.629079646166526,0.5,0.370920353833473,0.5,0.5,0.629079646166526,0.5,0.5,0.5,0.370920353833473,0.724836182224102,0.5,0.5,0.5,0.5,0.724836182224102,0.442838555896043,0.557161444103957,0.5,0.629079646166526,0.106314005542432,0.49012645553453,-0.5,-0.129079646166527,0.5,0.258159292333053,0.492735366964581,0.122235354644115,2.94118284362152,0.5,92.5709102165741
CBC_1022,CBC_1022_MSI_TV_v3_Vset1_Tset1_2023-07-18_13h36.12.008.csv,1,12,2,0,b,1,0,2,tac,C,27,1,2C,0C,1,0,z,2.48932849999983,0,1,0,0,0C,2C,C20,3.29583686600433,0.629079646166526,0.5,0.370920353833473,0.5,0.370920353833473,0.629079646166526,0.5,0.5,0.5,0.370920353833473,0.724836182224102,0.5,0.5,0.5,0.5,0.724836182224102,0.408217855788749,0.591782144211251,0.5,0.724836182224102,0.112539250989535,0.484113269277155,-0.5,-0.129079646166527,0.5,0.258159292333053,0.492735366964581,0.122235354644115,2.94118284362152,0.5,92.5709102165741
CBC_1022,CBC_1022_MSI_TV_v3_Vset1_Tset1_2023-07-18_13h36.12.008.csv,1,13,2,3,z,0,1,0,tac,D,63,0,2D,3D,1,0,b,2.28586599999971,1,0,0,1,2D,3D,D23,2.63905732961526,0.629079646166526,0.5,0.370920353833473,0.5,0.370920353833473,0.629079646166526,0.5,0.5,0.370920353833473,0.370920353833473,0.724836182224102,0.5,0.5,0.5,0.5,0.724836182224102,0.408217855788749,0.591782144211251,0.5,0.724836182224102,0.125776947769542,0.481976035552921,0.5,0.129079646166527,0.5,0.258159292333053,0.492735366964581,0.122235354644115,2.94118284362152,0.5,92.5709102165741
CBC_1022,CBC_1022_MSI_TV_v3_Vset1_Tset1_2023-07-18_13h36.12.008.csv,1,14,0,1,b,1,0,3,tac,A,63,1,0A,1A,1,0,z,2.90308109999978,0,1,0,0,1A,0A,A01,3.36729582998647,0.629079646166526,0.5,0.370920353833473,0.5,0.370920353833473,0.629079646166526,0.5,0.5,0.370920353833473,0.370920353833473,0.724836182224102,0.5,0.5,0.5,0.629079646166526,0.724836182224102,0.442838555896043,0.557161444103957,0.5,0.629079646166526,0.0900008028989955,0.490117470983623,-0.5,-0.129079646166527,0.5,0.258159292333053,0.492735366964581,0.122235354644115,2.94118284362152,0.5,92.5709102165741
CBC_1022,CBC_1022_MSI_TV_v3_Vset1_Tset1_2023-07-18_13h36.12.008.csv,1,15,3,2,z,0,1,2,tac,C,63,1,3C,2C,0,1,z,2.32672140000022,0,1,1,1,2C,3C,C32,3.40119738166216,0.629079646166526,0.370920353833473,0.370920353833473,0.5,0.370920353833473,0.629079646166526,0.5,0.5,0.370920353833473,0.370920353833473,0.724836182224102,0.5,0.5,0.5,0.629079646166526,0.724836182224102,0.591782144211251,0.408217855788749,0.724836182224102,0.5,0.131790026414688,0.516865448387327,0.275163817775898,0.0710360964726871,0.5,0.258159292333053,0.492735366964581,0.122235354644115,2.94118284362152,0.5,92.5709102165741
CBC_1022,CBC_1022_MSI_TV_v3_Vset1_Tset1_2023-07-18_13h36.12.008.csv,1,16,2,0,z,0,1,3,tac,A,27,1,2A,0A,0,1,b,2.46401939999987,1,0,0,0,2A,0A,A20,2.7408400239252,0.629079646166526,0.370920353833473,0.370920353833473,0.5,0.370920353833473,0.629079646166526,0.5,0.5,0.370920353833473,0.370920353833473,0.795872278696789,0.5,0.5,0.5,0.629079646166526,0.724836182224102,0.370920353833473,0.629079646166526,0.370920353833473,0.629079646166526,0.112388991654759,0.476528251205616,-0.370920353833473,-0.0957565360575751,0.5,0.258159292333053,0.492735366964581,0.122235354644115,2.94118284362152,0.5,92.5709102165741
CBC_1022,CBC_1022_MSI_TV_v3_Vset1_Tset1_2023-07-18_13h36.12.008.csv,1,17,3,2,b,1,0,0,tac,D,63,1,3D,2D,1,0,z,1.68661300000031,0,1,0,0,2D,3D,D32,3.46573590279973,0.629079646166526,0.370920353833473,0.275163817775898,0.5,0.370920353833473,0.629079646166526,0.5,0.5,0.370920353833473,0.370920353833473,0.795872278696789,0.5,0.5,0.5,0.629079646166526,0.724836182224102,0.464637190123038,0.535362809876962,0.629079646166526,0.724836182224102,0.179474843095223,0.4946290810251,-0.629079646166526,-0.162402756275478,0.5,0.258159292333053,0.492735366964581,0.122235354644115,2.94118284362152,0.5,92.5709102165741
CBC_1022,CBC_1022_MSI_TV_v3_Vset1_Tset1_2023-07-18_13h36.12.008.csv,1,18,2,3,z,0,1,0,tac,D,63,1,2D,3D,0,1,b,3.2816171999998,1,0,0,0,2D,3D,D23,2.39789527279837,0.629079646166526,0.370920353833473,0.275163817775898,0.5,0.370920353833473,0.629079646166526,0.5,0.5,0.370920353833473,0.370920353833473,0.795872278696789,0.5,0.5,0.5,0.466676889891049,0.724836182224102,0.391667452764587,0.608332547235413,0.466676889891049,0.724836182224102,0.0711007715244762,0.480592446294539,-0.466676889891049,-0.120476975642463,0.5,0.258159292333053,0.492735366964581,0.122235354644115,2.94118284362152,0.5,92.5709102165741
CBC_1022,CBC_1022_MSI_TV_v3_Vset1_Tset1_2023-07-18_13h36.12.008.csv,1,19,1,3,b,1,0,1,tac,B,27,1,1B,3B,1,0,z,2.40949210000008,0,1,0,0,3B,1B,B13,2.83321334405622,0.629079646166526,0.370920353833473,0.275163817775898,0.5,0.370920353833473,0.629079646166526,0.5,0.5,0.370920353833473,0.370920353833473,0.795872278696789,0.5,0.5,0.5,0.346199914248585,0.724836182224102,0.442838555896043,0.557161444103957,0.5,0.629079646166526,0.118977955422385,0.489100911263273,-0.5,-0.129079646166527,0.5,0.258159292333053,0.492735366964581,0.122235354644115,2.94118284362152,0.5,92.5709102165741
CBC_1022,CBC_1022_MSI_TV_v3_Vset1_Tset1_2023-07-18_13h36.12.008.csv,1,20,3,0,b,1,0,0,tac,D,9,1,3D,0D,1,0,z,4.03261359999988,0,1,0,0,0D,3D,D30,3.55534806148941,0.629079646166526,0.370920353833473,0.275163817775898,0.5,0.370920353833473,0.629079646166526,0.5,0.370920353833473,0.370920353833473,0.370920353833473,0.795872278696789,0.5,0.5,0.5,0.346199914248585,0.724836182224102,0.408217855788749,0.591782144211251,0.5,0.724836182224102,0.0466724091641243,0.484238731929195,-0.5,-0.129079646166527,0.5,0.258159292333053,0.492735366964581,0.122235354644115,2.94118284362152,0.5,92.5709102165741
CBC_1022,CBC_1022_MSI_TV_v3_Vset1_Tset1_2023-07-18_13h36.12.008.csv,1,21,0,1,z,0,1,1,tac,B,63,1,0B,1B,0,1,b,2.56753979999985,1,0,0,0,0B,1B,B01,2.484906649788,0.629079646166526,0.370920353833473,0.275163817775898,0.5,0.370920353833473,0.629079646166526,0.5,0.370920353833473,0.370920353833473,0.370920353833473,0.795872278696789,0.5,0.370920353833473,0.5,0.346199914248585,0.724836182224102,0.370920353833473,0.629079646166526,0.370920353833473,0.629079646166526,0.106031965389454,0.476882499602697,-0.370920353833473,-0.0957565360575751,0.5,0.258159292333053,0.492735366964581,0.122235354644115,2.94118284362152,0.5,92.5709102165741
CBC_1022,CBC_1022_MSI_TV_v3_Vset1_Tset1_2023-07-18_13h36.12.008.csv,1,22,0,1,b,1,0,3,tac,A,63,1,0A,1A,1,0,z,2.50583659999984,0,1,0,0,1A,0A,A01,2.91777073208428,0.629079646166526,0.370920353833473,0.275163817775898,0.5,0.275163817775898,0.629079646166526,0.5,0.370920353833473,0.370920353833473,0.370920353833473,0.795872278696789,0.5,0.370920353833473,0.5,0.346199914248585,0.724836182224102,0.370920353833473,0.629079646166526,0.370920353833473,0.629079646166526,0.109849702044809,0.476986816462207,-0.370920353833473,-0.0957565360575751,0.5,0.258159292333053,0.492735366964581,0.122235354644115,2.94118284362152,0.5,92.5709102165741
CBC_1022,CBC_1022_MSI_TV_v3_Vset1_Tset1_2023-07-18_13h36.12.008.csv,1,23,3,2,z,0,1,2,tac,C,63,1,3C,2C,0,1,b,2.52404249999972,1,0,0,0,3C,2C,C32,2.94443897916644,0.629079646166526,0.275163817775898,0.275163817775898,0.5,0.275163817775898,0.629079646166526,0.5,0.370920353833473,0.370920353833473,0.370920353833473,0.795872278696789,0.5,0.370920353833473,0.5,0.346199914248585,0.724836182224102,0.385840493866287,0.614159506133713,0.5,0.795872278696789,0.109167773500842,0.478972122819274,-0.5,-0.129079646166527,0.5,0.258159292333053,0.492735366964581,0.122235354644115,2.94118284362152,0.5,92.5709102165741
CBC_1022,CBC_1022_MSI_TV_v3_Vset1_Tset1_2023-07-18_13h36.12.008.csv,1,24,2,0,z,0,1,3,tac,A,27,1,2A,0A,0,1,b,2.61054349999949,1,0,0,0,2A,0A,A20,2.56494935746154,0.629079646166526,0.275163817775898,0.275163817775898,0.5,0.275163817775898,0.629079646166526,0.5,0.370920353833473,0.370920353833473,0.370920353833473,0.795872278696789,0.370920353833473,0.370920353833473,0.5,0.346199914248585,0.724836182224102,0.304302799797089,0.695697200202911,0.275163817775898,0.629079646166526,0.100981354457559,0.465425164882188,-0.275163817775898,-0.0710360964726871,0.5,0.258159292333053,0.492735366964581,0.122235354644115,2.94118284362152,0.5,92.5709102165741
CBC_1022,CBC_1022_MSI_TV_v3_Vset1_Tset1_2023-07-18_13h36.12.008.csv,1,25,0,1,z,0,1,1,tac,B,63,1,0B,1B,0,1,z,2.50133180000057,0,1,1,1,1B,0B,B01,2.30258509299405,0.629079646166526,0.275163817775898,0.204127721303211,0.5,0.275163817775898,0.629079646166526,0.5,0.370920353833473,0.370920353833473,0.370920353833473,0.795872278696789,0.370920353833473,0.370920353833473,0.5,0.346199914248585,0.724836182224102,0.695697200202911,0.304302799797089,0.629079646166526,0.275163817775898,0.123002152265818,0.532688077586661,0.370920353833474,0.0957565360575752,0.5,0.258159292333053,0.492735366964581,0.122235354644115,2.94118284362152,0.5,92.5709102165741
CBC_1022,CBC_1022_MSI_TV_v3_Vset1_Tset1_2023-07-18_13h36.12.008.csv,1,26,3,2,b,1,0,0,tac,D,63,1,3D,2D,1,0,b,1.87911109999959,1,0,1,1,3D,2D,D32,3.02042488614436,0.629079646166526,0.275163817775898,0.204127721303211,0.5,0.275163817775898,0.724836182224102,0.5,0.370920353833473,0.370920353833473,0.370920353833473,0.795872278696789,0.370920353833473,0.370920353833473,0.5,0.346199914248585,0.724836182224102,0.676761674616992,0.323238325383008,0.724836182224102,0.346199914248585,0.174143823064867,0.531220559443292,0.275163817775898,0.0710360964726871,0.5,0.258159292333053,0.492735366964581,0.122235354644115,2.94118284362152,0.5,92.5709102165741
CBC_1022,CBC_1022_MSI_TV_v3_Vset1_Tset1_2023-07-18_13h36.12.008.csv,1,27,2,1,z,0,1,1,tac,B,9,1,2B,1B,0,1,z,2.79780989999972,0,1,1,1,1B,2B,B21,3.73766961828337,0.629079646166526,0.275163817775898,0.204127721303211,0.5,0.275163817775898,0.724836182224102,0.5,0.370920353833473,0.370920353833473,0.370920353833473,0.795872278696789,0.370920353833473,0.370920353833473,0.5,0.346199914248585,0.795872278696789,0.591782144211251,0.408217855788749,0.724836182224102,0.5,0.10067495771138,0.516313532916647,0.275163817775898,0.0710360964726871,0.5,0.258159292333053,0.492735366964581,0.122235354644115,2.94118284362152,0.5,92.5709102165741
CBC_1022,CBC_1022_MSI_TV_v3_Vset1_Tset1_2023-07-18_13h36.12.008.csv,1,28,3,1,b,1,0,0,tac,D,27,1,3D,1D,1,0,b,1.96394529999952,1,0,1,1,3D,1D,D31,3.76120011569356,0.629079646166526,0.275163817775898,0.204127721303211,0.5,0.275163817775898,0.795872278696789,0.5,0.370920353833473,0.370920353833473,0.370920353833473,0.795872278696789,0.370920353833473,0.370920353833473,0.5,0.346199914248585,0.795872278696789,0.614159506133713,0.385840493866287,0.795872278696789,0.5,0.162812923994523,0.520605102957663,0.204127721303211,0.0526974680771957,0.5,0.258159292333053,0.492735366964581,0.122235354644115,2.94118284362152,0.5,92.5709102165741
CBC_1022,CBC_1022_MSI_TV_v3_Vset1_Tset1_2023-07-18_13h36.12.008.csv,1,29,0,1,b,1,0,3,tac,A,63,1,0A,1A,1,0,b,2.69706900000028,1,0,1,1,0A,1A,A01,2.68557734525015,0.629079646166526,0.275163817775898,0.204127721303211,0.5,0.275163817775898,0.795872278696789,0.5,0.370920353833473,0.370920353833473,0.370920353833473,0.795872278696789,0.370920353833473,0.370920353833473,0.5,0.346199914248585,0.848569746773984,0.695697200202911,0.304302799797089,0.629079646166526,0.275163817775898,0.110343907449668,0.53432799196748,0.370920353833474,0.0957565360575752,0.5,0.258159292333053,0.492735366964581,0.122235354644115,2.94118284362152,0.5,92.5709102165741
CBC_1022,CBC_1022_MSI_TV_v3_Vset1_Tset1_2023-07-18_13h36.12.008.csv,1,30,1,0,z,0,1,3,tac,A,63,1,1A,0A,0,1,z,2.35810889999948,0,1,1,1,0A,1A,A10,3.11351530921037,0.724836182224102,0.275163817775898,0.204127721303211,0.5,0.275163817775898,0.795872278696789,0.5,0.370920353833473,0.370920353833473,0.370920353833473,0.795872278696789,0.370920353833473,0.370920353833473,0.5,0.346199914248585,0.848569746773984,0.724836182224102,0.275163817775898,0.724836182224102,0.275163817775898,0.135725681999769,0.541656542286509,0.275163817775898,0.0710360964726871,0.5,0.258159292333053,0.492735366964581,0.122235354644115,2.94118284362152,0.5,92.5709102165741
CBC_1022,CBC_1022_MSI_TV_v3_Vset1_Tset1_2023-07-18_13h36.12.008.csv,1,31,2,0,b,1,0,2,tac,C,27,1,2C,0C,1,0,b,2.41943469999978,1,0,1,1,2C,0C,C20,3.13549421592915,0.795872278696789,0.275163817775898,0.204127721303211,0.5,0.275163817775898,0.795872278696789,0.5,0.370920353833473,0.370920353833473,0.370920353833473,0.795872278696789,0.370920353833473,0.370920353833473,0.5,0.346199914248585,0.848569746773984,0.68210259176122,0.31789740823878,0.795872278696789,0.370920353833473,0.128735150278944,0.532105302898769,0.204127721303211,0.0526974680771957,0.5,0.258159292333053,0.492735366964581,0.122235354644115,2.94118284362152,0.5,92.5709102165741
CBC_1022,CBC_1022_MSI_TV_v3_Vset1_Tset1_2023-07-18_13h36.12.008.csv,1,32,0,1,b,1,0,3,tac,A,63,1,0A,1A,1,0,b,1.90789379999978,1,0,1,1,0A,1A,A01,2.46385324059017,0.795872278696789,0.275163817775898,0.204127721303211,0.5,0.275163817775898,0.795872278696789,0.5,0.370920353833473,0.370920353833473,0.370920353833473,0.848569746773984,0.370920353833473,0.370920353833473,0.5,0.346199914248585,0.848569746773984,0.743086326705409,0.256913673294591,0.795872278696789,0.275163817775898,0.175883673871392,0.54467706531832,0.204127721303211,0.0526974680771957,0.5,0.258159292333053,0.492735366964581,0.122235354644115,2.94118284362152,0.5,92.5709102165741
CBC_1022,CBC_1022_MSI_TV_v3_Vset1_Tset1_2023-07-18_13h36.12.008.csv,1,33,0,1,z,0,1,1,tac,B,63,1,0B,1B,0,1,z,2.54128420000006,0,1,1,1,1B,0B,B01,2.26176309847379,0.848569746773984,0.275163817775898,0.204127721303211,0.5,0.275163817775898,0.795872278696789,0.5,0.370920353833473,0.370920353833473,0.370920353833473,0.848569746773984,0.370920353833473,0.370920353833473,0.5,0.346199914248585,0.848569746773984,0.743086326705409,0.256913673294591,0.795872278696789,0.275163817775898,0.123008561556314,0.544936652765288,0.204127721303211,0.0526974680771957,0.5,0.258159292333053,0.492735366964581,0.122235354644115,2.94118284362152,0.5,92.5709102165741
CBC_1022,CBC_1022_MSI_TV_v3_Vset1_Tset1_2023-07-18_13h36.12.008.csv,1,34,2,3,z,0,1,0,tac,D,63,1,2D,3D,0,1,b,2.1315568999994,1,0,0,0,2D,3D,D23,2.50552593699074,0.848569746773984,0.275163817775898,0.204127721303211,0.5,0.275163817775898,0.848569746773984,0.5,0.370920353833473,0.370920353833473,0.370920353833473,0.848569746773984,0.370920353833473,0.370920353833473,0.5,0.346199914248585,0.848569746773984,0.289762893671306,0.710237106328694,0.346199914248585,0.848569746773984,0.131636135848567,0.46204834503804,-0.346199914248585,-0.0893747248681784,0.5,0.258159292333053,0.492735366964581,0.122235354644115,2.94118284362152,0.5,92.5709102165741
CBC_1022,CBC_1022_MSI_TV_v3_Vset1_Tset1_2023-07-18_13h36.12.008.csv,1,35,1,3,b,1,0,1,tac,B,27,1,1B,3B,1,0,b,2.39294169999948,1,0,1,1,1B,3B,B13,2.81341071676004,0.848569746773984,0.275163817775898,0.204127721303211,0.5,0.275163817775898,0.848569746773984,0.5,0.370920353833473,0.370920353833473,0.370920353833473,0.848569746773984,0.370920353833473,0.370920353833473,0.5,0.256825189380407,0.848569746773984,0.695839799233541,0.304160200766459,0.848569746773984,0.370920353833473,0.131657076048445,0.536003590182505,0.151430253226016,0.0390931270106432,0.5,0.258159292333053,0.492735366964581,0.122235354644115,2.94118284362152,0.5,92.5709102165741
CBC_1022,CBC_1022_MSI_TV_v3_Vset1_Tset1_2023-07-18_13h36.12.008.csv,1,36,2,3,b,1,0,2,tac,C,63,1,2C,3C,1,0,z,2.97239389999913,0,1,0,0,3C,2C,C23,2.83321334405622,0.848569746773984,0.275163817775898,0.204127721303211,0.5,0.275163817775898,0.887662873784628,0.5,0.370920353833473,0.370920353833473,0.370920353833473,0.848569746773984,0.370920353833473,0.370920353833473,0.5,0.256825189380407,0.848569746773984,0.304160200766459,0.695839799233541,0.370920353833473,0.848569746773984,0.0820269264431663,0.464863359547026,-0.370920353833473,-0.0957565360575751,0.5,0.258159292333053,0.492735366964581,0.122235354644115,2.94118284362152,0.5,92.5709102165741
CBC_1022,CBC_1022_MSI_TV_v3_Vset1_Tset1_2023-07-18_13h36.12.008.csv,1,37,0,2,z,0,1,2,tac,C,27,1,0C,2C,0,1,b,2.38686919999918,1,0,0,0,0C,2C,C02,3.95124371858143,0.848569746773984,0.275163817775898,0.204127721303211,0.5,0.275163817775898,0.887662873784628,0.5,0.370920353833473,0.370920353833473,0.370920353833473,0.848569746773984,0.275163817775898,0.370920353833473,0.5,0.256825189380407,0.848569746773984,0.304160200766459,0.695839799233541,0.370920353833473,0.848569746773984,0.114295853963535,0.463714247771828,-0.370920353833473,-0.0957565360575751,0.5,0.258159292333053,0.492735366964581,0.122235354644115,2.94118284362152,0.5,92.5709102165741
CBC_1022,CBC_1022_MSI_TV_v3_Vset1_Tset1_2023-07-18_13h36.12.008.csv,1,38,0,1,z,0,1,1,tac,B,63,1,0B,1B,0,1,z,3.12484379999978,0,1,1,1,1B,0B,B01,2.17853244432407,0.848569746773984,0.275163817775898,0.204127721303211,0.5,0.275163817775898,0.887662873784628,0.5,0.370920353833473,0.275163817775898,0.370920353833473,0.848569746773984,0.275163817775898,0.370920353833473,0.5,0.256825189380407,0.848569746773984,0.763366441643487,0.236633558356513,0.887662873784628,0.275163817775898,0.0887527235969964,0.549051591315035,0.112337126215372,0.0290008730064894,0.5,0.258159292333053,0.492735366964581,0.122235354644115,2.94118284362152,0.5,92.5709102165741
CBC_1022,CBC_1022_MSI_TV_v3_Vset1_Tset1_2023-07-18_13h36.12.008.csv,1,39,0,3,b,1,0,3,tac,A,9,1,0A,3A,1,0,b,2.46242889999894,1,0,1,1,0A,3A,A03,3.98898404656427,0.848569746773984,0.275163817775898,0.204127721303211,0.5,0.275163817775898,0.916663746791117,0.5,0.370920353833473,0.275163817775898,0.370920353833473,0.848569746773984,0.275163817775898,0.370920353833473,0.5,0.256825189380407,0.848569746773984,0.629236825758484,0.370763174241516,0.848569746773984,0.5,0.123343459696592,0.522505911736347,0.151430253226016,0.0390931270106432,0.5,0.258159292333053,0.492735366964581,0.122235354644115,2.94118284362152,0.5,92.5709102165741
CBC_1022,CBC_1022_MSI_TV_v3_Vset1_Tset1_2023-07-18_13h36.12.008.csv,1,40,2,3,b,1,0,2,tac,C,63,0,2C,3C,0,1,b,2.46913579999955,1,0,1,0,2C,3C,C23,2.62103882411258,0.887662873784628,0.275163817775898,0.204127721303211,0.5,0.275163817775898,0.916663746791117,0.5,0.370920353833473,0.275163817775898,0.370920353833473,0.848569746773984,0.275163817775898,0.370920353833473,0.5,0.256825189380407,0.848569746773984,0.755134289429081,0.244865710570919,0.848569746773984,0.275163817775898,0.12804040645734,0.544342703670787,-0.848569746773984,-0.21906616532241,0.5,0.258159292333053,0.492735366964581,0.122235354644115,2.94118284362152,0.5,92.5709102165741
CBC_1022,CBC_1022_MSI_TV_v3_Vset1_Tset1_2023-07-18_13h36.12.008.csv,1,41,0,1,b,1,0,3,tac,A,63,1,0A,1A,1,0,z,3.04731539999966,0,1,0,0,1A,0A,A01,2.41591377830105,0.887662873784628,0.275163817775898,0.204127721303211,0.5,0.275163817775898,0.916663746791117,0.5,0.370920353833473,0.275163817775898,0.370920353833473,0.629503581451575,0.275163817775898,0.370920353833473,0.5,0.256825189380407,0.848569746773984,0.236633558356513,0.763366441643487,0.275163817775898,0.887662873784628,0.0764765398924919,0.452538227903473,-0.275163817775898,-0.0710360964726871,0.5,0.258159292333053,0.492735366964581,0.122235354644115,2.94118284362152,0.5,92.5709102165741
CBC_1022,CBC_1022_MSI_TV_v3_Vset1_Tset1_2023-07-18_13h36.12.008.csv,1,42,2,3,z,0,1,0,tac,D,63,1,2D,3D,0,1,z,2.71819350000033,0,1,1,1,3D,2D,D23,2.43361335540045,0.887662873784628,0.204127721303211,0.204127721303211,0.5,0.275163817775898,0.916663746791117,0.5,0.370920353833473,0.275163817775898,0.370920353833473,0.629503581451575,0.275163817775898,0.370920353833473,0.5,0.256825189380407,0.848569746773984,0.767662053642214,0.232337946357786,0.848569746773984,0.256825189380407,0.111800586078827,0.547990516153182,0.151430253226016,0.0390931270106432,0.5,0.258159292333053,0.492735366964581,0.122235354644115,2.94118284362152,0.5,92.5709102165741
CBC_1022,CBC_1022_MSI_TV_v3_Vset1_Tset1_2023-07-18_13h36.12.008.csv,1,43,3,2,z,0,1,2,tac,C,63,1,3C,2C,0,1,b,2.53661479999982,1,0,0,0,3C,2C,C32,2.96183072187831,0.887662873784628,0.204127721303211,0.204127721303211,0.5,0.275163817775898,0.916663746791117,0.5,0.370920353833473,0.275163817775898,0.370920353833473,0.629503581451575,0.275163817775898,0.370920353833473,0.5,0.256825189380407,0.887662873784628,0.304160200766459,0.695839799233541,0.275163817775898,0.629503581451575,0.104958441345309,0.463769821898194,-0.275163817775898,-0.0710360964726871,0.5,0.258159292333053,0.492735366964581,0.122235354644115,2.94118284362152,0.5,92.5709102165741
CBC_1022,CBC_1022_MSI_TV_v3_Vset1_Tset1_2023-07-18_13h36.12.008.csv,1,44,3,1,b,1,0,0,tac,D,27,1,3D,1D,1,0,z,2.63015120000045,0,1,0,0,1D,3D,D31,3.38439026334577,0.887662873784628,0.204127721303211,0.204127721303211,0.5,0.275163817775898,0.916663746791117,0.5,0.370920353833473,0.275163817775898,0.370920353833473,0.629503581451575,0.204127721303211,0.370920353833473,0.5,0.256825189380407,0.887662873784628,0.360318063879832,0.639681936120169,0.5,0.887662873784628,0.102043028726579,0.475617287847098,-0.5,-0.129079646166527,0.5,0.258159292333053,0.492735366964581,0.122235354644115,2.94118284362152,0.5,92.5709102165741
CBC_1022,CBC_1022_MSI_AV_v3_Vset4_Aset1_2023-07-18_13h44.55.295.csv,2,1,0,1,b,1,0,3,aud,A,63,1,0A,1A,1,0,z,2.37517919999937,0,1,0,0,1A,0A,A01,2.77258872223978,0.5,0.5,0.5,0.5,0.5,0.5,0.5,0.5,0.5,0.5,0.5,0.5,0.5,0.5,0.5,0.5,0.5,0.5,0.5,0.5,0.183594171639408,0.500406034400814,-0.5,-0.0017371668395546,0.5,0.00347433367910921,1.09997913246497,0.00355874423259173,2.52202014659978,0.5,74.0828770576068
CBC_1022,CBC_1022_MSI_AV_v3_Vset4_Aset1_2023-07-18_13h44.55.295.csv,2,2,2,3,b,1,0,2,aud,C,63,1,2C,3C,1,0,b,2.48816729999908,1,0,1,1,2C,3C,C23,2.83321334405622,0.5,0.498262833160445,0.5,0.5,0.5,0.5,0.5,0.5,0.5,0.5,0.5,0.5,0.5,0.5,0.5,0.5,0.5,0.5,0.5,0.5,0.168024418156837,0.499650777192294,0.5,0.0017371668395546,0.5,0.00347433367910921,1.09997913246497,0.00355874423259173,2.52202014659978,0.5,74.0828770576068
CBC_1022,CBC_1022_MSI_AV_v3_Vset4_Aset1_2023-07-18_13h44.55.295.csv,2,3,2,0,z,0,1,3,aud,A,27,1,2A,0A,0,1,b,2.56537929999922,1,0,0,0,2A,0A,A20,2.89037175789616,0.5,0.498262833160445,0.5,0.5,0.5,0.5,0.5,0.5,0.5,0.5,0.501737166839555,0.5,0.5,0.5,0.5,0.5,0.5,0.5,0.5,0.5,0.158111368866562,0.499095195166743,-0.5,-0.0017371668395546,0.5,0.00347433367910921,1.09997913246497,0.00355874423259173,2.52202014659978,0.5,74.0828770576068
CBC_1022,CBC_1022_MSI_AV_v3_Vset4_Aset1_2023-07-18_13h44.55.295.csv,2,4,0,1,z,0,1,1,aud,B,63,1,0B,1B,0,1,z,2.6163751999984,0,1,1,1,1B,0B,B01,2.94443897916644,0.5,0.498262833160445,0.498262833160445,0.5,0.5,0.5,0.5,0.5,0.5,0.5,0.501737166839555,0.5,0.5,0.5,0.5,0.5,0.5,0.5,0.5,0.5,0.151922941260019,0.498869229350005,0.5,0.0017371668395546,0.5,0.00347433367910921,1.09997913246497,0.00355874423259173,2.52202014659978,0.5,74.0828770576068
CBC_1022,CBC_1022_MSI_AV_v3_Vset4_Aset1_2023-07-18_13h44.55.295.csv,2,5,3,2,b,1,0,0,aud,D,63,1,3D,2D,1,0,b,2.22103229999902,1,0,1,1,3D,2D,D32,2.99573227355399,0.5,0.498262833160445,0.498262833160445,0.5,0.5,0.501737166839555,0.5,0.5,0.5,0.5,0.501737166839555,0.5,0.5,0.5,0.5,0.5,0.5,0.5,0.5,0.5,0.206022652102718,0.499119109251065,0.5,0.0017371668395546,0.5,0.00347433367910921,1.09997913246497,0.00355874423259173,2.52202014659978,0.5,74.0828770576068
CBC_1022,CBC_1022_MSI_AV_v3_Vset4_Aset1_2023-07-18_13h44.55.295.csv,2,6,2,1,z,0,1,1,aud,B,9,1,2B,1B,0,1,z,2.57462739999937,0,1,1,1,1B,2B,B21,3.04452243772342,0.5,0.498262833160445,0.498262833160445,0.5,0.5,0.501737166839555,0.5,0.5,0.5,0.5,0.501737166839555,0.5,0.5,0.5,0.5,0.501737166839555,0.500867077162084,0.499132922837916,0.501737166839555,0.5,0.156959316819004,0.499016969710005,0.498262833160445,0.00173113134229771,0.5,0.00347433367910921,1.09997913246497,0.00355874423259173,2.52202014659978,0.5,74.0828770576068
CBC_1022,CBC_1022_MSI_AV_v3_Vset4_Aset1_2023-07-18_13h44.55.295.csv,2,7,3,1,b,1,0,0,aud,D,27,1,3D,1D,1,0,b,2.5777349,1,0,1,1,3D,1D,D31,3.09104245335832,0.5,0.498262833160445,0.498262833160445,0.5,0.5,0.503468298181852,0.5,0.5,0.5,0.5,0.501737166839555,0.5,0.5,0.5,0.5,0.501737166839555,0.500867077162084,0.499132922837916,0.501737166839555,0.5,0.157051986955405,0.500513861190517,0.498262833160445,0.00173113134229771,0.5,0.00347433367910921,1.09997913246497,0.00355874423259173,2.52202014659978,0.5,74.0828770576068
CBC_1022,CBC_1022_MSI_AV_v3_Vset4_Aset1_2023-07-18_13h44.55.295.csv,2,8,0,1,b,1,0,3,aud,A,63,1,0A,1A,1,0,z,2.37503889999971,0,1,0,0,1A,0A,A01,2.4423470353692,0.5,0.498262833160445,0.498262833160445,0.5,0.5,0.503468298181852,0.5,0.5,0.5,0.5,0.501737166839555,0.5,0.5,0.5,0.5,0.503468298181852,0.499129905080181,0.500870094919819,0.498262833160445,0.5,0.183404071666682,0.499833990920392,-0.498262833160445,-0.00173113134229771,0.5,0.00347433367910921,1.09997913246497,0.00355874423259173,2.52202014659978,0.5,74.0828770576068
CBC_1022,CBC_1022_MSI_AV_v3_Vset4_Aset1_2023-07-18_13h44.55.295.csv,2,9,1,0,z,0,1,3,aud,A,63,1,1A,0A,0,1,b,2.30635139999958,1,0,0,0,1A,0A,A10,3.17805383034795,0.5,0.496531701818148,0.498262833160445,0.5,0.5,0.503468298181852,0.5,0.5,0.5,0.5,0.501737166839555,0.5,0.5,0.5,0.5,0.503468298181852,0.498259815430094,0.501740184569906,0.496531701818148,0.5,0.193259033218766,0.499650562731181,-0.496531701818148,-0.0017251168143722,0.5,0.00347433367910921,1.09997913246497,0.00355874423259173,2.52202014659978,0.5,74.0828770576068
CBC_1022,CBC_1022_MSI_AV_v3_Vset4_Aset1_2023-07-18_13h44.55.295.csv,2,10,0,2,z,0,1,2,aud,C,27,1,0C,2C,0,1,z,2.40748389999862,0,1,1,1,2C,0C,C02,3.2188758248682,0.5,0.494806585003776,0.498262833160445,0.5,0.5,0.503468298181852,0.5,0.5,0.5,0.5,0.501737166839555,0.5,0.5,0.5,0.5,0.503468298181852,0.500867077162084,0.499132922837916,0.501737166839555,0.5,0.178666592250526,0.499235248203949,0.498262833160445,0.00173113134229771,0.5,0.00347433367910921,1.09997913246497,0.00355874423259173,2.52202014659978,0.5,74.0828770576068
CBC_1022,CBC_1022_MSI_AV_v3_Vset4_Aset1_2023-07-18_13h44.55.295.csv,2,11,1,0,b,1,0,1,aud,B,63,1,1B,0B,1,0,z,2.60643809999965,0,1,0,0,0B,1B,B10,3.25809653802148,0.5,0.494806585003776,0.498262833160445,0.5,0.5,0.503468298181852,0.5,0.5,0.5,0.5,0.503468298181852,0.5,0.5,0.5,0.5,0.503468298181852,0.498271844667073,0.501728155332927,0.5,0.503468298181852,0.153173246991248,0.499119835512813,-0.5,-0.0017371668395546,0.5,0.00347433367910921,1.09997913246497,0.00355874423259173,2.52202014659978,0.5,74.0828770576068
CBC_1022,CBC_1022_MSI_AV_v3_Vset4_Aset1_2023-07-18_13h44.55.295.csv,2,12,1,0,z,0,1,3,aud,A,63,1,1A,0A,0,1,b,2.44906489999994,1,0,0,0,1A,0A,A10,2.60268968544438,0.5,0.494806585003776,0.498262833160445,0.5,0.498262833160445,0.503468298181852,0.5,0.5,0.5,0.5,0.503468298181852,0.5,0.5,0.5,0.5,0.503468298181852,0.497389736319345,0.502610263680655,0.494806585003776,0.5,0.173476699512709,0.500523963451116,-0.494806585003776,-0.00171912318292363,0.5,0.00347433367910921,1.09997913246497,0.00355874423259173,2.52202014659978,0.5,74.0828770576068
CBC_1022,CBC_1022_MSI_AV_v3_Vset4_Aset1_2023-07-18_13h44.55.295.csv,2,13,2,3,b,1,0,2,aud,C,63,1,2C,3C,1,0,z,2.38543129999925,0,1,0,0,3C,2C,C23,2.63905732961526,0.5,0.493087461820852,0.498262833160445,0.5,0.498262833160445,0.503468298181852,0.5,0.5,0.5,0.5,0.503468298181852,0.5,0.5,0.5,0.5,0.503468298181852,0.498271844667073,0.501728155332927,0.5,0.503468298181852,0.18206210290136,0.500159166224084,-0.5,-0.0017371668395546,0.5,0.00347433367910921,1.09997913246497,0.00355874423259173,2.52202014659978,0.5,74.0828770576068
CBC_1022,CBC_1022_MSI_AV_v3_Vset4_Aset1_2023-07-18_13h44.55.295.csv,2,14,2,0,z,0,1,3,aud,A,27,1,2A,0A,0,1,b,2.08566399999927,1,0,0,0,2A,0A,A20,2.67414864942653,0.5,0.493087461820852,0.498262833160445,0.5,0.498262833160445,0.503468298181852,0.5,0.5,0.5,0.5,0.503468298181852,0.498262833160445,0.5,0.5,0.5,0.503468298181852,0.499129905080181,0.500870094919819,0.498262833160445,0.5,0.228617545363734,0.500525996654579,-0.498262833160445,-0.00173113134229771,0.5,0.00347433367910921,1.09997913246497,0.00355874423259173,2.52202014659978,0.5,74.0828770576068
CBC_1022,CBC_1022_MSI_AV_v3_Vset4_Aset1_2023-07-18_13h44.55.295.csv,2,15,0,1,z,0,1,1,aud,B,63,1,0B,1B,0,1,z,2.52400699999907,0,1,1,1,1B,0B,B01,2.70805020110221,0.5,0.493087461820852,0.496531701818148,0.5,0.498262833160445,0.503468298181852,0.5,0.5,0.5,0.5,0.503468298181852,0.498262833160445,0.5,0.5,0.5,0.503468298181852,0.502598234625309,0.497401765374691,0.503468298181852,0.498262833160445,0.163654963900749,0.500325001488852,0.496531701818148,0.0017251168143722,0.5,0.00347433367910921,1.09997913246497,0.00355874423259173,2.52202014659978,0.5,74.0828770576068
CBC_1022,CBC_1022_MSI_AV_v3_Vset4_Aset1_2023-07-18_13h44.55.295.csv,2,16,1,0,b,1,0,1,aud,B,63,1,1B,0B,1,0,b,2.64442309999959,1,0,1,1,1B,0B,B10,2.7408400239252,0.5,0.493087461820852,0.496531701818148,0.5,0.498262833160445,0.505193414996224,0.5,0.5,0.5,0.5,0.503468298181852,0.498262833160445,0.5,0.5,0.5,0.503468298181852,0.50345335526512,0.49654664473488,0.505193414996224,0.498262833160445,0.149026189692681,0.50010309184996,0.494806585003776,0.00171912318292363,0.5,0.00347433367910921,1.09997913246497,0.00355874423259173,2.52202014659978,0.5,74.0828770576068
CBC_1022,CBC_1022_MSI_AV_v3_Vset4_Aset1_2023-07-18_13h44.55.295.csv,2,17,2,3,b,1,0,2,aud,C,63,1,2C,3C,1,0,z,2.33843139999954,0,1,0,0,3C,2C,C23,2.36712361413162,0.5,0.493087461820852,0.496531701818148,0.5,0.498262833160445,0.506912538179148,0.5,0.5,0.5,0.5,0.503468298181852,0.498262833160445,0.5,0.5,0.5,0.503468298181852,0.497401765374691,0.502598234625309,0.498262833160445,0.503468298181852,0.188495647390941,0.499465043894837,-0.498262833160445,-0.00173113134229771,0.5,0.00347433367910921,1.09997913246497,0.00355874423259173,2.52202014659978,0.5,74.0828770576068
CBC_1022,CBC_1022_MSI_AV_v3_Vset4_Aset1_2023-07-18_13h44.55.295.csv,2,18,1,3,z,0,1,0,aud,D,27,1,1D,3D,0,1,b,2.43688339999881,1,0,0,0,1D,3D,D13,3.49650756146648,0.5,0.493087461820852,0.496531701818148,0.5,0.498262833160445,0.506912538179148,0.5,0.5,0.5,0.5,0.503468298181852,0.496531701818148,0.5,0.5,0.5,0.503468298181852,0.498271844667073,0.501728155332927,0.5,0.503468298181852,0.174822343159279,0.499689075473032,-0.5,-0.0017371668395546,0.5,0.00347433367910921,1.09997913246497,0.00355874423259173,2.52202014659978,0.5,74.0828770576068
CBC_1022,CBC_1022_MSI_AV_v3_Vset4_Aset1_2023-07-18_13h44.55.295.csv,2,19,2,1,b,1,0,2,aud,C,9,1,2C,1C,1,0,z,2.42348799999854,0,1,0,0,1C,2C,C21,3.52636052461616,0.5,0.493087461820852,0.496531701818148,0.5,0.498262833160445,0.506912538179148,0.5,0.5,0.5,0.5,0.503468298181852,0.496531701818148,0.5,0.498262833160445,0.5,0.503468298181852,0.498271844667073,0.501728155332927,0.5,0.503468298181852,0.176956927866505,0.500593392704689,-0.5,-0.0017371668395546,0.5,0.00347433367910921,1.09997913246497,0.00355874423259173,2.52202014659978,0.5,74.0828770576068
CBC_1022,CBC_1022_MSI_AV_v3_Vset4_Aset1_2023-07-18_13h44.55.295.csv,2,20,1,3,b,1,0,1,aud,B,27,1,1B,3B,1,0,b,2.67926899999929,1,0,1,1,1B,3B,B13,3.55534806148941,0.5,0.493087461820852,0.496531701818148,0.5,0.498262833160445,0.506912538179148,0.5,0.5,0.5,0.498262833160445,0.503468298181852,0.496531701818148,0.5,0.498262833160445,0.5,0.503468298181852,0.503432541515298,0.496567458484702,0.506912538179148,0.5,0.144985411590445,0.499856030029595,0.493087461820852,0.00171315037535066,0.5,0.00347433367910921,1.09997913246497,0.00355874423259173,2.52202014659978,0.5,74.0828770576068
CBC_1022,CBC_1022_MSI_AV_v3_Vset4_Aset1_2023-07-18_13h44.55.295.csv,2,21,2,3,z,0,1,0,aud,D,63,1,2D,3D,0,1,z,2.31008999999904,0,1,1,1,3D,2D,D23,3.58351893845611,0.5,0.493087461820852,0.496531701818148,0.5,0.498262833160445,0.508625688554499,0.5,0.5,0.5,0.498262833160445,0.503468298181852,0.496531701818148,0.5,0.498262833160445,0.5,0.503468298181852,0.501728155332927,0.498271844667073,0.503468298181852,0.5,0.193102363009309,0.500676296855856,0.496531701818148,0.0017251168143722,0.5,0.00347433367910921,1.09997913246497,0.00355874423259173,2.52202014659978,0.5,74.0828770576068
CBC_1022,CBC_1022_MSI_AV_v3_Vset4_Aset1_2023-07-18_13h44.55.295.csv,2,22,0,1,z,0,1,1,aud,B,63,0,0B,1B,1,0,b,2.75126249999994,1,0,0,1,0B,1B,B01,2.51230562397611,0.5,0.493087461820852,0.496531701818148,0.5,0.498262833160445,0.508625688554499,0.5,0.5,0.5,0.498262833160445,0.503468298181852,0.496531701818148,0.5,0.498262833160445,0.5,0.505193414996224,0.494854020494541,0.505145979505459,0.498262833160445,0.508625688554499,0.137077311192413,0.499709912311156,0.501737166839555,0.0017432023368115,0.5,0.00347433367910921,1.09997913246497,0.00355874423259173,2.52202014659978,0.5,74.0828770576068
CBC_1022,CBC_1022_MSI_AV_v3_Vset4_Aset1_2023-07-18_13h44.55.295.csv,2,23,0,3,b,1,0,3,aud,A,9,1,0A,3A,1,0,z,2.05466869999964,0,1,0,0,3A,0A,A03,3.63758615972639,0.5,0.493087461820852,0.496531701818148,0.5,0.500006035497257,0.508625688554499,0.5,0.5,0.5,0.498262833160445,0.503468298181852,0.496531701818148,0.5,0.498262833160445,0.5,0.505193414996224,0.5,0.5,0.5,0.5,0.233679925171499,0.500159216541224,-0.5,-0.0017371668395546,0.5,0.00347433367910921,1.09997913246497,0.00355874423259173,2.52202014659978,0.5,74.0828770576068
CBC_1022,CBC_1022_MSI_AV_v3_Vset4_Aset1_2023-07-18_13h44.55.295.csv,2,24,3,2,b,1,0,0,aud,D,63,1,3D,2D,1,0,z,2.38792429999921,0,1,0,0,2D,3D,D32,2.9704144655697,0.5,0.493087461820852,0.496531701818148,0.498262833160445,0.500006035497257,0.508625688554499,0.5,0.5,0.5,0.498262833160445,0.503468298181852,0.496531701818148,0.5,0.498262833160445,0.5,0.505193414996224,0.497416708606152,0.502583291393848,0.5,0.505193414996224,0.181884837527837,0.500631587776408,-0.5,-0.0017371668395546,0.5,0.00347433367910921,1.09997913246497,0.00355874423259173,2.52202014659978,0.5,74.0828770576068
CBC_1022,CBC_1022_MSI_AV_v3_Vset4_Aset1_2023-07-18_13h44.55.295.csv,2,25,3,1,z,0,1,1,aud,B,27,1,3B,1B,0,1,b,1.88349989999915,1,0,0,0,3B,1B,B31,3.68887945411394,0.5,0.493087461820852,0.496531701818148,0.498262833160445,0.500006035497257,0.508625688554499,0.5,0.5,0.5,0.498262833160445,0.503468298181852,0.496531701818148,0.5,0.498262833160445,0.498262833160445,0.505193414996224,0.495724038832056,0.504275961167944,0.5,0.508625688554499,0.262525310354942,0.499660164448757,-0.5,-0.0017371668395546,0.5,0.00347433367910921,1.09997913246497,0.00355874423259173,2.52202014659978,0.5,74.0828770576068
CBC_1022,CBC_1022_MSI_AV_v3_Vset4_Aset1_2023-07-18_13h44.55.295.csv,2,26,3,2,z,0,1,2,aud,C,63,1,3C,2C,0,1,b,2.52796489999946,1,0,0,0,3C,2C,C32,3.71357206670431,0.5,0.493087461820852,0.496531701818148,0.498262833160445,0.500006035497257,0.508625688554499,0.5,0.498262833160445,0.5,0.498262833160445,0.503468298181852,0.496531701818148,0.5,0.498262833160445,0.498262833160445,0.505193414996224,0.496531701818148,0.503468298181852,0.496531701818148,0.503468298181852,0.163097133740201,0.500147796902757,-0.496531701818148,-0.0017251168143722,0.5,0.00347433367910921,1.09997913246497,0.00355874423259173,2.52202014659978,0.5,74.0828770576068
CBC_1022,CBC_1022_MSI_AV_v3_Vset4_Aset1_2023-07-18_13h44.55.295.csv,2,27,0,2,z,0,1,2,aud,C,27,1,0C,2C,0,1,z,2.89382739999928,0,1,1,1,2C,0C,C02,3.04452243772342,0.5,0.493087461820852,0.496531701818148,0.498262833160445,0.500006035497257,0.508625688554499,0.5,0.498262833160445,0.5,0.498262833160445,0.503468298181852,0.494806585003776,0.5,0.498262833160445,0.498262833160445,0.505193414996224,0.501728155332927,0.498271844667073,0.503468298181852,0.5,0.122875320973651,0.500295138726247,0.496531701818148,0.0017251168143722,0.5,0.00347433367910921,1.09997913246497,0.00355874423259173,2.52202014659978,0.5,74.0828770576068
CBC_1022,CBC_1022_MSI_AV_v3_Vset4_Aset1_2023-07-18_13h44.55.295.csv,2,28,1,0,b,1,0,1,aud,B,63,1,1B,0B,1,0,b,2.76276639999924,1,0,1,1,1B,0B,B10,2.66258782702545,0.5,0.493087461820852,0.496531701818148,0.498262833160445,0.500006035497257,0.508625688554499,0.5,0.498262833160445,0.5,0.498262833160445,0.505193414996224,0.494806585003776,0.5,0.498262833160445,0.498262833160445,0.505193414996224,0.504272943658076,0.495727056341924,0.508625688554499,0.500006035497257,0.136319017946537,0.501397190315531,0.491374311445501,0.0017071983193042,0.5,0.00347433367910921,1.09997913246497,0.00355874423259173,2.52202014659978,0.5,74.0828770576068
CBC_1022,CBC_1022_MSI_AV_v3_Vset4_Aset1_2023-07-18_13h44.55.295.csv,2,29,3,2,z,0,1,2,aud,C,63,1,3C,2C,0,1,z,2.4173697999986,0,1,1,1,2C,3C,C32,3.09104245335832,0.5,0.493087461820852,0.496531701818148,0.498262833160445,0.500006035497257,0.510332886873803,0.5,0.498262833160445,0.5,0.498262833160445,0.505193414996224,0.494806585003776,0.5,0.498262833160445,0.498262833160445,0.505193414996224,0.505193414996224,0.494806585003776,0.505193414996224,0.494806585003776,0.177647546135422,0.50018305520503,0.494806585003776,0.00171912318292363,0.5,0.00347433367910921,1.09997913246497,0.00355874423259173,2.52202014659978,0.5,74.0828770576068
CBC_1022,CBC_1022_MSI_AV_v3_Vset4_Aset1_2023-07-18_13h44.55.295.csv,2,30,0,1,b,1,0,3,aud,A,63,1,0A,1A,1,0,b,2.21809940000003,1,0,1,1,0A,1A,A01,2.70805020110221,0.5,0.493087461820852,0.496531701818148,0.498262833160445,0.500006035497257,0.510332886873803,0.5,0.498262833160445,0.5,0.498262833160445,0.506912538179148,0.494806585003776,0.5,0.498262833160445,0.498262833160445,0.505193414996224,0.503480326982718,0.496519673017282,0.5,0.493087461820852,0.206787777094465,0.499860577862137,0.5,0.0017371668395546,0.5,0.00347433367910921,1.09997913246497,0.00355874423259173,2.52202014659978,0.5,74.0828770576068
CBC_1022,CBC_1022_MSI_AV_v3_Vset4_Aset1_2023-07-18_13h44.55.295.csv,2,31,3,2,b,1,0,0,aud,D,63,1,3D,2D,1,0,b,2.48921579999933,1,0,1,1,3D,2D,D32,2.73002910782099,0.501737166839555,0.493087461820852,0.496531701818148,0.498262833160445,0.500006035497257,0.510332886873803,0.5,0.498262833160445,0.5,0.498262833160445,0.506912538179148,0.494806585003776,0.5,0.498262833160445,0.498262833160445,0.505193414996224,0.50345335526512,0.49654664473488,0.505193414996224,0.498262833160445,0.167629087363213,0.498878946550008,0.494806585003776,0.00171912318292363,0.5,0.00347433367910921,1.09997913246497,0.00355874423259173,2.52202014659978,0.5,74.0828770576068
CBC_1022,CBC_1022_MSI_AV_v3_Vset4_Aset1_2023-07-18_13h44.55.295.csv,2,32,3,2,z,0,1,2,aud,C,63,1,3C,2C,0,1,z,2.31592289999935,0,1,1,1,2C,3C,C32,2.75153531304195,0.501737166839555,0.493087461820852,0.496531701818148,0.498262833160445,0.500006035497257,0.510332886873803,0.5,0.498262833160445,0.5,0.498262833160445,0.506912538179148,0.494806585003776,0.5,0.498262833160445,0.498262833160445,0.506912538179148,0.506042588633482,0.493957411366518,0.506912538179148,0.494806585003776,0.192210206442935,0.500594278559696,0.493087461820852,0.00171315037535066,0.5,0.00347433367910921,1.09997913246497,0.00355874423259173,2.52202014659978,0.5,74.0828770576068
CBC_1022,CBC_1022_MSI_AV_v3_Vset4_Aset1_2023-07-18_13h44.55.295.csv,2,33,1,3,z,0,1,0,aud,D,27,1,1D,3D,0,1,b,2.03532069999892,1,0,0,0,1D,3D,D13,3.17805383034795,0.501737166839555,0.493087461820852,0.496531701818148,0.498262833160445,0.500006035497257,0.510332886873803,0.5,0.498262833160445,0.5,0.498262833160445,0.508625688554499,0.494806585003776,0.5,0.498262833160445,0.498262833160445,0.506912538179148,0.49569741496592,0.50430258503408,0.498262833160445,0.506912538179148,0.237487042533409,0.501250482689735,-0.498262833160445,-0.00173113134229771,0.5,0.00347433367910921,1.09997913246497,0.00355874423259173,2.52202014659978,0.5,74.0828770576068
CBC_1022,CBC_1022_MSI_AV_v3_Vset4_Aset1_2023-07-18_13h44.55.295.csv,2,34,2,0,b,1,0,2,aud,C,27,1,2C,0C,1,0,z,2.41926629999944,0,1,0,0,0C,2C,C20,3.89182029811063,0.501737166839555,0.493087461820852,0.496531701818148,0.498262833160445,0.500006035497257,0.510332886873803,0.5,0.498262833160445,0.5,0.498262833160445,0.508625688554499,0.494806585003776,0.5,0.496531701818148,0.498262833160445,0.506912538179148,0.495724038832056,0.504275961167944,0.5,0.508625688554499,0.17688734588914,0.49877081397637,-0.5,-0.0017371668395546,0.5,0.00347433367910921,1.09997913246497,0.00355874423259173,2.52202014659978,0.5,74.0828770576068
CBC_1022,CBC_1022_MSI_AV_v3_Vset4_Aset1_2023-07-18_13h44.55.295.csv,2,35,3,2,b,1,0,0,aud,D,63,0,3D,2D,0,1,z,2.43097969999872,0,1,0,1,2D,3D,D32,2.52572864430826,0.501737166839555,0.493087461820852,0.496531701818148,0.498262833160445,0.500006035497257,0.510332886873803,0.5,0.498262833160445,0.498262833160445,0.498262833160445,0.508625688554499,0.494806585003776,0.5,0.496531701818148,0.498262833160445,0.506912538179148,0.49569741496592,0.50430258503408,0.498262833160445,0.506912538179148,0.17574520345265,0.500045265172737,0.501737166839555,0.0017432023368115,0.5,0.00347433367910921,1.09997913246497,0.00355874423259173,2.52202014659978,0.5,74.0828770576068
CBC_1022,CBC_1022_MSI_AV_v3_Vset4_Aset1_2023-07-18_13h44.55.295.csv,2,36,0,1,b,1,0,3,aud,A,63,1,0A,1A,1,0,b,3.36003859999892,1,0,1,1,0A,1A,A01,2.54553127160444,0.501737166839555,0.493087461820852,0.496531701818148,0.498262833160445,0.500006035497257,0.510332886873803,0.5,0.498262833160445,0.498262833160445,0.498262833160445,0.508625688554499,0.494806585003776,0.5,0.496531701818148,0.500006035497257,0.506912538179148,0.50434735166858,0.49565264833142,0.501737166839555,0.493087461820852,0.085720886816507,0.501092045561529,0.498262833160445,0.00173113134229771,0.5,0.00347433367910921,1.09997913246497,0.00355874423259173,2.52202014659978,0.5,74.0828770576068
CBC_1022,CBC_1022_MSI_AV_v3_Vset4_Aset1_2023-07-18_13h44.55.295.csv,2,37,3,2,z,0,1,2,aud,C,63,1,3C,2C,0,1,b,2.21212989999913,1,0,0,0,3C,2C,C32,2.56494935746154,0.503468298181852,0.493087461820852,0.496531701818148,0.498262833160445,0.500006035497257,0.510332886873803,0.5,0.498262833160445,0.498262833160445,0.498262833160445,0.508625688554499,0.494806585003776,0.5,0.496531701818148,0.500006035497257,0.506912538179148,0.493114082576934,0.506885917423066,0.494806585003776,0.508625688554499,0.207818517228333,0.500085945407448,-0.494806585003776,-0.00171912318292363,0.5,0.00347433367910921,1.09997913246497,0.00355874423259173,2.52202014659978,0.5,74.0828770576068
CBC_1022,CBC_1022_MSI_AV_v3_Vset4_Aset1_2023-07-18_13h44.55.295.csv,2,38,2,0,z,0,1,3,aud,A,27,1,2A,0A,0,1,z,2.10371219999979,0,1,1,1,0A,2A,A20,2.87167962488401,0.503468298181852,0.493087461820852,0.496531701818148,0.498262833160445,0.500006035497257,0.510332886873803,0.5,0.498262833160445,0.498262833160445,0.498262833160445,0.508625688554499,0.493087461820852,0.5,0.496531701818148,0.500006035497257,0.506912538179148,0.503468298181852,0.496531701818148,0.503468298181852,0.496531701818148,0.224911670942863,0.499003935081479,0.496531701818148,0.0017251168143722,0.5,0.00347433367910921,1.09997913246497,0.00355874423259173,2.52202014659978,0.5,74.0828770576068
CBC_1022,CBC_1022_MSI_AV_v3_Vset4_Aset1_2023-07-18_13h44.55.295.csv,2,39,3,2,b,1,0,0,aud,D,63,1,3D,2D,1,0,b,2.06390839999949,1,0,1,1,3D,2D,D32,2.37954613413017,0.505193414996224,0.493087461820852,0.496531701818148,0.498262833160445,0.500006035497257,0.510332886873803,0.5,0.498262833160445,0.498262833160445,0.498262833160445,0.508625688554499,0.493087461820852,0.5,0.496531701818148,0.500006035497257,0.506912538179148,0.503429523926982,0.496570476073018,0.506912538179148,0.500006035497257,0.23165972795758,0.49917751116465,0.493087461820852,0.00171315037535066,0.5,0.00347433367910921,1.09997913246497,0.00355874423259173,2.52202014659978,0.5,74.0828770576068
CBC_1022,CBC_1022_MSI_AV_v3_Vset4_Aset1_2023-07-18_13h44.55.295.csv,2,40,2,3,z,0,1,0,aud,D,63,1,2D,3D,0,1,b,2.39348449999943,1,0,0,0,2D,3D,D23,3.31418600467253,0.505193414996224,0.493087461820852,0.496531701818148,0.498262833160445,0.500006035497257,0.510332886873803,0.5,0.498262833160445,0.498262833160445,0.498262833160445,0.508625688554499,0.493087461820852,0.5,0.496531701818148,0.500006035497257,0.508625688554499,0.495727056341924,0.504272943658076,0.500006035497257,0.508625688554499,0.181279016166307,0.501103801113974,-0.500006035497257,-0.00173718780888599,0.5,0.00347433367910921,1.09997913246497,0.00355874423259173,2.52202014659978,0.5,74.0828770576068
CBC_1022,CBC_1022_MSI_AV_v3_Vset4_Aset1_2023-07-18_13h44.55.295.csv,2,41,1,3,b,1,0,1,aud,B,27,1,1B,3B,1,0,z,2.44307709999885,0,1,0,0,3B,1B,B13,3.3322045101752,0.505193414996224,0.493087461820852,0.496531701818148,0.498262833160445,0.500006035497257,0.510332886873803,0.5,0.498262833160445,0.498262833160445,0.498262833160445,0.508625688554499,0.493087461820852,0.5,0.496531701818148,0.498268847688371,0.508625688554499,0.494016406438376,0.505983593561624,0.498262833160445,0.510332886873803,0.173765306147672,0.499045975619319,-0.498262833160445,-0.00173113134229771,0.5,0.00347433367910921,1.09997913246497,0.00355874423259173,2.52202014659978,0.5,74.0828770576068
CBC_1022,CBC_1022_MSI_AV_v3_Vset4_Aset1_2023-07-18_13h44.55.295.csv,2,42,0,3,z,0,1,0,aud,D,9,1,0D,3D,0,1,b,2.47795849999966,1,0,0,0,0D,3D,D03,4.04305126783455,0.505193414996224,0.493087461820852,0.496531701818148,0.498262833160445,0.500006035497257,0.510332886873803,0.5,0.496531701818148,0.498262833160445,0.498262833160445,0.508625688554499,0.493087461820852,0.5,0.496531701818148,0.498268847688371,0.508625688554499,0.495724038832056,0.504275961167944,0.5,0.508625688554499,0.169253906805214,0.499353956381062,-0.5,-0.0017371668395546,0.5,0.00347433367910921,1.09997913246497,0.00355874423259173,2.52202014659978,0.5,74.0828770576068
CBC_1022,CBC_1022_MSI_AV_v3_Vset4_Aset1_2023-07-18_13h44.55.295.csv,2,43,1,0,b,1,0,1,aud,B,63,1,1B,0B,1,0,z,2.72351199999957,0,1,0,0,0B,1B,B10,2.67414864942653,0.505193414996224,0.493087461820852,0.496531701818148,0.498262833160445,0.500006035497257,0.510332886873803,0.5,0.496531701818148,0.498262833160445,0.498262833160445,0.508625688554499,0.493087461820852,0.498262833160445,0.496531701818148,0.498268847688371,0.508625688554499,0.49488941228142,0.50511058771858,0.500006035497257,0.510332886873803,0.139966549897667,0.499384397003104,-0.500006035497257,-0.00173718780888599,0.5,0.00347433367910921,1.09997913246497,0.00355874423259173,2.52202014659978,0.5,74.0828770576068
CBC_1022,CBC_1022_MSI_AV_v3_Vset4_Aset1_2023-07-18_13h44.55.295.csv,2,44,1,0,z,0,1,3,aud,A,63,1,1A,0A,0,1,b,2.19975919999888,1,0,0,0,1A,0A,A10,2.97892515523761,0.505193414996224,0.493087461820852,0.496531701818148,0.498262833160445,0.498268847688371,0.510332886873803,0.5,0.496531701818148,0.498262833160445,0.498262833160445,0.508625688554499,0.493087461820852,0.498262833160445,0.496531701818148,0.498268847688371,0.508625688554499,0.493936599680257,0.506063400319743,0.493087461820852,0.505193414996224,0.210290449519313,0.501321218200419,-0.493087461820852,-0.00171315037535066,0.5,0.00347433367910921,1.09997913246497,0.00355874423259173,2.52202014659978,0.5,74.0828770576068
CBC_1022,CBC_1022_MSI_TV_v3_Vset3_Tset3_2023-07-18_15h32.56.687.csv,3,1,1,0,b,1,0,1,tac,B,63,1,1B,0B,1,0,z,2.35119350000059,0,1,0,0,0B,1B,B10,2.77258872223978,0.5,0.5,0.5,0.5,0.5,0.5,0.5,0.5,0.5,0.5,0.5,0.5,0.5,0.5,0.5,0.5,0.5,0.5,0.5,0.5,0.184848524925555,0.500280342600957,-0.5,-0.477111662117116,0.5,0.954223324234233,1.09540711148757,0.31995911249256,2.64356770610947,0.5,73.8301875426407
CBC_1022,CBC_1022_MSI_TV_v3_Vset3_Tset3_2023-07-18_15h32.56.687.csv,3,2,3,2,b,1,0,0,tac,D,63,1,3D,2D,1,0,b,2.79892680000012,1,0,1,1,3D,2D,D32,2.83321334405622,0.5,0.5,0.5,0.5,0.0228883378828835,0.5,0.5,0.5,0.5,0.5,0.5,0.5,0.5,0.5,0.5,0.5,0.5,0.5,0.5,0.5,0.135043079600018,0.500242070730542,0.5,0.477111662117116,0.5,0.954223324234233,1.09540711148757,0.31995911249256,2.64356770610947,0.5,73.8301875426407
CBC_1022,CBC_1022_MSI_TV_v3_Vset3_Tset3_2023-07-18_15h32.56.687.csv,3,3,3,1,z,0,1,1,tac,B,27,1,3B,1B,0,1,z,2.30700509999951,0,1,1,1,1B,3B,B31,2.89037175789616,0.5,0.5,0.5,0.5,0.0228883378828835,0.5,0.5,0.5,0.5,0.5,0.5,0.5,0.5,0.5,0.5,0.977111662117117,0.5,0.5,0.5,0.5,0.190038586063527,0.498878872685889,0.5,0.477111662117116,0.5,0.954223324234233,1.09540711148757,0.31995911249256,2.64356770610947,0.5,73.8301875426407
CBC_1022,CBC_1022_MSI_TV_v3_Vset3_Tset3_2023-07-18_15h32.56.687.csv,3,4,2,3,b,1,0,2,tac,C,63,1,2C,3C,1,0,b,2.4456054000002,1,0,1,1,2C,3C,C23,2.94443897916644,0.5,0.5,0.5,0.5,0.0228883378828835,0.977111662117117,0.5,0.5,0.5,0.5,0.5,0.5,0.5,0.5,0.5,0.977111662117117,0.5,0.5,0.5,0.5,0.173432069082791,0.501224281144664,0.5,0.477111662117116,0.5,0.954223324234233,1.09540711148757,0.31995911249256,2.64356770610947,0.5,73.8301875426407
CBC_1022,CBC_1022_MSI_TV_v3_Vset3_Tset3_2023-07-18_15h32.56.687.csv,3,5,0,2,z,0,1,2,tac,C,27,1,0C,2C,0,1,b,1.93832679999832,1,0,0,0,0C,2C,C02,2.99573227355399,0.5,0.5,0.5,0.5,0.0228883378828835,0.977111662117117,0.5,0.5,0.5,0.5,0.977111662117117,0.5,0.5,0.5,0.5,0.977111662117117,0.33849844451391,0.66150155548609,0.5,0.977111662117117,0.209811825637421,0.432253611723437,-0.5,-0.477111662117116,0.5,0.954223324234233,1.09540711148757,0.31995911249256,2.64356770610947,0.5,73.8301875426407
CBC_1022,CBC_1022_MSI_TV_v3_Vset3_Tset3_2023-07-18_15h32.56.687.csv,3,6,0,3,b,1,0,3,tac,A,9,1,0A,3A,1,0,b,2.2878395000007,1,0,1,1,0A,3A,A03,3.04452243772342,0.5,0.5,0.5,0.5,0.0228883378828835,0.977111662117117,0.5,0.5,0.0228883378828835,0.5,0.977111662117117,0.5,0.5,0.5,0.5,0.977111662117117,0.5,0.5,0.5,0.5,0.193233760775171,0.500631611588693,0.5,0.477111662117116,0.5,0.954223324234233,1.09540711148757,0.31995911249256,2.64356770610947,0.5,73.8301875426407
CBC_1022,CBC_1022_MSI_TV_v3_Vset3_Tset3_2023-07-18_15h32.56.687.csv,3,7,2,3,b,1,0,2,tac,C,63,1,2C,3C,1,0,z,2.58219479999934,0,1,0,0,3C,2C,C23,2.39789527279837,0.977111662117117,0.5,0.5,0.5,0.0228883378828835,0.977111662117117,0.5,0.5,0.0228883378828835,0.5,0.977111662117117,0.5,0.5,0.5,0.5,0.977111662117117,0.33849844451391,0.66150155548609,0.5,0.977111662117117,0.135929943346167,0.431683942278105,-0.5,-0.477111662117116,0.5,0.954223324234233,1.09540711148757,0.31995911249256,2.64356770610947,0.5,73.8301875426407
CBC_1022,CBC_1022_MSI_TV_v3_Vset3_Tset3_2023-07-18_15h32.56.687.csv,3,8,1,0,z,0,1,3,tac,A,63,1,1A,0A,0,1,z,2.4204232000011,0,1,1,1,0A,1A,A10,3.13549421592915,0.977111662117117,0.5,0.5,0.5,0.0228883378828835,0.977111662117117,0.5,0.5,0.0228883378828835,0.5,0.977111662117117,0.0228883378828835,0.5,0.5,0.5,0.977111662117117,0.66150155548609,0.33849844451391,0.977111662117117,0.5,0.200555128329803,0.568243455723386,0.0228883378828835,0.0218405858608014,0.5,0.954223324234233,1.09540711148757,0.31995911249256,2.64356770610947,0.5,73.8301875426407
CBC_1022,CBC_1022_MSI_TV_v3_Vset3_Tset3_2023-07-18_15h32.56.687.csv,3,9,2,3,z,0,1,0,tac,D,63,1,2D,3D,0,1,z,2.95001100000081,0,1,1,1,3D,2D,D23,3.17805383034795,0.998952247977918,0.5,0.5,0.5,0.0228883378828835,0.977111662117117,0.5,0.5,0.0228883378828835,0.5,0.977111662117117,0.0228883378828835,0.5,0.5,0.5,0.977111662117117,0.66150155548609,0.33849844451391,0.977111662117117,0.5,0.137746034806205,0.567980403135246,0.0228883378828835,0.0218405858608014,0.5,0.954223324234233,1.09540711148757,0.31995911249256,2.64356770610947,0.5,73.8301875426407
CBC_1022,CBC_1022_MSI_TV_v3_Vset3_Tset3_2023-07-18_15h32.56.687.csv,3,10,3,2,z,0,1,2,tac,C,63,1,3C,2C,0,1,z,2.35953829999926,0,1,1,1,2C,3C,C32,3.2188758248682,0.998952247977918,0.5,0.5,0.5,0.0228883378828835,0.977111662117117,0.5,0.5,0.0228883378828835,0.5,0.977111662117117,0.0228883378828835,0.5,0.5,0.5,0.998952247977918,0.977111662117117,0.0228883378828835,0.977111662117117,0.0228883378828835,0.259276589781813,0.69152931815638,0.0228883378828835,0.0218405858608014,0.5,0.954223324234233,1.09540711148757,0.31995911249256,2.64356770610947,0.5,73.8301875426407
CBC_1022,CBC_1022_MSI_TV_v3_Vset3_Tset3_2023-07-18_15h32.56.687.csv,3,11,3,1,b,1,0,0,tac,D,27,1,3D,1D,1,0,z,2.74256239999886,0,1,0,0,1D,3D,D31,3.25809653802148,0.998952247977918,0.5,0.5,0.5,0.0228883378828835,0.977111662117117,0.5,0.5,0.0228883378828835,0.5,0.998952247977918,0.0228883378828835,0.5,0.5,0.5,0.998952247977918,0.333566329864409,0.666433670135591,0.5,0.998952247977918,0.120885473455385,0.430127542866051,-0.5,-0.477111662117116,0.5,0.954223324234233,1.09540711148757,0.31995911249256,2.64356770610947,0.5,73.8301875426407
CBC_1022,CBC_1022_MSI_TV_v3_Vset3_Tset3_2023-07-18_15h32.56.687.csv,3,12,0,1,b,1,0,3,tac,A,63,0,0A,1A,0,1,z,2.34213319999981,0,1,0,1,1A,0A,A01,3.29583686600433,0.998952247977918,0.5,0.5,0.5,0.0228883378828835,0.977111662117117,0.5,0.5,0.0228883378828835,0.5,0.998952247977918,0.0228883378828835,0.5,0.0228883378828835,0.5,0.998952247977918,0.333566329864409,0.666433670135591,0.5,0.998952247977918,0.160807658636936,0.431327954885007,0.5,0.477111662117116,0.5,0.954223324234233,1.09540711148757,0.31995911249256,2.64356770610947,0.5,73.8301875426407
CBC_1022,CBC_1022_MSI_TV_v3_Vset3_Tset3_2023-07-18_15h32.56.687.csv,3,13,3,2,z,0,1,2,tac,C,63,1,3C,2C,0,1,z,2.32980259999931,0,1,1,1,2C,3C,C32,2.63905732961526,0.998952247977918,0.977111662117117,0.5,0.5,0.0228883378828835,0.977111662117117,0.5,0.5,0.0228883378828835,0.5,0.998952247977918,0.0228883378828835,0.5,0.0228883378828835,0.5,0.998952247977918,0.977600872191231,0.022399127808769,0.998952247977918,0.0228883378828835,0.2648599416757,0.691145838280967,0.00104775202208207,0.000999789417484294,0.5,0.954223324234233,1.09540711148757,0.31995911249256,2.64356770610947,0.5,73.8301875426407
CBC_1022,CBC_1022_MSI_TV_v3_Vset3_Tset3_2023-07-18_15h32.56.687.csv,3,14,2,0,z,0,1,3,tac,A,27,1,2A,0A,0,1,z,2.27757639999982,0,1,1,1,0A,2A,A20,3.36729582998647,0.998952247977918,0.977111662117117,0.5,0.5,0.0228883378828835,0.977111662117117,0.5,0.5,0.0228883378828835,0.5,0.999952037395402,0.0228883378828835,0.5,0.0228883378828835,0.5,0.998952247977918,0.666433670135591,0.333566329864409,0.998952247977918,0.5,0.222182843988503,0.569795407585757,0.00104775202208207,0.000999789417484294,0.5,0.954223324234233,1.09540711148757,0.31995911249256,2.64356770610947,0.5,73.8301875426407
CBC_1022,CBC_1022_MSI_TV_v3_Vset3_Tset3_2023-07-18_15h32.56.687.csv,3,15,1,0,b,1,0,1,tac,B,63,1,1B,0B,1,0,z,2.39590759999919,0,1,0,0,0B,1B,B10,2.70805020110221,0.999952037395402,0.977111662117117,0.5,0.5,0.0228883378828835,0.977111662117117,0.5,0.5,0.0228883378828835,0.5,0.999952037395402,0.0228883378828835,0.5,0.0228883378828835,0.5,0.998952247977918,0.0228883378828835,0.977111662117117,0.0228883378828835,0.977111662117117,0.112849598378395,0.309250672082792,-0.0228883378828835,-0.0218405858608014,0.5,0.954223324234233,1.09540711148757,0.31995911249256,2.64356770610947,0.5,73.8301875426407
CBC_1022,CBC_1022_MSI_TV_v3_Vset3_Tset3_2023-07-18_15h32.56.687.csv,3,16,2,3,z,0,1,0,tac,D,63,1,2D,3D,0,1,b,3.32743599999958,1,0,0,0,2D,3D,D23,2.7408400239252,0.999952037395402,0.977111662117117,0.5,0.5,0.00104775202208208,0.977111662117117,0.5,0.5,0.0228883378828835,0.5,0.999952037395402,0.0228883378828835,0.5,0.0228883378828835,0.5,0.998952247977918,0.333566329864409,0.666433670135591,0.5,0.998952247977918,0.0797177463584493,0.430002257479214,-0.5,-0.477111662117116,0.5,0.954223324234233,1.09540711148757,0.31995911249256,2.64356770610947,0.5,73.8301875426407
CBC_1022,CBC_1022_MSI_TV_v3_Vset3_Tset3_2023-07-18_15h32.56.687.csv,3,17,2,1,z,0,1,1,tac,B,9,1,2B,1B,0,1,z,3.09016109999902,0,1,1,1,1B,2B,B21,3.46573590279973,0.999952037395402,0.977111662117117,0.5,0.5,0.00104775202208208,0.977111662117117,0.5,0.5,0.0228883378828835,0.5,0.999952037395402,0.0228883378828835,0.5,0.0228883378828835,0.0228883378828835,0.998952247977918,0.66150155548609,0.33849844451391,0.977111662117117,0.5,0.12452791355403,0.567275952286291,0.0228883378828835,0.0218405858608014,0.5,0.954223324234233,1.09540711148757,0.31995911249256,2.64356770610947,0.5,73.8301875426407
CBC_1022,CBC_1022_MSI_TV_v3_Vset3_Tset3_2023-07-18_15h32.56.687.csv,3,18,3,1,b,1,0,0,tac,D,27,1,3D,1D,1,0,b,2.85028389999934,1,0,1,1,3D,1D,D31,2.80336038090653,0.999952037395402,0.977111662117117,0.5,0.5,0.00104775202208208,0.998952247977918,0.5,0.5,0.0228883378828835,0.5,0.999952037395402,0.0228883378828835,0.5,0.0228883378828835,0.0228883378828835,0.998952247977918,0.977600872191231,0.022399127808769,0.998952247977918,0.0228883378828835,0.179365158341528,0.690607518775372,0.00104775202208207,0.000999789417484294,0.5,0.954223324234233,1.09540711148757,0.31995911249256,2.64356770610947,0.5,73.8301875426407
CBC_1022,CBC_1022_MSI_TV_v3_Vset3_Tset3_2023-07-18_15h32.56.687.csv,3,19,1,0,z,0,1,3,tac,A,63,1,1A,0A,0,1,z,2.38036339999962,0,1,1,1,0A,1A,A10,2.83321334405622,0.999952037395402,0.977111662117117,0.5,0.5,0.00104775202208208,0.998952247977918,0.5,0.5,0.0228883378828835,0.5,0.999952037395402,0.0228883378828835,0.5,0.0228883378828835,0.0228883378828835,0.999952037395402,0.5057763377285,0.4942236622715,0.999952037395402,0.977111662117117,0.181938508947813,0.502460134161955,4.79626045978288e-05,4.57670359982723e-05,0.5,0.954223324234233,1.09540711148757,0.31995911249256,2.64356770610947,0.5,73.8301875426407
CBC_1022,CBC_1022_MSI_TV_v3_Vset3_Tset3_2023-07-18_15h32.56.687.csv,3,20,0,1,b,1,0,3,tac,A,63,1,0A,1A,1,0,z,2.30071379999936,0,1,0,0,1A,0A,A01,2.86220088092947,0.9999978044314,0.977111662117117,0.5,0.5,0.00104775202208208,0.998952247977918,0.5,0.5,0.0228883378828835,0.5,0.999952037395402,0.0228883378828835,0.5,0.0228883378828835,0.0228883378828835,0.999952037395402,0.494212221755673,0.505787778244327,0.977111662117117,0.9999978044314,0.190021170136224,0.496676589484276,-0.977111662117117,-0.932382738373432,0.5,0.954223324234233,1.09540711148757,0.31995911249256,2.64356770610947,0.5,73.8301875426407
CBC_1022,CBC_1022_MSI_TV_v3_Vset3_Tset3_2023-07-18_15h32.56.687.csv,3,21,0,2,z,0,1,2,tac,C,27,1,0C,2C,0,1,z,2.32545829999799,0,1,1,1,2C,0C,C02,2.89037175789616,0.9999978044314,0.044728923743685,0.5,0.5,0.00104775202208208,0.998952247977918,0.5,0.5,0.0228883378828835,0.5,0.999952037395402,0.0228883378828835,0.5,0.0228883378828835,0.0228883378828835,0.999952037395402,0.977622766527322,0.0223772334726777,0.999952037395402,0.0228883378828835,0.266074019469942,0.69196479574427,4.79626045978288e-05,4.57670359982723e-05,0.5,0.954223324234233,1.09540711148757,0.31995911249256,2.64356770610947,0.5,73.8301875426407
CBC_1022,CBC_1022_MSI_TV_v3_Vset3_Tset3_2023-07-18_15h32.56.687.csv,3,22,1,0,b,1,0,1,tac,B,63,1,1B,0B,1,0,z,2.38590649999787,0,1,0,0,0B,1B,B10,2.51230562397611,0.9999978044314,0.044728923743685,0.5,0.5,0.00104775202208208,0.998952247977918,0.5,0.5,0.0228883378828835,0.5,0.9999978044314,0.0228883378828835,0.5,0.0228883378828835,0.0228883378828835,0.999952037395402,0.00104775202208208,0.998952247977918,0.00104775202208208,0.998952247977918,0.110640531155248,0.300420181369468,-0.00104775202208208,-0.000999789417484303,0.5,0.954223324234233,1.09540711148757,0.31995911249256,2.64356770610947,0.5,73.8301875426407
CBC_1022,CBC_1022_MSI_TV_v3_Vset3_Tset3_2023-07-18_15h32.56.687.csv,3,23,0,2,z,0,1,2,tac,C,27,1,0C,2C,0,1,z,2.34757079999872,0,1,1,1,2C,0C,C02,2.53897387105828,0.9999978044314,0.044728923743685,0.5,0.5,4.79626045977782e-05,0.998952247977918,0.5,0.5,0.0228883378828835,0.5,0.9999978044314,0.0228883378828835,0.5,0.0228883378828835,0.0228883378828835,0.999952037395402,0.977623767752784,0.0223762322472163,0.9999978044314,0.0228883378828835,0.261856659094455,0.692165560881654,2.19556859959447e-06,2.09506276768933e-06,0.5,0.954223324234233,1.09540711148757,0.31995911249256,2.64356770610947,0.5,73.8301875426407
CBC_1022,CBC_1022_MSI_TV_v3_Vset3_Tset3_2023-07-18_15h32.56.687.csv,3,24,2,3,z,0,1,0,tac,D,63,1,2D,3D,0,1,z,3.46789199999876,0,1,1,1,3D,2D,D23,2.56494935746154,0.9999978044314,0.044728923743685,0.5,0.5,4.79626045977782e-05,0.998952247977918,0.5,0.5,0.0228883378828835,0.5,0.999999899494168,0.0228883378828835,0.5,0.0228883378828835,0.0228883378828835,0.999952037395402,0.977622766527322,0.0223772334726777,0.999952037395402,0.0228883378828835,0.112845495682108,0.691603844401437,4.79626045978288e-05,4.57670359982723e-05,0.5,0.954223324234233,1.09540711148757,0.31995911249256,2.64356770610947,0.5,73.8301875426407
CBC_1022,CBC_1022_MSI_TV_v3_Vset3_Tset3_2023-07-18_15h32.56.687.csv,3,25,0,1,b,1,0,3,tac,A,63,1,0A,1A,1,0,z,2.435951999998,0,1,0,0,1A,0A,A01,2.59026716544583,0.9999978044314,0.044728923743685,0.5,0.5,4.79626045977782e-05,0.998952247977918,0.5,0.5,0.0228883378828835,0.5,0.999999899494168,0.0228883378828835,0.5,0.0228883378828835,0.0228883378828835,0.9999978044314,0.042813993877439,0.957186006122561,0.044728923743685,0.9999978044314,0.112242991068659,0.317300936240895,-0.044728923743685,-0.0426813823041186,0.5,0.954223324234233,1.09540711148757,0.31995911249256,2.64356770610947,0.5,73.8301875426407
CBC_1022,CBC_1022_MSI_TV_v3_Vset3_Tset3_2023-07-18_15h32.56.687.csv,3,26,2,3,b,1,0,2,tac,C,63,1,2C,3C,NaN,NaN,None,NaN,NaN,NaN,NaN,NaN,,,C23,2.6149597780362,0.9999978044314,0.00204754143956638,0.5,0.5,4.79626045977782e-05,0.998952247977918,0.5,0.5,0.0228883378828835,0.5,0.999999899494168,0.0228883378828835,0.5,0.0228883378828835,0.0228883378828835,0.9999978044314,0,0,0,0,NaN,0,0,0,0.5,0.954223324234233,1.09540711148757,0.31995911249256,2.64356770610947,0.5,73.8301875426407
CBC_1022,CBC_1022_MSI_TV_v3_Vset3_Tset3_2023-07-18_15h32.56.687.csv,3,27,0,2,b,1,0,3,tac,A,27,1,0A,2A,1,0,z,2.40767740000047,0,1,0,0,2A,0A,A02,3.73766961828337,0.9999978044314,0.00204754143956638,0.5,0.5,4.79626045977782e-05,0.998952247977918,0.5,0.5,0.0228883378828835,0.5,0.999999899494168,0.0228883378828835,0.5,0.0228883378828835,0.0228883378828835,0.9999978044314,0.333333821238181,0.666666178761819,0.5,0.9999978044314,0.153406331740009,0.43075491370704,-0.5,-0.477111662117116,0.5,0.954223324234233,1.09540711148757,0.31995911249256,2.64356770610947,0.5,73.8301875426407
CBC_1022,CBC_1022_MSI_TV_v3_Vset3_Tset3_2023-07-18_15h32.56.687.csv,3,28,2,3,z,0,1,0,tac,D,63,1,2D,3D,0,1,z,2.75067680000029,0,1,1,1,3D,2D,D23,2.37490575457367,0.9999978044314,0.00204754143956638,0.0228883378828835,0.5,4.79626045977782e-05,0.998952247977918,0.5,0.5,0.0228883378828835,0.5,0.999999899494168,0.0228883378828835,0.5,0.0228883378828835,0.0228883378828835,0.9999978044314,0.977623767752784,0.0223762322472163,0.9999978044314,0.0228883378828835,0.193745475063591,0.692197923603459,2.19556859959447e-06,2.09506276768933e-06,0.5,0.954223324234233,1.09540711148757,0.31995911249256,2.64356770610947,0.5,73.8301875426407
CBC_1022,CBC_1022_MSI_TV_v3_Vset3_Tset3_2023-07-18_15h32.56.687.csv,3,29,2,3,z,0,1,0,tac,D,63,1,2D,3D,0,1,z,3.06266779999896,0,1,1,1,3D,2D,D23,2.17475172148416,0.9999978044314,0.00204754143956638,0.0228883378828835,0.5,4.79626045977782e-05,0.998952247977918,0.5,0.5,0.0228883378828835,0.5,0.999999899494168,0.0228883378828835,0.5,0.0228883378828835,0.0228883378828835,0.999999899494168,0.977623813583413,0.0223761864165875,0.999999899494168,0.0228883378828835,0.153025810037932,0.691269818758057,1.00505831879261e-07,9.5905009000755e-08,0.5,0.954223324234233,1.09540711148757,0.31995911249256,2.64356770610947,0.5,73.8301875426407
CBC_1022,CBC_1022_MSI_TV_v3_Vset3_Tset3_2023-07-18_15h32.56.687.csv,3,30,1,3,b,1,0,1,tac,B,27,1,1B,3B,1,0,b,2.49224520000098,1,0,1,1,1B,3B,B13,3.80666248977032,0.9999978044314,0.00204754143956638,0.0228883378828835,0.5,4.79626045977782e-05,0.998952247977918,0.5,0.5,0.0228883378828835,0.5,0.999999899494168,0.0228883378828835,0.5,0.0228883378828835,0.0228883378828835,0.999999995399177,0.666433670135591,0.333566329864409,0.998952247977918,0.5,0.191370518539277,0.570265539964181,0.00104775202208207,0.000999789417484294,0.5,0.954223324234233,1.09540711148757,0.31995911249256,2.64356770610947,0.5,73.8301875426407
CBC_1022,CBC_1022_MSI_TV_v3_Vset3_Tset3_2023-07-18_15h32.56.687.csv,3,31,3,0,b,1,0,0,tac,D,9,1,3D,0D,1,0,z,2.54125849999946,0,1,0,0,0D,3D,D30,3.8286413964891,0.9999978044314,0.00204754143956638,0.0228883378828835,0.5,4.79626045977782e-05,0.999952037395402,0.5,0.5,0.0228883378828835,0.5,0.999999899494168,0.0228883378828835,0.5,0.0228883378828835,0.0228883378828835,0.999999995399177,0.333333334355738,0.666666665644262,0.5,0.999999995399177,0.139358541057905,0.429906625163776,-0.5,-0.477111662117116,0.5,0.954223324234233,1.09540711148757,0.31995911249256,2.64356770610947,0.5,73.8301875426407
CBC_1022,CBC_1022_MSI_TV_v3_Vset3_Tset3_2023-07-18_15h32.56.687.csv,3,32,0,1,z,0,1,1,tac,B,63,1,0B,1B,0,1,z,2.4051958,0,1,1,1,1B,0B,B01,3.85014760171006,0.9999978044314,0.00204754143956638,0.0228883378828835,0.5,4.79626045977782e-05,0.999952037395402,0.5,0.5,0.0228883378828835,0.5,0.999999899494168,0.0228883378828835,0.0228883378828835,0.0228883378828835,0.0228883378828835,0.999999995399177,0.999952037395402,4.79626045977782e-05,0.999952037395402,4.79626045977782e-05,0.253980983390607,0.699623134272249,4.79626045978288e-05,4.57670359982723e-05,0.5,0.954223324234233,1.09540711148757,0.31995911249256,2.64356770610947,0.5,73.8301875426407
CBC_1022,CBC_1022_MSI_TV_v3_Vset3_Tset3_2023-07-18_15h32.56.687.csv,3,33,0,1,b,1,0,3,tac,A,63,1,0A,1A,1,0,z,1.93373900000006,0,1,0,0,1A,0A,A01,2.484906649788,0.9999978044314,0.00204754143956638,0.0228883378828835,0.5,4.79626045977782e-05,0.9999978044314,0.5,0.5,0.0228883378828835,0.5,0.999999899494168,0.0228883378828835,0.0228883378828835,0.0228883378828835,0.0228883378828835,0.999999995399177,0.00204336205741935,0.997956637942581,0.00204754143956638,0.9999978044314,0.152499257203171,0.301502279962856,-0.00204754143956638,-0.00195381179897038,0.5,0.954223324234233,1.09540711148757,0.31995911249256,2.64356770610947,0.5,73.8301875426407
CBC_1022,CBC_1022_MSI_TV_v3_Vset3_Tset3_2023-07-18_15h32.56.687.csv,3,34,0,1,z,0,1,1,tac,B,63,1,0B,1B,0,1,z,2.32521749999796,0,1,1,1,1B,0B,B01,3.19867311755068,0.9999978044314,9.37296405960023e-05,0.0228883378828835,0.5,4.79626045977782e-05,0.9999978044314,0.5,0.5,0.0228883378828835,0.5,0.999999899494168,0.0228883378828835,0.0228883378828835,0.0228883378828835,0.0228883378828835,0.999999995399177,0.999952039590408,4.79604095919859e-05,0.9999978044314,4.79626045977782e-05,0.269297681373256,0.699050258035443,2.19556859959447e-06,2.09506276768933e-06,0.5,0.954223324234233,1.09540711148757,0.31995911249256,2.64356770610947,0.5,73.8301875426407
CBC_1022,CBC_1022_MSI_TV_v3_Vset3_Tset3_2023-07-18_15h32.56.687.csv,3,35,2,3,b,1,0,2,tac,C,63,1,2C,3C,1,0,z,2.39494299999933,0,1,0,0,3C,2C,C23,2.52572864430826,0.9999978044314,9.37296405960023e-05,0.0228883378828835,0.5,4.79626045977782e-05,0.999999899494168,0.5,0.5,0.0228883378828835,0.5,0.999999899494168,0.0228883378828835,0.0228883378828835,0.0228883378828835,0.0228883378828835,0.999999995399177,0.0223761864165875,0.977623813583413,0.0228883378828835,0.999999899494168,0.113012038328418,0.309488664287867,-0.0228883378828835,-0.0218405858608014,0.5,0.954223324234233,1.09540711148757,0.31995911249256,2.64356770610947,0.5,73.8301875426407
CBC_1022,CBC_1022_MSI_TV_v3_Vset3_Tset3_2023-07-18_15h32.56.687.csv,3,36,2,0,z,0,1,3,tac,A,27,1,2A,0A,0,1,z,1.69164489999821,0,1,1,1,0A,2A,A20,3.23867845216438,0.9999978044314,9.37296405960023e-05,0.0228883378828835,0.5,4.79626045977782e-05,0.999999899494168,0.5,0.5,0.0228883378828835,0.5,0.999999899494168,0.00104775202208208,0.0228883378828835,0.0228883378828835,0.0228883378828835,0.999999995399177,0.977623767752784,0.0223762322472163,0.9999978044314,0.0228883378828835,0.385045639827038,0.691127934514591,2.19556859959447e-06,2.09506276768933e-06,0.5,0.954223324234233,1.09540711148757,0.31995911249256,2.64356770610947,0.5,73.8301875426407
CBC_1022,CBC_1022_MSI_TV_v3_Vset3_Tset3_2023-07-18_15h32.56.687.csv,3,37,0,1,z,0,1,1,tac,B,63,1,0B,1B,0,1,z,2.37842269999965,0,1,1,1,1B,0B,B01,2.85263142991332,0.999999899494168,9.37296405960023e-05,0.0228883378828835,0.5,4.79626045977782e-05,0.999999899494168,0.5,0.5,0.0228883378828835,0.5,0.999999899494168,0.00104775202208208,0.0228883378828835,0.0228883378828835,0.0228883378828835,0.999999995399177,0.999952039690883,4.79603091167264e-05,0.999999899494168,4.79626045977782e-05,0.259298234330695,0.700077256530445,1.00505831879261e-07,9.5905009000755e-08,0.5,0.954223324234233,1.09540711148757,0.31995911249256,2.64356770610947,0.5,73.8301875426407
CBC_1022,CBC_1022_MSI_TV_v3_Vset3_Tset3_2023-07-18_15h32.56.687.csv,3,38,1,3,b,1,0,1,tac,B,27,1,1B,3B,NaN,NaN,None,NaN,NaN,NaN,NaN,NaN,,,B13,3.27714473299218,0.999999899494168,9.37296405960023e-05,0.0228883378828835,0.5,4.79626045977782e-05,0.999999995399177,0.5,0.5,0.0228883378828835,0.5,0.999999899494168,0.00104775202208208,0.0228883378828835,0.0228883378828835,0.0228883378828835,0.999999995399177,0,0,0,0,NaN,0,0,0,0.5,0.954223324234233,1.09540711148757,0.31995911249256,2.64356770610947,0.5,73.8301875426407
CBC_1022,CBC_1022_MSI_TV_v3_Vset3_Tset3_2023-07-18_15h32.56.687.csv,3,39,2,3,b,1,0,2,tac,C,63,1,2C,3C,1,0,z,2.34728519999953,0,1,0,0,3C,2C,C23,2.37954613413017,0.999999899494168,9.37296405960023e-05,0.0228883378828835,0.5,4.79626045977782e-05,0.999999995399177,0.5,0.5,0.0228883378828835,0.5,0.999999899494168,0.00104775202208208,0.0228883378828835,0.0228883378828835,0.0228883378828835,0.999999995399177,0.00104665549186903,0.998953344508131,0.00104775202208208,0.999999899494168,0.113997760703902,0.3007901750561,-0.00104775202208208,-0.000999789417484303,0.5,0.954223324234233,1.09540711148757,0.31995911249256,2.64356770610947,0.5,73.8301875426407
CBC_1022,CBC_1022_MSI_TV_v3_Vset3_Tset3_2023-07-18_15h32.56.687.csv,3,40,1,3,z,0,1,0,tac,D,27,1,1D,3D,0,1,z,3.02041819999977,0,1,1,1,3D,1D,D13,4.00733318523247,0.999999899494168,9.37296405960023e-05,0.0228883378828835,0.5,4.79626045977782e-05,0.999999995399177,0.5,0.5,0.0228883378828835,0.5,0.999999899494168,4.79626045977782e-05,0.0228883378828835,0.0228883378828835,0.0228883378828835,0.999999995399177,0.977623815681382,0.0223761843186182,0.999999995399177,0.0228883378828835,0.158139245833226,0.692102600321437,4.60082283382235e-09,4.39021245870273e-09,0.5,0.954223324234233,1.09540711148757,0.31995911249256,2.64356770610947,0.5,73.8301875426407
CBC_1022,CBC_1022_MSI_TV_v3_Vset3_Tset3_2023-07-18_15h32.56.687.csv,3,41,2,1,b,1,0,2,tac,C,9,1,2C,1C,1,0,z,2.44544700000006,0,1,0,0,1C,2C,C21,4.02535169073515,0.999999899494168,9.37296405960023e-05,0.0228883378828835,0.5,4.79626045977782e-05,0.999999995399177,0.5,0.5,0.0228883378828835,0.5,0.999999899494168,4.79626045977782e-05,0.0228883378828835,0.0228883378828835,0.0228883378828835,0.99999999978939,0.333333355667964,0.666666644332036,0.5,0.999999899494168,0.148932357272665,0.42939946559526,-0.5,-0.477111662117116,0.5,0.954223324234233,1.09540711148757,0.31995911249256,2.64356770610947,0.5,73.8301875426407
CBC_1022,CBC_1022_MSI_TV_v3_Vset3_Tset3_2023-07-18_15h32.56.687.csv,3,42,1,0,b,1,0,1,tac,B,63,0,1B,0B,0,1,z,2.30880230000002,0,1,0,1,0B,1B,B10,2.65675690671466,0.999999899494168,9.37296405960023e-05,0.0228883378828835,0.5,4.79626045977782e-05,0.999999995399177,0.5,0.5,0.0228883378828835,0.0228883378828835,0.999999899494168,4.79626045977782e-05,0.0228883378828835,0.0228883378828835,0.0228883378828835,0.99999999978939,4.79603045173131e-05,0.999952039695483,4.79626045977782e-05,0.999999995399177,0.117213548448077,0.300564236515971,0.999952037395402,0.954177557198235,0.5,0.954223324234233,1.09540711148757,0.31995911249256,2.64356770610947,0.5,73.8301875426407
CBC_1022,CBC_1022_MSI_TV_v3_Vset3_Tset3_2023-07-18_15h32.56.687.csv,3,43,2,3,z,0,1,0,tac,D,63,1,2D,3D,0,1,z,2.30549349999819,0,1,1,1,3D,2D,D23,2.26868354131836,0.999999899494168,9.37296405960023e-05,0.0228883378828835,0.5,0.954225519802833,0.999999995399177,0.5,0.5,0.0228883378828835,0.0228883378828835,0.999999899494168,4.79626045977782e-05,0.0228883378828835,0.0228883378828835,0.0228883378828835,0.99999999978939,0.97762381577742,0.0223761842225801,0.99999999978939,0.0228883378828835,0.269780079582077,0.691457797876885,2.10610417994417e-10,2.00969373176994e-10,0.5,0.954223324234233,1.09540711148757,0.31995911249256,2.64356770610947,0.5,73.8301875426407
CBC_1022,CBC_1022_MSI_TV_v3_Vset3_Tset3_2023-07-18_15h32.56.687.csv,3,44,1,0,z,0,1,3,tac,A,63,1,1A,0A,0,1,z,2.27174220000052,0,1,1,1,0A,1A,A10,2.97892515523761,0.999999899494168,9.37296405960023e-05,0.0228883378828835,0.5,0.954225519802833,0.999999995399177,0.5,0.5,0.0228883378828835,0.0228883378828835,0.999999899494168,4.79626045977782e-05,0.0228883378828835,0.0228883378828835,0.0228883378828835,0.999999999990359,0.999906279134407,9.37208655924475e-05,0.999999899494168,9.37296405960023e-05,0.280146989659393,0.699073231109709,1.00505831879261e-07,9.5905009000755e-08,0.5,0.954223324234233,1.09540711148757,0.31995911249256,2.64356770610947,0.5,73.8301875426407
