ID,session,trialNr,mod2Stim,visStimLeft,visStimRight,correctKey,frequency,rewardAccurate,probFB,stimPairLeft,stimPairRight,leftCorrect,rightCorrect,pCorrectLeft,pCorrectRight,triplet,rt,surprise,0A belief,1A belief,2A belief,3A belief,0B belief,1B belief,2B belief,3B belief,0C belief,1C belief,2C belief,3C belief,0D belief,1D belief,2D belief,3D belief,reactionTime,choice,choiceLeft,choiceRight,chosenPair,otherPair,beliefPair,beliefOtherPair,beliefPairNorm,beliefOtherPairNorm,choiceAccurate,reward,rewardPE,update2,sim_CBCsimpleRW_CBCdriftDiffusionLR_pwBelief_startBelief,sim_CBCsimpleRW_CBCdriftDiffusionLR_pwBelief_alpha1,sim_CBCsimpleRW_CBCdriftDiffusionLR_pwBelief_nonDecisionTime,sim_CBCsimpleRW_CBCdriftDiffusionLR_pwBelief_weight,sim_CBCsimpleRW_CBCdriftDiffusionLR_pwBelief_startingBoundary,sim_CBCsimpleRW_CBCdriftDiffusionLR_pwBelief_startingPoint,lik,corrLik,fitCBCsimpleRW_CBCdriftDiffusionLR_pwBelief_startBelief,fitCBCsimpleRW_CBCdriftDiffusionLR_pwBelief_alpha1,fitCBCsimpleRW_CBCdriftDiffusionLR_pwBelief_nonDecisionTime,fitCBCsimpleRW_CBCdriftDiffusionLR_pwBelief_weight,fitCBCsimpleRW_CBCdriftDiffusionLR_pwBelief_startingBoundary,fitCBCsimpleRW_CBCdriftDiffusionLR_pwBelief_startingPoint,fit_CBCsimpleRW_CBCdriftDiffusionLR_pwBelief_NLL
157,1,1,B,0,1,l,63,1,0.95,0B,1B,0,1,0,1,B01,1.14982860972935,2.77258872223978,0.5,0.5,0.5,0.5,0.5,0.5,0.5,0.5,0.5,0.5,0.5,0.5,0.5,0.5,0.5,0.5,1.40723507887931,1,1,0,0B,1B,0.5,0.5,0.5,0.5,0,0,-0.5,-0.457621295152707,0.5,0.587009617420313,1.06323507887931,1.2949848875915,1.85717598167136,0.5,0.648948528714296,0.500097458805426,0.5,0.915242590305415,1.08484689557314,1.22485971912368,1.59141626027772,0.5,27.232043905598
157,1,2,D,2,3,l,63,1,0.95,2D,3D,0,1,0,1,D23,0.103136181281494,2.83321334405622,0.5,0.5,0.5,0.5,0.0423787048472926,0.5,0.5,0.5,0.5,0.5,0.5,0.5,0.5,0.5,0.5,0.5,1.34923507887931,1,1,0,2D,3D,0.5,0.5,0.5,0.5,0,0,-0.5,-0.457621295152707,0.5,0.587009617420313,1.06323507887931,1.2949848875915,1.85717598167136,0.5,0.704618700092255,0.499727476170635,0.5,0.915242590305415,1.08484689557314,1.22485971912368,1.59141626027772,0.5,27.232043905598
157,1,3,B,1,3,a,27,1,0.95,1B,3B,1,0,1,0,B13,1.82425799262366,2.89037175789616,0.5,0.5,0.5,0.5,0.0423787048472926,0.5,0.5,0.5,0.5,0.5,0.5,0.5,0.5,0.5,0.0423787048472926,0.5,2.30623507887931,0,0,1,3B,1B,0.5,0.5,0.5,0.5,0,0,-0.5,-0.457621295152707,0.5,0.587009617420313,1.06323507887931,1.2949848875915,1.85717598167136,0.5,0.114776555861458,0.499817714657789,0.5,0.915242590305415,1.08484689557314,1.22485971912368,1.59141626027772,0.5,27.232043905598
157,1,4,C,3,2,l,63,1,0.95,3C,2C,0,1,0,1,C32,2.75704721949026,2.94443897916644,0.5,0.5,0.5,0.5,0.0423787048472926,0.5,0.5,0.0423787048472926,0.5,0.5,0.5,0.5,0.5,0.5,0.0423787048472926,0.5,2.34223507887931,1,1,0,3C,2C,0.5,0.5,0.5,0.5,0,0,-0.5,-0.457621295152707,0.5,0.587009617420313,1.06323507887931,1.2949848875915,1.85717598167136,0.5,0.107118033996911,0.500363101833998,0.5,0.915242590305415,1.08484689557314,1.22485971912368,1.59141626027772,0.5,27.232043905598
157,1,5,C,2,0,a,27,1,0.95,2C,0C,1,0,1,0,C20,3.14330874358529,2.99573227355399,0.5,0.5,0.5,0.5,0.0423787048472926,0.5,0.5,0.0423787048472926,0.5,0.5,0.5,0.0423787048472926,0.5,0.5,0.0423787048472926,0.5,1.46423507887931,0,0,1,0C,2C,0.5,0.5,0.5,0.5,0,0,-0.5,-0.457621295152707,0.5,0.587009617420313,1.06323507887931,1.2949848875915,1.85717598167136,0.5,0.586857739163425,0.499462389519734,0.5,0.915242590305415,1.08484689557314,1.22485971912368,1.59141626027772,0.5,27.232043905598
157,1,6,A,3,0,l,9,1,0.95,3A,0A,0,1,0,1,A30,0.437065265596417,3.04452243772342,0.5,0.5,0.5,0.5,0.0423787048472926,0.5,0.5,0.0423787048472926,0.0423787048472926,0.5,0.5,0.0423787048472926,0.5,0.5,0.0423787048472926,0.5,1.80423507887931,0,0,1,0A,3A,0.5,0.5,0.5,0.5,1,1,0.5,0.457621295152707,0.5,0.587009617420313,1.06323507887931,1.2949848875915,1.85717598167136,0.5,0.305651736831793,0.500492214372907,0.5,0.915242590305415,1.08484689557314,1.22485971912368,1.59141626027772,0.5,27.232043905598
157,1,7,C,3,2,l,63,1,0.95,3C,2C,0,1,0,1,C32,1.01577680519616,2.39789527279837,0.957621295152707,0.5,0.5,0.5,0.0423787048472926,0.5,0.5,0.0423787048472926,0.0423787048472926,0.5,0.5,0.0423787048472926,0.5,0.5,0.0423787048472926,0.5,1.28723507887931,1,1,0,3C,2C,0.0423787048472926,0.5,0.0423787048472926,0.957621295152707,0,0,-0.0423787048472926,-0.0387867955982247,0.5,0.587009617420313,1.06323507887931,1.2949848875915,1.85717598167136,0.5,0.26301964918065,0.143611280374819,0.5,0.915242590305415,1.08484689557314,1.22485971912368,1.59141626027772,0.5,27.232043905598
157,1,8,A,0,1,a,63,1,0.95,0A,1A,1,0,1,0,A01,3.06698640180808,3.13549421592915,0.957621295152707,0.5,0.5,0.5,0.0423787048472926,0.5,0.5,0.0423787048472926,0.0423787048472926,0.5,0.5,0.00359190924906788,0.5,0.5,0.0423787048472926,0.5,1.52823507887931,1,1,0,0A,1A,0.957621295152707,0.5,0.957621295152707,0.0423787048472926,1,1,0.0423787048472926,0.0387867955982247,0.5,0.587009617420313,1.06323507887931,1.2949848875915,1.85717598167136,0.5,0.962428966067202,0.856032059118373,0.5,0.915242590305415,1.08484689557314,1.22485971912368,1.59141626027772,0.5,27.232043905598
157,1,9,D,3,2,a,63,1,0.95,3D,2D,1,0,1,0,D32,3.34019769063865,3.17805383034795,0.996408090750932,0.5,0.5,0.5,0.0423787048472926,0.5,0.5,0.0423787048472926,0.0423787048472926,0.5,0.5,0.00359190924906788,0.5,0.5,0.0423787048472926,0.5,2.37323507887931,1,1,0,3D,2D,0.5,0.0423787048472926,0.957621295152707,0.0423787048472926,1,1,0.5,0.457621295152707,0.5,0.587009617420313,1.06323507887931,1.2949848875915,1.85717598167136,0.5,0.109368992186637,0.856351053924873,0.5,0.915242590305415,1.08484689557314,1.22485971912368,1.59141626027772,0.5,27.232043905598
157,1,10,C,2,3,a,63,1,0.95,2C,3C,1,0,1,0,C23,1.15430999099385,3.2188758248682,0.996408090750932,0.5,0.5,0.5,0.0423787048472926,0.5,0.5,0.0423787048472926,0.0423787048472926,0.5,0.5,0.00359190924906788,0.5,0.5,0.0423787048472926,0.957621295152707,1.57223507887931,1,1,0,2C,3C,0.5,0.00359190924906788,0.996408090750932,0.00359190924906794,1,1,0.5,0.457621295152707,0.5,0.587009617420313,1.06323507887931,1.2949848875915,1.85717598167136,0.5,0.879530816440391,0.873903404517943,0.5,0.915242590305415,1.08484689557314,1.22485971912368,1.59141626027772,0.5,27.232043905598
157,1,11,D,1,3,l,27,1,0.95,1D,3D,0,1,0,1,D13,2.2838312945231,3.25809653802148,0.996408090750932,0.5,0.5,0.5,0.0423787048472926,0.5,0.5,0.0423787048472926,0.0423787048472926,0.5,0.957621295152707,0.00359190924906788,0.5,0.5,0.0423787048472926,0.957621295152707,1.48923507887931,0,0,1,3D,1D,0.957621295152707,0.5,0.957621295152707,0.0423787048472926,1,1,0.0423787048472926,0.0387867955982247,0.5,0.587009617420313,1.06323507887931,1.2949848875915,1.85717598167136,0.5,1.06205726304811,0.856348057949626,0.5,0.915242590305415,1.08484689557314,1.22485971912368,1.59141626027772,0.5,27.232043905598
157,1,12,A,1,0,l,63,0,0.95,1A,0A,0,1,1,0,A10,3.18396544355241,3.29583686600433,0.996408090750932,0.5,0.5,0.5,0.0423787048472926,0.5,0.5,0.0423787048472926,0.0423787048472926,0.5,0.957621295152707,0.00359190924906788,0.5,0.5,0.0423787048472926,0.996408090750932,1.78323507887931,0,0,1,0A,1A,0.996408090750932,0.5,0.996408090750932,0.00359190924906794,1,0,-0.996408090750932,-0.911955121980156,0.5,0.587009617420313,1.06323507887931,1.2949848875915,1.85717598167136,0.5,0.499501729136228,0.87381164179019,0.5,0.915242590305415,1.08484689557314,1.22485971912368,1.59141626027772,0.5,27.232043905598
157,1,13,C,2,3,a,63,1,0.95,2C,3C,1,0,1,0,C23,0.218417509320845,2.63905732961526,0.0844529687707762,0.5,0.5,0.5,0.0423787048472926,0.5,0.5,0.0423787048472926,0.0423787048472926,0.5,0.957621295152707,0.00359190924906788,0.5,0.5,0.0423787048472926,0.996408090750932,1.41823507887931,1,1,0,2C,3C,0.957621295152707,0.00359190924906788,0.999840495581708,0.000159504418292045,1,1,0.0423787048472926,0.0387867955982247,0.5,0.587009617420313,1.06323507887931,1.2949848875915,1.85717598167136,0.5,1.3140398661781,0.875111336583256,0.5,0.915242590305415,1.08484689557314,1.22485971912368,1.59141626027772,0.5,27.232043905598
157,1,14,A,0,2,a,27,1,0.95,0A,2A,1,0,1,0,A02,0.138749128263239,3.36729582998647,0.0844529687707762,0.5,0.5,0.5,0.0423787048472926,0.5,0.5,0.0423787048472926,0.0423787048472926,0.5,0.996408090750932,0.00359190924906788,0.5,0.5,0.0423787048472926,0.996408090750932,1.76623507887931,0,0,1,2A,0A,0.5,0.0844529687707762,0.915547031229224,0.0844529687707762,0,0,-0.5,-0.457621295152707,0.5,0.587009617420313,1.06323507887931,1.2949848875915,1.85717598167136,0.5,0.519374360253489,0.835215401713697,0.5,0.915242590305415,1.08484689557314,1.22485971912368,1.59141626027772,0.5,27.232043905598
157,1,15,B,0,1,l,63,1,0.95,0B,1B,0,1,0,1,B01,0.469721092270644,2.70805020110221,0.0844529687707762,0.5,0.0423787048472926,0.5,0.0423787048472926,0.5,0.5,0.0423787048472926,0.0423787048472926,0.5,0.996408090750932,0.00359190924906788,0.5,0.5,0.0423787048472926,0.996408090750932,1.15323507887931,0,0,1,1B,0B,0.5,0.0423787048472926,0.957621295152707,0.0423787048472926,1,1,0.5,0.457621295152707,0.5,0.587009617420313,1.06323507887931,1.2949848875915,1.85717598167136,0.5,0.404508711494822,0.855812799466369,0.5,0.915242590305415,1.08484689557314,1.22485971912368,1.59141626027772,0.5,27.232043905598
157,1,16,D,3,2,a,63,1,0.95,3D,2D,1,0,1,0,D32,0.293878505230219,2.7408400239252,0.0844529687707762,0.5,0.0423787048472926,0.5,0.0423787048472926,0.957621295152707,0.5,0.0423787048472926,0.0423787048472926,0.5,0.996408090750932,0.00359190924906788,0.5,0.5,0.0423787048472926,0.996408090750932,1.88323507887931,1,1,0,3D,2D,0.996408090750932,0.0423787048472926,0.999840495581708,0.000159504418292045,1,1,0.00359190924906794,0.00328746832525892,0.5,0.587009617420313,1.06323507887931,1.2949848875915,1.85717598167136,0.5,0.381171064712381,0.875402414007398,0.5,0.915242590305415,1.08484689557314,1.22485971912368,1.59141626027772,0.5,27.232043905598
157,1,17,B,1,2,a,9,1,0.95,1B,2B,1,0,1,0,B12,0.776909883526997,3.46573590279973,0.0844529687707762,0.5,0.0423787048472926,0.5,0.0423787048472926,0.957621295152707,0.5,0.0423787048472926,0.0423787048472926,0.5,0.996408090750932,0.00359190924906788,0.5,0.5,0.0423787048472926,0.999695559076191,1.31523507887931,1,1,0,1B,2B,0.957621295152707,0.5,0.957621295152707,0.0423787048472926,1,1,0.0423787048472926,0.0387867955982247,0.5,0.587009617420313,1.06323507887931,1.2949848875915,1.85717598167136,0.5,1.53262141827161,0.855958558392849,0.5,0.915242590305415,1.08484689557314,1.22485971912368,1.59141626027772,0.5,27.232043905598
157,1,18,D,1,3,l,27,1,0.95,1D,3D,0,1,0,1,D13,3.18703702800715,2.80336038090653,0.0844529687707762,0.5,0.0423787048472926,0.5,0.0423787048472926,0.996408090750932,0.5,0.0423787048472926,0.0423787048472926,0.5,0.996408090750932,0.00359190924906788,0.5,0.5,0.0423787048472926,0.999695559076191,1.23023507887931,1,1,0,1D,3D,0.5,0.999695559076191,0.000304440923808991,0.999695559076191,0,0,-0.5,-0.457621295152707,0.5,0.587009617420313,1.06323507887931,1.2949848875915,1.85717598167136,0.5,0.219299451035902,0.124414098132944,0.5,0.915242590305415,1.08484689557314,1.22485971912368,1.59141626027772,0.5,27.232043905598
157,1,19,A,0,1,a,63,1,0.95,0A,1A,1,0,1,0,A01,2.78346419475998,2.83321334405622,0.0844529687707762,0.5,0.0423787048472926,0.5,0.0423787048472926,0.996408090750932,0.5,0.0423787048472926,0.0423787048472926,0.5,0.996408090750932,0.00359190924906788,0.5,0.0423787048472926,0.0423787048472926,0.999695559076191,2.00923507887931,0,0,1,1A,0A,0.5,0.0844529687707762,0.915547031229224,0.0844529687707762,0,0,-0.5,-0.457621295152707,0.5,0.587009617420313,1.06323507887931,1.2949848875915,1.85717598167136,0.5,0.285196690063299,0.834691842840419,0.5,0.915242590305415,1.08484689557314,1.22485971912368,1.59141626027772,0.5,27.232043905598
157,1,20,A,1,0,l,63,1,0.95,1A,0A,0,1,0,1,A10,0.686099873931256,2.86220088092947,0.0844529687707762,0.0423787048472926,0.0423787048472926,0.5,0.0423787048472926,0.996408090750932,0.5,0.0423787048472926,0.0423787048472926,0.5,0.996408090750932,0.00359190924906788,0.5,0.0423787048472926,0.0423787048472926,0.999695559076191,1.64123507887931,0,0,1,0A,1A,0.0844529687707762,0.0423787048472926,0.675787488930512,0.324212511069488,1,1,0.915547031229224,0.837947636408667,0.5,0.587009617420313,1.06323507887931,1.2949848875915,1.85717598167136,0.5,0.561026876178711,0.664990613868072,0.5,0.915242590305415,1.08484689557314,1.22485971912368,1.59141626027772,0.5,27.232043905598
157,1,21,C,2,0,a,27,1,0.95,2C,0C,1,0,1,0,C20,2.36664577446081,2.89037175789616,0.922400605179443,0.0423787048472926,0.0423787048472926,0.5,0.0423787048472926,0.996408090750932,0.5,0.0423787048472926,0.0423787048472926,0.5,0.996408090750932,0.00359190924906788,0.5,0.0423787048472926,0.0423787048472926,0.999695559076191,1.48123507887931,1,1,0,2C,0C,0.996408090750932,0.0423787048472926,0.999840495581708,0.000159504418292045,1,1,0.00359190924906794,0.00328746832525892,0.5,0.587009617420313,1.06323507887931,1.2949848875915,1.85717598167136,0.5,1.12118990806063,0.875493876253145,0.5,0.915242590305415,1.08484689557314,1.22485971912368,1.59141626027772,0.5,27.232043905598
157,1,22,B,0,1,l,63,1,0.95,0B,1B,0,1,0,1,B01,1.40620929912819,2.51230562397611,0.922400605179443,0.0423787048472926,0.0423787048472926,0.5,0.0423787048472926,0.996408090750932,0.5,0.0423787048472926,0.0423787048472926,0.5,0.999695559076191,0.00359190924906788,0.5,0.0423787048472926,0.0423787048472926,0.999695559076191,1.57623507887931,0,0,1,1B,0B,0.996408090750932,0.0423787048472926,0.999840495581708,0.000159504418292021,1,1,0.00359190924906794,0.00328746832525892,0.5,0.587009617420313,1.06323507887931,1.2949848875915,1.85717598167136,0.5,0.871490457934196,0.87522004213696,0.5,0.915242590305415,1.08484689557314,1.22485971912368,1.59141626027772,0.5,27.232043905598
157,1,23,C,2,0,a,27,1,0.95,2C,0C,1,0,1,0,C20,3.21552430608233,2.53897387105828,0.922400605179443,0.0423787048472926,0.0423787048472926,0.5,0.0423787048472926,0.999695559076191,0.5,0.0423787048472926,0.0423787048472926,0.5,0.999695559076191,0.00359190924906788,0.5,0.0423787048472926,0.0423787048472926,0.999695559076191,1.93223507887931,1,1,0,2C,0C,0.999695559076191,0.0423787048472926,0.999986523308089,1.34766919113183e-05,1,1,0.000304440923808991,0.000278637299701914,0.5,0.587009617420313,1.06323507887931,1.2949848875915,1.85717598167136,0.5,0.334009029861762,0.875287814006481,0.5,0.915242590305415,1.08484689557314,1.22485971912368,1.59141626027772,0.5,27.232043905598
157,1,24,D,3,2,a,63,1,0.95,3D,2D,1,0,1,0,D32,1.12747317150269,2.56494935746154,0.922400605179443,0.0423787048472926,0.0423787048472926,0.5,0.0423787048472926,0.999695559076191,0.5,0.0423787048472926,0.0423787048472926,0.5,0.999974196375893,0.00359190924906788,0.5,0.0423787048472926,0.0423787048472926,0.999695559076191,1.62623507887931,1,1,0,3D,2D,0.999695559076191,0.0423787048472926,0.999986523308089,1.34766919113183e-05,1,1,0.000304440923808991,0.000278637299701914,0.5,0.587009617420313,1.06323507887931,1.2949848875915,1.85717598167136,0.5,0.761962344993512,0.874968218793002,0.5,0.915242590305415,1.08484689557314,1.22485971912368,1.59141626027772,0.5,27.232043905598
157,1,25,A,1,0,l,63,1,0.95,1A,0A,0,1,0,1,A10,1.89411548350041,2.59026716544583,0.922400605179443,0.0423787048472926,0.0423787048472926,0.5,0.0423787048472926,0.999695559076191,0.5,0.0423787048472926,0.0423787048472926,0.5,0.999974196375893,0.00359190924906788,0.5,0.0423787048472926,0.0423787048472926,0.999974196375893,2.21823507887931,0,0,1,0A,1A,0.922400605179443,0.0423787048472926,0.99629081268951,0.00370918731049029,1,1,0.0775993948205566,0.0710222711216988,0.5,0.587009617420313,1.06323507887931,1.2949848875915,1.85717598167136,0.5,0.155221566328205,0.873699825107997,0.5,0.915242590305415,1.08484689557314,1.22485971912368,1.59141626027772,0.5,27.232043905598
157,1,26,C,3,2,l,63,1,0.95,3C,2C,0,1,0,1,C32,2.72306486674476,2.6149597780362,0.993422876301142,0.0423787048472926,0.0423787048472926,0.5,0.0423787048472926,0.999695559076191,0.5,0.0423787048472926,0.0423787048472926,0.5,0.999974196375893,0.00359190924906788,0.5,0.0423787048472926,0.0423787048472926,0.999974196375893,2.29123507887931,0,0,1,2C,3C,0.999974196375893,0.00359190924906788,0.999999906979219,9.30207813246719e-08,1,1,2.58036241070903e-05,2.36165757670405e-05,0.5,0.587009617420313,1.06323507887931,1.2949848875915,1.85717598167136,0.5,0.126675699832419,0.875523570495301,0.5,0.915242590305415,1.08484689557314,1.22485971912368,1.59141626027772,0.5,27.232043905598
157,1,27,A,2,0,l,27,1,0.95,2A,0A,0,1,0,1,A20,2.65135836266005,3.73766961828337,0.993422876301142,0.0423787048472926,0.0423787048472926,0.5,0.0423787048472926,0.999695559076191,0.5,0.0423787048472926,0.0423787048472926,0.5,0.99999781295166,0.00359190924906788,0.5,0.0423787048472926,0.0423787048472926,0.999974196375893,1.46423507887931,0,0,1,0A,2A,0.993422876301142,0.0423787048472926,0.999707093835514,0.000292906164485627,1,1,0.00657712369885777,0.00601966373090171,0.5,0.587009617420313,1.06323507887931,1.2949848875915,1.85717598167136,0.5,1.17196335515717,0.875650061368905,0.5,0.915242590305415,1.08484689557314,1.22485971912368,1.59141626027772,0.5,27.232043905598
157,1,28,D,3,2,a,63,1,0.95,3D,2D,1,0,1,0,D32,2.72810971486578,2.37490575457367,0.999442540032044,0.0423787048472926,0.0423787048472926,0.5,0.0423787048472926,0.999695559076191,0.5,0.0423787048472926,0.0423787048472926,0.5,0.99999781295166,0.00359190924906788,0.5,0.0423787048472926,0.0423787048472926,0.999974196375893,1.19223507887931,0,0,1,2D,3D,0.0423787048472926,0.999974196375893,1.14194530176359e-06,0.999998858054698,0,0,-0.0423787048472926,-0.0387867955982247,0.5,0.587009617420313,1.06323507887931,1.2949848875915,1.85717598167136,0.5,0.164629980868723,0.124557622270434,0.5,0.915242590305415,1.08484689557314,1.22485971912368,1.59141626027772,0.5,27.232043905598
157,1,29,D,3,2,a,63,1,0.95,3D,2D,1,0,1,0,D32,2.59170917156969,2.17475172148416,0.999442540032044,0.0423787048472926,0.0423787048472926,0.5,0.0423787048472926,0.999695559076191,0.5,0.0423787048472926,0.0423787048472926,0.5,0.99999781295166,0.00359190924906788,0.5,0.0423787048472926,0.00359190924906788,0.999974196375893,1.21623507887931,1,1,0,3D,2D,0.999974196375893,0.00359190924906788,0.999999906979219,9.30207814109352e-08,1,1,2.58036241070903e-05,2.36165757670405e-05,0.5,0.587009617420313,1.06323507887931,1.2949848875915,1.85717598167136,0.5,1.43936988502358,0.875548081471543,0.5,0.915242590305415,1.08484689557314,1.22485971912368,1.59141626027772,0.5,27.232043905598
157,1,30,B,3,1,l,27,1,0.95,3B,1B,0,1,0,1,B31,1.95856268917267,3.80666248977032,0.999442540032044,0.0423787048472926,0.0423787048472926,0.5,0.0423787048472926,0.999695559076191,0.5,0.0423787048472926,0.0423787048472926,0.5,0.99999781295166,0.00359190924906788,0.5,0.0423787048472926,0.00359190924906788,0.99999781295166,1.23723507887931,0,0,1,1B,3B,0.999695559076191,0.0423787048472926,0.999986523308089,1.34766919114131e-05,1,1,0.000304440923808991,0.000278637299701914,0.5,0.587009617420313,1.06323507887931,1.2949848875915,1.85717598167136,0.5,1.58121322423633,0.875588042951201,0.5,0.915242590305415,1.08484689557314,1.22485971912368,1.59141626027772,0.5,27.232043905598
157,1,31,D,0,3,l,9,1,0.95,0D,3D,0,1,0,1,D03,2.9549375131336,3.8286413964891,0.999442540032044,0.0423787048472926,0.0423787048472926,0.5,0.0423787048472926,0.999974196375893,0.5,0.0423787048472926,0.0423787048472926,0.5,0.99999781295166,0.00359190924906788,0.5,0.0423787048472926,0.00359190924906788,0.99999781295166,1.27323507887931,1,1,0,0D,3D,0.5,0.99999781295166,2.18704834009653e-06,0.99999781295166,0,0,-0.5,-0.457621295152707,0.5,0.587009617420313,1.06323507887931,1.2949848875915,1.85717598167136,0.5,0.236617510326096,0.124409372530591,0.5,0.915242590305415,1.08484689557314,1.22485971912368,1.59141626027772,0.5,27.232043905598
157,1,32,B,1,0,a,63,1,0.95,1B,0B,1,0,1,0,B10,1.58554628140186,3.85014760171006,0.999442540032044,0.0423787048472926,0.0423787048472926,0.5,0.0423787048472926,0.999974196375893,0.5,0.0423787048472926,0.0423787048472926,0.5,0.99999781295166,0.00359190924906788,0.0423787048472926,0.0423787048472926,0.00359190924906788,0.99999781295166,1.30823507887931,1,1,0,1B,0B,0.999974196375893,0.0423787048472926,0.999998858054698,1.14194530176359e-06,1,1,2.58036241070903e-05,2.36165757670405e-05,0.5,0.587009617420313,1.06323507887931,1.2949848875915,1.85717598167136,0.5,1.63325631838209,0.875333962011054,0.5,0.915242590305415,1.08484689557314,1.22485971912368,1.59141626027772,0.5,27.232043905598
157,1,33,A,1,0,l,63,1,0.95,1A,0A,0,1,0,1,A10,0.954514670709671,2.484906649788,0.999442540032044,0.0423787048472926,0.0423787048472926,0.5,0.0423787048472926,0.99999781295166,0.5,0.0423787048472926,0.0423787048472926,0.5,0.99999781295166,0.00359190924906788,0.0423787048472926,0.0423787048472926,0.00359190924906788,0.99999781295166,1.37223507887931,0,0,1,0A,1A,0.999442540032044,0.0423787048472926,0.999975316938817,2.46830611827041e-05,1,1,0.000557459967956087,0.000510211105063702,0.5,0.587009617420313,1.06323507887931,1.2949848875915,1.85717598167136,0.5,1.46103347950718,0.875045873431526,0.5,0.915242590305415,1.08484689557314,1.22485971912368,1.59141626027772,0.5,27.232043905598
157,1,34,B,1,0,a,63,1,0.95,1B,0B,1,0,1,0,B10,2.54428252369155,3.19867311755068,0.999952751137108,0.0423787048472926,0.0423787048472926,0.5,0.0423787048472926,0.99999781295166,0.5,0.0423787048472926,0.0423787048472926,0.5,0.99999781295166,0.00359190924906788,0.0423787048472926,0.0423787048472926,0.00359190924906788,0.99999781295166,1.23423507887931,0,0,1,0B,1B,0.0423787048472926,0.99999781295166,9.6786141212668e-08,0.999999903213859,0,0,-0.0423787048472926,-0.0387867955982247,0.5,0.587009617420313,1.06323507887931,1.2949848875915,1.85717598167136,0.5,0.222733578321422,0.124583015268155,0.5,0.915242590305415,1.08484689557314,1.22485971912368,1.59141626027772,0.5,27.232043905598
157,1,35,C,3,2,l,63,1,0.95,3C,2C,0,1,0,1,C32,1.92960448084762,2.52572864430826,0.999952751137108,0.0423787048472926,0.0423787048472926,0.5,0.00359190924906788,0.99999781295166,0.5,0.0423787048472926,0.0423787048472926,0.5,0.99999781295166,0.00359190924906788,0.0423787048472926,0.0423787048472926,0.00359190924906788,0.99999781295166,1.32823507887931,0,0,1,2C,3C,0.99999781295166,0.00359190924906788,0.999999992115985,7.88401494600887e-09,1,1,2.18704834009653e-06,2.00167978791311e-06,0.5,0.587009617420313,1.06323507887931,1.2949848875915,1.85717598167136,0.5,1.58922315518416,0.875295767966136,0.5,0.915242590305415,1.08484689557314,1.22485971912368,1.59141626027772,0.5,27.232043905598
157,1,36,A,0,2,a,27,1,0.95,0A,2A,1,0,1,0,A02,2.62416595050787,3.23867845216438,0.999952751137108,0.0423787048472926,0.0423787048472926,0.5,0.00359190924906788,0.99999781295166,0.5,0.0423787048472926,0.0423787048472926,0.5,0.999999814631448,0.00359190924906788,0.0423787048472926,0.0423787048472926,0.00359190924906788,0.99999781295166,1.85823507887931,1,1,0,0A,2A,0.999952751137108,0.0423787048472926,0.999997908947879,2.09105212134464e-06,1,1,4.72488628924239e-05,4.32441716626475e-05,0.5,0.587009617420313,1.06323507887931,1.2949848875915,1.85717598167136,0.5,0.407850558278144,0.875189314251759,0.5,0.915242590305415,1.08484689557314,1.22485971912368,1.59141626027772,0.5,27.232043905598
157,1,37,B,1,0,a,63,1,0.95,1B,0B,1,0,1,0,B10,3.17606566288886,2.85263142991332,0.99999599530877,0.0423787048472926,0.0423787048472926,0.5,0.00359190924906788,0.99999781295166,0.5,0.0423787048472926,0.0423787048472926,0.5,0.999999814631448,0.00359190924906788,0.0423787048472926,0.0423787048472926,0.00359190924906788,0.99999781295166,1.97623507887931,1,1,0,1B,0B,0.99999781295166,0.00359190924906788,0.999999992115985,7.88401488538426e-09,1,1,2.18704834009653e-06,2.00167978791311e-06,0.5,0.587009617420313,1.06323507887931,1.2949848875915,1.85717598167136,0.5,0.296650722200128,0.875228491149283,0.5,0.915242590305415,1.08484689557314,1.22485971912368,1.59141626027772,0.5,27.232043905598
157,1,38,B,3,1,l,27,1,0.95,3B,1B,0,1,0,1,B31,3.11806295499367,3.27714473299218,0.99999599530877,0.0423787048472926,0.0423787048472926,0.5,0.00359190924906788,0.999999814631448,0.5,0.0423787048472926,0.0423787048472926,0.5,0.999999814631448,0.00359190924906788,0.0423787048472926,0.0423787048472926,0.00359190924906788,0.99999781295166,1.73123507887931,0,0,1,1B,3B,0.999999814631448,0.0423787048472926,0.999999991796673,8.20332692275868e-09,1,1,1.85368552174658e-07,1.69657193853499e-07,0.5,0.587009617420313,1.06323507887931,1.2949848875915,1.85717598167136,0.5,0.574426525763246,0.875652273520203,0.5,0.915242590305415,1.08484689557314,1.22485971912368,1.59141626027772,0.5,27.232043905598
157,1,39,C,3,2,l,63,1,0.95,3C,2C,0,1,0,1,C32,0.613806067569838,2.37954613413017,0.99999599530877,0.0423787048472926,0.0423787048472926,0.5,0.00359190924906788,0.999999984288642,0.5,0.0423787048472926,0.0423787048472926,0.5,0.999999814631448,0.00359190924906788,0.0423787048472926,0.0423787048472926,0.00359190924906788,0.99999781295166,1.92723507887931,0,0,1,2C,3C,0.999999814631448,0.00359190924906788,0.999999999331773,6.68227352027194e-10,1,1,1.85368552174658e-07,1.69657193853499e-07,0.5,0.587009617420313,1.06323507887931,1.2949848875915,1.85717598167136,0.5,0.338593358869471,0.875183168017826,0.5,0.915242590305415,1.08484689557314,1.22485971912368,1.59141626027772,0.5,27.232043905598
157,1,40,D,3,1,a,27,1,0.95,3D,1D,1,0,1,0,D31,2.2482567211277,4.00733318523247,0.99999599530877,0.0423787048472926,0.0423787048472926,0.5,0.00359190924906788,0.999999984288642,0.5,0.0423787048472926,0.0423787048472926,0.5,0.999999984288642,0.00359190924906788,0.0423787048472926,0.0423787048472926,0.00359190924906788,0.99999781295166,1.58523507887931,1,1,0,3D,1D,0.99999781295166,0.0423787048472926,0.999999903213859,9.6786141212668e-08,1,1,2.18704834009653e-06,2.00167978791311e-06,0.5,0.587009617420313,1.06323507887931,1.2949848875915,1.85717598167136,0.5,0.85084596775924,0.875333361498472,0.5,0.915242590305415,1.08484689557314,1.22485971912368,1.59141626027772,0.5,27.232043905598
157,1,41,C,1,2,l,9,1,0.95,1C,2C,0,1,0,1,C12,0.609607044879681,4.02535169073515,0.99999599530877,0.0423787048472926,0.0423787048472926,0.5,0.00359190924906788,0.999999984288642,0.5,0.0423787048472926,0.0423787048472926,0.5,0.999999984288642,0.00359190924906788,0.0423787048472926,0.0423787048472926,0.00359190924906788,0.999999814631448,1.34623507887931,0,0,1,2C,1C,0.999999984288642,0.5,0.999999984288642,1.57113583254542e-08,1,1,1.57113583254542e-08,1.43797042910053e-08,0.5,0.587009617420313,1.06323507887931,1.2949848875915,1.85717598167136,0.5,1.53999280467344,0.87514020135624,0.5,0.915242590305415,1.08484689557314,1.22485971912368,1.59141626027772,0.5,27.232043905598
157,1,42,B,0,1,l,63,0,0.95,0B,1B,0,1,1,0,B01,3.19153489762103,2.65675690671466,0.99999599530877,0.0423787048472926,0.0423787048472926,0.5,0.00359190924906788,0.999999984288642,0.5,0.0423787048472926,0.0423787048472926,0.5,0.999999998668346,0.00359190924906788,0.0423787048472926,0.0423787048472926,0.00359190924906788,0.999999814631448,1.30123507887931,0,0,1,1B,0B,0.999999984288642,0.00359190924906788,0.999999999943363,5.6637209886105e-11,1,0,-0.999999984288642,-0.91524257592571,0.5,0.587009617420313,1.06323507887931,1.2949848875915,1.85717598167136,0.5,1.64452577550462,0.875237172019755,0.5,0.915242590305415,1.08484689557314,1.22485971912368,1.59141626027772,0.5,27.232043905598
157,1,43,D,3,2,a,63,1,0.95,3D,2D,1,0,1,0,D32,1.95930382265015,2.26868354131836,0.99999599530877,0.0423787048472926,0.0423787048472926,0.5,0.00359190924906788,0.0847574083629312,0.5,0.0423787048472926,0.0423787048472926,0.5,0.999999998668346,0.00359190924906788,0.0423787048472926,0.0423787048472926,0.00359190924906788,0.999999814631448,1.74723507887931,1,1,0,3D,2D,0.999999814631448,0.00359190924906788,0.999999999331773,6.6822736233263e-10,1,1,1.85368552174658e-07,1.69657193853499e-07,0.5,0.587009617420313,1.06323507887931,1.2949848875915,1.85717598167136,0.5,0.550179507554856,0.875034666257895,0.5,0.915242590305415,1.08484689557314,1.22485971912368,1.59141626027772,0.5,27.232043905598
157,1,44,A,0,1,a,63,1,0.95,0A,1A,1,0,1,0,A01,1.66832397051165,2.97892515523761,0.99999599530877,0.0423787048472926,0.0423787048472926,0.5,0.00359190924906788,0.0847574083629312,0.5,0.0423787048472926,0.0423787048472926,0.5,0.999999998668346,0.00359190924906788,0.0423787048472926,0.0423787048472926,0.00359190924906788,0.999999984288642,1.28623507887931,1,1,0,0A,1A,0.99999599530877,0.0423787048472926,0.999999822775164,1.77224836250822e-07,1,1,4.00469122974201e-06,3.66526397448245e-06,0.5,0.587009617420313,1.06323507887931,1.2949848875915,1.85717598167136,0.5,1.66177999873825,0.87536165004928,0.5,0.915242590305415,1.08484689557314,1.22485971912368,1.59141626027772,0.5,27.232043905598
