ID,session,trialNr,mod2Stim,visStimLeft,visStimRight,correctKey,frequency,rewardAccurate,probFB,stimPairLeft,stimPairRight,leftCorrect,rightCorrect,pCorrectLeft,pCorrectRight,triplet,rt,surprise,0A belief,1A belief,2A belief,3A belief,0B belief,1B belief,2B belief,3B belief,0C belief,1C belief,2C belief,3C belief,0D belief,1D belief,2D belief,3D belief,reactionTime,choice,choiceLeft,choiceRight,chosenPair,otherPair,beliefPair,beliefOtherPair,beliefPairNorm,beliefOtherPairNorm,choiceAccurate,reward,rewardPE,update2,sim_CBCsimpleRW_CBCdriftDiffusionLR_startBelief,sim_CBCsimpleRW_CBCdriftDiffusionLR_alpha1,sim_CBCsimpleRW_CBCdriftDiffusionLR_nonDecisionTime,sim_CBCsimpleRW_CBCdriftDiffusionLR_weight,sim_CBCsimpleRW_CBCdriftDiffusionLR_startingBoundary,sim_CBCsimpleRW_CBCdriftDiffusionLR_startingPoint,lik,corrLik,fitCBCsimpleRW_CBCdriftDiffusionLR_startBelief,fitCBCsimpleRW_CBCdriftDiffusionLR_alpha1,fitCBCsimpleRW_CBCdriftDiffusionLR_nonDecisionTime,fitCBCsimpleRW_CBCdriftDiffusionLR_weight,fitCBCsimpleRW_CBCdriftDiffusionLR_startingBoundary,fitCBCsimpleRW_CBCdriftDiffusionLR_startingPoint,fit_CBCsimpleRW_CBCdriftDiffusionLR_NLL
157,1,1,B,0,1,l,63,1,0.95,0B,1B,0,1,0,1,B01,1.14982860972935,2.77258872223978,0.5,0.5,0.5,0.5,0.5,0.5,0.5,0.5,0.5,0.5,0.5,0.5,0.5,0.5,0.5,0.5,1.66291602761318,1,1,0,0B,1B,0.5,0.5,0.5,0.5,0,0,-0.5,-0.0186550803902643,0.5,0.239730083796819,0.614916027613185,0.776106055202433,2.41640997245557,0.5,0.22401397580121,0.500675084443665,0.5,0.0373101607805285,0.623281568928354,3.4659571077575,2.1412957949824,0.5,69.9982631831967
157,1,2,D,2,3,l,63,1,0.95,2D,3D,0,1,0,1,D23,0.103136181281494,2.83321334405622,0.5,0.5,0.5,0.5,0.481344919609736,0.5,0.5,0.5,0.5,0.5,0.5,0.5,0.5,0.5,0.5,0.5,1.09691602761319,1,1,0,2D,3D,0.5,0.5,0.5,0.5,0,0,-0.5,-0.0186550803902643,0.5,0.239730083796819,0.614916027613185,0.776106055202433,2.41640997245557,0.5,0.390224181936743,0.49947290547001,0.5,0.0373101607805285,0.623281568928354,3.4659571077575,2.1412957949824,0.5,69.9982631831967
157,1,3,B,1,3,a,27,1,0.95,1B,3B,1,0,1,0,B13,1.82425799262366,2.89037175789616,0.5,0.5,0.5,0.5,0.481344919609736,0.5,0.5,0.5,0.5,0.5,0.5,0.5,0.5,0.5,0.481344919609736,0.5,1.88091602761319,0,0,1,3B,1B,0.5,0.5,0.5,0.5,0,0,-0.5,-0.0186550803902643,0.5,0.239730083796819,0.614916027613185,0.776106055202433,2.41640997245557,0.5,0.176766660565077,0.499383637014832,0.5,0.0373101607805285,0.623281568928354,3.4659571077575,2.1412957949824,0.5,69.9982631831967
157,1,4,C,3,2,l,63,1,0.95,3C,2C,0,1,0,1,C32,2.75704721949026,2.94443897916644,0.5,0.5,0.5,0.5,0.481344919609736,0.5,0.5,0.481344919609736,0.5,0.5,0.5,0.5,0.5,0.5,0.481344919609736,0.5,1.18491602761319,1,1,0,3C,2C,0.5,0.5,0.5,0.5,0,0,-0.5,-0.0186550803902643,0.5,0.239730083796819,0.614916027613185,0.776106055202433,2.41640997245557,0.5,0.365575594502968,0.500191426592607,0.5,0.0373101607805285,0.623281568928354,3.4659571077575,2.1412957949824,0.5,69.9982631831967
157,1,5,C,2,0,a,27,1,0.95,2C,0C,1,0,1,0,C20,3.14330874358529,2.99573227355399,0.5,0.5,0.5,0.5,0.481344919609736,0.5,0.5,0.481344919609736,0.5,0.5,0.5,0.481344919609736,0.5,0.5,0.481344919609736,0.5,1.46291602761318,1,1,0,2C,0C,0.5,0.5,0.5,0.5,1,1,0.5,0.0186550803902643,0.5,0.239730083796819,0.614916027613185,0.776106055202433,2.41640997245557,0.5,0.276900928899834,0.499918872125266,0.5,0.0373101607805285,0.623281568928354,3.4659571077575,2.1412957949824,0.5,69.9982631831967
157,1,6,A,3,0,l,9,1,0.95,3A,0A,0,1,0,1,A30,0.437065265596417,3.04452243772342,0.5,0.5,0.5,0.5,0.481344919609736,0.5,0.5,0.481344919609736,0.5,0.5,0.518655080390264,0.481344919609736,0.5,0.5,0.481344919609736,0.5,1.95691602761318,0,0,1,0A,3A,0.5,0.5,0.5,0.5,1,1,0.5,0.0186550803902643,0.5,0.239730083796819,0.614916027613185,0.776106055202433,2.41640997245557,0.5,0.163122987738309,0.500103694748626,0.5,0.0373101607805285,0.623281568928354,3.4659571077575,2.1412957949824,0.5,69.9982631831967
157,1,7,C,3,2,l,63,1,0.95,3C,2C,0,1,0,1,C32,1.01577680519616,2.39789527279837,0.518655080390264,0.5,0.5,0.5,0.481344919609736,0.5,0.5,0.481344919609736,0.5,0.5,0.518655080390264,0.481344919609736,0.5,0.5,0.481344919609736,0.5,1.75391602761319,0,0,1,2C,3C,0.518655080390264,0.481344919609736,0.518655080390264,0.481344919609736,1,1,0.481344919609736,0.0179590563415298,0.5,0.239730083796819,0.614916027613185,0.776106055202433,2.41640997245557,0.5,0.230693085061275,0.568479753373412,0.5,0.0373101607805285,0.623281568928354,3.4659571077575,2.1412957949824,0.5,69.9982631831967
157,1,8,A,0,1,a,63,1,0.95,0A,1A,1,0,1,0,A01,3.06698640180808,3.13549421592915,0.518655080390264,0.5,0.5,0.5,0.481344919609736,0.5,0.5,0.481344919609736,0.5,0.5,0.536614136731794,0.481344919609736,0.5,0.5,0.481344919609736,0.5,1.96591602761319,1,1,0,0A,1A,0.518655080390264,0.5,0.509156720831902,0.490843279168098,1,1,0.481344919609736,0.0179590563415298,0.5,0.239730083796819,0.614916027613185,0.776106055202433,2.41640997245557,0.5,0.17221110947049,0.533307928342214,0.5,0.0373101607805285,0.623281568928354,3.4659571077575,2.1412957949824,0.5,69.9982631831967
157,1,9,D,3,2,a,63,1,0.95,3D,2D,1,0,1,0,D32,3.34019769063865,3.17805383034795,0.536614136731794,0.5,0.5,0.5,0.481344919609736,0.5,0.5,0.481344919609736,0.5,0.5,0.536614136731794,0.481344919609736,0.5,0.5,0.481344919609736,0.5,1.04491602761319,0,0,1,2D,3D,0.481344919609736,0.5,0.490495145989199,0.509504854010801,0,0,-0.481344919609736,-0.0179590563415298,0.5,0.239730083796819,0.614916027613185,0.776106055202433,2.41640997245557,0.5,0.372772872303131,0.464455297465411,0.5,0.0373101607805285,0.623281568928354,3.4659571077575,2.1412957949824,0.5,69.9982631831967
157,1,10,C,2,3,a,63,1,0.95,2C,3C,1,0,1,0,C23,1.15430999099385,3.2188758248682,0.536614136731794,0.5,0.5,0.5,0.481344919609736,0.5,0.5,0.481344919609736,0.5,0.5,0.536614136731794,0.481344919609736,0.5,0.5,0.463385863268206,0.5,1.09491602761319,1,1,0,2C,3C,0.536614136731794,0.481344919609736,0.527147072751969,0.472852927248031,1,1,0.463385863268206,0.0172890010619608,0.5,0.239730083796819,0.614916027613185,0.776106055202433,2.41640997245557,0.5,0.473782084710415,0.598675680625203,0.5,0.0373101607805285,0.623281568928354,3.4659571077575,2.1412957949824,0.5,69.9982631831967
157,1,11,D,1,3,l,27,1,0.95,1D,3D,0,1,0,1,D13,2.2838312945231,3.25809653802148,0.536614136731794,0.5,0.5,0.5,0.481344919609736,0.5,0.5,0.481344919609736,0.5,0.5,0.553903137793755,0.481344919609736,0.5,0.5,0.463385863268206,0.5,0.906916027613185,0,0,1,3D,1D,0.5,0.5,0.5,0.5,1,1,0.5,0.0186550803902643,0.5,0.239730083796819,0.614916027613185,0.776106055202433,2.41640997245557,0.5,0.375452961596659,0.500830642746457,0.5,0.0373101607805285,0.623281568928354,3.4659571077575,2.1412957949824,0.5,69.9982631831967
157,1,12,A,1,0,l,63,0,0.95,1A,0A,0,1,1,0,A10,3.18396544355241,3.29583686600433,0.536614136731794,0.5,0.5,0.5,0.481344919609736,0.5,0.5,0.481344919609736,0.5,0.5,0.553903137793755,0.481344919609736,0.5,0.5,0.463385863268206,0.518655080390264,2.06491602761318,1,1,0,1A,0A,0.5,0.536614136731794,0.48233955363216,0.51766044636784,0,1,0.5,0.0186550803902643,0.5,0.239730083796819,0.614916027613185,0.776106055202433,2.41640997245557,0.5,0.125923351718821,0.434612606426783,0.5,0.0373101607805285,0.623281568928354,3.4659571077575,2.1412957949824,0.5,69.9982631831967
157,1,13,C,2,3,a,63,1,0.95,2C,3C,1,0,1,0,C23,0.218417509320845,2.63905732961526,0.536614136731794,0.518655080390264,0.5,0.5,0.481344919609736,0.5,0.5,0.481344919609736,0.5,0.5,0.553903137793755,0.481344919609736,0.5,0.5,0.463385863268206,0.518655080390264,1.47191602761319,0,0,1,3C,2C,0.481344919609736,0.553903137793755,0.464956119615427,0.535043880384573,0,0,-0.481344919609736,-0.0179590563415298,0.5,0.239730083796819,0.614916027613185,0.776106055202433,2.41640997245557,0.5,0.206600383052372,0.373445406930555,0.5,0.0373101607805285,0.623281568928354,3.4659571077575,2.1412957949824,0.5,69.9982631831967
157,1,14,A,0,2,a,27,1,0.95,0A,2A,1,0,1,0,A02,0.138749128263239,3.36729582998647,0.536614136731794,0.518655080390264,0.5,0.5,0.481344919609736,0.5,0.5,0.481344919609736,0.5,0.5,0.553903137793755,0.463385863268206,0.5,0.5,0.463385863268206,0.518655080390264,5.24091602761318,0,0,1,2A,0A,0.5,0.536614136731794,0.48233955363216,0.51766044636784,0,0,-0.5,-0.0186550803902643,0.5,0.239730083796819,0.614916027613185,0.776106055202433,2.41640997245557,0.5,0.00401798680890219,0.433733690440656,0.5,0.0373101607805285,0.623281568928354,3.4659571077575,2.1412957949824,0.5,69.9982631831967
157,1,15,B,0,1,l,63,1,0.95,0B,1B,0,1,0,1,B01,0.469721092270644,2.70805020110221,0.536614136731794,0.518655080390264,0.481344919609736,0.5,0.481344919609736,0.5,0.5,0.481344919609736,0.5,0.5,0.553903137793755,0.463385863268206,0.5,0.5,0.463385863268206,0.518655080390264,1.96191602761319,1,1,0,0B,1B,0.481344919609736,0.5,0.490495145989199,0.509504854010801,0,0,-0.481344919609736,-0.0179590563415298,0.5,0.239730083796819,0.614916027613185,0.776106055202433,2.41640997245557,0.5,0.150761598583628,0.464893247246122,0.5,0.0373101607805285,0.623281568928354,3.4659571077575,2.1412957949824,0.5,69.9982631831967
157,1,16,D,3,2,a,63,1,0.95,3D,2D,1,0,1,0,D32,0.293878505230219,2.7408400239252,0.536614136731794,0.518655080390264,0.481344919609736,0.5,0.463385863268206,0.5,0.5,0.481344919609736,0.5,0.5,0.553903137793755,0.463385863268206,0.5,0.5,0.463385863268206,0.518655080390264,1.26991602761319,0,0,1,2D,3D,0.463385863268206,0.518655080390264,0.471860024024986,0.528139975975014,0,0,-0.463385863268206,-0.0172890010619608,0.5,0.239730083796819,0.614916027613185,0.776106055202433,2.41640997245557,0.5,0.271392308612195,0.398150422804744,0.5,0.0373101607805285,0.623281568928354,3.4659571077575,2.1412957949824,0.5,69.9982631831967
157,1,17,B,1,2,a,9,1,0.95,1B,2B,1,0,1,0,B12,0.776909883526997,3.46573590279973,0.536614136731794,0.518655080390264,0.481344919609736,0.5,0.463385863268206,0.5,0.5,0.481344919609736,0.5,0.5,0.553903137793755,0.463385863268206,0.5,0.5,0.446096862206245,0.518655080390264,1.94991602761319,1,1,0,1B,2B,0.5,0.5,0.5,0.5,1,1,0.5,0.0186550803902643,0.5,0.239730083796819,0.614916027613185,0.776106055202433,2.41640997245557,0.5,0.164202961095787,0.49963728583214,0.5,0.0373101607805285,0.623281568928354,3.4659571077575,2.1412957949824,0.5,69.9982631831967
157,1,18,D,1,3,l,27,1,0.95,1D,3D,0,1,0,1,D13,3.18703702800715,2.80336038090653,0.536614136731794,0.518655080390264,0.481344919609736,0.5,0.463385863268206,0.518655080390264,0.5,0.481344919609736,0.5,0.5,0.553903137793755,0.463385863268206,0.5,0.5,0.446096862206245,0.518655080390264,0.979916027613185,1,1,0,1D,3D,0.5,0.518655080390264,0.490843279168098,0.509156720831902,0,0,-0.5,-0.0186550803902643,0.5,0.239730083796819,0.614916027613185,0.776106055202433,2.41640997245557,0.5,0.375436359848384,0.466178487894684,0.5,0.0373101607805285,0.623281568928354,3.4659571077575,2.1412957949824,0.5,69.9982631831967
157,1,19,A,0,1,a,63,1,0.95,0A,1A,1,0,1,0,A01,2.78346419475998,2.83321334405622,0.536614136731794,0.518655080390264,0.481344919609736,0.5,0.463385863268206,0.518655080390264,0.5,0.481344919609736,0.5,0.5,0.553903137793755,0.463385863268206,0.5,0.481344919609736,0.446096862206245,0.518655080390264,1.14391602761319,1,1,0,0A,1A,0.536614136731794,0.518655080390264,0.508509229706571,0.491490770293429,1,1,0.463385863268206,0.0172890010619608,0.5,0.239730083796819,0.614916027613185,0.776106055202433,2.41640997245557,0.5,0.402234596671803,0.53150990493256,0.5,0.0373101607805285,0.623281568928354,3.4659571077575,2.1412957949824,0.5,69.9982631831967
157,1,20,A,1,0,l,63,1,0.95,1A,0A,0,1,0,1,A10,0.686099873931256,2.86220088092947,0.553903137793755,0.518655080390264,0.481344919609736,0.5,0.463385863268206,0.518655080390264,0.5,0.481344919609736,0.5,0.5,0.553903137793755,0.463385863268206,0.5,0.481344919609736,0.446096862206245,0.518655080390264,2.85991602761319,0,0,1,0A,1A,0.553903137793755,0.518655080390264,0.51643176883357,0.48356823116643,1,1,0.446096862206245,0.0166439456526043,0.5,0.239730083796819,0.614916027613185,0.776106055202433,2.41640997245557,0.5,0.0687234127804637,0.560792153060625,0.5,0.0373101607805285,0.623281568928354,3.4659571077575,2.1412957949824,0.5,69.9982631831967
157,1,21,C,2,0,a,27,1,0.95,2C,0C,1,0,1,0,C20,2.36664577446081,2.89037175789616,0.570547083446359,0.518655080390264,0.481344919609736,0.5,0.463385863268206,0.518655080390264,0.5,0.481344919609736,0.5,0.5,0.553903137793755,0.463385863268206,0.5,0.481344919609736,0.446096862206245,0.518655080390264,1.07891602761319,1,1,0,2C,0C,0.553903137793755,0.5,0.525573098637222,0.474426901362778,1,1,0.446096862206245,0.0166439456526043,0.5,0.239730083796819,0.614916027613185,0.776106055202433,2.41640997245557,0.5,0.474098422235905,0.594103745931943,0.5,0.0373101607805285,0.623281568928354,3.4659571077575,2.1412957949824,0.5,69.9982631831967
157,1,22,B,0,1,l,63,1,0.95,0B,1B,0,1,0,1,B01,1.40620929912819,2.51230562397611,0.570547083446359,0.518655080390264,0.481344919609736,0.5,0.463385863268206,0.518655080390264,0.5,0.481344919609736,0.5,0.5,0.570547083446359,0.463385863268206,0.5,0.481344919609736,0.446096862206245,0.518655080390264,2.80891602761319,0,0,1,1B,0B,0.518655080390264,0.463385863268206,0.528139975975014,0.471860024024986,1,1,0.481344919609736,0.0179590563415298,0.5,0.239730083796819,0.614916027613185,0.776106055202433,2.41640997245557,0.5,0.0771305045007966,0.603631503631554,0.5,0.0373101607805285,0.623281568928354,3.4659571077575,2.1412957949824,0.5,69.9982631831967
157,1,23,C,2,0,a,27,1,0.95,2C,0C,1,0,1,0,C20,3.21552430608233,2.53897387105828,0.570547083446359,0.518655080390264,0.481344919609736,0.5,0.463385863268206,0.536614136731794,0.5,0.481344919609736,0.5,0.5,0.570547083446359,0.463385863268206,0.5,0.481344919609736,0.446096862206245,0.518655080390264,1.42891602761319,0,0,1,0C,2C,0.5,0.570547083446359,0.467050919788016,0.532949080211984,0,0,-0.5,-0.0186550803902643,0.5,0.239730083796819,0.614916027613185,0.776106055202433,2.41640997245557,0.5,0.220163240018298,0.380211005685205,0.5,0.0373101607805285,0.623281568928354,3.4659571077575,2.1412957949824,0.5,69.9982631831967
157,1,24,D,3,2,a,63,1,0.95,3D,2D,1,0,1,0,D32,1.12747317150269,2.56494935746154,0.570547083446359,0.518655080390264,0.481344919609736,0.5,0.463385863268206,0.536614136731794,0.5,0.481344919609736,0.481344919609736,0.5,0.570547083446359,0.463385863268206,0.5,0.481344919609736,0.446096862206245,0.518655080390264,1.07691602761319,1,1,0,3D,2D,0.518655080390264,0.446096862206245,0.537604598125368,0.462395401874632,1,1,0.481344919609736,0.0179590563415298,0.5,0.239730083796819,0.614916027613185,0.776106055202433,2.41640997245557,0.5,0.513380474999583,0.635059870289721,0.5,0.0373101607805285,0.623281568928354,3.4659571077575,2.1412957949824,0.5,69.9982631831967
157,1,25,A,1,0,l,63,1,0.95,1A,0A,0,1,0,1,A10,1.89411548350041,2.59026716544583,0.570547083446359,0.518655080390264,0.481344919609736,0.5,0.463385863268206,0.536614136731794,0.5,0.481344919609736,0.481344919609736,0.5,0.570547083446359,0.463385863268206,0.5,0.481344919609736,0.446096862206245,0.536614136731794,1.18491602761319,1,1,0,1A,0A,0.518655080390264,0.570547083446359,0.476178892780882,0.523821107219118,0,0,-0.518655080390264,-0.0193511044389987,0.5,0.239730083796819,0.614916027613185,0.776106055202433,2.41640997245557,0.5,0.304459146242914,0.413359709261479,0.5,0.0373101607805285,0.623281568928354,3.4659571077575,2.1412957949824,0.5,69.9982631831967
157,1,26,C,3,2,l,63,1,0.95,3C,2C,0,1,0,1,C32,2.72306486674476,2.6149597780362,0.570547083446359,0.499303975951266,0.481344919609736,0.5,0.463385863268206,0.536614136731794,0.5,0.481344919609736,0.481344919609736,0.5,0.570547083446359,0.463385863268206,0.5,0.481344919609736,0.446096862206245,0.536614136731794,2.40791602761318,0,0,1,2C,3C,0.570547083446359,0.463385863268206,0.551822132430672,0.448177867569328,1,1,0.429452916553641,0.0160229573642832,0.5,0.239730083796819,0.614916027613185,0.776106055202433,2.41640997245557,0.5,0.131376618258501,0.683000954925866,0.5,0.0373101607805285,0.623281568928354,3.4659571077575,2.1412957949824,0.5,69.9982631831967
157,1,27,A,2,0,l,27,1,0.95,2A,0A,0,1,0,1,A20,2.65135836266005,3.73766961828337,0.570547083446359,0.499303975951266,0.481344919609736,0.5,0.463385863268206,0.536614136731794,0.5,0.481344919609736,0.481344919609736,0.5,0.586570040810642,0.463385863268206,0.5,0.481344919609736,0.446096862206245,0.536614136731794,1.33691602761319,0,0,1,0A,2A,0.570547083446359,0.481344919609736,0.542400818514382,0.457599181485618,1,1,0.429452916553641,0.0160229573642832,0.5,0.239730083796819,0.614916027613185,0.776106055202433,2.41640997245557,0.5,0.419167664730102,0.651929192864285,0.5,0.0373101607805285,0.623281568928354,3.4659571077575,2.1412957949824,0.5,69.9982631831967
157,1,28,D,3,2,a,63,1,0.95,3D,2D,1,0,1,0,D32,2.72810971486578,2.37490575457367,0.586570040810642,0.499303975951266,0.481344919609736,0.5,0.463385863268206,0.536614136731794,0.5,0.481344919609736,0.481344919609736,0.5,0.586570040810642,0.463385863268206,0.5,0.481344919609736,0.446096862206245,0.536614136731794,2.27791602761318,0,0,1,2D,3D,0.446096862206245,0.536614136731794,0.453945119865675,0.546054880134325,0,0,-0.446096862206245,-0.0166439456526043,0.5,0.239730083796819,0.614916027613185,0.776106055202433,2.41640997245557,0.5,0.0755236404572218,0.335971391563853,0.5,0.0373101607805285,0.623281568928354,3.4659571077575,2.1412957949824,0.5,69.9982631831967
157,1,29,D,3,2,a,63,1,0.95,3D,2D,1,0,1,0,D32,2.59170917156969,2.17475172148416,0.586570040810642,0.499303975951266,0.481344919609736,0.5,0.463385863268206,0.536614136731794,0.5,0.481344919609736,0.481344919609736,0.5,0.586570040810642,0.463385863268206,0.5,0.481344919609736,0.429452916553641,0.536614136731794,1.36891602761319,1,1,0,3D,2D,0.536614136731794,0.429452916553641,0.555462620225851,0.444537379774149,1,1,0.463385863268206,0.0172890010619608,0.5,0.239730083796819,0.614916027613185,0.776106055202433,2.41640997245557,0.5,0.436345534005349,0.694721231082862,0.5,0.0373101607805285,0.623281568928354,3.4659571077575,2.1412957949824,0.5,69.9982631831967
157,1,30,B,3,1,l,27,1,0.95,3B,1B,0,1,0,1,B31,1.95856268917267,3.80666248977032,0.586570040810642,0.499303975951266,0.481344919609736,0.5,0.463385863268206,0.536614136731794,0.5,0.481344919609736,0.481344919609736,0.5,0.586570040810642,0.463385863268206,0.5,0.481344919609736,0.429452916553641,0.553903137793755,1.49991602761319,0,0,1,1B,3B,0.536614136731794,0.481344919609736,0.527147072751969,0.472852927248031,1,1,0.463385863268206,0.0172890010619608,0.5,0.239730083796819,0.614916027613185,0.776106055202433,2.41640997245557,0.5,0.320653931874553,0.599290678701859,0.5,0.0373101607805285,0.623281568928354,3.4659571077575,2.1412957949824,0.5,69.9982631831967
157,1,31,D,0,3,l,9,1,0.95,0D,3D,0,1,0,1,D03,2.9549375131336,3.8286413964891,0.586570040810642,0.499303975951266,0.481344919609736,0.5,0.463385863268206,0.553903137793755,0.5,0.481344919609736,0.481344919609736,0.5,0.586570040810642,0.463385863268206,0.5,0.481344919609736,0.429452916553641,0.553903137793755,2.59491602761319,0,0,1,3D,0D,0.553903137793755,0.5,0.525573098637222,0.474426901362778,1,1,0.446096862206245,0.0166439456526043,0.5,0.239730083796819,0.614916027613185,0.776106055202433,2.41640997245557,0.5,0.0961689636296664,0.593499231222955,0.5,0.0373101607805285,0.623281568928354,3.4659571077575,2.1412957949824,0.5,69.9982631831967
157,1,32,B,1,0,a,63,1,0.95,1B,0B,1,0,1,0,B10,1.58554628140186,3.85014760171006,0.586570040810642,0.499303975951266,0.481344919609736,0.5,0.463385863268206,0.553903137793755,0.5,0.481344919609736,0.481344919609736,0.5,0.586570040810642,0.463385863268206,0.5,0.481344919609736,0.429452916553641,0.570547083446359,3.11091602761319,0,0,1,0B,1B,0.463385863268206,0.553903137793755,0.455510541040424,0.544489458959576,0,0,-0.463385863268206,-0.0172890010619608,0.5,0.239730083796819,0.614916027613185,0.776106055202433,2.41640997245557,0.5,0.0301559276826826,0.341321747552368,0.5,0.0373101607805285,0.623281568928354,3.4659571077575,2.1412957949824,0.5,69.9982631831967
157,1,33,A,1,0,l,63,1,0.95,1A,0A,0,1,0,1,A10,0.954514670709671,2.484906649788,0.586570040810642,0.499303975951266,0.481344919609736,0.5,0.446096862206245,0.553903137793755,0.5,0.481344919609736,0.481344919609736,0.5,0.586570040810642,0.463385863268206,0.5,0.481344919609736,0.429452916553641,0.570547083446359,1.21691602761318,0,0,1,0A,1A,0.586570040810642,0.499303975951266,0.540182407679118,0.459817592320882,1,1,0.413429959189358,0.0154251382488423,0.5,0.239730083796819,0.614916027613185,0.776106055202433,2.41640997245557,0.5,0.467431506154421,0.6445992484681,0.5,0.0373101607805285,0.623281568928354,3.4659571077575,2.1412957949824,0.5,69.9982631831967
157,1,34,B,1,0,a,63,1,0.95,1B,0B,1,0,1,0,B10,2.54428252369155,3.19867311755068,0.601995179059485,0.499303975951266,0.481344919609736,0.5,0.446096862206245,0.553903137793755,0.5,0.481344919609736,0.481344919609736,0.5,0.586570040810642,0.463385863268206,0.5,0.481344919609736,0.429452916553641,0.570547083446359,1.12291602761319,1,1,0,1B,0B,0.553903137793755,0.446096862206245,0.553903137793755,0.446096862206245,1,1,0.446096862206245,0.0166439456526043,0.5,0.239730083796819,0.614916027613185,0.776106055202433,2.41640997245557,0.5,0.554230131458299,0.691003791195715,0.5,0.0373101607805285,0.623281568928354,3.4659571077575,2.1412957949824,0.5,69.9982631831967
157,1,35,C,3,2,l,63,1,0.95,3C,2C,0,1,0,1,C32,1.92960448084762,2.52572864430826,0.601995179059485,0.499303975951266,0.481344919609736,0.5,0.446096862206245,0.570547083446359,0.5,0.481344919609736,0.481344919609736,0.5,0.586570040810642,0.463385863268206,0.5,0.481344919609736,0.429452916553641,0.570547083446359,0.962916027613185,0,0,1,2C,3C,0.586570040810642,0.463385863268206,0.558661595722207,0.441338404277792,1,1,0.413429959189358,0.0154251382488423,0.5,0.239730083796819,0.614916027613185,0.776106055202433,2.41640997245557,0.5,0.599517519261204,0.704642374336815,0.5,0.0373101607805285,0.623281568928354,3.4659571077575,2.1412957949824,0.5,69.9982631831967
157,1,36,A,0,2,a,27,1,0.95,0A,2A,1,0,1,0,A02,2.62416595050787,3.23867845216438,0.601995179059485,0.499303975951266,0.481344919609736,0.5,0.446096862206245,0.570547083446359,0.5,0.481344919609736,0.481344919609736,0.5,0.601995179059485,0.463385863268206,0.5,0.481344919609736,0.429452916553641,0.570547083446359,1.26091602761318,1,1,0,0A,2A,0.601995179059485,0.481344919609736,0.555684387385806,0.444315612614194,1,1,0.398004820940515,0.0148496238607161,0.5,0.239730083796819,0.614916027613185,0.776106055202433,2.41640997245557,0.5,0.491479877002994,0.69601291100839,0.5,0.0373101607805285,0.623281568928354,3.4659571077575,2.1412957949824,0.5,69.9982631831967
157,1,37,B,1,0,a,63,1,0.95,1B,0B,1,0,1,0,B10,3.17606566288886,2.85263142991332,0.616844802920201,0.499303975951266,0.481344919609736,0.5,0.446096862206245,0.570547083446359,0.5,0.481344919609736,0.481344919609736,0.5,0.601995179059485,0.463385863268206,0.5,0.481344919609736,0.429452916553641,0.570547083446359,1.71991602761319,0,0,1,0B,1B,0.446096862206245,0.570547083446359,0.438793605287136,0.561206394712864,0,0,-0.446096862206245,-0.0166439456526043,0.5,0.239730083796819,0.614916027613185,0.776106055202433,2.41640997245557,0.5,0.121357084861084,0.288029131334372,0.5,0.0373101607805285,0.623281568928354,3.4659571077575,2.1412957949824,0.5,69.9982631831967
157,1,38,B,3,1,l,27,1,0.95,3B,1B,0,1,0,1,B31,3.11806295499367,3.27714473299218,0.616844802920201,0.499303975951266,0.481344919609736,0.5,0.429452916553641,0.570547083446359,0.5,0.481344919609736,0.481344919609736,0.5,0.601995179059485,0.463385863268206,0.5,0.481344919609736,0.429452916553641,0.570547083446359,0.999916027613185,0,0,1,1B,3B,0.570547083446359,0.481344919609736,0.542400818514382,0.457599181485618,1,1,0.429452916553641,0.0160229573642832,0.5,0.239730083796819,0.614916027613185,0.776106055202433,2.41640997245557,0.5,0.543937358078058,0.652539877726028,0.5,0.0373101607805285,0.623281568928354,3.4659571077575,2.1412957949824,0.5,69.9982631831967
157,1,39,C,3,2,l,63,1,0.95,3C,2C,0,1,0,1,C32,0.613806067569838,2.37954613413017,0.616844802920201,0.499303975951266,0.481344919609736,0.5,0.429452916553641,0.586570040810642,0.5,0.481344919609736,0.481344919609736,0.5,0.601995179059485,0.463385863268206,0.5,0.481344919609736,0.429452916553641,0.570547083446359,0.730916027613185,0,0,1,2C,3C,0.601995179059485,0.463385863268206,0.565051521607912,0.434948478392088,1,1,0.398004820940515,0.0148496238607161,0.5,0.239730083796819,0.614916027613185,0.776106055202433,2.41640997245557,0.5,0.0943697761956031,0.724103078195871,0.5,0.0373101607805285,0.623281568928354,3.4659571077575,2.1412957949824,0.5,69.9982631831967
157,1,40,D,3,1,a,27,1,0.95,3D,1D,1,0,1,0,D31,2.2482567211277,4.00733318523247,0.616844802920201,0.499303975951266,0.481344919609736,0.5,0.429452916553641,0.586570040810642,0.5,0.481344919609736,0.481344919609736,0.5,0.616844802920201,0.463385863268206,0.5,0.481344919609736,0.429452916553641,0.570547083446359,2.23191602761319,0,0,1,1D,3D,0.481344919609736,0.570547083446359,0.457599181485618,0.542400818514382,0,0,-0.481344919609736,-0.0179590563415298,0.5,0.239730083796819,0.614916027613185,0.776106055202433,2.41640997245557,0.5,0.0823887008046943,0.346793657452561,0.5,0.0373101607805285,0.623281568928354,3.4659571077575,2.1412957949824,0.5,69.9982631831967
157,1,41,C,1,2,l,9,1,0.95,1C,2C,0,1,0,1,C12,0.609607044879681,4.02535169073515,0.616844802920201,0.499303975951266,0.481344919609736,0.5,0.429452916553641,0.586570040810642,0.5,0.481344919609736,0.481344919609736,0.5,0.616844802920201,0.463385863268206,0.5,0.463385863268206,0.429452916553641,0.570547083446359,2.41191602761319,0,0,1,2C,1C,0.616844802920201,0.5,0.552310223683133,0.447689776316867,1,1,0.383155197079799,0.0142955820069424,0.5,0.239730083796819,0.614916027613185,0.776106055202433,2.41640997245557,0.5,0.131055495456606,0.685303200960361,0.5,0.0373101607805285,0.623281568928354,3.4659571077575,2.1412957949824,0.5,69.9982631831967
157,1,42,B,0,1,l,63,0,0.95,0B,1B,0,1,1,0,B01,3.19153489762103,2.65675690671466,0.616844802920201,0.499303975951266,0.481344919609736,0.5,0.429452916553641,0.586570040810642,0.5,0.481344919609736,0.481344919609736,0.5,0.631140384927143,0.463385863268206,0.5,0.463385863268206,0.429452916553641,0.570547083446359,1.15291602761319,1,1,0,0B,1B,0.429452916553641,0.586570040810642,0.422680327684432,0.577319672315568,0,1,0.570547083446359,0.0212872034162453,0.5,0.239730083796819,0.614916027613185,0.776106055202433,2.41640997245557,0.5,0.195950481618772,0.240917000737881,0.5,0.0373101607805285,0.623281568928354,3.4659571077575,2.1412957949824,0.5,69.9982631831967
157,1,43,D,3,2,a,63,1,0.95,3D,2D,1,0,1,0,D32,1.95930382265015,2.26868354131836,0.616844802920201,0.499303975951266,0.481344919609736,0.5,0.450740119969886,0.586570040810642,0.5,0.481344919609736,0.481344919609736,0.5,0.631140384927143,0.463385863268206,0.5,0.463385863268206,0.429452916553641,0.570547083446359,1.95091602761318,1,1,0,3D,2D,0.570547083446359,0.429452916553641,0.570547083446359,0.429452916553641,1,1,0.429452916553641,0.0160229573642832,0.5,0.239730083796819,0.614916027613185,0.776106055202433,2.41640997245557,0.5,0.236420852693768,0.740261672800028,0.5,0.0373101607805285,0.623281568928354,3.4659571077575,2.1412957949824,0.5,69.9982631831967
157,1,44,A,0,1,a,63,1,0.95,0A,1A,1,0,1,0,A01,1.66832397051165,2.97892515523761,0.616844802920201,0.499303975951266,0.481344919609736,0.5,0.450740119969886,0.586570040810642,0.5,0.481344919609736,0.481344919609736,0.5,0.631140384927143,0.463385863268206,0.5,0.463385863268206,0.429452916553641,0.586570040810642,2.24591602761318,1,1,0,0A,1A,0.616844802920201,0.499303975951266,0.552654641206426,0.447345358793574,1,1,0.383155197079799,0.0142955820069424,0.5,0.239730083796819,0.614916027613185,0.776106055202433,2.41640997245557,0.5,0.158577095630296,0.686265328622116,0.5,0.0373101607805285,0.623281568928354,3.4659571077575,2.1412957949824,0.5,69.9982631831967
