ID,session,trialNr,mod2Stim,visStimLeft,visStimRight,correctKey,frequency,rewardAccurate,probFB,stimPairLeft,stimPairRight,leftCorrect,rightCorrect,pCorrectLeft,pCorrectRight,triplet,rt,surprise,0A belief,1A belief,2A belief,3A belief,0B belief,1B belief,2B belief,3B belief,0C belief,1C belief,2C belief,3C belief,0D belief,1D belief,2D belief,3D belief,reactionTime,choice,choiceLeft,choiceRight,chosenPair,otherPair,beliefPair,beliefOtherPair,beliefPairNorm,beliefOtherPairNorm,choiceAccurate,reward,rewardPE,update2,sim_CBCsimpleRW_CBCdriftDiffusionLR_startBelief,sim_CBCsimpleRW_CBCdriftDiffusionLR_alpha1,sim_CBCsimpleRW_CBCdriftDiffusionLR_nonDecisionTime,sim_CBCsimpleRW_CBCdriftDiffusionLR_weight,sim_CBCsimpleRW_CBCdriftDiffusionLR_startingBoundary,sim_CBCsimpleRW_CBCdriftDiffusionLR_startingPoint,lik,corrLik,fitCBCsimpleRW_CBCdriftDiffusionLR_startBelief,fitCBCsimpleRW_CBCdriftDiffusionLR_alpha1,fitCBCsimpleRW_CBCdriftDiffusionLR_nonDecisionTime,fitCBCsimpleRW_CBCdriftDiffusionLR_weight,fitCBCsimpleRW_CBCdriftDiffusionLR_startingBoundary,fitCBCsimpleRW_CBCdriftDiffusionLR_startingPoint,fit_CBCsimpleRW_CBCdriftDiffusionLR_NLL
149,1,1,A,0,1,a,63,1,0.91,0A,1A,1,0,1,0,A01,3.33159621053131,2.77258872223978,0.5,0.5,0.5,0.5,0.5,0.5,0.5,0.5,0.5,0.5,0.5,0.5,0.5,0.5,0.5,0.5,1.21196136380006,1,1,0,0A,1A,0.5,0.5,0.5,0.5,1,1,0.5,0.475941796396568,0.5,0.967340160667451,0.787961363800059,11.7685166733622,2.23459473320669,0.5,0.17803971124046,0.499546249759121,0.5,0.951883592793135,0.764040755296892,13.675810037498,2.92744947135107,0.5,-48.2255067855913
149,1,2,D,2,3,l,63,1,0.91,2D,3D,0,1,0,1,D23,0.553483313874194,2.83321334405622,0.975941796396568,0.5,0.5,0.5,0.5,0.5,0.5,0.5,0.5,0.5,0.5,0.5,0.5,0.5,0.5,0.5,1.58596136380006,0,0,1,3D,2D,0.5,0.5,0.5,0.5,1,1,0.5,0.475941796396568,0.5,0.967340160667451,0.787961363800059,11.7685166733622,2.23459473320669,0.5,0.21301535721846,0.500414330592827,0.5,0.951883592793135,0.764040755296892,13.675810037498,2.92744947135107,0.5,-48.2255067855913
149,1,3,C,0,2,l,27,1,0.91,0C,2C,0,1,0,1,C02,2.2635010222608,2.89037175789616,0.975941796396568,0.5,0.5,0.5,0.5,0.5,0.5,0.5,0.5,0.5,0.5,0.5,0.5,0.5,0.5,0.975941796396568,2.24496136380006,1,1,0,0C,2C,0.5,0.5,0.5,0.5,0,0,-0.5,-0.475941796396568,0.5,0.967340160667451,0.787961363800059,11.7685166733622,2.23459473320669,0.5,0.155900799288204,0.500512029207955,0.5,0.951883592793135,0.764040755296892,13.675810037498,2.92744947135107,0.5,-48.2255067855913
149,1,4,A,0,1,a,63,1,0.91,0A,1A,1,0,1,0,A01,1.3710608446632,2.2512917986065,0.975941796396568,0.5,0.5,0.5,0.5,0.5,0.5,0.5,0.0240582036034323,0.5,0.5,0.5,0.5,0.5,0.5,0.975941796396568,1.43896136380006,1,1,0,0A,1A,0.975941796396568,0.5,0.66123325376331,0.33876674623669,1,1,0.0240582036034322,0.0229006092821838,0.5,0.967340160667451,0.787961363800059,11.7685166733622,2.23459473320669,0.5,0.193636917721467,0.99999751924723,0.5,0.951883592793135,0.764040755296892,13.675810037498,2.92744947135107,0.5,-48.2255067855913
149,1,5,B,1,3,a,27,1,0.91,1B,3B,1,0,1,0,B13,2.61416919904649,2.99573227355399,0.998842405678752,0.5,0.5,0.5,0.5,0.5,0.5,0.5,0.0240582036034323,0.5,0.5,0.5,0.5,0.5,0.5,0.975941796396568,1.75996136380006,1,1,0,1B,3B,0.5,0.5,0.5,0.5,1,1,0.5,0.475941796396568,0.5,0.967340160667451,0.787961363800059,11.7685166733622,2.23459473320669,0.5,0.200465176067432,0.50044533199509,0.5,0.951883592793135,0.764040755296892,13.675810037498,2.92744947135107,0.5,-48.2255067855913
149,1,6,C,3,2,l,63,1,0.91,3C,2C,0,1,0,1,C32,0.485973901923367,3.04452243772342,0.998842405678752,0.5,0.5,0.5,0.5,0.975941796396568,0.5,0.5,0.0240582036034323,0.5,0.5,0.5,0.5,0.5,0.5,0.975941796396568,3.04896136380006,1,1,0,3C,2C,0.5,0.5,0.5,0.5,0,0,-0.5,-0.475941796396568,0.5,0.967340160667451,0.787961363800059,11.7685166733622,2.23459473320669,0.5,0.098220671593441,0.499395807703301,0.5,0.951883592793135,0.764040755296892,13.675810037498,2.92744947135107,0.5,-48.2255067855913
149,1,7,D,3,2,a,63,0,0.91,3D,2D,1,0,0,1,D32,1.48245869153918,3.09104245335832,0.998842405678752,0.5,0.5,0.5,0.5,0.975941796396568,0.5,0.5,0.0240582036034323,0.5,0.5,0.0240582036034323,0.5,0.5,0.5,0.975941796396568,1.03796136380006,1,1,0,3D,2D,0.975941796396568,0.5,0.66123325376331,0.33876674623669,1,0,-0.975941796396568,-0.928982983510952,0.5,0.967340160667451,0.787961363800059,11.7685166733622,2.23459473320669,0.5,3.61440960534548,0.999997523697029,0.5,0.951883592793135,0.764040755296892,13.675810037498,2.92744947135107,0.5,-48.2255067855913
149,1,8,B,0,1,l,63,1,0.91,0B,1B,0,1,0,1,B01,3.01773213182842,3.13549421592915,0.998842405678752,0.5,0.5,0.5,0.5,0.975941796396568,0.5,0.5,0.0240582036034323,0.5,0.5,0.0240582036034323,0.5,0.5,0.5,0.0469588128856162,0.945961363800059,0,0,1,1B,0B,0.975941796396568,0.5,0.66123325376331,0.33876674623669,1,1,0.0240582036034322,0.0229006092821838,0.5,0.967340160667451,0.787961363800059,11.7685166733622,2.23459473320669,0.5,2.25571518914997,0.999997501135535,0.5,0.951883592793135,0.764040755296892,13.675810037498,2.92744947135107,0.5,-48.2255067855913
149,1,9,A,2,0,l,27,1,0.91,2A,0A,0,1,0,1,A20,2.5050298919537,3.17805383034795,0.998842405678752,0.5,0.5,0.5,0.5,0.998842405678752,0.5,0.5,0.0240582036034323,0.5,0.5,0.0240582036034323,0.5,0.5,0.5,0.0469588128856162,1.11596136380006,0,0,1,0A,2A,0.998842405678752,0.5,0.666409224808678,0.333590775191322,1,1,0.0011575943212484,0.00110189504150686,0.5,0.967340160667451,0.787961363800059,11.7685166733622,2.23459473320669,0.5,2.72218246908706,0.999998367858503,0.5,0.951883592793135,0.764040755296892,13.675810037498,2.92744947135107,0.5,-48.2255067855913
149,1,10,D,3,0,a,9,1,0.91,3D,0D,1,0,1,0,D30,0.647140869003673,3.2188758248682,0.999944300720258,0.5,0.5,0.5,0.5,0.998842405678752,0.5,0.5,0.0240582036034323,0.5,0.5,0.0240582036034323,0.5,0.5,0.5,0.0469588128856162,0.908961363800059,0,0,1,0D,3D,0.5,0.0469588128856162,0.914145614296123,0.0858543857038767,0,0,-0.5,-0.475941796396568,0.5,0.967340160667451,0.787961363800059,11.7685166733622,2.23459473320669,0.5,9.48959909075307,0.999999999999996,0.5,0.951883592793135,0.764040755296892,13.675810037498,2.92744947135107,0.5,-48.2255067855913
149,1,11,C,2,3,a,63,1,0.91,2C,3C,1,0,1,0,C23,0.351118723855583,3.25809653802148,0.999944300720258,0.5,0.5,0.5,0.5,0.998842405678752,0.5,0.5,0.0240582036034323,0.5,0.5,0.0240582036034323,0.0240582036034323,0.5,0.5,0.0469588128856162,0.877961363800059,1,1,0,2C,3C,0.5,0.0240582036034323,0.954092496905863,0.0459075030941367,1,1,0.5,0.475941796396568,0.5,0.967340160667451,0.787961363800059,11.7685166733622,2.23459473320669,0.5,15.0283457480785,1,0.5,0.951883592793135,0.764040755296892,13.675810037498,2.92744947135107,0.5,-48.2255067855913
149,1,12,B,0,1,l,63,1,0.91,0B,1B,0,1,0,1,B01,0.917998479093639,2.60268968544438,0.999944300720258,0.5,0.5,0.5,0.5,0.998842405678752,0.5,0.5,0.0240582036034323,0.5,0.975941796396568,0.0240582036034323,0.0240582036034323,0.5,0.5,0.0469588128856162,0.926961363800059,0,0,1,1B,0B,0.998842405678752,0.5,0.666409224808678,0.333590775191322,1,1,0.0011575943212484,0.00110189504150686,0.5,0.967340160667451,0.787961363800059,11.7685166733622,2.23459473320669,0.5,1.79235541283343,0.99999836837062,0.5,0.951883592793135,0.764040755296892,13.675810037498,2.92744947135107,0.5,-48.2255067855913
149,1,13,D,2,3,l,63,1,0.91,2D,3D,0,1,0,1,D23,0.536781803643891,2.63905732961526,0.999944300720258,0.5,0.5,0.5,0.5,0.999944300720258,0.5,0.5,0.0240582036034323,0.5,0.975941796396568,0.0240582036034323,0.0240582036034323,0.5,0.5,0.0469588128856162,0.869961363800059,1,1,0,2D,3D,0.5,0.0469588128856162,0.914145614296123,0.0858543857038767,0,0,-0.5,-0.475941796396568,0.5,0.967340160667451,0.787961363800059,11.7685166733622,2.23459473320669,0.5,12.1867029087398,0.999999999999996,0.5,0.951883592793135,0.764040755296892,13.675810037498,2.92744947135107,0.5,-48.2255067855913
149,1,14,C,2,3,a,63,1,0.91,2C,3C,1,0,1,0,C23,2.07756612689332,2.67414864942653,0.999944300720258,0.5,0.5,0.5,0.5,0.999944300720258,0.5,0.5,0.0240582036034323,0.5,0.975941796396568,0.0240582036034323,0.0240582036034323,0.5,0.0240582036034323,0.0469588128856162,0.902961363800059,1,1,0,2C,3C,0.975941796396568,0.0240582036034323,0.975941796396568,0.0240582036034323,1,1,0.0240582036034322,0.0229006092821838,0.5,0.967340160667451,0.787961363800059,11.7685166733622,2.23459473320669,0.5,7.35256389438092,1,0.5,0.951883592793135,0.764040755296892,13.675810037498,2.92744947135107,0.5,-48.2255067855913
149,1,15,B,3,1,l,27,1,0.91,3B,1B,0,1,0,1,B31,1.78622918343603,3.40119738166216,0.999944300720258,0.5,0.5,0.5,0.5,0.999944300720258,0.5,0.5,0.0240582036034323,0.5,0.998842405678752,0.0240582036034323,0.0240582036034323,0.5,0.0240582036034323,0.0469588128856162,0.965961363800059,0,0,1,1B,3B,0.999944300720258,0.5,0.666654288589313,0.333345711410687,1,1,5.56992797415834e-05,5.30192305164083e-05,0.5,0.967340160667451,0.787961363800059,11.7685166733622,2.23459473320669,0.5,3.09730927473527,0.999998394546789,0.5,0.951883592793135,0.764040755296892,13.675810037498,2.92744947135107,0.5,-48.2255067855913
149,1,16,A,0,3,a,9,1,0.91,0A,3A,1,0,1,0,A03,2.03216014115594,3.43398720448515,0.999944300720258,0.5,0.5,0.5,0.5,0.999997319950775,0.5,0.5,0.0240582036034323,0.5,0.998842405678752,0.0240582036034323,0.0240582036034323,0.5,0.0240582036034323,0.0469588128856162,0.908961363800059,1,1,0,0A,3A,0.999944300720258,0.5,0.666654288589313,0.333345711410687,1,1,5.56992797415834e-05,5.30192305164083e-05,0.5,0.967340160667451,0.787961363800059,11.7685166733622,2.23459473320669,0.5,1.14327041162573,0.999998397480456,0.5,0.951883592793135,0.764040755296892,13.675810037498,2.92744947135107,0.5,-48.2255067855913
149,1,17,D,2,3,l,63,1,0.91,2D,3D,0,1,0,1,D23,1.26355207088634,2.36712361413162,0.999997319950775,0.5,0.5,0.5,0.5,0.999997319950775,0.5,0.5,0.0240582036034323,0.5,0.998842405678752,0.0240582036034323,0.0240582036034323,0.5,0.0240582036034323,0.0469588128856162,1.03596136380006,0,0,1,3D,2D,0.0469588128856162,0.0240582036034323,0.66123325376331,0.33876674623669,1,1,0.953041187114384,0.907184269270274,0.5,0.967340160667451,0.787961363800059,11.7685166733622,2.23459473320669,0.5,3.62160257362024,0.999997532338745,0.5,0.951883592793135,0.764040755296892,13.675810037498,2.92744947135107,0.5,-48.2255067855913
149,1,18,C,0,2,l,27,1,0.91,0C,2C,0,1,0,1,C02,1.48814225186616,2.80336038090653,0.999997319950775,0.5,0.5,0.5,0.5,0.999997319950775,0.5,0.5,0.0240582036034323,0.5,0.998842405678752,0.0240582036034323,0.0240582036034323,0.5,0.0240582036034323,0.954143082155891,0.883961363800059,0,0,1,2C,0C,0.998842405678752,0.0240582036034323,0.976480409352464,0.0235195906475362,1,1,0.0011575943212484,0.00110189504150686,0.5,0.967340160667451,0.787961363800059,11.7685166733622,2.23459473320669,0.5,13.4980799239643,1,0.5,0.951883592793135,0.764040755296892,13.675810037498,2.92744947135107,0.5,-48.2255067855913
149,1,19,A,0,1,a,63,1,0.91,0A,1A,1,0,1,0,A01,0.00608201431979138,2.42774823594805,0.999997319950775,0.5,0.5,0.5,0.5,0.999997319950775,0.5,0.5,0.0240582036034323,0.5,0.999944300720258,0.0240582036034323,0.0240582036034323,0.5,0.0240582036034323,0.954143082155891,1.11796136380006,1,1,0,0A,1A,0.999997319950775,0.5,0.666666071099108,0.333333928900892,1,1,2.68004922521214e-06,2.55109488535739e-06,0.5,0.967340160667451,0.787961363800059,11.7685166733622,2.23459473320669,0.5,2.68682339752541,0.999998401442061,0.5,0.951883592793135,0.764040755296892,13.675810037498,2.92744947135107,0.5,-48.2255067855913
149,1,20,B,1,0,a,63,0,0.91,1B,0B,1,0,0,1,B10,1.0293461623864,3.55534806148941,0.99999987104566,0.5,0.5,0.5,0.5,0.999997319950775,0.5,0.5,0.0240582036034323,0.5,0.999944300720258,0.0240582036034323,0.0240582036034323,0.5,0.0240582036034323,0.954143082155891,0.969961363800059,1,1,0,1B,0B,0.999997319950775,0.5,0.666666071099108,0.333333928900892,1,0,-0.999997319950775,-0.95188104169825,0.5,0.967340160667451,0.787961363800059,11.7685166733622,2.23459473320669,0.5,3.20232441252141,0.999998405748981,0.5,0.951883592793135,0.764040755296892,13.675810037498,2.92744947135107,0.5,-48.2255067855913
149,1,21,D,3,1,a,27,1,0.91,3D,1D,1,0,1,0,D31,1.80046481654725,3.58351893845611,0.99999987104566,0.5,0.5,0.5,0.5,0.0481162782525247,0.5,0.5,0.0240582036034323,0.5,0.999944300720258,0.0240582036034323,0.0240582036034323,0.5,0.0240582036034323,0.954143082155891,1.05496136380006,1,1,0,3D,1D,0.954143082155891,0.5,0.656154881774971,0.343845118225029,1,1,0.0458569178441094,0.0436504477118705,0.5,0.967340160667451,0.787961363800059,11.7685166733622,2.23459473320669,0.5,3.42271306911834,0.999996305976054,0.5,0.951883592793135,0.764040755296892,13.675810037498,2.92744947135107,0.5,-48.2255067855913
149,1,22,C,3,2,l,63,1,0.91,3C,2C,0,1,0,1,C32,0.565365231401625,2.91777073208428,0.99999987104566,0.5,0.5,0.5,0.5,0.0481162782525247,0.5,0.5,0.0240582036034323,0.5,0.999944300720258,0.0240582036034323,0.0240582036034323,0.5,0.0240582036034323,0.997793529867761,0.857961363800059,0,0,1,2C,3C,0.999944300720258,0.0240582036034323,0.976505718001811,0.0234942819981888,1,1,5.56992797415834e-05,5.30192305164083e-05,0.5,0.967340160667451,0.787961363800059,11.7685166733622,2.23459473320669,0.5,14.9470092822148,1,0.5,0.951883592793135,0.764040755296892,13.675810037498,2.92744947135107,0.5,-48.2255067855913
149,1,23,B,0,1,l,63,1,0.91,0B,1B,0,1,0,1,B01,2.37464074821614,2.53897387105828,0.99999987104566,0.5,0.5,0.5,0.5,0.0481162782525247,0.5,0.5,0.0240582036034323,0.5,0.999997319950775,0.0240582036034323,0.0240582036034323,0.5,0.0240582036034323,0.997793529867761,0.932961363800059,1,1,0,0B,1B,0.5,0.0481162782525247,0.912215199289599,0.0877848007104013,0,0,-0.5,-0.475941796396568,0.5,0.967340160667451,0.787961363800059,11.7685166733622,2.23459473320669,0.5,4.73246138359757,0.999999999999995,0.5,0.951883592793135,0.764040755296892,13.675810037498,2.92744947135107,0.5,-48.2255067855913
149,1,24,A,0,2,a,27,1,0.91,0A,2A,1,0,1,0,A02,0.374025687636109,3.66356164612965,0.99999987104566,0.5,0.5,0.5,0.0240582036034323,0.0481162782525247,0.5,0.5,0.0240582036034323,0.5,0.999997319950775,0.0240582036034323,0.0240582036034323,0.5,0.0240582036034323,0.997793529867761,1.14996136380006,1,1,0,0A,2A,0.99999987104566,0.5,0.666666638010144,0.333333361989856,1,1,1.28954339873033e-07,1.2274952034461e-07,0.5,0.967340160667451,0.787961363800059,11.7685166733622,2.23459473320669,0.5,2.17554558485211,0.999998396036342,0.5,0.951883592793135,0.764040755296892,13.675810037498,2.92744947135107,0.5,-48.2255067855913
149,1,25,D,3,2,a,63,1,0.91,3D,2D,1,0,1,0,D32,2.33567861503173,2.99573227355399,0.99999999379518,0.5,0.5,0.5,0.0240582036034323,0.0481162782525247,0.5,0.5,0.0240582036034323,0.5,0.999997319950775,0.0240582036034323,0.0240582036034323,0.5,0.0240582036034323,0.997793529867761,0.881961363800059,1,1,0,3D,2D,0.997793529867761,0.0240582036034323,0.976456267758428,0.0235437322415723,1,1,0.00220647013223885,0.00210030271686626,0.5,0.967340160667451,0.787961363800059,11.7685166733622,2.23459473320669,0.5,14.0971600422605,1,0.5,0.951883592793135,0.764040755296892,13.675810037498,2.92744947135107,0.5,-48.2255067855913
149,1,26,C,0,2,l,27,1,0.91,0C,2C,0,1,0,1,C02,3.38417580443572,2.6149597780362,0.99999999379518,0.5,0.5,0.5,0.0240582036034323,0.0481162782525247,0.5,0.5,0.0240582036034323,0.5,0.999997319950775,0.0240582036034323,0.0240582036034323,0.5,0.0240582036034323,0.999893832584627,0.868961363800059,0,0,1,2C,0C,0.999997319950775,0.0240582036034323,0.976506934389716,0.0234930656102836,1,1,2.68004922521214e-06,2.55109488535739e-06,0.5,0.967340160667451,0.787961363800059,11.7685166733622,2.23459473320669,0.5,16.4409032207845,1,0.5,0.951883592793135,0.764040755296892,13.675810037498,2.92744947135107,0.5,-48.2255067855913
149,1,27,B,0,1,l,63,1,0.91,0B,1B,0,1,0,1,B01,1.31420185036128,2.35137525716348,0.99999999379518,0.5,0.5,0.5,0.0240582036034323,0.0481162782525247,0.5,0.5,0.0240582036034323,0.5,0.99999987104566,0.0240582036034323,0.0240582036034323,0.5,0.0240582036034323,0.999893832584627,0.992961363800059,0,0,1,1B,0B,0.0481162782525247,0.0240582036034323,0.666666071099108,0.333333928900892,1,1,0.951883721747475,0.906082496978288,0.5,0.967340160667451,0.787961363800059,11.7685166733622,2.23459473320669,0.5,3.62803548509073,0.999998406749468,0.5,0.951883592793135,0.764040755296892,13.675810037498,2.92744947135107,0.5,-48.2255067855913
149,1,28,A,1,0,l,63,1,0.91,1A,0A,0,1,0,1,A10,0.280819187199963,3.76120011569356,0.99999999379518,0.5,0.5,0.5,0.0240582036034323,0.954198775230813,0.5,0.5,0.0240582036034323,0.5,0.99999987104566,0.0240582036034323,0.0240582036034323,0.5,0.0240582036034323,0.999893832584627,1.02596136380006,0,0,1,0A,1A,0.99999999379518,0.5,0.666666665287818,0.333333334712182,1,1,6.20481954705099e-09,5.90626592307997e-09,0.5,0.967340160667451,0.787961363800059,11.7685166733622,2.23459473320669,0.5,3.79001723244481,0.999998393106142,0.5,0.951883592793135,0.764040755296892,13.675810037498,2.92744947135107,0.5,-48.2255067855913
149,1,29,C,2,3,a,63,0,0.91,2C,3C,1,0,0,1,C23,3.25280711978432,2.68557734525015,0.999999999701446,0.5,0.5,0.5,0.0240582036034323,0.954198775230813,0.5,0.5,0.0240582036034323,0.5,0.99999987104566,0.0240582036034323,0.0240582036034323,0.5,0.0240582036034323,0.999893832584627,0.866961363800059,1,1,0,2C,3C,0.99999987104566,0.0240582036034323,0.976506992914756,0.0234930070852438,1,0,-0.99999987104566,-0.951883470043615,0.5,0.967340160667451,0.787961363800059,11.7685166733622,2.23459473320669,0.5,16.44576399726,1,0.5,0.951883592793135,0.764040755296892,13.675810037498,2.92744947135107,0.5,-48.2255067855913
149,1,30,D,1,3,l,27,1,0.91,1D,3D,0,1,0,1,D13,1.06697590537445,3.80666248977032,0.999999999701446,0.5,0.5,0.5,0.0240582036034323,0.954198775230813,0.5,0.5,0.0240582036034323,0.5,0.0481164010020451,0.0240582036034323,0.0240582036034323,0.5,0.0240582036034323,0.999893832584627,1.11196136380006,0,0,1,3D,1D,0.999893832584627,0.5,0.666643072237722,0.333356927762278,1,1,0.000106167415372616,0.000101059020782446,0.5,0.967340160667451,0.787961363800059,11.7685166733622,2.23459473320669,0.5,2.78490178124975,0.999998399583072,0.5,0.951883592793135,0.764040755296892,13.675810037498,2.92744947135107,0.5,-48.2255067855913
149,1,31,A,0,1,a,63,1,0.91,0A,1A,1,0,1,0,A01,3.10034154932861,2.4423470353692,0.999999999701446,0.5,0.5,0.5,0.0240582036034323,0.954198775230813,0.5,0.5,0.0240582036034323,0.5,0.0481164010020451,0.0240582036034323,0.0240582036034323,0.5,0.0240582036034323,0.99999489160541,1.01496136380006,1,1,0,0A,1A,0.999999999701446,0.5,0.666666666600321,0.333333333399679,1,1,2.9855362626563e-10,2.84188298411147e-10,0.5,0.967340160667451,0.787961363800059,11.7685166733622,2.23459473320669,0.5,3.7895317703145,0.999998401672667,0.5,0.951883592793135,0.764040755296892,13.675810037498,2.92744947135107,0.5,-48.2255067855913
149,1,32,D,2,3,l,63,1,0.91,2D,3D,0,1,0,1,D23,2.9900473906491,2.46385324059017,0.999999999985635,0.5,0.5,0.5,0.0240582036034323,0.954198775230813,0.5,0.5,0.0240582036034323,0.5,0.0481164010020451,0.0240582036034323,0.0240582036034323,0.5,0.0240582036034323,0.99999489160541,0.841961363800059,0,0,1,3D,2D,0.99999489160541,0.0240582036034323,0.97650687868042,0.0234931213195796,1,1,5.10839459011425e-06,4.86259699584297e-06,0.5,0.967340160667451,0.787961363800059,11.7685166733622,2.23459473320669,0.5,7.39502254059817,1,0.5,0.951883592793135,0.764040755296892,13.675810037498,2.92744947135107,0.5,-48.2255067855913
149,1,33,B,1,2,a,9,1,0.91,1B,2B,1,0,1,0,B12,3.16090506732374,3.87120101090789,0.999999999985635,0.5,0.5,0.5,0.0240582036034323,0.954198775230813,0.5,0.5,0.0240582036034323,0.5,0.0481164010020451,0.0240582036034323,0.0240582036034323,0.5,0.0240582036034323,0.999999754202406,1.12296136380006,1,1,0,1B,2B,0.954198775230813,0.5,0.656168050395559,0.343831949604441,1,1,0.0458012247691874,0.04359743438762,0.5,0.967340160667451,0.787961363800059,11.7685166733622,2.23459473320669,0.5,2.69742338621558,0.999996293515214,0.5,0.951883592793135,0.764040755296892,13.675810037498,2.92744947135107,0.5,-48.2255067855913
149,1,34,A,0,1,a,63,1,0.91,0A,1A,1,0,1,0,A01,3.46528892864035,2.28238238567653,0.999999999985635,0.5,0.5,0.5,0.0240582036034323,0.997796209618433,0.5,0.5,0.0240582036034323,0.5,0.0481164010020451,0.0240582036034323,0.0240582036034323,0.5,0.0240582036034323,0.999999754202406,1.11696136380006,1,1,0,0A,1A,0.999999999985635,0.5,0.666666666663474,0.333333333336526,1,1,1.43652867379274e-11,1.36740807516019e-11,0.5,0.967340160667451,0.787961363800059,11.7685166733622,2.23459473320669,0.5,2.70336044598667,0.999998399000243,0.5,0.951883592793135,0.764040755296892,13.675810037498,2.92744947135107,0.5,-48.2255067855913
149,1,35,C,1,2,l,9,1,0.91,1C,2C,0,1,0,1,C12,2.07477216338958,3.91202300542815,0.999999999999309,0.5,0.5,0.5,0.0240582036034323,0.997796209618433,0.5,0.5,0.0240582036034323,0.5,0.0481164010020451,0.0240582036034323,0.0240582036034323,0.5,0.0240582036034323,0.999999754202406,0.870961363800059,1,1,0,1C,2C,0.5,0.0481164010020451,0.912214995000915,0.0877850049990851,0,0,-0.5,-0.475941796396568,0.5,0.967340160667451,0.787961363800059,11.7685166733622,2.23459473320669,0.5,12.2301045619142,0.999999999999995,0.5,0.951883592793135,0.764040755296892,13.675810037498,2.92744947135107,0.5,-48.2255067855913
149,1,36,B,0,1,l,63,1,0.91,0B,1B,0,1,0,1,B01,1.73903642612663,2.32238772029023,0.999999999999309,0.5,0.5,0.5,0.0240582036034323,0.997796209618433,0.5,0.5,0.0240582036034323,0.0240582036034323,0.0481164010020451,0.0240582036034323,0.0240582036034323,0.5,0.0240582036034323,0.999999754202406,0.850961363800059,0,0,1,1B,0B,0.997796209618433,0.0240582036034323,0.976456329500425,0.0235436704995752,1,1,0.00220379038156737,0.0020977519061693,0.5,0.967340160667451,0.787961363800059,11.7685166733622,2.23459473320669,0.5,12.1283750363731,1,0.5,0.951883592793135,0.764040755296892,13.675810037498,2.92744947135107,0.5,-48.2255067855913
149,1,37,A,1,0,l,63,0,0.91,1A,0A,0,1,1,0,A10,2.4639792307702,3.25809653802148,0.999999999999309,0.5,0.5,0.5,0.0240582036034323,0.999893961524602,0.5,0.5,0.0240582036034323,0.0240582036034323,0.0481164010020451,0.0240582036034323,0.0240582036034323,0.5,0.0240582036034323,0.999999754202406,1.26996136380006,0,0,1,0A,1A,0.999999999999309,0.5,0.666666666666513,0.333333333333487,1,0,-0.999999999999309,-0.951883592792477,0.5,0.967340160667451,0.787961363800059,11.7685166733622,2.23459473320669,0.5,0.805341854942878,0.999998393673998,0.5,0.951883592793135,0.764040755296892,13.675810037498,2.92744947135107,0.5,-48.2255067855913
149,1,38,B,1,0,a,63,1,0.91,1B,0B,1,0,1,0,B10,3.41534249924249,3.27714473299218,0.0481164072068313,0.5,0.5,0.5,0.0240582036034323,0.999893961524602,0.5,0.5,0.0240582036034323,0.0240582036034323,0.0481164010020451,0.0240582036034323,0.0240582036034323,0.5,0.0240582036034323,0.999999754202406,0.929961363800059,1,1,0,1B,0B,0.999893961524602,0.0240582036034323,0.976504562983737,0.0234954370162634,1,1,0.000106038475398029,0.000100936284936183,0.5,0.967340160667451,0.787961363800059,11.7685166733622,2.23459473320669,0.5,1.98364838116493,1,0.5,0.951883592793135,0.764040755296892,13.675810037498,2.92744947135107,0.5,-48.2255067855913
149,1,39,D,3,1,a,27,1,0.91,3D,1D,1,0,1,0,D31,1.48779983548394,3.29583686600433,0.0481164072068313,0.5,0.5,0.5,0.0240582036034323,0.999994897809538,0.5,0.5,0.0240582036034323,0.0240582036034323,0.0481164010020451,0.0240582036034323,0.0240582036034323,0.5,0.0240582036034323,0.999999754202406,1.24596136380006,1,1,0,3D,1D,0.999999754202406,0.5,0.66666661204497,0.33333338795503,1,1,2.4579759427823e-07,2.33970697141471e-07,0.5,0.967340160667451,0.787961363800059,11.7685166733622,2.23459473320669,0.5,0.999448776235928,0.999998398501304,0.5,0.951883592793135,0.764040755296892,13.675810037498,2.92744947135107,0.5,-48.2255067855913
149,1,40,C,2,3,a,63,1,0.91,2C,3C,1,0,1,0,C23,1.26657195686895,2.62103882411258,0.0481164072068313,0.5,0.5,0.5,0.0240582036034323,0.999994897809538,0.5,0.5,0.0240582036034323,0.0240582036034323,0.0481164010020451,0.0240582036034323,0.0240582036034323,0.5,0.0240582036034323,0.999999988173103,1.06796136380006,1,1,0,2C,3C,0.0481164010020451,0.0240582036034323,0.666666638010144,0.333333361989856,1,1,0.951883598997955,0.906082380135034,0.5,0.967340160667451,0.787961363800059,11.7685166733622,2.23459473320669,0.5,3.45049268240303,0.999998403331091,0.5,0.951883592793135,0.764040755296892,13.675810037498,2.92744947135107,0.5,-48.2255067855913
149,1,41,A,2,0,l,27,1,0.91,2A,0A,0,1,0,1,A20,1.41762608227787,3.3322045101752,0.0481164072068313,0.5,0.5,0.5,0.0240582036034323,0.999994897809538,0.5,0.5,0.0240582036034323,0.0240582036034323,0.954198781137079,0.0240582036034323,0.0240582036034323,0.5,0.0240582036034323,0.999999988173103,0.896961363800059,1,1,0,2A,0A,0.5,0.0481164072068313,0.912214984674461,0.0877850153255394,0,0,-0.5,-0.475941796396568,0.5,0.967340160667451,0.787961363800059,11.7685166733622,2.23459473320669,0.5,11.994657232658,0.999999999999995,0.5,0.951883592793135,0.764040755296892,13.675810037498,2.92744947135107,0.5,-48.2255067855913
149,1,42,D,3,2,a,63,1,0.91,3D,2D,1,0,1,0,D32,2.60545981387007,2.94443897916644,0.0481164072068313,0.5,0.0240582036034323,0.5,0.0240582036034323,0.999994897809538,0.5,0.5,0.0240582036034323,0.0240582036034323,0.954198781137079,0.0240582036034323,0.0240582036034323,0.5,0.0240582036034323,0.999999988173103,0.881961363800059,1,1,0,3D,2D,0.999999988173103,0.0240582036034323,0.976506995601787,0.0234930043982131,1,1,1.18268971283086e-08,1.12578293300892e-08,0.5,0.967340160667451,0.787961363800059,11.7685166733622,2.23459473320669,0.5,14.0970081944737,1,0.5,0.951883592793135,0.764040755296892,13.675810037498,2.92744947135107,0.5,-48.2255067855913
149,1,43,B,3,1,l,27,1,0.91,3B,1B,0,1,0,1,B31,0.880373058420367,3.36729582998647,0.0481164072068313,0.5,0.0240582036034323,0.5,0.0240582036034323,0.999994897809538,0.5,0.5,0.0240582036034323,0.0240582036034323,0.954198781137079,0.0240582036034323,0.0240582036034323,0.5,0.0240582036034323,0.999999999430932,1.03596136380006,0,0,1,1B,3B,0.999994897809538,0.5,0.666665532842707,0.333334467157293,1,1,5.10219046179206e-06,4.85669138788549e-06,0.5,0.967340160667451,0.787961363800059,11.7685166733622,2.23459473320669,0.5,3.75528400496794,0.999998402107152,0.5,0.951883592793135,0.764040755296892,13.675810037498,2.92744947135107,0.5,-48.2255067855913
149,1,44,C,2,3,a,63,1,0.91,2C,3C,1,0,1,0,C23,1.72111130000891,2.46809953147162,0.0481164072068313,0.5,0.0240582036034323,0.5,0.0240582036034323,0.999999754500926,0.5,0.5,0.0240582036034323,0.0240582036034323,0.954198781137079,0.0240582036034323,0.0240582036034323,0.5,0.0240582036034323,0.999999999430932,0.906961363800059,1,1,0,2C,3C,0.954198781137079,0.0240582036034323,0.975407071987517,0.0245929280124832,1,1,0.0458012188629214,0.0435974287655424,0.5,0.967340160667451,0.787961363800059,11.7685166733622,2.23459473320669,0.5,6.26700363276372,1,0.5,0.951883592793135,0.764040755296892,13.675810037498,2.92744947135107,0.5,-48.2255067855913
