ID,filename,session,trial,visStimLeft,visStimRight,correctKey,leftCorrect,rightCorrect,secondStim,mod2Type,mod2Stim,frequency,rewardAccurate,stimPairLeft,stimPairRight,pCorrectLeft,pCorrectRight,key,reactionTime,choiceLeft,choiceRight,choiceAccurate,reward,chosenPair,otherPair,triplet,surprise,0A belief,1A belief,2A belief,3A belief,0B belief,1B belief,2B belief,3B belief,0C belief,1C belief,2C belief,3C belief,0D belief,1D belief,2D belief,3D belief,beliefPairNorm,beliefOtherPairNorm,beliefPair,beliefOtherPair,lik,corrLik,rewardPE,update2,fitCBCsimpleRW_CBCdriftDiffusionLR_startBelief,fitCBCsimpleRW_CBCdriftDiffusionLR_alpha1,fitCBCsimpleRW_CBCdriftDiffusionLR_nonDecisionTime,fitCBCsimpleRW_CBCdriftDiffusionLR_weight,fitCBCsimpleRW_CBCdriftDiffusionLR_startingBoundary,fitCBCsimpleRW_CBCdriftDiffusionLR_startingPoint,fit_CBCsimpleRW_CBCdriftDiffusionLR_NLL
CBC_1045,CBC_1045_MSI_AV_v3_Vset2_Aset3_2024-03-15_15h44.13.048.csv,1,1,0,1,b,1,0,3,aud,A,63,1,0A,1A,1,0,z,2.64007390000006,0,1,0,0,1A,0A,A01,2.77258872223978,0.5,0.5,0.5,0.5,0.5,0.5,0.5,0.5,0.5,0.5,0.5,0.5,0.5,0.5,0.5,0.5,0.5,0.5,0.5,0.5,0.149067171752228,0.500371357575307,-0.5,-0.499703234506977,0.5,0.999406469013953,1.09990247480071,0.164650016035023,3.02889135656145,0.5,74.7667247510407
CBC_1045,CBC_1045_MSI_AV_v3_Vset2_Aset3_2024-03-15_15h44.13.048.csv,1,2,2,3,z,0,1,1,aud,D,63,1,2D,3D,0,1,b,3.2238899999993,1,0,0,0,2D,3D,D23,2.83321334405622,0.5,0.000296765493023377,0.5,0.5,0.5,0.5,0.5,0.5,0.5,0.5,0.5,0.5,0.5,0.5,0.5,0.5,0.5,0.5,0.5,0.5,0.109423306399881,0.50097539235293,-0.5,-0.499703234506977,0.5,0.999406469013953,1.09990247480071,0.164650016035023,3.02889135656145,0.5,74.7667247510407
CBC_1045,CBC_1045_MSI_AV_v3_Vset2_Aset3_2024-03-15_15h44.13.048.csv,1,3,0,2,z,0,1,0,aud,C,27,1,0C,2C,0,1,z,2.59249199999977,0,1,1,1,2C,0C,C02,2.89037175789616,0.5,0.000296765493023377,0.5,0.5,0.5,0.5,0.5,0.5,0.5,0.5,0.5,0.5,0.5,0.5,0.000296765493023377,0.5,0.5,0.5,0.5,0.5,0.152749207376461,0.50022731947573,0.5,0.499703234506977,0.5,0.999406469013953,1.09990247480071,0.164650016035023,3.02889135656145,0.5,74.7667247510407
CBC_1045,CBC_1045_MSI_AV_v3_Vset2_Aset3_2024-03-15_15h44.13.048.csv,1,4,0,1,b,1,0,3,aud,A,63,1,0A,1A,1,0,z,3.32260700000006,0,1,0,0,1A,0A,A01,2.2512917986065,0.5,0.000296765493023377,0.5,0.5,0.5,0.5,0.5,0.5,0.5,0.5,0.999703234506977,0.5,0.5,0.5,0.000296765493023377,0.5,0.000593178915979849,0.99940682108402,0.000296765493023377,0.5,0.0781925246281714,0.377227717749815,-0.000296765493023377,-0.000296589353507678,0.5,0.999406469013953,1.09990247480071,0.164650016035023,3.02889135656145,0.5,74.7667247510407
CBC_1045,CBC_1045_MSI_AV_v3_Vset2_Aset3_2024-03-15_15h44.13.048.csv,1,5,1,3,b,1,0,2,aud,B,27,1,1B,3B,1,0,z,2.55614569999943,0,1,0,0,3B,1B,B13,2.99573227355399,0.5,1.76139515698805e-07,0.5,0.5,0.5,0.5,0.5,0.5,0.5,0.5,0.999703234506977,0.5,0.5,0.5,0.000296765493023377,0.5,0.5,0.5,0.5,0.5,0.155373189235882,0.499382990881863,-0.5,-0.499703234506977,0.5,0.999406469013953,1.09990247480071,0.164650016035023,3.02889135656145,0.5,74.7667247510407
CBC_1045,CBC_1045_MSI_AV_v3_Vset2_Aset3_2024-03-15_15h44.13.048.csv,1,6,3,2,z,0,1,0,aud,C,63,1,3C,2C,0,1,z,2.28493170000002,0,1,1,1,2C,3C,C32,3.04452243772342,0.5,1.76139515698805e-07,0.5,0.5,0.5,0.5,0.5,0.000296765493023377,0.5,0.5,0.999703234506977,0.5,0.5,0.5,0.000296765493023377,0.5,0.666600705729375,0.333399294270625,0.999703234506977,0.5,0.193426013284329,0.543211916874553,0.000296765493023377,0.000296589353507678,0.5,0.999406469013953,1.09990247480071,0.164650016035023,3.02889135656145,0.5,74.7667247510407
CBC_1045,CBC_1045_MSI_AV_v3_Vset2_Aset3_2024-03-15_15h44.13.048.csv,1,7,3,2,b,1,0,1,aud,D,63,1,3D,2D,1,0,b,2.50389499999983,1,0,1,1,3D,2D,D32,3.09104245335832,0.5,1.76139515698805e-07,0.5,0.5,0.5,0.5,0.5,0.000296765493023377,0.5,0.5,0.999999823860484,0.5,0.5,0.5,0.000296765493023377,0.5,0.99940682108402,0.000593178915979849,0.5,0.000296765493023377,0.201183995998424,0.622251214019812,0.5,0.499703234506977,0.5,0.999406469013953,1.09990247480071,0.164650016035023,3.02889135656145,0.5,74.7667247510407
CBC_1045,CBC_1045_MSI_AV_v3_Vset2_Aset3_2024-03-15_15h44.13.048.csv,1,8,0,1,z,0,1,2,aud,B,63,1,0B,1B,0,1,z,2.58991460000016,0,1,1,1,1B,0B,B01,3.13549421592915,0.5,1.76139515698805e-07,0.5,0.5,0.5,0.5,0.5,0.000296765493023377,0.5,0.5,0.999999823860484,0.5,0.5,0.5,0.000296765493023377,0.999703234506977,0.5,0.5,0.5,0.5,0.153233334950749,0.501144449591962,0.5,0.499703234506977,0.5,0.999406469013953,1.09990247480071,0.164650016035023,3.02889135656145,0.5,74.7667247510407
CBC_1045,CBC_1045_MSI_AV_v3_Vset2_Aset3_2024-03-15_15h44.13.048.csv,1,9,2,0,z,0,1,3,aud,A,27,1,2A,0A,0,1,b,3.27266979999968,1,0,0,0,2A,0A,A20,3.17805383034795,0.5,1.76139515698805e-07,0.5,0.5,0.5,0.999703234506977,0.5,0.000296765493023377,0.5,0.5,0.999999823860484,0.5,0.5,0.5,0.000296765493023377,0.999703234506977,0.5,0.5,0.5,0.5,0.10638157032616,0.499967606645827,-0.5,-0.499703234506977,0.5,0.999406469013953,1.09990247480071,0.164650016035023,3.02889135656145,0.5,74.7667247510407
CBC_1045,CBC_1045_MSI_AV_v3_Vset2_Aset3_2024-03-15_15h44.13.048.csv,1,10,3,0,b,1,0,1,aud,D,9,1,3D,0D,1,0,z,5.50221210000018,0,1,0,0,0D,3D,D30,3.2188758248682,0.5,1.76139515698805e-07,0.000296765493023377,0.5,0.5,0.999703234506977,0.5,0.000296765493023377,0.5,0.5,0.999999823860484,0.5,0.5,0.5,0.000296765493023377,0.999703234506977,0.333399294270625,0.666600705729375,0.5,0.999703234506977,0.0292785401489741,0.457902567631013,-0.5,-0.499703234506977,0.5,0.999406469013953,1.09990247480071,0.164650016035023,3.02889135656145,0.5,74.7667247510407
CBC_1045,CBC_1045_MSI_AV_v3_Vset2_Aset3_2024-03-15_15h44.13.048.csv,1,11,2,3,b,1,0,0,aud,C,63,1,2C,3C,1,0,b,2.34689400000025,1,0,1,1,2C,3C,C23,3.25809653802148,0.5,1.76139515698805e-07,0.000296765493023377,0.5,0.5,0.999703234506977,0.5,0.000296765493023377,0.5,0.5,0.999999823860484,0.5,0.000296765493023377,0.5,0.000296765493023377,0.999703234506977,0.666666627524548,0.333333372475453,0.999999823860484,0.5,0.187737981164801,0.542811070090292,1.76139515750684e-07,1.76034971490219e-07,0.5,0.999406469013953,1.09990247480071,0.164650016035023,3.02889135656145,0.5,74.7667247510407
CBC_1045,CBC_1045_MSI_AV_v3_Vset2_Aset3_2024-03-15_15h44.13.048.csv,1,12,0,1,z,0,1,2,aud,B,63,1,0B,1B,0,1,z,2.67748630000006,0,1,1,1,1B,0B,B01,2.60268968544438,0.5,1.76139515698805e-07,0.000296765493023377,0.5,0.5,0.999703234506977,0.5,0.000296765493023377,0.5,0.5,0.999999999895456,0.5,0.000296765493023377,0.5,0.000296765493023377,0.999703234506977,0.666600705729375,0.333399294270625,0.999703234506977,0.5,0.158185045241196,0.540884786002727,0.000296765493023377,0.000296589353507678,0.5,0.999406469013953,1.09990247480071,0.164650016035023,3.02889135656145,0.5,74.7667247510407
CBC_1045,CBC_1045_MSI_AV_v3_Vset2_Aset3_2024-03-15_15h44.13.048.csv,1,13,2,3,z,0,1,1,aud,D,63,1,2D,3D,0,1,z,2.17904799999906,0,1,1,1,3D,2D,D23,2.63905732961526,0.5,1.76139515698805e-07,0.000296765493023377,0.5,0.5,0.999999823860484,0.5,0.000296765493023377,0.5,0.5,0.999999999895456,0.5,0.000296765493023377,0.5,0.000296765493023377,0.999703234506977,0.999703234506977,0.000296765493023377,0.999703234506977,0.000296765493023377,0.23526787216103,0.621976566308044,0.000296765493023377,0.000296589353507678,0.5,0.999406469013953,1.09990247480071,0.164650016035023,3.02889135656145,0.5,74.7667247510407
CBC_1045,CBC_1045_MSI_AV_v3_Vset2_Aset3_2024-03-15_15h44.13.048.csv,1,14,2,3,b,1,0,0,aud,C,63,1,2C,3C,1,0,z,4.89092959999925,0,1,0,0,3C,2C,C23,2.67414864942653,0.5,1.76139515698805e-07,0.000296765493023377,0.5,0.5,0.999999823860484,0.5,0.000296765493023377,0.5,0.5,0.999999999895456,0.5,0.000296765493023377,0.5,0.000296765493023377,0.999999823860484,0.333333333356565,0.666666666643435,0.5,0.999999999895456,0.0407670777309089,0.458452720673484,-0.5,-0.499703234506977,0.5,0.999406469013953,1.09990247480071,0.164650016035023,3.02889135656145,0.5,74.7667247510407
CBC_1045,CBC_1045_MSI_AV_v3_Vset2_Aset3_2024-03-15_15h44.13.048.csv,1,15,3,1,z,0,1,2,aud,B,27,1,3B,1B,0,1,b,2.86614379999992,1,0,0,0,3B,1B,B31,3.40119738166216,0.5,1.76139515698805e-07,0.000296765493023377,0.5,0.5,0.999999823860484,0.5,0.000296765493023377,0.5,0.5,0.999999999895456,0.000296765493023377,0.000296765493023377,0.5,0.000296765493023377,0.999999823860484,0.000296677501634966,0.999703322498365,0.000296765493023377,0.999999823860484,0.100507727005205,0.377451157064105,-0.000296765493023377,-0.000296589353507678,0.5,0.999406469013953,1.09990247480071,0.164650016035023,3.02889135656145,0.5,74.7667247510407
CBC_1045,CBC_1045_MSI_AV_v3_Vset2_Aset3_2024-03-15_15h44.13.048.csv,1,16,0,3,b,1,0,3,aud,A,9,1,0A,3A,1,0,z,5.66048179999962,0,1,0,0,3A,0A,A03,3.43398720448515,0.5,1.76139515698805e-07,0.000296765493023377,0.5,0.5,0.999999823860484,0.5,1.76139515698805e-07,0.5,0.5,0.999999999895456,0.000296765493023377,0.000296765493023377,0.5,0.000296765493023377,0.999999823860484,0.5,0.5,0.5,0.5,0.0293977199986846,0.498984804149941,-0.5,-0.499703234506977,0.5,0.999406469013953,1.09990247480071,0.164650016035023,3.02889135656145,0.5,74.7667247510407
CBC_1045,CBC_1045_MSI_AV_v3_Vset2_Aset3_2024-03-15_15h44.13.048.csv,1,17,2,3,z,0,1,1,aud,D,63,1,2D,3D,0,1,b,3.54104939999979,1,0,0,0,2D,3D,D23,2.36712361413162,0.5,1.76139515698805e-07,0.000296765493023377,0.000296765493023377,0.5,0.999999823860484,0.5,1.76139515698805e-07,0.5,0.5,0.999999999895456,0.000296765493023377,0.000296765493023377,0.5,0.000296765493023377,0.999999823860484,0.000296677501634966,0.999703322498365,0.000296765493023377,0.999999823860484,0.0693676470325273,0.377454348972286,-0.000296765493023377,-0.000296589353507678,0.5,0.999406469013953,1.09990247480071,0.164650016035023,3.02889135656145,0.5,74.7667247510407
CBC_1045,CBC_1045_MSI_AV_v3_Vset2_Aset3_2024-03-15_15h44.13.048.csv,1,18,0,2,z,0,1,0,aud,C,27,1,0C,2C,0,1,b,3.17086749999999,1,0,0,0,0C,2C,C02,2.80336038090653,0.5,1.76139515698805e-07,0.000296765493023377,0.000296765493023377,0.5,0.999999823860484,0.5,1.76139515698805e-07,0.5,0.5,0.999999999895456,0.000296765493023377,0.000296765493023377,0.5,1.76139515698805e-07,0.999999823860484,0.333333333356565,0.666666666643435,0.5,0.999999999895456,0.102883247624585,0.457668236082171,-0.5,-0.499703234506977,0.5,0.999406469013953,1.09990247480071,0.164650016035023,3.02889135656145,0.5,74.7667247510407
CBC_1045,CBC_1045_MSI_AV_v3_Vset2_Aset3_2024-03-15_15h44.13.048.csv,1,19,0,1,b,1,0,3,aud,A,63,1,0A,1A,NaN,NaN,[],NaN,NaN,NaN,NaN,NaN,,,A01,2.42774823594805,0.5,1.76139515698805e-07,0.000296765493023377,0.000296765493023377,0.5,0.999999823860484,0.5,1.76139515698805e-07,0.000296765493023377,0.5,0.999999999895456,0.000296765493023377,0.000296765493023377,0.5,1.76139515698805e-07,0.999999823860484,0,0,0,0,NaN,0,0,0,0.5,0.999406469013953,1.09990247480071,0.164650016035023,3.02889135656145,0.5,74.7667247510407
CBC_1045,CBC_1045_MSI_AV_v3_Vset2_Aset3_2024-03-15_15h44.13.048.csv,1,20,1,0,b,1,0,2,aud,B,63,0,1B,0B,0,1,b,2.77288339999996,1,0,1,0,1B,0B,B10,3.55534806148941,0.5,1.76139515698805e-07,0.000296765493023377,0.000296765493023377,0.5,0.999999823860484,0.5,1.76139515698805e-07,0.000296765493023377,0.5,0.999999999895456,0.000296765493023377,0.000296765493023377,0.5,1.76139515698805e-07,0.999999823860484,0.666666627524548,0.333333372475453,0.999999823860484,0.5,0.150769859189205,0.542101640524355,-0.999999823860484,-0.999406292978982,0.5,0.999406469013953,1.09990247480071,0.164650016035023,3.02889135656145,0.5,74.7667247510407
CBC_1045,CBC_1045_MSI_AV_v3_Vset2_Aset3_2024-03-15_15h44.13.048.csv,1,21,3,1,b,1,0,1,aud,D,27,1,3D,1D,1,0,b,2.64699759999985,1,0,1,1,3D,1D,D31,3.58351893845611,0.5,1.76139515698805e-07,0.000296765493023377,0.000296765493023377,0.5,0.000593530881502491,0.5,1.76139515698805e-07,0.000296765493023377,0.5,0.999999999895456,0.000296765493023377,0.000296765493023377,0.5,1.76139515698805e-07,0.999999823860484,0.666666627524548,0.333333372475453,0.999999823860484,0.5,0.161000602645247,0.541765023578843,1.76139515750684e-07,1.76034971490219e-07,0.5,0.999406469013953,1.09990247480071,0.164650016035023,3.02889135656145,0.5,74.7667247510407
CBC_1045,CBC_1045_MSI_AV_v3_Vset2_Aset3_2024-03-15_15h44.13.048.csv,1,22,3,2,z,0,1,0,aud,C,63,1,3C,2C,0,1,z,4.20001849999971,0,1,1,1,2C,3C,C32,2.91777073208428,0.5,1.76139515698805e-07,0.000296765493023377,0.000296765493023377,0.5,0.000593530881502491,0.5,1.76139515698805e-07,0.000296765493023377,0.5,0.999999999895456,0.000296765493023377,0.000296765493023377,0.5,1.76139515698805e-07,0.999999999895456,0.999703322550575,0.000296677449424845,0.999999999895456,0.000296765493023377,0.0794045597277957,0.621229446922481,1.0454426213613e-10,1.04482211877139e-10,0.5,0.999406469013953,1.09990247480071,0.164650016035023,3.02889135656145,0.5,74.7667247510407
CBC_1045,CBC_1045_MSI_AV_v3_Vset2_Aset3_2024-03-15_15h44.13.048.csv,1,23,0,1,z,0,1,2,aud,B,63,1,0B,1B,0,1,b,2.67112749999978,1,0,0,0,0B,1B,B01,2.53897387105828,0.5,1.76139515698805e-07,0.000296765493023377,0.000296765493023377,0.5,0.000593530881502491,0.5,1.76139515698805e-07,0.000296765493023377,0.5,0.999999999999938,0.000296765493023377,0.000296765493023377,0.5,1.76139515698805e-07,0.999999999895456,0.9988143456819,0.00118565431809982,0.5,0.000593530881502491,0.184042038634306,0.621962214777096,-0.5,-0.499703234506977,0.5,0.999406469013953,1.09990247480071,0.164650016035023,3.02889135656145,0.5,74.7667247510407
CBC_1045,CBC_1045_MSI_AV_v3_Vset2_Aset3_2024-03-15_15h44.13.048.csv,1,24,0,2,b,1,0,3,aud,A,27,1,0A,2A,1,0,b,2.5921386,1,0,1,1,0A,2A,A02,3.66356164612965,0.5,1.76139515698805e-07,0.000296765493023377,0.000296765493023377,0.000296765493023377,0.000593530881502491,0.5,1.76139515698805e-07,0.000296765493023377,0.5,0.999999999999938,0.000296765493023377,0.000296765493023377,0.5,1.76139515698805e-07,0.999999999895456,0.99940682108402,0.000593178915979849,0.5,0.000296765493023377,0.192202094533866,0.622657999195211,0.5,0.499703234506977,0.5,0.999406469013953,1.09990247480071,0.164650016035023,3.02889135656145,0.5,74.7667247510407
CBC_1045,CBC_1045_MSI_AV_v3_Vset2_Aset3_2024-03-15_15h44.13.048.csv,1,25,3,2,b,1,0,1,aud,D,63,1,3D,2D,NaN,NaN,[],NaN,NaN,NaN,NaN,NaN,,,D32,2.99573227355399,0.999703234506977,1.76139515698805e-07,0.000296765493023377,0.000296765493023377,0.000296765493023377,0.000593530881502491,0.5,1.76139515698805e-07,0.000296765493023377,0.5,0.999999999999938,0.000296765493023377,0.000296765493023377,0.5,1.76139515698805e-07,0.999999999895456,0,0,0,0,NaN,0,0,0,0.5,0.999406469013953,1.09990247480071,0.164650016035023,3.02889135656145,0.5,74.7667247510407
CBC_1045,CBC_1045_MSI_AV_v3_Vset2_Aset3_2024-03-15_15h44.13.048.csv,1,26,0,2,z,0,1,0,aud,C,27,1,0C,2C,0,1,z,2.33233800000016,0,1,1,1,2C,0C,C02,2.6149597780362,0.999703234506977,1.76139515698805e-07,0.000296765493023377,0.000296765493023377,0.000296765493023377,0.000593530881502491,0.5,1.76139515698805e-07,0.000296765493023377,0.5,0.999999999999938,0.000296765493023377,0.000296765493023377,0.5,1.76139515698805e-07,0.999999999895456,0.999703322550606,0.000296677449393857,0.999999999999938,0.000296765493023377,0.219000656423625,0.621231825179643,6.20614670765463e-14,6.20246316727968e-14,0.5,0.999406469013953,1.09990247480071,0.164650016035023,3.02889135656145,0.5,74.7667247510407
CBC_1045,CBC_1045_MSI_AV_v3_Vset2_Aset3_2024-03-15_15h44.13.048.csv,1,27,0,1,z,0,1,2,aud,B,63,1,0B,1B,0,1,b,2.93442179999965,1,0,0,0,0B,1B,B01,2.35137525716348,0.999703234506977,1.76139515698805e-07,0.000296765493023377,0.000296765493023377,0.000296765493023377,0.000593530881502491,0.5,1.76139515698805e-07,0.000296765493023377,0.5,1,0.000296765493023377,0.000296765493023377,0.5,1.76139515698805e-07,0.999999999895456,0.333333372475453,0.666666627524547,0.000296765493023377,0.000593530881502491,0.117137577998489,0.459024261049538,-0.000296765493023377,-0.000296589353507678,0.5,0.999406469013953,1.09990247480071,0.164650016035023,3.02889135656145,0.5,74.7667247510407
CBC_1045,CBC_1045_MSI_AV_v3_Vset2_Aset3_2024-03-15_15h44.13.048.csv,1,28,1,0,z,0,1,3,aud,A,63,1,1A,0A,0,1,z,2.70640159999948,0,1,1,1,0A,1A,A10,3.76120011569356,0.999703234506977,1.76139515698805e-07,0.000296765493023377,0.000296765493023377,1.76139515698805e-07,0.000593530881502491,0.5,1.76139515698805e-07,0.000296765493023377,0.5,1,0.000296765493023377,0.000296765493023377,0.5,1.76139515698805e-07,0.999999999895456,0.999999823808228,1.76191772302646e-07,0.999703234506977,1.76139515698805e-07,0.18056816792498,0.621907529181046,0.000296765493023377,0.000296589353507678,0.5,0.999406469013953,1.09990247480071,0.164650016035023,3.02889135656145,0.5,74.7667247510407
CBC_1045,CBC_1045_MSI_AV_v3_Vset2_Aset3_2024-03-15_15h44.13.048.csv,1,29,2,3,b,1,0,0,aud,C,63,1,2C,3C,1,0,b,2.39717740000015,1,0,1,1,2C,3C,C23,2.68557734525015,0.999999823860484,1.76139515698805e-07,0.000296765493023377,0.000296765493023377,1.76139515698805e-07,0.000593530881502491,0.5,1.76139515698805e-07,0.000296765493023377,0.5,1,0.000296765493023377,0.000296765493023377,0.5,1.76139515698805e-07,0.999999999895456,0.999703322550606,0.000296677449393838,1,0.000296765493023377,0.212663191653513,0.622707290326304,0,0,0.5,0.999406469013953,1.09990247480071,0.164650016035023,3.02889135656145,0.5,74.7667247510407
CBC_1045,CBC_1045_MSI_AV_v3_Vset2_Aset3_2024-03-15_15h44.13.048.csv,1,30,1,3,z,0,1,1,aud,D,27,1,1D,3D,0,1,z,3.01540690000002,0,1,1,1,3D,1D,D13,3.80666248977032,0.999999823860484,1.76139515698805e-07,0.000296765493023377,0.000296765493023377,1.76139515698805e-07,0.000593530881502491,0.5,1.76139515698805e-07,0.000296765493023377,0.5,1,0.000296765493023377,0.000296765493023377,0.5,1.76139515698805e-07,0.999999999895456,0.666666666643435,0.333333333356565,0.999999999895456,0.5,0.132216869157639,0.541068871377906,1.0454426213613e-10,1.04482211877139e-10,0.5,0.999406469013953,1.09990247480071,0.164650016035023,3.02889135656145,0.5,74.7667247510407
CBC_1045,CBC_1045_MSI_AV_v3_Vset2_Aset3_2024-03-15_15h44.13.048.csv,1,31,0,1,b,1,0,3,aud,A,63,1,0A,1A,NaN,NaN,[],NaN,NaN,NaN,NaN,NaN,,,A01,2.4423470353692,0.999999823860484,1.76139515698805e-07,0.000296765493023377,0.000296765493023377,1.76139515698805e-07,0.000593530881502491,0.5,1.76139515698805e-07,0.000296765493023377,0.5,1,0.000296765493023377,0.000296765493023377,0.5,1.76139515698805e-07,0.999999999999938,0,0,0,0,NaN,0,0,0,0.5,0.999406469013953,1.09990247480071,0.164650016035023,3.02889135656145,0.5,74.7667247510407
CBC_1045,CBC_1045_MSI_AV_v3_Vset2_Aset3_2024-03-15_15h44.13.048.csv,1,32,2,3,z,0,1,1,aud,D,63,1,2D,3D,0,1,b,2.41837360000045,1,0,0,0,2D,3D,D23,2.46385324059017,0.999999823860484,1.76139515698805e-07,0.000296765493023377,0.000296765493023377,1.76139515698805e-07,0.000593530881502491,0.5,1.76139515698805e-07,0.000296765493023377,0.5,1,0.000296765493023377,0.000296765493023377,0.5,1.76139515698805e-07,0.999999999999938,1.76139484673692e-07,0.999999823860515,1.76139515698805e-07,0.999999999999938,0.127521170762754,0.377426048155191,-1.76139515698805e-07,-1.7603497143837e-07,0.5,0.999406469013953,1.09990247480071,0.164650016035023,3.02889135656145,0.5,74.7667247510407
CBC_1045,CBC_1045_MSI_AV_v3_Vset2_Aset3_2024-03-15_15h44.13.048.csv,1,33,1,2,b,1,0,2,aud,B,9,1,1B,2B,1,0,z,2.80593829999907,0,1,0,0,2B,1B,B12,3.87120101090789,0.999999823860484,1.76139515698805e-07,0.000296765493023377,0.000296765493023377,1.76139515698805e-07,0.000593530881502491,0.5,1.76139515698805e-07,0.000296765493023377,0.5,1,0.000296765493023377,0.000296765493023377,0.5,1.04544260434521e-10,0.999999999999938,0.9988143456819,0.00118565431809982,0.5,0.000593530881502491,0.171185280809761,0.622184745730055,-0.5,-0.499703234506977,0.5,0.999406469013953,1.09990247480071,0.164650016035023,3.02889135656145,0.5,74.7667247510407
CBC_1045,CBC_1045_MSI_AV_v3_Vset2_Aset3_2024-03-15_15h44.13.048.csv,1,34,0,1,b,1,0,3,aud,A,63,1,0A,1A,1,0,z,3.80010690000017,0,1,0,0,1A,0A,A01,2.28238238567653,0.999999823860484,1.76139515698805e-07,0.000296765493023377,0.000296765493023377,1.76139515698805e-07,0.000593530881502491,0.000296765493023377,1.76139515698805e-07,0.000296765493023377,0.5,1,0.000296765493023377,0.000296765493023377,0.5,1.04544260434521e-10,0.999999999999938,1.76139515698805e-07,0.999999823860484,1.76139515698805e-07,0.999999823860484,0.0600348636950569,0.376849282393002,-1.76139515698805e-07,-1.7603497143837e-07,0.5,0.999406469013953,1.09990247480071,0.164650016035023,3.02889135656145,0.5,74.7667247510407
CBC_1045,CBC_1045_MSI_AV_v3_Vset2_Aset3_2024-03-15_15h44.13.048.csv,1,35,1,2,z,0,1,0,aud,C,9,1,1C,2C,NaN,NaN,[],NaN,NaN,NaN,NaN,NaN,,,C12,3.91202300542815,0.999999823860484,1.04544260434521e-10,0.000296765493023377,0.000296765493023377,1.76139515698805e-07,0.000593530881502491,0.000296765493023377,1.76139515698805e-07,0.000296765493023377,0.5,1,0.000296765493023377,0.000296765493023377,0.5,1.04544260434521e-10,0.999999999999938,0,0,0,0,NaN,0,0,0,0.5,0.999406469013953,1.09990247480071,0.164650016035023,3.02889135656145,0.5,74.7667247510407
CBC_1045,CBC_1045_MSI_AV_v3_Vset2_Aset3_2024-03-15_15h44.13.048.csv,1,36,0,1,z,0,1,2,aud,B,63,1,0B,1B,0,1,b,2.81625910000002,1,0,0,0,0B,1B,B01,2.32238772029023,0.999999823860484,1.04544260434521e-10,0.000296765493023377,0.000296765493023377,1.76139515698805e-07,0.000593530881502491,0.000296765493023377,1.76139515698805e-07,0.000296765493023377,0.5,1,0.000296765493023377,0.000296765493023377,0.5,1.04544260434521e-10,0.999999999999938,0.000296677501634949,0.999703322498365,1.76139515698805e-07,0.000593530881502491,0.103158624329317,0.377007801260504,-1.76139515698805e-07,-1.7603497143837e-07,0.5,0.999406469013953,1.09990247480071,0.164650016035023,3.02889135656145,0.5,74.7667247510407
CBC_1045,CBC_1045_MSI_AV_v3_Vset2_Aset3_2024-03-15_15h44.13.048.csv,1,37,1,0,z,0,1,3,aud,A,63,0,1A,0A,1,0,z,2.58264390000022,0,1,1,0,0A,1A,A10,3.25809653802148,0.999999823860484,1.04544260434521e-10,0.000296765493023377,0.000296765493023377,1.04544260434521e-10,0.000593530881502491,0.000296765493023377,1.76139515698805e-07,0.000296765493023377,0.5,1,0.000296765493023377,0.000296765493023377,0.5,1.04544260434521e-10,0.999999999999938,0.999999999895456,1.0454427883797e-10,0.999999823860484,1.04544260434521e-10,0.193162400791701,0.622630736794436,-0.999999823860484,-0.999406292978982,0.5,0.999406469013953,1.09990247480071,0.164650016035023,3.02889135656145,0.5,74.7667247510407
CBC_1045,CBC_1045_MSI_AV_v3_Vset2_Aset3_2024-03-15_15h44.13.048.csv,1,38,1,0,b,1,0,2,aud,B,63,1,1B,0B,NaN,NaN,[],NaN,NaN,NaN,NaN,NaN,,,B10,3.27714473299218,0.000593530881502491,1.04544260434521e-10,0.000296765493023377,0.000296765493023377,1.04544260434521e-10,0.000593530881502491,0.000296765493023377,1.76139515698805e-07,0.000296765493023377,0.5,1,0.000296765493023377,0.000296765493023377,0.5,1.04544260434521e-10,0.999999999999938,0,0,0,0,NaN,0,0,0,0.5,0.999406469013953,1.09990247480071,0.164650016035023,3.02889135656145,0.5,74.7667247510407
CBC_1045,CBC_1045_MSI_AV_v3_Vset2_Aset3_2024-03-15_15h44.13.048.csv,1,39,3,1,b,1,0,1,aud,D,27,1,3D,1D,1,0,z,3.08260359999986,0,1,0,0,1D,3D,D31,3.29583686600433,0.000593530881502491,1.04544260434521e-10,0.000296765493023377,0.000296765493023377,1.04544260434521e-10,0.000593530881502491,0.000296765493023377,1.76139515698805e-07,0.000296765493023377,0.5,1,0.000296765493023377,0.000296765493023377,0.5,1.04544260434521e-10,0.999999999999938,0.333333333333347,0.666666666666653,0.5,0.999999999999938,0.107799480257564,0.45732107481818,-0.5,-0.499703234506977,0.5,0.999406469013953,1.09990247480071,0.164650016035023,3.02889135656145,0.5,74.7667247510407
CBC_1045,CBC_1045_MSI_AV_v3_Vset2_Aset3_2024-03-15_15h44.13.048.csv,1,40,2,3,b,1,0,0,aud,C,63,1,2C,3C,1,0,b,2.95446790000005,1,0,1,1,2C,3C,C23,2.62103882411258,0.000593530881502491,1.04544260434521e-10,0.000296765493023377,0.000296765493023377,1.04544260434521e-10,0.000593530881502491,0.000296765493023377,1.76139515698805e-07,0.000296765493023377,0.5,1,0.000296765493023377,0.000296765493023377,0.000296765493023377,1.04544260434521e-10,0.999999999999938,0.999703322550606,0.000296677449393838,1,0.000296765493023377,0.15764982550228,0.621371648507172,0,0,0.5,0.999406469013953,1.09990247480071,0.164650016035023,3.02889135656145,0.5,74.7667247510407
CBC_1045,CBC_1045_MSI_AV_v3_Vset2_Aset3_2024-03-15_15h44.13.048.csv,1,41,2,0,z,0,1,3,aud,A,27,1,2A,0A,0,1,b,3.26872220000041,1,0,0,0,2A,0A,A20,3.3322045101752,0.000593530881502491,1.04544260434521e-10,0.000296765493023377,0.000296765493023377,1.04544260434521e-10,0.000593530881502491,0.000296765493023377,1.76139515698805e-07,0.000296765493023377,0.5,1,0.000296765493023377,0.000296765493023377,0.000296765493023377,1.04544260434521e-10,0.999999999999938,0.333333372475453,0.666666627524547,0.000296765493023377,0.000593530881502491,0.0973790019826079,0.456597135894647,-0.000296765493023377,-0.000296589353507678,0.5,0.999406469013953,1.09990247480071,0.164650016035023,3.02889135656145,0.5,74.7667247510407
CBC_1045,CBC_1045_MSI_AV_v3_Vset2_Aset3_2024-03-15_15h44.13.048.csv,1,42,3,2,b,1,0,1,aud,D,63,1,3D,2D,1,0,z,3.42115269999977,0,1,0,0,2D,3D,D32,2.94443897916644,0.000593530881502491,1.04544260434521e-10,1.76139515698805e-07,0.000296765493023377,1.04544260434521e-10,0.000593530881502491,0.000296765493023377,1.76139515698805e-07,0.000296765493023377,0.5,1,0.000296765493023377,0.000296765493023377,0.000296765493023377,1.04544260434521e-10,0.999999999999938,1.04544260423598e-10,0.999999999895456,1.04544260434521e-10,0.999999999999938,0.0739027829487766,0.376427101196585,-1.04544260434521e-10,-1.04482210176539e-10,0.5,0.999406469013953,1.09990247480071,0.164650016035023,3.02889135656145,0.5,74.7667247510407
CBC_1045,CBC_1045_MSI_AV_v3_Vset2_Aset3_2024-03-15_15h44.13.048.csv,1,43,3,1,z,0,1,2,aud,B,27,1,3B,1B,NaN,NaN,[],NaN,NaN,NaN,NaN,NaN,,,B31,3.36729582998647,0.000593530881502491,1.04544260434521e-10,1.76139515698805e-07,0.000296765493023377,1.04544260434521e-10,0.000593530881502491,0.000296765493023377,1.76139515698805e-07,0.000296765493023377,0.5,1,0.000296765493023377,0.000296765493023377,0.000296765493023377,6.20502579812237e-14,0.999999999999938,0,0,0,0,NaN,0,0,0,0.5,0.999406469013953,1.09990247480071,0.164650016035023,3.02889135656145,0.5,74.7667247510407
CBC_1045,CBC_1045_MSI_AV_v3_Vset2_Aset3_2024-03-15_15h44.13.048.csv,1,44,2,3,b,1,0,0,aud,C,63,1,2C,3C,NaN,NaN,[],NaN,NaN,NaN,NaN,NaN,,,C23,2.46809953147162,0.000593530881502491,1.04544260434521e-10,1.76139515698805e-07,0.000296765493023377,1.04544260434521e-10,0.000593530881502491,0.000296765493023377,1.76139515698805e-07,0.000296765493023377,0.5,1,0.000296765493023377,0.000296765493023377,0.000296765493023377,6.20502579812237e-14,0.999999999999938,0,0,0,0,NaN,0,0,0,0.5,0.999406469013953,1.09990247480071,0.164650016035023,3.02889135656145,0.5,74.7667247510407
CBC_1045,CBC_1045_MSI_TV_v3_Vset1_Tset1_2024-03-15_16h44.49.446.csv,2,1,1,0,b,1,0,2,tac,B,63,1,1B,0B,1,0,b,2.85525999999845,1,0,1,1,1B,0B,B10,2.77258872223978,0.5,0.5,0.5,0.5,0.5,0.5,0.5,0.5,0.5,0.5,0.5,0.5,0.5,0.5,0.5,0.5,0.5,0.5,0.5,0.5,0.133268966929865,0.500386698198947,0.5,0.0129150601063192,0.5,0.0258301202126384,1.09829293022709,4.51437224213404,2.9266685321874,0.5,74.9350893187812
CBC_1045,CBC_1045_MSI_TV_v3_Vset1_Tset1_2024-03-15_16h44.49.446.csv,2,2,0,1,b,1,0,3,tac,A,63,1,0A,1A,1,0,z,2.59665459999815,0,1,0,0,1A,0A,A01,2.83321334405622,0.5,0.5,0.5,0.5,0.5,0.512915060106319,0.5,0.5,0.5,0.5,0.5,0.5,0.5,0.5,0.5,0.5,0.5,0.5,0.5,0.5,0.154436136352423,0.50064534594026,-0.5,-0.0129150601063192,0.5,0.0258301202126384,1.09829293022709,4.51437224213404,2.9266685321874,0.5,74.9350893187812
CBC_1045,CBC_1045_MSI_TV_v3_Vset1_Tset1_2024-03-15_16h44.49.446.csv,2,3,1,2,z,0,1,0,tac,C,9,1,1C,2C,0,1,z,3.12576079999963,0,1,1,1,2C,1C,C12,2.89037175789616,0.5,0.487084939893681,0.5,0.5,0.5,0.512915060106319,0.5,0.5,0.5,0.5,0.5,0.5,0.5,0.5,0.5,0.5,0.5,0.5,0.5,0.5,0.113952729089008,0.49969074042665,0.5,0.0129150601063192,0.5,0.0258301202126384,1.09829293022709,4.51437224213404,2.9266685321874,0.5,74.9350893187812
CBC_1045,CBC_1045_MSI_TV_v3_Vset1_Tset1_2024-03-15_16h44.49.446.csv,2,4,1,0,z,0,1,3,tac,A,63,1,1A,0A,0,1,z,2.48667170000044,0,1,1,1,0A,1A,A10,2.94443897916644,0.5,0.487084939893681,0.5,0.5,0.5,0.512915060106319,0.5,0.5,0.5,0.5,0.512915060106319,0.5,0.5,0.5,0.5,0.5,0.50654202064298,0.49345797935702,0.5,0.487084939893681,0.178357442181191,0.543064531126333,0.5,0.0129150601063192,0.5,0.0258301202126384,1.09829293022709,4.51437224213404,2.9266685321874,0.5,74.9350893187812
CBC_1045,CBC_1045_MSI_TV_v3_Vset1_Tset1_2024-03-15_16h44.49.446.csv,2,5,3,1,b,1,0,1,tac,D,27,1,3D,1D,1,0,b,2.54622550000022,1,0,1,1,3D,1D,D31,2.99573227355399,0.512915060106319,0.487084939893681,0.5,0.5,0.5,0.512915060106319,0.5,0.5,0.5,0.5,0.512915060106319,0.5,0.5,0.5,0.5,0.5,0.5,0.5,0.5,0.5,0.158744117538702,0.500269141691082,0.5,0.0129150601063192,0.5,0.0258301202126384,1.09829293022709,4.51437224213404,2.9266685321874,0.5,74.9350893187812
CBC_1045,CBC_1045_MSI_TV_v3_Vset1_Tset1_2024-03-15_16h44.49.446.csv,2,6,0,1,z,0,1,2,tac,B,63,1,0B,1B,0,1,b,2.66898739999851,1,0,0,0,0B,1B,B01,3.04452243772342,0.512915060106319,0.487084939893681,0.5,0.5,0.5,0.512915060106319,0.5,0.5,0.5,0.5,0.512915060106319,0.5,0.5,0.5,0.5,0.512915060106319,0.493624805961043,0.506375194038957,0.5,0.512915060106319,0.13593327311225,0.458604059394235,-0.5,-0.0129150601063192,0.5,0.0258301202126384,1.09829293022709,4.51437224213404,2.9266685321874,0.5,74.9350893187812
CBC_1045,CBC_1045_MSI_TV_v3_Vset1_Tset1_2024-03-15_16h44.49.446.csv,2,7,2,3,b,1,0,0,tac,C,63,1,2C,3C,NaN,NaN,None,NaN,NaN,NaN,NaN,NaN,,,C23,3.09104245335832,0.512915060106319,0.487084939893681,0.5,0.5,0.487084939893681,0.512915060106319,0.5,0.5,0.5,0.5,0.512915060106319,0.5,0.5,0.5,0.5,0.512915060106319,0,0,0,0,NaN,0,0,0,0.5,0.0258301202126384,1.09829293022709,4.51437224213404,2.9266685321874,0.5,74.9350893187812
CBC_1045,CBC_1045_MSI_TV_v3_Vset1_Tset1_2024-03-15_16h44.49.446.csv,2,8,2,0,z,0,1,3,tac,A,27,1,2A,0A,0,1,b,2.31821610000043,1,0,0,0,2A,0A,A20,3.13549421592915,0.512915060106319,0.487084939893681,0.5,0.5,0.487084939893681,0.512915060106319,0.5,0.5,0.5,0.5,0.512915060106319,0.5,0.5,0.5,0.5,0.512915060106319,0.493624805961043,0.506375194038957,0.5,0.512915060106319,0.164541602076522,0.457226814676955,-0.5,-0.0129150601063192,0.5,0.0258301202126384,1.09829293022709,4.51437224213404,2.9266685321874,0.5,74.9350893187812
CBC_1045,CBC_1045_MSI_TV_v3_Vset1_Tset1_2024-03-15_16h44.49.446.csv,2,9,3,2,b,1,0,1,tac,D,63,1,3D,2D,1,0,z,2.84738829999878,0,1,0,0,2D,3D,D32,3.17805383034795,0.512915060106319,0.487084939893681,0.487084939893681,0.5,0.487084939893681,0.512915060106319,0.5,0.5,0.5,0.5,0.512915060106319,0.5,0.5,0.5,0.5,0.512915060106319,0.493624805961043,0.506375194038957,0.5,0.512915060106319,0.122190071279373,0.456410884387927,-0.5,-0.0129150601063192,0.5,0.0258301202126384,1.09829293022709,4.51437224213404,2.9266685321874,0.5,74.9350893187812
CBC_1045,CBC_1045_MSI_TV_v3_Vset1_Tset1_2024-03-15_16h44.49.446.csv,2,10,3,1,z,0,1,2,tac,B,27,1,3B,1B,0,1,b,3.33767529999932,1,0,0,0,3B,1B,B31,3.2188758248682,0.512915060106319,0.487084939893681,0.487084939893681,0.5,0.487084939893681,0.512915060106319,0.5,0.5,0.5,0.5,0.512915060106319,0.5,0.5,0.5,0.487084939893681,0.512915060106319,0.493624805961043,0.506375194038957,0.5,0.512915060106319,0.0925022037991886,0.45830253941096,-0.5,-0.0129150601063192,0.5,0.0258301202126384,1.09829293022709,4.51437224213404,2.9266685321874,0.5,74.9350893187812
CBC_1045,CBC_1045_MSI_TV_v3_Vset1_Tset1_2024-03-15_16h44.49.446.csv,2,11,3,2,z,0,1,0,tac,C,63,1,3C,2C,0,1,z,3.53556389999903,0,1,1,1,2C,3C,C32,3.25809653802148,0.512915060106319,0.487084939893681,0.487084939893681,0.5,0.487084939893681,0.512915060106319,0.5,0.487084939893681,0.5,0.5,0.512915060106319,0.5,0.5,0.5,0.487084939893681,0.512915060106319,0.506375194038957,0.493624805961043,0.512915060106319,0.5,0.0976327956428639,0.542288692967499,0.487084939893681,0.0125814625512195,0.5,0.0258301202126384,1.09829293022709,4.51437224213404,2.9266685321874,0.5,74.9350893187812
CBC_1045,CBC_1045_MSI_TV_v3_Vset1_Tset1_2024-03-15_16h44.49.446.csv,2,12,1,3,b,1,0,2,tac,B,27,1,1B,3B,1,0,b,2.54121089999899,1,0,1,1,1B,3B,B13,3.29583686600433,0.512915060106319,0.487084939893681,0.487084939893681,0.5,0.487084939893681,0.512915060106319,0.5,0.487084939893681,0.5,0.5,0.525496522657539,0.5,0.5,0.5,0.487084939893681,0.512915060106319,0.512915060106319,0.487084939893681,0.512915060106319,0.487084939893681,0.186829198388629,0.584396996848928,0.487084939893681,0.0125814625512195,0.5,0.0258301202126384,1.09829293022709,4.51437224213404,2.9266685321874,0.5,74.9350893187812
CBC_1045,CBC_1045_MSI_TV_v3_Vset1_Tset1_2024-03-15_16h44.49.446.csv,2,13,3,2,z,0,1,0,tac,C,63,1,3C,2C,0,1,z,2.4461095000006,0,1,1,1,2C,3C,C32,2.63905732961526,0.512915060106319,0.487084939893681,0.487084939893681,0.5,0.487084939893681,0.525496522657539,0.5,0.487084939893681,0.5,0.5,0.525496522657539,0.5,0.5,0.5,0.487084939893681,0.512915060106319,0.512431306247371,0.48756869375263,0.525496522657539,0.5,0.195853453338945,0.581071709281671,0.474503477342461,0.0122564818610707,0.5,0.0258301202126384,1.09829293022709,4.51437224213404,2.9266685321874,0.5,74.9350893187812
CBC_1045,CBC_1045_MSI_TV_v3_Vset1_Tset1_2024-03-15_16h44.49.446.csv,2,14,3,2,b,1,0,1,tac,D,63,1,3D,2D,1,0,b,3.05879079999977,1,0,1,1,3D,2D,D32,2.67414864942653,0.512915060106319,0.487084939893681,0.487084939893681,0.5,0.487084939893681,0.525496522657539,0.5,0.487084939893681,0.5,0.5,0.53775300451861,0.5,0.5,0.5,0.487084939893681,0.512915060106319,0.512915060106319,0.487084939893681,0.512915060106319,0.487084939893681,0.138737265300639,0.584720330308446,0.487084939893681,0.0125814625512195,0.5,0.0258301202126384,1.09829293022709,4.51437224213404,2.9266685321874,0.5,74.9350893187812
CBC_1045,CBC_1045_MSI_TV_v3_Vset1_Tset1_2024-03-15_16h44.49.446.csv,2,15,0,3,b,1,0,3,tac,A,9,1,0A,3A,1,0,z,3.03317789999892,0,1,0,0,3A,0A,A03,3.40119738166216,0.512915060106319,0.487084939893681,0.487084939893681,0.5,0.487084939893681,0.525496522657539,0.5,0.487084939893681,0.5,0.5,0.53775300451861,0.5,0.5,0.5,0.487084939893681,0.525496522657539,0.493624805961043,0.506375194038957,0.5,0.512915060106319,0.10969207804105,0.455917016601874,-0.5,-0.0129150601063192,0.5,0.0258301202126384,1.09829293022709,4.51437224213404,2.9266685321874,0.5,74.9350893187812
CBC_1045,CBC_1045_MSI_TV_v3_Vset1_Tset1_2024-03-15_16h44.49.446.csv,2,16,0,1,z,0,1,2,tac,B,63,0,0B,1B,1,0,z,2.86918089999926,0,1,1,0,1B,0B,B01,2.7408400239252,0.512915060106319,0.487084939893681,0.487084939893681,0.487084939893681,0.487084939893681,0.525496522657539,0.5,0.487084939893681,0.5,0.5,0.53775300451861,0.5,0.5,0.5,0.487084939893681,0.525496522657539,0.518967156808836,0.481032843191165,0.525496522657539,0.487084939893681,0.165321313481431,0.622519700085601,-0.525496522657539,-0.0135736383515677,0.5,0.0258301202126384,1.09829293022709,4.51437224213404,2.9266685321874,0.5,74.9350893187812
CBC_1045,CBC_1045_MSI_TV_v3_Vset1_Tset1_2024-03-15_16h44.49.446.csv,2,17,2,3,z,0,1,1,tac,D,63,1,2D,3D,0,1,z,4.04598889999943,0,1,1,1,3D,2D,D23,3.46573590279973,0.512915060106319,0.487084939893681,0.487084939893681,0.487084939893681,0.487084939893681,0.511922884305971,0.5,0.487084939893681,0.5,0.5,0.53775300451861,0.5,0.5,0.5,0.487084939893681,0.525496522657539,0.518967156808836,0.481032843191165,0.525496522657539,0.487084939893681,0.0824601915790754,0.621633462771453,0.474503477342461,0.0122564818610707,0.5,0.0258301202126384,1.09829293022709,4.51437224213404,2.9266685321874,0.5,74.9350893187812
CBC_1045,CBC_1045_MSI_TV_v3_Vset1_Tset1_2024-03-15_16h44.49.446.csv,2,18,0,2,z,0,1,0,tac,C,27,1,0C,2C,0,1,z,2.77443319999838,0,1,1,1,2C,0C,C02,3.49650756146648,0.512915060106319,0.487084939893681,0.487084939893681,0.487084939893681,0.487084939893681,0.511922884305971,0.5,0.487084939893681,0.5,0.5,0.53775300451861,0.5,0.5,0.5,0.487084939893681,0.53775300451861,0.518189783288617,0.481810216711383,0.53775300451861,0.5,0.173053099752445,0.616812576134519,0.46224699548139,0.0119398954612152,0.5,0.0258301202126384,1.09829293022709,4.51437224213404,2.9266685321874,0.5,74.9350893187812
CBC_1045,CBC_1045_MSI_TV_v3_Vset1_Tset1_2024-03-15_16h44.49.446.csv,2,19,0,1,b,1,0,3,tac,A,63,1,0A,1A,1,0,z,2.40808599999946,0,1,0,0,1A,0A,A01,2.83321334405622,0.512915060106319,0.487084939893681,0.487084939893681,0.487084939893681,0.487084939893681,0.511922884305971,0.5,0.487084939893681,0.5,0.5,0.549692899979825,0.5,0.5,0.5,0.487084939893681,0.53775300451861,0.487084939893681,0.512915060106319,0.487084939893681,0.512915060106319,0.142871091995564,0.414856713651776,-0.487084939893681,-0.0125814625512195,0.5,0.0258301202126384,1.09829293022709,4.51437224213404,2.9266685321874,0.5,74.9350893187812
CBC_1045,CBC_1045_MSI_TV_v3_Vset1_Tset1_2024-03-15_16h44.49.446.csv,2,20,1,0,b,1,0,2,tac,B,63,1,1B,0B,1,0,z,2.72835830000076,0,1,0,0,0B,1B,B10,2.86220088092947,0.512915060106319,0.474503477342461,0.487084939893681,0.487084939893681,0.487084939893681,0.511922884305971,0.5,0.487084939893681,0.5,0.5,0.549692899979825,0.5,0.5,0.5,0.487084939893681,0.53775300451861,0.48756869375263,0.512431306247371,0.487084939893681,0.511922884305971,0.119866194569251,0.417271465200915,-0.487084939893681,-0.0125814625512195,0.5,0.0258301202126384,1.09829293022709,4.51437224213404,2.9266685321874,0.5,74.9350893187812
CBC_1045,CBC_1045_MSI_TV_v3_Vset1_Tset1_2024-03-15_16h44.49.446.csv,2,21,1,3,z,0,1,1,tac,D,27,1,1D,3D,0,1,b,2.95399359999828,1,0,0,0,1D,3D,D13,3.58351893845611,0.512915060106319,0.474503477342461,0.487084939893681,0.487084939893681,0.474503477342461,0.511922884305971,0.5,0.487084939893681,0.5,0.5,0.549692899979825,0.5,0.5,0.5,0.487084939893681,0.53775300451861,0.481810216711383,0.518189783288617,0.5,0.53775300451861,0.0966021776037759,0.382452767120789,-0.5,-0.0129150601063192,0.5,0.0258301202126384,1.09829293022709,4.51437224213404,2.9266685321874,0.5,74.9350893187812
CBC_1045,CBC_1045_MSI_TV_v3_Vset1_Tset1_2024-03-15_16h44.49.446.csv,2,22,3,2,z,0,1,0,tac,C,63,1,3C,2C,0,1,z,2.4890237999989,0,1,1,1,2C,3C,C32,2.51230562397611,0.512915060106319,0.474503477342461,0.487084939893681,0.487084939893681,0.474503477342461,0.511922884305971,0.5,0.487084939893681,0.5,0.5,0.549692899979825,0.5,0.5,0.487084939893681,0.487084939893681,0.53775300451861,0.523670208677595,0.476329791322405,0.549692899979825,0.5,0.216596948632199,0.650607375380368,0.450307100020175,0.0116314865261257,0.5,0.0258301202126384,1.09829293022709,4.51437224213404,2.9266685321874,0.5,74.9350893187812
CBC_1045,CBC_1045_MSI_TV_v3_Vset1_Tset1_2024-03-15_16h44.49.446.csv,2,23,0,1,b,1,0,3,tac,A,63,1,0A,1A,1,0,b,3.21675699999832,1,0,1,1,0A,1A,A01,2.53897387105828,0.512915060106319,0.474503477342461,0.487084939893681,0.487084939893681,0.474503477342461,0.511922884305971,0.5,0.487084939893681,0.5,0.5,0.56132438650595,0.5,0.5,0.487084939893681,0.487084939893681,0.53775300451861,0.519450507209994,0.480549492790006,0.512915060106319,0.474503477342461,0.13528708463453,0.625118675860592,0.487084939893681,0.0125814625512195,0.5,0.0258301202126384,1.09829293022709,4.51437224213404,2.9266685321874,0.5,74.9350893187812
CBC_1045,CBC_1045_MSI_TV_v3_Vset1_Tset1_2024-03-15_16h44.49.446.csv,2,24,2,3,z,0,1,1,tac,D,63,1,2D,3D,NaN,NaN,None,NaN,NaN,NaN,NaN,NaN,,,D23,2.9704144655697,0.525496522657539,0.474503477342461,0.487084939893681,0.487084939893681,0.474503477342461,0.511922884305971,0.5,0.487084939893681,0.5,0.5,0.56132438650595,0.5,0.5,0.487084939893681,0.487084939893681,0.53775300451861,0,0,0,0,NaN,0,0,0,0.5,0.0258301202126384,1.09829293022709,4.51437224213404,2.9266685321874,0.5,74.9350893187812
CBC_1045,CBC_1045_MSI_TV_v3_Vset1_Tset1_2024-03-15_16h44.49.446.csv,2,25,2,0,b,1,0,0,tac,C,27,1,2C,0C,1,0,b,2.42046579999987,1,0,1,1,2C,0C,C20,3.68887945411394,0.525496522657539,0.474503477342461,0.487084939893681,0.487084939893681,0.474503477342461,0.511922884305971,0.5,0.487084939893681,0.5,0.5,0.56132438650595,0.5,0.5,0.487084939893681,0.487084939893681,0.53775300451861,0.52889050100311,0.47110949899689,0.56132438650595,0.5,0.238853701427951,0.683745518897907,0.43867561349405,0.0113310438309042,0.5,0.0258301202126384,1.09829293022709,4.51437224213404,2.9266685321874,0.5,74.9350893187812
CBC_1045,CBC_1045_MSI_TV_v3_Vset1_Tset1_2024-03-15_16h44.49.446.csv,2,26,0,1,b,1,0,3,tac,A,63,1,0A,1A,1,0,b,2.78102860000035,1,0,1,1,0A,1A,A01,2.32727770558442,0.525496522657539,0.474503477342461,0.487084939893681,0.487084939893681,0.474503477342461,0.511922884305971,0.5,0.487084939893681,0.5,0.5,0.572655430336855,0.5,0.5,0.487084939893681,0.487084939893681,0.53775300451861,0.525496522657539,0.474503477342461,0.525496522657539,0.474503477342461,0.185977217474775,0.661945977898757,0.474503477342461,0.0122564818610707,0.5,0.0258301202126384,1.09829293022709,4.51437224213404,2.9266685321874,0.5,74.9350893187812
CBC_1045,CBC_1045_MSI_TV_v3_Vset1_Tset1_2024-03-15_16h44.49.446.csv,2,27,1,3,b,1,0,2,tac,B,27,1,1B,3B,1,0,b,2.50298049999947,1,0,1,1,1B,3B,B13,3.04452243772342,0.53775300451861,0.474503477342461,0.487084939893681,0.487084939893681,0.474503477342461,0.511922884305971,0.5,0.487084939893681,0.5,0.5,0.572655430336855,0.5,0.5,0.487084939893681,0.487084939893681,0.53775300451861,0.512431306247371,0.48756869375263,0.511922884305971,0.487084939893681,0.190279512742475,0.582629114127967,0.488077115694029,0.0126070905714146,0.5,0.0258301202126384,1.09829293022709,4.51437224213404,2.9266685321874,0.5,74.9350893187812
CBC_1045,CBC_1045_MSI_TV_v3_Vset1_Tset1_2024-03-15_16h44.49.446.csv,2,28,3,2,z,0,1,0,tac,C,63,1,3C,2C,0,1,z,2.95407989999876,0,1,1,1,2C,3C,C32,2.37490575457367,0.53775300451861,0.474503477342461,0.487084939893681,0.487084939893681,0.474503477342461,0.524529974877386,0.5,0.487084939893681,0.5,0.5,0.572655430336855,0.5,0.5,0.487084939893681,0.487084939893681,0.53775300451861,0.533867087361893,0.466132912638107,0.572655430336855,0.5,0.180011979685932,0.708108012656643,0.427344569663145,0.0110383616066173,0.5,0.0258301202126384,1.09829293022709,4.51437224213404,2.9266685321874,0.5,74.9350893187812
CBC_1045,CBC_1045_MSI_TV_v3_Vset1_Tset1_2024-03-15_16h44.49.446.csv,2,29,3,2,b,1,0,1,tac,D,63,1,3D,2D,1,0,z,2.86385139999948,0,1,0,0,2D,3D,D32,2.68557734525015,0.53775300451861,0.474503477342461,0.487084939893681,0.487084939893681,0.474503477342461,0.524529974877386,0.5,0.487084939893681,0.5,0.5,0.583693791943472,0.5,0.5,0.487084939893681,0.487084939893681,0.53775300451861,0.47527996260229,0.52472003739771,0.487084939893681,0.53775300451861,0.0914443828096356,0.342135146887527,-0.487084939893681,-0.0125814625512195,0.5,0.0258301202126384,1.09829293022709,4.51437224213404,2.9266685321874,0.5,74.9350893187812
CBC_1045,CBC_1045_MSI_TV_v3_Vset1_Tset1_2024-03-15_16h44.49.446.csv,2,30,0,1,z,0,1,2,tac,B,63,1,0B,1B,0,1,b,2.66257639999822,1,0,0,0,0B,1B,B01,2.70805020110221,0.53775300451861,0.474503477342461,0.487084939893681,0.487084939893681,0.474503477342461,0.524529974877386,0.5,0.487084939893681,0.5,0.5,0.583693791943472,0.5,0.5,0.487084939893681,0.474503477342461,0.53775300451861,0.474962551342117,0.525037448657883,0.474503477342461,0.524529974877386,0.1026792979577,0.340770998732095,-0.474503477342461,-0.0122564818610707,0.5,0.0258301202126384,1.09829293022709,4.51437224213404,2.9266685321874,0.5,74.9350893187812
CBC_1045,CBC_1045_MSI_TV_v3_Vset1_Tset1_2024-03-15_16h44.49.446.csv,2,31,2,0,z,0,1,3,tac,A,27,1,2A,0A,NaN,NaN,None,NaN,NaN,NaN,NaN,NaN,,,A20,3.13549421592915,0.53775300451861,0.474503477342461,0.487084939893681,0.487084939893681,0.462246995481391,0.524529974877386,0.5,0.487084939893681,0.5,0.5,0.583693791943472,0.5,0.5,0.487084939893681,0.474503477342461,0.53775300451861,0,0,0,0,NaN,0,0,0,0.5,0.0258301202126384,1.09829293022709,4.51437224213404,2.9266685321874,0.5,74.9350893187812
CBC_1045,CBC_1045_MSI_TV_v3_Vset1_Tset1_2024-03-15_16h44.49.446.csv,2,32,3,0,b,1,0,1,tac,D,9,1,3D,0D,1,0,z,3.39266669999961,0,1,0,0,0D,3D,D30,3.85014760171006,0.53775300451861,0.474503477342461,0.487084939893681,0.487084939893681,0.462246995481391,0.524529974877386,0.5,0.487084939893681,0.5,0.5,0.583693791943472,0.5,0.5,0.487084939893681,0.474503477342461,0.53775300451861,0.481810216711383,0.518189783288617,0.5,0.53775300451861,0.074425333188961,0.38144149827726,-0.5,-0.0129150601063192,0.5,0.0258301202126384,1.09829293022709,4.51437224213404,2.9266685321874,0.5,74.9350893187812
CBC_1045,CBC_1045_MSI_TV_v3_Vset1_Tset1_2024-03-15_16h44.49.446.csv,2,33,3,2,z,0,1,0,tac,C,63,1,3C,2C,0,1,z,2.08286840000073,0,1,1,1,2C,3C,C32,2.26176309847379,0.53775300451861,0.474503477342461,0.487084939893681,0.487084939893681,0.462246995481391,0.524529974877386,0.5,0.487084939893681,0.5,0.5,0.583693791943472,0.5,0.487084939893681,0.487084939893681,0.474503477342461,0.53775300451861,0.538615055546907,0.461384944453093,0.583693791943472,0.5,0.315228839846265,0.73405135402111,0.416306208056528,0.0107532393993678,0.5,0.0258301202126384,1.09829293022709,4.51437224213404,2.9266685321874,0.5,74.9350893187812
CBC_1045,CBC_1045_MSI_TV_v3_Vset1_Tset1_2024-03-15_16h44.49.446.csv,2,34,0,1,z,0,1,2,tac,B,63,1,0B,1B,0,1,b,2.8913248000008,1,0,0,0,0B,1B,B01,2.50552593699074,0.53775300451861,0.474503477342461,0.487084939893681,0.487084939893681,0.462246995481391,0.524529974877386,0.5,0.487084939893681,0.5,0.5,0.59444703134284,0.5,0.487084939893681,0.487084939893681,0.474503477342461,0.53775300451861,0.468441207452708,0.531558792547292,0.462246995481391,0.524529974877386,0.08008639051867,0.303410803301655,-0.462246995481391,-0.0119398954612152,0.5,0.0258301202126384,1.09829293022709,4.51437224213404,2.9266685321874,0.5,74.9350893187812
CBC_1045,CBC_1045_MSI_TV_v3_Vset1_Tset1_2024-03-15_16h44.49.446.csv,2,35,0,1,b,1,0,3,tac,A,63,0,0A,1A,0,1,z,2.38942320000024,0,1,0,1,1A,0A,A01,2.30258509299405,0.53775300451861,0.474503477342461,0.487084939893681,0.487084939893681,0.450307100020175,0.524529974877386,0.5,0.487084939893681,0.5,0.5,0.59444703134284,0.5,0.487084939893681,0.487084939893681,0.474503477342461,0.53775300451861,0.468758151560629,0.531241848439371,0.474503477342461,0.53775300451861,0.109056361791705,0.30559044217722,0.525496522657539,0.0135736383515677,0.5,0.0258301202126384,1.09829293022709,4.51437224213404,2.9266685321874,0.5,74.9350893187812
CBC_1045,CBC_1045_MSI_TV_v3_Vset1_Tset1_2024-03-15_16h44.49.446.csv,2,36,2,3,z,0,1,1,tac,D,63,1,2D,3D,0,1,z,2.83026299999983,0,1,1,1,3D,2D,D23,2.83321334405622,0.53775300451861,0.488077115694029,0.487084939893681,0.487084939893681,0.450307100020175,0.524529974877386,0.5,0.487084939893681,0.5,0.5,0.59444703134284,0.5,0.487084939893681,0.487084939893681,0.474503477342461,0.53775300451861,0.531241848439371,0.468758151560629,0.53775300451861,0.474503477342461,0.190302378654047,0.694687112055939,0.46224699548139,0.0119398954612152,0.5,0.0258301202126384,1.09829293022709,4.51437224213404,2.9266685321874,0.5,74.9350893187812
CBC_1045,CBC_1045_MSI_TV_v3_Vset1_Tset1_2024-03-15_16h44.49.446.csv,2,37,1,2,b,1,0,2,tac,B,9,1,1B,2B,1,0,b,3.54751219999889,1,0,1,1,1B,2B,B12,3.95124371858143,0.53775300451861,0.488077115694029,0.487084939893681,0.487084939893681,0.450307100020175,0.524529974877386,0.5,0.487084939893681,0.5,0.5,0.59444703134284,0.5,0.487084939893681,0.487084939893681,0.474503477342461,0.549692899979825,0.511971330990253,0.488028669009747,0.524529974877386,0.5,0.10315161669596,0.577655639903907,0.475470025122614,0.0122814479064233,0.5,0.0258301202126384,1.09829293022709,4.51437224213404,2.9266685321874,0.5,74.9350893187812
CBC_1045,CBC_1045_MSI_TV_v3_Vset1_Tset1_2024-03-15_16h44.49.446.csv,2,38,2,0,z,0,1,3,tac,A,27,1,2A,0A,0,1,z,2.37529630000063,0,1,1,1,0A,2A,A20,2.87167962488401,0.53775300451861,0.488077115694029,0.487084939893681,0.487084939893681,0.450307100020175,0.536811422783809,0.5,0.487084939893681,0.5,0.5,0.59444703134284,0.5,0.487084939893681,0.487084939893681,0.474503477342461,0.549692899979825,0.52472003739771,0.47527996260229,0.53775300451861,0.487084939893681,0.234140080992126,0.657990794528584,0.46224699548139,0.0119398954612152,0.5,0.0258301202126384,1.09829293022709,4.51437224213404,2.9266685321874,0.5,74.9350893187812
CBC_1045,CBC_1045_MSI_TV_v3_Vset1_Tset1_2024-03-15_16h44.49.446.csv,2,39,2,3,b,1,0,0,tac,C,63,1,2C,3C,1,0,z,5.56107599999814,0,1,0,0,3C,2C,C23,3.29583686600433,0.549692899979825,0.488077115694029,0.487084939893681,0.487084939893681,0.450307100020175,0.536811422783809,0.5,0.487084939893681,0.5,0.5,0.59444703134284,0.5,0.487084939893681,0.487084939893681,0.474503477342461,0.549692899979825,0.456851712034452,0.543148287965548,0.5,0.59444703134284,0.0113425027235585,0.242912002832274,-0.5,-0.0129150601063192,0.5,0.0258301202126384,1.09829293022709,4.51437224213404,2.9266685321874,0.5,74.9350893187812
CBC_1045,CBC_1045_MSI_TV_v3_Vset1_Tset1_2024-03-15_16h44.49.446.csv,2,40,1,3,z,0,1,1,tac,D,27,1,1D,3D,NaN,NaN,None,NaN,NaN,NaN,NaN,NaN,,,D13,3.31418600467253,0.549692899979825,0.488077115694029,0.487084939893681,0.487084939893681,0.450307100020175,0.536811422783809,0.5,0.487084939893681,0.5,0.5,0.59444703134284,0.487084939893681,0.487084939893681,0.487084939893681,0.474503477342461,0.549692899979825,0,0,0,0,NaN,0,0,0,0.5,0.0258301202126384,1.09829293022709,4.51437224213404,2.9266685321874,0.5,74.9350893187812
CBC_1045,CBC_1045_MSI_TV_v3_Vset1_Tset1_2024-03-15_16h44.49.446.csv,2,41,0,1,b,1,0,3,tac,A,63,1,0A,1A,1,0,b,3.70797139999922,1,0,1,1,0A,1A,A01,2.23359222150709,0.549692899979825,0.488077115694029,0.487084939893681,0.487084939893681,0.450307100020175,0.536811422783809,0.5,0.487084939893681,0.5,0.5,0.59444703134284,0.487084939893681,0.487084939893681,0.487084939893681,0.474503477342461,0.549692899979825,0.529686627747568,0.470313372252432,0.549692899979825,0.488077115694029,0.109840895276053,0.686090842097196,0.450307100020175,0.0116314865261257,0.5,0.0258301202126384,1.09829293022709,4.51437224213404,2.9266685321874,0.5,74.9350893187812
CBC_1045,CBC_1045_MSI_TV_v3_Vset1_Tset1_2024-03-15_16h44.49.446.csv,2,42,0,2,z,0,1,0,tac,C,27,1,0C,2C,NaN,NaN,None,NaN,NaN,NaN,NaN,NaN,,,C02,3.3499040872746,0.56132438650595,0.488077115694029,0.487084939893681,0.487084939893681,0.450307100020175,0.536811422783809,0.5,0.487084939893681,0.5,0.5,0.59444703134284,0.487084939893681,0.487084939893681,0.487084939893681,0.474503477342461,0.549692899979825,0,0,0,0,NaN,0,0,0,0.5,0.0258301202126384,1.09829293022709,4.51437224213404,2.9266685321874,0.5,74.9350893187812
CBC_1045,CBC_1045_MSI_TV_v3_Vset1_Tset1_2024-03-15_16h44.49.446.csv,2,43,3,2,b,1,0,1,tac,D,63,1,3D,2D,1,0,b,2.65046189999885,1,0,1,1,3D,2D,D32,2.67414864942653,0.56132438650595,0.488077115694029,0.487084939893681,0.487084939893681,0.450307100020175,0.536811422783809,0.5,0.487084939893681,0.5,0.5,0.59444703134284,0.487084939893681,0.487084939893681,0.487084939893681,0.474503477342461,0.549692899979825,0.536706545884268,0.463293454115732,0.549692899979825,0.474503477342461,0.222914602733065,0.724436436233744,0.450307100020175,0.0116314865261257,0.5,0.0258301202126384,1.09829293022709,4.51437224213404,2.9266685321874,0.5,74.9350893187812
CBC_1045,CBC_1045_MSI_TV_v3_Vset1_Tset1_2024-03-15_16h44.49.446.csv,2,44,1,0,b,1,0,2,tac,B,63,1,1B,0B,1,0,z,2.5344413999992,0,1,0,0,0B,1B,B10,2.97892515523761,0.56132438650595,0.488077115694029,0.487084939893681,0.487084939893681,0.450307100020175,0.536811422783809,0.5,0.487084939893681,0.5,0.5,0.59444703134284,0.487084939893681,0.487084939893681,0.487084939893681,0.474503477342461,0.56132438650595,0.456183416294372,0.543816583705628,0.450307100020175,0.536811422783809,0.0798613472791216,0.238606433307027,-0.450307100020175,-0.0116314865261257,0.5,0.0258301202126384,1.09829293022709,4.51437224213404,2.9266685321874,0.5,74.9350893187812
