ID,session,trialNr,mod2Stim,visStimLeft,visStimRight,correctKey,frequency,rewardAccurate,probFB,stimPairLeft,stimPairRight,leftCorrect,rightCorrect,pCorrectLeft,pCorrectRight,triplet,rt,surprise,0A belief,1A belief,2A belief,3A belief,0B belief,1B belief,2B belief,3B belief,0C belief,1C belief,2C belief,3C belief,0D belief,1D belief,2D belief,3D belief,reactionTime,choice,choiceLeft,choiceRight,chosenPair,otherPair,beliefPair,beliefOtherPair,beliefPairNorm,beliefOtherPairNorm,choiceAccurate,reward,rewardPE,update2,sim_CBCsimpleRW_CBCdriftDiffusionLR_startBelief,sim_CBCsimpleRW_CBCdriftDiffusionLR_alpha1,sim_CBCsimpleRW_CBCdriftDiffusionLR_nonDecisionTime,sim_CBCsimpleRW_CBCdriftDiffusionLR_weight,sim_CBCsimpleRW_CBCdriftDiffusionLR_startingBoundary,sim_CBCsimpleRW_CBCdriftDiffusionLR_startingPoint,lik,corrLik,fitCBCsimpleRW_CBCdriftDiffusionLR_startBelief,fitCBCsimpleRW_CBCdriftDiffusionLR_alpha1,fitCBCsimpleRW_CBCdriftDiffusionLR_nonDecisionTime,fitCBCsimpleRW_CBCdriftDiffusionLR_weight,fitCBCsimpleRW_CBCdriftDiffusionLR_startingBoundary,fitCBCsimpleRW_CBCdriftDiffusionLR_startingPoint,fit_CBCsimpleRW_CBCdriftDiffusionLR_NLL
172,1,1,B,3,1,l,27,1,0.95,3B,1B,0,1,0,1,B31,0.733145985679411,2.77258872223978,0.5,0.5,0.5,0.5,0.5,0.5,0.5,0.5,0.5,0.5,0.5,0.5,0.5,0.5,0.5,0.5,2.39801727277656,0,0,1,1B,3B,0.5,0.5,0.5,0.5,1,1,0.5,0.473346124565806,0.5,0.0166440350856173,0.330017272776562,6.94650398869959,3.34418070916672,0.5,0.124004537422265,0.500831096503555,0.5,0.946692249131613,0.514108724407007,0.441102316898244,2.92296992854004,0.5,97.300508655021
172,1,2,C,2,3,a,63,1,0.95,2C,3C,1,0,1,0,C23,1.96279009278891,2.83321334405622,0.5,0.5,0.5,0.5,0.5,0.973346124565806,0.5,0.5,0.5,0.5,0.5,0.5,0.5,0.5,0.5,0.5,5.99701727277656,1,1,0,2C,3C,0.5,0.5,0.5,0.5,1,1,0.5,0.473346124565806,0.5,0.0166440350856173,0.330017272776562,6.94650398869959,3.34418070916672,0.5,0.0154931690998725,0.499998867718866,0.5,0.946692249131613,0.514108724407007,0.441102316898244,2.92296992854004,0.5,97.300508655021
172,1,3,D,2,3,l,63,1,0.95,2D,3D,0,1,0,1,D23,1.77851843164929,2.89037175789616,0.5,0.5,0.5,0.5,0.5,0.973346124565806,0.5,0.5,0.5,0.5,0.973346124565806,0.5,0.5,0.5,0.5,0.5,1.17701727277656,0,0,1,3D,2D,0.5,0.5,0.5,0.5,1,1,0.5,0.473346124565806,0.5,0.0166440350856173,0.330017272776562,6.94650398869959,3.34418070916672,0.5,0.215842275272784,0.500321941860125,0.5,0.946692249131613,0.514108724407007,0.441102316898244,2.92296992854004,0.5,97.300508655021
172,1,4,B,1,0,a,63,1,0.95,1B,0B,1,0,1,0,B10,2.40830552653275,2.94443897916644,0.5,0.5,0.5,0.5,0.5,0.973346124565806,0.5,0.5,0.5,0.5,0.973346124565806,0.5,0.5,0.5,0.5,0.973346124565806,1.75001727277656,0,0,1,0B,1B,0.5,0.973346124565806,0.339363569539608,0.660636430460392,0,0,-0.5,-0.473346124565806,0.5,0.0166440350856173,0.330017272776562,6.94650398869959,3.34418070916672,0.5,0.143124975537515,0.397808068884223,0.5,0.946692249131613,0.514108724407007,0.441102316898244,2.92296992854004,0.5,97.300508655021
172,1,5,A,3,0,l,9,1,0.95,3A,0A,0,1,0,1,A30,0.845248347601392,2.99573227355399,0.5,0.5,0.5,0.5,0.0266538754341935,0.973346124565806,0.5,0.5,0.5,0.5,0.973346124565806,0.5,0.5,0.5,0.5,0.973346124565806,3.83001727277656,1,1,0,3A,0A,0.5,0.5,0.5,0.5,0,0,-0.5,-0.473346124565806,0.5,0.0166440350856173,0.330017272776562,6.94650398869959,3.34418070916672,0.5,0.0542271109894874,0.500569818175619,0.5,0.946692249131613,0.514108724407007,0.441102316898244,2.92296992854004,0.5,97.300508655021
172,1,6,D,2,3,l,63,1,0.95,2D,3D,0,1,0,1,D23,2.79433592591015,2.35137525716348,0.5,0.5,0.5,0.0266538754341935,0.0266538754341935,0.973346124565806,0.5,0.5,0.5,0.5,0.973346124565806,0.5,0.5,0.5,0.5,0.973346124565806,2.02601727277656,1,1,0,2D,3D,0.5,0.973346124565806,0.339363569539608,0.660636430460392,0,0,-0.5,-0.473346124565806,0.5,0.0166440350856173,0.330017272776562,6.94650398869959,3.34418070916672,0.5,0.122384735152816,0.397157403688622,0.5,0.946692249131613,0.514108724407007,0.441102316898244,2.92296992854004,0.5,97.300508655021
172,1,7,C,2,0,a,27,1,0.95,2C,0C,1,0,1,0,C20,1.41993863878285,3.09104245335832,0.5,0.5,0.5,0.0266538754341935,0.0266538754341935,0.973346124565806,0.5,0.5,0.5,0.5,0.973346124565806,0.5,0.5,0.5,0.0266538754341935,0.973346124565806,2.73401727277656,1,1,0,2C,0C,0.973346124565806,0.5,0.660636430460392,0.339363569539608,1,1,0.0266538754341935,0.0252330172828705,0.5,0.0166440350856173,0.330017272776562,6.94650398869959,3.34418070916672,0.5,0.122803626200843,0.602581026377447,0.5,0.946692249131613,0.514108724407007,0.441102316898244,2.92296992854004,0.5,97.300508655021
172,1,8,A,1,0,l,63,1,0.95,1A,0A,0,1,0,1,A10,1.50570366438884,3.13549421592915,0.5,0.5,0.5,0.0266538754341935,0.0266538754341935,0.973346124565806,0.5,0.5,0.5,0.5,0.998579141848677,0.5,0.5,0.5,0.0266538754341935,0.973346124565806,1.64501727277656,0,0,1,0A,1A,0.5,0.5,0.5,0.5,1,1,0.5,0.473346124565806,0.5,0.0166440350856173,0.330017272776562,6.94650398869959,3.34418070916672,0.5,0.187876189921091,0.498982369824286,0.5,0.946692249131613,0.514108724407007,0.441102316898244,2.92296992854004,0.5,97.300508655021
172,1,9,B,0,1,l,63,1,0.95,0B,1B,0,1,0,1,B01,1.16883089462584,3.17805383034795,0.973346124565806,0.5,0.5,0.0266538754341935,0.0266538754341935,0.973346124565806,0.5,0.5,0.5,0.5,0.998579141848677,0.5,0.5,0.5,0.0266538754341935,0.973346124565806,1.24401727277656,1,1,0,0B,1B,0.0266538754341935,0.973346124565806,0.0266538754341935,0.973346124565806,0,0,-0.0266538754341935,-0.0252330172828705,0.5,0.0166440350856173,0.330017272776562,6.94650398869959,3.34418070916672,0.5,0.110365744418927,0.227946311526038,0.5,0.946692249131613,0.514108724407007,0.441102316898244,2.92296992854004,0.5,97.300508655021
172,1,10,D,3,1,a,27,1,0.95,3D,1D,1,0,1,0,D31,3.24553492107923,3.2188758248682,0.973346124565806,0.5,0.5,0.0266538754341935,0.00142085815132301,0.973346124565806,0.5,0.5,0.5,0.5,0.998579141848677,0.5,0.5,0.5,0.0266538754341935,0.973346124565806,4.04601727277656,0,0,1,1D,3D,0.5,0.973346124565806,0.339363569539608,0.660636430460392,0,0,-0.5,-0.473346124565806,0.5,0.0166440350856173,0.330017272776562,6.94650398869959,3.34418070916672,0.5,0.0375258022335358,0.398014999011668,0.5,0.946692249131613,0.514108724407007,0.441102316898244,2.92296992854004,0.5,97.300508655021
172,1,11,C,2,3,a,63,1,0.95,2C,3C,1,0,1,0,C23,2.56354711798456,2.56494935746154,0.973346124565806,0.5,0.5,0.0266538754341935,0.00142085815132301,0.973346124565806,0.5,0.5,0.5,0.5,0.998579141848677,0.5,0.5,0.0266538754341935,0.0266538754341935,0.973346124565806,1.29601727277656,1,1,0,2C,3C,0.998579141848677,0.5,0.666350621040147,0.333649378959853,1,1,0.00142085815132298,0.00134511539897294,0.5,0.0166440350856173,0.330017272776562,6.94650398869959,3.34418070916672,0.5,0.264559853276928,0.605943888609763,0.5,0.946692249131613,0.514108724407007,0.441102316898244,2.92296992854004,0.5,97.300508655021
172,1,12,B,0,1,l,63,1,0.95,0B,1B,0,1,0,1,B01,0.43794374999515,2.60268968544438,0.973346124565806,0.5,0.5,0.0266538754341935,0.00142085815132301,0.973346124565806,0.5,0.5,0.5,0.5,0.99992425724765,0.5,0.5,0.0266538754341935,0.0266538754341935,0.973346124565806,0.971017272776562,0,0,1,1B,0B,0.973346124565806,0.00142085815132301,0.998542361224257,0.00145763877574353,1,1,0.0266538754341935,0.0252330172828705,0.5,0.0166440350856173,0.330017272776562,6.94650398869959,3.34418070916672,0.5,0.331695451771693,0.783328281546513,0.5,0.946692249131613,0.514108724407007,0.441102316898244,2.92296992854004,0.5,97.300508655021
172,1,13,A,1,0,l,63,1,0.95,1A,0A,0,1,0,1,A10,1.93676966917393,2.63905732961526,0.973346124565806,0.5,0.5,0.0266538754341935,0.00142085815132301,0.998579141848677,0.5,0.5,0.5,0.5,0.99992425724765,0.5,0.5,0.0266538754341935,0.0266538754341935,0.973346124565806,4.81501727277656,0,0,1,0A,1A,0.973346124565806,0.5,0.660636430460392,0.339363569539608,1,1,0.0266538754341935,0.0252330172828705,0.5,0.0166440350856173,0.330017272776562,6.94650398869959,3.34418070916672,0.5,0.0361633035241891,0.602928287271694,0.5,0.946692249131613,0.514108724407007,0.441102316898244,2.92296992854004,0.5,97.300508655021
172,1,14,C,2,1,a,9,1,0.95,2C,1C,1,0,1,0,C21,0.981008227007174,3.36729582998647,0.998579141848677,0.5,0.5,0.0266538754341935,0.00142085815132301,0.998579141848677,0.5,0.5,0.5,0.5,0.99992425724765,0.5,0.5,0.0266538754341935,0.0266538754341935,0.973346124565806,3.31701727277656,1,1,0,2C,1C,0.99992425724765,0.5,0.666649834093959,0.333350165906041,1,1,7.57427523500054e-05,7.17050765776454e-05,0.5,0.0166440350856173,0.330017272776562,6.94650398869959,3.34418070916672,0.5,0.0876410788501342,0.606032664458299,0.5,0.946692249131613,0.514108724407007,0.441102316898244,2.92296992854004,0.5,97.300508655021
172,1,15,A,0,1,a,63,1,0.95,0A,1A,1,0,1,0,A01,2.57625425172826,3.40119738166216,0.998579141848677,0.5,0.5,0.0266538754341935,0.00142085815132301,0.998579141848677,0.5,0.5,0.5,0.5,0.999995962324228,0.5,0.5,0.0266538754341935,0.0266538754341935,0.973346124565806,5.22201727277656,1,1,0,0A,1A,0.998579141848677,0.5,0.666350621040147,0.333649378959853,1,1,0.00142085815132298,0.00134511539897294,0.5,0.0166440350856173,0.330017272776562,6.94650398869959,3.34418070916672,0.5,0.0285652908676234,0.605964847232337,0.5,0.946692249131613,0.514108724407007,0.441102316898244,2.92296992854004,0.5,97.300508655021
172,1,16,D,1,3,l,27,1,0.95,1D,3D,0,1,0,1,D13,1.21200618830952,3.43398720448515,0.99992425724765,0.5,0.5,0.0266538754341935,0.00142085815132301,0.998579141848677,0.5,0.5,0.5,0.5,0.999995962324228,0.5,0.5,0.0266538754341935,0.0266538754341935,0.973346124565806,1.01701727277656,1,1,0,1D,3D,0.0266538754341935,0.973346124565806,0.0266538754341935,0.973346124565806,0,0,-0.0266538754341935,-0.0252330172828705,0.5,0.0166440350856173,0.330017272776562,6.94650398869959,3.34418070916672,0.5,0.101775793994825,0.228205285331287,0.5,0.946692249131613,0.514108724407007,0.441102316898244,2.92296992854004,0.5,97.300508655021
172,1,17,B,1,0,a,63,1,0.95,1B,0B,1,0,1,0,B10,3.1257718308692,2.77258872223978,0.99992425724765,0.5,0.5,0.0266538754341935,0.00142085815132301,0.998579141848677,0.5,0.5,0.5,0.5,0.999995962324228,0.5,0.5,0.00142085815132301,0.0266538754341935,0.973346124565806,2.69401727277656,1,1,0,1B,0B,0.998579141848677,0.00142085815132301,0.998579141848677,0.00142085815132301,1,1,0.00142085815132298,0.00134511539897294,0.5,0.0166440350856173,0.330017272776562,6.94650398869959,3.34418070916672,0.5,0.160862727069899,0.783934612068993,0.5,0.946692249131613,0.514108724407007,0.441102316898244,2.92296992854004,0.5,97.300508655021
172,1,18,C,3,2,l,63,0,0.95,3C,2C,0,1,1,0,C32,2.71270756987521,3.49650756146648,0.99992425724765,0.5,0.5,0.0266538754341935,0.00142085815132301,0.99992425724765,0.5,0.5,0.5,0.5,0.999995962324228,0.5,0.5,0.00142085815132301,0.0266538754341935,0.973346124565806,6.03101727277656,0,0,1,2C,3C,0.999995962324228,0.5,0.666665769402969,0.333334230597031,1,0,-0.999995962324228,-0.946688426695255,0.5,0.0166440350856173,0.330017272776562,6.94650398869959,3.34418070916672,0.5,0.0177487305915077,0.606140246332664,0.5,0.946692249131613,0.514108724407007,0.441102316898244,2.92296992854004,0.5,97.300508655021
172,1,19,A,0,2,a,27,1,0.95,0A,2A,1,0,1,0,A02,2.60631850120006,3.52636052461616,0.99992425724765,0.5,0.5,0.0266538754341935,0.00142085815132301,0.99992425724765,0.5,0.5,0.5,0.5,0.0533075356289728,0.5,0.5,0.00142085815132301,0.0266538754341935,0.973346124565806,1.46201727277656,0,0,1,2A,0A,0.5,0.99992425724765,0.333350165906041,0.666649834093959,0,0,-0.5,-0.473346124565806,0.5,0.0166440350856173,0.330017272776562,6.94650398869959,3.34418070916672,0.5,0.162995061595899,0.393030969999946,0.5,0.946692249131613,0.514108724407007,0.441102316898244,2.92296992854004,0.5,97.300508655021
172,1,20,D,2,3,l,63,1,0.95,2D,3D,0,1,0,1,D23,3.41123729002834,2.4567357728213,0.99992425724765,0.5,0.0266538754341935,0.0266538754341935,0.00142085815132301,0.99992425724765,0.5,0.5,0.5,0.5,0.0533075356289728,0.5,0.5,0.00142085815132301,0.0266538754341935,0.973346124565806,2.17401727277656,0,0,1,3D,2D,0.973346124565806,0.0266538754341935,0.973346124565806,0.0266538754341935,1,1,0.0266538754341935,0.0252330172828705,0.5,0.0166440350856173,0.330017272776562,6.94650398869959,3.34418070916672,0.5,0.224136152956686,0.771866183654787,0.5,0.946692249131613,0.514108724407007,0.441102316898244,2.92296992854004,0.5,97.300508655021
172,1,21,B,1,3,a,27,1,0.95,1B,3B,1,0,1,0,B13,0.191115566331286,3.58351893845611,0.99992425724765,0.5,0.0266538754341935,0.0266538754341935,0.00142085815132301,0.99992425724765,0.5,0.5,0.5,0.5,0.0533075356289728,0.5,0.5,0.00142085815132301,0.0266538754341935,0.998579141848677,1.93201727277656,1,1,0,1B,3B,0.99992425724765,0.5,0.666649834093959,0.333350165906041,1,1,7.57427523500054e-05,7.17050765776454e-05,0.5,0.0166440350856173,0.330017272776562,6.94650398869959,3.34418070916672,0.5,0.197000652663887,0.605611558547749,0.5,0.946692249131613,0.514108724407007,0.441102316898244,2.92296992854004,0.5,97.300508655021
172,1,22,C,2,3,a,63,1,0.95,2C,3C,1,0,1,0,C23,3.31431727596111,2.51230562397611,0.99992425724765,0.5,0.0266538754341935,0.0266538754341935,0.00142085815132301,0.999995962324228,0.5,0.5,0.5,0.5,0.0533075356289728,0.5,0.5,0.00142085815132301,0.0266538754341935,0.998579141848677,1.76601727277656,0,0,1,3C,2C,0.5,0.0533075356289728,0.903656588431648,0.0963434115683522,0,0,-0.5,-0.473346124565806,0.5,0.0166440350856173,0.330017272776562,6.94650398869959,3.34418070916672,0.5,0.275004397487384,0.73946188629288,0.5,0.946692249131613,0.514108724407007,0.441102316898244,2.92296992854004,0.5,97.300508655021
172,1,23,A,1,0,l,63,1,0.95,1A,0A,0,1,0,1,A10,2.59007648753061,2.53897387105828,0.99992425724765,0.5,0.0266538754341935,0.0266538754341935,0.00142085815132301,0.999995962324228,0.5,0.5,0.5,0.5,0.0533075356289728,0.0266538754341935,0.5,0.00142085815132301,0.0266538754341935,0.998579141848677,3.63901727277656,0,0,1,0A,1A,0.99992425724765,0.5,0.666649834093959,0.333350165906041,1,1,7.57427523500054e-05,7.17050765776454e-05,0.5,0.0166440350856173,0.330017272776562,6.94650398869959,3.34418070916672,0.5,0.0724612959444134,0.605529018270233,0.5,0.946692249131613,0.514108724407007,0.441102316898244,2.92296992854004,0.5,97.300508655021
172,1,24,B,1,2,a,9,1,0.95,1B,2B,1,0,1,0,B12,3.48646650877904,3.66356164612965,0.999995962324228,0.5,0.0266538754341935,0.0266538754341935,0.00142085815132301,0.999995962324228,0.5,0.5,0.5,0.5,0.0533075356289728,0.0266538754341935,0.5,0.00142085815132301,0.0266538754341935,0.998579141848677,6.18701727277656,0,0,1,2B,1B,0.5,0.999995962324228,0.333334230597031,0.666665769402969,0,0,-0.5,-0.473346124565806,0.5,0.0166440350856173,0.330017272776562,6.94650398869959,3.34418070916672,0.5,0.0105392602704238,0.394379872704057,0.5,0.946692249131613,0.514108724407007,0.441102316898244,2.92296992854004,0.5,97.300508655021
172,1,25,C,3,2,l,63,1,0.95,3C,2C,0,1,0,1,C32,2.56974069430569,2.99573227355399,0.999995962324228,0.5,0.0266538754341935,0.0266538754341935,0.00142085815132301,0.999995962324228,0.0266538754341935,0.5,0.5,0.5,0.0533075356289728,0.0266538754341935,0.5,0.00142085815132301,0.0266538754341935,0.998579141848677,1.16401727277656,0,0,1,2C,3C,0.0533075356289728,0.0266538754341935,0.666665769402969,0.333334230597031,1,1,0.946692464371027,0.896226418331357,0.5,0.0166440350856173,0.330017272776562,6.94650398869959,3.34418070916672,0.5,0.264906043267359,0.605883401321219,0.5,0.946692249131613,0.514108724407007,0.441102316898244,2.92296992854004,0.5,97.300508655021
172,1,26,D,3,2,a,63,1,0.95,3D,2D,1,0,1,0,D32,2.79183170831496,3.71357206670431,0.999995962324228,0.5,0.0266538754341935,0.0266538754341935,0.00142085815132301,0.999995962324228,0.0266538754341935,0.5,0.5,0.5,0.94953395396033,0.0266538754341935,0.5,0.00142085815132301,0.0266538754341935,0.998579141848677,2.04201727277656,0,0,1,2D,3D,0.0266538754341935,0.998579141848677,0.0259978707131702,0.97400212928683,0,0,-0.0266538754341935,-0.0252330172828705,0.5,0.0166440350856173,0.330017272776562,6.94650398869959,3.34418070916672,0.5,0.0722140129222167,0.228064935241413,0.5,0.946692249131613,0.514108724407007,0.441102316898244,2.92296992854004,0.5,97.300508655021
172,1,27,B,1,0,a,63,1,0.95,1B,0B,1,0,1,0,B10,0.812971043173421,2.63905732961526,0.999995962324228,0.5,0.0266538754341935,0.0266538754341935,0.00142085815132301,0.999995962324228,0.0266538754341935,0.5,0.5,0.5,0.94953395396033,0.0266538754341935,0.5,0.00142085815132301,0.00142085815132301,0.998579141848677,1.81701727277656,1,1,0,1B,0B,0.999995962324228,0.00142085815132301,0.998581152101431,0.00141884789856862,1,1,4.03767577239478e-06,3.82243635823264e-06,0.5,0.0166440350856173,0.330017272776562,6.94650398869959,3.34418070916672,0.5,0.288373108619593,0.783432023112335,0.5,0.946692249131613,0.514108724407007,0.441102316898244,2.92296992854004,0.5,97.300508655021
172,1,28,A,2,0,l,27,1,0.95,2A,0A,0,1,0,1,A20,2.34422020410872,3.76120011569356,0.999995962324228,0.5,0.0266538754341935,0.0266538754341935,0.00142085815132301,0.999999784760586,0.0266538754341935,0.5,0.5,0.5,0.94953395396033,0.0266538754341935,0.5,0.00142085815132301,0.00142085815132301,0.998579141848677,1.23901727277656,0,0,1,0A,2A,0.999995962324228,0.0266538754341935,0.974038007455016,0.0259619925449843,1,1,4.03767577239478e-06,3.82243635823264e-06,0.5,0.0166440350856173,0.330017272776562,6.94650398869959,3.34418070916672,0.5,0.374476993384598,0.772555270769938,0.5,0.946692249131613,0.514108724407007,0.441102316898244,2.92296992854004,0.5,97.300508655021
172,1,29,D,3,1,a,27,1,0.95,3D,1D,1,0,1,0,D31,1.19315107206669,3.09104245335832,0.999999784760586,0.5,0.0266538754341935,0.0266538754341935,0.00142085815132301,0.999999784760586,0.0266538754341935,0.5,0.5,0.5,0.94953395396033,0.0266538754341935,0.5,0.00142085815132301,0.00142085815132301,0.998579141848677,4.28901727277656,1,1,0,3D,1D,0.998579141848677,0.00142085815132301,0.998579141848677,0.00142085815132301,1,1,0.00142085815132298,0.00134511539897294,0.5,0.0166440350856173,0.330017272776562,6.94650398869959,3.34418070916672,0.5,0.0548623660646778,0.782839742895569,0.5,0.946692249131613,0.514108724407007,0.441102316898244,2.92296992854004,0.5,97.300508655021
172,1,30,A,0,1,a,63,1,0.95,0A,1A,1,0,1,0,A01,0.439362999176852,3.11351530921037,0.999999784760586,0.5,0.0266538754341935,0.0266538754341935,0.00142085815132301,0.999999784760586,0.0266538754341935,0.5,0.5,0.5,0.94953395396033,0.0266538754341935,0.5,0.00142085815132301,0.00142085815132301,0.99992425724765,5.55201727277656,0,0,1,1A,0A,0.5,0.999999784760586,0.333333381164321,0.666666618835679,0,0,-0.5,-0.473346124565806,0.5,0.0166440350856173,0.330017272776562,6.94650398869959,3.34418070916672,0.5,0.0153075678897314,0.394263118225129,0.5,0.946692249131613,0.514108724407007,0.441102316898244,2.92296992854004,0.5,97.300508655021
172,1,31,C,0,2,l,27,1,0.95,0C,2C,0,1,0,1,C02,3.25234683866643,3.8286413964891,0.999999784760586,0.0266538754341935,0.0266538754341935,0.0266538754341935,0.00142085815132301,0.999999784760586,0.0266538754341935,0.5,0.5,0.5,0.94953395396033,0.0266538754341935,0.5,0.00142085815132301,0.00142085815132301,0.99992425724765,1.41501727277656,1,1,0,0C,2C,0.5,0.94953395396033,0.344938453241423,0.655061546758577,0,0,-0.5,-0.473346124565806,0.5,0.0166440350856173,0.330017272776562,6.94650398869959,3.34418070916672,0.5,0.169441621055759,0.40211544693684,0.5,0.946692249131613,0.514108724407007,0.441102316898244,2.92296992854004,0.5,97.300508655021
172,1,32,D,3,2,a,63,1,0.95,3D,2D,1,0,1,0,D32,3.42200540854075,3.15700042115011,0.999999784760586,0.0266538754341935,0.0266538754341935,0.0266538754341935,0.00142085815132301,0.999999784760586,0.0266538754341935,0.5,0.0266538754341935,0.5,0.94953395396033,0.0266538754341935,0.5,0.00142085815132301,0.00142085815132301,0.99992425724765,2.41001727277656,0,0,1,2D,3D,0.00142085815132301,0.99992425724765,0.00141894950049952,0.998581050499501,0,0,-0.00142085815132301,-0.00134511539897296,0.5,0.0166440350856173,0.330017272776562,6.94650398869959,3.34418070916672,0.5,0.0538587873468418,0.216769697416863,0.5,0.946692249131613,0.514108724407007,0.441102316898244,2.92296992854004,0.5,97.300508655021
172,1,33,B,0,1,l,63,1,0.95,0B,1B,0,1,0,1,B01,1.7672081261753,2.77258872223978,0.999999784760586,0.0266538754341935,0.0266538754341935,0.0266538754341935,0.00142085815132301,0.999999784760586,0.0266538754341935,0.5,0.0266538754341935,0.5,0.94953395396033,0.0266538754341935,0.5,0.00142085815132301,7.57427523500438e-05,0.99992425724765,2.19901727277656,0,0,1,1B,0B,0.999999784760586,0.00142085815132301,0.998581157517193,0.00141884248280669,1,1,2.15239414180779e-07,2.03765485112572e-07,0.5,0.0166440350856173,0.330017272776562,6.94650398869959,3.34418070916672,0.5,0.224117878478439,0.783054188348195,0.5,0.946692249131613,0.514108724407007,0.441102316898244,2.92296992854004,0.5,97.300508655021
172,1,34,A,1,0,l,63,1,0.95,1A,0A,0,1,0,1,A10,0.211626235139203,2.50552593699074,0.999999784760586,0.0266538754341935,0.0266538754341935,0.0266538754341935,0.00142085815132301,0.999999988526071,0.0266538754341935,0.5,0.0266538754341935,0.5,0.94953395396033,0.0266538754341935,0.5,0.00142085815132301,7.57427523500438e-05,0.99992425724765,0.732017272776562,0,0,1,0A,1A,0.999999784760586,0.0266538754341935,0.974038104116692,0.0259618958833076,1,1,2.15239414180779e-07,2.03765485112572e-07,0.5,0.0166440350856173,0.330017272776562,6.94650398869959,3.34418070916672,0.5,0.077056650458166,0.772337154109678,0.5,0.946692249131613,0.514108724407007,0.441102316898244,2.92296992854004,0.5,97.300508655021
172,1,35,D,3,2,a,63,0,0.95,3D,2D,1,0,0,1,D32,2.57379568265798,2.81341071676004,0.999999988526071,0.0266538754341935,0.0266538754341935,0.0266538754341935,0.00142085815132301,0.999999988526071,0.0266538754341935,0.5,0.0266538754341935,0.5,0.94953395396033,0.0266538754341935,0.5,0.00142085815132301,7.57427523500438e-05,0.99992425724765,1.18901727277656,1,1,0,3D,2D,0.99992425724765,7.57427523500438e-05,0.99992425724765,7.57427523500438e-05,1,0,-0.99992425724765,-0.946620544055035,0.5,0.0166440350856173,0.330017272776562,6.94650398869959,3.34418070916672,0.5,0.385058320026908,0.783502871337471,0.5,0.946692249131613,0.514108724407007,0.441102316898244,2.92296992854004,0.5,97.300508655021
172,1,36,C,0,2,l,27,1,0.95,0C,2C,0,1,0,1,C02,1.56528906576783,3.23867845216438,0.999999988526071,0.0266538754341935,0.0266538754341935,0.0266538754341935,0.00142085815132301,0.999999988526071,0.0266538754341935,0.5,0.0266538754341935,0.5,0.94953395396033,0.0266538754341935,0.5,0.00142085815132301,7.57427523500438e-05,0.0533037131926146,1.21701727277656,0,0,1,2C,0C,0.94953395396033,0.0266538754341935,0.972695956012148,0.0273040439878517,1,1,0.0504660460396701,0.0477758146300748,0.5,0.0166440350856173,0.330017272776562,6.94650398869959,3.34418070916672,0.5,0.375099687639204,0.77238441125374,0.5,0.946692249131613,0.514108724407007,0.441102316898244,2.92296992854004,0.5,97.300508655021
172,1,37,A,1,0,l,63,1,0.95,1A,0A,0,1,0,1,A10,2.42229818433569,2.34180580614733,0.999999988526071,0.0266538754341935,0.0266538754341935,0.0266538754341935,0.00142085815132301,0.999999988526071,0.0266538754341935,0.5,0.0266538754341935,0.5,0.997309768590405,0.0266538754341935,0.5,0.00142085815132301,7.57427523500438e-05,0.0533037131926146,1.09401727277656,0,0,1,0A,1A,0.999999988526071,0.0266538754341935,0.974038109269489,0.0259618907305112,1,1,1.14739290291155e-08,1.08622796789498e-08,0.5,0.0166440350856173,0.330017272776562,6.94650398869959,3.34418070916672,0.5,0.366489331285601,0.772275567528104,0.5,0.946692249131613,0.514108724407007,0.441102316898244,2.92296992854004,0.5,97.300508655021
172,1,38,B,3,1,l,27,1,0.95,3B,1B,0,1,0,1,B31,1.19143513497153,3.27714473299218,0.999999999388351,0.0266538754341935,0.0266538754341935,0.0266538754341935,0.00142085815132301,0.999999988526071,0.0266538754341935,0.5,0.0266538754341935,0.5,0.997309768590405,0.0266538754341935,0.5,0.00142085815132301,7.57427523500438e-05,0.0533037131926146,2.69001727277656,0,0,1,1B,3B,0.999999988526071,0.5,0.666666664116905,0.333333335883095,1,1,1.14739290291155e-08,1.08622796789498e-08,0.5,0.0166440350856173,0.330017272776562,6.94650398869959,3.34418070916672,0.5,0.126639274296993,0.605579592626294,0.5,0.946692249131613,0.514108724407007,0.441102316898244,2.92296992854004,0.5,97.300508655021
172,1,39,C,2,3,a,63,1,0.95,2C,3C,1,0,1,0,C23,0.319555391699963,2.60268968544438,0.999999999388351,0.0266538754341935,0.0266538754341935,0.0266538754341935,0.00142085815132301,0.999999999388351,0.0266538754341935,0.5,0.0266538754341935,0.5,0.997309768590405,0.0266538754341935,0.5,0.00142085815132301,7.57427523500438e-05,0.0533037131926146,2.33301727277656,1,1,0,2C,3C,0.997309768590405,0.0266538754341935,0.973969900601712,0.026030099398288,1,1,0.00269023140959523,0.00254682122383422,0.5,0.0166440350856173,0.330017272776562,6.94650398869959,3.34418070916672,0.5,0.202086017172577,0.772871575163089,0.5,0.946692249131613,0.514108724407007,0.441102316898244,2.92296992854004,0.5,97.300508655021
172,1,40,D,2,3,l,63,1,0.95,2D,3D,0,1,0,1,D23,2.57371964638768,2.62103882411258,0.999999999388351,0.0266538754341935,0.0266538754341935,0.0266538754341935,0.00142085815132301,0.999999999388351,0.0266538754341935,0.5,0.0266538754341935,0.5,0.999856589814239,0.0266538754341935,0.5,0.00142085815132301,7.57427523500438e-05,0.0533037131926146,2.21301727277656,0,0,1,3D,2D,0.0533037131926146,7.57427523500438e-05,0.9985810504995,0.00141894950049952,1,1,0.946696286807385,0.89623003700223,0.5,0.0166440350856173,0.330017272776562,6.94650398869959,3.34418070916672,0.5,0.222011504880113,0.782995156368639,0.5,0.946692249131613,0.514108724407007,0.441102316898244,2.92296992854004,0.5,97.300508655021
172,1,41,B,1,0,a,63,1,0.95,1B,0B,1,0,1,0,B10,1.03159402895961,2.63905732961526,0.999999999388351,0.0266538754341935,0.0266538754341935,0.0266538754341935,0.00142085815132301,0.999999999388351,0.0266538754341935,0.5,0.0266538754341935,0.5,0.999856589814239,0.0266538754341935,0.5,0.00142085815132301,7.57427523500438e-05,0.949533750194845,1.32801727277656,0,0,1,0B,1B,0.00142085815132301,0.999999999388351,0.00141884217871577,0.998581157821284,0,0,-0.00142085815132301,-0.00134511539897296,0.5,0.0166440350856173,0.330017272776562,6.94650398869959,3.34418070916672,0.5,0.10378792172526,0.216319210077328,0.5,0.946692249131613,0.514108724407007,0.441102316898244,2.92296992854004,0.5,97.300508655021
172,1,42,A,0,2,a,27,1,0.95,0A,2A,1,0,1,0,A02,2.0471759014286,3.3499040872746,0.999999999388351,0.0266538754341935,0.0266538754341935,0.0266538754341935,7.57427523500438e-05,0.999999999388351,0.0266538754341935,0.5,0.0266538754341935,0.5,0.999856589814239,0.0266538754341935,0.5,0.00142085815132301,7.57427523500438e-05,0.949533750194845,4.56601727277656,1,1,0,0A,2A,0.999999999388351,0.0266538754341935,0.974038109544173,0.0259618904558273,1,1,6.11649397797009e-10,5.79043744080448e-10,0.5,0.0166440350856173,0.330017272776562,6.94650398869959,3.34418070916672,0.5,0.0457782423432662,0.772478403658916,0.5,0.946692249131613,0.514108724407007,0.441102316898244,2.92296992854004,0.5,97.300508655021
172,1,43,D,0,3,l,9,1,0.95,0D,3D,0,1,0,1,D03,2.21417600336986,4.06044301054642,0.999999999967394,0.0266538754341935,0.0266538754341935,0.0266538754341935,7.57427523500438e-05,0.999999999388351,0.0266538754341935,0.5,0.0266538754341935,0.5,0.999856589814239,0.0266538754341935,0.5,0.00142085815132301,7.57427523500438e-05,0.949533750194845,1.85401727277656,1,1,0,0D,3D,0.5,0.949533750194845,0.344938501730498,0.655061498269502,0,0,-0.5,-0.473346124565806,0.5,0.0166440350856173,0.330017272776562,6.94650398869959,3.34418070916672,0.5,0.136242915986576,0.401218951922556,0.5,0.946692249131613,0.514108724407007,0.441102316898244,2.92296992854004,0.5,97.300508655021
172,1,44,C,2,3,a,63,1,0.95,2C,3C,1,0,1,0,C23,0.941109827664426,2.46809953147162,0.999999999967394,0.0266538754341935,0.0266538754341935,0.0266538754341935,7.57427523500438e-05,0.999999999388351,0.0266538754341935,0.5,0.0266538754341935,0.5,0.999856589814239,0.0266538754341935,0.0266538754341935,0.00142085815132301,7.57427523500438e-05,0.949533750194845,1.92901727277656,0,0,1,3C,2C,0.0266538754341935,0.999856589814239,0.0259655174852434,0.974034482514757,0,0,-0.0266538754341935,-0.0252330172828705,0.5,0.0166440350856173,0.330017272776562,6.94650398869959,3.34418070916672,0.5,0.0774330005996878,0.227176915090477,0.5,0.946692249131613,0.514108724407007,0.441102316898244,2.92296992854004,0.5,97.300508655021
