ID,filename,session,trial,visStimLeft,visStimRight,correctKey,leftCorrect,rightCorrect,secondStim,mod2Type,mod2Stim,frequency,rewardAccurate,stimPairLeft,stimPairRight,pCorrectLeft,pCorrectRight,key,reactionTime,choiceLeft,choiceRight,choiceAccurate,reward,chosenPair,otherPair,triplet,surprise,0A belief,1A belief,2A belief,3A belief,0B belief,1B belief,2B belief,3B belief,0C belief,1C belief,2C belief,3C belief,0D belief,1D belief,2D belief,3D belief,beliefPairNorm,beliefOtherPairNorm,beliefPair,beliefOtherPair,lik,corrLik,rewardPE,update2,fitCBCsimpleRW_CBCdriftDiffusionLR_startBelief,fitCBCsimpleRW_CBCdriftDiffusionLR_alpha1,fitCBCsimpleRW_CBCdriftDiffusionLR_nonDecisionTime,fitCBCsimpleRW_CBCdriftDiffusionLR_weight,fitCBCsimpleRW_CBCdriftDiffusionLR_startingBoundary,fitCBCsimpleRW_CBCdriftDiffusionLR_startingPoint,fit_CBCsimpleRW_CBCdriftDiffusionLR_NLL
CBC_1016,CBC_1016_MSI_TV_v3_Vset2_Tset3_2023-06-25_14h56.17.212.csv,1,1,0,1,z,0,1,1,tac,B,63,1,0B,1B,0,1,z,2.33870570000363,0,1,1,1,1B,0B,B01,2.77258872223978,0.5,0.5,0.5,0.5,0.5,0.5,0.5,0.5,0.5,0.5,0.5,0.5,0.5,0.5,0.5,0.5,0.5,0.5,0.5,0.5,0.172768766753194,0.50022851653313,0.5,0.0100978463223966,0.5,0.0201956926447933,0.986493827040533,11.1764525400716,2.49693661644499,0.5,71.9872159398552
CBC_1016,CBC_1016_MSI_TV_v3_Vset2_Tset3_2023-06-25_14h56.17.212.csv,1,2,0,1,b,1,0,2,tac,A,63,1,0A,1A,1,0,b,2.20432540000184,1,0,1,1,0A,1A,A01,2.83321334405622,0.5,0.5,0.5,0.5,0.5,0.510097846322397,0.5,0.5,0.5,0.5,0.5,0.5,0.5,0.5,0.5,0.5,0.5,0.5,0.5,0.5,0.191920614831538,0.499996019519094,0.5,0.0100978463223966,0.5,0.0201956926447933,0.986493827040533,11.1764525400716,2.49693661644499,0.5,71.9872159398552
CBC_1016,CBC_1016_MSI_TV_v3_Vset2_Tset3_2023-06-25_14h56.17.212.csv,1,3,2,3,z,0,1,0,tac,D,63,1,2D,3D,0,1,z,1.62433350000356,0,1,1,1,3D,2D,D23,2.89037175789616,0.510097846322397,0.5,0.5,0.5,0.5,0.510097846322397,0.5,0.5,0.5,0.5,0.5,0.5,0.5,0.5,0.5,0.5,0.5,0.5,0.5,0.5,0.288379264568365,0.500524191045894,0.5,0.0100978463223966,0.5,0.0201956926447933,0.986493827040533,11.1764525400716,2.49693661644499,0.5,71.9872159398552
CBC_1016,CBC_1016_MSI_TV_v3_Vset2_Tset3_2023-06-25_14h56.17.212.csv,1,4,2,1,z,0,1,1,tac,B,9,1,2B,1B,0,1,z,2.25795560000188,0,1,1,1,1B,2B,B21,2.94443897916644,0.510097846322397,0.5,0.5,0.5,0.5,0.510097846322397,0.5,0.5,0.5,0.5,0.5,0.5,0.5,0.5,0.5,0.510097846322397,0.504998449585434,0.495001550414566,0.510097846322397,0.5,0.20976231782594,0.568960231421113,0.489902153677603,0.00989391332169515,0.5,0.0201956926447933,0.986493827040533,11.1764525400716,2.49693661644499,0.5,71.9872159398552
CBC_1016,CBC_1016_MSI_TV_v3_Vset2_Tset3_2023-06-25_14h56.17.212.csv,1,5,0,2,b,1,0,2,tac,A,27,1,0A,2A,1,0,b,1.72340210000402,1,0,1,1,0A,2A,A02,2.99573227355399,0.510097846322397,0.5,0.5,0.5,0.5,0.519991759644092,0.5,0.5,0.5,0.5,0.5,0.5,0.5,0.5,0.5,0.510097846322397,0.504998449585434,0.495001550414566,0.510097846322397,0.5,0.312839417237416,0.569474017349218,0.489902153677603,0.00989391332169515,0.5,0.0201956926447933,0.986493827040533,11.1764525400716,2.49693661644499,0.5,71.9872159398552
CBC_1016,CBC_1016_MSI_TV_v3_Vset2_Tset3_2023-06-25_14h56.17.212.csv,1,6,2,3,b,1,0,3,tac,C,63,1,2C,3C,1,0,z,2.63511769999968,0,1,0,0,3C,2C,C23,3.04452243772342,0.519991759644092,0.5,0.5,0.5,0.5,0.519991759644092,0.5,0.5,0.5,0.5,0.5,0.5,0.5,0.5,0.5,0.510097846322397,0.5,0.5,0.5,0.5,0.136534535515855,0.499603500793074,-0.5,-0.0100978463223966,0.5,0.0201956926447933,0.986493827040533,11.1764525400716,2.49693661644499,0.5,71.9872159398552
CBC_1016,CBC_1016_MSI_TV_v3_Vset2_Tset3_2023-06-25_14h56.17.212.csv,1,7,1,3,z,0,1,0,tac,D,27,1,1D,3D,0,1,z,2.30741640000269,0,1,1,1,3D,1D,D13,3.09104245335832,0.519991759644092,0.5,0.5,0.5,0.5,0.519991759644092,0.5,0.5,0.5,0.5,0.5,0.489902153677603,0.5,0.5,0.5,0.510097846322397,0.504998449585434,0.495001550414566,0.510097846322397,0.5,0.201819866349814,0.56929237115003,0.489902153677603,0.00989391332169515,0.5,0.0201956926447933,0.986493827040533,11.1764525400716,2.49693661644499,0.5,71.9872159398552
CBC_1016,CBC_1016_MSI_TV_v3_Vset2_Tset3_2023-06-25_14h56.17.212.csv,1,8,1,0,z,0,1,2,tac,A,63,1,1A,0A,0,1,b,2.29211830000349,1,0,0,0,1A,0A,A10,3.13549421592915,0.519991759644092,0.5,0.5,0.5,0.5,0.519991759644092,0.5,0.5,0.5,0.5,0.5,0.489902153677603,0.5,0.5,0.5,0.519991759644092,0.490200038649789,0.509799961350211,0.5,0.519991759644092,0.132091843162654,0.366618179607125,-0.5,-0.0100978463223966,0.5,0.0201956926447933,0.986493827040533,11.1764525400716,2.49693661644499,0.5,71.9872159398552
CBC_1016,CBC_1016_MSI_TV_v3_Vset2_Tset3_2023-06-25_14h56.17.212.csv,1,9,2,0,b,1,0,3,tac,C,27,1,2C,0C,1,0,b,2.61927950000245,1,0,1,1,2C,0C,C20,3.17805383034795,0.519991759644092,0.489902153677603,0.5,0.5,0.5,0.519991759644092,0.5,0.5,0.5,0.5,0.5,0.489902153677603,0.5,0.5,0.5,0.519991759644092,0.5,0.5,0.5,0.5,0.13847266525152,0.500387776983117,0.5,0.0100978463223966,0.5,0.0201956926447933,0.986493827040533,11.1764525400716,2.49693661644499,0.5,71.9872159398552
CBC_1016,CBC_1016_MSI_TV_v3_Vset2_Tset3_2023-06-25_14h56.17.212.csv,1,10,2,3,z,0,1,0,tac,D,63,1,2D,3D,0,1,z,2.3202005000021,0,1,1,1,3D,2D,D23,2.52572864430826,0.519991759644092,0.489902153677603,0.5,0.5,0.5,0.519991759644092,0.5,0.5,0.5,0.5,0.510097846322397,0.489902153677603,0.5,0.5,0.5,0.519991759644092,0.509799961350211,0.490200038649789,0.519991759644092,0.5,0.22275915154112,0.632543298946381,0.480008240355908,0.00969409888919597,0.5,0.0201956926447933,0.986493827040533,11.1764525400716,2.49693661644499,0.5,71.9872159398552
CBC_1016,CBC_1016_MSI_TV_v3_Vset2_Tset3_2023-06-25_14h56.17.212.csv,1,11,1,0,b,1,0,1,tac,B,63,1,1B,0B,1,0,z,2.50163420000172,0,1,0,0,0B,1B,B10,3.25809653802148,0.519991759644092,0.489902153677603,0.5,0.5,0.5,0.519991759644092,0.5,0.5,0.5,0.5,0.510097846322397,0.489902153677603,0.5,0.5,0.5,0.529685858533288,0.490200038649789,0.509799961350211,0.5,0.519991759644092,0.111398657909639,0.366584347697086,-0.5,-0.0100978463223966,0.5,0.0201956926447933,0.986493827040533,11.1764525400716,2.49693661644499,0.5,71.9872159398552
CBC_1016,CBC_1016_MSI_TV_v3_Vset2_Tset3_2023-06-25_14h56.17.212.csv,1,12,0,1,b,1,0,2,tac,A,63,1,0A,1A,1,0,z,2.69494510000368,0,1,0,0,1A,0A,A01,2.60268968544438,0.519991759644092,0.489902153677603,0.5,0.5,0.489902153677603,0.519991759644092,0.5,0.5,0.5,0.5,0.510097846322397,0.489902153677603,0.5,0.5,0.5,0.529685858533288,0.485102590693156,0.514897409306845,0.489902153677603,0.519991759644092,0.077919199140603,0.302199869490943,-0.489902153677603,-0.00989391332169515,0.5,0.0201956926447933,0.986493827040533,11.1764525400716,2.49693661644499,0.5,71.9872159398552
CBC_1016,CBC_1016_MSI_TV_v3_Vset2_Tset3_2023-06-25_14h56.17.212.csv,1,13,2,3,z,0,1,0,tac,D,63,1,2D,3D,0,1,b,2.34718440000142,1,0,0,0,2D,3D,D23,2.23359222150709,0.519991759644092,0.480008240355908,0.5,0.5,0.489902153677603,0.519991759644092,0.5,0.5,0.5,0.5,0.510097846322397,0.489902153677603,0.5,0.5,0.5,0.529685858533288,0.48558499260368,0.51441500739632,0.5,0.529685858533288,0.106615381785435,0.308207692853414,-0.5,-0.0100978463223966,0.5,0.0201956926447933,0.986493827040533,11.1764525400716,2.49693661644499,0.5,71.9872159398552
CBC_1016,CBC_1016_MSI_TV_v3_Vset2_Tset3_2023-06-25_14h56.17.212.csv,1,14,2,0,b,1,0,3,tac,C,27,1,2C,0C,1,0,b,2.93021090000548,1,0,1,1,2C,0C,C20,2.67414864942653,0.519991759644092,0.480008240355908,0.5,0.5,0.489902153677603,0.519991759644092,0.5,0.5,0.5,0.5,0.510097846322397,0.489902153677603,0.5,0.5,0.489902153677603,0.529685858533288,0.504998449585434,0.495001550414566,0.510097846322397,0.5,0.122844846947039,0.569110571226615,0.489902153677603,0.00989391332169515,0.5,0.0201956926447933,0.986493827040533,11.1764525400716,2.49693661644499,0.5,71.9872159398552
CBC_1016,CBC_1016_MSI_TV_v3_Vset2_Tset3_2023-06-25_14h56.17.212.csv,1,15,0,1,b,1,0,2,tac,A,63,1,0A,1A,1,0,z,2.24476640000285,0,1,0,0,1A,0A,A01,2.30258509299405,0.519991759644092,0.480008240355908,0.5,0.5,0.489902153677603,0.519991759644092,0.5,0.5,0.5,0.5,0.519991759644092,0.489902153677603,0.5,0.5,0.489902153677603,0.529685858533288,0.480008240355908,0.519991759644092,0.480008240355908,0.519991759644092,0.0939467059814459,0.247015829848973,-0.480008240355908,-0.00969409888919597,0.5,0.0201956926447933,0.986493827040533,11.1764525400716,2.49693661644499,0.5,71.9872159398552
CBC_1016,CBC_1016_MSI_TV_v3_Vset2_Tset3_2023-06-25_14h56.17.212.csv,1,16,1,3,b,1,0,1,tac,B,27,1,1B,3B,1,0,z,2.67382310000175,0,1,0,0,3B,1B,B13,3.43398720448515,0.519991759644092,0.470314141466712,0.5,0.5,0.489902153677603,0.519991759644092,0.5,0.5,0.5,0.5,0.519991759644092,0.489902153677603,0.5,0.5,0.489902153677603,0.529685858533288,0.490200038649789,0.509799961350211,0.5,0.519991759644092,0.0969311451368752,0.367003419362421,-0.5,-0.0100978463223966,0.5,0.0201956926447933,0.986493827040533,11.1764525400716,2.49693661644499,0.5,71.9872159398552
CBC_1016,CBC_1016_MSI_TV_v3_Vset2_Tset3_2023-06-25_14h56.17.212.csv,1,17,3,2,z,0,1,3,tac,C,63,1,3C,2C,0,1,z,1.78840320000381,0,1,1,1,2C,3C,C32,3.46573590279973,0.519991759644092,0.470314141466712,0.5,0.5,0.489902153677603,0.519991759644092,0.5,0.489902153677603,0.5,0.5,0.519991759644092,0.489902153677603,0.5,0.5,0.489902153677603,0.529685858533288,0.514897409306845,0.485102590693156,0.519991759644092,0.489902153677603,0.379918263763066,0.696622841841987,0.480008240355908,0.00969409888919597,0.5,0.0201956926447933,0.986493827040533,11.1764525400716,2.49693661644499,0.5,71.9872159398552
CBC_1016,CBC_1016_MSI_TV_v3_Vset2_Tset3_2023-06-25_14h56.17.212.csv,1,18,2,3,z,0,1,0,tac,D,63,0,2D,3D,1,0,z,2.29047910000372,0,1,1,0,3D,2D,D23,2.11021320034659,0.519991759644092,0.470314141466712,0.5,0.5,0.489902153677603,0.519991759644092,0.5,0.489902153677603,0.5,0.5,0.529685858533288,0.489902153677603,0.5,0.5,0.489902153677603,0.529685858533288,0.519509696259285,0.480490303740715,0.529685858533288,0.489902153677603,0.273386040863483,0.748843246747289,-0.529685858533288,-0.0106973727972317,0.5,0.0201956926447933,0.986493827040533,11.1764525400716,2.49693661644499,0.5,71.9872159398552
CBC_1016,CBC_1016_MSI_TV_v3_Vset2_Tset3_2023-06-25_14h56.17.212.csv,1,19,1,0,b,1,0,1,tac,B,63,1,1B,0B,1,0,b,3.27940730000046,1,0,1,1,1B,0B,B10,2.83321334405622,0.519991759644092,0.470314141466712,0.5,0.5,0.489902153677603,0.519991759644092,0.5,0.489902153677603,0.5,0.5,0.529685858533288,0.489902153677603,0.5,0.5,0.489902153677603,0.518988485736056,0.514897409306845,0.485102590693156,0.519991759644092,0.489902153677603,0.109474632506279,0.696216684597938,0.480008240355908,0.00969409888919597,0.5,0.0201956926447933,0.986493827040533,11.1764525400716,2.49693661644499,0.5,71.9872159398552
CBC_1016,CBC_1016_MSI_TV_v3_Vset2_Tset3_2023-06-25_14h56.17.212.csv,1,20,2,0,z,0,1,2,tac,A,27,1,2A,0A,0,1,z,2.73082460000296,0,1,1,1,0A,2A,A20,3.55534806148941,0.519991759644092,0.470314141466712,0.5,0.5,0.489902153677603,0.529685858533288,0.5,0.489902153677603,0.5,0.5,0.529685858533288,0.489902153677603,0.5,0.5,0.489902153677603,0.518988485736056,0.509799961350211,0.490200038649789,0.519991759644092,0.5,0.159771956757442,0.633737496384506,0.480008240355908,0.00969409888919597,0.5,0.0201956926447933,0.986493827040533,11.1764525400716,2.49693661644499,0.5,71.9872159398552
CBC_1016,CBC_1016_MSI_TV_v3_Vset2_Tset3_2023-06-25_14h56.17.212.csv,1,21,0,3,z,0,1,0,tac,D,9,1,0D,3D,0,1,z,3.18649170000208,0,1,1,1,3D,0D,D03,3.58351893845611,0.529685858533288,0.470314141466712,0.5,0.5,0.489902153677603,0.529685858533288,0.5,0.489902153677603,0.5,0.5,0.529685858533288,0.489902153677603,0.5,0.5,0.489902153677603,0.518988485736056,0.509317321050169,0.490682678949831,0.518988485736056,0.5,0.109224400806907,0.62720094979157,0.481011514263944,0.0097143607006812,0.5,0.0201956926447933,0.986493827040533,11.1764525400716,2.49693661644499,0.5,71.9872159398552
CBC_1016,CBC_1016_MSI_TV_v3_Vset2_Tset3_2023-06-25_14h56.17.212.csv,1,22,2,3,b,1,0,3,tac,C,63,1,2C,3C,1,0,b,1.36447970000518,1,0,1,1,2C,3C,C23,2.91777073208428,0.529685858533288,0.470314141466712,0.5,0.5,0.489902153677603,0.529685858533288,0.5,0.489902153677603,0.5,0.5,0.529685858533288,0.489902153677603,0.5,0.5,0.489902153677603,0.528702846436737,0.519509696259285,0.480490303740715,0.529685858533288,0.489902153677603,0.453371726815784,0.748147195582136,0.470314141466712,0.00949831984756154,0.5,0.0201956926447933,0.986493827040533,11.1764525400716,2.49693661644499,0.5,71.9872159398552
CBC_1016,CBC_1016_MSI_TV_v3_Vset2_Tset3_2023-06-25_14h56.17.212.csv,1,23,3,1,z,0,1,1,tac,B,27,1,3B,1B,0,1,z,2.98785760000101,0,1,1,1,1B,3B,B31,3.63758615972639,0.529685858533288,0.470314141466712,0.5,0.5,0.489902153677603,0.529685858533288,0.5,0.489902153677603,0.5,0.5,0.539184178380849,0.489902153677603,0.5,0.5,0.489902153677603,0.528702846436737,0.519509696259285,0.480490303740715,0.529685858533288,0.489902153677603,0.147288465315072,0.748171715117732,0.470314141466712,0.00949831984756154,0.5,0.0201956926447933,0.986493827040533,11.1764525400716,2.49693661644499,0.5,71.9872159398552
CBC_1016,CBC_1016_MSI_TV_v3_Vset2_Tset3_2023-06-25_14h56.17.212.csv,1,24,3,2,z,0,1,3,tac,C,63,1,3C,2C,0,1,z,1.84730630000558,0,1,1,1,2C,3C,C32,2.9704144655697,0.529685858533288,0.470314141466712,0.5,0.5,0.489902153677603,0.539184178380849,0.5,0.489902153677603,0.5,0.5,0.539184178380849,0.489902153677603,0.5,0.5,0.489902153677603,0.528702846436737,0.523944553128341,0.476055446871659,0.539184178380849,0.489902153677603,0.434374702616121,0.79239138578383,0.460815821619151,0.00930649469927824,0.5,0.0201956926447933,0.986493827040533,11.1764525400716,2.49693661644499,0.5,71.9872159398552
CBC_1016,CBC_1016_MSI_TV_v3_Vset2_Tset3_2023-06-25_14h56.17.212.csv,1,25,2,3,z,0,1,0,tac,D,63,1,2D,3D,0,1,z,2.09773660000428,0,1,1,1,3D,2D,D23,2.07944154167984,0.529685858533288,0.470314141466712,0.5,0.5,0.489902153677603,0.539184178380849,0.5,0.489902153677603,0.5,0.5,0.548490673080128,0.489902153677603,0.5,0.5,0.489902153677603,0.528702846436737,0.519045995628717,0.480954004371283,0.528702846436737,0.489902153677603,0.321587288472952,0.744683914629468,0.471297153563263,0.00951817245772959,0.5,0.0201956926447933,0.986493827040533,11.1764525400716,2.49693661644499,0.5,71.9872159398552
CBC_1016,CBC_1016_MSI_TV_v3_Vset2_Tset3_2023-06-25_14h56.17.212.csv,1,26,1,0,b,1,0,1,tac,B,63,1,1B,0B,1,0,b,2.75469850000081,1,0,1,1,1B,0B,B10,2.6149597780362,0.529685858533288,0.470314141466712,0.5,0.5,0.489902153677603,0.539184178380849,0.5,0.489902153677603,0.5,0.5,0.548490673080128,0.489902153677603,0.5,0.5,0.489902153677603,0.538221018894467,0.523944553128341,0.476055446871659,0.539184178380849,0.489902153677603,0.188139071625466,0.791177230241064,0.460815821619151,0.00930649469927824,0.5,0.0201956926447933,0.986493827040533,11.1764525400716,2.49693661644499,0.5,71.9872159398552
CBC_1016,CBC_1016_MSI_TV_v3_Vset2_Tset3_2023-06-25_14h56.17.212.csv,1,27,0,3,b,1,0,2,tac,A,9,1,0A,3A,1,0,b,3.30740410000362,1,0,1,1,0A,3A,A03,3.73766961828337,0.529685858533288,0.470314141466712,0.5,0.5,0.489902153677603,0.548490673080128,0.5,0.489902153677603,0.5,0.5,0.548490673080128,0.489902153677603,0.5,0.5,0.489902153677603,0.538221018894467,0.51441500739632,0.48558499260368,0.529685858533288,0.5,0.106375624700219,0.690781467545849,0.470314141466712,0.00949831984756154,0.5,0.0201956926447933,0.986493827040533,11.1764525400716,2.49693661644499,0.5,71.9872159398552
CBC_1016,CBC_1016_MSI_TV_v3_Vset2_Tset3_2023-06-25_14h56.17.212.csv,1,28,2,3,z,0,1,0,tac,D,63,1,2D,3D,0,1,z,1.82640270000411,0,1,1,1,3D,2D,D23,1.96944064646551,0.539184178380849,0.470314141466712,0.5,0.5,0.489902153677603,0.548490673080128,0.5,0.489902153677603,0.5,0.5,0.548490673080128,0.489902153677603,0.5,0.5,0.489902153677603,0.538221018894467,0.523498578042932,0.476501421957068,0.538221018894467,0.489902153677603,0.437789354379378,0.787295493995365,0.461778981105533,0.00932594637223314,0.5,0.0201956926447933,0.986493827040533,11.1764525400716,2.49693661644499,0.5,71.9872159398552
CBC_1016,CBC_1016_MSI_TV_v3_Vset2_Tset3_2023-06-25_14h56.17.212.csv,1,29,2,0,b,1,0,3,tac,C,27,1,2C,0C,1,0,b,2.00218970000424,1,0,1,1,2C,0C,C20,2.68557734525015,0.539184178380849,0.470314141466712,0.5,0.5,0.489902153677603,0.548490673080128,0.5,0.489902153677603,0.5,0.5,0.548490673080128,0.489902153677603,0.5,0.5,0.489902153677603,0.5475469652667,0.523124036448354,0.476875963551646,0.548490673080128,0.5,0.373846406168542,0.784620807297867,0.451509326919872,0.00911854359273123,0.5,0.0201956926447933,0.986493827040533,11.1764525400716,2.49693661644499,0.5,71.9872159398552
CBC_1016,CBC_1016_MSI_TV_v3_Vset2_Tset3_2023-06-25_14h56.17.212.csv,1,30,1,0,z,0,1,2,tac,A,63,1,1A,0A,0,1,b,1.58426370000234,1,0,0,0,1A,0A,A10,3.11351530921037,0.539184178380849,0.470314141466712,0.5,0.5,0.489902153677603,0.548490673080128,0.5,0.489902153677603,0.5,0.5,0.557609216672859,0.489902153677603,0.5,0.5,0.489902153677603,0.5475469652667,0.465888978931368,0.534111021068632,0.470314141466712,0.539184178380849,0.0948027196895081,0.129467709950917,-0.470314141466712,-0.00949831984756154,0.5,0.0201956926447933,0.986493827040533,11.1764525400716,2.49693661644499,0.5,71.9872159398552
CBC_1016,CBC_1016_MSI_TV_v3_Vset2_Tset3_2023-06-25_14h56.17.212.csv,1,31,1,0,b,1,0,1,tac,B,63,1,1B,0B,1,0,b,1.89512440000544,1,0,1,1,1B,0B,B10,2.4423470353692,0.539184178380849,0.460815821619151,0.5,0.5,0.489902153677603,0.548490673080128,0.5,0.489902153677603,0.5,0.5,0.557609216672859,0.489902153677603,0.5,0.5,0.489902153677603,0.5475469652667,0.528211153762233,0.471788846237767,0.548490673080128,0.489902153677603,0.445963187768836,0.828436768463481,0.451509326919872,0.00911854359273123,0.5,0.0201956926447933,0.986493827040533,11.1764525400716,2.49693661644499,0.5,71.9872159398552
CBC_1016,CBC_1016_MSI_TV_v3_Vset2_Tset3_2023-06-25_14h56.17.212.csv,1,32,3,1,b,1,0,0,tac,D,27,1,3D,1D,1,0,b,1.84570010000243,1,0,1,1,3D,1D,D31,3.85014760171006,0.539184178380849,0.460815821619151,0.5,0.5,0.489902153677603,0.557609216672859,0.5,0.489902153677603,0.5,0.5,0.557609216672859,0.489902153677603,0.5,0.5,0.489902153677603,0.5475469652667,0.522694431296737,0.477305568703263,0.5475469652667,0.5,0.424631804897183,0.779777330593066,0.4524530347333,0.0091376024256777,0.5,0.0201956926447933,0.986493827040533,11.1764525400716,2.49693661644499,0.5,71.9872159398552
CBC_1016,CBC_1016_MSI_TV_v3_Vset2_Tset3_2023-06-25_14h56.17.212.csv,1,33,3,2,z,0,1,3,tac,C,63,1,3C,2C,0,1,z,2.17410230000314,0,1,1,1,2C,3C,C32,2.77258872223978,0.539184178380849,0.460815821619151,0.5,0.5,0.489902153677603,0.557609216672859,0.5,0.489902153677603,0.5,0.5,0.557609216672859,0.489902153677603,0.5,0.5,0.489902153677603,0.556684567692378,0.532318056353223,0.467681943646777,0.557609216672859,0.489902153677603,0.355162578261986,0.858483588874227,0.442390783327141,0.00893438828896428,0.5,0.0201956926447933,0.986493827040533,11.1764525400716,2.49693661644499,0.5,71.9872159398552
CBC_1016,CBC_1016_MSI_TV_v3_Vset2_Tset3_2023-06-25_14h56.17.212.csv,1,34,1,0,b,1,0,1,tac,B,63,1,1B,0B,1,0,b,2.39900370000032,1,0,1,1,1B,0B,B10,2.28238238567653,0.539184178380849,0.460815821619151,0.5,0.5,0.489902153677603,0.557609216672859,0.5,0.489902153677603,0.5,0.5,0.566543604961823,0.489902153677603,0.5,0.5,0.489902153677603,0.556684567692378,0.532318056353223,0.467681943646777,0.557609216672859,0.489902153677603,0.280690822096208,0.858575737300972,0.442390783327141,0.00893438828896428,0.5,0.0201956926447933,0.986493827040533,11.1764525400716,2.49693661644499,0.5,71.9872159398552
CBC_1016,CBC_1016_MSI_TV_v3_Vset2_Tset3_2023-06-25_14h56.17.212.csv,1,35,0,1,b,1,0,2,tac,A,63,1,0A,1A,1,0,b,2.73963930000173,1,0,1,1,0A,1A,A01,2.52572864430826,0.539184178380849,0.460815821619151,0.5,0.5,0.489902153677603,0.566543604961823,0.5,0.489902153677603,0.5,0.5,0.566543604961823,0.489902153677603,0.5,0.5,0.489902153677603,0.556684567692378,0.539184178380849,0.460815821619151,0.539184178380849,0.460815821619151,0.191606322845223,0.899292025500451,0.460815821619151,0.00930649469927824,0.5,0.0201956926447933,0.986493827040533,11.1764525400716,2.49693661644499,0.5,71.9872159398552
CBC_1016,CBC_1016_MSI_TV_v3_Vset2_Tset3_2023-06-25_14h56.17.212.csv,1,36,1,2,z,0,1,3,tac,C,9,1,1C,2C,0,1,z,1.11612090000563,0,1,1,1,2C,1C,C12,3.93182563272433,0.548490673080128,0.460815821619151,0.5,0.5,0.489902153677603,0.566543604961823,0.5,0.489902153677603,0.5,0.5,0.566543604961823,0.489902153677603,0.5,0.5,0.489902153677603,0.556684567692378,0.531195913909308,0.468804086090692,0.566543604961823,0.5,0.0605742708683275,0.851264810360754,0.433456395038177,0.00875395212911111,0.5,0.0201956926447933,0.986493827040533,11.1764525400716,2.49693661644499,0.5,71.9872159398552
CBC_1016,CBC_1016_MSI_TV_v3_Vset2_Tset3_2023-06-25_14h56.17.212.csv,1,37,1,0,z,0,1,2,tac,A,63,1,1A,0A,0,1,b,2.28124340000431,1,0,0,0,1A,0A,A10,2.85263142991332,0.548490673080128,0.460815821619151,0.5,0.5,0.489902153677603,0.566543604961823,0.5,0.489902153677603,0.5,0.5,0.575297557090934,0.489902153677603,0.5,0.5,0.489902153677603,0.556684567692378,0.456566785252333,0.543433214747667,0.460815821619151,0.548490673080128,0.0292726121988125,0.0815123277608822,-0.460815821619151,-0.00930649469927824,0.5,0.0201956926447933,0.986493827040533,11.1764525400716,2.49693661644499,0.5,71.9872159398552
CBC_1016,CBC_1016_MSI_TV_v3_Vset2_Tset3_2023-06-25_14h56.17.212.csv,1,38,3,1,b,1,0,0,tac,D,27,1,3D,1D,1,0,b,2.22674390000248,1,0,1,1,3D,1D,D31,3.27714473299218,0.548490673080128,0.451509326919872,0.5,0.5,0.489902153677603,0.566543604961823,0.5,0.489902153677603,0.5,0.5,0.575297557090934,0.489902153677603,0.5,0.5,0.489902153677603,0.556684567692378,0.52682189625243,0.47317810374757,0.556684567692378,0.5,0.319142016909224,0.817504920643985,0.443315432307622,0.00895306221557839,0.5,0.0201956926447933,0.986493827040533,11.1764525400716,2.49693661644499,0.5,71.9872159398552
CBC_1016,CBC_1016_MSI_TV_v3_Vset2_Tset3_2023-06-25_14h56.17.212.csv,1,39,0,1,z,0,1,1,tac,B,63,1,0B,1B,0,1,b,2.59629680000216,1,0,0,0,0B,1B,B01,3.29583686600433,0.548490673080128,0.451509326919872,0.5,0.5,0.489902153677603,0.566543604961823,0.5,0.489902153677603,0.5,0.5,0.575297557090934,0.489902153677603,0.5,0.5,0.489902153677603,0.565637629907956,0.463726745714364,0.536273254285636,0.489902153677603,0.566543604961823,0.0301058225648554,0.116455803925744,-0.489902153677603,-0.00989391332169515,0.5,0.0201956926447933,0.986493827040533,11.1764525400716,2.49693661644499,0.5,71.9872159398552
CBC_1016,CBC_1016_MSI_TV_v3_Vset2_Tset3_2023-06-25_14h56.17.212.csv,1,40,2,3,b,1,0,3,tac,C,63,0,2C,3C,0,1,b,2.04378850000285,1,0,1,0,2C,3C,C23,2.90872089656436,0.548490673080128,0.451509326919872,0.5,0.5,0.480008240355908,0.566543604961823,0.5,0.489902153677603,0.5,0.5,0.575297557090934,0.489902153677603,0.5,0.5,0.489902153677603,0.565637629907956,0.540084222024299,0.459915777975701,0.575297557090934,0.489902153677603,0.435025226491735,0.90311386210329,-0.575297557090934,-0.0116185326423089,0.5,0.0201956926447933,0.986493827040533,11.1764525400716,2.49693661644499,0.5,71.9872159398552
CBC_1016,CBC_1016_MSI_TV_v3_Vset2_Tset3_2023-06-25_14h56.17.212.csv,1,41,2,0,z,0,1,2,tac,A,27,1,2A,0A,0,1,z,2.26194130000295,0,1,1,1,0A,2A,A20,3.3322045101752,0.548490673080128,0.451509326919872,0.5,0.5,0.480008240355908,0.566543604961823,0.5,0.489902153677603,0.5,0.5,0.563679024448625,0.489902153677603,0.5,0.5,0.489902153677603,0.565637629907956,0.523124036448354,0.476875963551646,0.548490673080128,0.5,0.294815050370184,0.783907393915789,0.451509326919872,0.00911854359273123,0.5,0.0201956926447933,0.986493827040533,11.1764525400716,2.49693661644499,0.5,71.9872159398552
CBC_1016,CBC_1016_MSI_TV_v3_Vset2_Tset3_2023-06-25_14h56.17.212.csv,1,42,3,2,b,1,0,0,tac,D,63,1,3D,2D,1,0,b,1.96135020000293,1,0,1,1,3D,2D,D32,4.04305126783455,0.557609216672859,0.451509326919872,0.5,0.5,0.480008240355908,0.566543604961823,0.5,0.489902153677603,0.5,0.5,0.563679024448625,0.489902153677603,0.5,0.5,0.489902153677603,0.565637629907956,0.535875235309979,0.464124764690021,0.565637629907956,0.489902153677603,0.460433562321619,0.881029009506274,0.434362370092044,0.00877224892284286,0.5,0.0201956926447933,0.986493827040533,11.1764525400716,2.49693661644499,0.5,71.9872159398552
CBC_1016,CBC_1016_MSI_TV_v3_Vset2_Tset3_2023-06-25_14h56.17.212.csv,1,43,3,1,z,0,1,1,tac,B,27,1,3B,1B,0,1,z,1.85684090000359,0,1,1,1,1B,3B,B31,3.36729582998647,0.557609216672859,0.451509326919872,0.5,0.5,0.480008240355908,0.566543604961823,0.5,0.489902153677603,0.5,0.5,0.563679024448625,0.489902153677603,0.5,0.5,0.489902153677603,0.574409878830799,0.536273254285636,0.463726745714364,0.566543604961823,0.489902153677603,0.516932319480565,0.883567207255787,0.433456395038177,0.00875395212911111,0.5,0.0201956926447933,0.986493827040533,11.1764525400716,2.49693661644499,0.5,71.9872159398552
CBC_1016,CBC_1016_MSI_TV_v3_Vset2_Tset3_2023-06-25_14h56.17.212.csv,1,44,2,3,b,1,0,3,tac,C,63,1,2C,3C,1,0,b,1.44463670000187,1,0,1,1,2C,3C,C23,2.69124308278583,0.557609216672859,0.451509326919872,0.5,0.5,0.480008240355908,0.575297557090934,0.5,0.489902153677603,0.5,0.5,0.563679024448625,0.489902153677603,0.5,0.5,0.489902153677603,0.574409878830799,0.535012428231792,0.464987571768208,0.563679024448625,0.489902153677603,0.675764586507564,0.875458798764082,0.436320975551375,0.00881180431671192,0.5,0.0201956926447933,0.986493827040533,11.1764525400716,2.49693661644499,0.5,71.9872159398552
CBC_1016,CBC_1016_MSI_AV_v3_Vset4_Aset1_2023-06-25_15h20.06.953.csv,2,1,0,1,z,0,1,1,aud,B,63,1,0B,1B,0,1,z,2.35650669999814,0,1,1,1,1B,0B,B01,2.77258872223978,0.5,0.5,0.5,0.5,0.5,0.5,0.5,0.5,0.5,0.5,0.5,0.5,0.5,0.5,0.5,0.5,0.5,0.5,0.5,0.5,0.135091846162433,0.500043701598744,0.5,0.0203357374833278,0.5,0.0406714749666556,0.666372022450683,12.6903828958279,2.59099999619707,0.5,52.1824055055661
CBC_1016,CBC_1016_MSI_AV_v3_Vset4_Aset1_2023-06-25_15h20.06.953.csv,2,2,0,1,b,1,0,2,aud,A,63,1,0A,1A,1,0,b,2.2296920000008,1,0,1,1,0A,1A,A01,2.83321334405622,0.5,0.5,0.5,0.5,0.5,0.520335737483328,0.5,0.5,0.5,0.5,0.5,0.5,0.5,0.5,0.5,0.5,0.5,0.5,0.5,0.5,0.148340180852109,0.500291116958742,0.5,0.0203357374833278,0.5,0.0406714749666556,0.666372022450683,12.6903828958279,2.59099999619707,0.5,52.1824055055661
CBC_1016,CBC_1016_MSI_AV_v3_Vset4_Aset1_2023-06-25_15h20.06.953.csv,2,3,2,3,z,0,1,0,aud,D,63,1,2D,3D,0,1,z,1.77956080000149,0,1,1,1,3D,2D,D23,2.89037175789616,0.520335737483328,0.5,0.5,0.5,0.5,0.520335737483328,0.5,0.5,0.5,0.5,0.5,0.5,0.5,0.5,0.5,0.5,0.5,0.5,0.5,0.5,0.205786835584094,0.500521466191494,0.5,0.0203357374833278,0.5,0.0406714749666556,0.666372022450683,12.6903828958279,2.59099999619707,0.5,52.1824055055661
CBC_1016,CBC_1016_MSI_AV_v3_Vset4_Aset1_2023-06-25_15h20.06.953.csv,2,4,2,1,z,0,1,1,aud,B,9,1,2B,1B,0,1,z,1.22099159999925,0,1,1,1,1B,2B,B21,2.94443897916644,0.520335737483328,0.5,0.5,0.5,0.5,0.520335737483328,0.5,0.5,0.5,0.5,0.5,0.5,0.5,0.5,0.5,0.520335737483328,0.50996521867081,0.49003478132919,0.520335737483328,0.5,0.376108071986051,0.658756722853095,0.479664262516672,0.0195086530453461,0.5,0.0406714749666556,0.666372022450683,12.6903828958279,2.59099999619707,0.5,52.1824055055661
CBC_1016,CBC_1016_MSI_AV_v3_Vset4_Aset1_2023-06-25_15h20.06.953.csv,2,5,0,2,b,1,0,2,aud,A,27,1,0A,2A,1,0,b,2.2657913999974,1,0,1,1,0A,2A,A02,2.99573227355399,0.520335737483328,0.5,0.5,0.5,0.5,0.539844390528674,0.5,0.5,0.5,0.5,0.5,0.5,0.5,0.5,0.5,0.520335737483328,0.50996521867081,0.49003478132919,0.520335737483328,0.5,0.190533475586616,0.658781901842746,0.479664262516672,0.0195086530453461,0.5,0.0406714749666556,0.666372022450683,12.6903828958279,2.59099999619707,0.5,52.1824055055661
CBC_1016,CBC_1016_MSI_AV_v3_Vset4_Aset1_2023-06-25_15h20.06.953.csv,2,6,2,3,b,1,0,3,aud,C,63,1,2C,3C,1,0,b,2.15061939999941,1,0,1,1,2C,3C,C23,3.04452243772342,0.539844390528674,0.5,0.5,0.5,0.5,0.539844390528674,0.5,0.5,0.5,0.5,0.5,0.5,0.5,0.5,0.5,0.520335737483328,0.5,0.5,0.5,0.5,0.156960257146978,0.499561443782437,0.5,0.0203357374833278,0.5,0.0406714749666556,0.666372022450683,12.6903828958279,2.59099999619707,0.5,52.1824055055661
CBC_1016,CBC_1016_MSI_AV_v3_Vset4_Aset1_2023-06-25_15h20.06.953.csv,2,7,1,3,z,0,1,0,aud,D,27,1,1D,3D,0,1,z,1.35020900000018,0,1,1,1,3D,1D,D13,3.09104245335832,0.539844390528674,0.5,0.5,0.5,0.5,0.539844390528674,0.5,0.5,0.5,0.5,0.520335737483328,0.5,0.5,0.5,0.5,0.520335737483328,0.50996521867081,0.49003478132919,0.520335737483328,0.5,0.363825830109113,0.65842578132178,0.479664262516672,0.0195086530453461,0.5,0.0406714749666556,0.666372022450683,12.6903828958279,2.59099999619707,0.5,52.1824055055661
CBC_1016,CBC_1016_MSI_AV_v3_Vset4_Aset1_2023-06-25_15h20.06.953.csv,2,8,1,0,z,0,1,2,aud,A,63,1,1A,0A,0,1,z,1.78558730000077,0,1,1,1,0A,1A,A10,3.13549421592915,0.539844390528674,0.5,0.5,0.5,0.5,0.539844390528674,0.5,0.5,0.5,0.5,0.520335737483328,0.5,0.5,0.5,0.5,0.539844390528674,0.519158823614183,0.480841176385817,0.539844390528674,0.5,0.336512596674147,0.778703306594194,0.460155609471326,0.0187152073513792,0.5,0.0406714749666556,0.666372022450683,12.6903828958279,2.59099999619707,0.5,52.1824055055661
CBC_1016,CBC_1016_MSI_AV_v3_Vset4_Aset1_2023-06-25_15h20.06.953.csv,2,9,2,0,b,1,0,3,aud,C,27,1,2C,0C,1,0,b,2.73195439999836,1,0,1,1,2C,0C,C20,3.17805383034795,0.558559597880053,0.5,0.5,0.5,0.5,0.539844390528674,0.5,0.5,0.5,0.5,0.520335737483328,0.5,0.5,0.5,0.5,0.539844390528674,0.50996521867081,0.49003478132919,0.520335737483328,0.5,0.133070272766846,0.657660101452792,0.479664262516672,0.0195086530453461,0.5,0.0406714749666556,0.666372022450683,12.6903828958279,2.59099999619707,0.5,52.1824055055661
CBC_1016,CBC_1016_MSI_AV_v3_Vset4_Aset1_2023-06-25_15h20.06.953.csv,2,10,2,3,z,0,1,0,aud,D,63,1,2D,3D,0,1,z,2.32604640000136,0,1,1,1,3D,2D,D23,2.52572864430826,0.558559597880053,0.5,0.5,0.5,0.5,0.539844390528674,0.5,0.5,0.5,0.5,0.539844390528674,0.5,0.5,0.5,0.5,0.539844390528674,0.519158823614183,0.480841176385817,0.539844390528674,0.5,0.213147081883912,0.779024137979644,0.460155609471326,0.0187152073513792,0.5,0.0406714749666556,0.666372022450683,12.6903828958279,2.59099999619707,0.5,52.1824055055661
CBC_1016,CBC_1016_MSI_AV_v3_Vset4_Aset1_2023-06-25_15h20.06.953.csv,2,11,1,0,b,1,0,1,aud,B,63,1,1B,0B,1,0,b,1.06003950000013,1,0,1,1,1B,0B,B10,3.25809653802148,0.558559597880053,0.5,0.5,0.5,0.5,0.539844390528674,0.5,0.5,0.5,0.5,0.539844390528674,0.5,0.5,0.5,0.5,0.558559597880053,0.519158823614183,0.480841176385817,0.539844390528674,0.5,0.445169909912721,0.779254385945783,0.460155609471326,0.0187152073513792,0.5,0.0406714749666556,0.666372022450683,12.6903828958279,2.59099999619707,0.5,52.1824055055661
CBC_1016,CBC_1016_MSI_AV_v3_Vset4_Aset1_2023-06-25_15h20.06.953.csv,2,12,0,1,b,1,0,2,aud,A,63,1,0A,1A,1,0,b,1.37840510000024,1,0,1,1,0A,1A,A01,2.60268968544438,0.558559597880053,0.5,0.5,0.5,0.5,0.558559597880053,0.5,0.5,0.5,0.5,0.539844390528674,0.5,0.5,0.5,0.5,0.558559597880053,0.527660038224267,0.472339961775733,0.558559597880053,0.5,0.551094786951409,0.860249853697778,0.441440402119947,0.0179540322640918,0.5,0.0406714749666556,0.666372022450683,12.6903828958279,2.59099999619707,0.5,52.1824055055661
CBC_1016,CBC_1016_MSI_AV_v3_Vset4_Aset1_2023-06-25_15h20.06.953.csv,2,13,2,3,z,0,1,0,aud,D,63,1,2D,3D,0,1,z,2.28112479999982,0,1,1,1,3D,2D,D23,2.23359222150709,0.576513630144145,0.5,0.5,0.5,0.5,0.558559597880053,0.5,0.5,0.5,0.5,0.539844390528674,0.5,0.5,0.5,0.5,0.558559597880053,0.527660038224267,0.472339961775733,0.558559597880053,0.5,0.23808155242527,0.860148783909631,0.441440402119947,0.0179540322640918,0.5,0.0406714749666556,0.666372022450683,12.6903828958279,2.59099999619707,0.5,52.1824055055661
CBC_1016,CBC_1016_MSI_AV_v3_Vset4_Aset1_2023-06-25_15h20.06.953.csv,2,14,2,0,b,1,0,3,aud,C,27,1,2C,0C,1,0,z,2.73422829999981,0,1,0,0,0C,2C,C20,2.67414864942653,0.576513630144145,0.5,0.5,0.5,0.5,0.558559597880053,0.5,0.5,0.5,0.5,0.539844390528674,0.5,0.5,0.5,0.5,0.576513630144145,0.480841176385817,0.519158823614183,0.5,0.539844390528674,0.0426979059712242,0.221035757991117,-0.5,-0.0203357374833278,0.5,0.0406714749666556,0.666372022450683,12.6903828958279,2.59099999619707,0.5,52.1824055055661
CBC_1016,CBC_1016_MSI_AV_v3_Vset4_Aset1_2023-06-25_15h20.06.953.csv,2,15,0,1,b,1,0,2,aud,A,63,1,0A,1A,1,0,b,2.288641799998,1,0,1,1,0A,1A,A01,2.30258509299405,0.576513630144145,0.5,0.5,0.5,0.5,0.558559597880053,0.5,0.5,0.479664262516672,0.5,0.539844390528674,0.5,0.5,0.5,0.5,0.576513630144145,0.535537696877047,0.464462303122953,0.576513630144145,0.5,0.236057163728287,0.912156968503615,0.423486369855855,0.0172238152903123,0.5,0.0406714749666556,0.666372022450683,12.6903828958279,2.59099999619707,0.5,52.1824055055661
CBC_1016,CBC_1016_MSI_AV_v3_Vset4_Aset1_2023-06-25_15h20.06.953.csv,2,16,1,3,b,1,0,1,aud,B,27,1,1B,3B,1,0,b,1.2178795999971,1,0,1,1,1B,3B,B13,3.43398720448515,0.593737445434457,0.5,0.5,0.5,0.5,0.558559597880053,0.5,0.5,0.479664262516672,0.5,0.539844390528674,0.5,0.5,0.5,0.5,0.576513630144145,0.527660038224267,0.472339961775733,0.558559597880053,0.5,0.598370065301534,0.86107795096954,0.441440402119947,0.0179540322640918,0.5,0.0406714749666556,0.666372022450683,12.6903828958279,2.59099999619707,0.5,52.1824055055661
CBC_1016,CBC_1016_MSI_AV_v3_Vset4_Aset1_2023-06-25_15h20.06.953.csv,2,17,3,2,z,0,1,3,aud,C,63,1,3C,2C,0,1,b,2.64043820000006,1,0,0,0,3C,2C,C32,3.46573590279973,0.593737445434457,0.5,0.5,0.5,0.5,0.576513630144145,0.5,0.5,0.479664262516672,0.5,0.539844390528674,0.5,0.5,0.5,0.5,0.576513630144145,0.480841176385817,0.519158823614183,0.5,0.539844390528674,0.0462457263270148,0.220996938054182,-0.5,-0.0203357374833278,0.5,0.0406714749666556,0.666372022450683,12.6903828958279,2.59099999619707,0.5,52.1824055055661
CBC_1016,CBC_1016_MSI_AV_v3_Vset4_Aset1_2023-06-25_15h20.06.953.csv,2,18,2,3,z,0,1,0,aud,D,63,0,2D,3D,1,0,z,1.43723390000014,0,1,1,0,3D,2D,D23,2.11021320034659,0.593737445434457,0.5,0.5,0.5,0.5,0.576513630144145,0.5,0.5,0.479664262516672,0.5,0.539844390528674,0.479664262516672,0.5,0.5,0.5,0.576513630144145,0.535537696877047,0.464462303122953,0.576513630144145,0.5,0.604030512684575,0.911792551477168,-0.576513630144145,-0.0234476596763433,0.5,0.0406714749666556,0.666372022450683,12.6903828958279,2.59099999619707,0.5,52.1824055055661
CBC_1016,CBC_1016_MSI_AV_v3_Vset4_Aset1_2023-06-25_15h20.06.953.csv,2,19,1,0,b,1,0,1,aud,B,63,1,1B,0B,1,0,b,1.20338799999809,1,0,1,1,1B,0B,B10,2.83321334405622,0.593737445434457,0.5,0.5,0.5,0.5,0.576513630144145,0.5,0.5,0.479664262516672,0.5,0.539844390528674,0.479664262516672,0.5,0.5,0.5,0.553065970467801,0.535537696877047,0.464462303122953,0.576513630144145,0.5,0.71145488317271,0.911792073740386,0.423486369855855,0.0172238152903123,0.5,0.0406714749666556,0.666372022450683,12.6903828958279,2.59099999619707,0.5,52.1824055055661
CBC_1016,CBC_1016_MSI_AV_v3_Vset4_Aset1_2023-06-25_15h20.06.953.csv,2,20,2,0,z,0,1,2,aud,A,27,1,2A,0A,0,1,z,2.16489969999748,0,1,1,1,0A,2A,A20,3.55534806148941,0.593737445434457,0.5,0.5,0.5,0.5,0.593737445434457,0.5,0.5,0.479664262516672,0.5,0.539844390528674,0.479664262516672,0.5,0.5,0.5,0.553065970467801,0.542851895500946,0.457148104499054,0.593737445434457,0.5,0.262354754351004,0.943396999421329,0.406262554565543,0.016523297317902,0.5,0.0406714749666556,0.666372022450683,12.6903828958279,2.59099999619707,0.5,52.1824055055661
CBC_1016,CBC_1016_MSI_AV_v3_Vset4_Aset1_2023-06-25_15h20.06.953.csv,2,21,0,3,z,0,1,0,aud,D,9,1,0D,3D,0,1,z,2.61754909999945,0,1,1,1,3D,0D,D03,3.58351893845611,0.610260742752359,0.5,0.5,0.5,0.5,0.593737445434457,0.5,0.5,0.479664262516672,0.5,0.539844390528674,0.479664262516672,0.5,0.5,0.5,0.553065970467801,0.52519593831535,0.47480406168465,0.553065970467801,0.5,0.171320501670978,0.839447564726522,0.446934029532199,0.0181774661938653,0.5,0.0406714749666556,0.666372022450683,12.6903828958279,2.59099999619707,0.5,52.1824055055661
CBC_1016,CBC_1016_MSI_AV_v3_Vset4_Aset1_2023-06-25_15h20.06.953.csv,2,22,2,3,b,1,0,3,aud,C,63,1,2C,3C,1,0,b,2.17692729999908,1,0,1,1,2C,3C,C23,2.91777073208428,0.610260742752359,0.5,0.5,0.5,0.5,0.593737445434457,0.5,0.5,0.479664262516672,0.5,0.539844390528674,0.479664262516672,0.5,0.5,0.5,0.571243436661667,0.529514280154582,0.470485719845418,0.539844390528674,0.479664262516672,0.266269585066888,0.874930541750275,0.460155609471326,0.0187152073513792,0.5,0.0406714749666556,0.666372022450683,12.6903828958279,2.59099999619707,0.5,52.1824055055661
CBC_1016,CBC_1016_MSI_AV_v3_Vset4_Aset1_2023-06-25_15h20.06.953.csv,2,23,3,1,z,0,1,1,aud,B,27,1,3B,1B,0,1,z,0.92448080000031,0,1,1,1,1B,3B,B31,3.63758615972639,0.610260742752359,0.5,0.5,0.5,0.5,0.593737445434457,0.5,0.5,0.479664262516672,0.5,0.558559597880053,0.479664262516672,0.5,0.5,0.5,0.571243436661667,0.542851895500946,0.457148104499054,0.593737445434457,0.5,0.536561743946535,0.943742955400889,0.406262554565543,0.016523297317902,0.5,0.0406714749666556,0.666372022450683,12.6903828958279,2.59099999619707,0.5,52.1824055055661
CBC_1016,CBC_1016_MSI_AV_v3_Vset4_Aset1_2023-06-25_15h20.06.953.csv,2,24,3,2,z,0,1,3,aud,C,63,1,3C,2C,0,1,b,2.52253890000065,1,0,0,0,3C,2C,C32,2.9704144655697,0.610260742752359,0.5,0.5,0.5,0.5,0.610260742752359,0.5,0.5,0.479664262516672,0.5,0.558559597880053,0.479664262516672,0.5,0.5,0.5,0.571243436661667,0.462004660857422,0.537995339142578,0.479664262516672,0.558559597880053,0.014512279513617,0.0761602642037113,-0.479664262516672,-0.0195086530453461,0.5,0.0406714749666556,0.666372022450683,12.6903828958279,2.59099999619707,0.5,52.1824055055661
CBC_1016,CBC_1016_MSI_AV_v3_Vset4_Aset1_2023-06-25_15h20.06.953.csv,2,25,2,3,z,0,1,0,aud,D,63,1,2D,3D,0,1,z,2.13106340000013,0,1,1,1,3D,2D,D23,2.07944154167984,0.610260742752359,0.5,0.5,0.5,0.5,0.610260742752359,0.5,0.5,0.479664262516672,0.5,0.558559597880053,0.460155609471326,0.5,0.5,0.5,0.571243436661667,0.533252682921299,0.466747317078701,0.571243436661667,0.5,0.282269309734835,0.898860771197746,0.428756563338333,0.0174381618326043,0.5,0.0406714749666556,0.666372022450683,12.6903828958279,2.59099999619707,0.5,52.1824055055661
CBC_1016,CBC_1016_MSI_AV_v3_Vset4_Aset1_2023-06-25_15h20.06.953.csv,2,26,1,0,b,1,0,1,aud,B,63,1,1B,0B,1,0,b,2.50460949999979,1,0,1,1,1B,0B,B10,2.6149597780362,0.610260742752359,0.5,0.5,0.5,0.5,0.610260742752359,0.5,0.5,0.479664262516672,0.5,0.558559597880053,0.460155609471326,0.5,0.5,0.5,0.588681598494271,0.549655337033272,0.450344662966728,0.610260742752359,0.5,0.14406244856553,0.963194035959985,0.389739257247641,0.0158512704446704,0.5,0.0406714749666556,0.666372022450683,12.6903828958279,2.59099999619707,0.5,52.1824055055661
CBC_1016,CBC_1016_MSI_AV_v3_Vset4_Aset1_2023-06-25_15h20.06.953.csv,2,27,0,3,b,1,0,2,aud,A,9,1,0A,3A,1,0,b,1.38089369999943,1,0,1,1,0A,3A,A03,3.73766961828337,0.610260742752359,0.5,0.5,0.5,0.5,0.626112013197029,0.5,0.5,0.479664262516672,0.5,0.558559597880053,0.460155609471326,0.5,0.5,0.5,0.588681598494271,0.549655337033272,0.450344662966728,0.610260742752359,0.5,0.766628964980999,0.96310785810826,0.389739257247641,0.0158512704446704,0.5,0.0406714749666556,0.666372022450683,12.6903828958279,2.59099999619707,0.5,52.1824055055661
CBC_1016,CBC_1016_MSI_AV_v3_Vset4_Aset1_2023-06-25_15h20.06.953.csv,2,28,2,3,z,0,1,0,aud,D,63,1,2D,3D,0,1,b,1.89886770000157,1,0,0,0,2D,3D,D23,1.96944064646551,0.626112013197029,0.5,0.5,0.5,0.5,0.626112013197029,0.5,0.5,0.479664262516672,0.5,0.558559597880053,0.460155609471326,0.5,0.5,0.5,0.588681598494271,0.45927110432613,0.54072889567387,0.5,0.588681598494271,0.0255598276363391,0.0641672801782562,-0.5,-0.0203357374833278,0.5,0.0406714749666556,0.666372022450683,12.6903828958279,2.59099999619707,0.5,52.1824055055661
CBC_1016,CBC_1016_MSI_AV_v3_Vset4_Aset1_2023-06-25_15h20.06.953.csv,2,29,2,0,b,1,0,3,aud,C,27,1,2C,0C,1,0,b,1.7141632999992,1,0,1,1,2C,0C,C20,2.68557734525015,0.626112013197029,0.5,0.5,0.5,0.5,0.626112013197029,0.5,0.5,0.479664262516672,0.5,0.558559597880053,0.460155609471326,0.5,0.5,0.479664262516672,0.588681598494271,0.537995339142578,0.462004660857422,0.558559597880053,0.479664262516672,0.461168260341472,0.923927812454232,0.441440402119947,0.0179540322640918,0.5,0.0406714749666556,0.666372022450683,12.6903828958279,2.59099999619707,0.5,52.1824055055661
CBC_1016,CBC_1016_MSI_AV_v3_Vset4_Aset1_2023-06-25_15h20.06.953.csv,2,30,1,0,z,0,1,2,aud,A,63,1,1A,0A,0,1,z,1.6246080000019,0,1,1,1,0A,1A,A10,3.11351530921037,0.626112013197029,0.5,0.5,0.5,0.5,0.626112013197029,0.5,0.5,0.479664262516672,0.5,0.576513630144145,0.460155609471326,0.5,0.5,0.479664262516672,0.588681598494271,0.555994435597485,0.444005564402515,0.626112013197029,0.5,0.548202472532607,0.975491091386862,0.373887986802971,0.0152065758955903,0.5,0.0406714749666556,0.666372022450683,12.6903828958279,2.59099999619707,0.5,52.1824055055661
CBC_1016,CBC_1016_MSI_AV_v3_Vset4_Aset1_2023-06-25_15h20.06.953.csv,2,31,1,0,b,1,0,1,aud,B,63,1,1B,0B,1,0,b,1.02075359999799,1,0,1,1,1B,0B,B10,2.4423470353692,0.64131858909262,0.5,0.5,0.5,0.5,0.626112013197029,0.5,0.5,0.479664262516672,0.5,0.576513630144145,0.460155609471326,0.5,0.5,0.479664262516672,0.588681598494271,0.555994435597485,0.444005564402515,0.626112013197029,0.5,1.01165113054911,0.975472003099475,0.373887986802971,0.0152065758955903,0.5,0.0406714749666556,0.666372022450683,12.6903828958279,2.59099999619707,0.5,52.1824055055661
CBC_1016,CBC_1016_MSI_AV_v3_Vset4_Aset1_2023-06-25_15h20.06.953.csv,2,32,3,1,b,1,0,0,aud,D,27,1,3D,1D,1,0,b,1.69743889999882,1,0,1,1,3D,1D,D31,3.85014760171006,0.64131858909262,0.5,0.5,0.5,0.5,0.64131858909262,0.5,0.5,0.479664262516672,0.5,0.576513630144145,0.460155609471326,0.5,0.5,0.479664262516672,0.588681598494271,0.54072889567387,0.45927110432613,0.588681598494271,0.5,0.479159001109385,0.935914375945213,0.411318401505729,0.016728926070165,0.5,0.0406714749666556,0.666372022450683,12.6903828958279,2.59099999619707,0.5,52.1824055055661
CBC_1016,CBC_1016_MSI_AV_v3_Vset4_Aset1_2023-06-25_15h20.06.953.csv,2,33,3,2,z,0,1,3,aud,C,63,1,3C,2C,0,1,z,1.67789210000046,0,1,1,1,2C,3C,C32,2.77258872223978,0.64131858909262,0.5,0.5,0.5,0.5,0.64131858909262,0.5,0.5,0.479664262516672,0.5,0.576513630144145,0.460155609471326,0.5,0.5,0.479664262516672,0.605410524564436,0.556121092546345,0.443878907453655,0.576513630144145,0.460155609471326,0.500741713136515,0.975677887718335,0.423486369855855,0.0172238152903123,0.5,0.0406714749666556,0.666372022450683,12.6903828958279,2.59099999619707,0.5,52.1824055055661
CBC_1016,CBC_1016_MSI_AV_v3_Vset4_Aset1_2023-06-25_15h20.06.953.csv,2,34,1,0,b,1,0,1,aud,B,63,1,1B,0B,1,0,b,1.47573620000185,1,0,1,1,1B,0B,B10,2.28238238567653,0.64131858909262,0.5,0.5,0.5,0.5,0.64131858909262,0.5,0.5,0.479664262516672,0.5,0.593737445434457,0.460155609471326,0.5,0.5,0.479664262516672,0.605410524564436,0.561910228416139,0.438089771583861,0.64131858909262,0.5,0.70905090891772,0.983328166542652,0.35868141090738,0.0145881020247242,0.5,0.0406714749666556,0.666372022450683,12.6903828958279,2.59099999619707,0.5,52.1824055055661
CBC_1016,CBC_1016_MSI_AV_v3_Vset4_Aset1_2023-06-25_15h20.06.953.csv,2,35,0,1,b,1,0,2,aud,A,63,1,0A,1A,1,0,b,1.51679510000031,1,0,1,1,0A,1A,A01,2.52572864430826,0.64131858909262,0.5,0.5,0.5,0.5,0.655906691117344,0.5,0.5,0.479664262516672,0.5,0.593737445434457,0.460155609471326,0.5,0.5,0.479664262516672,0.605410524564436,0.561910228416139,0.438089771583861,0.64131858909262,0.5,0.657619581635985,0.983252752025009,0.35868141090738,0.0145881020247242,0.5,0.0406714749666556,0.666372022450683,12.6903828958279,2.59099999619707,0.5,52.1824055055661
CBC_1016,CBC_1016_MSI_AV_v3_Vset4_Aset1_2023-06-25_15h20.06.953.csv,2,36,1,2,z,0,1,3,aud,C,9,1,1C,2C,0,1,z,1.2162533999981,0,1,1,1,2C,1C,C12,3.93182563272433,0.655906691117344,0.5,0.5,0.5,0.5,0.655906691117344,0.5,0.5,0.479664262516672,0.5,0.593737445434457,0.460155609471326,0.5,0.5,0.479664262516672,0.605410524564436,0.542851895500946,0.457148104499054,0.593737445434457,0.5,0.813669683761044,0.943458535680508,0.406262554565543,0.016523297317902,0.5,0.0406714749666556,0.666372022450683,12.6903828958279,2.59099999619707,0.5,52.1824055055661
CBC_1016,CBC_1016_MSI_AV_v3_Vset4_Aset1_2023-06-25_15h20.06.953.csv,2,37,1,0,z,0,1,2,aud,A,63,1,1A,0A,0,1,z,1.7287404000017,0,1,1,1,0A,1A,A10,2.85263142991332,0.655906691117344,0.5,0.5,0.5,0.5,0.655906691117344,0.5,0.5,0.479664262516672,0.5,0.610260742752359,0.460155609471326,0.5,0.5,0.479664262516672,0.605410524564436,0.567439133415967,0.432560866584033,0.655906691117344,0.5,0.412962924779652,0.988253627876904,0.344093308882656,0.0139947823984146,0.5,0.0406714749666556,0.666372022450683,12.6903828958279,2.59099999619707,0.5,52.1824055055661
CBC_1016,CBC_1016_MSI_AV_v3_Vset4_Aset1_2023-06-25_15h20.06.953.csv,2,38,3,1,b,1,0,0,aud,D,27,1,3D,1D,1,0,b,1.07411019999927,1,0,1,1,3D,1D,D31,3.27714473299218,0.669901473515759,0.5,0.5,0.5,0.5,0.655906691117344,0.5,0.5,0.479664262516672,0.5,0.610260742752359,0.460155609471326,0.5,0.5,0.479664262516672,0.605410524564436,0.547679356321477,0.452320643678523,0.605410524564436,0.5,0.901354450198145,0.958254178731185,0.394589475435564,0.0160485359722833,0.5,0.0406714749666556,0.666372022450683,12.6903828958279,2.59099999619707,0.5,52.1824055055661
CBC_1016,CBC_1016_MSI_AV_v3_Vset4_Aset1_2023-06-25_15h20.06.953.csv,2,39,0,1,z,0,1,1,aud,B,63,1,0B,1B,0,1,z,0.830896499999653,0,1,1,1,1B,0B,B01,3.29583686600433,0.669901473515759,0.5,0.5,0.5,0.5,0.655906691117344,0.5,0.5,0.479664262516672,0.5,0.610260742752359,0.460155609471326,0.5,0.5,0.479664262516672,0.621459060536719,0.567439133415967,0.432560866584033,0.655906691117344,0.5,0.341153566906972,0.988331489241794,0.344093308882656,0.0139947823984146,0.5,0.0406714749666556,0.666372022450683,12.6903828958279,2.59099999619707,0.5,52.1824055055661
CBC_1016,CBC_1016_MSI_AV_v3_Vset4_Aset1_2023-06-25_15h20.06.953.csv,2,40,2,3,b,1,0,3,aud,C,63,0,2C,3C,0,1,b,1.30928169999606,1,0,1,0,2C,3C,C23,2.90872089656436,0.669901473515759,0.5,0.5,0.5,0.5,0.669901473515759,0.5,0.5,0.479664262516672,0.5,0.610260742752359,0.460155609471326,0.5,0.5,0.479664262516672,0.621459060536719,0.570115302783447,0.429884697216553,0.610260742752359,0.460155609471326,0.984869266363358,0.990168461333265,-0.610260742752359,-0.0248202045219852,0.5,0.0406714749666556,0.666372022450683,12.6903828958279,2.59099999619707,0.5,52.1824055055661
CBC_1016,CBC_1016_MSI_AV_v3_Vset4_Aset1_2023-06-25_15h20.06.953.csv,2,41,2,0,z,0,1,2,aud,A,27,1,2A,0A,0,1,z,1.64133349999975,0,1,1,1,0A,2A,A20,3.3322045101752,0.669901473515759,0.5,0.5,0.5,0.5,0.669901473515759,0.5,0.5,0.479664262516672,0.5,0.585440538230374,0.460155609471326,0.5,0.5,0.479664262516672,0.621459060536719,0.572613582152852,0.427386417847148,0.669901473515759,0.5,0.470122199423066,0.991667596246074,0.330098526484241,0.0134255939564337,0.5,0.0406714749666556,0.666372022450683,12.6903828958279,2.59099999619707,0.5,52.1824055055661
CBC_1016,CBC_1016_MSI_AV_v3_Vset4_Aset1_2023-06-25_15h20.06.953.csv,2,42,3,2,b,1,0,0,aud,D,63,1,3D,2D,1,0,b,1.56244069999957,1,0,1,1,3D,2D,D32,4.04305126783455,0.683327067472192,0.5,0.5,0.5,0.5,0.669901473515759,0.5,0.5,0.479664262516672,0.5,0.585440538230374,0.460155609471326,0.5,0.5,0.479664262516672,0.621459060536719,0.564386429317859,0.435613570682141,0.621459060536719,0.479664262516672,0.598616894406255,0.985740616768353,0.378540939463281,0.0153958183432351,0.5,0.0406714749666556,0.666372022450683,12.6903828958279,2.59099999619707,0.5,52.1824055055661
CBC_1016,CBC_1016_MSI_AV_v3_Vset4_Aset1_2023-06-25_15h20.06.953.csv,2,43,3,1,z,0,1,1,aud,B,27,1,3B,1B,0,1,z,0.919422999999369,0,1,1,1,1B,3B,B31,3.36729582998647,0.683327067472192,0.5,0.5,0.5,0.5,0.669901473515759,0.5,0.5,0.479664262516672,0.5,0.585440538230374,0.460155609471326,0.5,0.5,0.479664262516672,0.636854878879955,0.572613582152852,0.427386417847148,0.669901473515759,0.5,1.0432280087125,0.991619799627265,0.330098526484241,0.0134255939564337,0.5,0.0406714749666556,0.666372022450683,12.6903828958279,2.59099999619707,0.5,52.1824055055661
CBC_1016,CBC_1016_MSI_AV_v3_Vset4_Aset1_2023-06-25_15h20.06.953.csv,2,44,2,3,b,1,0,3,aud,C,63,1,2C,3C,1,0,b,1.94168569999965,1,0,1,1,2C,3C,C23,2.69124308278583,0.683327067472192,0.5,0.5,0.5,0.5,0.683327067472192,0.5,0.5,0.479664262516672,0.5,0.585440538230374,0.460155609471326,0.5,0.5,0.479664262516672,0.636854878879955,0.559910764320638,0.440089235679362,0.585440538230374,0.460155609471326,0.300232774362458,0.980939380284913,0.414559461769626,0.0168607447715536,0.5,0.0406714749666556,0.666372022450683,12.6903828958279,2.59099999619707,0.5,52.1824055055661
CBC_1016,CBC_1016_MSI_TV_v3_Vset3_Tset2_2023-06-25_16h33.10.466.csv,3,1,1,3,b,1,0,1,tac,B,27,1,1B,3B,1,0,z,1.32172530000025,0,1,0,0,3B,1B,B13,2.77258872223978,0.5,0.5,0.5,0.5,0.5,0.5,0.5,0.5,0.5,0.5,0.5,0.5,0.5,0.5,0.5,0.5,0.5,0.5,0.5,0.5,0.324713445418967,0.501181202757003,-0.5,-0.0127026736781694,0.5,0.0254053473563387,0.901389955294274,8.26114261082397,2.37773706619489,0.5,73.3601674914133
CBC_1016,CBC_1016_MSI_TV_v3_Vset3_Tset2_2023-06-25_16h33.10.466.csv,3,2,3,2,z,0,1,3,tac,C,63,1,3C,2C,0,1,z,1.68228909999743,0,1,1,1,2C,3C,C32,2.83321334405622,0.5,0.5,0.5,0.5,0.5,0.5,0.5,0.487297326321831,0.5,0.5,0.5,0.5,0.5,0.5,0.5,0.5,0.5,0.5,0.5,0.5,0.277081543120276,0.499335944486162,0.5,0.0127026736781694,0.5,0.0254053473563387,0.901389955294274,8.26114261082397,2.37773706619489,0.5,73.3601674914133
CBC_1016,CBC_1016_MSI_TV_v3_Vset3_Tset2_2023-06-25_16h33.10.466.csv,3,3,3,2,b,1,0,0,tac,D,63,1,3D,2D,1,0,b,1.0271576999985,1,0,1,1,3D,2D,D32,2.89037175789616,0.5,0.5,0.5,0.5,0.5,0.5,0.5,0.487297326321831,0.5,0.5,0.512702673678169,0.5,0.5,0.5,0.5,0.5,0.5,0.5,0.5,0.5,0.0386173696464113,0.5005135115059,0.5,0.0127026736781694,0.5,0.0254053473563387,0.901389955294274,8.26114261082397,2.37773706619489,0.5,73.3601674914133
CBC_1016,CBC_1016_MSI_TV_v3_Vset3_Tset2_2023-06-25_16h33.10.466.csv,3,4,0,1,z,0,1,1,tac,B,63,1,0B,1B,0,1,z,2.25734360000206,0,1,1,1,1B,0B,B01,2.94443897916644,0.5,0.5,0.5,0.5,0.5,0.5,0.5,0.487297326321831,0.5,0.5,0.512702673678169,0.5,0.5,0.5,0.5,0.512702673678169,0.5,0.5,0.5,0.5,0.169783583395372,0.499061121031819,0.5,0.0127026736781694,0.5,0.0254053473563387,0.901389955294274,8.26114261082397,2.37773706619489,0.5,73.3601674914133
CBC_1016,CBC_1016_MSI_TV_v3_Vset3_Tset2_2023-06-25_16h33.10.466.csv,3,5,0,3,b,1,0,2,tac,A,9,1,0A,3A,1,0,z,2.43346450000172,0,1,0,0,3A,0A,A03,2.99573227355399,0.5,0.5,0.5,0.5,0.5,0.512702673678169,0.5,0.487297326321831,0.5,0.5,0.512702673678169,0.5,0.5,0.5,0.5,0.512702673678169,0.5,0.5,0.5,0.5,0.145925976356207,0.500129725552713,-0.5,-0.0127026736781694,0.5,0.0254053473563387,0.901389955294274,8.26114261082397,2.37773706619489,0.5,73.3601674914133
CBC_1016,CBC_1016_MSI_TV_v3_Vset3_Tset2_2023-06-25_16h33.10.466.csv,3,6,3,2,b,1,0,0,tac,D,63,1,3D,2D,1,0,b,1.60803919999671,1,0,1,1,3D,2D,D32,2.35137525716348,0.5,0.5,0.5,0.487297326321831,0.5,0.512702673678169,0.5,0.487297326321831,0.5,0.5,0.512702673678169,0.5,0.5,0.5,0.5,0.512702673678169,0.506271669863393,0.493728330136607,0.512702673678169,0.5,0.330891686315593,0.561720261834348,0.487297326321831,0.0123799578410212,0.5,0.0254053473563387,0.901389955294274,8.26114261082397,2.37773706619489,0.5,73.3601674914133
CBC_1016,CBC_1016_MSI_TV_v3_Vset3_Tset2_2023-06-25_16h33.10.466.csv,3,7,0,2,z,0,1,3,tac,C,27,1,0C,2C,0,1,z,1.9523208999999,0,1,1,1,2C,0C,C02,3.09104245335832,0.5,0.5,0.5,0.487297326321831,0.5,0.512702673678169,0.5,0.487297326321831,0.5,0.5,0.512702673678169,0.5,0.5,0.5,0.5,0.525082631519191,0.506271669863393,0.493728330136607,0.512702673678169,0.5,0.249483548298269,0.561784488042489,0.487297326321831,0.0123799578410212,0.5,0.0254053473563387,0.901389955294274,8.26114261082397,2.37773706619489,0.5,73.3601674914133
CBC_1016,CBC_1016_MSI_TV_v3_Vset3_Tset2_2023-06-25_16h33.10.466.csv,3,8,0,1,b,1,0,2,tac,A,63,1,0A,1A,1,0,b,2.15419789999942,1,0,1,1,0A,1A,A01,3.13549421592915,0.5,0.5,0.5,0.487297326321831,0.5,0.512702673678169,0.5,0.487297326321831,0.5,0.5,0.525082631519191,0.5,0.5,0.5,0.5,0.525082631519191,0.5,0.5,0.5,0.5,0.18645785391003,0.501008168009266,0.5,0.0127026736781694,0.5,0.0254053473563387,0.901389955294274,8.26114261082397,2.37773706619489,0.5,73.3601674914133
CBC_1016,CBC_1016_MSI_TV_v3_Vset3_Tset2_2023-06-25_16h33.10.466.csv,3,9,1,0,b,1,0,1,tac,B,63,1,1B,0B,1,0,b,3.35097250000035,1,0,1,1,1B,0B,B10,3.17805383034795,0.512702673678169,0.5,0.5,0.487297326321831,0.5,0.512702673678169,0.5,0.487297326321831,0.5,0.5,0.525082631519191,0.5,0.5,0.5,0.5,0.525082631519191,0.506271669863393,0.493728330136607,0.512702673678169,0.5,0.0732252901807842,0.562191858353497,0.487297326321831,0.0123799578410212,0.5,0.0254053473563387,0.901389955294274,8.26114261082397,2.37773706619489,0.5,73.3601674914133
CBC_1016,CBC_1016_MSI_TV_v3_Vset3_Tset2_2023-06-25_16h33.10.466.csv,3,10,1,3,z,0,1,0,tac,D,27,1,1D,3D,0,1,b,3.19569880000199,1,0,0,0,1D,3D,D13,3.2188758248682,0.512702673678169,0.5,0.5,0.487297326321831,0.5,0.525082631519191,0.5,0.487297326321831,0.5,0.5,0.525082631519191,0.5,0.5,0.5,0.5,0.525082631519191,0.487765556283976,0.512234443716024,0.5,0.525082631519191,0.0562197163424688,0.381718859982072,-0.5,-0.0127026736781694,0.5,0.0254053473563387,0.901389955294274,8.26114261082397,2.37773706619489,0.5,73.3601674914133
CBC_1016,CBC_1016_MSI_TV_v3_Vset3_Tset2_2023-06-25_16h33.10.466.csv,3,11,3,2,z,0,1,3,tac,C,63,1,3C,2C,0,1,z,2.15608829999837,0,1,1,1,2C,3C,C32,2.56494935746154,0.512702673678169,0.5,0.5,0.487297326321831,0.5,0.525082631519191,0.5,0.487297326321831,0.5,0.5,0.525082631519191,0.5,0.5,0.487297326321831,0.5,0.525082631519191,0.512234443716024,0.487765556283976,0.525082631519191,0.5,0.230099722046043,0.617467053629952,0.474917368480809,0.0120654407118133,0.5,0.0254053473563387,0.901389955294274,8.26114261082397,2.37773706619489,0.5,73.3601674914133
CBC_1016,CBC_1016_MSI_TV_v3_Vset3_Tset2_2023-06-25_16h33.10.466.csv,3,12,1,0,b,1,0,1,tac,B,63,1,1B,0B,1,0,z,2.39956979999988,0,1,0,0,0B,1B,B10,2.60268968544438,0.512702673678169,0.5,0.5,0.487297326321831,0.5,0.525082631519191,0.5,0.487297326321831,0.5,0.5,0.537148072231004,0.5,0.5,0.487297326321831,0.5,0.525082631519191,0.487765556283976,0.512234443716024,0.5,0.525082631519191,0.114585291871277,0.382041218900323,-0.5,-0.0127026736781694,0.5,0.0254053473563387,0.901389955294274,8.26114261082397,2.37773706619489,0.5,73.3601674914133
CBC_1016,CBC_1016_MSI_TV_v3_Vset3_Tset2_2023-06-25_16h33.10.466.csv,3,13,0,1,b,1,0,2,tac,A,63,1,0A,1A,1,0,z,2.81628660000206,0,1,0,0,1A,0A,A01,2.63905732961526,0.512702673678169,0.5,0.5,0.487297326321831,0.487297326321831,0.525082631519191,0.5,0.487297326321831,0.5,0.5,0.537148072231004,0.5,0.5,0.487297326321831,0.5,0.525082631519191,0.493728330136607,0.506271669863393,0.5,0.512702673678169,0.0915727420283548,0.439495862411795,-0.5,-0.0127026736781694,0.5,0.0254053473563387,0.901389955294274,8.26114261082397,2.37773706619489,0.5,73.3601674914133
CBC_1016,CBC_1016_MSI_TV_v3_Vset3_Tset2_2023-06-25_16h33.10.466.csv,3,14,1,2,z,0,1,3,tac,C,9,1,1C,2C,0,1,z,2.08858600000167,0,1,1,1,2C,1C,C12,3.36729582998647,0.512702673678169,0.487297326321831,0.5,0.487297326321831,0.487297326321831,0.525082631519191,0.5,0.487297326321831,0.5,0.5,0.537148072231004,0.5,0.5,0.487297326321831,0.5,0.525082631519191,0.517908760198095,0.482091239801905,0.537148072231004,0.5,0.265924584914635,0.669115574998317,0.462851927768996,0.0117589139995223,0.5,0.0254053473563387,0.901389955294274,8.26114261082397,2.37773706619489,0.5,73.3601674914133
CBC_1016,CBC_1016_MSI_TV_v3_Vset3_Tset2_2023-06-25_16h33.10.466.csv,3,15,1,0,z,0,1,2,tac,A,63,1,1A,0A,0,1,z,2.8656482999977,0,1,1,1,0A,1A,A10,3.40119738166216,0.512702673678169,0.487297326321831,0.5,0.487297326321831,0.487297326321831,0.525082631519191,0.5,0.487297326321831,0.5,0.5,0.548906986230526,0.5,0.5,0.487297326321831,0.5,0.525082631519191,0.512702673678169,0.487297326321831,0.512702673678169,0.487297326321831,0.122858361430661,0.621589546935061,0.487297326321831,0.0123799578410212,0.5,0.0254053473563387,0.901389955294274,8.26114261082397,2.37773706619489,0.5,73.3601674914133
CBC_1016,CBC_1016_MSI_TV_v3_Vset3_Tset2_2023-06-25_16h33.10.466.csv,3,16,3,1,b,1,0,0,tac,D,27,1,3D,1D,1,0,b,2.35269060000064,1,0,1,1,3D,1D,D31,3.43398720448515,0.525082631519191,0.487297326321831,0.5,0.487297326321831,0.487297326321831,0.525082631519191,0.5,0.487297326321831,0.5,0.5,0.548906986230526,0.5,0.5,0.487297326321831,0.5,0.525082631519191,0.518661622498898,0.481338377501101,0.525082631519191,0.487297326321831,0.210877675186984,0.675777774569552,0.474917368480809,0.0120654407118133,0.5,0.0254053473563387,0.901389955294274,8.26114261082397,2.37773706619489,0.5,73.3601674914133
CBC_1016,CBC_1016_MSI_TV_v3_Vset3_Tset2_2023-06-25_16h33.10.466.csv,3,17,0,1,z,0,1,1,tac,B,63,1,0B,1B,0,1,b,2.40854229999968,1,0,0,0,0B,1B,B01,2.77258872223978,0.525082631519191,0.487297326321831,0.5,0.487297326321831,0.487297326321831,0.525082631519191,0.5,0.487297326321831,0.5,0.5,0.548906986230526,0.5,0.5,0.487297326321831,0.5,0.537148072231004,0.481338377501101,0.518661622498898,0.487297326321831,0.525082631519191,0.0962787799856462,0.324783626379839,-0.487297326321831,-0.0123799578410212,0.5,0.0254053473563387,0.901389955294274,8.26114261082397,2.37773706619489,0.5,73.3601674914133
CBC_1016,CBC_1016_MSI_TV_v3_Vset3_Tset2_2023-06-25_16h33.10.466.csv,3,18,2,3,b,1,0,3,tac,C,63,0,2C,3C,0,1,b,2.31660499999998,1,0,1,0,2C,3C,C23,3.49650756146648,0.525082631519191,0.487297326321831,0.5,0.487297326321831,0.474917368480809,0.525082631519191,0.5,0.487297326321831,0.5,0.5,0.548906986230526,0.5,0.5,0.487297326321831,0.5,0.537148072231004,0.523313309412822,0.476686690587178,0.548906986230526,0.5,0.229833687046354,0.713936971755814,-0.548906986230526,-0.0139451726515075,0.5,0.0254053473563387,0.901389955294274,8.26114261082397,2.37773706619489,0.5,73.3601674914133
CBC_1016,CBC_1016_MSI_TV_v3_Vset3_Tset2_2023-06-25_16h33.10.466.csv,3,19,2,0,z,0,1,2,tac,A,27,1,2A,0A,0,1,b,2.61403890000292,1,0,0,0,2A,0A,A20,3.52636052461616,0.525082631519191,0.487297326321831,0.5,0.487297326321831,0.474917368480809,0.525082631519191,0.5,0.487297326321831,0.5,0.5,0.534961813579019,0.5,0.5,0.487297326321831,0.5,0.537148072231004,0.487765556283976,0.512234443716024,0.5,0.525082631519191,0.0947656125966339,0.382629425220945,-0.5,-0.0127026736781694,0.5,0.0254053473563387,0.901389955294274,8.26114261082397,2.37773706619489,0.5,73.3601674914133
CBC_1016,CBC_1016_MSI_TV_v3_Vset3_Tset2_2023-06-25_16h33.10.466.csv,3,20,3,2,b,1,0,0,tac,D,63,1,3D,2D,1,0,b,2.836809299999,1,0,1,1,3D,2D,D32,2.4567357728213,0.525082631519191,0.487297326321831,0.487297326321831,0.487297326321831,0.474917368480809,0.525082631519191,0.5,0.487297326321831,0.5,0.5,0.534961813579019,0.5,0.5,0.487297326321831,0.5,0.537148072231004,0.517908760198095,0.482091239801905,0.537148072231004,0.5,0.134029301537964,0.669115734372095,0.462851927768996,0.0117589139995223,0.5,0.0254053473563387,0.901389955294274,8.26114261082397,2.37773706619489,0.5,73.3601674914133
CBC_1016,CBC_1016_MSI_TV_v3_Vset3_Tset2_2023-06-25_16h33.10.466.csv,3,21,3,1,z,0,1,1,tac,B,27,1,3B,1B,0,1,z,3.499053800002,0,1,1,1,1B,3B,B31,3.58351893845611,0.525082631519191,0.487297326321831,0.487297326321831,0.487297326321831,0.474917368480809,0.525082631519191,0.5,0.487297326321831,0.5,0.5,0.534961813579019,0.5,0.5,0.487297326321831,0.5,0.548906986230526,0.518661622498898,0.481338377501101,0.525082631519191,0.487297326321831,0.0734144861386688,0.675802338777009,0.474917368480809,0.0120654407118133,0.5,0.0254053473563387,0.901389955294274,8.26114261082397,2.37773706619489,0.5,73.3601674914133
CBC_1016,CBC_1016_MSI_TV_v3_Vset3_Tset2_2023-06-25_16h33.10.466.csv,3,22,3,2,z,0,1,3,tac,C,63,1,3C,2C,0,1,z,2.34522360000119,0,1,1,1,2C,3C,C32,2.51230562397611,0.525082631519191,0.487297326321831,0.487297326321831,0.487297326321831,0.474917368480809,0.537148072231004,0.5,0.487297326321831,0.5,0.5,0.534961813579019,0.5,0.5,0.487297326321831,0.5,0.548906986230526,0.516890388186457,0.483109611813543,0.534961813579019,0.5,0.207667020179413,0.660450692067216,0.465038186420981,0.0118144566599868,0.5,0.0254053473563387,0.901389955294274,8.26114261082397,2.37773706619489,0.5,73.3601674914133
CBC_1016,CBC_1016_MSI_TV_v3_Vset3_Tset2_2023-06-25_16h33.10.466.csv,3,23,0,1,b,1,0,2,tac,A,63,1,0A,1A,1,0,z,3.02400179999677,0,1,0,0,1A,0A,A01,2.53897387105828,0.525082631519191,0.487297326321831,0.487297326321831,0.487297326321831,0.474917368480809,0.537148072231004,0.5,0.487297326321831,0.5,0.5,0.546776270239005,0.5,0.5,0.487297326321831,0.5,0.548906986230526,0.481338377501101,0.518661622498898,0.487297326321831,0.525082631519191,0.0545330124443498,0.324173165487676,-0.487297326321831,-0.0123799578410212,0.5,0.0254053473563387,0.901389955294274,8.26114261082397,2.37773706619489,0.5,73.3601674914133
CBC_1016,CBC_1016_MSI_TV_v3_Vset3_Tset2_2023-06-25_16h33.10.466.csv,3,24,2,1,z,0,1,1,tac,B,9,1,2B,1B,0,1,z,1.60966340000232,0,1,1,1,1B,2B,B21,3.66356164612965,0.525082631519191,0.474917368480809,0.487297326321831,0.487297326321831,0.474917368480809,0.537148072231004,0.5,0.487297326321831,0.5,0.5,0.546776270239005,0.5,0.5,0.487297326321831,0.5,0.548906986230526,0.517908760198095,0.482091239801905,0.537148072231004,0.5,0.404377841343516,0.669610294665173,0.462851927768996,0.0117589139995223,0.5,0.0254053473563387,0.901389955294274,8.26114261082397,2.37773706619489,0.5,73.3601674914133
CBC_1016,CBC_1016_MSI_TV_v3_Vset3_Tset2_2023-06-25_16h33.10.466.csv,3,25,2,3,b,1,0,3,tac,C,63,1,2C,3C,1,0,b,2.18306149999989,1,0,1,1,2C,3C,C23,2.99573227355399,0.525082631519191,0.474917368480809,0.487297326321831,0.487297326321831,0.474917368480809,0.548906986230526,0.5,0.487297326321831,0.5,0.5,0.546776270239005,0.5,0.5,0.487297326321831,0.5,0.548906986230526,0.522343012336497,0.477656987663503,0.546776270239005,0.5,0.257737273206047,0.705881361477499,0.453223729760995,0.0115143062847135,0.5,0.0254053473563387,0.901389955294274,8.26114261082397,2.37773706619489,0.5,73.3601674914133
CBC_1016,CBC_1016_MSI_TV_v3_Vset3_Tset2_2023-06-25_16h33.10.466.csv,3,26,2,3,z,0,1,0,tac,D,63,1,2D,3D,0,1,z,1.63630530000228,0,1,1,1,3D,2D,D23,3.71357206670431,0.525082631519191,0.474917368480809,0.487297326321831,0.487297326321831,0.474917368480809,0.548906986230526,0.5,0.487297326321831,0.5,0.5,0.558290576523719,0.5,0.5,0.487297326321831,0.5,0.548906986230526,0.523313309412822,0.476686690587178,0.548906986230526,0.5,0.429424358419303,0.7132313965506,0.451093013769474,0.0114601747048312,0.5,0.0254053473563387,0.901389955294274,8.26114261082397,2.37773706619489,0.5,73.3601674914133
CBC_1016,CBC_1016_MSI_TV_v3_Vset3_Tset2_2023-06-25_16h33.10.466.csv,3,27,0,1,z,0,1,1,tac,B,63,1,0B,1B,0,1,z,2.62918889999855,0,1,1,1,1B,0B,B01,2.63905732961526,0.525082631519191,0.474917368480809,0.487297326321831,0.487297326321831,0.474917368480809,0.548906986230526,0.5,0.487297326321831,0.5,0.5,0.558290576523719,0.5,0.5,0.487297326321831,0.5,0.560367160935357,0.536133941046254,0.463866058953746,0.548906986230526,0.474917368480809,0.183778480668635,0.804852779375557,0.451093013769474,0.0114601747048312,0.5,0.0254053473563387,0.901389955294274,8.26114261082397,2.37773706619489,0.5,73.3601674914133
CBC_1016,CBC_1016_MSI_TV_v3_Vset3_Tset2_2023-06-25_16h33.10.466.csv,3,28,0,2,b,1,0,2,tac,A,27,1,0A,2A,1,0,b,1.24445460000061,1,0,1,1,0A,2A,A02,3.76120011569356,0.525082631519191,0.474917368480809,0.487297326321831,0.487297326321831,0.474917368480809,0.560367160935357,0.5,0.487297326321831,0.5,0.5,0.558290576523719,0.5,0.5,0.487297326321831,0.5,0.560367160935357,0.518661622498898,0.481338377501101,0.525082631519191,0.487297326321831,0.426617679940918,0.675025426455762,0.474917368480809,0.0120654407118133,0.5,0.0254053473563387,0.901389955294274,8.26114261082397,2.37773706619489,0.5,73.3601674914133
CBC_1016,CBC_1016_MSI_TV_v3_Vset3_Tset2_2023-06-25_16h33.10.466.csv,3,29,1,3,z,0,1,0,tac,D,27,1,1D,3D,0,1,z,2.33787569999913,0,1,1,1,3D,1D,D13,3.09104245335832,0.537148072231004,0.474917368480809,0.487297326321831,0.487297326321831,0.474917368480809,0.560367160935357,0.5,0.487297326321831,0.5,0.5,0.558290576523719,0.5,0.5,0.487297326321831,0.5,0.560367160935357,0.534872726670742,0.465127273329258,0.560367160935357,0.487297326321831,0.247865610464184,0.79750669770049,0.439632839064643,0.0111690249856906,0.5,0.0254053473563387,0.901389955294274,8.26114261082397,2.37773706619489,0.5,73.3601674914133
CBC_1016,CBC_1016_MSI_TV_v3_Vset3_Tset2_2023-06-25_16h33.10.466.csv,3,30,1,0,z,0,1,2,tac,A,63,1,1A,0A,0,1,b,2.28259059999982,1,0,0,0,1A,0A,A10,3.11351530921037,0.537148072231004,0.474917368480809,0.487297326321831,0.487297326321831,0.474917368480809,0.560367160935357,0.5,0.487297326321831,0.5,0.5,0.558290576523719,0.5,0.5,0.487297326321831,0.5,0.571536185921048,0.469255592945439,0.53074440705456,0.474917368480809,0.537148072231004,0.0760894714290874,0.230000944377201,-0.474917368480809,-0.0120654407118133,0.5,0.0254053473563387,0.901389955294274,8.26114261082397,2.37773706619489,0.5,73.3601674914133
CBC_1016,CBC_1016_MSI_TV_v3_Vset3_Tset2_2023-06-25_16h33.10.466.csv,3,31,2,0,b,1,0,3,tac,C,27,1,2C,0C,1,0,b,2.21153259999846,1,0,1,1,2C,0C,C20,3.8286413964891,0.537148072231004,0.462851927768996,0.487297326321831,0.487297326321831,0.474917368480809,0.560367160935357,0.5,0.487297326321831,0.5,0.5,0.558290576523719,0.5,0.5,0.487297326321831,0.5,0.571536185921048,0.527539967668989,0.472460032331011,0.558290576523719,0.5,0.265649120788339,0.747268356944793,0.441709423476281,0.011221781333983,0.5,0.0254053473563387,0.901389955294274,8.26114261082397,2.37773706619489,0.5,73.3601674914133
CBC_1016,CBC_1016_MSI_TV_v3_Vset3_Tset2_2023-06-25_16h33.10.466.csv,3,32,2,3,z,0,1,0,tac,D,63,1,2D,3D,0,1,z,1.8286528000026,0,1,1,1,3D,2D,D23,3.15700042115011,0.537148072231004,0.462851927768996,0.487297326321831,0.487297326321831,0.474917368480809,0.560367160935357,0.5,0.487297326321831,0.5,0.5,0.569512357857702,0.5,0.5,0.487297326321831,0.5,0.571536185921048,0.533380200716021,0.466619799283979,0.571536185921048,0.5,0.411733414289755,0.787466946522522,0.428463814078952,0.0108852720262975,0.5,0.0254053473563387,0.901389955294274,8.26114261082397,2.37773706619489,0.5,73.3601674914133
CBC_1016,CBC_1016_MSI_TV_v3_Vset3_Tset2_2023-06-25_16h33.10.466.csv,3,33,1,0,b,1,0,1,tac,B,63,1,1B,0B,1,0,b,1.65191690000211,1,0,1,1,1B,0B,B10,2.77258872223978,0.537148072231004,0.462851927768996,0.487297326321831,0.487297326321831,0.474917368480809,0.560367160935357,0.5,0.487297326321831,0.5,0.5,0.569512357857702,0.5,0.5,0.487297326321831,0.5,0.582421457947345,0.541268747878777,0.458731252121223,0.560367160935357,0.474917368480809,0.53596596622665,0.834405900179581,0.439632839064643,0.0111690249856906,0.5,0.0254053473563387,0.901389955294274,8.26114261082397,2.37773706619489,0.5,73.3601674914133
CBC_1016,CBC_1016_MSI_TV_v3_Vset3_Tset2_2023-06-25_16h33.10.466.csv,3,34,0,1,b,1,0,2,tac,A,63,1,0A,1A,1,0,z,2.36914069999693,0,1,0,0,1A,0A,A01,2.50552593699074,0.537148072231004,0.462851927768996,0.487297326321831,0.487297326321831,0.474917368480809,0.571536185921048,0.5,0.487297326321831,0.5,0.5,0.569512357857702,0.5,0.5,0.487297326321831,0.5,0.582421457947345,0.462851927768996,0.537148072231004,0.462851927768996,0.537148072231004,0.0563227252270976,0.188266569568547,-0.462851927768996,-0.0117589139995223,0.5,0.0254053473563387,0.901389955294274,8.26114261082397,2.37773706619489,0.5,73.3601674914133
CBC_1016,CBC_1016_MSI_TV_v3_Vset3_Tset2_2023-06-25_16h33.10.466.csv,3,35,2,3,z,0,1,0,tac,D,63,0,2D,3D,1,0,z,1.42363309999928,0,1,1,0,3D,2D,D23,2.81341071676004,0.537148072231004,0.451093013769474,0.487297326321831,0.487297326321831,0.474917368480809,0.571536185921048,0.5,0.487297326321831,0.5,0.5,0.569512357857702,0.5,0.5,0.487297326321831,0.5,0.582421457947345,0.538072719892142,0.461927280107858,0.582421457947345,0.5,0.618696709998918,0.816976434118061,-0.582421457947345,-0.0147966194469375,0.5,0.0254053473563387,0.901389955294274,8.26114261082397,2.37773706619489,0.5,73.3601674914133
CBC_1016,CBC_1016_MSI_TV_v3_Vset3_Tset2_2023-06-25_16h33.10.466.csv,3,36,2,0,b,1,0,3,tac,C,27,1,2C,0C,1,0,b,1.93160920000082,1,0,1,1,2C,0C,C20,3.23867845216438,0.537148072231004,0.451093013769474,0.487297326321831,0.487297326321831,0.474917368480809,0.571536185921048,0.5,0.487297326321831,0.5,0.5,0.569512357857702,0.5,0.5,0.487297326321831,0.5,0.567624838500408,0.53249722050755,0.46750277949245,0.569512357857702,0.5,0.368336877838304,0.78217923921883,0.430487642142298,0.0109366880812363,0.5,0.0254053473563387,0.901389955294274,8.26114261082397,2.37773706619489,0.5,73.3601674914133
CBC_1016,CBC_1016_MSI_TV_v3_Vset3_Tset2_2023-06-25_16h33.10.466.csv,3,37,0,1,b,1,0,2,tac,A,63,1,0A,1A,1,0,z,2.68393419999848,0,1,0,0,1A,0A,A01,2.34180580614733,0.537148072231004,0.451093013769474,0.487297326321831,0.487297326321831,0.474917368480809,0.571536185921048,0.5,0.487297326321831,0.5,0.5,0.580449045938938,0.5,0.5,0.487297326321831,0.5,0.567624838500408,0.456460493456205,0.543539506543795,0.451093013769474,0.537148072231004,0.0314344809438477,0.153114479117419,-0.451093013769474,-0.0114601747048312,0.5,0.0254053473563387,0.901389955294274,8.26114261082397,2.37773706619489,0.5,73.3601674914133
CBC_1016,CBC_1016_MSI_TV_v3_Vset3_Tset2_2023-06-25_16h33.10.466.csv,3,38,1,3,b,1,0,1,tac,B,27,1,1B,3B,1,0,b,1.91728119999971,1,0,1,1,1B,3B,B13,3.27714473299218,0.537148072231004,0.439632839064643,0.487297326321831,0.487297326321831,0.474917368480809,0.571536185921048,0.5,0.487297326321831,0.5,0.5,0.580449045938938,0.5,0.5,0.487297326321831,0.5,0.567624838500408,0.539779086431057,0.460220913568943,0.571536185921048,0.487297326321831,0.40054580150395,0.82668361853237,0.428463814078952,0.0108852720262975,0.5,0.0254053473563387,0.901389955294274,8.26114261082397,2.37773706619489,0.5,73.3601674914133
CBC_1016,CBC_1016_MSI_TV_v3_Vset3_Tset2_2023-06-25_16h33.10.466.csv,3,39,3,2,z,0,1,3,tac,C,63,1,3C,2C,0,1,z,2.34554909999861,0,1,1,1,2C,3C,C32,2.60268968544438,0.537148072231004,0.439632839064643,0.487297326321831,0.487297326321831,0.474917368480809,0.582421457947345,0.5,0.487297326321831,0.5,0.5,0.580449045938938,0.5,0.5,0.487297326321831,0.5,0.567624838500408,0.537229449293014,0.462770550706986,0.580449045938938,0.5,0.249057337520333,0.812027473062446,0.419550954061062,0.0106588377216046,0.5,0.0254053473563387,0.901389955294274,8.26114261082397,2.37773706619489,0.5,73.3601674914133
CBC_1016,CBC_1016_MSI_TV_v3_Vset3_Tset2_2023-06-25_16h33.10.466.csv,3,40,3,2,b,1,0,0,tac,D,63,1,3D,2D,1,0,b,1.18311269999685,1,0,1,1,3D,2D,D32,2.62103882411258,0.537148072231004,0.439632839064643,0.487297326321831,0.487297326321831,0.474917368480809,0.582421457947345,0.5,0.487297326321831,0.5,0.5,0.591107883660543,0.5,0.5,0.487297326321831,0.5,0.567624838500408,0.531670693703321,0.468329306296679,0.567624838500408,0.5,0.46316650901533,0.776690186668948,0.432375161499592,0.0109846411661502,0.5,0.0254053473563387,0.901389955294274,8.26114261082397,2.37773706619489,0.5,73.3601674914133
CBC_1016,CBC_1016_MSI_TV_v3_Vset3_Tset2_2023-06-25_16h33.10.466.csv,3,41,0,1,z,0,1,1,tac,B,63,1,0B,1B,0,1,b,1.73471960000097,1,0,0,0,0B,1B,B01,2.63905732961526,0.537148072231004,0.439632839064643,0.487297326321831,0.487297326321831,0.474917368480809,0.582421457947345,0.5,0.487297326321831,0.5,0.5,0.591107883660543,0.5,0.5,0.487297326321831,0.5,0.578609479666558,0.449162895195242,0.550837104804758,0.474917368480809,0.582421457947345,0.0732259866346183,0.119797037785758,-0.474917368480809,-0.0120654407118133,0.5,0.0254053473563387,0.901389955294274,8.26114261082397,2.37773706619489,0.5,73.3601674914133
CBC_1016,CBC_1016_MSI_TV_v3_Vset3_Tset2_2023-06-25_16h33.10.466.csv,3,42,2,0,z,0,1,2,tac,A,27,1,2A,0A,0,1,z,1.67711549999876,0,1,1,1,0A,2A,A20,3.3499040872746,0.537148072231004,0.439632839064643,0.487297326321831,0.487297326321831,0.462851927768996,0.582421457947345,0.5,0.487297326321831,0.5,0.5,0.591107883660543,0.5,0.5,0.487297326321831,0.5,0.578609479666558,0.524330601699024,0.475669398300976,0.537148072231004,0.487297326321831,0.420905053429867,0.720922191625095,0.462851927768996,0.0117589139995223,0.5,0.0254053473563387,0.901389955294274,8.26114261082397,2.37773706619489,0.5,73.3601674914133
CBC_1016,CBC_1016_MSI_TV_v3_Vset3_Tset2_2023-06-25_16h33.10.466.csv,3,43,3,0,b,1,0,0,tac,D,9,1,3D,0D,1,0,b,1.41049550000025,1,0,1,1,3D,0D,D30,4.06044301054642,0.548906986230526,0.439632839064643,0.487297326321831,0.487297326321831,0.462851927768996,0.582421457947345,0.5,0.487297326321831,0.5,0.5,0.591107883660543,0.5,0.5,0.487297326321831,0.5,0.578609479666558,0.536440195060616,0.463559804939384,0.578609479666558,0.5,0.608163205549738,0.807412901750481,0.421390520333442,0.0107055725417394,0.5,0.0254053473563387,0.901389955294274,8.26114261082397,2.37773706619489,0.5,73.3601674914133
CBC_1016,CBC_1016_MSI_TV_v3_Vset3_Tset2_2023-06-25_16h33.10.466.csv,3,44,3,2,z,0,1,3,tac,C,63,1,3C,2C,0,1,z,1.77765849999923,0,1,1,1,2C,3C,C32,2.46809953147162,0.548906986230526,0.439632839064643,0.487297326321831,0.487297326321831,0.462851927768996,0.582421457947345,0.5,0.487297326321831,0.5,0.5,0.591107883660543,0.5,0.5,0.487297326321831,0.5,0.589315052208297,0.541750172015478,0.458249827984522,0.591107883660543,0.5,0.473678667265227,0.837676666710962,0.408892116339457,0.0103880462468724,0.5,0.0254053473563387,0.901389955294274,8.26114261082397,2.37773706619489,0.5,73.3601674914133
CBC_1016,CBC_1016_MSI_AV_v3_Vset6_Aset3_2023-06-25_16h41.28.303.csv,4,1,1,0,b,1,0,1,aud,B,63,1,1B,0B,1,0,z,1.80745469999965,0,1,0,0,0B,1B,B10,2.77258872223978,0.5,0.5,0.5,0.5,0.5,0.5,0.5,0.5,0.5,0.5,0.5,0.5,0.5,0.5,0.5,0.5,0.5,0.5,0.5,0.5,0.221912956602095,0.498699816439417,-0.5,-0.2133284593132,0.5,0.4266569186264,0.817369165009118,2.26295503803652,2.61746301334409,0.5,58.464216262133
CBC_1016,CBC_1016_MSI_AV_v3_Vset6_Aset3_2023-06-25_16h41.28.303.csv,4,2,0,1,b,1,0,2,aud,A,63,1,0A,1A,1,0,b,2.09121689999665,1,0,1,1,0A,1A,A01,2.83321334405622,0.5,0.5,0.5,0.5,0.2866715406868,0.5,0.5,0.5,0.5,0.5,0.5,0.5,0.5,0.5,0.5,0.5,0.5,0.5,0.5,0.5,0.182751068559578,0.499770876401856,0.5,0.2133284593132,0.5,0.4266569186264,0.817369165009118,2.26295503803652,2.61746301334409,0.5,58.464216262133
CBC_1016,CBC_1016_MSI_AV_v3_Vset6_Aset3_2023-06-25_16h41.28.303.csv,4,3,1,2,z,0,1,3,aud,C,9,1,1C,2C,0,1,z,2.30214630000046,0,1,1,1,2C,1C,C12,2.89037175789616,0.7133284593132,0.5,0.5,0.5,0.2866715406868,0.5,0.5,0.5,0.5,0.5,0.5,0.5,0.5,0.5,0.5,0.5,0.5,0.5,0.5,0.5,0.157174899376623,0.499667978913857,0.5,0.2133284593132,0.5,0.4266569186264,0.817369165009118,2.26295503803652,2.61746301334409,0.5,58.464216262133
CBC_1016,CBC_1016_MSI_AV_v3_Vset6_Aset3_2023-06-25_16h41.28.303.csv,4,4,1,0,z,0,1,2,aud,A,63,1,1A,0A,0,1,z,1.76446689999648,0,1,1,1,0A,1A,A10,2.94443897916644,0.7133284593132,0.5,0.5,0.5,0.2866715406868,0.5,0.5,0.5,0.5,0.5,0.7133284593132,0.5,0.5,0.5,0.5,0.5,0.587910432527872,0.412089567472128,0.7133284593132,0.5,0.35776948066466,0.739736365690997,0.2866715406868,0.122310396207313,0.5,0.4266569186264,0.817369165009118,2.26295503803652,2.61746301334409,0.5,58.464216262133
CBC_1016,CBC_1016_MSI_AV_v3_Vset6_Aset3_2023-06-25_16h41.28.303.csv,4,5,3,1,b,1,0,0,aud,D,27,1,3D,1D,1,0,b,2.41601329999685,1,0,1,1,3D,1D,D31,2.99573227355399,0.835638855520513,0.5,0.5,0.5,0.2866715406868,0.5,0.5,0.5,0.5,0.5,0.7133284593132,0.5,0.5,0.5,0.5,0.5,0.5,0.5,0.5,0.5,0.144934286085677,0.499998314543879,0.5,0.2133284593132,0.5,0.4266569186264,0.817369165009118,2.26295503803652,2.61746301334409,0.5,58.464216262133
CBC_1016,CBC_1016_MSI_AV_v3_Vset6_Aset3_2023-06-25_16h41.28.303.csv,4,6,0,1,z,0,1,1,aud,B,63,1,0B,1B,0,1,z,2.24398319999818,0,1,1,1,1B,0B,B01,3.04452243772342,0.835638855520513,0.5,0.5,0.5,0.2866715406868,0.5,0.5,0.5,0.5,0.5,0.7133284593132,0.5,0.5,0.5,0.5,0.7133284593132,0.63558928236234,0.36441071763766,0.5,0.2866715406868,0.279901047603257,0.833096496158603,0.5,0.2133284593132,0.5,0.4266569186264,0.817369165009118,2.26295503803652,2.61746301334409,0.5,58.464216262133
CBC_1016,CBC_1016_MSI_AV_v3_Vset6_Aset3_2023-06-25_16h41.28.303.csv,4,7,2,3,b,1,0,3,aud,C,63,1,2C,3C,1,0,z,1.47251479999977,0,1,0,0,3C,2C,C23,3.09104245335832,0.835638855520513,0.5,0.5,0.5,0.2866715406868,0.7133284593132,0.5,0.5,0.5,0.5,0.7133284593132,0.5,0.5,0.5,0.5,0.7133284593132,0.412089567472128,0.587910432527872,0.5,0.7133284593132,0.150437725633562,0.261247207346659,-0.5,-0.2133284593132,0.5,0.4266569186264,0.817369165009118,2.26295503803652,2.61746301334409,0.5,58.464216262133
CBC_1016,CBC_1016_MSI_AV_v3_Vset6_Aset3_2023-06-25_16h41.28.303.csv,4,8,2,0,z,0,1,2,aud,A,27,1,2A,0A,0,1,z,1.8742465999967,0,1,1,1,0A,2A,A20,3.13549421592915,0.835638855520513,0.5,0.5,0.5,0.2866715406868,0.7133284593132,0.5,0.5,0.5,0.5,0.7133284593132,0.2866715406868,0.5,0.5,0.5,0.7133284593132,0.625647308826498,0.374352691173502,0.835638855520513,0.5,0.377351061391091,0.815756797349043,0.164361144479487,0.0701258194455266,0.5,0.4266569186264,0.817369165009118,2.26295503803652,2.61746301334409,0.5,58.464216262133
CBC_1016,CBC_1016_MSI_AV_v3_Vset6_Aset3_2023-06-25_16h41.28.303.csv,4,9,3,2,b,1,0,0,aud,D,63,1,3D,2D,1,0,b,1.6578929999996,1,0,1,1,3D,2D,D32,3.17805383034795,0.905764674966039,0.5,0.5,0.5,0.2866715406868,0.7133284593132,0.5,0.5,0.5,0.5,0.7133284593132,0.2866715406868,0.5,0.5,0.5,0.7133284593132,0.587910432527872,0.412089567472128,0.7133284593132,0.5,0.385066626273136,0.739386206796117,0.2866715406868,0.122310396207313,0.5,0.4266569186264,0.817369165009118,2.26295503803652,2.61746301334409,0.5,58.464216262133
CBC_1016,CBC_1016_MSI_AV_v3_Vset6_Aset3_2023-06-25_16h41.28.303.csv,4,10,3,1,z,0,1,1,aud,B,27,1,3B,1B,0,1,z,1.79971759999898,0,1,1,1,1B,3B,B31,3.2188758248682,0.905764674966039,0.5,0.5,0.5,0.2866715406868,0.7133284593132,0.5,0.5,0.5,0.5,0.7133284593132,0.2866715406868,0.5,0.5,0.5,0.835638855520513,0.587910432527872,0.412089567472128,0.7133284593132,0.5,0.347835944630286,0.738450258991654,0.2866715406868,0.122310396207313,0.5,0.4266569186264,0.817369165009118,2.26295503803652,2.61746301334409,0.5,58.464216262133
CBC_1016,CBC_1016_MSI_AV_v3_Vset6_Aset3_2023-06-25_16h41.28.303.csv,4,11,3,2,z,0,1,3,aud,C,63,1,3C,2C,0,1,z,1.90388789999997,0,1,1,1,2C,3C,C32,3.25809653802148,0.905764674966039,0.5,0.5,0.5,0.2866715406868,0.835638855520513,0.5,0.5,0.5,0.5,0.7133284593132,0.2866715406868,0.5,0.5,0.5,0.835638855520513,0.7133284593132,0.2866715406868,0.7133284593132,0.2866715406868,0.444517054742329,0.926100799694276,0.2866715406868,0.122310396207313,0.5,0.4266569186264,0.817369165009118,2.26295503803652,2.61746301334409,0.5,58.464216262133
CBC_1016,CBC_1016_MSI_AV_v3_Vset6_Aset3_2023-06-25_16h41.28.303.csv,4,12,1,3,b,1,0,1,aud,B,27,1,1B,3B,1,0,b,1.44830409999486,1,0,1,1,1B,3B,B13,3.29583686600433,0.905764674966039,0.5,0.5,0.5,0.2866715406868,0.835638855520513,0.5,0.5,0.5,0.5,0.835638855520513,0.2866715406868,0.5,0.5,0.5,0.835638855520513,0.625647308826498,0.374352691173502,0.835638855520513,0.5,0.509751999354567,0.816011516913192,0.164361144479487,0.0701258194455266,0.5,0.4266569186264,0.817369165009118,2.26295503803652,2.61746301334409,0.5,58.464216262133
CBC_1016,CBC_1016_MSI_AV_v3_Vset6_Aset3_2023-06-25_16h41.28.303.csv,4,13,3,2,z,0,1,3,aud,C,63,1,3C,2C,0,1,z,1.81380869999703,0,1,1,1,2C,3C,C32,2.63905732961526,0.905764674966039,0.5,0.5,0.5,0.2866715406868,0.905764674966039,0.5,0.5,0.5,0.5,0.835638855520513,0.2866715406868,0.5,0.5,0.5,0.835638855520513,0.744570181604335,0.255429818395665,0.835638855520513,0.2866715406868,0.5124476224449,0.947915227018861,0.164361144479487,0.0701258194455266,0.5,0.4266569186264,0.817369165009118,2.26295503803652,2.61746301334409,0.5,58.464216262133
CBC_1016,CBC_1016_MSI_AV_v3_Vset6_Aset3_2023-06-25_16h41.28.303.csv,4,14,3,2,b,1,0,0,aud,D,63,1,3D,2D,1,0,b,1.81109479999941,1,0,1,1,3D,2D,D32,2.67414864942653,0.905764674966039,0.5,0.5,0.5,0.2866715406868,0.905764674966039,0.5,0.5,0.5,0.5,0.905764674966039,0.2866715406868,0.5,0.5,0.5,0.835638855520513,0.625647308826498,0.374352691173502,0.835638855520513,0.5,0.397579067899163,0.815510855686196,0.164361144479487,0.0701258194455266,0.5,0.4266569186264,0.817369165009118,2.26295503803652,2.61746301334409,0.5,58.464216262133
CBC_1016,CBC_1016_MSI_AV_v3_Vset6_Aset3_2023-06-25_16h41.28.303.csv,4,15,0,3,b,1,0,2,aud,A,9,1,0A,3A,1,0,b,2.62561959999948,1,0,1,1,0A,3A,A03,3.40119738166216,0.905764674966039,0.5,0.5,0.5,0.2866715406868,0.905764674966039,0.5,0.5,0.5,0.5,0.905764674966039,0.2866715406868,0.5,0.5,0.5,0.905764674966039,0.644321692738453,0.355678307261547,0.905764674966039,0.5,0.199277344594084,0.847018208021305,0.0942353250339609,0.040206153404747,0.5,0.4266569186264,0.817369165009118,2.26295503803652,2.61746301334409,0.5,58.464216262133
CBC_1016,CBC_1016_MSI_AV_v3_Vset6_Aset3_2023-06-25_16h41.28.303.csv,4,16,0,1,z,0,1,1,aud,B,63,0,0B,1B,1,0,z,2.08172769999874,0,1,1,0,1B,0B,B01,2.7408400239252,0.945970828370786,0.5,0.5,0.5,0.2866715406868,0.905764674966039,0.5,0.5,0.5,0.5,0.905764674966039,0.2866715406868,0.5,0.5,0.5,0.905764674966039,0.759591719101007,0.240408280898993,0.905764674966039,0.2866715406868,0.357874988901117,0.955922587354566,-0.905764674966039,-0.386450765221653,0.5,0.4266569186264,0.817369165009118,2.26295503803652,2.61746301334409,0.5,58.464216262133
CBC_1016,CBC_1016_MSI_AV_v3_Vset6_Aset3_2023-06-25_16h41.28.303.csv,4,17,2,3,z,0,1,0,aud,D,63,1,2D,3D,0,1,z,2.65692349999881,0,1,1,1,3D,2D,D23,3.46573590279973,0.945970828370786,0.5,0.5,0.5,0.2866715406868,0.519313909744387,0.5,0.5,0.5,0.5,0.905764674966039,0.2866715406868,0.5,0.5,0.5,0.905764674966039,0.644321692738453,0.355678307261547,0.905764674966039,0.5,0.193539492865594,0.847045573209975,0.0942353250339609,0.040206153404747,0.5,0.4266569186264,0.817369165009118,2.26295503803652,2.61746301334409,0.5,58.464216262133
CBC_1016,CBC_1016_MSI_AV_v3_Vset6_Aset3_2023-06-25_16h41.28.303.csv,4,18,0,2,z,0,1,3,aud,C,27,1,0C,2C,0,1,z,2.42801319999853,0,1,1,1,2C,0C,C02,3.49650756146648,0.945970828370786,0.5,0.5,0.5,0.2866715406868,0.519313909744387,0.5,0.5,0.5,0.5,0.905764674966039,0.2866715406868,0.5,0.5,0.5,0.945970828370786,0.644321692738453,0.355678307261547,0.905764674966039,0.5,0.239594884459228,0.846844043973326,0.0942353250339609,0.040206153404747,0.5,0.4266569186264,0.817369165009118,2.26295503803652,2.61746301334409,0.5,58.464216262133
CBC_1016,CBC_1016_MSI_AV_v3_Vset6_Aset3_2023-06-25_16h41.28.303.csv,4,19,0,1,b,1,0,2,aud,A,63,1,0A,1A,1,0,b,2.50095179999698,1,0,1,1,0A,1A,A01,2.83321334405622,0.945970828370786,0.5,0.5,0.5,0.2866715406868,0.519313909744387,0.5,0.5,0.5,0.5,0.945970828370786,0.2866715406868,0.5,0.5,0.5,0.945970828370786,0.654211557944524,0.345788442055476,0.945970828370786,0.5,0.225591519429301,0.861723015176826,0.0540291716292139,0.0230519198832573,0.5,0.4266569186264,0.817369165009118,2.26295503803652,2.61746301334409,0.5,58.464216262133
CBC_1016,CBC_1016_MSI_AV_v3_Vset6_Aset3_2023-06-25_16h41.28.303.csv,4,20,1,0,b,1,0,1,aud,B,63,1,1B,0B,1,0,b,1.6871914000003,1,0,1,1,1B,0B,B10,2.86220088092947,0.969022748254043,0.5,0.5,0.5,0.2866715406868,0.519313909744387,0.5,0.5,0.5,0.5,0.945970828370786,0.2866715406868,0.5,0.5,0.5,0.945970828370786,0.644321692738453,0.355678307261547,0.519313909744387,0.2866715406868,0.469442430837962,0.847198225921495,0.480686090255613,0.205088046095031,0.5,0.4266569186264,0.817369165009118,2.26295503803652,2.61746301334409,0.5,58.464216262133
CBC_1016,CBC_1016_MSI_AV_v3_Vset6_Aset3_2023-06-25_16h41.28.303.csv,4,21,1,3,z,0,1,0,aud,D,27,1,1D,3D,0,1,z,2.26932929999748,0,1,1,1,3D,1D,D13,3.58351893845611,0.969022748254043,0.5,0.5,0.5,0.2866715406868,0.724401955839418,0.5,0.5,0.5,0.5,0.945970828370786,0.2866715406868,0.5,0.5,0.5,0.945970828370786,0.654211557944524,0.345788442055476,0.945970828370786,0.5,0.2819509906671,0.861824816180849,0.0540291716292139,0.0230519198832573,0.5,0.4266569186264,0.817369165009118,2.26295503803652,2.61746301334409,0.5,58.464216262133
CBC_1016,CBC_1016_MSI_AV_v3_Vset6_Aset3_2023-06-25_16h41.28.303.csv,4,22,3,2,z,0,1,3,aud,C,63,1,3C,2C,0,1,z,2.02719559999605,0,1,1,1,2C,3C,C32,2.51230562397611,0.969022748254043,0.5,0.5,0.5,0.2866715406868,0.724401955839418,0.5,0.5,0.5,0.5,0.945970828370786,0.2866715406868,0.5,0.5,0.5,0.969022748254043,0.76743332220036,0.23256667779964,0.945970828370786,0.2866715406868,0.384409270203375,0.959598473465055,0.0540291716292139,0.0230519198832573,0.5,0.4266569186264,0.817369165009118,2.26295503803652,2.61746301334409,0.5,58.464216262133
CBC_1016,CBC_1016_MSI_AV_v3_Vset6_Aset3_2023-06-25_16h41.28.303.csv,4,23,0,1,b,1,0,2,aud,A,63,1,0A,1A,1,0,z,2.40883469999972,0,1,0,0,1A,0A,A01,2.53897387105828,0.969022748254043,0.5,0.5,0.5,0.2866715406868,0.724401955839418,0.5,0.5,0.5,0.5,0.969022748254043,0.2866715406868,0.5,0.5,0.5,0.969022748254043,0.340362326311324,0.659637673688676,0.5,0.969022748254043,0.0374367669715892,0.1313779125403,-0.5,-0.2133284593132,0.5,0.4266569186264,0.817369165009118,2.26295503803652,2.61746301334409,0.5,58.464216262133
CBC_1016,CBC_1016_MSI_AV_v3_Vset6_Aset3_2023-06-25_16h41.28.303.csv,4,24,2,3,z,0,1,0,aud,D,63,1,2D,3D,0,1,b,1.62222049999764,1,0,0,0,2D,3D,D23,2.9704144655697,0.969022748254043,0.2866715406868,0.5,0.5,0.2866715406868,0.724401955839418,0.5,0.5,0.5,0.5,0.969022748254043,0.2866715406868,0.5,0.5,0.5,0.969022748254043,0.340362326311324,0.659637673688676,0.5,0.969022748254043,0.0785664146794634,0.131225569371644,-0.5,-0.2133284593132,0.5,0.4266569186264,0.817369165009118,2.26295503803652,2.61746301334409,0.5,58.464216262133
CBC_1016,CBC_1016_MSI_AV_v3_Vset6_Aset3_2023-06-25_16h41.28.303.csv,4,25,2,0,b,1,0,3,aud,C,27,1,2C,0C,1,0,b,2.32586329999685,1,0,1,1,2C,0C,C20,3.68887945411394,0.969022748254043,0.2866715406868,0.5,0.5,0.2866715406868,0.724401955839418,0.5,0.5,0.5,0.5,0.969022748254043,0.2866715406868,0.5,0.5,0.2866715406868,0.969022748254043,0.659637673688676,0.340362326311324,0.969022748254043,0.5,0.268476343394919,0.868762959641738,0.0309772517459567,0.0132166587774441,0.5,0.4266569186264,0.817369165009118,2.26295503803652,2.61746301334409,0.5,58.464216262133
CBC_1016,CBC_1016_MSI_AV_v3_Vset6_Aset3_2023-06-25_16h41.28.303.csv,4,26,0,1,b,1,0,2,aud,A,63,1,0A,1A,1,0,b,1.62972849999642,1,0,1,1,0A,1A,A01,2.32727770558442,0.969022748254043,0.2866715406868,0.5,0.5,0.2866715406868,0.724401955839418,0.5,0.5,0.5,0.5,0.982239407031487,0.2866715406868,0.5,0.5,0.2866715406868,0.969022748254043,0.771702759810588,0.228297240189412,0.969022748254043,0.2866715406868,0.671787707695556,0.961551513645218,0.0309772517459567,0.0132166587774441,0.5,0.4266569186264,0.817369165009118,2.26295503803652,2.61746301334409,0.5,58.464216262133
CBC_1016,CBC_1016_MSI_AV_v3_Vset6_Aset3_2023-06-25_16h41.28.303.csv,4,27,1,3,b,1,0,1,aud,B,27,1,1B,3B,1,0,b,1.62118609999743,1,0,1,1,1B,3B,B13,3.04452243772342,0.982239407031487,0.2866715406868,0.5,0.5,0.2866715406868,0.724401955839418,0.5,0.5,0.5,0.5,0.982239407031487,0.2866715406868,0.5,0.5,0.2866715406868,0.969022748254043,0.591637372338879,0.408362627661121,0.724401955839418,0.5,0.400513276175412,0.747365957948643,0.275598044160582,0.117585812301016,0.5,0.4266569186264,0.817369165009118,2.26295503803652,2.61746301334409,0.5,58.464216262133
CBC_1016,CBC_1016_MSI_AV_v3_Vset6_Aset3_2023-06-25_16h41.28.303.csv,4,28,3,2,z,0,1,3,aud,C,63,1,3C,2C,0,1,z,0.966322799999034,0,1,1,1,2C,3C,C32,2.37490575457367,0.982239407031487,0.2866715406868,0.5,0.5,0.2866715406868,0.841987768140434,0.5,0.5,0.5,0.5,0.982239407031487,0.2866715406868,0.5,0.5,0.2866715406868,0.969022748254043,0.774080646713401,0.225919353286598,0.982239407031487,0.2866715406868,0.130738268238478,0.962533202430026,0.0177605929685125,0.00757767986892325,0.5,0.4266569186264,0.817369165009118,2.26295503803652,2.61746301334409,0.5,58.464216262133
CBC_1016,CBC_1016_MSI_AV_v3_Vset6_Aset3_2023-06-25_16h41.28.303.csv,4,29,3,2,b,1,0,0,aud,D,63,1,3D,2D,1,0,b,1.26502369999798,1,0,1,1,3D,2D,D32,2.68557734525015,0.982239407031487,0.2866715406868,0.5,0.5,0.2866715406868,0.841987768140434,0.5,0.5,0.5,0.5,0.989817086900411,0.2866715406868,0.5,0.5,0.2866715406868,0.969022748254043,0.771702759810588,0.228297240189412,0.969022748254043,0.2866715406868,0.916349111058021,0.961416289863185,0.0309772517459567,0.0132166587774441,0.5,0.4266569186264,0.817369165009118,2.26295503803652,2.61746301334409,0.5,58.464216262133
CBC_1016,CBC_1016_MSI_AV_v3_Vset6_Aset3_2023-06-25_16h41.28.303.csv,4,30,0,1,z,0,1,1,aud,B,63,1,0B,1B,0,1,z,2.32323679999899,0,1,1,1,1B,0B,B01,2.70805020110221,0.982239407031487,0.2866715406868,0.5,0.5,0.2866715406868,0.841987768140434,0.5,0.5,0.5,0.5,0.989817086900411,0.2866715406868,0.5,0.5,0.2866715406868,0.982239407031487,0.746007020502339,0.253992979497661,0.841987768140434,0.2866715406868,0.261528585267438,0.948587788920463,0.158012231859566,0.0674170119504826,0.5,0.4266569186264,0.817369165009118,2.26295503803652,2.61746301334409,0.5,58.464216262133
CBC_1016,CBC_1016_MSI_AV_v3_Vset6_Aset3_2023-06-25_16h41.28.303.csv,4,31,2,0,z,0,1,2,aud,A,27,1,2A,0A,0,1,z,2.11342019999574,0,1,1,1,0A,2A,A20,3.13549421592915,0.982239407031487,0.2866715406868,0.5,0.5,0.2866715406868,0.909404780090917,0.5,0.5,0.5,0.5,0.989817086900411,0.2866715406868,0.5,0.5,0.2866715406868,0.982239407031487,0.662672576624204,0.337327423375796,0.982239407031487,0.5,0.331945449217233,0.872817381773736,0.0177605929685125,0.00757767986892325,0.5,0.4266569186264,0.817369165009118,2.26295503803652,2.61746301334409,0.5,58.464216262133
CBC_1016,CBC_1016_MSI_AV_v3_Vset6_Aset3_2023-06-25_16h41.28.303.csv,4,32,3,0,b,1,0,0,aud,D,9,1,3D,0D,1,0,b,2.3324885999973,1,0,1,1,3D,0D,D30,3.85014760171006,0.989817086900411,0.2866715406868,0.5,0.5,0.2866715406868,0.909404780090917,0.5,0.5,0.5,0.5,0.989817086900411,0.2866715406868,0.5,0.5,0.2866715406868,0.982239407031487,0.662672576624204,0.337327423375796,0.982239407031487,0.5,0.267513232103409,0.872929774466045,0.0177605929685125,0.00757767986892325,0.5,0.4266569186264,0.817369165009118,2.26295503803652,2.61746301334409,0.5,58.464216262133
CBC_1016,CBC_1016_MSI_AV_v3_Vset6_Aset3_2023-06-25_16h41.28.303.csv,4,33,3,2,z,0,1,3,aud,C,63,1,3C,2C,0,1,z,1.26453409999522,0,1,1,1,2C,3C,C32,2.26176309847379,0.989817086900411,0.2866715406868,0.5,0.5,0.2866715406868,0.909404780090917,0.5,0.5,0.5,0.5,0.989817086900411,0.2866715406868,0.5,0.5,0.2866715406868,0.989817086900411,0.77542178246534,0.22457821753466,0.989817086900411,0.2866715406868,0.928052937248846,0.963024768437835,0.0101829130995893,0.00434461032571117,0.5,0.4266569186264,0.817369165009118,2.26295503803652,2.61746301334409,0.5,58.464216262133
CBC_1016,CBC_1016_MSI_AV_v3_Vset6_Aset3_2023-06-25_16h41.28.303.csv,4,34,0,1,z,0,1,1,aud,B,63,1,0B,1B,0,1,z,1.09215079999922,0,1,1,1,1B,0B,B01,2.50552593699074,0.989817086900411,0.2866715406868,0.5,0.5,0.2866715406868,0.909404780090917,0.5,0.5,0.5,0.5,0.994161697226122,0.2866715406868,0.5,0.5,0.2866715406868,0.989817086900411,0.760323370919675,0.239676629080325,0.909404780090917,0.2866715406868,0.620419820003378,0.956250500329563,0.0905952199090833,0.0386530773686905,0.5,0.4266569186264,0.817369165009118,2.26295503803652,2.61746301334409,0.5,58.464216262133
CBC_1016,CBC_1016_MSI_AV_v3_Vset6_Aset3_2023-06-25_16h41.28.303.csv,4,35,0,1,b,1,0,2,aud,A,63,0,0A,1A,0,1,b,2.27288259999841,1,0,1,0,0A,1A,A01,2.30258509299405,0.989817086900411,0.2866715406868,0.5,0.5,0.2866715406868,0.948057857459607,0.5,0.5,0.5,0.5,0.994161697226122,0.2866715406868,0.5,0.5,0.2866715406868,0.989817086900411,0.77542178246534,0.22457821753466,0.989817086900411,0.2866715406868,0.264701376783819,0.963302432869151,-0.989817086900411,-0.422312308300688,0.5,0.4266569186264,0.817369165009118,2.26295503803652,2.61746301334409,0.5,58.464216262133
CBC_1016,CBC_1016_MSI_AV_v3_Vset6_Aset3_2023-06-25_16h41.28.303.csv,4,36,2,3,z,0,1,0,aud,D,63,1,2D,3D,0,1,z,2.35554629999751,0,1,1,1,3D,2D,D23,2.83321334405622,0.567504778599722,0.2866715406868,0.5,0.5,0.2866715406868,0.948057857459607,0.5,0.5,0.5,0.5,0.994161697226122,0.2866715406868,0.5,0.5,0.2866715406868,0.989817086900411,0.77542178246534,0.22457821753466,0.989817086900411,0.2866715406868,0.234192993169432,0.96311347410172,0.0101829130995893,0.00434461032571117,0.5,0.4266569186264,0.817369165009118,2.26295503803652,2.61746301334409,0.5,58.464216262133
CBC_1016,CBC_1016_MSI_AV_v3_Vset6_Aset3_2023-06-25_16h41.28.303.csv,4,37,1,2,b,1,0,1,aud,B,9,1,1B,2B,1,0,b,1.19316669999534,1,0,1,1,1B,2B,B12,3.95124371858143,0.567504778599722,0.2866715406868,0.5,0.5,0.2866715406868,0.948057857459607,0.5,0.5,0.5,0.5,0.994161697226122,0.2866715406868,0.5,0.5,0.2866715406868,0.994161697226122,0.654709929286132,0.345290070713868,0.948057857459607,0.5,0.529000289625628,0.861988582749414,0.0519421425403928,0.0221614744831372,0.5,0.4266569186264,0.817369165009118,2.26295503803652,2.61746301334409,0.5,58.464216262133
CBC_1016,CBC_1016_MSI_AV_v3_Vset6_Aset3_2023-06-25_16h41.28.303.csv,4,38,2,0,z,0,1,2,aud,A,27,1,2A,0A,0,1,z,1.90357709999807,0,1,1,1,0A,2A,A20,2.87167962488401,0.567504778599722,0.2866715406868,0.5,0.5,0.2866715406868,0.970219331942744,0.5,0.5,0.5,0.5,0.994161697226122,0.2866715406868,0.5,0.5,0.2866715406868,0.994161697226122,0.53161802174238,0.468381978257619,0.567504778599722,0.5,0.248898918194385,0.593084689006013,0.432495221400278,0.184527078483285,0.5,0.4266569186264,0.817369165009118,2.26295503803652,2.61746301334409,0.5,58.464216262133
CBC_1016,CBC_1016_MSI_AV_v3_Vset6_Aset3_2023-06-25_16h41.28.303.csv,4,39,2,3,b,1,0,3,aud,C,63,1,2C,3C,1,0,b,2.44964350000009,1,0,1,1,2C,3C,C23,3.29583686600433,0.752031857083007,0.2866715406868,0.5,0.5,0.2866715406868,0.970219331942744,0.5,0.5,0.5,0.5,0.994161697226122,0.2866715406868,0.5,0.5,0.2866715406868,0.994161697226122,0.776183555984288,0.223816444015712,0.994161697226122,0.2866715406868,0.202806332874558,0.963520250890046,0.00583830277387809,0.00249095227151079,0.5,0.4266569186264,0.817369165009118,2.26295503803652,2.61746301334409,0.5,58.464216262133
CBC_1016,CBC_1016_MSI_AV_v3_Vset6_Aset3_2023-06-25_16h41.28.303.csv,4,40,1,3,z,0,1,0,aud,D,27,1,1D,3D,0,1,z,2.53475189999517,0,1,1,1,3D,1D,D13,3.31418600467253,0.752031857083007,0.2866715406868,0.5,0.5,0.2866715406868,0.970219331942744,0.5,0.5,0.5,0.5,0.996652649497633,0.2866715406868,0.5,0.5,0.2866715406868,0.994161697226122,0.665364196573745,0.334635803426255,0.994161697226122,0.5,0.219072922047065,0.876408056179657,0.00583830277387809,0.00249095227151079,0.5,0.4266569186264,0.817369165009118,2.26295503803652,2.61746301334409,0.5,58.464216262133
CBC_1016,CBC_1016_MSI_AV_v3_Vset6_Aset3_2023-06-25_16h41.28.303.csv,4,41,0,1,b,1,0,2,aud,A,63,1,0A,1A,1,0,z,2.95999049999591,0,1,0,0,1A,0A,A01,2.23359222150709,0.752031857083007,0.2866715406868,0.5,0.5,0.2866715406868,0.970219331942744,0.5,0.5,0.5,0.5,0.996652649497633,0.2866715406868,0.5,0.5,0.2866715406868,0.996652649497633,0.275989797763549,0.724010202236451,0.2866715406868,0.752031857083007,0.00866041173733585,0.0658558101260756,-0.2866715406868,-0.122310396207313,0.5,0.4266569186264,0.817369165009118,2.26295503803652,2.61746301334409,0.5,58.464216262133
CBC_1016,CBC_1016_MSI_AV_v3_Vset6_Aset3_2023-06-25_16h41.28.303.csv,4,42,0,2,z,0,1,3,aud,C,27,1,0C,2C,0,1,z,1.57874679999804,0,1,1,1,2C,0C,C02,3.3499040872746,0.752031857083007,0.164361144479488,0.5,0.5,0.2866715406868,0.970219331942744,0.5,0.5,0.5,0.5,0.996652649497633,0.2866715406868,0.5,0.5,0.2866715406868,0.996652649497633,0.665921147323108,0.334078852676892,0.996652649497633,0.5,0.550213496299474,0.87734286912302,0.00334735050236734,0.00142817025090258,0.5,0.4266569186264,0.817369165009118,2.26295503803652,2.61746301334409,0.5,58.464216262133
CBC_1016,CBC_1016_MSI_AV_v3_Vset6_Aset3_2023-06-25_16h41.28.303.csv,4,43,3,2,b,1,0,0,aud,D,63,1,3D,2D,1,0,b,1.66788369999631,1,0,1,1,3D,2D,D32,2.67414864942653,0.752031857083007,0.164361144479488,0.5,0.5,0.2866715406868,0.970219331942744,0.5,0.5,0.5,0.5,0.998080819748535,0.2866715406868,0.5,0.5,0.2866715406868,0.996652649497633,0.776617987193399,0.223382012806601,0.996652649497633,0.2866715406868,0.642305760637771,0.963723495346218,0.00334735050236734,0.00142817025090258,0.5,0.4266569186264,0.817369165009118,2.26295503803652,2.61746301334409,0.5,58.464216262133
CBC_1016,CBC_1016_MSI_AV_v3_Vset6_Aset3_2023-06-25_16h41.28.303.csv,4,44,1,0,b,1,0,1,aud,B,63,1,1B,0B,1,0,b,3.03867339999852,1,0,1,1,1B,0B,B10,2.97892515523761,0.752031857083007,0.164361144479488,0.5,0.5,0.2866715406868,0.970219331942744,0.5,0.5,0.5,0.5,0.998080819748535,0.2866715406868,0.5,0.5,0.2866715406868,0.998080819748535,0.771920103065866,0.228079896934134,0.970219331942744,0.2866715406868,0.086266539262096,0.96156555984746,0.0297806680572555,0.0127061280679443,0.5,0.4266569186264,0.817369165009118,2.26295503803652,2.61746301334409,0.5,58.464216262133
