ID,filename,session,trial,visStimLeft,visStimRight,correctKey,leftCorrect,rightCorrect,secondStim,mod2Type,mod2Stim,frequency,rewardAccurate,stimPairLeft,stimPairRight,pCorrectLeft,pCorrectRight,key,reactionTime,choiceLeft,choiceRight,choiceAccurate,reward,chosenPair,otherPair,triplet,surprise,0A belief,1A belief,2A belief,3A belief,0B belief,1B belief,2B belief,3B belief,0C belief,1C belief,2C belief,3C belief,0D belief,1D belief,2D belief,3D belief,beliefPairNorm,beliefOtherPairNorm,beliefPair,beliefOtherPair,lik,corrLik,rewardPE,update2,fitCBCsimpleRW_CBCdriftDiffusionLR_pwBelief_startBelief,fitCBCsimpleRW_CBCdriftDiffusionLR_pwBelief_alpha1,fitCBCsimpleRW_CBCdriftDiffusionLR_pwBelief_nonDecisionTime,fitCBCsimpleRW_CBCdriftDiffusionLR_pwBelief_weight,fitCBCsimpleRW_CBCdriftDiffusionLR_pwBelief_startingBoundary,fitCBCsimpleRW_CBCdriftDiffusionLR_pwBelief_startingPoint,fit_CBCsimpleRW_CBCdriftDiffusionLR_pwBelief_NLL
CBC_1016,CBC_1016_MSI_TV_v3_Vset2_Tset3_2023-06-25_14h56.17.212.csv,1,1,0,1,z,0,1,1,tac,B,63,1,0B,1B,0,1,z,2.33870570000363,0,1,1,1,1B,0B,B01,2.77258872223978,0.5,0.5,0.5,0.5,0.5,0.5,0.5,0.5,0.5,0.5,0.5,0.5,0.5,0.5,0.5,0.5,0.5,0.5,0.5,0.5,0.17180387881877,0.498972472750609,0.5,0.104975856512663,0.5,0.209951713025325,0.982893800227453,0.819863232611508,2.49249780596327,0.5,71.7693164161597
CBC_1016,CBC_1016_MSI_TV_v3_Vset2_Tset3_2023-06-25_14h56.17.212.csv,1,2,0,1,b,1,0,2,tac,A,63,1,0A,1A,1,0,b,2.20432540000184,1,0,1,1,0A,1A,A01,2.83321334405622,0.5,0.5,0.5,0.5,0.5,0.604975856512663,0.5,0.5,0.5,0.5,0.5,0.5,0.5,0.5,0.5,0.5,0.5,0.5,0.5,0.5,0.191482032106961,0.500187759239947,0.5,0.104975856512663,0.5,0.209951713025325,0.982893800227453,0.819863232611508,2.49249780596327,0.5,71.7693164161597
CBC_1016,CBC_1016_MSI_TV_v3_Vset2_Tset3_2023-06-25_14h56.17.212.csv,1,3,2,3,z,0,1,0,tac,D,63,1,2D,3D,0,1,z,1.62433350000356,0,1,1,1,3D,2D,D23,2.89037175789616,0.604975856512663,0.5,0.5,0.5,0.5,0.604975856512663,0.5,0.5,0.5,0.5,0.5,0.5,0.5,0.5,0.5,0.5,0.5,0.5,0.5,0.5,0.287805857812,0.499061370106729,0.5,0.104975856512663,0.5,0.209951713025325,0.982893800227453,0.819863232611508,2.49249780596327,0.5,71.7693164161597
CBC_1016,CBC_1016_MSI_TV_v3_Vset2_Tset3_2023-06-25_14h56.17.212.csv,1,4,2,1,z,0,1,1,tac,B,9,1,2B,1B,0,1,z,2.25795560000188,0,1,1,1,1B,2B,B21,2.94443897916644,0.604975856512663,0.5,0.5,0.5,0.5,0.604975856512663,0.5,0.5,0.5,0.5,0.5,0.5,0.5,0.5,0.5,0.604975856512663,0.604975856512663,0.395024143487337,0.604975856512663,0.5,0.223393038333278,0.606290981546761,0.395024143487337,0.0829359956115283,0.5,0.209951713025325,0.982893800227453,0.819863232611508,2.49249780596327,0.5,71.7693164161597
CBC_1016,CBC_1016_MSI_TV_v3_Vset2_Tset3_2023-06-25_14h56.17.212.csv,1,5,0,2,b,1,0,2,tac,A,27,1,0A,2A,1,0,b,1.72340210000402,1,0,1,1,0A,2A,A02,2.99573227355399,0.604975856512663,0.5,0.5,0.5,0.5,0.687911852124191,0.5,0.5,0.5,0.5,0.5,0.5,0.5,0.5,0.5,0.604975856512663,0.604975856512663,0.395024143487337,0.604975856512663,0.5,0.335341015258863,0.606386164352335,0.395024143487337,0.0829359956115283,0.5,0.209951713025325,0.982893800227453,0.819863232611508,2.49249780596327,0.5,71.7693164161597
CBC_1016,CBC_1016_MSI_TV_v3_Vset2_Tset3_2023-06-25_14h56.17.212.csv,1,6,2,3,b,1,0,3,tac,C,63,1,2C,3C,1,0,z,2.63511769999968,0,1,0,0,3C,2C,C23,3.04452243772342,0.687911852124191,0.5,0.5,0.5,0.5,0.687911852124191,0.5,0.5,0.5,0.5,0.5,0.5,0.5,0.5,0.5,0.604975856512663,0.5,0.5,0.5,0.5,0.136288711838818,0.500676661143441,-0.5,-0.104975856512663,0.5,0.209951713025325,0.982893800227453,0.819863232611508,2.49249780596327,0.5,71.7693164161597
CBC_1016,CBC_1016_MSI_TV_v3_Vset2_Tset3_2023-06-25_14h56.17.212.csv,1,7,1,3,z,0,1,0,tac,D,27,1,1D,3D,0,1,z,2.30741640000269,0,1,1,1,3D,1D,D13,3.09104245335832,0.687911852124191,0.5,0.5,0.5,0.5,0.687911852124191,0.5,0.5,0.5,0.5,0.5,0.395024143487337,0.5,0.5,0.5,0.604975856512663,0.604975856512663,0.395024143487337,0.604975856512663,0.5,0.214611175539814,0.60610386552955,0.395024143487337,0.0829359956115283,0.5,0.209951713025325,0.982893800227453,0.819863232611508,2.49249780596327,0.5,71.7693164161597
CBC_1016,CBC_1016_MSI_TV_v3_Vset2_Tset3_2023-06-25_14h56.17.212.csv,1,8,1,0,z,0,1,2,tac,A,63,1,1A,0A,0,1,b,2.29211830000349,1,0,0,0,1A,0A,A10,3.13549421592915,0.687911852124191,0.5,0.5,0.5,0.5,0.687911852124191,0.5,0.5,0.5,0.5,0.5,0.395024143487337,0.5,0.5,0.5,0.687911852124191,0.312088147875809,0.687911852124191,0.5,0.687911852124191,0.114471804217039,0.317320763693973,-0.5,-0.104975856512663,0.5,0.209951713025325,0.982893800227453,0.819863232611508,2.49249780596327,0.5,71.7693164161597
CBC_1016,CBC_1016_MSI_TV_v3_Vset2_Tset3_2023-06-25_14h56.17.212.csv,1,9,2,0,b,1,0,3,tac,C,27,1,2C,0C,1,0,b,2.61927950000245,1,0,1,1,2C,0C,C20,3.17805383034795,0.687911852124191,0.395024143487337,0.5,0.5,0.5,0.687911852124191,0.5,0.5,0.5,0.5,0.5,0.395024143487337,0.5,0.5,0.5,0.687911852124191,0.5,0.5,0.5,0.5,0.137723401958683,0.499626243205591,0.5,0.104975856512663,0.5,0.209951713025325,0.982893800227453,0.819863232611508,2.49249780596327,0.5,71.7693164161597
CBC_1016,CBC_1016_MSI_TV_v3_Vset2_Tset3_2023-06-25_14h56.17.212.csv,1,10,2,3,z,0,1,0,tac,D,63,1,2D,3D,0,1,z,2.3202005000021,0,1,1,1,3D,2D,D23,2.52572864430826,0.687911852124191,0.395024143487337,0.5,0.5,0.5,0.687911852124191,0.5,0.5,0.5,0.5,0.604975856512663,0.395024143487337,0.5,0.5,0.5,0.687911852124191,0.687911852124191,0.312088147875809,0.687911852124191,0.5,0.240361663015156,0.682173631762261,0.312088147875809,0.0655234412614271,0.5,0.209951713025325,0.982893800227453,0.819863232611508,2.49249780596327,0.5,71.7693164161597
CBC_1016,CBC_1016_MSI_TV_v3_Vset2_Tset3_2023-06-25_14h56.17.212.csv,1,11,1,0,b,1,0,1,tac,B,63,1,1B,0B,1,0,z,2.50163420000172,0,1,0,0,0B,1B,B10,3.25809653802148,0.687911852124191,0.395024143487337,0.5,0.5,0.5,0.687911852124191,0.5,0.5,0.5,0.5,0.604975856512663,0.395024143487337,0.5,0.5,0.5,0.753435293385618,0.312088147875809,0.687911852124191,0.5,0.687911852124191,0.0958659623668315,0.316818654959384,-0.5,-0.104975856512663,0.5,0.209951713025325,0.982893800227453,0.819863232611508,2.49249780596327,0.5,71.7693164161597
CBC_1016,CBC_1016_MSI_TV_v3_Vset2_Tset3_2023-06-25_14h56.17.212.csv,1,12,0,1,b,1,0,2,tac,A,63,1,0A,1A,1,0,z,2.69494510000368,0,1,0,0,1A,0A,A01,2.60268968544438,0.687911852124191,0.395024143487337,0.5,0.5,0.395024143487337,0.687911852124191,0.5,0.5,0.5,0.5,0.604975856512663,0.395024143487337,0.5,0.5,0.5,0.753435293385618,0.228532396596603,0.771467603403397,0.395024143487337,0.687911852124191,0.063015588873979,0.248386511564964,-0.395024143487337,-0.0829359956115283,0.5,0.209951713025325,0.982893800227453,0.819863232611508,2.49249780596327,0.5,71.7693164161597
CBC_1016,CBC_1016_MSI_TV_v3_Vset2_Tset3_2023-06-25_14h56.17.212.csv,1,13,2,3,z,0,1,0,tac,D,63,1,2D,3D,0,1,b,2.34718440000142,1,0,0,0,2D,3D,D23,2.23359222150709,0.687911852124191,0.312088147875809,0.5,0.5,0.395024143487337,0.687911852124191,0.5,0.5,0.5,0.5,0.604975856512663,0.395024143487337,0.5,0.5,0.5,0.753435293385618,0.246564706614382,0.753435293385618,0.5,0.753435293385618,0.0904584050828428,0.261666301348534,-0.5,-0.104975856512663,0.5,0.209951713025325,0.982893800227453,0.819863232611508,2.49249780596327,0.5,71.7693164161597
CBC_1016,CBC_1016_MSI_TV_v3_Vset2_Tset3_2023-06-25_14h56.17.212.csv,1,14,2,0,b,1,0,3,tac,C,27,1,2C,0C,1,0,b,2.93021090000548,1,0,1,1,2C,0C,C20,2.67414864942653,0.687911852124191,0.312088147875809,0.5,0.5,0.395024143487337,0.687911852124191,0.5,0.5,0.5,0.5,0.604975856512663,0.395024143487337,0.5,0.5,0.395024143487337,0.753435293385618,0.604975856512663,0.395024143487337,0.604975856512663,0.5,0.129929455977952,0.607103498584048,0.395024143487337,0.0829359956115283,0.5,0.209951713025325,0.982893800227453,0.819863232611508,2.49249780596327,0.5,71.7693164161597
CBC_1016,CBC_1016_MSI_TV_v3_Vset2_Tset3_2023-06-25_14h56.17.212.csv,1,15,0,1,b,1,0,2,tac,A,63,1,0A,1A,1,0,z,2.24476640000285,0,1,0,0,1A,0A,A01,2.30258509299405,0.687911852124191,0.312088147875809,0.5,0.5,0.395024143487337,0.687911852124191,0.5,0.5,0.5,0.5,0.687911852124191,0.395024143487337,0.5,0.5,0.395024143487337,0.753435293385618,0.170689280144179,0.829310719855821,0.312088147875809,0.687911852124191,0.0785384052879623,0.206101346505228,-0.312088147875809,-0.0655234412614271,0.5,0.209951713025325,0.982893800227453,0.819863232611508,2.49249780596327,0.5,71.7693164161597
CBC_1016,CBC_1016_MSI_TV_v3_Vset2_Tset3_2023-06-25_14h56.17.212.csv,1,16,1,3,b,1,0,1,tac,B,27,1,1B,3B,1,0,z,2.67382310000175,0,1,0,0,3B,1B,B13,3.43398720448515,0.687911852124191,0.246564706614382,0.5,0.5,0.395024143487337,0.687911852124191,0.5,0.5,0.5,0.5,0.687911852124191,0.395024143487337,0.5,0.5,0.395024143487337,0.753435293385618,0.312088147875809,0.687911852124191,0.5,0.687911852124191,0.0829965082129021,0.317025270814524,-0.5,-0.104975856512663,0.5,0.209951713025325,0.982893800227453,0.819863232611508,2.49249780596327,0.5,71.7693164161597
CBC_1016,CBC_1016_MSI_TV_v3_Vset2_Tset3_2023-06-25_14h56.17.212.csv,1,17,3,2,z,0,1,3,tac,C,63,1,3C,2C,0,1,z,1.78840320000381,0,1,1,1,2C,3C,C32,3.46573590279973,0.687911852124191,0.246564706614382,0.5,0.5,0.395024143487337,0.687911852124191,0.5,0.395024143487337,0.5,0.5,0.687911852124191,0.395024143487337,0.5,0.5,0.395024143487337,0.753435293385618,0.771467603403396,0.228532396596604,0.687911852124191,0.395024143487337,0.420944107618828,0.751822256096567,0.312088147875809,0.0655234412614271,0.5,0.209951713025325,0.982893800227453,0.819863232611508,2.49249780596327,0.5,71.7693164161597
CBC_1016,CBC_1016_MSI_TV_v3_Vset2_Tset3_2023-06-25_14h56.17.212.csv,1,18,2,3,z,0,1,0,tac,D,63,0,2D,3D,1,0,z,2.29047910000372,0,1,1,0,3D,2D,D23,2.11021320034659,0.687911852124191,0.246564706614382,0.5,0.5,0.395024143487337,0.687911852124191,0.5,0.395024143487337,0.5,0.5,0.753435293385618,0.395024143487337,0.5,0.5,0.395024143487337,0.753435293385618,0.823938183558081,0.176061816441919,0.753435293385618,0.395024143487337,0.288821086398155,0.791170624826463,-0.753435293385618,-0.158185030500049,0.5,0.209951713025325,0.982893800227453,0.819863232611508,2.49249780596327,0.5,71.7693164161597
CBC_1016,CBC_1016_MSI_TV_v3_Vset2_Tset3_2023-06-25_14h56.17.212.csv,1,19,1,0,b,1,0,1,tac,B,63,1,1B,0B,1,0,b,3.27940730000046,1,0,1,1,1B,0B,B10,2.83321334405622,0.687911852124191,0.246564706614382,0.5,0.5,0.395024143487337,0.687911852124191,0.5,0.395024143487337,0.5,0.5,0.753435293385618,0.395024143487337,0.5,0.5,0.395024143487337,0.595250262885569,0.771467603403397,0.228532396596603,0.687911852124191,0.395024143487337,0.11317437096957,0.751984547378913,0.312088147875809,0.0655234412614271,0.5,0.209951713025325,0.982893800227453,0.819863232611508,2.49249780596327,0.5,71.7693164161597
CBC_1016,CBC_1016_MSI_TV_v3_Vset2_Tset3_2023-06-25_14h56.17.212.csv,1,20,2,0,z,0,1,2,tac,A,27,1,2A,0A,0,1,z,2.73082460000296,0,1,1,1,0A,2A,A20,3.55534806148941,0.687911852124191,0.246564706614382,0.5,0.5,0.395024143487337,0.753435293385618,0.5,0.395024143487337,0.5,0.5,0.753435293385618,0.395024143487337,0.5,0.5,0.395024143487337,0.595250262885569,0.687911852124191,0.312088147875809,0.687911852124191,0.5,0.170356027297381,0.682651767475804,0.312088147875809,0.0655234412614271,0.5,0.209951713025325,0.982893800227453,0.819863232611508,2.49249780596327,0.5,71.7693164161597
CBC_1016,CBC_1016_MSI_TV_v3_Vset2_Tset3_2023-06-25_14h56.17.212.csv,1,21,0,3,z,0,1,0,tac,D,9,1,0D,3D,0,1,z,3.18649170000208,0,1,1,1,3D,0D,D03,3.58351893845611,0.753435293385618,0.246564706614382,0.5,0.5,0.395024143487337,0.753435293385618,0.5,0.395024143487337,0.5,0.5,0.753435293385618,0.395024143487337,0.5,0.5,0.395024143487337,0.595250262885569,0.595250262885569,0.404749737114431,0.595250262885569,0.5,0.103932186660765,0.596404153062222,0.404749737114431,0.0849779006537248,0.5,0.209951713025325,0.982893800227453,0.819863232611508,2.49249780596327,0.5,71.7693164161597
CBC_1016,CBC_1016_MSI_TV_v3_Vset2_Tset3_2023-06-25_14h56.17.212.csv,1,22,2,3,b,1,0,3,tac,C,63,1,2C,3C,1,0,b,1.36447970000518,1,0,1,1,2C,3C,C23,2.91777073208428,0.753435293385618,0.246564706614382,0.5,0.5,0.395024143487337,0.753435293385618,0.5,0.395024143487337,0.5,0.5,0.753435293385618,0.395024143487337,0.5,0.5,0.395024143487337,0.680228163539294,0.823938183558081,0.176061816441919,0.753435293385618,0.395024143487337,0.505743194506174,0.789405316010471,0.246564706614382,0.0517666825252762,0.5,0.209951713025325,0.982893800227453,0.819863232611508,2.49249780596327,0.5,71.7693164161597
CBC_1016,CBC_1016_MSI_TV_v3_Vset2_Tset3_2023-06-25_14h56.17.212.csv,1,23,3,1,z,0,1,1,tac,B,27,1,3B,1B,0,1,z,2.98785760000101,0,1,1,1,1B,3B,B31,3.63758615972639,0.753435293385618,0.246564706614382,0.5,0.5,0.395024143487337,0.753435293385618,0.5,0.395024143487337,0.5,0.5,0.805201975910894,0.395024143487337,0.5,0.5,0.395024143487337,0.680228163539294,0.823938183558081,0.176061816441919,0.753435293385618,0.395024143487337,0.15027176058973,0.789862746359359,0.246564706614382,0.0517666825252762,0.5,0.209951713025325,0.982893800227453,0.819863232611508,2.49249780596327,0.5,71.7693164161597
CBC_1016,CBC_1016_MSI_TV_v3_Vset2_Tset3_2023-06-25_14h56.17.212.csv,1,24,3,2,z,0,1,3,tac,C,63,1,3C,2C,0,1,z,1.84730630000558,0,1,1,1,2C,3C,C32,2.9704144655697,0.753435293385618,0.246564706614382,0.5,0.5,0.395024143487337,0.805201975910894,0.5,0.395024143487337,0.5,0.5,0.805201975910894,0.395024143487337,0.5,0.5,0.395024143487337,0.680228163539294,0.863582755237051,0.136417244762949,0.805201975910894,0.395024143487337,0.452903506896925,0.815189136715483,0.194798024089106,0.0408981788514563,0.5,0.209951713025325,0.982893800227453,0.819863232611508,2.49249780596327,0.5,71.7693164161597
CBC_1016,CBC_1016_MSI_TV_v3_Vset2_Tset3_2023-06-25_14h56.17.212.csv,1,25,2,3,z,0,1,0,tac,D,63,1,2D,3D,0,1,z,2.09773660000428,0,1,1,1,3D,2D,D23,2.07944154167984,0.753435293385618,0.246564706614382,0.5,0.5,0.395024143487337,0.805201975910894,0.5,0.395024143487337,0.5,0.5,0.84610015476235,0.395024143487337,0.5,0.5,0.395024143487337,0.680228163539294,0.765138738365818,0.234861261634182,0.680228163539294,0.395024143487337,0.321818684442904,0.746987270019423,0.319771836460706,0.0671366448421793,0.5,0.209951713025325,0.982893800227453,0.819863232611508,2.49249780596327,0.5,71.7693164161597
CBC_1016,CBC_1016_MSI_TV_v3_Vset2_Tset3_2023-06-25_14h56.17.212.csv,1,26,1,0,b,1,0,1,tac,B,63,1,1B,0B,1,0,b,2.75469850000081,1,0,1,1,1B,0B,B10,2.6149597780362,0.753435293385618,0.246564706614382,0.5,0.5,0.395024143487337,0.805201975910894,0.5,0.395024143487337,0.5,0.5,0.84610015476235,0.395024143487337,0.5,0.5,0.395024143487337,0.747364808381473,0.863582755237051,0.136417244762949,0.805201975910894,0.395024143487337,0.189922069935529,0.815515660488352,0.194798024089106,0.0408981788514563,0.5,0.209951713025325,0.982893800227453,0.819863232611508,2.49249780596327,0.5,71.7693164161597
CBC_1016,CBC_1016_MSI_TV_v3_Vset2_Tset3_2023-06-25_14h56.17.212.csv,1,27,0,3,b,1,0,2,tac,A,9,1,0A,3A,1,0,b,3.30740410000362,1,0,1,1,0A,3A,A03,3.73766961828337,0.753435293385618,0.246564706614382,0.5,0.5,0.395024143487337,0.84610015476235,0.5,0.395024143487337,0.5,0.5,0.84610015476235,0.395024143487337,0.5,0.5,0.395024143487337,0.747364808381473,0.753435293385618,0.246564706614382,0.753435293385618,0.5,0.109550272685539,0.737545318681136,0.246564706614382,0.0517666825252762,0.5,0.209951713025325,0.982893800227453,0.819863232611508,2.49249780596327,0.5,71.7693164161597
CBC_1016,CBC_1016_MSI_TV_v3_Vset2_Tset3_2023-06-25_14h56.17.212.csv,1,28,2,3,z,0,1,0,tac,D,63,1,2D,3D,0,1,z,1.82640270000411,0,1,1,1,3D,2D,D23,1.96944064646551,0.805201975910894,0.246564706614382,0.5,0.5,0.395024143487337,0.84610015476235,0.5,0.395024143487337,0.5,0.5,0.84610015476235,0.395024143487337,0.5,0.5,0.395024143487337,0.747364808381473,0.819186931959568,0.180813068040432,0.747364808381473,0.395024143487337,0.4361110643393,0.786321602413052,0.252635191618527,0.053041191250791,0.5,0.209951713025325,0.982893800227453,0.819863232611508,2.49249780596327,0.5,71.7693164161597
CBC_1016,CBC_1016_MSI_TV_v3_Vset2_Tset3_2023-06-25_14h56.17.212.csv,1,29,2,0,b,1,0,3,tac,C,27,1,2C,0C,1,0,b,2.00218970000424,1,0,1,1,2C,0C,C20,2.68557734525015,0.805201975910894,0.246564706614382,0.5,0.5,0.395024143487337,0.84610015476235,0.5,0.395024143487337,0.5,0.5,0.84610015476235,0.395024143487337,0.5,0.5,0.395024143487337,0.800405999632264,0.84610015476235,0.15389984523765,0.84610015476235,0.5,0.385890592910414,0.804948578047314,0.15389984523765,0.0323115361419769,0.5,0.209951713025325,0.982893800227453,0.819863232611508,2.49249780596327,0.5,71.7693164161597
CBC_1016,CBC_1016_MSI_TV_v3_Vset2_Tset3_2023-06-25_14h56.17.212.csv,1,30,1,0,z,0,1,2,tac,A,63,1,1A,0A,0,1,b,1.58426370000234,1,0,0,0,1A,0A,A10,3.11351530921037,0.805201975910894,0.246564706614382,0.5,0.5,0.395024143487337,0.84610015476235,0.5,0.395024143487337,0.5,0.5,0.878411690904327,0.395024143487337,0.5,0.5,0.395024143487337,0.800405999632264,0.0733625651160927,0.926637434883907,0.246564706614382,0.805201975910894,0.105725500598609,0.148751167271018,-0.246564706614382,-0.0517666825252762,0.5,0.209951713025325,0.982893800227453,0.819863232611508,2.49249780596327,0.5,71.7693164161597
CBC_1016,CBC_1016_MSI_TV_v3_Vset2_Tset3_2023-06-25_14h56.17.212.csv,1,31,1,0,b,1,0,1,tac,B,63,1,1B,0B,1,0,b,1.89512440000544,1,0,1,1,1B,0B,B10,2.4423470353692,0.805201975910894,0.194798024089106,0.5,0.5,0.395024143487337,0.84610015476235,0.5,0.395024143487337,0.5,0.5,0.878411690904327,0.395024143487337,0.5,0.5,0.395024143487337,0.800405999632264,0.89383980739627,0.10616019260373,0.84610015476235,0.395024143487337,0.448880879883011,0.833366300048398,0.15389984523765,0.0323115361419769,0.5,0.209951713025325,0.982893800227453,0.819863232611508,2.49249780596327,0.5,71.7693164161597
CBC_1016,CBC_1016_MSI_TV_v3_Vset2_Tset3_2023-06-25_14h56.17.212.csv,1,32,3,1,b,1,0,0,tac,D,27,1,3D,1D,1,0,b,1.84570010000243,1,0,1,1,3D,1D,D31,3.85014760171006,0.805201975910894,0.194798024089106,0.5,0.5,0.395024143487337,0.878411690904327,0.5,0.395024143487337,0.5,0.5,0.878411690904327,0.395024143487337,0.5,0.5,0.395024143487337,0.800405999632264,0.800405999632264,0.199594000367736,0.800405999632264,0.5,0.41806010819865,0.772579216334644,0.199594000367736,0.0419051022867835,0.5,0.209951713025325,0.982893800227453,0.819863232611508,2.49249780596327,0.5,71.7693164161597
CBC_1016,CBC_1016_MSI_TV_v3_Vset2_Tset3_2023-06-25_14h56.17.212.csv,1,33,3,2,z,0,1,3,tac,C,63,1,3C,2C,0,1,z,2.17410230000314,0,1,1,1,2C,3C,C32,2.77258872223978,0.805201975910894,0.194798024089106,0.5,0.5,0.395024143487337,0.878411690904327,0.5,0.395024143487337,0.5,0.5,0.878411690904327,0.395024143487337,0.5,0.5,0.395024143487337,0.842311101919048,0.917110245420122,0.0828897545798777,0.878411690904327,0.395024143487337,0.347799809929446,0.845940290910387,0.121588309095673,0.0255276737784892,0.5,0.209951713025325,0.982893800227453,0.819863232611508,2.49249780596327,0.5,71.7693164161597
CBC_1016,CBC_1016_MSI_TV_v3_Vset2_Tset3_2023-06-25_14h56.17.212.csv,1,34,1,0,b,1,0,1,tac,B,63,1,1B,0B,1,0,b,2.39900370000032,1,0,1,1,1B,0B,B10,2.28238238567653,0.805201975910894,0.194798024089106,0.5,0.5,0.395024143487337,0.878411690904327,0.5,0.395024143487337,0.5,0.5,0.903939364682817,0.395024143487337,0.5,0.5,0.395024143487337,0.842311101919048,0.917110245420122,0.0828897545798776,0.878411690904327,0.395024143487337,0.276372394500702,0.846047485082378,0.121588309095673,0.0255276737784892,0.5,0.209951713025325,0.982893800227453,0.819863232611508,2.49249780596327,0.5,71.7693164161597
CBC_1016,CBC_1016_MSI_TV_v3_Vset2_Tset3_2023-06-25_14h56.17.212.csv,1,35,0,1,b,1,0,2,tac,A,63,1,0A,1A,1,0,b,2.73963930000173,1,0,1,1,0A,1A,A01,2.52572864430826,0.805201975910894,0.194798024089106,0.5,0.5,0.395024143487337,0.903939364682817,0.5,0.395024143487337,0.5,0.5,0.903939364682817,0.395024143487337,0.5,0.5,0.395024143487337,0.842311101919048,0.944708634503743,0.0552913654962571,0.805201975910894,0.194798024089106,0.194842690199566,0.859835253079231,0.194798024089106,0.0408981788514563,0.5,0.209951713025325,0.982893800227453,0.819863232611508,2.49249780596327,0.5,71.7693164161597
CBC_1016,CBC_1016_MSI_TV_v3_Vset2_Tset3_2023-06-25_14h56.17.212.csv,1,36,1,2,z,0,1,3,tac,C,9,1,1C,2C,0,1,z,1.11612090000563,0,1,1,1,2C,1C,C12,3.93182563272433,0.84610015476235,0.194798024089106,0.5,0.5,0.395024143487337,0.903939364682817,0.5,0.395024143487337,0.5,0.5,0.903939364682817,0.395024143487337,0.5,0.5,0.395024143487337,0.842311101919048,0.903939364682817,0.0960606353171835,0.903939364682817,0.5,0.066765957112332,0.839409808859786,0.0960606353171835,0.0201680949391437,0.5,0.209951713025325,0.982893800227453,0.819863232611508,2.49249780596327,0.5,71.7693164161597
CBC_1016,CBC_1016_MSI_TV_v3_Vset2_Tset3_2023-06-25_14h56.17.212.csv,1,37,1,0,z,0,1,2,tac,A,63,1,1A,0A,0,1,b,2.28124340000431,1,0,0,0,1A,0A,A10,2.85263142991332,0.84610015476235,0.194798024089106,0.5,0.5,0.395024143487337,0.903939364682817,0.5,0.395024143487337,0.5,0.5,0.92410745962196,0.395024143487337,0.5,0.5,0.395024143487337,0.842311101919048,0.0421496326699192,0.957850367330081,0.194798024089106,0.84610015476235,0.049177275459779,0.133804740098202,-0.194798024089106,-0.0408981788514563,0.5,0.209951713025325,0.982893800227453,0.819863232611508,2.49249780596327,0.5,71.7693164161597
CBC_1016,CBC_1016_MSI_TV_v3_Vset2_Tset3_2023-06-25_14h56.17.212.csv,1,38,3,1,b,1,0,0,tac,D,27,1,3D,1D,1,0,b,2.22674390000248,1,0,1,1,3D,1D,D31,3.27714473299218,0.84610015476235,0.153899845237649,0.5,0.5,0.395024143487337,0.903939364682817,0.5,0.395024143487337,0.5,0.5,0.92410745962196,0.395024143487337,0.5,0.5,0.395024143487337,0.842311101919048,0.842311101919048,0.157688898080952,0.842311101919048,0.5,0.310963083010651,0.801537919690018,0.157688898080952,0.0331070542771718,0.5,0.209951713025325,0.982893800227453,0.819863232611508,2.49249780596327,0.5,71.7693164161597
CBC_1016,CBC_1016_MSI_TV_v3_Vset2_Tset3_2023-06-25_14h56.17.212.csv,1,39,0,1,z,0,1,1,tac,B,63,1,0B,1B,0,1,b,2.59629680000216,1,0,0,0,0B,1B,B01,3.29583686600433,0.84610015476235,0.153899845237649,0.5,0.5,0.395024143487337,0.903939364682817,0.5,0.395024143487337,0.5,0.5,0.92410745962196,0.395024143487337,0.5,0.5,0.395024143487337,0.87541815619622,0.0648867417335901,0.93511325826641,0.395024143487337,0.903939364682817,0.0381550837815582,0.144154424271268,-0.395024143487337,-0.0829359956115283,0.5,0.209951713025325,0.982893800227453,0.819863232611508,2.49249780596327,0.5,71.7693164161597
CBC_1016,CBC_1016_MSI_TV_v3_Vset2_Tset3_2023-06-25_14h56.17.212.csv,1,40,2,3,b,1,0,3,tac,C,63,0,2C,3C,0,1,b,2.04378850000285,1,0,1,0,2C,3C,C23,2.90872089656436,0.84610015476235,0.153899845237649,0.5,0.5,0.312088147875809,0.903939364682817,0.5,0.395024143487337,0.5,0.5,0.92410745962196,0.395024143487337,0.5,0.5,0.395024143487337,0.87541815619622,0.949104849401695,0.0508951505983052,0.92410745962196,0.395024143487337,0.407603734485032,0.862759089705069,-0.92410745962196,-0.194017944167112,0.5,0.209951713025325,0.982893800227453,0.819863232611508,2.49249780596327,0.5,71.7693164161597
CBC_1016,CBC_1016_MSI_TV_v3_Vset2_Tset3_2023-06-25_14h56.17.212.csv,1,41,2,0,z,0,1,2,tac,A,27,1,2A,0A,0,1,z,2.26194130000295,0,1,1,1,0A,2A,A20,3.3322045101752,0.84610015476235,0.153899845237649,0.5,0.5,0.312088147875809,0.903939364682817,0.5,0.395024143487337,0.5,0.5,0.730089515454848,0.395024143487337,0.5,0.5,0.395024143487337,0.87541815619622,0.84610015476235,0.15389984523765,0.84610015476235,0.5,0.301989787444904,0.804522561327308,0.15389984523765,0.0323115361419769,0.5,0.209951713025325,0.982893800227453,0.819863232611508,2.49249780596327,0.5,71.7693164161597
CBC_1016,CBC_1016_MSI_TV_v3_Vset2_Tset3_2023-06-25_14h56.17.212.csv,1,42,3,2,b,1,0,0,tac,D,63,1,3D,2D,1,0,b,1.96135020000293,1,0,1,1,3D,2D,D32,4.04305126783455,0.878411690904327,0.153899845237649,0.5,0.5,0.312088147875809,0.903939364682817,0.5,0.395024143487337,0.5,0.5,0.730089515454848,0.395024143487337,0.5,0.5,0.395024143487337,0.87541815619622,0.914977259035075,0.0850227409649246,0.87541815619622,0.395024143487337,0.430055278227096,0.844858414781507,0.12458184380378,0.0261561715184572,0.5,0.209951713025325,0.982893800227453,0.819863232611508,2.49249780596327,0.5,71.7693164161597
CBC_1016,CBC_1016_MSI_TV_v3_Vset2_Tset3_2023-06-25_14h56.17.212.csv,1,43,3,1,z,0,1,1,tac,B,27,1,3B,1B,0,1,z,1.85684090000359,0,1,1,1,1B,3B,B31,3.36729582998647,0.878411690904327,0.153899845237649,0.5,0.5,0.312088147875809,0.903939364682817,0.5,0.395024143487337,0.5,0.5,0.730089515454848,0.395024143487337,0.5,0.5,0.395024143487337,0.901574327714677,0.93511325826641,0.0648867417335901,0.903939364682817,0.395024143487337,0.48632995045809,0.855557701352142,0.0960606353171835,0.0201680949391437,0.5,0.209951713025325,0.982893800227453,0.819863232611508,2.49249780596327,0.5,71.7693164161597
CBC_1016,CBC_1016_MSI_TV_v3_Vset2_Tset3_2023-06-25_14h56.17.212.csv,1,44,2,3,b,1,0,3,tac,C,63,1,2C,3C,1,0,b,1.44463670000187,1,0,1,1,2C,3C,C23,2.69124308278583,0.878411690904327,0.153899845237649,0.5,0.5,0.312088147875809,0.92410745962196,0.5,0.395024143487337,0.5,0.5,0.730089515454848,0.395024143487337,0.5,0.5,0.395024143487337,0.901574327714677,0.805545024582131,0.194454975417869,0.730089515454848,0.395024143487337,0.519281092926888,0.776984842462094,0.269910484545152,0.0566681685937502,0.5,0.209951713025325,0.982893800227453,0.819863232611508,2.49249780596327,0.5,71.7693164161597
CBC_1016,CBC_1016_MSI_AV_v3_Vset4_Aset1_2023-06-25_15h20.06.953.csv,2,1,0,1,z,0,1,1,aud,B,63,1,0B,1B,0,1,z,2.35650669999814,0,1,1,1,1B,0B,B01,2.77258872223978,0.5,0.5,0.5,0.5,0.5,0.5,0.5,0.5,0.5,0.5,0.5,0.5,0.5,0.5,0.5,0.5,0.5,0.5,0.5,0.5,0.135235414719088,0.499362210631283,0.5,0.0446633127827727,0.5,0.0893266255655454,0.685111002577012,3.06502129092211,2.5340665093019,0.5,51.8971348094155
CBC_1016,CBC_1016_MSI_AV_v3_Vset4_Aset1_2023-06-25_15h20.06.953.csv,2,2,0,1,b,1,0,2,aud,A,63,1,0A,1A,1,0,b,2.2296920000008,1,0,1,1,0A,1A,A01,2.83321334405622,0.5,0.5,0.5,0.5,0.5,0.544663312782773,0.5,0.5,0.5,0.5,0.5,0.5,0.5,0.5,0.5,0.5,0.5,0.5,0.5,0.5,0.149177986898809,0.499757017093684,0.5,0.0446633127827727,0.5,0.0893266255655454,0.685111002577012,3.06502129092211,2.5340665093019,0.5,51.8971348094155
CBC_1016,CBC_1016_MSI_AV_v3_Vset4_Aset1_2023-06-25_15h20.06.953.csv,2,3,2,3,z,0,1,0,aud,D,63,1,2D,3D,0,1,z,1.77956080000149,0,1,1,1,3D,2D,D23,2.89037175789616,0.544663312782773,0.5,0.5,0.5,0.5,0.544663312782773,0.5,0.5,0.5,0.5,0.5,0.5,0.5,0.5,0.5,0.5,0.5,0.5,0.5,0.5,0.20986172777434,0.499137882439358,0.5,0.0446633127827727,0.5,0.0893266255655454,0.685111002577012,3.06502129092211,2.5340665093019,0.5,51.8971348094155
CBC_1016,CBC_1016_MSI_AV_v3_Vset4_Aset1_2023-06-25_15h20.06.953.csv,2,4,2,1,z,0,1,1,aud,B,9,1,2B,1B,0,1,z,1.22099159999925,0,1,1,1,1B,2B,B21,2.94443897916644,0.544663312782773,0.5,0.5,0.5,0.5,0.544663312782773,0.5,0.5,0.5,0.5,0.5,0.5,0.5,0.5,0.5,0.544663312782773,0.544663312782773,0.455336687217227,0.544663312782773,0.5,0.399752073131917,0.66714880892312,0.455336687217227,0.0406736897653091,0.5,0.0893266255655454,0.685111002577012,3.06502129092211,2.5340665093019,0.5,51.8971348094155
CBC_1016,CBC_1016_MSI_AV_v3_Vset4_Aset1_2023-06-25_15h20.06.953.csv,2,5,0,2,b,1,0,2,aud,A,27,1,0A,2A,1,0,b,2.2657913999974,1,0,1,1,0A,2A,A02,2.99573227355399,0.544663312782773,0.5,0.5,0.5,0.5,0.585337002548082,0.5,0.5,0.5,0.5,0.5,0.5,0.5,0.5,0.5,0.544663312782773,0.544663312782773,0.455336687217227,0.544663312782773,0.5,0.193661569631212,0.667167552873713,0.455336687217227,0.0406736897653091,0.5,0.0893266255655454,0.685111002577012,3.06502129092211,2.5340665093019,0.5,51.8971348094155
CBC_1016,CBC_1016_MSI_AV_v3_Vset4_Aset1_2023-06-25_15h20.06.953.csv,2,6,2,3,b,1,0,3,aud,C,63,1,2C,3C,1,0,b,2.15061939999941,1,0,1,1,2C,3C,C23,3.04452243772342,0.585337002548082,0.5,0.5,0.5,0.5,0.585337002548082,0.5,0.5,0.5,0.5,0.5,0.5,0.5,0.5,0.5,0.544663312782773,0.5,0.5,0.5,0.5,0.158536498061296,0.499866989480822,0.5,0.0446633127827727,0.5,0.0893266255655454,0.685111002577012,3.06502129092211,2.5340665093019,0.5,51.8971348094155
CBC_1016,CBC_1016_MSI_AV_v3_Vset4_Aset1_2023-06-25_15h20.06.953.csv,2,7,1,3,z,0,1,0,aud,D,27,1,1D,3D,0,1,z,1.35020900000018,0,1,1,1,3D,1D,D13,3.09104245335832,0.585337002548082,0.5,0.5,0.5,0.5,0.585337002548082,0.5,0.5,0.5,0.5,0.544663312782773,0.5,0.5,0.5,0.5,0.544663312782773,0.544663312782773,0.455336687217227,0.544663312782773,0.5,0.384534769152558,0.666758840452157,0.455336687217227,0.0406736897653091,0.5,0.0893266255655454,0.685111002577012,3.06502129092211,2.5340665093019,0.5,51.8971348094155
CBC_1016,CBC_1016_MSI_AV_v3_Vset4_Aset1_2023-06-25_15h20.06.953.csv,2,8,1,0,z,0,1,2,aud,A,63,1,1A,0A,0,1,z,1.78558730000077,0,1,1,1,0A,1A,A10,3.13549421592915,0.585337002548082,0.5,0.5,0.5,0.5,0.585337002548082,0.5,0.5,0.5,0.5,0.544663312782773,0.5,0.5,0.5,0.5,0.585337002548082,0.585337002548082,0.414662997451918,0.585337002548082,0.5,0.349443293655003,0.790378049026383,0.414662997451918,0.0370404463092742,0.5,0.0893266255655454,0.685111002577012,3.06502129092211,2.5340665093019,0.5,51.8971348094155
CBC_1016,CBC_1016_MSI_AV_v3_Vset4_Aset1_2023-06-25_15h20.06.953.csv,2,9,2,0,b,1,0,3,aud,C,27,1,2C,0C,1,0,b,2.73195439999836,1,0,1,1,2C,0C,C20,3.17805383034795,0.622377448857356,0.5,0.5,0.5,0.5,0.585337002548082,0.5,0.5,0.5,0.5,0.544663312782773,0.5,0.5,0.5,0.5,0.585337002548082,0.544663312782773,0.455336687217227,0.544663312782773,0.5,0.132912535638864,0.666529581384573,0.455336687217227,0.0406736897653091,0.5,0.0893266255655454,0.685111002577012,3.06502129092211,2.5340665093019,0.5,51.8971348094155
CBC_1016,CBC_1016_MSI_AV_v3_Vset4_Aset1_2023-06-25_15h20.06.953.csv,2,10,2,3,z,0,1,0,aud,D,63,1,2D,3D,0,1,z,2.32604640000136,0,1,1,1,3D,2D,D23,2.52572864430826,0.622377448857356,0.5,0.5,0.5,0.5,0.585337002548082,0.5,0.5,0.5,0.5,0.585337002548082,0.5,0.5,0.5,0.5,0.585337002548082,0.585337002548082,0.414662997451918,0.585337002548082,0.5,0.214947245982893,0.790554556180972,0.414662997451918,0.0370404463092742,0.5,0.0893266255655454,0.685111002577012,3.06502129092211,2.5340665093019,0.5,51.8971348094155
CBC_1016,CBC_1016_MSI_AV_v3_Vset4_Aset1_2023-06-25_15h20.06.953.csv,2,11,1,0,b,1,0,1,aud,B,63,1,1B,0B,1,0,b,1.06003950000013,1,0,1,1,1B,0B,B10,3.25809653802148,0.622377448857356,0.5,0.5,0.5,0.5,0.585337002548082,0.5,0.5,0.5,0.5,0.585337002548082,0.5,0.5,0.5,0.5,0.622377448857356,0.585337002548082,0.414662997451918,0.585337002548082,0.5,0.476676788235417,0.789805173309188,0.414662997451918,0.0370404463092742,0.5,0.0893266255655454,0.685111002577012,3.06502129092211,2.5340665093019,0.5,51.8971348094155
CBC_1016,CBC_1016_MSI_AV_v3_Vset4_Aset1_2023-06-25_15h20.06.953.csv,2,12,0,1,b,1,0,2,aud,A,63,1,0A,1A,1,0,b,1.37840510000024,1,0,1,1,0A,1A,A01,2.60268968544438,0.622377448857356,0.5,0.5,0.5,0.5,0.622377448857356,0.5,0.5,0.5,0.5,0.585337002548082,0.5,0.5,0.5,0.5,0.622377448857356,0.622377448857356,0.377622551142644,0.622377448857356,0.5,0.585585159105946,0.870126676735526,0.377622551142644,0.033731748231025,0.5,0.0893266255655454,0.685111002577012,3.06502129092211,2.5340665093019,0.5,51.8971348094155
CBC_1016,CBC_1016_MSI_AV_v3_Vset4_Aset1_2023-06-25_15h20.06.953.csv,2,13,2,3,z,0,1,0,aud,D,63,1,2D,3D,0,1,z,2.28112479999982,0,1,1,1,3D,2D,D23,2.23359222150709,0.656109197088381,0.5,0.5,0.5,0.5,0.622377448857356,0.5,0.5,0.5,0.5,0.585337002548082,0.5,0.5,0.5,0.5,0.622377448857356,0.622377448857356,0.377622551142644,0.622377448857356,0.5,0.236891262222317,0.870130931399416,0.377622551142644,0.033731748231025,0.5,0.0893266255655454,0.685111002577012,3.06502129092211,2.5340665093019,0.5,51.8971348094155
CBC_1016,CBC_1016_MSI_AV_v3_Vset4_Aset1_2023-06-25_15h20.06.953.csv,2,14,2,0,b,1,0,3,aud,C,27,1,2C,0C,1,0,z,2.73422829999981,0,1,0,0,0C,2C,C20,2.67414864942653,0.656109197088381,0.5,0.5,0.5,0.5,0.622377448857356,0.5,0.5,0.5,0.5,0.585337002548082,0.5,0.5,0.5,0.5,0.656109197088381,0.414662997451918,0.585337002548082,0.5,0.585337002548082,0.0394587694587684,0.209943474925692,-0.5,-0.0446633127827727,0.5,0.0893266255655454,0.685111002577012,3.06502129092211,2.5340665093019,0.5,51.8971348094155
CBC_1016,CBC_1016_MSI_AV_v3_Vset4_Aset1_2023-06-25_15h20.06.953.csv,2,15,0,1,b,1,0,2,aud,A,63,1,0A,1A,1,0,b,2.288641799998,1,0,1,1,0A,1A,A01,2.30258509299405,0.656109197088381,0.5,0.5,0.5,0.5,0.622377448857356,0.5,0.5,0.455336687217227,0.5,0.585337002548082,0.5,0.5,0.5,0.5,0.656109197088381,0.656109197088381,0.343890802911619,0.656109197088381,0.5,0.230113508132304,0.9187744951931,0.343890802911619,0.030718604987121,0.5,0.0893266255655454,0.685111002577012,3.06502129092211,2.5340665093019,0.5,51.8971348094155
CBC_1016,CBC_1016_MSI_AV_v3_Vset4_Aset1_2023-06-25_15h20.06.953.csv,2,16,1,3,b,1,0,1,aud,B,27,1,1B,3B,1,0,b,1.2178795999971,1,0,1,1,1B,3B,B13,3.43398720448515,0.686827802075502,0.5,0.5,0.5,0.5,0.622377448857356,0.5,0.5,0.455336687217227,0.5,0.585337002548082,0.5,0.5,0.5,0.5,0.656109197088381,0.622377448857356,0.377622551142644,0.622377448857356,0.5,0.641569013728327,0.869998759491908,0.377622551142644,0.033731748231025,0.5,0.0893266255655454,0.685111002577012,3.06502129092211,2.5340665093019,0.5,51.8971348094155
CBC_1016,CBC_1016_MSI_AV_v3_Vset4_Aset1_2023-06-25_15h20.06.953.csv,2,17,3,2,z,0,1,3,aud,C,63,1,3C,2C,0,1,b,2.64043820000006,1,0,0,0,3C,2C,C32,3.46573590279973,0.686827802075502,0.5,0.5,0.5,0.5,0.656109197088381,0.5,0.5,0.455336687217227,0.5,0.585337002548082,0.5,0.5,0.5,0.5,0.656109197088381,0.414662997451918,0.585337002548082,0.5,0.585337002548082,0.043043190151084,0.210320828348221,-0.5,-0.0446633127827727,0.5,0.0893266255655454,0.685111002577012,3.06502129092211,2.5340665093019,0.5,51.8971348094155
CBC_1016,CBC_1016_MSI_AV_v3_Vset4_Aset1_2023-06-25_15h20.06.953.csv,2,18,2,3,z,0,1,0,aud,D,63,0,2D,3D,1,0,z,1.43723390000014,0,1,1,0,3D,2D,D23,2.11021320034659,0.686827802075502,0.5,0.5,0.5,0.5,0.656109197088381,0.5,0.5,0.455336687217227,0.5,0.585337002548082,0.455336687217227,0.5,0.5,0.5,0.656109197088381,0.656109197088381,0.343890802911619,0.656109197088381,0.5,0.634848359672138,0.918821276014754,-0.656109197088381,-0.0586080205784244,0.5,0.0893266255655454,0.685111002577012,3.06502129092211,2.5340665093019,0.5,51.8971348094155
CBC_1016,CBC_1016_MSI_AV_v3_Vset4_Aset1_2023-06-25_15h20.06.953.csv,2,19,1,0,b,1,0,1,aud,B,63,1,1B,0B,1,0,b,1.20338799999809,1,0,1,1,1B,0B,B10,2.83321334405622,0.686827802075502,0.5,0.5,0.5,0.5,0.656109197088381,0.5,0.5,0.455336687217227,0.5,0.585337002548082,0.455336687217227,0.5,0.5,0.5,0.597501176509957,0.656109197088381,0.343890802911619,0.656109197088381,0.5,0.762953805532989,0.918571166246979,0.343890802911619,0.030718604987121,0.5,0.0893266255655454,0.685111002577012,3.06502129092211,2.5340665093019,0.5,51.8971348094155
CBC_1016,CBC_1016_MSI_AV_v3_Vset4_Aset1_2023-06-25_15h20.06.953.csv,2,20,2,0,z,0,1,2,aud,A,27,1,2A,0A,0,1,z,2.16489969999748,0,1,1,1,0A,2A,A20,3.55534806148941,0.686827802075502,0.5,0.5,0.5,0.5,0.686827802075502,0.5,0.5,0.455336687217227,0.5,0.585337002548082,0.455336687217227,0.5,0.5,0.5,0.597501176509957,0.686827802075502,0.313172197924498,0.686827802075502,0.5,0.253781345923051,0.947793887626914,0.313172197924498,0.0279746156615405,0.5,0.0893266255655454,0.685111002577012,3.06502129092211,2.5340665093019,0.5,51.8971348094155
CBC_1016,CBC_1016_MSI_AV_v3_Vset4_Aset1_2023-06-25_15h20.06.953.csv,2,21,0,3,z,0,1,0,aud,D,9,1,0D,3D,0,1,z,2.61754909999945,0,1,1,1,3D,0D,D03,3.58351893845611,0.714802417737042,0.5,0.5,0.5,0.5,0.686827802075502,0.5,0.5,0.455336687217227,0.5,0.585337002548082,0.455336687217227,0.5,0.5,0.5,0.597501176509957,0.597501176509957,0.402498823490043,0.597501176509957,0.5,0.167338871733063,0.82015712384131,0.402498823490043,0.0359538616964677,0.5,0.0893266255655454,0.685111002577012,3.06502129092211,2.5340665093019,0.5,51.8971348094155
CBC_1016,CBC_1016_MSI_AV_v3_Vset4_Aset1_2023-06-25_15h20.06.953.csv,2,22,2,3,b,1,0,3,aud,C,63,1,2C,3C,1,0,b,2.17692729999908,1,0,1,1,2C,3C,C23,2.91777073208428,0.714802417737042,0.5,0.5,0.5,0.5,0.686827802075502,0.5,0.5,0.455336687217227,0.5,0.585337002548082,0.455336687217227,0.5,0.5,0.5,0.633455038206424,0.628048127770502,0.371951872229498,0.585337002548082,0.455336687217227,0.265399541388638,0.880155608272261,0.414662997451918,0.0370404463092742,0.5,0.0893266255655454,0.685111002577012,3.06502129092211,2.5340665093019,0.5,51.8971348094155
CBC_1016,CBC_1016_MSI_AV_v3_Vset4_Aset1_2023-06-25_15h20.06.953.csv,2,23,3,1,z,0,1,1,aud,B,27,1,3B,1B,0,1,z,0.92448080000031,0,1,1,1,1B,3B,B31,3.63758615972639,0.714802417737042,0.5,0.5,0.5,0.5,0.686827802075502,0.5,0.5,0.455336687217227,0.5,0.622377448857356,0.455336687217227,0.5,0.5,0.5,0.633455038206424,0.686827802075502,0.313172197924498,0.686827802075502,0.5,0.551568572838184,0.948190188202566,0.313172197924498,0.0279746156615405,0.5,0.0893266255655454,0.685111002577012,3.06502129092211,2.5340665093019,0.5,51.8971348094155
CBC_1016,CBC_1016_MSI_AV_v3_Vset4_Aset1_2023-06-25_15h20.06.953.csv,2,24,3,2,z,0,1,3,aud,C,63,1,3C,2C,0,1,b,2.52253890000065,1,0,0,0,3C,2C,C32,2.9704144655697,0.714802417737042,0.5,0.5,0.5,0.5,0.714802417737042,0.5,0.5,0.455336687217227,0.5,0.622377448857356,0.455336687217227,0.5,0.5,0.5,0.633455038206424,0.336533135522095,0.663466864477905,0.455336687217227,0.622377448857356,0.0133187567944389,0.0731800801750167,-0.455336687217227,-0.0406736897653091,0.5,0.0893266255655454,0.685111002577012,3.06502129092211,2.5340665093019,0.5,51.8971348094155
CBC_1016,CBC_1016_MSI_AV_v3_Vset4_Aset1_2023-06-25_15h20.06.953.csv,2,25,2,3,z,0,1,0,aud,D,63,1,2D,3D,0,1,z,2.13106340000013,0,1,1,1,3D,2D,D23,2.07944154167984,0.714802417737042,0.5,0.5,0.5,0.5,0.714802417737042,0.5,0.5,0.455336687217227,0.5,0.622377448857356,0.414662997451918,0.5,0.5,0.5,0.633455038206424,0.633455038206424,0.366544961793576,0.633455038206424,0.5,0.279792456690907,0.888670996465953,0.366544961793576,0.0327422245550719,0.5,0.0893266255655454,0.685111002577012,3.06502129092211,2.5340665093019,0.5,51.8971348094155
CBC_1016,CBC_1016_MSI_AV_v3_Vset4_Aset1_2023-06-25_15h20.06.953.csv,2,26,1,0,b,1,0,1,aud,B,63,1,1B,0B,1,0,b,2.50460949999979,1,0,1,1,1B,0B,B10,2.6149597780362,0.714802417737042,0.5,0.5,0.5,0.5,0.714802417737042,0.5,0.5,0.455336687217227,0.5,0.622377448857356,0.414662997451918,0.5,0.5,0.5,0.666197262761496,0.714802417737042,0.285197582262958,0.714802417737042,0.5,0.132448056726631,0.96562037903763,0.285197582262958,0.025475737643002,0.5,0.0893266255655454,0.685111002577012,3.06502129092211,2.5340665093019,0.5,51.8971348094155
CBC_1016,CBC_1016_MSI_AV_v3_Vset4_Aset1_2023-06-25_15h20.06.953.csv,2,27,0,3,b,1,0,2,aud,A,9,1,0A,3A,1,0,b,1.38089369999943,1,0,1,1,0A,3A,A03,3.73766961828337,0.714802417737042,0.5,0.5,0.5,0.5,0.740278155380044,0.5,0.5,0.455336687217227,0.5,0.622377448857356,0.414662997451918,0.5,0.5,0.5,0.666197262761496,0.714802417737042,0.285197582262958,0.714802417737042,0.5,0.796787522846043,0.965613774312298,0.285197582262958,0.025475737643002,0.5,0.0893266255655454,0.685111002577012,3.06502129092211,2.5340665093019,0.5,51.8971348094155
CBC_1016,CBC_1016_MSI_AV_v3_Vset4_Aset1_2023-06-25_15h20.06.953.csv,2,28,2,3,z,0,1,0,aud,D,63,1,2D,3D,0,1,b,1.89886770000157,1,0,0,0,2D,3D,D23,1.96944064646551,0.740278155380044,0.5,0.5,0.5,0.5,0.740278155380044,0.5,0.5,0.455336687217227,0.5,0.622377448857356,0.414662997451918,0.5,0.5,0.5,0.666197262761496,0.333802737238504,0.666197262761496,0.5,0.666197262761496,0.0281640075395481,0.070354869093787,-0.5,-0.0446633127827727,0.5,0.0893266255655454,0.685111002577012,3.06502129092211,2.5340665093019,0.5,51.8971348094155
CBC_1016,CBC_1016_MSI_AV_v3_Vset4_Aset1_2023-06-25_15h20.06.953.csv,2,29,2,0,b,1,0,3,aud,C,27,1,2C,0C,1,0,b,1.7141632999992,1,0,1,1,2C,0C,C20,2.68557734525015,0.740278155380044,0.5,0.5,0.5,0.5,0.740278155380044,0.5,0.5,0.455336687217227,0.5,0.622377448857356,0.414662997451918,0.5,0.5,0.455336687217227,0.666197262761496,0.663466864477905,0.336533135522095,0.622377448857356,0.455336687217227,0.468706693645983,0.927095018909303,0.377622551142644,0.033731748231025,0.5,0.0893266255655454,0.685111002577012,3.06502129092211,2.5340665093019,0.5,51.8971348094155
CBC_1016,CBC_1016_MSI_AV_v3_Vset4_Aset1_2023-06-25_15h20.06.953.csv,2,30,1,0,z,0,1,2,aud,A,63,1,1A,0A,0,1,z,1.6246080000019,0,1,1,1,0A,1A,A10,3.11351530921037,0.740278155380044,0.5,0.5,0.5,0.5,0.740278155380044,0.5,0.5,0.455336687217227,0.5,0.656109197088381,0.414662997451918,0.5,0.5,0.455336687217227,0.666197262761496,0.740278155380044,0.259721844619956,0.740278155380044,0.5,0.54941117941453,0.97651359871763,0.259721844619956,0.0232000759655595,0.5,0.0893266255655454,0.685111002577012,3.06502129092211,2.5340665093019,0.5,51.8971348094155
CBC_1016,CBC_1016_MSI_AV_v3_Vset4_Aset1_2023-06-25_15h20.06.953.csv,2,31,1,0,b,1,0,1,aud,B,63,1,1B,0B,1,0,b,1.02075359999799,1,0,1,1,1B,0B,B10,2.4423470353692,0.763478231345604,0.5,0.5,0.5,0.5,0.740278155380044,0.5,0.5,0.455336687217227,0.5,0.656109197088381,0.414662997451918,0.5,0.5,0.455336687217227,0.666197262761496,0.740278155380044,0.259721844619956,0.740278155380044,0.5,1.06879225726491,0.976668428624788,0.259721844619956,0.0232000759655595,0.5,0.0893266255655454,0.685111002577012,3.06502129092211,2.5340665093019,0.5,51.8971348094155
CBC_1016,CBC_1016_MSI_AV_v3_Vset4_Aset1_2023-06-25_15h20.06.953.csv,2,32,3,1,b,1,0,0,aud,D,27,1,3D,1D,1,0,b,1.69743889999882,1,0,1,1,3D,1D,D31,3.85014760171006,0.763478231345604,0.5,0.5,0.5,0.5,0.763478231345604,0.5,0.5,0.455336687217227,0.5,0.656109197088381,0.414662997451918,0.5,0.5,0.455336687217227,0.666197262761496,0.666197262761496,0.333802737238504,0.666197262761496,0.5,0.480410957593521,0.929849536262783,0.333802737238504,0.029817472122058,0.5,0.0893266255655454,0.685111002577012,3.06502129092211,2.5340665093019,0.5,51.8971348094155
CBC_1016,CBC_1016_MSI_AV_v3_Vset4_Aset1_2023-06-25_15h20.06.953.csv,2,33,3,2,z,0,1,3,aud,C,63,1,3C,2C,0,1,z,1.67789210000046,0,1,1,1,2C,3C,C32,2.77258872223978,0.763478231345604,0.5,0.5,0.5,0.5,0.763478231345604,0.5,0.5,0.455336687217227,0.5,0.656109197088381,0.414662997451918,0.5,0.5,0.455336687217227,0.696014734883554,0.729231036171784,0.270768963828216,0.656109197088381,0.414662997451918,0.504529509450464,0.972271708733268,0.343890802911619,0.030718604987121,0.5,0.0893266255655454,0.685111002577012,3.06502129092211,2.5340665093019,0.5,51.8971348094155
CBC_1016,CBC_1016_MSI_AV_v3_Vset4_Aset1_2023-06-25_15h20.06.953.csv,2,34,1,0,b,1,0,1,aud,B,63,1,1B,0B,1,0,b,1.47573620000185,1,0,1,1,1B,0B,B10,2.28238238567653,0.763478231345604,0.5,0.5,0.5,0.5,0.763478231345604,0.5,0.5,0.455336687217227,0.5,0.686827802075502,0.414662997451918,0.5,0.5,0.455336687217227,0.696014734883554,0.763478231345604,0.236521768654396,0.763478231345604,0.5,0.718328948654192,0.983624539147369,0.236521768654396,0.0211276914666918,0.5,0.0893266255655454,0.685111002577012,3.06502129092211,2.5340665093019,0.5,51.8971348094155
CBC_1016,CBC_1016_MSI_AV_v3_Vset4_Aset1_2023-06-25_15h20.06.953.csv,2,35,0,1,b,1,0,2,aud,A,63,1,0A,1A,1,0,b,1.51679510000031,1,0,1,1,0A,1A,A01,2.52572864430826,0.763478231345604,0.5,0.5,0.5,0.5,0.784605922812296,0.5,0.5,0.455336687217227,0.5,0.686827802075502,0.414662997451918,0.5,0.5,0.455336687217227,0.696014734883554,0.763478231345604,0.236521768654396,0.763478231345604,0.5,0.663260302255862,0.983558338058232,0.236521768654396,0.0211276914666918,0.5,0.0893266255655454,0.685111002577012,3.06502129092211,2.5340665093019,0.5,51.8971348094155
CBC_1016,CBC_1016_MSI_AV_v3_Vset4_Aset1_2023-06-25_15h20.06.953.csv,2,36,1,2,z,0,1,3,aud,C,9,1,1C,2C,0,1,z,1.2162533999981,0,1,1,1,2C,1C,C12,3.93182563272433,0.784605922812296,0.5,0.5,0.5,0.5,0.784605922812296,0.5,0.5,0.455336687217227,0.5,0.686827802075502,0.414662997451918,0.5,0.5,0.455336687217227,0.696014734883554,0.686827802075502,0.313172197924498,0.686827802075502,0.5,0.867676221414965,0.947904879755804,0.313172197924498,0.0279746156615405,0.5,0.0893266255655454,0.685111002577012,3.06502129092211,2.5340665093019,0.5,51.8971348094155
CBC_1016,CBC_1016_MSI_AV_v3_Vset4_Aset1_2023-06-25_15h20.06.953.csv,2,37,1,0,z,0,1,2,aud,A,63,1,1A,0A,0,1,z,1.7287404000017,0,1,1,1,0A,1A,A10,2.85263142991332,0.784605922812296,0.5,0.5,0.5,0.5,0.784605922812296,0.5,0.5,0.455336687217227,0.5,0.714802417737042,0.414662997451918,0.5,0.5,0.455336687217227,0.696014734883554,0.784605922812296,0.215394077187704,0.784605922812296,0.5,0.406599284287231,0.988137766935911,0.215394077187704,0.0192404260819822,0.5,0.0893266255655454,0.685111002577012,3.06502129092211,2.5340665093019,0.5,51.8971348094155
CBC_1016,CBC_1016_MSI_AV_v3_Vset4_Aset1_2023-06-25_15h20.06.953.csv,2,38,3,1,b,1,0,0,aud,D,27,1,3D,1D,1,0,b,1.07411019999927,1,0,1,1,3D,1D,D31,3.27714473299218,0.803846348894278,0.5,0.5,0.5,0.5,0.784605922812296,0.5,0.5,0.455336687217227,0.5,0.714802417737042,0.414662997451918,0.5,0.5,0.455336687217227,0.696014734883554,0.696014734883554,0.303985265116446,0.696014734883554,0.5,0.917049701341903,0.954731557137623,0.303985265116446,0.0271539779544998,0.5,0.0893266255655454,0.685111002577012,3.06502129092211,2.5340665093019,0.5,51.8971348094155
CBC_1016,CBC_1016_MSI_AV_v3_Vset4_Aset1_2023-06-25_15h20.06.953.csv,2,39,0,1,z,0,1,1,aud,B,63,1,0B,1B,0,1,z,0.830896499999653,0,1,1,1,1B,0B,B01,3.29583686600433,0.803846348894278,0.5,0.5,0.5,0.5,0.784605922812296,0.5,0.5,0.455336687217227,0.5,0.714802417737042,0.414662997451918,0.5,0.5,0.455336687217227,0.723168712838054,0.784605922812296,0.215394077187704,0.784605922812296,0.5,0.268964879408334,0.988060721154032,0.215394077187704,0.0192404260819822,0.5,0.0893266255655454,0.685111002577012,3.06502129092211,2.5340665093019,0.5,51.8971348094155
CBC_1016,CBC_1016_MSI_AV_v3_Vset4_Aset1_2023-06-25_15h20.06.953.csv,2,40,2,3,b,1,0,3,aud,C,63,0,2C,3C,0,1,b,1.30928169999606,1,0,1,0,2C,3C,C23,2.90872089656436,0.803846348894278,0.5,0.5,0.5,0.5,0.803846348894278,0.5,0.5,0.455336687217227,0.5,0.714802417737042,0.414662997451918,0.5,0.5,0.455336687217227,0.723168712838054,0.779635854493429,0.220364145506571,0.714802417737042,0.414662997451918,0.993637429287238,0.987196295226686,-0.714802417737042,-0.0638508879225433,0.5,0.0893266255655454,0.685111002577012,3.06502129092211,2.5340665093019,0.5,51.8971348094155
CBC_1016,CBC_1016_MSI_AV_v3_Vset4_Aset1_2023-06-25_15h20.06.953.csv,2,41,2,0,z,0,1,2,aud,A,27,1,2A,0A,0,1,z,1.64133349999975,0,1,1,1,0A,2A,A20,3.3322045101752,0.803846348894278,0.5,0.5,0.5,0.5,0.803846348894278,0.5,0.5,0.455336687217227,0.5,0.650951529814499,0.414662997451918,0.5,0.5,0.455336687217227,0.723168712838054,0.803846348894278,0.196153651105722,0.803846348894278,0.5,0.469210122899484,0.991154040729058,0.196153651105722,0.0175217437456354,0.5,0.0893266255655454,0.685111002577012,3.06502129092211,2.5340665093019,0.5,51.8971348094155
CBC_1016,CBC_1016_MSI_AV_v3_Vset4_Aset1_2023-06-25_15h20.06.953.csv,2,42,3,2,b,1,0,0,aud,D,63,1,3D,2D,1,0,b,1.56244069999957,1,0,1,1,3D,2D,D32,4.04305126783455,0.821368092639914,0.5,0.5,0.5,0.5,0.803846348894278,0.5,0.5,0.455336687217227,0.5,0.650951529814499,0.414662997451918,0.5,0.5,0.455336687217227,0.723168712838054,0.757563034789791,0.242436965210209,0.723168712838054,0.455336687217227,0.609042798629872,0.982018932136796,0.276831287161946,0.0247284047331431,0.5,0.0893266255655454,0.685111002577012,3.06502129092211,2.5340665093019,0.5,51.8971348094155
CBC_1016,CBC_1016_MSI_AV_v3_Vset4_Aset1_2023-06-25_15h20.06.953.csv,2,43,3,1,z,0,1,1,aud,B,27,1,3B,1B,0,1,z,0.919422999999369,0,1,1,1,1B,3B,B31,3.36729582998647,0.821368092639914,0.5,0.5,0.5,0.5,0.803846348894278,0.5,0.5,0.455336687217227,0.5,0.650951529814499,0.414662997451918,0.5,0.5,0.455336687217227,0.747897117571197,0.803846348894278,0.196153651105722,0.803846348894278,0.5,1.02223534353486,0.991157498616883,0.196153651105722,0.0175217437456354,0.5,0.0893266255655454,0.685111002577012,3.06502129092211,2.5340665093019,0.5,51.8971348094155
CBC_1016,CBC_1016_MSI_AV_v3_Vset4_Aset1_2023-06-25_15h20.06.953.csv,2,44,2,3,b,1,0,3,aud,C,63,1,2C,3C,1,0,b,1.94168569999965,1,0,1,1,2C,3C,C23,2.69124308278583,0.821368092639914,0.5,0.5,0.5,0.5,0.821368092639914,0.5,0.5,0.455336687217227,0.5,0.650951529814499,0.414662997451918,0.5,0.5,0.455336687217227,0.747897117571197,0.724709904156397,0.275290095843603,0.650951529814499,0.414662997451918,0.3234818809255,0.97040091546604,0.349048470185501,0.0311793220004867,0.5,0.0893266255655454,0.685111002577012,3.06502129092211,2.5340665093019,0.5,51.8971348094155
CBC_1016,CBC_1016_MSI_TV_v3_Vset3_Tset2_2023-06-25_16h33.10.466.csv,3,1,1,3,b,1,0,1,tac,B,27,1,1B,3B,1,0,z,1.32172530000025,0,1,0,0,3B,1B,B13,2.77258872223978,0.5,0.5,0.5,0.5,0.5,0.5,0.5,0.5,0.5,0.5,0.5,0.5,0.5,0.5,0.5,0.5,0.5,0.5,0.5,0.5,0.311306807901359,0.499888591362016,-0.5,-0.00792462130211397,0.5,0.0158492426042279,0.894006477007024,6.59258399368833,2.42084293687485,0.5,72.9930395234769
CBC_1016,CBC_1016_MSI_TV_v3_Vset3_Tset2_2023-06-25_16h33.10.466.csv,3,2,3,2,z,0,1,3,tac,C,63,1,3C,2C,0,1,z,1.68228909999743,0,1,1,1,2C,3C,C32,2.83321334405622,0.5,0.5,0.5,0.5,0.5,0.5,0.5,0.492075378697886,0.5,0.5,0.5,0.5,0.5,0.5,0.5,0.5,0.5,0.5,0.5,0.5,0.272285061311625,0.500650669585372,0.5,0.00792462130211397,0.5,0.0158492426042279,0.894006477007024,6.59258399368833,2.42084293687485,0.5,72.9930395234769
CBC_1016,CBC_1016_MSI_TV_v3_Vset3_Tset2_2023-06-25_16h33.10.466.csv,3,3,3,2,b,1,0,0,tac,D,63,1,3D,2D,1,0,b,1.0271576999985,1,0,1,1,3D,2D,D32,2.89037175789616,0.5,0.5,0.5,0.5,0.5,0.5,0.5,0.492075378697886,0.5,0.5,0.507924621302114,0.5,0.5,0.5,0.5,0.5,0.5,0.5,0.5,0.5,0.0405282333076675,0.499761854013285,0.5,0.00792462130211397,0.5,0.0158492426042279,0.894006477007024,6.59258399368833,2.42084293687485,0.5,72.9930395234769
CBC_1016,CBC_1016_MSI_TV_v3_Vset3_Tset2_2023-06-25_16h33.10.466.csv,3,4,0,1,z,0,1,1,tac,B,63,1,0B,1B,0,1,z,2.25734360000206,0,1,1,1,1B,0B,B01,2.94443897916644,0.5,0.5,0.5,0.5,0.5,0.5,0.5,0.492075378697886,0.5,0.5,0.507924621302114,0.5,0.5,0.5,0.5,0.507924621302114,0.5,0.5,0.5,0.5,0.170021713325411,0.499987547536192,0.5,0.00792462130211397,0.5,0.0158492426042279,0.894006477007024,6.59258399368833,2.42084293687485,0.5,72.9930395234769
CBC_1016,CBC_1016_MSI_TV_v3_Vset3_Tset2_2023-06-25_16h33.10.466.csv,3,5,0,3,b,1,0,2,tac,A,9,1,0A,3A,1,0,z,2.43346450000172,0,1,0,0,3A,0A,A03,2.99573227355399,0.5,0.5,0.5,0.5,0.5,0.507924621302114,0.5,0.492075378697886,0.5,0.5,0.507924621302114,0.5,0.5,0.5,0.5,0.507924621302114,0.5,0.5,0.5,0.5,0.146931506733008,0.501052962085378,-0.5,-0.00792462130211397,0.5,0.0158492426042279,0.894006477007024,6.59258399368833,2.42084293687485,0.5,72.9930395234769
CBC_1016,CBC_1016_MSI_TV_v3_Vset3_Tset2_2023-06-25_16h33.10.466.csv,3,6,3,2,b,1,0,0,tac,D,63,1,3D,2D,1,0,b,1.60803919999671,1,0,1,1,3D,2D,D32,2.35137525716348,0.5,0.5,0.5,0.492075378697886,0.5,0.507924621302114,0.5,0.492075378697886,0.5,0.5,0.507924621302114,0.5,0.5,0.5,0.5,0.507924621302114,0.507924621302114,0.492075378697886,0.507924621302114,0.5,0.323342105871454,0.56178801259801,0.492075378697886,0.00779902205655013,0.5,0.0158492426042279,0.894006477007024,6.59258399368833,2.42084293687485,0.5,72.9930395234769
CBC_1016,CBC_1016_MSI_TV_v3_Vset3_Tset2_2023-06-25_16h33.10.466.csv,3,7,0,2,z,0,1,3,tac,C,27,1,0C,2C,0,1,z,1.9523208999999,0,1,1,1,2C,0C,C02,3.09104245335832,0.5,0.5,0.5,0.492075378697886,0.5,0.507924621302114,0.5,0.492075378697886,0.5,0.5,0.507924621302114,0.5,0.5,0.5,0.5,0.515723643358664,0.507924621302114,0.492075378697886,0.507924621302114,0.5,0.24800175028564,0.564009179459684,0.492075378697886,0.00779902205655013,0.5,0.0158492426042279,0.894006477007024,6.59258399368833,2.42084293687485,0.5,72.9930395234769
CBC_1016,CBC_1016_MSI_TV_v3_Vset3_Tset2_2023-06-25_16h33.10.466.csv,3,8,0,1,b,1,0,2,tac,A,63,1,0A,1A,1,0,b,2.15419789999942,1,0,1,1,0A,1A,A01,3.13549421592915,0.5,0.5,0.5,0.492075378697886,0.5,0.507924621302114,0.5,0.492075378697886,0.5,0.5,0.515723643358664,0.5,0.5,0.5,0.5,0.515723643358664,0.5,0.5,0.5,0.5,0.185845432110621,0.501211206348535,0.5,0.00792462130211397,0.5,0.0158492426042279,0.894006477007024,6.59258399368833,2.42084293687485,0.5,72.9930395234769
CBC_1016,CBC_1016_MSI_TV_v3_Vset3_Tset2_2023-06-25_16h33.10.466.csv,3,9,1,0,b,1,0,1,tac,B,63,1,1B,0B,1,0,b,3.35097250000035,1,0,1,1,1B,0B,B10,3.17805383034795,0.507924621302114,0.5,0.5,0.492075378697886,0.5,0.507924621302114,0.5,0.492075378697886,0.5,0.5,0.515723643358664,0.5,0.5,0.5,0.5,0.515723643358664,0.507924621302114,0.492075378697886,0.507924621302114,0.5,0.0758767419912273,0.563324983279613,0.492075378697886,0.00779902205655013,0.5,0.0158492426042279,0.894006477007024,6.59258399368833,2.42084293687485,0.5,72.9930395234769
CBC_1016,CBC_1016_MSI_TV_v3_Vset3_Tset2_2023-06-25_16h33.10.466.csv,3,10,1,3,z,0,1,0,tac,D,27,1,1D,3D,0,1,b,3.19569880000199,1,0,0,0,1D,3D,D13,3.2188758248682,0.507924621302114,0.5,0.5,0.492075378697886,0.5,0.515723643358664,0.5,0.492075378697886,0.5,0.5,0.515723643358664,0.5,0.5,0.5,0.5,0.515723643358664,0.484276356641336,0.515723643358664,0.5,0.515723643358664,0.0571694392323736,0.377201352843113,-0.5,-0.00792462130211397,0.5,0.0158492426042279,0.894006477007024,6.59258399368833,2.42084293687485,0.5,72.9930395234769
CBC_1016,CBC_1016_MSI_TV_v3_Vset3_Tset2_2023-06-25_16h33.10.466.csv,3,11,3,2,z,0,1,3,tac,C,63,1,3C,2C,0,1,z,2.15608829999837,0,1,1,1,2C,3C,C32,2.56494935746154,0.507924621302114,0.5,0.5,0.492075378697886,0.5,0.515723643358664,0.5,0.492075378697886,0.5,0.5,0.515723643358664,0.5,0.5,0.492075378697886,0.5,0.515723643358664,0.515723643358664,0.484276356641336,0.515723643358664,0.5,0.231241229798824,0.622141535449615,0.484276356641336,0.00767541346390014,0.5,0.0158492426042279,0.894006477007024,6.59258399368833,2.42084293687485,0.5,72.9930395234769
CBC_1016,CBC_1016_MSI_TV_v3_Vset3_Tset2_2023-06-25_16h33.10.466.csv,3,12,1,0,b,1,0,1,tac,B,63,1,1B,0B,1,0,z,2.39956979999988,0,1,0,0,0B,1B,B10,2.60268968544438,0.507924621302114,0.5,0.5,0.492075378697886,0.5,0.515723643358664,0.5,0.492075378697886,0.5,0.5,0.523399056822564,0.5,0.5,0.492075378697886,0.5,0.515723643358664,0.484276356641336,0.515723643358664,0.5,0.515723643358664,0.113893127713169,0.377912333822222,-0.5,-0.00792462130211397,0.5,0.0158492426042279,0.894006477007024,6.59258399368833,2.42084293687485,0.5,72.9930395234769
CBC_1016,CBC_1016_MSI_TV_v3_Vset3_Tset2_2023-06-25_16h33.10.466.csv,3,13,0,1,b,1,0,2,tac,A,63,1,0A,1A,1,0,z,2.81628660000206,0,1,0,0,1A,0A,A01,2.63905732961526,0.507924621302114,0.5,0.5,0.492075378697886,0.492075378697886,0.515723643358664,0.5,0.492075378697886,0.5,0.5,0.523399056822564,0.5,0.5,0.492075378697886,0.5,0.515723643358664,0.492075378697886,0.507924621302114,0.5,0.507924621302114,0.0927736236945238,0.437746151879956,-0.5,-0.00792462130211397,0.5,0.0158492426042279,0.894006477007024,6.59258399368833,2.42084293687485,0.5,72.9930395234769
CBC_1016,CBC_1016_MSI_TV_v3_Vset3_Tset2_2023-06-25_16h33.10.466.csv,3,14,1,2,z,0,1,3,tac,C,9,1,1C,2C,0,1,z,2.08858600000167,0,1,1,1,2C,1C,C12,3.36729582998647,0.507924621302114,0.492075378697886,0.5,0.492075378697886,0.492075378697886,0.515723643358664,0.5,0.492075378697886,0.5,0.5,0.523399056822564,0.5,0.5,0.492075378697886,0.5,0.515723643358664,0.523399056822564,0.476600943177436,0.523399056822564,0.5,0.26882593148423,0.678546523398588,0.476600943177436,0.00755376397382303,0.5,0.0158492426042279,0.894006477007024,6.59258399368833,2.42084293687485,0.5,72.9930395234769
CBC_1016,CBC_1016_MSI_TV_v3_Vset3_Tset2_2023-06-25_16h33.10.466.csv,3,15,1,0,z,0,1,2,tac,A,63,1,1A,0A,0,1,z,2.8656482999977,0,1,1,1,0A,1A,A10,3.40119738166216,0.507924621302114,0.492075378697886,0.5,0.492075378697886,0.492075378697886,0.515723643358664,0.5,0.492075378697886,0.5,0.5,0.530952820796387,0.5,0.5,0.492075378697886,0.5,0.515723643358664,0.515845262298247,0.484154737701753,0.507924621302114,0.492075378697886,0.125638948139705,0.623476317353418,0.492075378697886,0.00779902205655013,0.5,0.0158492426042279,0.894006477007024,6.59258399368833,2.42084293687485,0.5,72.9930395234769
CBC_1016,CBC_1016_MSI_TV_v3_Vset3_Tset2_2023-06-25_16h33.10.466.csv,3,16,3,1,b,1,0,0,tac,D,27,1,3D,1D,1,0,b,2.35269060000064,1,0,1,1,3D,1D,D31,3.43398720448515,0.515723643358664,0.492075378697886,0.5,0.492075378697886,0.492075378697886,0.515723643358664,0.5,0.492075378697886,0.5,0.5,0.530952820796387,0.5,0.5,0.492075378697886,0.5,0.515723643358664,0.523636483866683,0.476363516133317,0.515723643358664,0.492075378697886,0.213025691370237,0.679600326197459,0.484276356641336,0.00767541346390014,0.5,0.0158492426042279,0.894006477007024,6.59258399368833,2.42084293687485,0.5,72.9930395234769
CBC_1016,CBC_1016_MSI_TV_v3_Vset3_Tset2_2023-06-25_16h33.10.466.csv,3,17,0,1,z,0,1,1,tac,B,63,1,0B,1B,0,1,b,2.40854229999968,1,0,0,0,0B,1B,B01,2.77258872223978,0.515723643358664,0.492075378697886,0.5,0.492075378697886,0.492075378697886,0.515723643358664,0.5,0.492075378697886,0.5,0.5,0.530952820796387,0.5,0.5,0.492075378697886,0.5,0.523399056822564,0.476363516133317,0.523636483866683,0.492075378697886,0.515723643358664,0.0954400845489896,0.31999062168243,-0.492075378697886,-0.00779902205655013,0.5,0.0158492426042279,0.894006477007024,6.59258399368833,2.42084293687485,0.5,72.9930395234769
CBC_1016,CBC_1016_MSI_TV_v3_Vset3_Tset2_2023-06-25_16h33.10.466.csv,3,18,2,3,b,1,0,3,tac,C,63,0,2C,3C,0,1,b,2.31660499999998,1,0,1,0,2C,3C,C23,3.49650756146648,0.515723643358664,0.492075378697886,0.5,0.492075378697886,0.484276356641336,0.515723643358664,0.5,0.492075378697886,0.5,0.5,0.530952820796387,0.5,0.5,0.492075378697886,0.5,0.523399056822564,0.530952820796387,0.469047179203613,0.530952820796387,0.5,0.235618954656395,0.729104051182923,-0.530952820796387,-0.0084152000682011,0.5,0.0158492426042279,0.894006477007024,6.59258399368833,2.42084293687485,0.5,72.9930395234769
CBC_1016,CBC_1016_MSI_TV_v3_Vset3_Tset2_2023-06-25_16h33.10.466.csv,3,19,2,0,z,0,1,2,tac,A,27,1,2A,0A,0,1,b,2.61403890000292,1,0,0,0,2A,0A,A20,3.52636052461616,0.515723643358664,0.492075378697886,0.5,0.492075378697886,0.484276356641336,0.515723643358664,0.5,0.492075378697886,0.5,0.5,0.522537620728186,0.5,0.5,0.492075378697886,0.5,0.523399056822564,0.484276356641336,0.515723643358664,0.5,0.515723643358664,0.0944607133438051,0.377175395838596,-0.5,-0.00792462130211397,0.5,0.0158492426042279,0.894006477007024,6.59258399368833,2.42084293687485,0.5,72.9930395234769
CBC_1016,CBC_1016_MSI_TV_v3_Vset3_Tset2_2023-06-25_16h33.10.466.csv,3,20,3,2,b,1,0,0,tac,D,63,1,3D,2D,1,0,b,2.836809299999,1,0,1,1,3D,2D,D32,2.4567357728213,0.515723643358664,0.492075378697886,0.492075378697886,0.492075378697886,0.484276356641336,0.515723643358664,0.5,0.492075378697886,0.5,0.5,0.522537620728186,0.5,0.5,0.492075378697886,0.5,0.523399056822564,0.523399056822564,0.476600943177436,0.523399056822564,0.5,0.138289799472932,0.678549447349359,0.476600943177436,0.00755376397382303,0.5,0.0158492426042279,0.894006477007024,6.59258399368833,2.42084293687485,0.5,72.9930395234769
CBC_1016,CBC_1016_MSI_TV_v3_Vset3_Tset2_2023-06-25_16h33.10.466.csv,3,21,3,1,z,0,1,1,tac,B,27,1,3B,1B,0,1,z,3.499053800002,0,1,1,1,1B,3B,B31,3.58351893845611,0.515723643358664,0.492075378697886,0.492075378697886,0.492075378697886,0.484276356641336,0.515723643358664,0.5,0.492075378697886,0.5,0.5,0.522537620728186,0.5,0.5,0.492075378697886,0.5,0.530952820796387,0.523636483866683,0.476363516133317,0.515723643358664,0.492075378697886,0.0767885900153687,0.679696023100385,0.484276356641336,0.00767541346390014,0.5,0.0158492426042279,0.894006477007024,6.59258399368833,2.42084293687485,0.5,72.9930395234769
CBC_1016,CBC_1016_MSI_TV_v3_Vset3_Tset2_2023-06-25_16h33.10.466.csv,3,22,3,2,z,0,1,3,tac,C,63,1,3C,2C,0,1,z,2.34522360000119,0,1,1,1,2C,3C,C32,2.51230562397611,0.515723643358664,0.492075378697886,0.492075378697886,0.492075378697886,0.484276356641336,0.523399056822564,0.5,0.492075378697886,0.5,0.5,0.522537620728186,0.5,0.5,0.492075378697886,0.5,0.530952820796387,0.522537620728186,0.477462379271814,0.522537620728186,0.5,0.212217416058224,0.672406363865869,0.477462379271814,0.00756741708347087,0.5,0.0158492426042279,0.894006477007024,6.59258399368833,2.42084293687485,0.5,72.9930395234769
CBC_1016,CBC_1016_MSI_TV_v3_Vset3_Tset2_2023-06-25_16h33.10.466.csv,3,23,0,1,b,1,0,2,tac,A,63,1,0A,1A,1,0,z,3.02400179999677,0,1,0,0,1A,0A,A01,2.53897387105828,0.515723643358664,0.492075378697886,0.492075378697886,0.492075378697886,0.484276356641336,0.523399056822564,0.5,0.492075378697886,0.5,0.5,0.530105037811657,0.5,0.5,0.492075378697886,0.5,0.530952820796387,0.476363516133317,0.523636483866683,0.492075378697886,0.515723643358664,0.0551171374061726,0.319691748354251,-0.492075378697886,-0.00779902205655013,0.5,0.0158492426042279,0.894006477007024,6.59258399368833,2.42084293687485,0.5,72.9930395234769
CBC_1016,CBC_1016_MSI_TV_v3_Vset3_Tset2_2023-06-25_16h33.10.466.csv,3,24,2,1,z,0,1,1,tac,B,9,1,2B,1B,0,1,z,1.60966340000232,0,1,1,1,1B,2B,B21,3.66356164612965,0.515723643358664,0.484276356641336,0.492075378697886,0.492075378697886,0.484276356641336,0.523399056822564,0.5,0.492075378697886,0.5,0.5,0.530105037811657,0.5,0.5,0.492075378697886,0.5,0.530952820796387,0.523399056822564,0.476600943177436,0.523399056822564,0.5,0.40217581234653,0.678682477720281,0.476600943177436,0.00755376397382303,0.5,0.0158492426042279,0.894006477007024,6.59258399368833,2.42084293687485,0.5,72.9930395234769
CBC_1016,CBC_1016_MSI_TV_v3_Vset3_Tset2_2023-06-25_16h33.10.466.csv,3,25,2,3,b,1,0,3,tac,C,63,1,2C,3C,1,0,b,2.18306149999989,1,0,1,1,2C,3C,C23,2.99573227355399,0.515723643358664,0.484276356641336,0.492075378697886,0.492075378697886,0.484276356641336,0.530952820796387,0.5,0.492075378697886,0.5,0.5,0.530105037811657,0.5,0.5,0.492075378697886,0.5,0.530952820796387,0.530105037811657,0.469894962188343,0.530105037811657,0.5,0.264173929380125,0.722888936558537,0.469894962188343,0.00744747925422756,0.5,0.0158492426042279,0.894006477007024,6.59258399368833,2.42084293687485,0.5,72.9930395234769
CBC_1016,CBC_1016_MSI_TV_v3_Vset3_Tset2_2023-06-25_16h33.10.466.csv,3,26,2,3,z,0,1,0,tac,D,63,1,2D,3D,0,1,z,1.63630530000228,0,1,1,1,3D,2D,D23,3.71357206670431,0.515723643358664,0.484276356641336,0.492075378697886,0.492075378697886,0.484276356641336,0.530952820796387,0.5,0.492075378697886,0.5,0.5,0.537552517065885,0.5,0.5,0.492075378697886,0.5,0.530952820796387,0.530952820796387,0.469047179203613,0.530952820796387,0.5,0.4328974256137,0.72844432048902,0.469047179203613,0.00743404253602683,0.5,0.0158492426042279,0.894006477007024,6.59258399368833,2.42084293687485,0.5,72.9930395234769
CBC_1016,CBC_1016_MSI_TV_v3_Vset3_Tset2_2023-06-25_16h33.10.466.csv,3,27,0,1,z,0,1,1,tac,B,63,1,0B,1B,0,1,z,2.62918889999855,0,1,1,1,1B,0B,B01,2.63905732961526,0.515723643358664,0.484276356641336,0.492075378697886,0.492075378697886,0.484276356641336,0.530952820796387,0.5,0.492075378697886,0.5,0.5,0.537552517065885,0.5,0.5,0.492075378697886,0.5,0.538386863332414,0.546585772628529,0.453414227371471,0.530952820796387,0.484276356641336,0.188551273015221,0.815857353046373,0.469047179203613,0.00743404253602683,0.5,0.0158492426042279,0.894006477007024,6.59258399368833,2.42084293687485,0.5,72.9930395234769
CBC_1016,CBC_1016_MSI_TV_v3_Vset3_Tset2_2023-06-25_16h33.10.466.csv,3,28,0,2,b,1,0,2,tac,A,27,1,0A,2A,1,0,b,1.24445460000061,1,0,1,1,0A,2A,A02,3.76120011569356,0.515723643358664,0.484276356641336,0.492075378697886,0.492075378697886,0.484276356641336,0.538386863332414,0.5,0.492075378697886,0.5,0.5,0.537552517065885,0.5,0.5,0.492075378697886,0.5,0.538386863332414,0.523636483866683,0.476363516133317,0.515723643358664,0.492075378697886,0.41263917950822,0.680205109804389,0.484276356641336,0.00767541346390014,0.5,0.0158492426042279,0.894006477007024,6.59258399368833,2.42084293687485,0.5,72.9930395234769
CBC_1016,CBC_1016_MSI_TV_v3_Vset3_Tset2_2023-06-25_16h33.10.466.csv,3,29,1,3,z,0,1,0,tac,D,27,1,1D,3D,0,1,z,2.33787569999913,0,1,1,1,3D,1D,D13,3.09104245335832,0.523399056822564,0.484276356641336,0.492075378697886,0.492075378697886,0.484276356641336,0.538386863332414,0.5,0.492075378697886,0.5,0.5,0.537552517065885,0.5,0.5,0.492075378697886,0.5,0.538386863332414,0.546255201055202,0.453744798944798,0.538386863332414,0.492075378697886,0.254147731267363,0.813989402835932,0.461613136667586,0.00731621859234319,0.5,0.0158492426042279,0.894006477007024,6.59258399368833,2.42084293687485,0.5,72.9930395234769
CBC_1016,CBC_1016_MSI_TV_v3_Vset3_Tset2_2023-06-25_16h33.10.466.csv,3,30,1,0,z,0,1,2,tac,A,63,1,1A,0A,0,1,b,2.28259059999982,1,0,0,0,1A,0A,A10,3.11351530921037,0.523399056822564,0.484276356641336,0.492075378697886,0.492075378697886,0.484276356641336,0.538386863332414,0.5,0.492075378697886,0.5,0.5,0.537552517065885,0.5,0.5,0.492075378697886,0.5,0.545703081924757,0.460934791059262,0.539065208940738,0.484276356641336,0.523399056822564,0.0741797288685248,0.223105044719675,-0.484276356641336,-0.00767541346390014,0.5,0.0158492426042279,0.894006477007024,6.59258399368833,2.42084293687485,0.5,72.9930395234769
CBC_1016,CBC_1016_MSI_TV_v3_Vset3_Tset2_2023-06-25_16h33.10.466.csv,3,31,2,0,b,1,0,3,tac,C,27,1,2C,0C,1,0,b,2.21153259999846,1,0,1,1,2C,0C,C20,3.8286413964891,0.523399056822564,0.476600943177436,0.492075378697886,0.492075378697886,0.484276356641336,0.538386863332414,0.5,0.492075378697886,0.5,0.5,0.537552517065885,0.5,0.5,0.492075378697886,0.5,0.545703081924757,0.537552517065885,0.462447482934115,0.537552517065885,0.5,0.273467448838166,0.767471379215663,0.462447482934115,0.00732944234873735,0.5,0.0158492426042279,0.894006477007024,6.59258399368833,2.42084293687485,0.5,72.9930395234769
CBC_1016,CBC_1016_MSI_TV_v3_Vset3_Tset2_2023-06-25_16h33.10.466.csv,3,32,2,3,z,0,1,0,tac,D,63,1,2D,3D,0,1,z,1.8286528000026,0,1,1,1,3D,2D,D23,3.15700042115011,0.523399056822564,0.476600943177436,0.492075378697886,0.492075378697886,0.484276356641336,0.538386863332414,0.5,0.492075378697886,0.5,0.5,0.544881959414622,0.5,0.5,0.492075378697886,0.5,0.545703081924757,0.545703081924757,0.454296918075243,0.545703081924757,0.5,0.424327820632127,0.810840858788346,0.454296918075243,0.00720026206892758,0.5,0.0158492426042279,0.894006477007024,6.59258399368833,2.42084293687485,0.5,72.9930395234769
CBC_1016,CBC_1016_MSI_TV_v3_Vset3_Tset2_2023-06-25_16h33.10.466.csv,3,33,1,0,b,1,0,1,tac,B,63,1,1B,0B,1,0,b,1.65191690000211,1,0,1,1,1B,0B,B10,2.77258872223978,0.523399056822564,0.476600943177436,0.492075378697886,0.492075378697886,0.484276356641336,0.538386863332414,0.5,0.492075378697886,0.5,0.5,0.544881959414622,0.5,0.5,0.492075378697886,0.5,0.552903343993685,0.553980180969349,0.446019819030651,0.538386863332414,0.484276356641336,0.54318737338949,0.848616201272715,0.461613136667586,0.00731621859234319,0.5,0.0158492426042279,0.894006477007024,6.59258399368833,2.42084293687485,0.5,72.9930395234769
CBC_1016,CBC_1016_MSI_TV_v3_Vset3_Tset2_2023-06-25_16h33.10.466.csv,3,34,0,1,b,1,0,2,tac,A,63,1,0A,1A,1,0,z,2.36914069999693,0,1,0,0,1A,0A,A01,2.50552593699074,0.523399056822564,0.476600943177436,0.492075378697886,0.492075378697886,0.484276356641336,0.545703081924757,0.5,0.492075378697886,0.5,0.5,0.544881959414622,0.5,0.5,0.492075378697886,0.5,0.552903343993685,0.453304153221735,0.546695846778265,0.476600943177436,0.523399056822564,0.0554927105040831,0.183696384550933,-0.476600943177436,-0.00755376397382303,0.5,0.0158492426042279,0.894006477007024,6.59258399368833,2.42084293687485,0.5,72.9930395234769
CBC_1016,CBC_1016_MSI_TV_v3_Vset3_Tset2_2023-06-25_16h33.10.466.csv,3,35,2,3,z,0,1,0,tac,D,63,0,2D,3D,1,0,z,1.42363309999928,0,1,1,0,3D,2D,D23,2.81341071676004,0.523399056822564,0.469047179203613,0.492075378697886,0.492075378697886,0.484276356641336,0.545703081924757,0.5,0.492075378697886,0.5,0.5,0.544881959414622,0.5,0.5,0.492075378697886,0.5,0.552903343993685,0.552903343993685,0.447096656006315,0.552903343993685,0.5,0.64225063505559,0.843877626028944,-0.552903343993685,-0.0087630992356448,0.5,0.0158492426042279,0.894006477007024,6.59258399368833,2.42084293687485,0.5,72.9930395234769
CBC_1016,CBC_1016_MSI_TV_v3_Vset3_Tset2_2023-06-25_16h33.10.466.csv,3,36,2,0,b,1,0,3,tac,C,27,1,2C,0C,1,0,b,1.93160920000082,1,0,1,1,2C,0C,C20,3.23867845216438,0.523399056822564,0.469047179203613,0.492075378697886,0.492075378697886,0.484276356641336,0.545703081924757,0.5,0.492075378697886,0.5,0.5,0.544881959414622,0.5,0.5,0.492075378697886,0.5,0.54414024475804,0.544881959414622,0.455118040585378,0.544881959414622,0.5,0.381084774676008,0.807704743911568,0.455118040585378,0.00721327623879851,0.5,0.0158492426042279,0.894006477007024,6.59258399368833,2.42084293687485,0.5,72.9930395234769
CBC_1016,CBC_1016_MSI_TV_v3_Vset3_Tset2_2023-06-25_16h33.10.466.csv,3,37,0,1,b,1,0,2,tac,A,63,1,0A,1A,1,0,z,2.68393419999848,0,1,0,0,1A,0A,A01,2.34180580614733,0.523399056822564,0.469047179203613,0.492075378697886,0.492075378697886,0.484276356641336,0.545703081924757,0.5,0.492075378697886,0.5,0.5,0.55209523565342,0.5,0.5,0.492075378697886,0.5,0.54414024475804,0.44580512856822,0.55419487143178,0.469047179203613,0.523399056822564,0.0316569025352381,0.150584443385884,-0.469047179203613,-0.00743404253602683,0.5,0.0158492426042279,0.894006477007024,6.59258399368833,2.42084293687485,0.5,72.9930395234769
CBC_1016,CBC_1016_MSI_TV_v3_Vset3_Tset2_2023-06-25_16h33.10.466.csv,3,38,1,3,b,1,0,1,tac,B,27,1,1B,3B,1,0,b,1.91728119999971,1,0,1,1,1B,3B,B13,3.27714473299218,0.523399056822564,0.461613136667586,0.492075378697886,0.492075378697886,0.484276356641336,0.545703081924757,0.5,0.492075378697886,0.5,0.5,0.55209523565342,0.5,0.5,0.492075378697886,0.5,0.54414024475804,0.553550124173105,0.446449875826895,0.545703081924757,0.492075378697886,0.411100163005405,0.84655329855228,0.454296918075243,0.00720026206892758,0.5,0.0158492426042279,0.894006477007024,6.59258399368833,2.42084293687485,0.5,72.9930395234769
CBC_1016,CBC_1016_MSI_TV_v3_Vset3_Tset2_2023-06-25_16h33.10.466.csv,3,39,3,2,z,0,1,3,tac,C,63,1,3C,2C,0,1,z,2.34554909999861,0,1,1,1,2C,3C,C32,2.60268968544438,0.523399056822564,0.461613136667586,0.492075378697886,0.492075378697886,0.484276356641336,0.552903343993685,0.5,0.492075378697886,0.5,0.5,0.55209523565342,0.5,0.5,0.492075378697886,0.5,0.54414024475804,0.55209523565342,0.44790476434658,0.55209523565342,0.5,0.257490714179132,0.840884504936232,0.44790476434658,0.00709895127371848,0.5,0.0158492426042279,0.894006477007024,6.59258399368833,2.42084293687485,0.5,72.9930395234769
CBC_1016,CBC_1016_MSI_TV_v3_Vset3_Tset2_2023-06-25_16h33.10.466.csv,3,40,3,2,b,1,0,0,tac,D,63,1,3D,2D,1,0,b,1.18311269999685,1,0,1,1,3D,2D,D32,2.62103882411258,0.523399056822564,0.461613136667586,0.492075378697886,0.492075378697886,0.484276356641336,0.552903343993685,0.5,0.492075378697886,0.5,0.5,0.559194186927139,0.5,0.5,0.492075378697886,0.5,0.54414024475804,0.54414024475804,0.45585975524196,0.54414024475804,0.5,0.475002080700327,0.80376913558491,0.45585975524196,0.00722503185433379,0.5,0.0158492426042279,0.894006477007024,6.59258399368833,2.42084293687485,0.5,72.9930395234769
CBC_1016,CBC_1016_MSI_TV_v3_Vset3_Tset2_2023-06-25_16h33.10.466.csv,3,41,0,1,z,0,1,1,tac,B,63,1,0B,1B,0,1,b,1.73471960000097,1,0,0,0,0B,1B,B01,2.63905732961526,0.523399056822564,0.461613136667586,0.492075378697886,0.492075378697886,0.484276356641336,0.552903343993685,0.5,0.492075378697886,0.5,0.5,0.559194186927139,0.5,0.5,0.492075378697886,0.5,0.551365276612374,0.431600600244992,0.568399399755008,0.484276356641336,0.552903343993685,0.0622462750594895,0.101125117007199,-0.484276356641336,-0.00767541346390014,0.5,0.0158492426042279,0.894006477007024,6.59258399368833,2.42084293687485,0.5,72.9930395234769
CBC_1016,CBC_1016_MSI_TV_v3_Vset3_Tset2_2023-06-25_16h33.10.466.csv,3,42,2,0,z,0,1,2,tac,A,27,1,2A,0A,0,1,z,1.67711549999876,0,1,1,1,0A,2A,A20,3.3499040872746,0.523399056822564,0.461613136667586,0.492075378697886,0.492075378697886,0.476600943177436,0.552903343993685,0.5,0.492075378697886,0.5,0.5,0.559194186927139,0.5,0.5,0.492075378697886,0.5,0.551365276612374,0.531300462113171,0.468699537886829,0.523399056822564,0.492075378697886,0.420801579657659,0.730845384420542,0.476600943177436,0.00755376397382303,0.5,0.0158492426042279,0.894006477007024,6.59258399368833,2.42084293687485,0.5,72.9930395234769
CBC_1016,CBC_1016_MSI_TV_v3_Vset3_Tset2_2023-06-25_16h33.10.466.csv,3,43,3,0,b,1,0,0,tac,D,9,1,3D,0D,1,0,b,1.41049550000025,1,0,1,1,3D,0D,D30,4.06044301054642,0.530952820796387,0.461613136667586,0.492075378697886,0.492075378697886,0.476600943177436,0.552903343993685,0.5,0.492075378697886,0.5,0.5,0.559194186927139,0.5,0.5,0.492075378697886,0.5,0.551365276612374,0.551365276612374,0.448634723387626,0.551365276612374,0.5,0.635288956871902,0.837589418622426,0.448634723387626,0.00711052057165118,0.5,0.0158492426042279,0.894006477007024,6.59258399368833,2.42084293687485,0.5,72.9930395234769
CBC_1016,CBC_1016_MSI_TV_v3_Vset3_Tset2_2023-06-25_16h33.10.466.csv,3,44,3,2,z,0,1,3,tac,C,63,1,3C,2C,0,1,z,1.77765849999923,0,1,1,1,2C,3C,C32,2.46809953147162,0.530952820796387,0.461613136667586,0.492075378697886,0.492075378697886,0.476600943177436,0.552903343993685,0.5,0.492075378697886,0.5,0.5,0.559194186927139,0.5,0.5,0.492075378697886,0.5,0.558475797184025,0.559194186927139,0.440805813072861,0.559194186927139,0.5,0.496433385301943,0.868439193993297,0.440805813072861,0.00698643827274572,0.5,0.0158492426042279,0.894006477007024,6.59258399368833,2.42084293687485,0.5,72.9930395234769
CBC_1016,CBC_1016_MSI_AV_v3_Vset6_Aset3_2023-06-25_16h41.28.303.csv,4,1,1,0,b,1,0,1,aud,B,63,1,1B,0B,1,0,z,1.80745469999965,0,1,0,0,0B,1B,B10,2.77258872223978,0.5,0.5,0.5,0.5,0.5,0.5,0.5,0.5,0.5,0.5,0.5,0.5,0.5,0.5,0.5,0.5,0.5,0.5,0.5,0.5,0.22333067333572,0.499712052972849,-0.5,-0.216634554668783,0.5,0.433269109337565,0.818843270350589,1.01968991538735,2.60457529583003,0.5,58.8811949896923
CBC_1016,CBC_1016_MSI_AV_v3_Vset6_Aset3_2023-06-25_16h41.28.303.csv,4,2,0,1,b,1,0,2,aud,A,63,1,0A,1A,1,0,b,2.09121689999665,1,0,1,1,0A,1A,A01,2.83321334405622,0.5,0.5,0.5,0.5,0.283365445331217,0.5,0.5,0.5,0.5,0.5,0.5,0.5,0.5,0.5,0.5,0.5,0.5,0.5,0.5,0.5,0.183467471185364,0.500746066057401,0.5,0.216634554668783,0.5,0.433269109337565,0.818843270350589,1.01968991538735,2.60457529583003,0.5,58.8811949896923
CBC_1016,CBC_1016_MSI_AV_v3_Vset6_Aset3_2023-06-25_16h41.28.303.csv,4,3,1,2,z,0,1,3,aud,C,9,1,1C,2C,0,1,z,2.30214630000046,0,1,1,1,2C,1C,C12,2.89037175789616,0.716634554668783,0.5,0.5,0.5,0.283365445331217,0.5,0.5,0.5,0.5,0.5,0.5,0.5,0.5,0.5,0.5,0.5,0.5,0.5,0.5,0.5,0.157304869971779,0.499892859662195,0.5,0.216634554668783,0.5,0.433269109337565,0.818843270350589,1.01968991538735,2.60457529583003,0.5,58.8811949896923
CBC_1016,CBC_1016_MSI_AV_v3_Vset6_Aset3_2023-06-25_16h41.28.303.csv,4,4,1,0,z,0,1,2,aud,A,63,1,1A,0A,0,1,z,1.76446689999648,0,1,1,1,0A,1A,A10,2.94443897916644,0.716634554668783,0.5,0.5,0.5,0.283365445331217,0.5,0.5,0.5,0.5,0.5,0.716634554668783,0.5,0.5,0.5,0.5,0.5,0.716634554668783,0.283365445331217,0.716634554668783,0.5,0.372768866662,0.759708406903782,0.283365445331217,0.122773494115699,0.5,0.433269109337565,0.818843270350589,1.01968991538735,2.60457529583003,0.5,58.8811949896923
CBC_1016,CBC_1016_MSI_AV_v3_Vset6_Aset3_2023-06-25_16h41.28.303.csv,4,5,3,1,b,1,0,0,aud,D,27,1,3D,1D,1,0,b,2.41601329999685,1,0,1,1,3D,1D,D31,2.99573227355399,0.839408048784482,0.5,0.5,0.5,0.283365445331217,0.5,0.5,0.5,0.5,0.5,0.716634554668783,0.5,0.5,0.5,0.5,0.5,0.5,0.5,0.5,0.5,0.144884454177848,0.500054200334578,0.5,0.216634554668783,0.5,0.433269109337565,0.818843270350589,1.01968991538735,2.60457529583003,0.5,58.8811949896923
CBC_1016,CBC_1016_MSI_AV_v3_Vset6_Aset3_2023-06-25_16h41.28.303.csv,4,6,0,1,z,0,1,1,aud,B,63,1,0B,1B,0,1,z,2.24398319999818,0,1,1,1,1B,0B,B01,3.04452243772342,0.839408048784482,0.5,0.5,0.5,0.283365445331217,0.5,0.5,0.5,0.5,0.5,0.716634554668783,0.5,0.5,0.5,0.5,0.716634554668783,0.716634554668783,0.283365445331217,0.5,0.283365445331217,0.253810501493494,0.75951691270787,0.5,0.216634554668783,0.5,0.433269109337565,0.818843270350589,1.01968991538735,2.60457529583003,0.5,58.8811949896923
CBC_1016,CBC_1016_MSI_AV_v3_Vset6_Aset3_2023-06-25_16h41.28.303.csv,4,7,2,3,b,1,0,3,aud,C,63,1,2C,3C,1,0,z,1.47251479999977,0,1,0,0,3C,2C,C23,3.09104245335832,0.839408048784482,0.5,0.5,0.5,0.283365445331217,0.716634554668783,0.5,0.5,0.5,0.5,0.716634554668783,0.5,0.5,0.5,0.5,0.716634554668783,0.283365445331217,0.716634554668783,0.5,0.716634554668783,0.141978958513042,0.240810966808162,-0.5,-0.216634554668783,0.5,0.433269109337565,0.818843270350589,1.01968991538735,2.60457529583003,0.5,58.8811949896923
CBC_1016,CBC_1016_MSI_AV_v3_Vset6_Aset3_2023-06-25_16h41.28.303.csv,4,8,2,0,z,0,1,2,aud,A,27,1,2A,0A,0,1,z,1.8742465999967,0,1,1,1,0A,2A,A20,3.13549421592915,0.839408048784482,0.5,0.5,0.5,0.283365445331217,0.716634554668783,0.5,0.5,0.5,0.5,0.716634554668783,0.283365445331217,0.5,0.5,0.5,0.716634554668783,0.839408048784482,0.160591951215518,0.839408048784482,0.5,0.408669163374402,0.85881738303155,0.160591951215518,0.0695795316699293,0.5,0.433269109337565,0.818843270350589,1.01968991538735,2.60457529583003,0.5,58.8811949896923
CBC_1016,CBC_1016_MSI_AV_v3_Vset6_Aset3_2023-06-25_16h41.28.303.csv,4,9,3,2,b,1,0,0,aud,D,63,1,3D,2D,1,0,b,1.6578929999996,1,0,1,1,3D,2D,D32,3.17805383034795,0.908987580454411,0.5,0.5,0.5,0.283365445331217,0.716634554668783,0.5,0.5,0.5,0.5,0.716634554668783,0.283365445331217,0.5,0.5,0.5,0.716634554668783,0.716634554668783,0.283365445331217,0.716634554668783,0.5,0.402828889875954,0.759865563561366,0.283365445331217,0.122773494115699,0.5,0.433269109337565,0.818843270350589,1.01968991538735,2.60457529583003,0.5,58.8811949896923
CBC_1016,CBC_1016_MSI_AV_v3_Vset6_Aset3_2023-06-25_16h41.28.303.csv,4,10,3,1,z,0,1,1,aud,B,27,1,3B,1B,0,1,z,1.79971759999898,0,1,1,1,1B,3B,B31,3.2188758248682,0.908987580454411,0.5,0.5,0.5,0.283365445331217,0.716634554668783,0.5,0.5,0.5,0.5,0.716634554668783,0.283365445331217,0.5,0.5,0.5,0.839408048784482,0.716634554668783,0.283365445331217,0.716634554668783,0.5,0.362752373614983,0.759464782350377,0.283365445331217,0.122773494115699,0.5,0.433269109337565,0.818843270350589,1.01968991538735,2.60457529583003,0.5,58.8811949896923
CBC_1016,CBC_1016_MSI_AV_v3_Vset6_Aset3_2023-06-25_16h41.28.303.csv,4,11,3,2,z,0,1,3,aud,C,63,1,3C,2C,0,1,z,1.90388789999997,0,1,1,1,2C,3C,C32,3.25809653802148,0.908987580454411,0.5,0.5,0.5,0.283365445331217,0.839408048784482,0.5,0.5,0.5,0.5,0.716634554668783,0.283365445331217,0.5,0.5,0.5,0.839408048784482,0.864789963610383,0.135210036389617,0.716634554668783,0.283365445331217,0.408573863087975,0.874619049146475,0.283365445331217,0.122773494115699,0.5,0.433269109337565,0.818843270350589,1.01968991538735,2.60457529583003,0.5,58.8811949896923
CBC_1016,CBC_1016_MSI_AV_v3_Vset6_Aset3_2023-06-25_16h41.28.303.csv,4,12,1,3,b,1,0,1,aud,B,27,1,1B,3B,1,0,b,1.44830409999486,1,0,1,1,1B,3B,B13,3.29583686600433,0.908987580454411,0.5,0.5,0.5,0.283365445331217,0.839408048784482,0.5,0.5,0.5,0.5,0.839408048784482,0.283365445331217,0.5,0.5,0.5,0.839408048784482,0.839408048784482,0.160591951215518,0.839408048784482,0.5,0.572619741673295,0.858321759314919,0.160591951215518,0.0695795316699293,0.5,0.433269109337565,0.818843270350589,1.01968991538735,2.60457529583003,0.5,58.8811949896923
CBC_1016,CBC_1016_MSI_AV_v3_Vset6_Aset3_2023-06-25_16h41.28.303.csv,4,13,3,2,z,0,1,3,aud,C,63,1,3C,2C,0,1,z,1.81380869999703,0,1,1,1,2C,3C,C32,2.63905732961526,0.908987580454411,0.5,0.5,0.5,0.283365445331217,0.908987580454411,0.5,0.5,0.5,0.5,0.839408048784482,0.283365445331217,0.5,0.5,0.5,0.839408048784482,0.929671808184271,0.0703281918157292,0.839408048784482,0.283365445331217,0.475598508186515,0.90763227067446,0.160591951215518,0.0695795316699293,0.5,0.433269109337565,0.818843270350589,1.01968991538735,2.60457529583003,0.5,58.8811949896923
CBC_1016,CBC_1016_MSI_AV_v3_Vset6_Aset3_2023-06-25_16h41.28.303.csv,4,14,3,2,b,1,0,0,aud,D,63,1,3D,2D,1,0,b,1.81109479999941,1,0,1,1,3D,2D,D32,2.67414864942653,0.908987580454411,0.5,0.5,0.5,0.283365445331217,0.908987580454411,0.5,0.5,0.5,0.5,0.908987580454411,0.283365445331217,0.5,0.5,0.5,0.839408048784482,0.839408048784482,0.160591951215518,0.839408048784482,0.5,0.432692945854807,0.858251167152854,0.160591951215518,0.0695795316699293,0.5,0.433269109337565,0.818843270350589,1.01968991538735,2.60457529583003,0.5,58.8811949896923
CBC_1016,CBC_1016_MSI_AV_v3_Vset6_Aset3_2023-06-25_16h41.28.303.csv,4,15,0,3,b,1,0,2,aud,A,9,1,0A,3A,1,0,b,2.62561959999948,1,0,1,1,0A,3A,A03,3.40119738166216,0.908987580454411,0.5,0.5,0.5,0.283365445331217,0.908987580454411,0.5,0.5,0.5,0.5,0.908987580454411,0.283365445331217,0.5,0.5,0.5,0.908987580454411,0.908987580454411,0.0910124195455889,0.908987580454411,0.5,0.196582770496279,0.89797558118924,0.0910124195455889,0.0394328699551741,0.5,0.433269109337565,0.818843270350589,1.01968991538735,2.60457529583003,0.5,58.8811949896923
CBC_1016,CBC_1016_MSI_AV_v3_Vset6_Aset3_2023-06-25_16h41.28.303.csv,4,16,0,1,z,0,1,1,aud,B,63,0,0B,1B,1,0,z,2.08172769999874,0,1,1,0,1B,0B,B01,2.7408400239252,0.948420450409585,0.5,0.5,0.5,0.283365445331217,0.908987580454411,0.5,0.5,0.5,0.5,0.908987580454411,0.283365445331217,0.5,0.5,0.5,0.908987580454411,0.961917143182959,0.0380828568170411,0.908987580454411,0.283365445331217,0.359136323167629,0.920685178723747,-0.908987580454411,-0.393836239382391,0.5,0.433269109337565,0.818843270350589,1.01968991538735,2.60457529583003,0.5,58.8811949896923
CBC_1016,CBC_1016_MSI_AV_v3_Vset6_Aset3_2023-06-25_16h41.28.303.csv,4,17,2,3,z,0,1,0,aud,D,63,1,2D,3D,0,1,z,2.65692349999881,0,1,1,1,3D,2D,D23,3.46573590279973,0.948420450409585,0.5,0.5,0.5,0.283365445331217,0.51515134107202,0.5,0.5,0.5,0.5,0.908987580454411,0.283365445331217,0.5,0.5,0.5,0.908987580454411,0.908987580454411,0.0910124195455889,0.908987580454411,0.5,0.190179423284417,0.897397686845053,0.0910124195455889,0.0394328699551741,0.5,0.433269109337565,0.818843270350589,1.01968991538735,2.60457529583003,0.5,58.8811949896923
CBC_1016,CBC_1016_MSI_AV_v3_Vset6_Aset3_2023-06-25_16h41.28.303.csv,4,18,0,2,z,0,1,3,aud,C,27,1,0C,2C,0,1,z,2.42801319999853,0,1,1,1,2C,0C,C02,3.49650756146648,0.948420450409585,0.5,0.5,0.5,0.283365445331217,0.51515134107202,0.5,0.5,0.5,0.5,0.908987580454411,0.283365445331217,0.5,0.5,0.5,0.948420450409585,0.908987580454411,0.0910124195455889,0.908987580454411,0.5,0.243118095120006,0.897986795729386,0.0910124195455889,0.0394328699551741,0.5,0.433269109337565,0.818843270350589,1.01968991538735,2.60457529583003,0.5,58.8811949896923
CBC_1016,CBC_1016_MSI_AV_v3_Vset6_Aset3_2023-06-25_16h41.28.303.csv,4,19,0,1,b,1,0,2,aud,A,63,1,0A,1A,1,0,b,2.50095179999698,1,0,1,1,0A,1A,A01,2.83321334405622,0.948420450409585,0.5,0.5,0.5,0.283365445331217,0.51515134107202,0.5,0.5,0.5,0.5,0.948420450409585,0.283365445331217,0.5,0.5,0.5,0.948420450409585,0.948420450409585,0.0515795495904148,0.948420450409585,0.5,0.221770152268748,0.915492136308127,0.0515795495904148,0.0223478255110718,0.5,0.433269109337565,0.818843270350589,1.01968991538735,2.60457529583003,0.5,58.8811949896923
CBC_1016,CBC_1016_MSI_AV_v3_Vset6_Aset3_2023-06-25_16h41.28.303.csv,4,20,1,0,b,1,0,1,aud,B,63,1,1B,0B,1,0,b,1.6871914000003,1,0,1,1,1B,0B,B10,2.86220088092947,0.970768275920657,0.5,0.5,0.5,0.283365445331217,0.51515134107202,0.5,0.5,0.5,0.5,0.948420450409585,0.283365445331217,0.5,0.5,0.5,0.948420450409585,0.728782165252668,0.271217834747332,0.51515134107202,0.283365445331217,0.40347804252349,0.771271756745158,0.48484865892798,0.210069946617239,0.5,0.433269109337565,0.818843270350589,1.01968991538735,2.60457529583003,0.5,58.8811949896923
CBC_1016,CBC_1016_MSI_AV_v3_Vset6_Aset3_2023-06-25_16h41.28.303.csv,4,21,1,3,z,0,1,0,aud,D,27,1,1D,3D,0,1,z,2.26932929999748,0,1,1,1,3D,1D,D13,3.58351893845611,0.970768275920657,0.5,0.5,0.5,0.283365445331217,0.725221287689259,0.5,0.5,0.5,0.5,0.948420450409585,0.283365445331217,0.5,0.5,0.5,0.948420450409585,0.948420450409585,0.0515795495904148,0.948420450409585,0.5,0.289049767983161,0.915217865178601,0.0515795495904148,0.0223478255110718,0.5,0.433269109337565,0.818843270350589,1.01968991538735,2.60457529583003,0.5,58.8811949896923
CBC_1016,CBC_1016_MSI_AV_v3_Vset6_Aset3_2023-06-25_16h41.28.303.csv,4,22,3,2,z,0,1,3,aud,C,63,1,3C,2C,0,1,z,2.02719559999605,0,1,1,1,2C,3C,C32,2.51230562397611,0.970768275920657,0.5,0.5,0.5,0.283365445331217,0.725221287689259,0.5,0.5,0.5,0.5,0.948420450409585,0.283365445331217,0.5,0.5,0.5,0.970768275920657,0.978948377628645,0.0210516223713552,0.948420450409585,0.283365445331217,0.384404346312689,0.926887655651119,0.0515795495904148,0.0223478255110718,0.5,0.433269109337565,0.818843270350589,1.01968991538735,2.60457529583003,0.5,58.8811949896923
CBC_1016,CBC_1016_MSI_AV_v3_Vset6_Aset3_2023-06-25_16h41.28.303.csv,4,23,0,1,b,1,0,2,aud,A,63,1,0A,1A,1,0,z,2.40883469999972,0,1,0,0,1A,0A,A01,2.53897387105828,0.970768275920657,0.5,0.5,0.5,0.283365445331217,0.725221287689259,0.5,0.5,0.5,0.5,0.970768275920657,0.283365445331217,0.5,0.5,0.5,0.970768275920657,0.0292317240793429,0.970768275920657,0.5,0.970768275920657,0.0199865450939281,0.075629992285609,-0.5,-0.216634554668783,0.5,0.433269109337565,0.818843270350589,1.01968991538735,2.60457529583003,0.5,58.8811949896923
CBC_1016,CBC_1016_MSI_AV_v3_Vset6_Aset3_2023-06-25_16h41.28.303.csv,4,24,2,3,z,0,1,0,aud,D,63,1,2D,3D,0,1,b,1.62222049999764,1,0,0,0,2D,3D,D23,2.9704144655697,0.970768275920657,0.283365445331217,0.5,0.5,0.283365445331217,0.725221287689259,0.5,0.5,0.5,0.5,0.970768275920657,0.283365445331217,0.5,0.5,0.5,0.970768275920657,0.0292317240793429,0.970768275920657,0.5,0.970768275920657,0.0497269925968321,0.0759862456960901,-0.5,-0.216634554668783,0.5,0.433269109337565,0.818843270350589,1.01968991538735,2.60457529583003,0.5,58.8811949896923
CBC_1016,CBC_1016_MSI_AV_v3_Vset6_Aset3_2023-06-25_16h41.28.303.csv,4,25,2,0,b,1,0,3,aud,C,27,1,2C,0C,1,0,b,2.32586329999685,1,0,1,1,2C,0C,C20,3.68887945411394,0.970768275920657,0.283365445331217,0.5,0.5,0.283365445331217,0.725221287689259,0.5,0.5,0.5,0.5,0.970768275920657,0.283365445331217,0.5,0.5,0.283365445331217,0.970768275920657,0.970768275920657,0.0292317240793429,0.970768275920657,0.5,0.269627332750796,0.924089453207355,0.0292317240793429,0.0126652030562584,0.5,0.433269109337565,0.818843270350589,1.01968991538735,2.60457529583003,0.5,58.8811949896923
CBC_1016,CBC_1016_MSI_AV_v3_Vset6_Aset3_2023-06-25_16h41.28.303.csv,4,26,0,1,b,1,0,2,aud,A,63,1,0A,1A,1,0,b,1.62972849999642,1,0,1,1,0A,1A,A01,2.32727770558442,0.970768275920657,0.283365445331217,0.5,0.5,0.283365445331217,0.725221287689259,0.5,0.5,0.5,0.5,0.983433478976915,0.283365445331217,0.5,0.5,0.283365445331217,0.970768275920657,0.988233492704521,0.0117665072954788,0.970768275920657,0.283365445331217,0.611650368348405,0.930602257317515,0.0292317240793429,0.0126652030562584,0.5,0.433269109337565,0.818843270350589,1.01968991538735,2.60457529583003,0.5,58.8811949896923
CBC_1016,CBC_1016_MSI_AV_v3_Vset6_Aset3_2023-06-25_16h41.28.303.csv,4,27,1,3,b,1,0,1,aud,B,27,1,1B,3B,1,0,b,1.62118609999743,1,0,1,1,1B,3B,B13,3.04452243772342,0.983433478976915,0.283365445331217,0.5,0.5,0.283365445331217,0.725221287689259,0.5,0.5,0.5,0.5,0.983433478976915,0.283365445331217,0.5,0.5,0.283365445331217,0.970768275920657,0.725221287689259,0.274778712310741,0.725221287689259,0.5,0.419382051165908,0.767622674449002,0.274778712310741,0.119053127947798,0.5,0.433269109337565,0.818843270350589,1.01968991538735,2.60457529583003,0.5,58.8811949896923
CBC_1016,CBC_1016_MSI_AV_v3_Vset6_Aset3_2023-06-25_16h41.28.303.csv,4,28,3,2,z,0,1,3,aud,C,63,1,3C,2C,0,1,z,0.966322799999034,0,1,1,1,2C,3C,C32,2.37490575457367,0.983433478976915,0.283365445331217,0.5,0.5,0.283365445331217,0.844274415637057,0.5,0.5,0.5,0.5,0.983433478976915,0.283365445331217,0.5,0.5,0.283365445331217,0.970768275920657,0.993383135302195,0.00661686469780517,0.983433478976915,0.283365445331217,0.100455208052427,0.932149304599963,0.0165665210230845,0.00717776180849389,0.5,0.433269109337565,0.818843270350589,1.01968991538735,2.60457529583003,0.5,58.8811949896923
CBC_1016,CBC_1016_MSI_AV_v3_Vset6_Aset3_2023-06-25_16h41.28.303.csv,4,29,3,2,b,1,0,0,aud,D,63,1,3D,2D,1,0,b,1.26502369999798,1,0,1,1,3D,2D,D32,2.68557734525015,0.983433478976915,0.283365445331217,0.5,0.5,0.283365445331217,0.844274415637057,0.5,0.5,0.5,0.5,0.990611240785409,0.283365445331217,0.5,0.5,0.283365445331217,0.970768275920657,0.988233492704521,0.0117665072954788,0.970768275920657,0.283365445331217,0.764008255950841,0.930454496586356,0.0292317240793429,0.0126652030562584,0.5,0.433269109337565,0.818843270350589,1.01968991538735,2.60457529583003,0.5,58.8811949896923
CBC_1016,CBC_1016_MSI_AV_v3_Vset6_Aset3_2023-06-25_16h41.28.303.csv,4,30,0,1,z,0,1,1,aud,B,63,1,0B,1B,0,1,z,2.32323679999899,0,1,1,1,1B,0B,B01,2.70805020110221,0.983433478976915,0.283365445331217,0.5,0.5,0.283365445331217,0.844274415637057,0.5,0.5,0.5,0.5,0.990611240785409,0.283365445331217,0.5,0.5,0.283365445331217,0.983433478976915,0.932024441237948,0.0679755587620521,0.844274415637057,0.283365445331217,0.272225953081501,0.908208221842199,0.155725584362943,0.0674710852380043,0.5,0.433269109337565,0.818843270350589,1.01968991538735,2.60457529583003,0.5,58.8811949896923
CBC_1016,CBC_1016_MSI_AV_v3_Vset6_Aset3_2023-06-25_16h41.28.303.csv,4,31,2,0,z,0,1,2,aud,A,27,1,2A,0A,0,1,z,2.11342019999574,0,1,1,1,0A,2A,A20,3.13549421592915,0.983433478976915,0.283365445331217,0.5,0.5,0.283365445331217,0.911745500875061,0.5,0.5,0.5,0.5,0.990611240785409,0.283365445331217,0.5,0.5,0.283365445331217,0.983433478976915,0.983433478976915,0.0165665210230845,0.983433478976915,0.5,0.347008467466905,0.928577310352462,0.0165665210230845,0.00717776180849389,0.5,0.433269109337565,0.818843270350589,1.01968991538735,2.60457529583003,0.5,58.8811949896923
CBC_1016,CBC_1016_MSI_AV_v3_Vset6_Aset3_2023-06-25_16h41.28.303.csv,4,32,3,0,b,1,0,0,aud,D,9,1,3D,0D,1,0,b,2.3324885999973,1,0,1,1,3D,0D,D30,3.85014760171006,0.990611240785409,0.283365445331217,0.5,0.5,0.283365445331217,0.911745500875061,0.5,0.5,0.5,0.5,0.990611240785409,0.283365445331217,0.5,0.5,0.283365445331217,0.983433478976915,0.983433478976915,0.0165665210230845,0.983433478976915,0.5,0.266329848017609,0.928739712203806,0.0165665210230845,0.00717776180849389,0.5,0.433269109337565,0.818843270350589,1.01968991538735,2.60457529583003,0.5,58.8811949896923
CBC_1016,CBC_1016_MSI_AV_v3_Vset6_Aset3_2023-06-25_16h41.28.303.csv,4,33,3,2,z,0,1,3,aud,C,63,1,3C,2C,0,1,z,1.26453409999522,0,1,1,1,2C,3C,C32,2.26176309847379,0.990611240785409,0.283365445331217,0.5,0.5,0.283365445331217,0.911745500875061,0.5,0.5,0.5,0.5,0.990611240785409,0.283365445331217,0.5,0.5,0.283365445331217,0.990611240785409,0.996266384671918,0.00373361532808172,0.990611240785409,0.283365445331217,0.773464453152211,0.932877786503974,0.00938875921459059,0.00406785934269053,0.5,0.433269109337565,0.818843270350589,1.01968991538735,2.60457529583003,0.5,58.8811949896923
CBC_1016,CBC_1016_MSI_AV_v3_Vset6_Aset3_2023-06-25_16h41.28.303.csv,4,34,0,1,z,0,1,1,aud,B,63,1,0B,1B,0,1,z,1.09215079999922,0,1,1,1,1B,0B,B01,2.50552593699074,0.990611240785409,0.283365445331217,0.5,0.5,0.283365445331217,0.911745500875061,0.5,0.5,0.5,0.5,0.9946791001281,0.283365445331217,0.5,0.5,0.283365445331217,0.990611240785409,0.963136202024455,0.0368637979755454,0.911745500875061,0.283365445331217,0.494986907384908,0.921363045311533,0.088254499124939,0.0382379482308953,0.5,0.433269109337565,0.818843270350589,1.01968991538735,2.60457529583003,0.5,58.8811949896923
CBC_1016,CBC_1016_MSI_AV_v3_Vset6_Aset3_2023-06-25_16h41.28.303.csv,4,35,0,1,b,1,0,2,aud,A,63,0,0A,1A,0,1,b,2.27288259999841,1,0,1,0,0A,1A,A01,2.30258509299405,0.990611240785409,0.283365445331217,0.5,0.5,0.283365445331217,0.949983449105956,0.5,0.5,0.5,0.5,0.9946791001281,0.283365445331217,0.5,0.5,0.283365445331217,0.990611240785409,0.996266384671918,0.0037336153280817,0.990611240785409,0.283365445331217,0.285127385946919,0.933126925176989,-0.990611240785409,-0.429201249994875,0.5,0.433269109337565,0.818843270350589,1.01968991538735,2.60457529583003,0.5,58.8811949896923
CBC_1016,CBC_1016_MSI_AV_v3_Vset6_Aset3_2023-06-25_16h41.28.303.csv,4,36,2,3,z,0,1,0,aud,D,63,1,2D,3D,0,1,z,2.35554629999751,0,1,1,1,3D,2D,D23,2.83321334405622,0.561409990790535,0.283365445331217,0.5,0.5,0.283365445331217,0.949983449105956,0.5,0.5,0.5,0.5,0.9946791001281,0.283365445331217,0.5,0.5,0.283365445331217,0.990611240785409,0.996266384671918,0.00373361532808172,0.990611240785409,0.283365445331217,0.257355532611394,0.933293427520307,0.00938875921459059,0.00406785934269053,0.5,0.433269109337565,0.818843270350589,1.01968991538735,2.60457529583003,0.5,58.8811949896923
CBC_1016,CBC_1016_MSI_AV_v3_Vset6_Aset3_2023-06-25_16h41.28.303.csv,4,37,1,2,b,1,0,1,aud,B,9,1,1B,2B,1,0,b,1.19316669999534,1,0,1,1,1B,2B,B12,3.95124371858143,0.561409990790535,0.283365445331217,0.5,0.5,0.283365445331217,0.949983449105956,0.5,0.5,0.5,0.5,0.9946791001281,0.283365445331217,0.5,0.5,0.283365445331217,0.9946791001281,0.949983449105956,0.0500165508940438,0.949983449105956,0.5,0.664075419546067,0.91594781231178,0.0500165508940438,0.0216706264579994,0.5,0.433269109337565,0.818843270350589,1.01968991538735,2.60457529583003,0.5,58.8811949896923
CBC_1016,CBC_1016_MSI_AV_v3_Vset6_Aset3_2023-06-25_16h41.28.303.csv,4,38,2,0,z,0,1,2,aud,A,27,1,2A,0A,0,1,z,1.90357709999807,0,1,1,1,0A,2A,A20,2.87167962488401,0.561409990790535,0.283365445331217,0.5,0.5,0.283365445331217,0.971654075563956,0.5,0.5,0.5,0.5,0.9946791001281,0.283365445331217,0.5,0.5,0.283365445331217,0.9946791001281,0.561409990790535,0.438590009209465,0.561409990790535,0.5,0.24416926321866,0.580755212649969,0.438590009209465,0.19002750265454,0.5,0.433269109337565,0.818843270350589,1.01968991538735,2.60457529583003,0.5,58.8811949896923
CBC_1016,CBC_1016_MSI_AV_v3_Vset6_Aset3_2023-06-25_16h41.28.303.csv,4,39,2,3,b,1,0,3,aud,C,63,1,2C,3C,1,0,b,2.44964350000009,1,0,1,1,2C,3C,C23,3.29583686600433,0.751437493445074,0.283365445331217,0.5,0.5,0.283365445331217,0.971654075563956,0.5,0.5,0.5,0.5,0.9946791001281,0.283365445331217,0.5,0.5,0.283365445331217,0.9946791001281,0.997889265595611,0.0021107344043888,0.9946791001281,0.283365445331217,0.228610120218071,0.934147947480919,0.0053208998719001,0.00230538154837252,0.5,0.433269109337565,0.818843270350589,1.01968991538735,2.60457529583003,0.5,58.8811949896923
CBC_1016,CBC_1016_MSI_AV_v3_Vset6_Aset3_2023-06-25_16h41.28.303.csv,4,40,1,3,z,0,1,0,aud,D,27,1,1D,3D,0,1,z,2.53475189999517,0,1,1,1,3D,1D,D13,3.31418600467253,0.751437493445074,0.283365445331217,0.5,0.5,0.283365445331217,0.971654075563956,0.5,0.5,0.5,0.5,0.996984481676472,0.283365445331217,0.5,0.5,0.283365445331217,0.9946791001281,0.9946791001281,0.0053208998719001,0.9946791001281,0.5,0.206570056218232,0.932448777879299,0.0053208998719001,0.00230538154837252,0.5,0.433269109337565,0.818843270350589,1.01968991538735,2.60457529583003,0.5,58.8811949896923
CBC_1016,CBC_1016_MSI_AV_v3_Vset6_Aset3_2023-06-25_16h41.28.303.csv,4,41,0,1,b,1,0,2,aud,A,63,1,0A,1A,1,0,z,2.95999049999591,0,1,0,0,1A,0A,A01,2.23359222150709,0.751437493445074,0.283365445331217,0.5,0.5,0.283365445331217,0.971654075563956,0.5,0.5,0.5,0.5,0.996984481676472,0.283365445331217,0.5,0.5,0.283365445331217,0.996984481676472,0.11566659101095,0.88433340898905,0.283365445331217,0.751437493445074,0.0182423780554199,0.115077339742295,-0.283365445331217,-0.122773494115699,0.5,0.433269109337565,0.818843270350589,1.01968991538735,2.60457529583003,0.5,58.8811949896923
CBC_1016,CBC_1016_MSI_AV_v3_Vset6_Aset3_2023-06-25_16h41.28.303.csv,4,42,0,2,z,0,1,3,aud,C,27,1,0C,2C,0,1,z,1.57874679999804,0,1,1,1,2C,0C,C02,3.3499040872746,0.751437493445074,0.160591951215518,0.5,0.5,0.283365445331217,0.971654075563956,0.5,0.5,0.5,0.5,0.996984481676472,0.283365445331217,0.5,0.5,0.283365445331217,0.996984481676472,0.996984481676472,0.00301551832352753,0.996984481676472,0.5,0.650734345976872,0.933383630270441,0.00301551832352753,0.00130653093822588,0.5,0.433269109337565,0.818843270350589,1.01968991538735,2.60457529583003,0.5,58.8811949896923
CBC_1016,CBC_1016_MSI_AV_v3_Vset6_Aset3_2023-06-25_16h41.28.303.csv,4,43,3,2,b,1,0,0,aud,D,63,1,3D,2D,1,0,b,1.66788369999631,1,0,1,1,3D,2D,D32,2.67414864942653,0.751437493445074,0.160591951215518,0.5,0.5,0.283365445331217,0.971654075563956,0.5,0.5,0.5,0.5,0.998291012614698,0.283365445331217,0.5,0.5,0.283365445331217,0.996984481676472,0.998805451954483,0.00119454804551689,0.996984481676472,0.283365445331217,0.592480867584378,0.934057706803436,0.00301551832352753,0.00130653093822588,0.5,0.433269109337565,0.818843270350589,1.01968991538735,2.60457529583003,0.5,58.8811949896923
CBC_1016,CBC_1016_MSI_AV_v3_Vset6_Aset3_2023-06-25_16h41.28.303.csv,4,44,1,0,b,1,0,1,aud,B,63,1,1B,0B,1,0,b,3.03867339999852,1,0,1,1,1B,0B,B10,2.97892515523761,0.751437493445074,0.160591951215518,0.5,0.5,0.283365445331217,0.971654075563956,0.5,0.5,0.5,0.5,0.998291012614698,0.283365445331217,0.5,0.5,0.283365445331217,0.998291012614698,0.988596266516167,0.0114037334838328,0.971654075563956,0.283365445331217,0.112099442546275,0.930445379248711,0.0283459244360444,0.0122814134337549,0.5,0.433269109337565,0.818843270350589,1.01968991538735,2.60457529583003,0.5,58.8811949896923
