ID,filename,session,trial,visStimLeft,visStimRight,correctKey,leftCorrect,rightCorrect,secondStim,mod2Type,mod2Stim,frequency,rewardAccurate,stimPairLeft,stimPairRight,pCorrectLeft,pCorrectRight,key,reactionTime,choiceLeft,choiceRight,choiceAccurate,reward,chosenPair,otherPair,triplet,surprise,0A belief,1A belief,2A belief,3A belief,0B belief,1B belief,2B belief,3B belief,0C belief,1C belief,2C belief,3C belief,0D belief,1D belief,2D belief,3D belief,beliefPairNorm,beliefOtherPairNorm,beliefPair,beliefOtherPair,lik,corrLik,rewardPE,update2,fitCBCsimpleRW_CBCdriftDiffusionLR_startBelief,fitCBCsimpleRW_CBCdriftDiffusionLR_alpha1,fitCBCsimpleRW_CBCdriftDiffusionLR_nonDecisionTime,fitCBCsimpleRW_CBCdriftDiffusionLR_weight,fitCBCsimpleRW_CBCdriftDiffusionLR_startingBoundary,fitCBCsimpleRW_CBCdriftDiffusionLR_startingPoint,fit_CBCsimpleRW_CBCdriftDiffusionLR_NLL
CBC_1007,CBC_1007_MSI_AV_v3_Vset2_Aset1_2023-06-21_15h59.48.192.csv,1,1,0,1,z,0,1,3,aud,B,63,1,0B,1B,0,1,b,2.25464279999869,1,0,0,0,0B,1B,B01,2.77258872223978,0.5,0.5,0.5,0.5,0.5,0.5,0.5,0.5,0.5,0.5,0.5,0.5,0.5,0.5,0.5,0.5,0.5,0.5,0.5,0.5,0.158340900606153,0.500191001784679,-0.5,-0.0333633219921994,0.5,0.0667266439843988,0.831919867900019,11.3820615858771,2.31815599371137,0.5,41.1316529529774
CBC_1007,CBC_1007_MSI_AV_v3_Vset2_Aset1_2023-06-21_15h59.48.192.csv,1,2,0,1,b,1,0,0,aud,A,63,1,0A,1A,1,0,z,1.56986979999965,0,1,0,0,1A,0A,A01,2.83321334405622,0.5,0.5,0.5,0.5,0.466636678007801,0.5,0.5,0.5,0.5,0.5,0.5,0.5,0.5,0.5,0.5,0.5,0.5,0.5,0.5,0.5,0.292391907771277,0.49908346968739,-0.5,-0.0333633219921994,0.5,0.0667266439843988,0.831919867900019,11.3820615858771,2.31815599371137,0.5,41.1316529529774
CBC_1007,CBC_1007_MSI_AV_v3_Vset2_Aset1_2023-06-21_15h59.48.192.csv,1,3,2,3,z,0,1,2,aud,D,63,1,2D,3D,0,1,z,2.18656360000023,0,1,1,1,3D,2D,D23,2.89037175789616,0.5,0.466636678007801,0.5,0.5,0.466636678007801,0.5,0.5,0.5,0.5,0.5,0.5,0.5,0.5,0.5,0.5,0.5,0.5,0.5,0.5,0.5,0.168706024550911,0.500664679711756,0.5,0.0333633219921994,0.5,0.0667266439843988,0.831919867900019,11.3820615858771,2.31815599371137,0.5,41.1316529529774
CBC_1007,CBC_1007_MSI_AV_v3_Vset2_Aset1_2023-06-21_15h59.48.192.csv,1,4,2,1,z,0,1,3,aud,B,9,1,2B,1B,0,1,b,2.28754330000083,1,0,0,0,2B,1B,B21,2.94443897916644,0.5,0.466636678007801,0.5,0.5,0.466636678007801,0.5,0.5,0.5,0.5,0.5,0.5,0.5,0.5,0.5,0.5,0.533363321992199,0.5,0.5,0.5,0.5,0.153625574154804,0.500171947156342,-0.5,-0.0333633219921994,0.5,0.0667266439843988,0.831919867900019,11.3820615858771,2.31815599371137,0.5,41.1316529529774
CBC_1007,CBC_1007_MSI_AV_v3_Vset2_Aset1_2023-06-21_15h59.48.192.csv,1,5,0,2,b,1,0,0,aud,A,27,1,0A,2A,1,0,z,2.41652909999902,0,1,0,0,2A,0A,A02,2.99573227355399,0.5,0.466636678007801,0.5,0.5,0.466636678007801,0.5,0.466636678007801,0.5,0.5,0.5,0.5,0.5,0.5,0.5,0.5,0.533363321992199,0.5,0.5,0.5,0.5,0.136454921939659,0.500112904889326,-0.5,-0.0333633219921994,0.5,0.0667266439843988,0.831919867900019,11.3820615858771,2.31815599371137,0.5,41.1316529529774
CBC_1007,CBC_1007_MSI_AV_v3_Vset2_Aset1_2023-06-21_15h59.48.192.csv,1,6,2,3,b,1,0,1,aud,C,63,1,2C,3C,1,0,b,2.19427229999928,1,0,1,1,2C,3C,C23,3.04452243772342,0.5,0.466636678007801,0.466636678007801,0.5,0.466636678007801,0.5,0.466636678007801,0.5,0.5,0.5,0.5,0.5,0.5,0.5,0.5,0.533363321992199,0.5,0.5,0.5,0.5,0.167245404155945,0.499852029531586,0.5,0.0333633219921994,0.5,0.0667266439843988,0.831919867900019,11.3820615858771,2.31815599371137,0.5,41.1316529529774
CBC_1007,CBC_1007_MSI_AV_v3_Vset2_Aset1_2023-06-21_15h59.48.192.csv,1,7,1,3,z,0,1,2,aud,D,27,1,1D,3D,0,1,z,1.58380880000186,0,1,1,1,3D,1D,D13,3.09104245335832,0.5,0.466636678007801,0.466636678007801,0.5,0.466636678007801,0.5,0.466636678007801,0.5,0.5,0.5,0.533363321992199,0.5,0.5,0.5,0.5,0.533363321992199,0.516143074406724,0.483856925593276,0.533363321992199,0.5,0.421263588057381,0.700769270876433,0.466636678007801,0.031137099483489,0.5,0.0667266439843988,0.831919867900019,11.3820615858771,2.31815599371137,0.5,41.1316529529774
CBC_1007,CBC_1007_MSI_AV_v3_Vset2_Aset1_2023-06-21_15h59.48.192.csv,1,8,1,0,z,0,1,0,aud,A,63,1,1A,0A,0,1,b,1.65568639999947,1,0,0,0,1A,0A,A10,3.13549421592915,0.5,0.466636678007801,0.466636678007801,0.5,0.466636678007801,0.5,0.466636678007801,0.5,0.5,0.5,0.533363321992199,0.5,0.5,0.5,0.5,0.564500421475688,0.482742573941556,0.517257426058444,0.466636678007801,0.5,0.161922912314453,0.28642463086902,-0.466636678007801,-0.031137099483489,0.5,0.0667266439843988,0.831919867900019,11.3820615858771,2.31815599371137,0.5,41.1316529529774
CBC_1007,CBC_1007_MSI_AV_v3_Vset2_Aset1_2023-06-21_15h59.48.192.csv,1,9,2,0,b,1,0,1,aud,C,27,1,2C,0C,1,0,b,3.50904509999964,1,0,1,1,2C,0C,C20,3.17805383034795,0.5,0.435499578524312,0.466636678007801,0.5,0.466636678007801,0.5,0.466636678007801,0.5,0.5,0.5,0.533363321992199,0.5,0.5,0.5,0.5,0.564500421475688,0.516143074406724,0.483856925593276,0.533363321992199,0.5,0.0639524563362653,0.702161977982389,0.466636678007801,0.031137099483489,0.5,0.0667266439843988,0.831919867900019,11.3820615858771,2.31815599371137,0.5,41.1316529529774
CBC_1007,CBC_1007_MSI_AV_v3_Vset2_Aset1_2023-06-21_15h59.48.192.csv,1,10,2,3,z,0,1,2,aud,D,63,1,2D,3D,0,1,z,1.15311800000018,0,1,1,1,3D,2D,D23,2.52572864430826,0.5,0.435499578524312,0.466636678007801,0.5,0.466636678007801,0.5,0.466636678007801,0.5,0.5,0.5,0.564500421475688,0.5,0.5,0.5,0.5,0.564500421475688,0.530296099547933,0.469703900452067,0.564500421475688,0.5,0.646613155283903,0.831878806821658,0.435499578524312,0.0290594253315474,0.5,0.0667266439843988,0.831919867900019,11.3820615858771,2.31815599371137,0.5,41.1316529529774
CBC_1007,CBC_1007_MSI_AV_v3_Vset2_Aset1_2023-06-21_15h59.48.192.csv,1,11,1,0,b,1,0,3,aud,B,63,0,1B,0B,0,1,b,2.48599909999939,1,0,1,0,1B,0B,B10,3.25809653802148,0.5,0.435499578524312,0.466636678007801,0.5,0.466636678007801,0.5,0.466636678007801,0.5,0.5,0.5,0.564500421475688,0.5,0.5,0.5,0.5,0.593559846807236,0.517257426058444,0.482742573941556,0.5,0.466636678007801,0.177606419181946,0.713028504510517,-0.5,-0.0333633219921994,0.5,0.0667266439843988,0.831919867900019,11.3820615858771,2.31815599371137,0.5,41.1316529529774
CBC_1007,CBC_1007_MSI_AV_v3_Vset2_Aset1_2023-06-21_15h59.48.192.csv,1,12,0,1,b,1,0,0,aud,A,63,1,0A,1A,NaN,NaN,[],NaN,NaN,NaN,NaN,NaN,,,A01,2.60268968544438,0.5,0.435499578524312,0.466636678007801,0.5,0.466636678007801,0.466636678007801,0.466636678007801,0.5,0.5,0.5,0.564500421475688,0.5,0.5,0.5,0.5,0.593559846807236,0,0,0,0,NaN,0,0,0,0.5,0.0667266439843988,0.831919867900019,11.3820615858771,2.31815599371137,0.5,41.1316529529774
CBC_1007,CBC_1007_MSI_AV_v3_Vset2_Aset1_2023-06-21_15h59.48.192.csv,1,13,2,3,z,0,1,2,aud,D,63,1,2D,3D,0,1,z,1.0379326000002,0,1,1,1,3D,2D,D23,2.23359222150709,0.5,0.435499578524312,0.466636678007801,0.5,0.466636678007801,0.466636678007801,0.466636678007801,0.5,0.5,0.5,0.564500421475688,0.5,0.5,0.5,0.5,0.593559846807236,0.542777652764224,0.457222347235776,0.593559846807236,0.5,0.531751268908847,0.90520689193083,0.406440153192764,0.0271203874030581,0.5,0.0667266439843988,0.831919867900019,11.3820615858771,2.31815599371137,0.5,41.1316529529774
CBC_1007,CBC_1007_MSI_AV_v3_Vset2_Aset1_2023-06-21_15h59.48.192.csv,1,14,2,0,b,1,0,1,aud,C,27,1,2C,0C,1,0,b,1.70076030000018,1,0,1,1,2C,0C,C20,2.67414864942653,0.5,0.435499578524312,0.466636678007801,0.5,0.466636678007801,0.466636678007801,0.466636678007801,0.5,0.5,0.5,0.564500421475688,0.5,0.5,0.5,0.5,0.620680234210294,0.530296099547933,0.469703900452067,0.564500421475688,0.5,0.47365609329925,0.831688111972161,0.435499578524312,0.0290594253315474,0.5,0.0667266439843988,0.831919867900019,11.3820615858771,2.31815599371137,0.5,41.1316529529774
CBC_1007,CBC_1007_MSI_AV_v3_Vset2_Aset1_2023-06-21_15h59.48.192.csv,1,15,0,1,b,1,0,0,aud,A,63,1,0A,1A,1,0,b,1.61453559999973,1,0,1,1,0A,1A,A01,2.30258509299405,0.5,0.435499578524312,0.466636678007801,0.5,0.466636678007801,0.466636678007801,0.466636678007801,0.5,0.5,0.5,0.593559846807236,0.5,0.5,0.5,0.5,0.620680234210294,0.534473784358852,0.465526215641148,0.5,0.435499578524312,0.550769447486486,0.860489552430237,0.5,0.0333633219921994,0.5,0.0667266439843988,0.831919867900019,11.3820615858771,2.31815599371137,0.5,41.1316529529774
CBC_1007,CBC_1007_MSI_AV_v3_Vset2_Aset1_2023-06-21_15h59.48.192.csv,1,16,1,3,b,1,0,3,aud,B,27,1,1B,3B,1,0,z,1.10762390000127,0,1,0,0,3B,1B,B13,3.43398720448515,0.533363321992199,0.435499578524312,0.466636678007801,0.5,0.466636678007801,0.466636678007801,0.466636678007801,0.5,0.5,0.5,0.593559846807236,0.5,0.5,0.5,0.5,0.620680234210294,0.517257426058444,0.482742573941556,0.5,0.466636678007801,0.431717694277783,0.713610338994006,-0.5,-0.0333633219921994,0.5,0.0667266439843988,0.831919867900019,11.3820615858771,2.31815599371137,0.5,41.1316529529774
CBC_1007,CBC_1007_MSI_AV_v3_Vset2_Aset1_2023-06-21_15h59.48.192.csv,1,17,3,2,z,0,1,1,aud,C,63,1,3C,2C,0,1,z,2.65874840000106,0,1,1,1,2C,3C,C32,3.46573590279973,0.533363321992199,0.435499578524312,0.466636678007801,0.5,0.466636678007801,0.466636678007801,0.466636678007801,0.466636678007801,0.5,0.5,0.593559846807236,0.5,0.5,0.5,0.5,0.620680234210294,0.542777652764224,0.457222347235776,0.593559846807236,0.5,0.141981088732598,0.905352270696987,0.406440153192764,0.0271203874030581,0.5,0.0667266439843988,0.831919867900019,11.3820615858771,2.31815599371137,0.5,41.1316529529774
CBC_1007,CBC_1007_MSI_AV_v3_Vset2_Aset1_2023-06-21_15h59.48.192.csv,1,18,2,3,z,0,1,2,aud,D,63,0,2D,3D,1,0,z,1.24820399999953,0,1,1,0,3D,2D,D23,2.11021320034659,0.533363321992199,0.435499578524312,0.466636678007801,0.5,0.466636678007801,0.466636678007801,0.466636678007801,0.466636678007801,0.5,0.5,0.620680234210294,0.5,0.5,0.5,0.5,0.620680234210294,0.553842403268285,0.446157596731715,0.620680234210294,0.5,1.03897047380444,0.944986690032728,-0.620680234210294,-0.0414159090163035,0.5,0.0667266439843988,0.831919867900019,11.3820615858771,2.31815599371137,0.5,41.1316529529774
CBC_1007,CBC_1007_MSI_AV_v3_Vset2_Aset1_2023-06-21_15h59.48.192.csv,1,19,1,0,b,1,0,3,aud,B,63,1,1B,0B,1,0,z,2.7564556999987,0,1,0,0,0B,1B,B10,2.83321334405622,0.533363321992199,0.435499578524312,0.466636678007801,0.5,0.466636678007801,0.466636678007801,0.466636678007801,0.466636678007801,0.5,0.5,0.620680234210294,0.5,0.5,0.5,0.5,0.579264325193991,0.5,0.5,0.466636678007801,0.466636678007801,0.0998547311730531,0.500039090022604,-0.466636678007801,-0.031137099483489,0.5,0.0667266439843988,0.831919867900019,11.3820615858771,2.31815599371137,0.5,41.1316529529774
CBC_1007,CBC_1007_MSI_AV_v3_Vset2_Aset1_2023-06-21_15h59.48.192.csv,1,20,2,0,z,0,1,0,aud,A,27,1,2A,0A,0,1,z,2.09992280000006,0,1,1,1,0A,2A,A20,3.55534806148941,0.533363321992199,0.435499578524312,0.466636678007801,0.5,0.435499578524312,0.466636678007801,0.466636678007801,0.466636678007801,0.5,0.5,0.620680234210294,0.5,0.5,0.5,0.5,0.579264325193991,0.533363321992199,0.466636678007801,0.533363321992199,0.466636678007801,0.305104506464054,0.852976631230388,0.466636678007801,0.031137099483489,0.5,0.0667266439843988,0.831919867900019,11.3820615858771,2.31815599371137,0.5,41.1316529529774
CBC_1007,CBC_1007_MSI_AV_v3_Vset2_Aset1_2023-06-21_15h59.48.192.csv,1,21,0,3,z,0,1,2,aud,D,9,1,0D,3D,0,1,z,1.40507149999939,0,1,1,1,3D,0D,D03,3.58351893845611,0.564500421475688,0.435499578524312,0.466636678007801,0.5,0.435499578524312,0.466636678007801,0.466636678007801,0.466636678007801,0.5,0.5,0.620680234210294,0.5,0.5,0.5,0.5,0.579264325193991,0.536721460787534,0.463278539212466,0.579264325193991,0.5,0.710730284677264,0.873563168362862,0.420735674806009,0.0280742795843164,0.5,0.0667266439843988,0.831919867900019,11.3820615858771,2.31815599371137,0.5,41.1316529529774
CBC_1007,CBC_1007_MSI_AV_v3_Vset2_Aset1_2023-06-21_15h59.48.192.csv,1,22,2,3,b,1,0,1,aud,C,63,1,2C,3C,1,0,b,1.32206819999919,1,0,1,1,2C,3C,C23,2.91777073208428,0.564500421475688,0.435499578524312,0.466636678007801,0.5,0.435499578524312,0.466636678007801,0.466636678007801,0.466636678007801,0.5,0.5,0.620680234210294,0.5,0.5,0.5,0.5,0.607338604778307,0.553842403268285,0.446157596731715,0.620680234210294,0.5,0.979934733123418,0.944760823217723,0.379319765789706,0.0253107349680952,0.5,0.0667266439843988,0.831919867900019,11.3820615858771,2.31815599371137,0.5,41.1316529529774
CBC_1007,CBC_1007_MSI_AV_v3_Vset2_Aset1_2023-06-21_15h59.48.192.csv,1,23,3,1,z,0,1,3,aud,B,27,1,3B,1B,0,1,z,2.25454490000084,0,1,1,1,1B,3B,B31,3.63758615972639,0.564500421475688,0.435499578524312,0.466636678007801,0.5,0.435499578524312,0.466636678007801,0.466636678007801,0.466636678007801,0.5,0.5,0.645990969178389,0.5,0.5,0.5,0.5,0.607338604778307,0.5,0.5,0.466636678007801,0.466636678007801,0.158451832994377,0.500496477840998,0.533363321992199,0.0355895445009097,0.5,0.0667266439843988,0.831919867900019,11.3820615858771,2.31815599371137,0.5,41.1316529529774
CBC_1007,CBC_1007_MSI_AV_v3_Vset2_Aset1_2023-06-21_15h59.48.192.csv,1,24,3,2,z,0,1,1,aud,C,63,1,3C,2C,0,1,z,1.90126140000029,0,1,1,1,2C,3C,C32,2.9704144655697,0.564500421475688,0.435499578524312,0.466636678007801,0.5,0.435499578524312,0.50222622250871,0.466636678007801,0.466636678007801,0.5,0.5,0.645990969178389,0.5,0.5,0.5,0.5,0.607338604778307,0.563696387277404,0.436303612722596,0.645990969178389,0.5,0.38149002488825,0.96651880740397,0.354009030821611,0.0236218345668957,0.5,0.0667266439843988,0.831919867900019,11.3820615858771,2.31815599371137,0.5,41.1316529529774
CBC_1007,CBC_1007_MSI_AV_v3_Vset2_Aset1_2023-06-21_15h59.48.192.csv,1,25,2,3,z,0,1,2,aud,D,63,1,2D,3D,0,1,z,1.29213069999969,0,1,1,1,3D,2D,D23,2.07944154167984,0.564500421475688,0.435499578524312,0.466636678007801,0.5,0.435499578524312,0.50222622250871,0.466636678007801,0.466636678007801,0.5,0.5,0.669612803745285,0.5,0.5,0.5,0.5,0.607338604778307,0.548466929769777,0.451533070230223,0.607338604778307,0.5,0.935543399034837,0.928442276420492,0.392661395221693,0.0262009771253752,0.5,0.0667266439843988,0.831919867900019,11.3820615858771,2.31815599371137,0.5,41.1316529529774
CBC_1007,CBC_1007_MSI_AV_v3_Vset2_Aset1_2023-06-21_15h59.48.192.csv,1,26,1,0,b,1,0,3,aud,B,63,1,1B,0B,1,0,b,1.45747579999988,1,0,1,1,1B,0B,B10,2.6149597780362,0.564500421475688,0.435499578524312,0.466636678007801,0.5,0.435499578524312,0.50222622250871,0.466636678007801,0.466636678007801,0.5,0.5,0.669612803745285,0.5,0.5,0.5,0.5,0.633539581903682,0.535578974104632,0.464421025895368,0.50222622250871,0.435499578524312,0.664281120124343,0.867071176717349,0.49777377749129,0.0332147736354306,0.5,0.0667266439843988,0.831919867900019,11.3820615858771,2.31815599371137,0.5,41.1316529529774
CBC_1007,CBC_1007_MSI_AV_v3_Vset2_Aset1_2023-06-21_15h59.48.192.csv,1,27,0,3,b,1,0,0,aud,A,9,1,0A,3A,1,0,b,1.81029519999902,1,0,1,1,0A,3A,A03,3.73766961828337,0.564500421475688,0.435499578524312,0.466636678007801,0.5,0.435499578524312,0.535440996144141,0.466636678007801,0.466636678007801,0.5,0.5,0.669612803745285,0.5,0.5,0.5,0.5,0.633539581903682,0.530296099547933,0.469703900452067,0.564500421475688,0.5,0.418554947144278,0.831763351818045,0.435499578524312,0.0290594253315474,0.5,0.0667266439843988,0.831919867900019,11.3820615858771,2.31815599371137,0.5,41.1316529529774
CBC_1007,CBC_1007_MSI_AV_v3_Vset2_Aset1_2023-06-21_15h59.48.192.csv,1,28,2,3,z,0,1,2,aud,D,63,1,2D,3D,0,1,z,0.982733799999551,0,1,1,1,3D,2D,D23,1.96944064646551,0.593559846807236,0.435499578524312,0.466636678007801,0.5,0.435499578524312,0.535440996144141,0.466636678007801,0.466636678007801,0.5,0.5,0.669612803745285,0.5,0.5,0.5,0.5,0.633539581903682,0.558903801876691,0.44109619812331,0.633539581903682,0.5,0.379703616220484,0.957317727413157,0.366460418096318,0.0244526738526869,0.5,0.0667266439843988,0.831919867900019,11.3820615858771,2.31815599371137,0.5,41.1316529529774
CBC_1007,CBC_1007_MSI_AV_v3_Vset2_Aset1_2023-06-21_15h59.48.192.csv,1,29,2,0,b,1,0,1,aud,C,27,1,2C,0C,1,0,b,2.22869250000076,1,0,1,1,2C,0C,C20,2.68557734525015,0.593559846807236,0.435499578524312,0.466636678007801,0.5,0.435499578524312,0.535440996144141,0.466636678007801,0.466636678007801,0.5,0.5,0.669612803745285,0.5,0.5,0.5,0.5,0.657992255756369,0.57250809977548,0.42749190022452,0.669612803745285,0.5,0.163784766923821,0.978678195159063,0.330387196254715,0.0220456288214921,0.5,0.0667266439843988,0.831919867900019,11.3820615858771,2.31815599371137,0.5,41.1316529529774
CBC_1007,CBC_1007_MSI_AV_v3_Vset2_Aset1_2023-06-21_15h59.48.192.csv,1,30,1,0,z,0,1,0,aud,A,63,0,1A,0A,1,0,z,1.40140400000018,0,1,1,0,0A,1A,A10,3.11351530921037,0.593559846807236,0.435499578524312,0.466636678007801,0.5,0.435499578524312,0.535440996144141,0.466636678007801,0.466636678007801,0.5,0.5,0.691658432566777,0.5,0.5,0.5,0.5,0.657992255756369,0.576798416297484,0.423201583702516,0.593559846807236,0.435499578524312,1.05099953343123,0.982974563314792,-0.593559846807236,-0.0396062565813407,0.5,0.0667266439843988,0.831919867900019,11.3820615858771,2.31815599371137,0.5,41.1316529529774
CBC_1007,CBC_1007_MSI_AV_v3_Vset2_Aset1_2023-06-21_15h59.48.192.csv,1,31,1,0,b,1,0,3,aud,B,63,1,1B,0B,1,0,b,2.32691349999914,1,0,1,1,1B,0B,B10,2.4423470353692,0.553953590225895,0.435499578524312,0.466636678007801,0.5,0.435499578524312,0.535440996144141,0.466636678007801,0.466636678007801,0.5,0.5,0.691658432566777,0.5,0.5,0.5,0.5,0.657992255756369,0.551466289609926,0.448533710390074,0.535440996144141,0.435499578524312,0.206347987451022,0.938052483023263,0.464559003855859,0.0309984632600368,0.5,0.0667266439843988,0.831919867900019,11.3820615858771,2.31815599371137,0.5,41.1316529529774
CBC_1007,CBC_1007_MSI_AV_v3_Vset2_Aset1_2023-06-21_15h59.48.192.csv,1,32,3,1,b,1,0,2,aud,D,27,1,3D,1D,1,0,b,1.18379920000007,1,0,1,1,3D,1D,D31,3.85014760171006,0.553953590225895,0.435499578524312,0.466636678007801,0.5,0.435499578524312,0.566439459404178,0.466636678007801,0.466636678007801,0.5,0.5,0.691658432566777,0.5,0.5,0.5,0.5,0.657992255756369,0.568218183226611,0.431781816773389,0.657992255756369,0.5,1.29910298874304,0.973361735281749,0.342007744243631,0.0228210289900521,0.5,0.0667266439843988,0.831919867900019,11.3820615858771,2.31815599371137,0.5,41.1316529529774
CBC_1007,CBC_1007_MSI_AV_v3_Vset2_Aset1_2023-06-21_15h59.48.192.csv,1,33,3,2,z,0,1,1,aud,C,63,1,3C,2C,0,1,z,1.52717080000184,0,1,1,1,2C,3C,C32,2.77258872223978,0.553953590225895,0.435499578524312,0.466636678007801,0.5,0.435499578524312,0.566439459404178,0.466636678007801,0.466636678007801,0.5,0.5,0.691658432566777,0.5,0.5,0.5,0.5,0.680813284746421,0.580416681210384,0.419583318789616,0.691658432566777,0.5,0.789195721324815,0.985859569088962,0.308341567433223,0.0205745979957082,0.5,0.0667266439843988,0.831919867900019,11.3820615858771,2.31815599371137,0.5,41.1316529529774
CBC_1007,CBC_1007_MSI_AV_v3_Vset2_Aset1_2023-06-21_15h59.48.192.csv,1,34,1,0,b,1,0,3,aud,B,63,1,1B,0B,1,0,z,1.65293300000121,0,1,0,0,0B,1B,B10,2.28238238567653,0.553953590225895,0.435499578524312,0.466636678007801,0.5,0.435499578524312,0.566439459404178,0.466636678007801,0.466636678007801,0.5,0.5,0.712233030562485,0.5,0.5,0.5,0.5,0.680813284746421,0.434656762575803,0.565343237424197,0.435499578524312,0.566439459404178,0.0196700851218638,0.0308722496948631,-0.435499578524312,-0.0290594253315475,0.5,0.0667266439843988,0.831919867900019,11.3820615858771,2.31815599371137,0.5,41.1316529529774
CBC_1007,CBC_1007_MSI_AV_v3_Vset2_Aset1_2023-06-21_15h59.48.192.csv,1,35,0,1,b,1,0,0,aud,A,63,1,0A,1A,1,0,b,1.66228700000102,1,0,1,1,0A,1A,A01,2.52572864430826,0.553953590225895,0.435499578524312,0.466636678007801,0.5,0.406440153192764,0.566439459404178,0.466636678007801,0.466636678007801,0.5,0.5,0.712233030562485,0.5,0.5,0.5,0.5,0.680813284746421,0.559858321466192,0.440141678533808,0.553953590225895,0.435499578524312,0.607990789865108,0.959241863950412,0.446046409774105,0.0297631799855159,0.5,0.0667266439843988,0.831919867900019,11.3820615858771,2.31815599371137,0.5,41.1316529529774
CBC_1007,CBC_1007_MSI_AV_v3_Vset2_Aset1_2023-06-21_15h59.48.192.csv,1,36,1,2,z,0,1,1,aud,C,9,1,1C,2C,0,1,z,1.73870859999988,0,1,1,1,2C,1C,C12,3.93182563272433,0.583716770211411,0.435499578524312,0.466636678007801,0.5,0.406440153192764,0.566439459404178,0.466636678007801,0.466636678007801,0.5,0.5,0.712233030562485,0.5,0.5,0.5,0.5,0.680813284746421,0.587538049703202,0.412461950296797,0.712233030562485,0.5,0.421621100250231,0.990224202638489,0.287766969437515,0.0192017241201264,0.5,0.0667266439843988,0.831919867900019,11.3820615858771,2.31815599371137,0.5,41.1316529529774
CBC_1007,CBC_1007_MSI_AV_v3_Vset2_Aset1_2023-06-21_15h59.48.192.csv,1,37,1,0,z,0,1,0,aud,A,63,1,1A,0A,0,1,z,1.44983950000096,0,1,1,1,0A,1A,A10,2.85263142991332,0.583716770211411,0.435499578524312,0.466636678007801,0.5,0.406440153192764,0.566439459404178,0.466636678007801,0.466636678007801,0.5,0.5,0.731434754682612,0.5,0.5,0.5,0.5,0.680813284746421,0.572711349200272,0.427288650799727,0.583716770211411,0.435499578524312,0.937290790697429,0.978893528978526,0.416283229788589,0.0277771828707788,0.5,0.0667266439843988,0.831919867900019,11.3820615858771,2.31815599371137,0.5,41.1316529529774
CBC_1007,CBC_1007_MSI_AV_v3_Vset2_Aset1_2023-06-21_15h59.48.192.csv,1,38,3,1,b,1,0,2,aud,D,27,1,3D,1D,1,0,b,1.0958456999997,1,0,1,1,3D,1D,D31,3.27714473299218,0.61149395308219,0.435499578524312,0.466636678007801,0.5,0.406440153192764,0.566439459404178,0.466636678007801,0.466636678007801,0.5,0.5,0.731434754682612,0.5,0.5,0.5,0.5,0.680813284746421,0.576563029516242,0.423436970483758,0.680813284746421,0.5,1.35034078991726,0.982678181113104,0.319186715253579,0.0212982583132752,0.5,0.0667266439843988,0.831919867900019,11.3820615858771,2.31815599371137,0.5,41.1316529529774
CBC_1007,CBC_1007_MSI_AV_v3_Vset2_Aset1_2023-06-21_15h59.48.192.csv,1,39,0,1,z,0,1,3,aud,B,63,1,0B,1B,0,1,z,1.69739569999911,0,1,1,1,1B,0B,B01,3.29583686600433,0.61149395308219,0.435499578524312,0.466636678007801,0.5,0.406440153192764,0.566439459404178,0.466636678007801,0.466636678007801,0.5,0.5,0.731434754682612,0.5,0.5,0.5,0.5,0.702111543059696,0.582229755942938,0.417770244057062,0.566439459404178,0.406440153192764,0.504956811803324,0.987113521113881,0.433560540595822,0.0289300398380209,0.5,0.0667266439843988,0.831919867900019,11.3820615858771,2.31815599371137,0.5,41.1316529529774
CBC_1007,CBC_1007_MSI_AV_v3_Vset2_Aset1_2023-06-21_15h59.48.192.csv,1,40,2,3,b,1,0,1,aud,C,63,0,2C,3C,0,1,b,1.71795400000155,1,0,1,0,2C,3C,C23,2.90872089656436,0.61149395308219,0.435499578524312,0.466636678007801,0.5,0.406440153192764,0.595369499242199,0.466636678007801,0.466636678007801,0.5,0.5,0.731434754682612,0.5,0.5,0.5,0.5,0.702111543059696,0.593969556163071,0.406030443836929,0.731434754682612,0.5,0.405559895452078,0.99302296269756,-0.731434754682612,-0.0488061864735227,0.5,0.0667266439843988,0.831919867900019,11.3820615858771,2.31815599371137,0.5,41.1316529529774
CBC_1007,CBC_1007_MSI_AV_v3_Vset2_Aset1_2023-06-21_15h59.48.192.csv,1,41,2,0,z,0,1,0,aud,A,27,1,2A,0A,0,1,z,2.24971390000064,0,1,1,1,0A,2A,A20,3.3322045101752,0.61149395308219,0.435499578524312,0.466636678007801,0.5,0.406440153192764,0.595369499242199,0.466636678007801,0.466636678007801,0.5,0.5,0.682628568209089,0.5,0.5,0.5,0.5,0.702111543059696,0.567179834658783,0.432820165341217,0.61149395308219,0.466636678007801,0.17845072889726,0.971896589010944,0.38850604691781,0.0259237046784708,0.5,0.0667266439843988,0.831919867900019,11.3820615858771,2.31815599371137,0.5,41.1316529529774
CBC_1007,CBC_1007_MSI_AV_v3_Vset2_Aset1_2023-06-21_15h59.48.192.csv,1,42,3,2,b,1,0,2,aud,D,63,1,3D,2D,1,0,b,0.987982900000134,1,0,1,1,3D,2D,D32,4.04305126783455,0.637417657760661,0.435499578524312,0.466636678007801,0.5,0.406440153192764,0.595369499242199,0.466636678007801,0.466636678007801,0.5,0.5,0.682628568209089,0.5,0.5,0.5,0.5,0.702111543059696,0.584065220164706,0.415934779835294,0.702111543059696,0.5,0.699820618398437,0.988298692118581,0.297888456940304,0.0198770970133175,0.5,0.0667266439843988,0.831919867900019,11.3820615858771,2.31815599371137,0.5,41.1316529529774
CBC_1007,CBC_1007_MSI_AV_v3_Vset2_Aset1_2023-06-21_15h59.48.192.csv,1,43,3,1,z,0,1,3,aud,B,27,1,3B,1B,0,1,z,1.40980610000042,0,1,1,1,1B,3B,B31,3.36729582998647,0.637417657760661,0.435499578524312,0.466636678007801,0.5,0.406440153192764,0.595369499242199,0.466636678007801,0.466636678007801,0.5,0.5,0.682628568209089,0.5,0.5,0.5,0.5,0.721988640073014,0.560608320362008,0.439391679637992,0.595369499242199,0.466636678007801,0.939562694544098,0.960752515351541,0.404630500757801,0.0269996353692948,0.5,0.0667266439843988,0.831919867900019,11.3820615858771,2.31815599371137,0.5,41.1316529529774
CBC_1007,CBC_1007_MSI_AV_v3_Vset2_Aset1_2023-06-21_15h59.48.192.csv,1,44,2,3,b,1,0,1,aud,C,63,1,2C,3C,1,0,b,1.42296840000199,1,0,1,1,2C,3C,C23,2.69124308278583,0.637417657760661,0.435499578524312,0.466636678007801,0.5,0.406440153192764,0.622369134611494,0.466636678007801,0.466636678007801,0.5,0.5,0.682628568209089,0.5,0.5,0.5,0.5,0.721988640073014,0.577212986866051,0.42278701313395,0.682628568209089,0.5,1.00490953289833,0.983280412286646,0.317371431790911,0.021177130539931,0.5,0.0667266439843988,0.831919867900019,11.3820615858771,2.31815599371137,0.5,41.1316529529774
CBC_1007,CBC_1007_MSI_TV_v3_Vset5_Tset1_2023-06-21_16h08.10.582.csv,2,1,1,0,b,1,0,3,tac,B,63,1,1B,0B,1,0,b,1.9304147999992,1,0,1,1,1B,0B,B10,2.77258872223978,0.5,0.5,0.5,0.5,0.5,0.5,0.5,0.5,0.5,0.5,0.5,0.5,0.5,0.5,0.5,0.5,0.5,0.5,0.5,0.5,0.201771563866552,0.49961230334253,0.5,0.156070403186446,0.5,0.312140806372893,0.903306670939159,2.60212796759937,2.8657044327679,0.5,64.2027845136637
CBC_1007,CBC_1007_MSI_TV_v3_Vset5_Tset1_2023-06-21_16h08.10.582.csv,2,2,3,2,b,1,0,2,tac,D,63,1,3D,2D,1,0,b,2.32277090000025,1,0,1,1,3D,2D,D32,2.83321334405622,0.5,0.5,0.5,0.5,0.5,0.656070403186446,0.5,0.5,0.5,0.5,0.5,0.5,0.5,0.5,0.5,0.5,0.5,0.5,0.5,0.5,0.16243109212023,0.49981542503292,0.5,0.156070403186446,0.5,0.312140806372893,0.903306670939159,2.60212796759937,2.8657044327679,0.5,64.2027845136637
CBC_1007,CBC_1007_MSI_TV_v3_Vset5_Tset1_2023-06-21_16h08.10.582.csv,2,3,3,1,z,0,1,3,tac,B,27,1,3B,1B,0,1,z,2.27965330000006,0,1,1,1,1B,3B,B31,2.89037175789616,0.5,0.5,0.5,0.5,0.5,0.656070403186446,0.5,0.5,0.5,0.5,0.5,0.5,0.5,0.5,0.5,0.656070403186446,0.56750038871174,0.43249961128826,0.656070403186446,0.5,0.252950469150244,0.731776422583136,0.343929596813554,0.107354461684887,0.5,0.312140806372893,0.903306670939159,2.60212796759937,2.8657044327679,0.5,64.2027845136637
CBC_1007,CBC_1007_MSI_TV_v3_Vset5_Tset1_2023-06-21_16h08.10.582.csv,2,4,2,3,b,1,0,1,tac,C,63,1,2C,3C,1,0,z,2.61729469999955,0,1,0,0,3C,2C,C23,2.94443897916644,0.5,0.5,0.5,0.5,0.5,0.763424864871333,0.5,0.5,0.5,0.5,0.5,0.5,0.5,0.5,0.5,0.656070403186446,0.5,0.5,0.5,0.5,0.136491704003531,0.500073028877019,-0.5,-0.156070403186446,0.5,0.312140806372893,0.903306670939159,2.60212796759937,2.8657044327679,0.5,64.2027845136637
CBC_1007,CBC_1007_MSI_TV_v3_Vset5_Tset1_2023-06-21_16h08.10.582.csv,2,5,0,2,z,0,1,1,tac,C,27,1,0C,2C,0,1,z,2.80312450000019,0,1,1,1,2C,0C,C02,2.99573227355399,0.5,0.5,0.5,0.5,0.5,0.763424864871333,0.5,0.5,0.5,0.5,0.5,0.343929596813554,0.5,0.5,0.5,0.656070403186446,0.5,0.5,0.5,0.5,0.122489382603556,0.501554640450174,0.5,0.156070403186446,0.5,0.312140806372893,0.903306670939159,2.60212796759937,2.8657044327679,0.5,64.2027845136637
CBC_1007,CBC_1007_MSI_TV_v3_Vset5_Tset1_2023-06-21_16h08.10.582.csv,2,6,0,3,b,1,0,0,tac,A,9,1,0A,3A,1,0,b,1.4679443999994,1,0,1,1,0A,3A,A03,3.04452243772342,0.5,0.5,0.5,0.5,0.5,0.763424864871333,0.5,0.5,0.5,0.5,0.656070403186446,0.343929596813554,0.5,0.5,0.5,0.656070403186446,0.5,0.5,0.5,0.5,0.217933554323828,0.498195552906939,0.5,0.156070403186446,0.5,0.312140806372893,0.903306670939159,2.60212796759937,2.8657044327679,0.5,64.2027845136637
CBC_1007,CBC_1007_MSI_TV_v3_Vset5_Tset1_2023-06-21_16h08.10.582.csv,2,7,2,3,b,1,0,1,tac,C,63,1,2C,3C,1,0,b,3.32831929999884,1,0,1,1,2C,3C,C23,2.39789527279837,0.656070403186446,0.5,0.5,0.5,0.5,0.763424864871333,0.5,0.5,0.5,0.5,0.656070403186446,0.343929596813554,0.5,0.5,0.5,0.656070403186446,0.656070403186446,0.343929596813554,0.656070403186446,0.343929596813554,0.128229613314525,0.911006498944437,0.343929596813554,0.107354461684887,0.5,0.312140806372893,0.903306670939159,2.60212796759937,2.8657044327679,0.5,64.2027845136637
CBC_1007,CBC_1007_MSI_TV_v3_Vset5_Tset1_2023-06-21_16h08.10.582.csv,2,8,1,0,z,0,1,0,tac,A,63,1,1A,0A,0,1,z,1.5676465000015,0,1,1,1,0A,1A,A10,3.13549421592915,0.656070403186446,0.5,0.5,0.5,0.5,0.763424864871333,0.5,0.5,0.5,0.5,0.763424864871333,0.343929596813554,0.5,0.5,0.5,0.656070403186446,0.56750038871174,0.43249961128826,0.656070403186446,0.5,0.357509871415629,0.732413140495189,0.343929596813554,0.107354461684887,0.5,0.312140806372893,0.903306670939159,2.60212796759937,2.8657044327679,0.5,64.2027845136637
CBC_1007,CBC_1007_MSI_TV_v3_Vset5_Tset1_2023-06-21_16h08.10.582.csv,2,9,2,3,z,0,1,2,tac,D,63,1,2D,3D,0,1,b,2.34338740000021,1,0,0,0,2D,3D,D23,3.17805383034795,0.763424864871333,0.5,0.5,0.5,0.5,0.763424864871333,0.5,0.5,0.5,0.5,0.763424864871333,0.343929596813554,0.5,0.5,0.5,0.656070403186446,0.43249961128826,0.56750038871174,0.5,0.656070403186446,0.0888406772025634,0.267773619373238,-0.5,-0.156070403186446,0.5,0.312140806372893,0.903306670939159,2.60212796759937,2.8657044327679,0.5,64.2027845136637
CBC_1007,CBC_1007_MSI_TV_v3_Vset5_Tset1_2023-06-21_16h08.10.582.csv,2,10,3,2,z,0,1,1,tac,C,63,1,3C,2C,0,1,z,2.82642490000035,0,1,1,1,2C,3C,C32,3.2188758248682,0.763424864871333,0.5,0.5,0.5,0.5,0.763424864871333,0.5,0.5,0.5,0.5,0.763424864871333,0.343929596813554,0.5,0.5,0.343929596813554,0.656070403186446,0.689413273966269,0.310586726033731,0.763424864871333,0.343929596813554,0.194247360032147,0.943973600089923,0.236575135128667,0.0738447534468382,0.5,0.312140806372893,0.903306670939159,2.60212796759937,2.8657044327679,0.5,64.2027845136637
CBC_1007,CBC_1007_MSI_TV_v3_Vset5_Tset1_2023-06-21_16h08.10.582.csv,2,11,3,1,b,1,0,2,tac,D,27,1,3D,1D,1,0,b,2.46974649999902,1,0,1,1,3D,1D,D31,3.25809653802148,0.763424864871333,0.5,0.5,0.5,0.5,0.763424864871333,0.5,0.5,0.5,0.5,0.837269618318171,0.343929596813554,0.5,0.5,0.343929596813554,0.656070403186446,0.56750038871174,0.43249961128826,0.656070403186446,0.5,0.223719682169503,0.732206103034962,0.343929596813554,0.107354461684887,0.5,0.312140806372893,0.903306670939159,2.60212796759937,2.8657044327679,0.5,64.2027845136637
CBC_1007,CBC_1007_MSI_TV_v3_Vset5_Tset1_2023-06-21_16h08.10.582.csv,2,12,0,1,b,1,0,0,tac,A,63,0,0A,1A,0,1,b,1.11930349999966,1,0,1,0,0A,1A,A01,3.29583686600433,0.763424864871333,0.5,0.5,0.5,0.5,0.763424864871333,0.5,0.5,0.5,0.5,0.837269618318171,0.343929596813554,0.5,0.5,0.343929596813554,0.763424864871333,0.604250308900704,0.395749691099296,0.763424864871333,0.5,0.103649246867411,0.825831172904814,-0.763424864871333,-0.238296052926055,0.5,0.312140806372893,0.903306670939159,2.60212796759937,2.8657044327679,0.5,64.2027845136637
CBC_1007,CBC_1007_MSI_TV_v3_Vset5_Tset1_2023-06-21_16h08.10.582.csv,2,13,3,2,z,0,1,1,tac,C,63,1,3C,2C,0,1,z,2.6729336999997,0,1,1,1,2C,3C,C32,2.63905732961526,0.525128811945278,0.5,0.5,0.5,0.5,0.763424864871333,0.5,0.5,0.5,0.5,0.837269618318171,0.343929596813554,0.5,0.5,0.343929596813554,0.763424864871333,0.708830151249974,0.291169848750026,0.837269618318171,0.343929596813554,0.22027120615332,0.957520580179059,0.162730381681829,0.0507947925595347,0.5,0.312140806372893,0.903306670939159,2.60212796759937,2.8657044327679,0.5,64.2027845136637
CBC_1007,CBC_1007_MSI_TV_v3_Vset5_Tset1_2023-06-21_16h08.10.582.csv,2,14,2,0,z,0,1,0,tac,A,27,1,2A,0A,0,1,z,1.45980270000109,0,1,1,1,0A,2A,A20,3.36729582998647,0.525128811945278,0.5,0.5,0.5,0.5,0.763424864871333,0.5,0.5,0.5,0.5,0.888064410877706,0.343929596813554,0.5,0.5,0.343929596813554,0.763424864871333,0.512256416780245,0.487743583219755,0.525128811945278,0.5,0.238220216607288,0.545541893758574,0.474871188054722,0.148226675562654,0.5,0.312140806372893,0.903306670939159,2.60212796759937,2.8657044327679,0.5,64.2027845136637
CBC_1007,CBC_1007_MSI_TV_v3_Vset5_Tset1_2023-06-21_16h08.10.582.csv,2,15,1,0,b,1,0,3,tac,B,63,1,1B,0B,1,0,b,2.8562482999987,1,0,1,1,1B,0B,B10,2.70805020110221,0.673355487507933,0.5,0.5,0.5,0.5,0.763424864871333,0.5,0.5,0.5,0.5,0.888064410877706,0.343929596813554,0.5,0.5,0.343929596813554,0.763424864871333,0.604250308900704,0.395749691099296,0.763424864871333,0.5,0.193116369865918,0.82589552141229,0.236575135128667,0.0738447534468382,0.5,0.312140806372893,0.903306670939159,2.60212796759937,2.8657044327679,0.5,64.2027845136637
CBC_1007,CBC_1007_MSI_TV_v3_Vset5_Tset1_2023-06-21_16h08.10.582.csv,2,16,2,3,z,0,1,2,tac,D,63,1,2D,3D,0,1,z,2.28313389999857,0,1,1,1,3D,2D,D23,2.7408400239252,0.673355487507933,0.5,0.5,0.5,0.5,0.837269618318171,0.5,0.5,0.5,0.5,0.888064410877706,0.343929596813554,0.5,0.5,0.343929596813554,0.763424864871333,0.689413273966269,0.310586726033731,0.763424864871333,0.343929596813554,0.349277515453365,0.944152196094985,0.236575135128667,0.0738447534468382,0.5,0.312140806372893,0.903306670939159,2.60212796759937,2.8657044327679,0.5,64.2027845136637
CBC_1007,CBC_1007_MSI_TV_v3_Vset5_Tset1_2023-06-21_16h08.10.582.csv,2,17,2,1,z,0,1,3,tac,B,9,1,2B,1B,0,1,z,3.7552745999983,0,1,1,1,1B,2B,B21,3.46573590279973,0.673355487507933,0.5,0.5,0.5,0.5,0.837269618318171,0.5,0.5,0.5,0.5,0.888064410877706,0.343929596813554,0.5,0.5,0.343929596813554,0.837269618318171,0.62610382143518,0.37389617856482,0.837269618318171,0.5,0.0955467322354246,0.867427021160637,0.162730381681829,0.0507947925595347,0.5,0.312140806372893,0.903306670939159,2.60212796759937,2.8657044327679,0.5,64.2027845136637
CBC_1007,CBC_1007_MSI_TV_v3_Vset5_Tset1_2023-06-21_16h08.10.582.csv,2,18,3,1,b,1,0,2,tac,D,27,1,3D,1D,1,0,b,2.19291499999963,1,0,1,1,3D,1D,D31,2.80336038090653,0.673355487507933,0.5,0.5,0.5,0.5,0.888064410877706,0.5,0.5,0.5,0.5,0.888064410877706,0.343929596813554,0.5,0.5,0.343929596813554,0.837269618318171,0.62610382143518,0.37389617856482,0.837269618318171,0.5,0.339859674419369,0.867741035758699,0.162730381681829,0.0507947925595347,0.5,0.312140806372893,0.903306670939159,2.60212796759937,2.8657044327679,0.5,64.2027845136637
CBC_1007,CBC_1007_MSI_TV_v3_Vset5_Tset1_2023-06-21_16h08.10.582.csv,2,19,1,0,z,0,1,0,tac,A,63,1,1A,0A,0,1,z,1.25046350000048,0,1,1,1,0A,1A,A10,2.83321334405622,0.673355487507933,0.5,0.5,0.5,0.5,0.888064410877706,0.5,0.5,0.5,0.5,0.888064410877706,0.343929596813554,0.5,0.5,0.343929596813554,0.888064410877706,0.573871682262346,0.426128317737654,0.673355487507933,0.5,0.245877162159423,0.751055449916639,0.326644512492067,0.101959081526554,0.5,0.312140806372893,0.903306670939159,2.60212796759937,2.8657044327679,0.5,64.2027845136637
CBC_1007,CBC_1007_MSI_TV_v3_Vset5_Tset1_2023-06-21_16h08.10.582.csv,2,20,0,1,b,1,0,0,tac,A,63,1,0A,1A,1,0,b,1.16299900000013,1,0,1,1,0A,1A,A01,2.86220088092947,0.775314569034487,0.5,0.5,0.5,0.5,0.888064410877706,0.5,0.5,0.5,0.5,0.888064410877706,0.343929596813554,0.5,0.5,0.343929596813554,0.888064410877706,0.607939866649105,0.392060133350895,0.775314569034487,0.5,0.177834052027079,0.833054147123685,0.224685430965513,0.0701334916018161,0.5,0.312140806372893,0.903306670939159,2.60212796759937,2.8657044327679,0.5,64.2027845136637
CBC_1007,CBC_1007_MSI_TV_v3_Vset5_Tset1_2023-06-21_16h08.10.582.csv,2,21,0,2,z,0,1,1,tac,C,27,1,0C,2C,0,1,z,2.35411759999988,0,1,1,1,2C,0C,C02,2.89037175789616,0.845448060636303,0.5,0.5,0.5,0.5,0.888064410877706,0.5,0.5,0.5,0.5,0.888064410877706,0.343929596813554,0.5,0.5,0.343929596813554,0.888064410877706,0.639786168363874,0.360213831636126,0.888064410877706,0.5,0.308037320978661,0.889045381397366,0.111935589122294,0.0349396650504577,0.5,0.312140806372893,0.903306670939159,2.60212796759937,2.8657044327679,0.5,64.2027845136637
CBC_1007,CBC_1007_MSI_TV_v3_Vset5_Tset1_2023-06-21_16h08.10.582.csv,2,22,1,0,b,1,0,3,tac,B,63,1,1B,0B,1,0,b,2.45332170000074,1,0,1,1,1B,0B,B10,2.51230562397611,0.845448060636303,0.5,0.5,0.5,0.5,0.888064410877706,0.5,0.5,0.5,0.5,0.923004075928164,0.343929596813554,0.5,0.5,0.343929596813554,0.888064410877706,0.639786168363874,0.360213831636126,0.888064410877706,0.5,0.283042992488548,0.889119546586375,0.111935589122294,0.0349396650504577,0.5,0.312140806372893,0.903306670939159,2.60212796759937,2.8657044327679,0.5,64.2027845136637
CBC_1007,CBC_1007_MSI_TV_v3_Vset5_Tset1_2023-06-21_16h08.10.582.csv,2,23,0,2,z,0,1,1,tac,C,27,1,0C,2C,0,1,z,2.32233039999846,0,1,1,1,2C,0C,C02,2.53897387105828,0.845448060636303,0.5,0.5,0.5,0.5,0.923004075928164,0.5,0.5,0.5,0.5,0.923004075928164,0.343929596813554,0.5,0.5,0.343929596813554,0.888064410877706,0.648630662091483,0.351369337908517,0.923004075928164,0.5,0.321813283943532,0.901189590577581,0.0769959240718364,0.024033569827209,0.5,0.312140806372893,0.903306670939159,2.60212796759937,2.8657044327679,0.5,64.2027845136637
CBC_1007,CBC_1007_MSI_TV_v3_Vset5_Tset1_2023-06-21_16h08.10.582.csv,2,24,2,3,z,0,1,2,tac,D,63,1,2D,3D,0,1,z,2.23030269999981,0,1,1,1,3D,2D,D23,2.56494935746154,0.845448060636303,0.5,0.5,0.5,0.5,0.923004075928164,0.5,0.5,0.5,0.5,0.947037645755373,0.343929596813554,0.5,0.5,0.343929596813554,0.888064410877706,0.720835008395801,0.279164991604199,0.888064410877706,0.343929596813554,0.370428325453264,0.964273743942169,0.111935589122294,0.0349396650504577,0.5,0.312140806372893,0.903306670939159,2.60212796759937,2.8657044327679,0.5,64.2027845136637
CBC_1007,CBC_1007_MSI_TV_v3_Vset5_Tset1_2023-06-21_16h08.10.582.csv,2,25,0,1,b,1,0,0,tac,A,63,1,0A,1A,1,0,b,1.71789379999973,1,0,1,1,0A,1A,A01,2.59026716544583,0.845448060636303,0.5,0.5,0.5,0.5,0.923004075928164,0.5,0.5,0.5,0.5,0.947037645755373,0.343929596813554,0.5,0.5,0.343929596813554,0.923004075928164,0.628376587228841,0.371623412771159,0.845448060636303,0.5,0.479040785584397,0.871718191736933,0.154551939363697,0.0482419669794787,0.5,0.312140806372893,0.903306670939159,2.60212796759937,2.8657044327679,0.5,64.2027845136637
CBC_1007,CBC_1007_MSI_TV_v3_Vset5_Tset1_2023-06-21_16h08.10.582.csv,2,26,2,3,b,1,0,1,tac,C,63,1,2C,3C,1,0,b,2.45411289999902,1,0,1,1,2C,3C,C23,2.6149597780362,0.893690027615782,0.5,0.5,0.5,0.5,0.923004075928164,0.5,0.5,0.5,0.5,0.947037645755373,0.343929596813554,0.5,0.5,0.343929596813554,0.923004075928164,0.733587665532737,0.266412334467263,0.947037645755373,0.343929596813554,0.272669559711675,0.970387890550151,0.0529623542446274,0.0165317119613248,0.5,0.312140806372893,0.903306670939159,2.60212796759937,2.8657044327679,0.5,64.2027845136637
CBC_1007,CBC_1007_MSI_TV_v3_Vset5_Tset1_2023-06-21_16h08.10.582.csv,2,27,0,2,b,1,0,0,tac,A,27,1,0A,2A,1,0,b,1.33100589999958,1,0,1,1,0A,2A,A02,3.73766961828337,0.893690027615782,0.5,0.5,0.5,0.5,0.923004075928164,0.5,0.5,0.5,0.5,0.963569357716697,0.343929596813554,0.5,0.5,0.343929596813554,0.923004075928164,0.641240168120194,0.358759831879806,0.893690027615782,0.5,0.473012047624127,0.891300700679857,0.106309972384218,0.0331836805054898,0.5,0.312140806372893,0.903306670939159,2.60212796759937,2.8657044327679,0.5,64.2027845136637
CBC_1007,CBC_1007_MSI_TV_v3_Vset5_Tset1_2023-06-21_16h08.10.582.csv,2,28,2,3,z,0,1,2,tac,D,63,1,2D,3D,0,1,z,2.27456990000064,0,1,1,1,3D,2D,D23,2.37490575457367,0.926873708121272,0.5,0.5,0.5,0.5,0.923004075928164,0.5,0.5,0.5,0.5,0.963569357716697,0.343929596813554,0.5,0.5,0.343929596813554,0.923004075928164,0.728533857601819,0.271466142398181,0.923004075928164,0.343929596813554,0.348397775557229,0.967822994656833,0.0769959240718364,0.024033569827209,0.5,0.312140806372893,0.903306670939159,2.60212796759937,2.8657044327679,0.5,64.2027845136637
CBC_1007,CBC_1007_MSI_TV_v3_Vset5_Tset1_2023-06-21_16h08.10.582.csv,2,29,2,3,z,0,1,2,tac,D,63,1,2D,3D,0,1,z,2.10770809999849,0,1,1,1,3D,2D,D23,2.17475172148416,0.926873708121272,0.5,0.5,0.5,0.5,0.923004075928164,0.5,0.5,0.5,0.5,0.963569357716697,0.343929596813554,0.5,0.5,0.343929596813554,0.947037645755373,0.733587665532737,0.266412334467263,0.947037645755373,0.343929596813554,0.430883932465437,0.970165131651839,0.0529623542446274,0.0165317119613248,0.5,0.312140806372893,0.903306670939159,2.60212796759937,2.8657044327679,0.5,64.2027845136637
CBC_1007,CBC_1007_MSI_TV_v3_Vset5_Tset1_2023-06-21_16h08.10.582.csv,2,30,1,3,b,1,0,3,tac,B,27,1,1B,3B,1,0,b,2.41728309999962,1,0,1,1,1B,3B,B13,3.80666248977032,0.926873708121272,0.5,0.5,0.5,0.5,0.923004075928164,0.5,0.5,0.5,0.5,0.963569357716697,0.343929596813554,0.5,0.5,0.343929596813554,0.963569357716697,0.648630662091483,0.351369337908517,0.923004075928164,0.5,0.296058973165594,0.90185905468153,0.0769959240718364,0.024033569827209,0.5,0.312140806372893,0.903306670939159,2.60212796759937,2.8657044327679,0.5,64.2027845136637
CBC_1007,CBC_1007_MSI_TV_v3_Vset5_Tset1_2023-06-21_16h08.10.582.csv,2,31,3,0,b,1,0,2,tac,D,9,1,3D,0D,1,0,b,2.39995979999912,1,0,1,1,3D,0D,D30,3.8286413964891,0.926873708121272,0.5,0.5,0.5,0.5,0.947037645755373,0.5,0.5,0.5,0.5,0.963569357716697,0.343929596813554,0.5,0.5,0.343929596813554,0.963569357716697,0.658369453170265,0.341630546829735,0.963569357716697,0.5,0.304249238421352,0.913852573666291,0.0364306422833026,0.0113714900589925,0.5,0.312140806372893,0.903306670939159,2.60212796759937,2.8657044327679,0.5,64.2027845136637
CBC_1007,CBC_1007_MSI_TV_v3_Vset5_Tset1_2023-06-21_16h08.10.582.csv,2,32,0,1,z,0,1,3,tac,B,63,1,0B,1B,0,1,z,2.39064770000005,0,1,1,1,1B,0B,B01,3.85014760171006,0.926873708121272,0.5,0.5,0.5,0.5,0.947037645755373,0.5,0.5,0.5,0.5,0.963569357716697,0.343929596813554,0.5,0.5,0.343929596813554,0.97494084777569,0.654466487816222,0.345533512183778,0.947037645755373,0.5,0.305561409378973,0.909321485213451,0.0529623542446274,0.0165317119613248,0.5,0.312140806372893,0.903306670939159,2.60212796759937,2.8657044327679,0.5,64.2027845136637
CBC_1007,CBC_1007_MSI_TV_v3_Vset5_Tset1_2023-06-21_16h08.10.582.csv,2,33,0,1,b,1,0,0,tac,A,63,1,0A,1A,1,0,b,1.45166550000067,1,0,1,1,0A,1A,A01,2.484906649788,0.926873708121272,0.5,0.5,0.5,0.5,0.963569357716697,0.5,0.5,0.5,0.5,0.963569357716697,0.343929596813554,0.5,0.5,0.343929596813554,0.97494084777569,0.649583563594891,0.350416436405109,0.926873708121272,0.5,0.559598156558903,0.903044956000076,0.0731262918787282,0.0228256997140857,0.5,0.312140806372893,0.903306670939159,2.60212796759937,2.8657044327679,0.5,64.2027845136637
CBC_1007,CBC_1007_MSI_TV_v3_Vset5_Tset1_2023-06-21_16h08.10.582.csv,2,34,0,1,z,0,1,3,tac,B,63,1,0B,1B,0,1,z,3.16768039999988,0,1,1,1,1B,0B,B01,3.19867311755068,0.949699407835358,0.5,0.5,0.5,0.5,0.963569357716697,0.5,0.5,0.5,0.5,0.963569357716697,0.343929596813554,0.5,0.5,0.343929596813554,0.97494084777569,0.658369453170265,0.341630546829735,0.963569357716697,0.5,0.148170076925542,0.913677406339427,0.0364306422833026,0.0113714900589925,0.5,0.312140806372893,0.903306670939159,2.60212796759937,2.8657044327679,0.5,64.2027845136637
CBC_1007,CBC_1007_MSI_TV_v3_Vset5_Tset1_2023-06-21_16h08.10.582.csv,2,35,2,3,b,1,0,1,tac,C,63,1,2C,3C,1,0,b,2.68631269999969,1,0,1,1,2C,3C,C23,2.52572864430826,0.949699407835358,0.5,0.5,0.5,0.5,0.97494084777569,0.5,0.5,0.5,0.5,0.963569357716697,0.343929596813554,0.5,0.5,0.343929596813554,0.97494084777569,0.736956120980519,0.263043879019481,0.963569357716697,0.343929596813554,0.197466098669094,0.971692245034601,0.0364306422833026,0.0113714900589925,0.5,0.312140806372893,0.903306670939159,2.60212796759937,2.8657044327679,0.5,64.2027845136637
CBC_1007,CBC_1007_MSI_TV_v3_Vset5_Tset1_2023-06-21_16h08.10.582.csv,2,36,2,0,z,0,1,0,tac,A,27,1,2A,0A,0,1,z,1.59397660000104,0,1,1,1,0A,2A,A20,3.23867845216438,0.949699407835358,0.5,0.5,0.5,0.5,0.97494084777569,0.5,0.5,0.5,0.5,0.97494084777569,0.343929596813554,0.5,0.5,0.343929596813554,0.97494084777569,0.655100914508489,0.344899085491511,0.949699407835358,0.5,0.572429050015687,0.910227667517145,0.0503005921646424,0.0157008673993055,0.5,0.312140806372893,0.903306670939159,2.60212796759937,2.8657044327679,0.5,64.2027845136637
CBC_1007,CBC_1007_MSI_TV_v3_Vset5_Tset1_2023-06-21_16h08.10.582.csv,2,37,0,1,z,0,1,3,tac,B,63,1,0B,1B,0,1,z,2.4108995000006,0,1,1,1,1B,0B,B01,2.85263142991332,0.965400275234663,0.5,0.5,0.5,0.5,0.97494084777569,0.5,0.5,0.5,0.5,0.97494084777569,0.343929596813554,0.5,0.5,0.343929596813554,0.97494084777569,0.66100335430127,0.33899664569873,0.97494084777569,0.5,0.301818270562572,0.916488320705131,0.0250591522243101,0.00782198398231722,0.5,0.312140806372893,0.903306670939159,2.60212796759937,2.8657044327679,0.5,64.2027845136637
CBC_1007,CBC_1007_MSI_TV_v3_Vset5_Tset1_2023-06-21_16h08.10.582.csv,2,38,1,3,b,1,0,3,tac,B,27,1,1B,3B,1,0,b,2.31569940000009,1,0,1,1,1B,3B,B13,3.27714473299218,0.965400275234663,0.5,0.5,0.5,0.5,0.982762831758007,0.5,0.5,0.5,0.5,0.97494084777569,0.343929596813554,0.5,0.5,0.343929596813554,0.97494084777569,0.66279165535382,0.33720834464618,0.982762831758007,0.5,0.330905452382298,0.918953585801931,0.0172371682419928,0.00538042359464086,0.5,0.312140806372893,0.903306670939159,2.60212796759937,2.8657044327679,0.5,64.2027845136637
CBC_1007,CBC_1007_MSI_TV_v3_Vset5_Tset1_2023-06-21_16h08.10.582.csv,2,39,2,3,b,1,0,1,tac,C,63,1,2C,3C,1,0,b,2.6873470999999,1,0,1,1,2C,3C,C23,2.37954613413017,0.965400275234663,0.5,0.5,0.5,0.5,0.988143255352648,0.5,0.5,0.5,0.5,0.97494084777569,0.343929596813554,0.5,0.5,0.343929596813554,0.97494084777569,0.739224123017884,0.260775876982116,0.97494084777569,0.343929596813554,0.195375662127564,0.972612047943602,0.0250591522243101,0.00782198398231722,0.5,0.312140806372893,0.903306670939159,2.60212796759937,2.8657044327679,0.5,64.2027845136637
CBC_1007,CBC_1007_MSI_TV_v3_Vset5_Tset1_2023-06-21_16h08.10.582.csv,2,40,1,3,z,0,1,2,tac,D,27,1,1D,3D,0,1,z,2.27222960000108,0,1,1,1,3D,1D,D13,4.00733318523247,0.965400275234663,0.5,0.5,0.5,0.5,0.988143255352648,0.5,0.5,0.5,0.5,0.982762831758007,0.343929596813554,0.5,0.5,0.343929596813554,0.97494084777569,0.66100335430127,0.33899664569873,0.97494084777569,0.5,0.343952505567927,0.917198295964656,0.0250591522243101,0.00782198398231722,0.5,0.312140806372893,0.903306670939159,2.60212796759937,2.8657044327679,0.5,64.2027845136637
CBC_1007,CBC_1007_MSI_TV_v3_Vset5_Tset1_2023-06-21_16h08.10.582.csv,2,41,2,1,b,1,0,1,tac,C,9,1,2C,1C,1,0,z,3.89634430000115,0,1,0,0,1C,2C,C21,4.02535169073515,0.965400275234663,0.5,0.5,0.5,0.5,0.988143255352648,0.5,0.5,0.5,0.5,0.982762831758007,0.343929596813554,0.5,0.5,0.343929596813554,0.982762831758007,0.33720834464618,0.66279165535382,0.5,0.982762831758007,0.00643326167900334,0.081139865208566,-0.5,-0.156070403186446,0.5,0.312140806372893,0.903306670939159,2.60212796759937,2.8657044327679,0.5,64.2027845136637
CBC_1007,CBC_1007_MSI_TV_v3_Vset5_Tset1_2023-06-21_16h08.10.582.csv,2,42,1,0,b,1,0,3,tac,B,63,0,1B,0B,0,1,b,2.33222729999943,1,0,1,0,1B,0B,B10,2.65675690671466,0.965400275234663,0.5,0.5,0.5,0.5,0.988143255352648,0.5,0.5,0.5,0.343929596813554,0.982762831758007,0.343929596813554,0.5,0.5,0.343929596813554,0.982762831758007,0.664010841562754,0.335989158437246,0.988143255352648,0.5,0.326257842212548,0.920377891524774,-0.988143255352648,-0.308439832537711,0.5,0.312140806372893,0.903306670939159,2.60212796759937,2.8657044327679,0.5,64.2027845136637
CBC_1007,CBC_1007_MSI_TV_v3_Vset5_Tset1_2023-06-21_16h08.10.582.csv,2,43,2,3,z,0,1,2,tac,D,63,1,2D,3D,0,1,z,2.17503729999953,0,1,1,1,3D,2D,D23,2.26868354131836,0.965400275234663,0.5,0.5,0.5,0.5,0.679703422814937,0.5,0.5,0.5,0.343929596813554,0.982762831758007,0.343929596813554,0.5,0.5,0.343929596813554,0.982762831758007,0.740761619342427,0.259238380657572,0.982762831758007,0.343929596813554,0.392692378252639,0.973175033837498,0.0172371682419928,0.00538042359464086,0.5,0.312140806372893,0.903306670939159,2.60212796759937,2.8657044327679,0.5,64.2027845136637
CBC_1007,CBC_1007_MSI_TV_v3_Vset5_Tset1_2023-06-21_16h08.10.582.csv,2,44,1,0,z,0,1,0,tac,A,63,1,1A,0A,0,1,z,2.29483830000027,0,1,1,1,0A,1A,A10,2.97892515523761,0.965400275234663,0.5,0.5,0.5,0.5,0.679703422814937,0.5,0.5,0.5,0.343929596813554,0.982762831758007,0.343929596813554,0.5,0.5,0.343929596813554,0.988143255352648,0.658796297196046,0.341203702803954,0.965400275234663,0.5,0.335738310337951,0.914728910276807,0.0345997247653369,0.0107999859885324,0.5,0.312140806372893,0.903306670939159,2.60212796759937,2.8657044327679,0.5,64.2027845136637
CBC_1007,CBC_1007_MSI_AV_v3_Vset4_Aset2_2023-06-21_16h24.09.852.csv,3,1,1,0,b,1,0,3,aud,B,63,1,1B,0B,1,0,z,1.66126739999891,0,1,0,0,0B,1B,B10,2.77258872223978,0.5,0.5,0.5,0.5,0.5,0.5,0.5,0.5,0.5,0.5,0.5,0.5,0.5,0.5,0.5,0.5,0.5,0.5,0.5,0.5,0.250428306714021,0.500042698846411,-0.5,-0.0588129503031072,0.5,0.117625900606214,0.848971824735549,8.80792774162237,2.59741393242817,0.5,38.2738414060731
CBC_1007,CBC_1007_MSI_AV_v3_Vset4_Aset2_2023-06-21_16h24.09.852.csv,3,2,0,1,b,1,0,0,aud,A,63,1,0A,1A,1,0,b,3.03942339999958,1,0,1,1,0A,1A,A01,2.83321334405622,0.5,0.5,0.5,0.5,0.441187049696893,0.5,0.5,0.5,0.5,0.5,0.5,0.5,0.5,0.5,0.5,0.5,0.5,0.5,0.5,0.5,0.0937464301154916,0.499682737414388,0.5,0.0588129503031072,0.5,0.117625900606214,0.848971824735549,8.80792774162237,2.59741393242817,0.5,38.2738414060731
CBC_1007,CBC_1007_MSI_AV_v3_Vset4_Aset2_2023-06-21_16h24.09.852.csv,3,3,1,2,z,0,1,1,aud,C,9,1,1C,2C,0,1,z,1.82182579999971,0,1,1,1,2C,1C,C12,2.89037175789616,0.558812950303107,0.5,0.5,0.5,0.441187049696893,0.5,0.5,0.5,0.5,0.5,0.5,0.5,0.5,0.5,0.5,0.5,0.5,0.5,0.5,0.5,0.226100964030487,0.499644818197556,0.5,0.0588129503031072,0.5,0.117625900606214,0.848971824735549,8.80792774162237,2.59741393242817,0.5,38.2738414060731
CBC_1007,CBC_1007_MSI_AV_v3_Vset4_Aset2_2023-06-21_16h24.09.852.csv,3,4,1,0,z,0,1,0,aud,A,63,1,1A,0A,0,1,z,1.9362899000007,0,1,1,1,0A,1A,A10,2.94443897916644,0.558812950303107,0.5,0.5,0.5,0.441187049696893,0.5,0.5,0.5,0.5,0.5,0.558812950303107,0.5,0.5,0.5,0.5,0.5,0.527773059578782,0.472226940421219,0.558812950303107,0.5,0.346087388168161,0.780002679463924,0.441187049696893,0.0518950240563957,0.5,0.117625900606214,0.848971824735549,8.80792774162237,2.59741393242817,0.5,38.2738414060731
CBC_1007,CBC_1007_MSI_AV_v3_Vset4_Aset2_2023-06-21_16h24.09.852.csv,3,5,3,1,b,1,0,2,aud,D,27,1,3D,1D,1,0,b,1.6795431999999,1,0,1,1,3D,1D,D31,2.99573227355399,0.610707974359503,0.5,0.5,0.5,0.441187049696893,0.5,0.5,0.5,0.5,0.5,0.558812950303107,0.5,0.5,0.5,0.5,0.5,0.5,0.5,0.5,0.5,0.247319825606271,0.499137334506068,0.5,0.0588129503031072,0.5,0.117625900606214,0.848971824735549,8.80792774162237,2.59741393242817,0.5,38.2738414060731
CBC_1007,CBC_1007_MSI_AV_v3_Vset4_Aset2_2023-06-21_16h24.09.852.csv,3,6,0,1,z,0,1,3,aud,B,63,1,0B,1B,0,1,z,1.41934960000071,0,1,1,1,1B,0B,B01,3.04452243772342,0.610707974359503,0.5,0.5,0.5,0.441187049696893,0.5,0.5,0.5,0.5,0.5,0.558812950303107,0.5,0.5,0.5,0.5,0.558812950303107,0.531244028656178,0.468755971343822,0.5,0.441187049696893,0.513768687300865,0.806652487647026,0.5,0.0588129503031072,0.5,0.117625900606214,0.848971824735549,8.80792774162237,2.59741393242817,0.5,38.2738414060731
CBC_1007,CBC_1007_MSI_AV_v3_Vset4_Aset2_2023-06-21_16h24.09.852.csv,3,7,2,3,b,1,0,1,aud,C,63,1,2C,3C,1,0,b,1.80670350000037,1,0,1,1,2C,3C,C23,3.09104245335832,0.610707974359503,0.5,0.5,0.5,0.441187049696893,0.558812950303107,0.5,0.5,0.5,0.5,0.558812950303107,0.5,0.5,0.5,0.5,0.558812950303107,0.527773059578782,0.472226940421219,0.558812950303107,0.5,0.384927268169298,0.781132939353407,0.441187049696893,0.0518950240563957,0.5,0.117625900606214,0.848971824735549,8.80792774162237,2.59741393242817,0.5,38.2738414060731
CBC_1007,CBC_1007_MSI_AV_v3_Vset4_Aset2_2023-06-21_16h24.09.852.csv,3,8,2,0,z,0,1,0,aud,A,27,1,2A,0A,0,1,z,2.3398130000005,0,1,1,1,0A,2A,A20,3.13549421592915,0.610707974359503,0.5,0.5,0.5,0.441187049696893,0.558812950303107,0.5,0.5,0.5,0.5,0.610707974359503,0.5,0.5,0.5,0.5,0.558812950303107,0.549836670355835,0.450163329644165,0.610707974359503,0.5,0.275367144789919,0.907419939202753,0.389292025640497,0.045790825114781,0.5,0.117625900606214,0.848971824735549,8.80792774162237,2.59741393242817,0.5,38.2738414060731
CBC_1007,CBC_1007_MSI_AV_v3_Vset4_Aset2_2023-06-21_16h24.09.852.csv,3,9,3,2,b,1,0,2,aud,D,63,1,3D,2D,1,0,b,1.4915861999998,1,0,1,1,3D,2D,D32,3.17805383034795,0.656498799474284,0.5,0.5,0.5,0.441187049696893,0.558812950303107,0.5,0.5,0.5,0.5,0.610707974359503,0.5,0.5,0.5,0.5,0.558812950303107,0.527773059578782,0.472226940421219,0.558812950303107,0.5,0.473356586572289,0.781000837073978,0.441187049696893,0.0518950240563957,0.5,0.117625900606214,0.848971824735549,8.80792774162237,2.59741393242817,0.5,38.2738414060731
CBC_1007,CBC_1007_MSI_AV_v3_Vset4_Aset2_2023-06-21_16h24.09.852.csv,3,10,3,1,z,0,1,3,aud,B,27,1,3B,1B,0,1,z,1.90983140000026,0,1,1,1,1B,3B,B31,3.2188758248682,0.656498799474284,0.5,0.5,0.5,0.441187049696893,0.558812950303107,0.5,0.5,0.5,0.5,0.610707974359503,0.5,0.5,0.5,0.5,0.610707974359503,0.527773059578782,0.472226940421219,0.558812950303107,0.5,0.354570475613201,0.781480669907768,0.441187049696893,0.0518950240563957,0.5,0.117625900606214,0.848971824735549,8.80792774162237,2.59741393242817,0.5,38.2738414060731
CBC_1007,CBC_1007_MSI_AV_v3_Vset4_Aset2_2023-06-21_16h24.09.852.csv,3,11,3,2,z,0,1,1,aud,C,63,0,3C,2C,1,0,z,3.43603809999877,0,1,1,0,2C,3C,C32,3.25809653802148,0.656498799474284,0.5,0.5,0.5,0.441187049696893,0.610707974359503,0.5,0.5,0.5,0.5,0.610707974359503,0.5,0.5,0.5,0.5,0.610707974359503,0.549836670355835,0.450163329644165,0.610707974359503,0.5,0.0810344596206812,0.907106736611668,-0.610707974359503,-0.0718350754914335,0.5,0.117625900606214,0.848971824735549,8.80792774162237,2.59741393242817,0.5,38.2738414060731
CBC_1007,CBC_1007_MSI_AV_v3_Vset4_Aset2_2023-06-21_16h24.09.852.csv,3,12,1,3,b,1,0,3,aud,B,27,1,1B,3B,1,0,b,2.72216000000117,1,0,1,1,1B,3B,B13,3.29583686600433,0.656498799474284,0.5,0.5,0.5,0.441187049696893,0.610707974359503,0.5,0.5,0.5,0.5,0.538872898868069,0.5,0.5,0.5,0.5,0.610707974359503,0.549836670355835,0.450163329644165,0.610707974359503,0.5,0.179758955125132,0.907182485168494,0.389292025640497,0.045790825114781,0.5,0.117625900606214,0.848971824735549,8.80792774162237,2.59741393242817,0.5,38.2738414060731
CBC_1007,CBC_1007_MSI_AV_v3_Vset4_Aset2_2023-06-21_16h24.09.852.csv,3,13,3,2,z,0,1,1,aud,C,63,1,3C,2C,0,1,b,2.11386549999952,1,0,0,0,3C,2C,C32,2.63905732961526,0.656498799474284,0.5,0.5,0.5,0.441187049696893,0.656498799474284,0.5,0.5,0.5,0.5,0.538872898868069,0.5,0.5,0.5,0.5,0.610707974359503,0.481290830230327,0.518709169769673,0.5,0.538872898868069,0.112365071807304,0.298821062985227,-0.5,-0.0588129503031072,0.5,0.117625900606214,0.848971824735549,8.80792774162237,2.59741393242817,0.5,38.2738414060731
CBC_1007,CBC_1007_MSI_AV_v3_Vset4_Aset2_2023-06-21_16h24.09.852.csv,3,14,3,2,b,1,0,2,aud,D,63,1,3D,2D,1,0,b,1.10017619999962,1,0,1,1,3D,2D,D32,2.67414864942653,0.656498799474284,0.5,0.5,0.5,0.441187049696893,0.656498799474284,0.5,0.5,0.5,0.5,0.538872898868069,0.441187049696893,0.5,0.5,0.5,0.610707974359503,0.549836670355835,0.450163329644165,0.610707974359503,0.5,0.407446656346202,0.907486160742708,0.389292025640497,0.045790825114781,0.5,0.117625900606214,0.848971824735549,8.80792774162237,2.59741393242817,0.5,38.2738414060731
CBC_1007,CBC_1007_MSI_AV_v3_Vset4_Aset2_2023-06-21_16h24.09.852.csv,3,15,0,3,b,1,0,0,aud,A,9,1,0A,3A,1,0,b,1.65734789999988,1,0,1,1,0A,3A,A03,3.40119738166216,0.656498799474284,0.5,0.5,0.5,0.441187049696893,0.656498799474284,0.5,0.5,0.5,0.5,0.538872898868069,0.441187049696893,0.5,0.5,0.5,0.656498799474284,0.567660597462541,0.432339402537459,0.656498799474284,0.5,0.664879213735938,0.956894275549473,0.343501200525716,0.0404046380711532,0.5,0.117625900606214,0.848971824735549,8.80792774162237,2.59741393242817,0.5,38.2738414060731
CBC_1007,CBC_1007_MSI_AV_v3_Vset4_Aset2_2023-06-21_16h24.09.852.csv,3,16,0,1,z,0,1,3,aud,B,63,0,0B,1B,1,0,z,2.12121760000082,0,1,1,0,1B,0B,B01,2.7408400239252,0.696903437545437,0.5,0.5,0.5,0.441187049696893,0.656498799474284,0.5,0.5,0.5,0.5,0.538872898868069,0.441187049696893,0.5,0.5,0.5,0.656498799474284,0.598075305398154,0.401924694601846,0.656498799474284,0.441187049696893,0.258868369160133,0.98886966997196,-0.656498799474284,-0.0772212625350612,0.5,0.117625900606214,0.848971824735549,8.80792774162237,2.59741393242817,0.5,38.2738414060731
CBC_1007,CBC_1007_MSI_AV_v3_Vset4_Aset2_2023-06-21_16h24.09.852.csv,3,17,2,3,z,0,1,2,aud,D,63,1,2D,3D,0,1,z,1.52937220000058,0,1,1,1,3D,2D,D23,3.46573590279973,0.696903437545437,0.5,0.5,0.5,0.441187049696893,0.579277536939223,0.5,0.5,0.5,0.5,0.538872898868069,0.441187049696893,0.5,0.5,0.5,0.656498799474284,0.567660597462541,0.432339402537459,0.656498799474284,0.5,0.774548944613664,0.956599592201091,0.343501200525716,0.0404046380711532,0.5,0.117625900606214,0.848971824735549,8.80792774162237,2.59741393242817,0.5,38.2738414060731
CBC_1007,CBC_1007_MSI_AV_v3_Vset4_Aset2_2023-06-21_16h24.09.852.csv,3,18,0,2,z,0,1,1,aud,C,27,1,0C,2C,0,1,b,3.39959239999916,1,0,0,0,0C,2C,C02,3.49650756146648,0.696903437545437,0.5,0.5,0.5,0.441187049696893,0.579277536939223,0.5,0.5,0.5,0.5,0.538872898868069,0.441187049696893,0.5,0.5,0.5,0.696903437545437,0.481290830230327,0.518709169769673,0.5,0.538872898868069,0.0408805999549139,0.298017591975812,-0.5,-0.0588129503031072,0.5,0.117625900606214,0.848971824735549,8.80792774162237,2.59741393242817,0.5,38.2738414060731
CBC_1007,CBC_1007_MSI_AV_v3_Vset4_Aset2_2023-06-21_16h24.09.852.csv,3,19,0,1,b,1,0,0,aud,A,63,1,0A,1A,1,0,b,0.991809699999067,1,0,1,1,0A,1A,A01,2.83321334405622,0.696903437545437,0.5,0.5,0.5,0.441187049696893,0.579277536939223,0.5,0.5,0.441187049696893,0.5,0.538872898868069,0.441187049696893,0.5,0.5,0.5,0.696903437545437,0.582255356350734,0.417744643649266,0.696903437545437,0.5,0.148170014199659,0.977393862497584,0.303096562454563,0.0356520061293657,0.5,0.117625900606214,0.848971824735549,8.80792774162237,2.59741393242817,0.5,38.2738414060731
CBC_1007,CBC_1007_MSI_AV_v3_Vset4_Aset2_2023-06-21_16h24.09.852.csv,3,20,1,0,b,1,0,3,aud,B,63,1,1B,0B,1,0,b,1.87979779999841,1,0,1,1,1B,0B,B10,2.86220088092947,0.732555443674803,0.5,0.5,0.5,0.441187049696893,0.579277536939223,0.5,0.5,0.441187049696893,0.5,0.538872898868069,0.441187049696893,0.5,0.5,0.5,0.696903437545437,0.567660597462541,0.432339402537459,0.579277536939223,0.441187049696893,0.491733399684602,0.956713260526007,0.420722463060777,0.0494878586227887,0.5,0.117625900606214,0.848971824735549,8.80792774162237,2.59741393242817,0.5,38.2738414060731
CBC_1007,CBC_1007_MSI_AV_v3_Vset4_Aset2_2023-06-21_16h24.09.852.csv,3,21,1,3,z,0,1,2,aud,D,27,1,1D,3D,0,1,z,1.30866839999908,0,1,1,1,3D,1D,D13,3.58351893845611,0.732555443674803,0.5,0.5,0.5,0.441187049696893,0.628765395562011,0.5,0.5,0.441187049696893,0.5,0.538872898868069,0.441187049696893,0.5,0.5,0.5,0.696903437545437,0.582255356350734,0.417744643649266,0.696903437545437,0.5,1.07574467868354,0.977334269121213,0.303096562454563,0.0356520061293657,0.5,0.117625900606214,0.848971824735549,8.80792774162237,2.59741393242817,0.5,38.2738414060731
CBC_1007,CBC_1007_MSI_AV_v3_Vset4_Aset2_2023-06-21_16h24.09.852.csv,3,22,3,2,z,0,1,1,aud,C,63,1,3C,2C,0,1,z,2.35934300000008,0,1,1,1,2C,3C,C32,2.51230562397611,0.732555443674803,0.5,0.5,0.5,0.441187049696893,0.628765395562011,0.5,0.5,0.441187049696893,0.5,0.538872898868069,0.441187049696893,0.5,0.5,0.5,0.732555443674803,0.549836670355835,0.450163329644165,0.538872898868069,0.441187049696893,0.269443467090476,0.907209542682831,0.461127101131931,0.0542404905645763,0.5,0.117625900606214,0.848971824735549,8.80792774162237,2.59741393242817,0.5,38.2738414060731
CBC_1007,CBC_1007_MSI_AV_v3_Vset4_Aset2_2023-06-21_16h24.09.852.csv,3,23,0,1,b,1,0,0,aud,A,63,1,0A,1A,1,0,b,1.25399389999984,1,0,1,1,0A,1A,A01,2.53897387105828,0.732555443674803,0.5,0.5,0.5,0.441187049696893,0.628765395562011,0.5,0.5,0.441187049696893,0.5,0.593113389432646,0.441187049696893,0.5,0.5,0.5,0.732555443674803,0.594338735376256,0.405661264623744,0.732555443674803,0.5,1.23988751434629,0.986832412195592,0.267444556325197,0.0314584067999808,0.5,0.117625900606214,0.848971824735549,8.80792774162237,2.59741393242817,0.5,38.2738414060731
CBC_1007,CBC_1007_MSI_AV_v3_Vset4_Aset2_2023-06-21_16h24.09.852.csv,3,24,2,3,z,0,1,2,aud,D,63,1,2D,3D,0,1,z,1.41416439999921,0,1,1,1,3D,2D,D23,2.9704144655697,0.764013850474784,0.5,0.5,0.5,0.441187049696893,0.628765395562011,0.5,0.5,0.441187049696893,0.5,0.593113389432646,0.441187049696893,0.5,0.5,0.5,0.732555443674803,0.594338735376256,0.405661264623744,0.732555443674803,0.5,1.08706179751639,0.986780575209986,0.267444556325197,0.0314584067999808,0.5,0.117625900606214,0.848971824735549,8.80792774162237,2.59741393242817,0.5,38.2738414060731
CBC_1007,CBC_1007_MSI_AV_v3_Vset4_Aset2_2023-06-21_16h24.09.852.csv,3,25,2,0,b,1,0,1,aud,C,27,1,2C,0C,1,0,b,2.15954239999883,1,0,1,1,2C,0C,C20,3.68887945411394,0.764013850474784,0.5,0.5,0.5,0.441187049696893,0.628765395562011,0.5,0.5,0.441187049696893,0.5,0.593113389432646,0.441187049696893,0.5,0.5,0.5,0.764013850474784,0.573444008137333,0.426555991862667,0.593113389432646,0.441187049696893,0.319562799063362,0.966415483144059,0.406886610567354,0.0478604040125951,0.5,0.117625900606214,0.848971824735549,8.80792774162237,2.59741393242817,0.5,38.2738414060731
CBC_1007,CBC_1007_MSI_AV_v3_Vset4_Aset2_2023-06-21_16h24.09.852.csv,3,26,0,1,b,1,0,0,aud,A,63,1,0A,1A,1,0,b,1.21733180000047,1,0,1,1,0A,1A,A01,2.32727770558442,0.764013850474784,0.5,0.5,0.5,0.441187049696893,0.628765395562011,0.5,0.5,0.441187049696893,0.5,0.640973793445241,0.441187049696893,0.5,0.5,0.5,0.764013850474784,0.604434714214411,0.395565285785589,0.764013850474784,0.5,1.37231443427616,0.991645353691299,0.235986149525216,0.0277580833684964,0.5,0.117625900606214,0.848971824735549,8.80792774162237,2.59741393242817,0.5,38.2738414060731
CBC_1007,CBC_1007_MSI_AV_v3_Vset4_Aset2_2023-06-21_16h24.09.852.csv,3,27,1,3,b,1,0,3,aud,B,27,1,1B,3B,1,0,b,1.20220560000053,1,0,1,1,1B,3B,B13,3.04452243772342,0.79177193384328,0.5,0.5,0.5,0.441187049696893,0.628765395562011,0.5,0.5,0.441187049696893,0.5,0.640973793445241,0.441187049696893,0.5,0.5,0.5,0.764013850474784,0.557038156940442,0.442961843059558,0.628765395562011,0.5,0.70030566183562,0.93170464563847,0.371234604437989,0.0436668046832102,0.5,0.117625900606214,0.848971824735549,8.80792774162237,2.59741393242817,0.5,38.2738414060731
CBC_1007,CBC_1007_MSI_AV_v3_Vset4_Aset2_2023-06-21_16h24.09.852.csv,3,28,3,2,z,0,1,1,aud,C,63,1,3C,2C,0,1,z,1.49521320000167,0,1,1,1,2C,3C,C32,2.37490575457367,0.79177193384328,0.5,0.5,0.5,0.441187049696893,0.672432200245222,0.5,0.5,0.441187049696893,0.5,0.640973793445241,0.441187049696893,0.5,0.5,0.5,0.764013850474784,0.592309172436998,0.407690827563002,0.640973793445241,0.441187049696893,0.950574308187561,0.985510426858043,0.359026206554759,0.0422307808872363,0.5,0.117625900606214,0.848971824735549,8.80792774162237,2.59741393242817,0.5,38.2738414060731
CBC_1007,CBC_1007_MSI_AV_v3_Vset4_Aset2_2023-06-21_16h24.09.852.csv,3,29,3,2,b,1,0,2,aud,D,63,0,3D,2D,0,1,b,1.14039719999892,1,0,1,0,3D,2D,D32,2.68557734525015,0.79177193384328,0.5,0.5,0.5,0.441187049696893,0.672432200245222,0.5,0.5,0.441187049696893,0.5,0.683204574332477,0.441187049696893,0.5,0.5,0.5,0.764013850474784,0.604434714214411,0.395565285785589,0.764013850474784,0.5,1.21467133485643,0.99166951452903,-0.764013850474784,-0.0898678172377181,0.5,0.117625900606214,0.848971824735549,8.80792774162237,2.59741393242817,0.5,38.2738414060731
CBC_1007,CBC_1007_MSI_AV_v3_Vset4_Aset2_2023-06-21_16h24.09.852.csv,3,30,0,1,z,0,1,3,aud,B,63,1,0B,1B,0,1,z,1.63441539999985,0,1,1,1,1B,0B,B01,2.70805020110221,0.79177193384328,0.5,0.5,0.5,0.441187049696893,0.672432200245222,0.5,0.5,0.441187049696893,0.5,0.683204574332477,0.441187049696893,0.5,0.5,0.5,0.674146033237066,0.603825948842187,0.396174051157813,0.672432200245222,0.441187049696893,0.734677913688735,0.991484488435713,0.327567799754778,0.0385304574557519,0.5,0.117625900606214,0.848971824735549,8.80792774162237,2.59741393242817,0.5,38.2738414060731
CBC_1007,CBC_1007_MSI_AV_v3_Vset4_Aset2_2023-06-21_16h24.09.852.csv,3,31,2,0,z,0,1,0,aud,A,27,1,2A,0A,0,1,z,1.90010190000066,0,1,1,1,0A,2A,A20,3.13549421592915,0.79177193384328,0.5,0.5,0.5,0.441187049696893,0.710962657700973,0.5,0.5,0.441187049696893,0.5,0.683204574332477,0.441187049696893,0.5,0.5,0.5,0.674146033237066,0.612934770526869,0.387065229473131,0.79177193384328,0.5,0.35533593547232,0.994308838486545,0.20822806615672,0.0244930138131746,0.5,0.117625900606214,0.848971824735549,8.80792774162237,2.59741393242817,0.5,38.2738414060731
CBC_1007,CBC_1007_MSI_AV_v3_Vset4_Aset2_2023-06-21_16h24.09.852.csv,3,32,3,0,b,1,0,2,aud,D,9,1,3D,0D,1,0,b,1.42563370000062,1,0,1,1,3D,0D,D30,3.85014760171006,0.816264947656455,0.5,0.5,0.5,0.441187049696893,0.710962657700973,0.5,0.5,0.441187049696893,0.5,0.683204574332477,0.441187049696893,0.5,0.5,0.5,0.674146033237066,0.574158591992579,0.425841408007421,0.674146033237066,0.5,0.914445150116357,0.967535571746812,0.325853966762934,0.0383288663065976,0.5,0.117625900606214,0.848971824735549,8.80792774162237,2.59741393242817,0.5,38.2738414060731
CBC_1007,CBC_1007_MSI_AV_v3_Vset4_Aset2_2023-06-21_16h24.09.852.csv,3,33,3,2,z,0,1,1,aud,C,63,1,3C,2C,0,1,z,1.79726230000051,0,1,1,1,2C,3C,C32,2.26176309847379,0.816264947656455,0.5,0.5,0.5,0.441187049696893,0.710962657700973,0.5,0.5,0.441187049696893,0.5,0.683204574332477,0.441187049696893,0.5,0.5,0.5,0.712474899543663,0.607621543714587,0.392378456285413,0.683204574332477,0.441187049696893,0.491157608205693,0.992757473903421,0.316795425667523,0.0372633472520714,0.5,0.117625900606214,0.848971824735549,8.80792774162237,2.59741393242817,0.5,38.2738414060731
CBC_1007,CBC_1007_MSI_AV_v3_Vset4_Aset2_2023-06-21_16h24.09.852.csv,3,34,0,1,z,0,1,3,aud,B,63,1,0B,1B,0,1,z,2.18018439999832,0,1,1,1,1B,0B,B01,2.50552593699074,0.816264947656455,0.5,0.5,0.5,0.441187049696893,0.710962657700973,0.5,0.5,0.441187049696893,0.5,0.720467921584549,0.441187049696893,0.5,0.5,0.5,0.712474899543663,0.617074893250361,0.382925106749639,0.710962657700973,0.441187049696893,0.150810469243702,0.995304692868131,0.289037342299027,0.0339982776967497,0.5,0.117625900606214,0.848971824735549,8.80792774162237,2.59741393242817,0.5,38.2738414060731
CBC_1007,CBC_1007_MSI_AV_v3_Vset4_Aset2_2023-06-21_16h24.09.852.csv,3,35,0,1,b,1,0,0,aud,A,63,0,0A,1A,0,1,b,1.18391060000067,1,0,1,0,0A,1A,A01,2.30258509299405,0.816264947656455,0.5,0.5,0.5,0.441187049696893,0.744960935397723,0.5,0.5,0.441187049696893,0.5,0.720467921584549,0.441187049696893,0.5,0.5,0.5,0.712474899543663,0.62013726728025,0.37986273271975,0.816264947656455,0.5,1.59033041366963,0.995921400507114,-0.816264947656455,-0.096013899601375,0.5,0.117625900606214,0.848971824735549,8.80792774162237,2.59741393242817,0.5,38.2738414060731
CBC_1007,CBC_1007_MSI_AV_v3_Vset4_Aset2_2023-06-21_16h24.09.852.csv,3,36,2,3,z,0,1,2,aud,D,63,1,2D,3D,0,1,z,1.71770680000009,0,1,1,1,3D,2D,D23,2.83321334405622,0.72025104805508,0.5,0.5,0.5,0.441187049696893,0.744960935397723,0.5,0.5,0.441187049696893,0.5,0.720467921584549,0.441187049696893,0.5,0.5,0.5,0.712474899543663,0.587620329139858,0.412379670860142,0.712474899543663,0.5,0.638443069714273,0.982099578950524,0.287525100456337,0.0338203988880689,0.5,0.117625900606214,0.848971824735549,8.80792774162237,2.59741393242817,0.5,38.2738414060731
CBC_1007,CBC_1007_MSI_AV_v3_Vset4_Aset2_2023-06-21_16h24.09.852.csv,3,37,1,2,b,1,0,3,aud,B,9,1,1B,2B,1,0,b,1.89318139999887,1,0,1,1,1B,2B,B12,3.95124371858143,0.72025104805508,0.5,0.5,0.5,0.441187049696893,0.744960935397723,0.5,0.5,0.441187049696893,0.5,0.720467921584549,0.441187049696893,0.5,0.5,0.5,0.746295298431732,0.598380972620425,0.401619027379575,0.744960935397723,0.5,0.426758704760297,0.98899350373873,0.255039064602277,0.0299991996636093,0.5,0.117625900606214,0.848971824735549,8.80792774162237,2.59741393242817,0.5,38.2738414060731
CBC_1007,CBC_1007_MSI_AV_v3_Vset4_Aset2_2023-06-21_16h24.09.852.csv,3,38,2,0,z,0,1,0,aud,A,27,1,2A,0A,0,1,z,2.02267620000021,0,1,1,1,0A,2A,A20,2.87167962488401,0.72025104805508,0.5,0.5,0.5,0.441187049696893,0.774960135061332,0.5,0.5,0.441187049696893,0.5,0.720467921584549,0.441187049696893,0.5,0.5,0.5,0.746295298431732,0.590248251950339,0.409751748049661,0.72025104805508,0.5,0.352063487096426,0.984121770803297,0.27974895194492,0.0329057224161659,0.5,0.117625900606214,0.848971824735549,8.80792774162237,2.59741393242817,0.5,38.2738414060731
CBC_1007,CBC_1007_MSI_AV_v3_Vset4_Aset2_2023-06-21_16h24.09.852.csv,3,39,2,3,b,1,0,1,aud,C,63,1,2C,3C,1,0,b,1.32778390000021,1,0,1,1,2C,3C,C23,3.29583686600433,0.753156770471246,0.5,0.5,0.5,0.441187049696893,0.774960135061332,0.5,0.5,0.441187049696893,0.5,0.720467921584549,0.441187049696893,0.5,0.5,0.5,0.746295298431732,0.620208185215089,0.379791814784911,0.720467921584549,0.441187049696893,1.43747988640741,0.995948655315673,0.279532078415451,0.0328802124719444,0.5,0.117625900606214,0.848971824735549,8.80792774162237,2.59741393242817,0.5,38.2738414060731
CBC_1007,CBC_1007_MSI_AV_v3_Vset4_Aset2_2023-06-21_16h24.09.852.csv,3,40,1,3,z,0,1,2,aud,D,27,1,1D,3D,0,1,z,1.52682789999926,0,1,1,1,3D,1D,D13,3.31418600467253,0.753156770471246,0.5,0.5,0.5,0.441187049696893,0.774960135061332,0.5,0.5,0.441187049696893,0.5,0.753348134056493,0.441187049696893,0.5,0.5,0.5,0.746295298431732,0.59881097150156,0.40118902849844,0.746295298431732,0.5,0.918618891128819,0.989242698151106,0.253704701568268,0.0298422440099984,0.5,0.117625900606214,0.848971824735549,8.80792774162237,2.59741393242817,0.5,38.2738414060731
CBC_1007,CBC_1007_MSI_AV_v3_Vset4_Aset2_2023-06-21_16h24.09.852.csv,3,41,0,1,b,1,0,0,aud,A,63,1,0A,1A,1,0,b,1.16805919999933,1,0,1,1,0A,1A,A01,2.23359222150709,0.753156770471246,0.5,0.5,0.5,0.441187049696893,0.774960135061332,0.5,0.5,0.441187049696893,0.5,0.753348134056493,0.441187049696893,0.5,0.5,0.5,0.77613754244173,0.601007621885986,0.398992378114014,0.753156770471246,0.5,1.24541942153158,0.990286985621629,0.246843229528754,0.0290351571818663,0.5,0.117625900606214,0.848971824735549,8.80792774162237,2.59741393242817,0.5,38.2738414060731
CBC_1007,CBC_1007_MSI_AV_v3_Vset4_Aset2_2023-06-21_16h24.09.852.csv,3,42,0,2,z,0,1,1,aud,C,27,1,0C,2C,0,1,z,2.77161019999949,0,1,1,1,2C,0C,C02,3.3499040872746,0.782191927653112,0.5,0.5,0.5,0.441187049696893,0.774960135061332,0.5,0.5,0.441187049696893,0.5,0.753348134056493,0.441187049696893,0.5,0.5,0.5,0.77613754244173,0.630662155709282,0.369337844290718,0.753348134056493,0.441187049696893,0.0139122841798179,0.997475061753256,0.246651865943507,0.0290126478678083,0.5,0.117625900606214,0.848971824735549,8.80792774162237,2.59741393242817,0.5,38.2738414060731
CBC_1007,CBC_1007_MSI_AV_v3_Vset4_Aset2_2023-06-21_16h24.09.852.csv,3,43,3,2,b,1,0,2,aud,D,63,1,3D,2D,1,0,b,1.18890570000076,1,0,1,1,3D,2D,D32,2.67414864942653,0.782191927653112,0.5,0.5,0.5,0.441187049696893,0.774960135061332,0.5,0.5,0.441187049696893,0.5,0.782360781924301,0.441187049696893,0.5,0.5,0.5,0.77613754244173,0.608192703865359,0.391807296134641,0.77613754244173,0.5,1.40236423887662,0.992976231399726,0.22386245755827,0.0263320231822119,0.5,0.117625900606214,0.848971824735549,8.80792774162237,2.59741393242817,0.5,38.2738414060731
CBC_1007,CBC_1007_MSI_AV_v3_Vset4_Aset2_2023-06-21_16h24.09.852.csv,3,44,1,0,b,1,0,3,aud,B,63,1,1B,0B,1,0,b,1.1392792000006,1,0,1,1,1B,0B,B10,2.97892515523761,0.782191927653112,0.5,0.5,0.5,0.441187049696893,0.774960135061332,0.5,0.5,0.441187049696893,0.5,0.782360781924301,0.441187049696893,0.5,0.5,0.5,0.802469565623942,0.637225612798995,0.362774387201005,0.774960135061332,0.441187049696893,1.79311942686058,0.99812807179381,0.225039864938668,0.0264705167857116,0.5,0.117625900606214,0.848971824735549,8.80792774162237,2.59741393242817,0.5,38.2738414060731
CBC_1007,CBC_1007_MSI_TV_v3_Vset1_Tset3_2023-06-21_16h50.43.207.csv,4,1,0,1,b,1,0,0,tac,A,63,1,0A,1A,1,0,z,2.03404790000059,0,1,0,0,1A,0A,A01,2.77258872223978,0.5,0.5,0.5,0.5,0.5,0.5,0.5,0.5,0.5,0.5,0.5,0.5,0.5,0.5,0.5,0.5,0.5,0.5,0.5,0.5,0.167906868372781,0.500353237328038,-0.5,-0.0463866780609799,0.5,0.0927733561219598,1.08647103315591,7.38791590991105,3.31939233695995,0.5,48.6930146599232
CBC_1007,CBC_1007_MSI_TV_v3_Vset1_Tset3_2023-06-21_16h50.43.207.csv,4,2,2,3,z,0,1,2,tac,D,63,1,2D,3D,0,1,b,2.42155249999996,1,0,0,0,2D,3D,D23,2.83321334405622,0.5,0.45361332193902,0.5,0.5,0.5,0.5,0.5,0.5,0.5,0.5,0.5,0.5,0.5,0.5,0.5,0.5,0.5,0.5,0.5,0.5,0.15294441912223,0.5002563967761,-0.5,-0.0463866780609799,0.5,0.0927733561219598,1.08647103315591,7.38791590991105,3.31939233695995,0.5,48.6930146599232
CBC_1007,CBC_1007_MSI_TV_v3_Vset1_Tset3_2023-06-21_16h50.43.207.csv,4,3,0,2,z,0,1,1,tac,C,27,1,0C,2C,0,1,z,2.58686540000053,0,1,1,1,2C,0C,C02,2.89037175789616,0.5,0.45361332193902,0.5,0.5,0.5,0.5,0.5,0.5,0.5,0.5,0.5,0.5,0.5,0.5,0.45361332193902,0.5,0.5,0.5,0.5,0.5,0.143610646888798,0.500072104850283,0.5,0.0463866780609799,0.5,0.0927733561219598,1.08647103315591,7.38791590991105,3.31939233695995,0.5,48.6930146599232
CBC_1007,CBC_1007_MSI_TV_v3_Vset1_Tset3_2023-06-21_16h50.43.207.csv,4,4,0,1,b,1,0,0,tac,A,63,1,0A,1A,1,0,z,2.51520960000198,0,1,0,0,1A,0A,A01,2.2512917986065,0.5,0.45361332193902,0.5,0.5,0.5,0.5,0.5,0.5,0.5,0.5,0.54638667806098,0.5,0.5,0.5,0.45361332193902,0.5,0.475678465792267,0.524321534207733,0.45361332193902,0.5,0.0742304983561271,0.23300244271042,-0.45361332193902,-0.0420832302579139,0.5,0.0927733561219598,1.08647103315591,7.38791590991105,3.31939233695995,0.5,48.6930146599232
CBC_1007,CBC_1007_MSI_TV_v3_Vset1_Tset3_2023-06-21_16h50.43.207.csv,4,5,1,3,b,1,0,3,tac,B,27,1,1B,3B,1,0,z,2.33534440000039,0,1,0,0,3B,1B,B13,2.99573227355399,0.5,0.411530091681106,0.5,0.5,0.5,0.5,0.5,0.5,0.5,0.5,0.54638667806098,0.5,0.5,0.5,0.45361332193902,0.5,0.5,0.5,0.5,0.5,0.157438187264857,0.500108548304511,-0.5,-0.0463866780609799,0.5,0.0927733561219598,1.08647103315591,7.38791590991105,3.31939233695995,0.5,48.6930146599232
CBC_1007,CBC_1007_MSI_TV_v3_Vset1_Tset3_2023-06-21_16h50.43.207.csv,4,6,3,2,z,0,1,1,tac,C,63,1,3C,2C,0,1,z,2.55173960000138,0,1,1,1,2C,3C,C32,3.04452243772342,0.5,0.411530091681106,0.5,0.5,0.5,0.5,0.5,0.45361332193902,0.5,0.5,0.54638667806098,0.5,0.5,0.5,0.45361332193902,0.5,0.522165170406669,0.477834829593331,0.54638667806098,0.5,0.231870092605352,0.748048900158362,0.45361332193902,0.0420832302579139,0.5,0.0927733561219598,1.08647103315591,7.38791590991105,3.31939233695995,0.5,48.6930146599232
CBC_1007,CBC_1007_MSI_TV_v3_Vset1_Tset3_2023-06-21_16h50.43.207.csv,4,7,3,2,b,1,0,2,tac,D,63,1,3D,2D,1,0,b,2.32430040000145,1,0,1,1,3D,2D,D32,3.09104245335832,0.5,0.411530091681106,0.5,0.5,0.5,0.5,0.5,0.45361332193902,0.5,0.5,0.588469908318894,0.5,0.5,0.5,0.45361332193902,0.5,0.524321534207733,0.475678465792267,0.5,0.45361332193902,0.264632365820931,0.767010551255354,0.5,0.0463866780609799,0.5,0.0927733561219598,1.08647103315591,7.38791590991105,3.31939233695995,0.5,48.6930146599232
CBC_1007,CBC_1007_MSI_TV_v3_Vset1_Tset3_2023-06-21_16h50.43.207.csv,4,8,0,1,z,0,1,3,tac,B,63,1,0B,1B,0,1,z,3.3468842000002,0,1,1,1,1B,0B,B01,3.13549421592915,0.5,0.411530091681106,0.5,0.5,0.5,0.5,0.5,0.45361332193902,0.5,0.5,0.588469908318894,0.5,0.5,0.5,0.45361332193902,0.54638667806098,0.5,0.5,0.5,0.5,0.103528513695863,0.500105002228651,0.5,0.0463866780609799,0.5,0.0927733561219598,1.08647103315591,7.38791590991105,3.31939233695995,0.5,48.6930146599232
CBC_1007,CBC_1007_MSI_TV_v3_Vset1_Tset3_2023-06-21_16h50.43.207.csv,4,9,2,0,z,0,1,0,tac,A,27,1,2A,0A,0,1,z,2.69209190000038,0,1,1,1,0A,2A,A20,3.17805383034795,0.5,0.411530091681106,0.5,0.5,0.5,0.54638667806098,0.5,0.45361332193902,0.5,0.5,0.588469908318894,0.5,0.5,0.5,0.45361332193902,0.54638667806098,0.5,0.5,0.5,0.5,0.137653666096419,0.500247980187357,0.5,0.0463866780609799,0.5,0.0927733561219598,1.08647103315591,7.38791590991105,3.31939233695995,0.5,48.6930146599232
CBC_1007,CBC_1007_MSI_TV_v3_Vset1_Tset3_2023-06-21_16h50.43.207.csv,4,10,3,0,b,1,0,2,tac,D,9,1,3D,0D,1,0,b,2.17954090000057,1,0,1,1,3D,0D,D30,3.2188758248682,0.54638667806098,0.411530091681106,0.5,0.5,0.5,0.54638667806098,0.5,0.45361332193902,0.5,0.5,0.588469908318894,0.5,0.5,0.5,0.45361332193902,0.54638667806098,0.522165170406669,0.477834829593331,0.54638667806098,0.5,0.26671294961682,0.747559682116683,0.45361332193902,0.0420832302579139,0.5,0.0927733561219598,1.08647103315591,7.38791590991105,3.31939233695995,0.5,48.6930146599232
CBC_1007,CBC_1007_MSI_TV_v3_Vset1_Tset3_2023-06-21_16h50.43.207.csv,4,11,2,3,b,1,0,1,tac,C,63,1,2C,3C,1,0,b,2.83385510000153,1,0,1,1,2C,3C,C23,3.25809653802148,0.54638667806098,0.411530091681106,0.5,0.5,0.5,0.54638667806098,0.5,0.45361332193902,0.5,0.5,0.588469908318894,0.5,0.5,0.5,0.45361332193902,0.588469908318894,0.540639574710675,0.459360425289325,0.588469908318894,0.5,0.256244685607499,0.880070992386002,0.411530091681106,0.038179027750434,0.5,0.0927733561219598,1.08647103315591,7.38791590991105,3.31939233695995,0.5,48.6930146599232
CBC_1007,CBC_1007_MSI_TV_v3_Vset1_Tset3_2023-06-21_16h50.43.207.csv,4,12,0,1,z,0,1,3,tac,B,63,1,0B,1B,0,1,z,1.85968610000054,0,1,1,1,1B,0B,B01,2.60268968544438,0.54638667806098,0.411530091681106,0.5,0.5,0.5,0.54638667806098,0.5,0.45361332193902,0.5,0.5,0.626648936069328,0.5,0.5,0.5,0.45361332193902,0.588469908318894,0.522165170406669,0.477834829593331,0.54638667806098,0.5,0.270851382662883,0.747611797593905,0.45361332193902,0.0420832302579139,0.5,0.0927733561219598,1.08647103315591,7.38791590991105,3.31939233695995,0.5,48.6930146599232
CBC_1007,CBC_1007_MSI_TV_v3_Vset1_Tset3_2023-06-21_16h50.43.207.csv,4,13,2,3,z,0,1,2,tac,D,63,1,2D,3D,0,1,z,2.11237790000087,0,1,1,1,3D,2D,D23,2.63905732961526,0.54638667806098,0.411530091681106,0.5,0.5,0.5,0.588469908318894,0.5,0.45361332193902,0.5,0.5,0.626648936069328,0.5,0.5,0.5,0.45361332193902,0.588469908318894,0.564705285750782,0.435294714249217,0.588469908318894,0.45361332193902,0.509078093562749,0.959862474199204,0.411530091681106,0.038179027750434,0.5,0.0927733561219598,1.08647103315591,7.38791590991105,3.31939233695995,0.5,48.6930146599232
CBC_1007,CBC_1007_MSI_TV_v3_Vset1_Tset3_2023-06-21_16h50.43.207.csv,4,14,2,3,b,1,0,1,tac,C,63,1,2C,3C,1,0,b,2.50117239999963,1,0,1,1,2C,3C,C23,2.67414864942653,0.54638667806098,0.411530091681106,0.5,0.5,0.5,0.588469908318894,0.5,0.45361332193902,0.5,0.5,0.626648936069328,0.5,0.5,0.5,0.45361332193902,0.626648936069328,0.556206033669717,0.443793966330283,0.626648936069328,0.5,0.361846858319598,0.940468447693661,0.373351063930672,0.0346370312125528,0.5,0.0927733561219598,1.08647103315591,7.38791590991105,3.31939233695995,0.5,48.6930146599232
CBC_1007,CBC_1007_MSI_TV_v3_Vset1_Tset3_2023-06-21_16h50.43.207.csv,4,15,3,1,z,0,1,3,tac,B,27,1,3B,1B,0,1,z,1.75963670000056,0,1,1,1,1B,3B,B31,3.40119738166216,0.54638667806098,0.411530091681106,0.5,0.5,0.5,0.588469908318894,0.5,0.45361332193902,0.5,0.5,0.661285967281881,0.5,0.5,0.5,0.45361332193902,0.626648936069328,0.564705285750782,0.435294714249217,0.588469908318894,0.45361332193902,0.557305742537896,0.959939488060253,0.411530091681106,0.038179027750434,0.5,0.0927733561219598,1.08647103315591,7.38791590991105,3.31939233695995,0.5,48.6930146599232
CBC_1007,CBC_1007_MSI_TV_v3_Vset1_Tset3_2023-06-21_16h50.43.207.csv,4,16,0,3,b,1,0,0,tac,A,9,1,0A,3A,1,0,b,2.71860960000049,1,0,1,1,0A,3A,A03,3.43398720448515,0.54638667806098,0.411530091681106,0.5,0.5,0.5,0.626648936069328,0.5,0.45361332193902,0.5,0.5,0.661285967281881,0.5,0.5,0.5,0.45361332193902,0.626648936069328,0.522165170406669,0.477834829593331,0.54638667806098,0.5,0.214637155181131,0.747661672020916,0.45361332193902,0.0420832302579139,0.5,0.0927733561219598,1.08647103315591,7.38791590991105,3.31939233695995,0.5,48.6930146599232
CBC_1007,CBC_1007_MSI_TV_v3_Vset1_Tset3_2023-06-21_16h50.43.207.csv,4,17,2,3,z,0,1,2,tac,D,63,1,2D,3D,0,1,z,1.94528710000122,0,1,1,1,3D,2D,D23,2.36712361413162,0.588469908318894,0.411530091681106,0.5,0.5,0.5,0.626648936069328,0.5,0.45361332193902,0.5,0.5,0.661285967281881,0.5,0.5,0.5,0.45361332193902,0.626648936069328,0.580089632331194,0.419910367668806,0.626648936069328,0.45361332193902,0.654189124646524,0.98076264818983,0.373351063930672,0.0346370312125528,0.5,0.0927733561219598,1.08647103315591,7.38791590991105,3.31939233695995,0.5,48.6930146599232
CBC_1007,CBC_1007_MSI_TV_v3_Vset1_Tset3_2023-06-21_16h50.43.207.csv,4,18,0,2,z,0,1,1,tac,C,27,1,0C,2C,0,1,z,2.88618900000074,0,1,1,1,2C,0C,C02,2.80336038090653,0.588469908318894,0.411530091681106,0.5,0.5,0.5,0.626648936069328,0.5,0.45361332193902,0.5,0.5,0.661285967281881,0.5,0.5,0.5,0.45361332193902,0.661285967281881,0.569442829684487,0.430557170315513,0.661285967281881,0.5,0.269774658688869,0.967948865581322,0.338714032718119,0.0314236375808632,0.5,0.0927733561219598,1.08647103315591,7.38791590991105,3.31939233695995,0.5,48.6930146599232
CBC_1007,CBC_1007_MSI_TV_v3_Vset1_Tset3_2023-06-21_16h50.43.207.csv,4,19,0,1,b,1,0,0,tac,A,63,1,0A,1A,1,0,b,3.09496350000154,1,0,1,1,0A,1A,A01,2.42774823594805,0.588469908318894,0.411530091681106,0.5,0.5,0.5,0.626648936069328,0.5,0.45361332193902,0.5,0.5,0.692709604862744,0.5,0.5,0.5,0.45361332193902,0.661285967281881,0.588469908318894,0.411530091681106,0.588469908318894,0.411530091681106,0.182137875350709,0.98711509763917,0.411530091681106,0.038179027750434,0.5,0.0927733561219598,1.08647103315591,7.38791590991105,3.31939233695995,0.5,48.6930146599232
CBC_1007,CBC_1007_MSI_TV_v3_Vset1_Tset3_2023-06-21_16h50.43.207.csv,4,20,1,0,b,1,0,3,tac,B,63,0,1B,0B,0,1,b,1.88815800000157,1,0,1,0,1B,0B,B10,3.55534806148941,0.626648936069328,0.411530091681106,0.5,0.5,0.5,0.626648936069328,0.5,0.45361332193902,0.5,0.5,0.692709604862744,0.5,0.5,0.5,0.45361332193902,0.661285967281881,0.556206033669717,0.443793966330283,0.626648936069328,0.5,0.498060057715052,0.940258112245916,-0.626648936069328,-0.058136324909407,0.5,0.0927733561219598,1.08647103315591,7.38791590991105,3.31939233695995,0.5,48.6930146599232
CBC_1007,CBC_1007_MSI_TV_v3_Vset1_Tset3_2023-06-21_16h50.43.207.csv,4,21,3,1,b,1,0,2,tac,D,27,1,3D,1D,1,0,b,2.2149129999998,1,0,1,1,3D,1D,D31,3.58351893845611,0.626648936069328,0.411530091681106,0.5,0.5,0.5,0.568512611159921,0.5,0.45361332193902,0.5,0.5,0.692709604862744,0.5,0.5,0.5,0.45361332193902,0.661285967281881,0.569442829684487,0.430557170315513,0.661285967281881,0.5,0.493708741666114,0.967788704369471,0.338714032718119,0.0314236375808632,0.5,0.0927733561219598,1.08647103315591,7.38791590991105,3.31939233695995,0.5,48.6930146599232
CBC_1007,CBC_1007_MSI_TV_v3_Vset1_Tset3_2023-06-21_16h50.43.207.csv,4,22,3,2,z,0,1,1,tac,C,63,1,3C,2C,0,1,z,2.16772760000094,0,1,1,1,2C,3C,C32,2.91777073208428,0.626648936069328,0.411530091681106,0.5,0.5,0.5,0.568512611159921,0.5,0.45361332193902,0.5,0.5,0.692709604862744,0.5,0.5,0.5,0.45361332193902,0.692709604862744,0.580786473118459,0.419213526881541,0.692709604862744,0.5,0.553014293374179,0.981368901607412,0.307290395137256,0.0285083612609264,0.5,0.0927733561219598,1.08647103315591,7.38791590991105,3.31939233695995,0.5,48.6930146599232
CBC_1007,CBC_1007_MSI_TV_v3_Vset1_Tset3_2023-06-21_16h50.43.207.csv,4,23,0,1,z,0,1,3,tac,B,63,1,0B,1B,0,1,z,1.51004510000166,0,1,1,1,1B,0B,B01,2.53897387105828,0.626648936069328,0.411530091681106,0.5,0.5,0.5,0.568512611159921,0.5,0.45361332193902,0.5,0.5,0.72121796612367,0.5,0.5,0.5,0.45361332193902,0.692709604862744,0.532059804650105,0.467940195349895,0.568512611159921,0.5,0.194136164339462,0.827313642521358,0.431487388840079,0.0400305331869952,0.5,0.0927733561219598,1.08647103315591,7.38791590991105,3.31939233695995,0.5,48.6930146599232
CBC_1007,CBC_1007_MSI_TV_v3_Vset1_Tset3_2023-06-21_16h50.43.207.csv,4,24,0,2,b,1,0,0,tac,A,27,1,0A,2A,1,0,b,3.10006939999948,1,0,1,1,0A,2A,A02,3.66356164612965,0.626648936069328,0.411530091681106,0.5,0.5,0.5,0.608543144346916,0.5,0.45361332193902,0.5,0.5,0.72121796612367,0.5,0.5,0.5,0.45361332193902,0.692709604862744,0.556206033669717,0.443793966330283,0.626648936069328,0.5,0.228799682233518,0.940159731850902,0.373351063930672,0.0346370312125528,0.5,0.0927733561219598,1.08647103315591,7.38791590991105,3.31939233695995,0.5,48.6930146599232
CBC_1007,CBC_1007_MSI_TV_v3_Vset1_Tset3_2023-06-21_16h50.43.207.csv,4,25,3,2,b,1,0,2,tac,D,63,1,3D,2D,1,0,b,2.65758939999978,1,0,1,1,3D,2D,D32,2.99573227355399,0.661285967281881,0.411530091681106,0.5,0.5,0.5,0.608543144346916,0.5,0.45361332193902,0.5,0.5,0.72121796612367,0.5,0.5,0.5,0.45361332193902,0.692709604862744,0.60428836296191,0.39571163703809,0.692709604862744,0.45361332193902,0.278912876615111,0.994022471288809,0.307290395137256,0.0285083612609264,0.5,0.0927733561219598,1.08647103315591,7.38791590991105,3.31939233695995,0.5,48.6930146599232
CBC_1007,CBC_1007_MSI_TV_v3_Vset1_Tset3_2023-06-21_16h50.43.207.csv,4,26,0,2,z,0,1,1,tac,C,27,1,0C,2C,0,1,z,2.15694570000051,0,1,1,1,2C,0C,C02,2.6149597780362,0.661285967281881,0.411530091681106,0.5,0.5,0.5,0.608543144346916,0.5,0.45361332193902,0.5,0.5,0.72121796612367,0.5,0.5,0.5,0.45361332193902,0.72121796612367,0.590572679185948,0.409427320814052,0.72121796612367,0.5,0.583610069200256,0.988389036460109,0.27878203387633,0.025863544909213,0.5,0.0927733561219598,1.08647103315591,7.38791590991105,3.31939233695995,0.5,48.6930146599232
CBC_1007,CBC_1007_MSI_TV_v3_Vset1_Tset3_2023-06-21_16h50.43.207.csv,4,27,0,1,z,0,1,3,tac,B,63,1,0B,1B,0,1,z,1.56764789999943,0,1,1,1,1B,0B,B01,2.35137525716348,0.661285967281881,0.411530091681106,0.5,0.5,0.5,0.608543144346916,0.5,0.45361332193902,0.5,0.5,0.747081511032883,0.5,0.5,0.5,0.45361332193902,0.72121796612367,0.548957564214094,0.451042435785906,0.608543144346916,0.5,0.332114435605971,0.916994406491921,0.391456855653084,0.0363167662758862,0.5,0.0927733561219598,1.08647103315591,7.38791590991105,3.31939233695995,0.5,48.6930146599232
CBC_1007,CBC_1007_MSI_TV_v3_Vset1_Tset3_2023-06-21_16h50.43.207.csv,4,28,1,0,z,0,1,0,tac,A,63,1,1A,0A,0,1,z,2.45552660000067,0,1,1,1,0A,1A,A10,3.76120011569356,0.661285967281881,0.411530091681106,0.5,0.5,0.5,0.644859910622802,0.5,0.45361332193902,0.5,0.5,0.747081511032883,0.5,0.5,0.5,0.45361332193902,0.72121796612367,0.616402002707806,0.383597997292194,0.661285967281881,0.411530091681106,0.34570114002708,0.99671628179853,0.338714032718119,0.0314236375808632,0.5,0.0927733561219598,1.08647103315591,7.38791590991105,3.31939233695995,0.5,48.6930146599232
CBC_1007,CBC_1007_MSI_TV_v3_Vset1_Tset3_2023-06-21_16h50.43.207.csv,4,29,2,3,b,1,0,1,tac,C,63,1,2C,3C,1,0,b,2.3321360000009,1,0,1,1,2C,3C,C23,2.68557734525015,0.692709604862744,0.411530091681106,0.5,0.5,0.5,0.644859910622802,0.5,0.45361332193902,0.5,0.5,0.747081511032883,0.5,0.5,0.5,0.45361332193902,0.72121796612367,0.599063897927666,0.400936102072334,0.747081511032883,0.5,0.470861834195908,0.99233058148604,0.252918488967117,0.0234640970467743,0.5,0.0927733561219598,1.08647103315591,7.38791590991105,3.31939233695995,0.5,48.6930146599232
CBC_1007,CBC_1007_MSI_TV_v3_Vset1_Tset3_2023-06-21_16h50.43.207.csv,4,30,1,3,z,0,1,2,tac,D,27,1,1D,3D,0,1,z,2.17157860000043,0,1,1,1,3D,1D,D13,3.80666248977032,0.692709604862744,0.411530091681106,0.5,0.5,0.5,0.644859910622802,0.5,0.45361332193902,0.5,0.5,0.770545608079658,0.5,0.5,0.5,0.45361332193902,0.72121796612367,0.590572679185948,0.409427320814052,0.72121796612367,0.5,0.574236180209658,0.988380302343277,0.27878203387633,0.025863544909213,0.5,0.0927733561219598,1.08647103315591,7.38791590991105,3.31939233695995,0.5,48.6930146599232
CBC_1007,CBC_1007_MSI_TV_v3_Vset1_Tset3_2023-06-21_16h50.43.207.csv,4,31,0,1,b,1,0,0,tac,A,63,1,0A,1A,1,0,b,2.9246734999997,1,0,1,1,0A,1A,A01,2.4423470353692,0.692709604862744,0.411530091681106,0.5,0.5,0.5,0.644859910622802,0.5,0.45361332193902,0.5,0.5,0.770545608079658,0.5,0.5,0.5,0.45361332193902,0.747081511032883,0.627318151150379,0.372681848849621,0.692709604862744,0.411530091681106,0.109028317624515,0.998074955493195,0.307290395137256,0.0285083612609264,0.5,0.0927733561219598,1.08647103315591,7.38791590991105,3.31939233695995,0.5,48.6930146599232
CBC_1007,CBC_1007_MSI_TV_v3_Vset1_Tset3_2023-06-21_16h50.43.207.csv,4,32,2,3,z,0,1,2,tac,D,63,1,2D,3D,0,1,z,2.01514750000024,0,1,1,1,3D,2D,D23,2.46385324059017,0.72121796612367,0.411530091681106,0.5,0.5,0.5,0.644859910622802,0.5,0.45361332193902,0.5,0.5,0.770545608079658,0.5,0.5,0.5,0.45361332193902,0.747081511032883,0.622207650534934,0.377792349465066,0.747081511032883,0.45361332193902,0.739706888894026,0.997516308837307,0.252918488967117,0.0234640970467743,0.5,0.0927733561219598,1.08647103315591,7.38791590991105,3.31939233695995,0.5,48.6930146599232
CBC_1007,CBC_1007_MSI_TV_v3_Vset1_Tset3_2023-06-21_16h50.43.207.csv,4,33,1,2,b,1,0,3,tac,B,9,1,1B,2B,1,0,b,1.98820850000084,1,0,1,1,1B,2B,B12,3.87120101090789,0.72121796612367,0.411530091681106,0.5,0.5,0.5,0.644859910622802,0.5,0.45361332193902,0.5,0.5,0.770545608079658,0.5,0.5,0.5,0.45361332193902,0.770545608079658,0.563265343330958,0.436734656669042,0.644859910622802,0.5,0.534203391415314,0.957028446152652,0.355140089377198,0.0329475379849754,0.5,0.0927733561219598,1.08647103315591,7.38791590991105,3.31939233695995,0.5,48.6930146599232
CBC_1007,CBC_1007_MSI_TV_v3_Vset1_Tset3_2023-06-21_16h50.43.207.csv,4,34,0,1,b,1,0,0,tac,A,63,1,0A,1A,NaN,NaN,None,NaN,NaN,NaN,NaN,NaN,,,A01,2.28238238567653,0.72121796612367,0.411530091681106,0.5,0.5,0.5,0.677807448607778,0.5,0.45361332193902,0.5,0.5,0.770545608079658,0.5,0.5,0.5,0.45361332193902,0.770545608079658,0,0,0,0,NaN,0,0,0,0.5,0.0927733561219598,1.08647103315591,7.38791590991105,3.31939233695995,0.5,48.6930146599232
CBC_1007,CBC_1007_MSI_TV_v3_Vset1_Tset3_2023-06-21_16h50.43.207.csv,4,35,1,2,z,0,1,1,tac,C,9,1,1C,2C,0,1,z,2.00856659999954,0,1,1,1,2C,1C,C12,3.91202300542815,0.72121796612367,0.411530091681106,0.5,0.5,0.5,0.677807448607778,0.5,0.45361332193902,0.5,0.5,0.770545608079658,0.5,0.5,0.5,0.45361332193902,0.770545608079658,0.606468278808412,0.393531721191588,0.770545608079658,0.5,0.730379570944054,0.994647315774841,0.229454391920342,0.0212872540153737,0.5,0.0927733561219598,1.08647103315591,7.38791590991105,3.31939233695995,0.5,48.6930146599232
CBC_1007,CBC_1007_MSI_TV_v3_Vset1_Tset3_2023-06-21_16h50.43.207.csv,4,36,0,1,z,0,1,3,tac,B,63,1,0B,1B,0,1,z,2.20235330000105,0,1,1,1,1B,0B,B01,2.32238772029023,0.72121796612367,0.411530091681106,0.5,0.5,0.5,0.677807448607778,0.5,0.45361332193902,0.5,0.5,0.791832862095031,0.5,0.5,0.5,0.45361332193902,0.770545608079658,0.575482392651683,0.424517607348317,0.677807448607778,0.5,0.520214615750611,0.976042877238965,0.322192551392222,0.0298908843101535,0.5,0.0927733561219598,1.08647103315591,7.38791590991105,3.31939233695995,0.5,48.6930146599232
CBC_1007,CBC_1007_MSI_TV_v3_Vset1_Tset3_2023-06-21_16h50.43.207.csv,4,37,1,0,z,0,1,0,tac,A,63,0,1A,0A,1,0,z,1.96928800000205,0,1,1,0,0A,1A,A10,3.25809653802148,0.72121796612367,0.411530091681106,0.5,0.5,0.5,0.707698332917931,0.5,0.45361332193902,0.5,0.5,0.791832862095031,0.5,0.5,0.5,0.45361332193902,0.770545608079658,0.636697596746591,0.363302403253409,0.72121796612367,0.411530091681106,0.791239941827634,0.998781604655303,-0.72121796612367,-0.0669098112127468,0.5,0.0927733561219598,1.08647103315591,7.38791590991105,3.31939233695995,0.5,48.6930146599232
CBC_1007,CBC_1007_MSI_TV_v3_Vset1_Tset3_2023-06-21_16h50.43.207.csv,4,38,1,0,b,1,0,3,tac,B,63,1,1B,0B,1,0,b,1.56602320000093,1,0,1,1,1B,0B,B10,3.27714473299218,0.654308154910923,0.411530091681106,0.5,0.5,0.5,0.707698332917931,0.5,0.45361332193902,0.5,0.5,0.791832862095031,0.5,0.5,0.5,0.45361332193902,0.770545608079658,0.585989326662441,0.414010673337559,0.707698332917931,0.5,0.631402893562651,0.985501722121192,0.292301667082069,0.0271178066552473,0.5,0.0927733561219598,1.08647103315591,7.38791590991105,3.31939233695995,0.5,48.6930146599232
CBC_1007,CBC_1007_MSI_TV_v3_Vset1_Tset3_2023-06-21_16h50.43.207.csv,4,39,3,1,b,1,0,2,tac,D,27,1,3D,1D,1,0,b,1.96836520000033,1,0,1,1,3D,1D,D31,3.29583686600433,0.654308154910923,0.411530091681106,0.5,0.5,0.5,0.734816139573178,0.5,0.45361332193902,0.5,0.5,0.791832862095031,0.5,0.5,0.5,0.45361332193902,0.770545608079658,0.606468278808412,0.393531721191588,0.770545608079658,0.5,0.766618706266979,0.994636930176968,0.229454391920342,0.0212872540153737,0.5,0.0927733561219598,1.08647103315591,7.38791590991105,3.31939233695995,0.5,48.6930146599232
CBC_1007,CBC_1007_MSI_TV_v3_Vset1_Tset3_2023-06-21_16h50.43.207.csv,4,40,2,3,b,1,0,1,tac,C,63,1,2C,3C,1,0,b,2.20886940000128,1,0,1,1,2C,3C,C23,2.62103882411258,0.654308154910923,0.411530091681106,0.5,0.5,0.5,0.734816139573178,0.5,0.45361332193902,0.5,0.5,0.791832862095031,0.5,0.5,0.5,0.45361332193902,0.791832862095031,0.612953026145252,0.387046973854748,0.791832862095031,0.5,0.545424810491732,0.996101076284588,0.208167137904969,0.0193123640177468,0.5,0.0927733561219598,1.08647103315591,7.38791590991105,3.31939233695995,0.5,48.6930146599232
CBC_1007,CBC_1007_MSI_TV_v3_Vset1_Tset3_2023-06-21_16h50.43.207.csv,4,41,2,0,z,0,1,0,tac,A,27,1,2A,0A,0,1,z,2.26000190000195,0,1,1,1,0A,2A,A20,3.3322045101752,0.654308154910923,0.411530091681106,0.5,0.5,0.5,0.734816139573178,0.5,0.45361332193902,0.5,0.5,0.811145226112778,0.5,0.5,0.5,0.45361332193902,0.791832862095031,0.56684010428863,0.43315989571137,0.654308154910923,0.5,0.467674412609454,0.963539655590794,0.345691845089077,0.0320709926529063,0.5,0.0927733561219598,1.08647103315591,7.38791590991105,3.31939233695995,0.5,48.6930146599232
CBC_1007,CBC_1007_MSI_TV_v3_Vset1_Tset3_2023-06-21_16h50.43.207.csv,4,42,3,2,b,1,0,2,tac,D,63,1,3D,2D,1,0,b,2.15760820000105,1,0,1,1,3D,2D,D32,2.94443897916644,0.68637914756383,0.411530091681106,0.5,0.5,0.5,0.734816139573178,0.5,0.45361332193902,0.5,0.5,0.811145226112778,0.5,0.5,0.5,0.45361332193902,0.791832862095031,0.635782478798283,0.364217521201717,0.791832862095031,0.45361332193902,0.534135758118496,0.99871879086841,0.208167137904969,0.0193123640177468,0.5,0.0927733561219598,1.08647103315591,7.38791590991105,3.31939233695995,0.5,48.6930146599232
CBC_1007,CBC_1007_MSI_TV_v3_Vset1_Tset3_2023-06-21_16h50.43.207.csv,4,43,3,1,z,0,1,3,tac,B,27,1,3B,1B,0,1,z,2.22163330000149,0,1,1,1,1B,3B,B31,3.36729582998647,0.68637914756383,0.411530091681106,0.5,0.5,0.5,0.734816139573178,0.5,0.45361332193902,0.5,0.5,0.811145226112778,0.5,0.5,0.5,0.45361332193902,0.811145226112778,0.618308585717972,0.381691414282028,0.734816139573178,0.45361332193902,0.522646857414843,0.996982297997087,0.265183860426822,0.0246019967211736,0.5,0.0927733561219598,1.08647103315591,7.38791590991105,3.31939233695995,0.5,48.6930146599232
CBC_1007,CBC_1007_MSI_TV_v3_Vset1_Tset3_2023-06-21_16h50.43.207.csv,4,44,2,3,b,1,0,1,tac,C,63,1,2C,3C,1,0,b,3.06092380000155,1,0,1,1,2C,3C,C23,2.46809953147162,0.68637914756383,0.411530091681106,0.5,0.5,0.5,0.759418136294352,0.5,0.45361332193902,0.5,0.5,0.811145226112778,0.5,0.5,0.5,0.45361332193902,0.811145226112778,0.618653990387948,0.381346009612052,0.811145226112778,0.5,0.10400579190841,0.99702330806752,0.188854773887222,0.0175206911931714,0.5,0.0927733561219598,1.08647103315591,7.38791590991105,3.31939233695995,0.5,48.6930146599232
