ID,filename,session,trial,visStimLeft,visStimRight,correctKey,leftCorrect,rightCorrect,secondStim,mod2Type,mod2Stim,frequency,rewardAccurate,stimPairLeft,stimPairRight,pCorrectLeft,pCorrectRight,key,reactionTime,choiceLeft,choiceRight,choiceAccurate,reward,chosenPair,otherPair,triplet,surprise,0A belief,1A belief,2A belief,3A belief,0B belief,1B belief,2B belief,3B belief,0C belief,1C belief,2C belief,3C belief,0D belief,1D belief,2D belief,3D belief,beliefPairNorm,beliefOtherPairNorm,beliefPair,beliefOtherPair,lik,corrLik,rewardPE,update2,fitCBCsimpleRW_CBCdriftDiffusionLR_pwBelief_startBelief,fitCBCsimpleRW_CBCdriftDiffusionLR_pwBelief_alpha1,fitCBCsimpleRW_CBCdriftDiffusionLR_pwBelief_nonDecisionTime,fitCBCsimpleRW_CBCdriftDiffusionLR_pwBelief_weight,fitCBCsimpleRW_CBCdriftDiffusionLR_pwBelief_startingBoundary,fitCBCsimpleRW_CBCdriftDiffusionLR_pwBelief_startingPoint,fit_CBCsimpleRW_CBCdriftDiffusionLR_pwBelief_NLL
CBC_1007,CBC_1007_MSI_AV_v3_Vset2_Aset1_2023-06-21_15h59.48.192.csv,1,1,0,1,z,0,1,3,aud,B,63,1,0B,1B,0,1,b,2.25464279999869,1,0,0,0,0B,1B,B01,2.77258872223978,0.5,0.5,0.5,0.5,0.5,0.5,0.5,0.5,0.5,0.5,0.5,0.5,0.5,0.5,0.5,0.5,0.5,0.5,0.5,0.5,0.157578859565985,0.499451615282731,-0.5,-0.0504835085496196,0.5,0.100967017099239,0.818558534812368,3.69610599479128,2.35306497054958,0.5,41.1768779165435
CBC_1007,CBC_1007_MSI_AV_v3_Vset2_Aset1_2023-06-21_15h59.48.192.csv,1,2,0,1,b,1,0,0,aud,A,63,1,0A,1A,1,0,z,1.56986979999965,0,1,0,0,1A,0A,A01,2.83321334405622,0.5,0.5,0.5,0.5,0.44951649145038,0.5,0.5,0.5,0.5,0.5,0.5,0.5,0.5,0.5,0.5,0.5,0.5,0.5,0.5,0.5,0.286216730202188,0.499779383406249,-0.5,-0.0504835085496196,0.5,0.100967017099239,0.818558534812368,3.69610599479128,2.35306497054958,0.5,41.1768779165435
CBC_1007,CBC_1007_MSI_AV_v3_Vset2_Aset1_2023-06-21_15h59.48.192.csv,1,3,2,3,z,0,1,2,aud,D,63,1,2D,3D,0,1,z,2.18656360000023,0,1,1,1,3D,2D,D23,2.89037175789616,0.5,0.44951649145038,0.5,0.5,0.44951649145038,0.5,0.5,0.5,0.5,0.5,0.5,0.5,0.5,0.5,0.5,0.5,0.5,0.5,0.5,0.5,0.167669512757258,0.500181289175963,0.5,0.0504835085496196,0.5,0.100967017099239,0.818558534812368,3.69610599479128,2.35306497054958,0.5,41.1768779165435
CBC_1007,CBC_1007_MSI_AV_v3_Vset2_Aset1_2023-06-21_15h59.48.192.csv,1,4,2,1,z,0,1,3,aud,B,9,1,2B,1B,0,1,b,2.28754330000083,1,0,0,0,2B,1B,B21,2.94443897916644,0.5,0.44951649145038,0.5,0.5,0.44951649145038,0.5,0.5,0.5,0.5,0.5,0.5,0.5,0.5,0.5,0.5,0.55048350854962,0.5,0.5,0.5,0.5,0.153306298515867,0.500357515510253,-0.5,-0.0504835085496196,0.5,0.100967017099239,0.818558534812368,3.69610599479128,2.35306497054958,0.5,41.1768779165435
CBC_1007,CBC_1007_MSI_AV_v3_Vset2_Aset1_2023-06-21_15h59.48.192.csv,1,5,0,2,b,1,0,0,aud,A,27,1,0A,2A,1,0,z,2.41652909999902,0,1,0,0,2A,0A,A02,2.99573227355399,0.5,0.44951649145038,0.5,0.5,0.44951649145038,0.5,0.44951649145038,0.5,0.5,0.5,0.5,0.5,0.5,0.5,0.5,0.55048350854962,0.5,0.5,0.5,0.5,0.136453734507993,0.499585564868942,-0.5,-0.0504835085496196,0.5,0.100967017099239,0.818558534812368,3.69610599479128,2.35306497054958,0.5,41.1768779165435
CBC_1007,CBC_1007_MSI_AV_v3_Vset2_Aset1_2023-06-21_15h59.48.192.csv,1,6,2,3,b,1,0,1,aud,C,63,1,2C,3C,1,0,b,2.19427229999928,1,0,1,1,2C,3C,C23,3.04452243772342,0.5,0.44951649145038,0.44951649145038,0.5,0.44951649145038,0.5,0.44951649145038,0.5,0.5,0.5,0.5,0.5,0.5,0.5,0.5,0.55048350854962,0.5,0.5,0.5,0.5,0.166210606243289,0.499242796705106,0.5,0.0504835085496196,0.5,0.100967017099239,0.818558534812368,3.69610599479128,2.35306497054958,0.5,41.1768779165435
CBC_1007,CBC_1007_MSI_AV_v3_Vset2_Aset1_2023-06-21_15h59.48.192.csv,1,7,1,3,z,0,1,2,aud,D,27,1,1D,3D,0,1,z,1.58380880000186,0,1,1,1,3D,1D,D13,3.09104245335832,0.5,0.44951649145038,0.44951649145038,0.5,0.44951649145038,0.5,0.44951649145038,0.5,0.5,0.5,0.55048350854962,0.5,0.5,0.5,0.5,0.55048350854962,0.55048350854962,0.44951649145038,0.55048350854962,0.5,0.416753135422093,0.706758994367602,0.44951649145038,0.0453863392786606,0.5,0.100967017099239,0.818558534812368,3.69610599479128,2.35306497054958,0.5,41.1768779165435
CBC_1007,CBC_1007_MSI_AV_v3_Vset2_Aset1_2023-06-21_15h59.48.192.csv,1,8,1,0,z,0,1,0,aud,A,63,1,1A,0A,0,1,b,1.65568639999947,1,0,0,0,1A,0A,A10,3.13549421592915,0.5,0.44951649145038,0.44951649145038,0.5,0.44951649145038,0.5,0.44951649145038,0.5,0.5,0.5,0.55048350854962,0.5,0.5,0.5,0.5,0.59586984782828,0.44951649145038,0.55048350854962,0.44951649145038,0.5,0.162042825378582,0.292899617505694,-0.44951649145038,-0.0453863392786606,0.5,0.100967017099239,0.818558534812368,3.69610599479128,2.35306497054958,0.5,41.1768779165435
CBC_1007,CBC_1007_MSI_AV_v3_Vset2_Aset1_2023-06-21_15h59.48.192.csv,1,9,2,0,b,1,0,1,aud,C,27,1,2C,0C,1,0,b,3.50904509999964,1,0,1,1,2C,0C,C20,3.17805383034795,0.5,0.40413015217172,0.44951649145038,0.5,0.44951649145038,0.5,0.44951649145038,0.5,0.5,0.5,0.55048350854962,0.5,0.5,0.5,0.5,0.59586984782828,0.55048350854962,0.44951649145038,0.55048350854962,0.5,0.0663123821058807,0.705108038113545,0.44951649145038,0.0453863392786606,0.5,0.100967017099239,0.818558534812368,3.69610599479128,2.35306497054958,0.5,41.1768779165435
CBC_1007,CBC_1007_MSI_AV_v3_Vset2_Aset1_2023-06-21_15h59.48.192.csv,1,10,2,3,z,0,1,2,aud,D,63,1,2D,3D,0,1,z,1.15311800000018,0,1,1,1,3D,2D,D23,2.52572864430826,0.5,0.40413015217172,0.44951649145038,0.5,0.44951649145038,0.5,0.44951649145038,0.5,0.5,0.5,0.59586984782828,0.5,0.5,0.5,0.5,0.59586984782828,0.59586984782828,0.40413015217172,0.59586984782828,0.5,0.648583417157527,0.841235658148047,0.40413015217172,0.0408038159846402,0.5,0.100967017099239,0.818558534812368,3.69610599479128,2.35306497054958,0.5,41.1768779165435
CBC_1007,CBC_1007_MSI_AV_v3_Vset2_Aset1_2023-06-21_15h59.48.192.csv,1,11,1,0,b,1,0,3,aud,B,63,0,1B,0B,0,1,b,2.48599909999939,1,0,1,0,1B,0B,B10,3.25809653802148,0.5,0.40413015217172,0.44951649145038,0.5,0.44951649145038,0.5,0.44951649145038,0.5,0.5,0.5,0.59586984782828,0.5,0.5,0.5,0.5,0.63667366381292,0.55048350854962,0.44951649145038,0.5,0.44951649145038,0.177279305205683,0.706310467081741,-0.5,-0.0504835085496196,0.5,0.100967017099239,0.818558534812368,3.69610599479128,2.35306497054958,0.5,41.1768779165435
CBC_1007,CBC_1007_MSI_AV_v3_Vset2_Aset1_2023-06-21_15h59.48.192.csv,1,12,0,1,b,1,0,0,aud,A,63,1,0A,1A,NaN,NaN,[],NaN,NaN,NaN,NaN,NaN,,,A01,2.60268968544438,0.5,0.40413015217172,0.44951649145038,0.5,0.44951649145038,0.44951649145038,0.44951649145038,0.5,0.5,0.5,0.59586984782828,0.5,0.5,0.5,0.5,0.63667366381292,0,0,0,0,NaN,0,0,0,0.5,0.100967017099239,0.818558534812368,3.69610599479128,2.35306497054958,0.5,41.1768779165435
CBC_1007,CBC_1007_MSI_AV_v3_Vset2_Aset1_2023-06-21_15h59.48.192.csv,1,13,2,3,z,0,1,2,aud,D,63,1,2D,3D,0,1,z,1.0379326000002,0,1,1,1,3D,2D,D23,2.23359222150709,0.5,0.40413015217172,0.44951649145038,0.5,0.44951649145038,0.44951649145038,0.44951649145038,0.5,0.5,0.5,0.59586984782828,0.5,0.5,0.5,0.5,0.63667366381292,0.63667366381292,0.36332633618708,0.63667366381292,0.5,0.571087096655566,0.914877973239608,0.36332633618708,0.0366839763984048,0.5,0.100967017099239,0.818558534812368,3.69610599479128,2.35306497054958,0.5,41.1768779165435
CBC_1007,CBC_1007_MSI_AV_v3_Vset2_Aset1_2023-06-21_15h59.48.192.csv,1,14,2,0,b,1,0,1,aud,C,27,1,2C,0C,1,0,b,1.70076030000018,1,0,1,1,2C,0C,C20,2.67414864942653,0.5,0.40413015217172,0.44951649145038,0.5,0.44951649145038,0.44951649145038,0.44951649145038,0.5,0.5,0.5,0.59586984782828,0.5,0.5,0.5,0.5,0.673357640211325,0.59586984782828,0.40413015217172,0.59586984782828,0.5,0.474058359081452,0.841181046922412,0.40413015217172,0.0408038159846402,0.5,0.100967017099239,0.818558534812368,3.69610599479128,2.35306497054958,0.5,41.1768779165435
CBC_1007,CBC_1007_MSI_AV_v3_Vset2_Aset1_2023-06-21_15h59.48.192.csv,1,15,0,1,b,1,0,0,aud,A,63,1,0A,1A,1,0,b,1.61453559999973,1,0,1,1,0A,1A,A01,2.30258509299405,0.5,0.40413015217172,0.44951649145038,0.5,0.44951649145038,0.44951649145038,0.44951649145038,0.5,0.5,0.5,0.63667366381292,0.5,0.5,0.5,0.5,0.673357640211325,0.59586984782828,0.40413015217172,0.5,0.40413015217172,0.52118792899761,0.841722807639242,0.5,0.0504835085496196,0.5,0.100967017099239,0.818558534812368,3.69610599479128,2.35306497054958,0.5,41.1768779165435
CBC_1007,CBC_1007_MSI_AV_v3_Vset2_Aset1_2023-06-21_15h59.48.192.csv,1,16,1,3,b,1,0,3,aud,B,27,1,1B,3B,1,0,z,1.10762390000127,0,1,0,0,3B,1B,B13,3.43398720448515,0.55048350854962,0.40413015217172,0.44951649145038,0.5,0.44951649145038,0.44951649145038,0.44951649145038,0.5,0.5,0.5,0.63667366381292,0.5,0.5,0.5,0.5,0.673357640211325,0.55048350854962,0.44951649145038,0.5,0.44951649145038,0.418576772101448,0.706069098957689,-0.5,-0.0504835085496196,0.5,0.100967017099239,0.818558534812368,3.69610599479128,2.35306497054958,0.5,41.1768779165435
CBC_1007,CBC_1007_MSI_AV_v3_Vset2_Aset1_2023-06-21_15h59.48.192.csv,1,17,3,2,z,0,1,1,aud,C,63,1,3C,2C,0,1,z,2.65874840000106,0,1,1,1,2C,3C,C32,3.46573590279973,0.55048350854962,0.40413015217172,0.44951649145038,0.5,0.44951649145038,0.44951649145038,0.44951649145038,0.44951649145038,0.5,0.5,0.63667366381292,0.5,0.5,0.5,0.5,0.673357640211325,0.63667366381292,0.36332633618708,0.63667366381292,0.5,0.141279606482604,0.915006741305146,0.36332633618708,0.0366839763984048,0.5,0.100967017099239,0.818558534812368,3.69610599479128,2.35306497054958,0.5,41.1768779165435
CBC_1007,CBC_1007_MSI_AV_v3_Vset2_Aset1_2023-06-21_15h59.48.192.csv,1,18,2,3,z,0,1,2,aud,D,63,0,2D,3D,1,0,z,1.24820399999953,0,1,1,0,3D,2D,D23,2.11021320034659,0.55048350854962,0.40413015217172,0.44951649145038,0.5,0.44951649145038,0.44951649145038,0.44951649145038,0.44951649145038,0.5,0.5,0.673357640211325,0.5,0.5,0.5,0.5,0.673357640211325,0.673357640211325,0.326642359788675,0.673357640211325,0.5,1.05639205799011,0.953267807028293,-0.673357640211325,-0.0679869123731202,0.5,0.100967017099239,0.818558534812368,3.69610599479128,2.35306497054958,0.5,41.1768779165435
CBC_1007,CBC_1007_MSI_AV_v3_Vset2_Aset1_2023-06-21_15h59.48.192.csv,1,19,1,0,b,1,0,3,aud,B,63,1,1B,0B,1,0,z,2.7564556999987,0,1,0,0,0B,1B,B10,2.83321334405622,0.55048350854962,0.40413015217172,0.44951649145038,0.5,0.44951649145038,0.44951649145038,0.44951649145038,0.44951649145038,0.5,0.5,0.673357640211325,0.5,0.5,0.5,0.5,0.605370727838205,0.5,0.5,0.44951649145038,0.44951649145038,0.100732197934112,0.49929122074072,-0.44951649145038,-0.0453863392786606,0.5,0.100967017099239,0.818558534812368,3.69610599479128,2.35306497054958,0.5,41.1768779165435
CBC_1007,CBC_1007_MSI_AV_v3_Vset2_Aset1_2023-06-21_15h59.48.192.csv,1,20,2,0,z,0,1,0,aud,A,27,1,2A,0A,0,1,z,2.09992280000006,0,1,1,1,0A,2A,A20,3.55534806148941,0.55048350854962,0.40413015217172,0.44951649145038,0.5,0.40413015217172,0.44951649145038,0.44951649145038,0.44951649145038,0.5,0.5,0.673357640211325,0.5,0.5,0.5,0.5,0.605370727838205,0.599948112206778,0.400051887793222,0.55048350854962,0.44951649145038,0.304412769546976,0.850698627994226,0.44951649145038,0.0453863392786606,0.5,0.100967017099239,0.818558534812368,3.69610599479128,2.35306497054958,0.5,41.1768779165435
CBC_1007,CBC_1007_MSI_AV_v3_Vset2_Aset1_2023-06-21_15h59.48.192.csv,1,21,0,3,z,0,1,2,aud,D,9,1,0D,3D,0,1,z,1.40507149999939,0,1,1,1,3D,0D,D03,3.58351893845611,0.59586984782828,0.40413015217172,0.44951649145038,0.5,0.40413015217172,0.44951649145038,0.44951649145038,0.44951649145038,0.5,0.5,0.673357640211325,0.5,0.5,0.5,0.5,0.605370727838205,0.605370727838205,0.394629272161795,0.605370727838205,0.5,0.671034119848378,0.861664266670182,0.394629272161795,0.0398445404702203,0.5,0.100967017099239,0.818558534812368,3.69610599479128,2.35306497054958,0.5,41.1768779165435
CBC_1007,CBC_1007_MSI_AV_v3_Vset2_Aset1_2023-06-21_15h59.48.192.csv,1,22,2,3,b,1,0,1,aud,C,63,1,2C,3C,1,0,b,1.32206819999919,1,0,1,1,2C,3C,C23,2.91777073208428,0.59586984782828,0.40413015217172,0.44951649145038,0.5,0.40413015217172,0.44951649145038,0.44951649145038,0.44951649145038,0.5,0.5,0.673357640211325,0.5,0.5,0.5,0.5,0.645215268308425,0.673357640211325,0.326642359788675,0.673357640211325,0.5,0.992474737713255,0.953253771724591,0.326642359788675,0.032980104726119,0.5,0.100967017099239,0.818558534812368,3.69610599479128,2.35306497054958,0.5,41.1768779165435
CBC_1007,CBC_1007_MSI_AV_v3_Vset2_Aset1_2023-06-21_15h59.48.192.csv,1,23,3,1,z,0,1,3,aud,B,27,1,3B,1B,0,1,z,2.25454490000084,0,1,1,1,1B,3B,B31,3.63758615972639,0.59586984782828,0.40413015217172,0.44951649145038,0.5,0.40413015217172,0.44951649145038,0.44951649145038,0.44951649145038,0.5,0.5,0.706337744937444,0.5,0.5,0.5,0.5,0.645215268308425,0.5,0.5,0.44951649145038,0.44951649145038,0.157700880862637,0.499794782793038,0.55048350854962,0.0555806778205786,0.5,0.100967017099239,0.818558534812368,3.69610599479128,2.35306497054958,0.5,41.1768779165435
CBC_1007,CBC_1007_MSI_AV_v3_Vset2_Aset1_2023-06-21_15h59.48.192.csv,1,24,3,2,z,0,1,1,aud,C,63,1,3C,2C,0,1,z,1.90126140000029,0,1,1,1,2C,3C,C32,2.9704144655697,0.59586984782828,0.40413015217172,0.44951649145038,0.5,0.40413015217172,0.505097169270959,0.44951649145038,0.44951649145038,0.5,0.5,0.706337744937444,0.5,0.5,0.5,0.5,0.645215268308425,0.706337744937444,0.293662255062556,0.706337744937444,0.5,0.368772240462449,0.973076082034934,0.293662255062556,0.0296502019283022,0.5,0.100967017099239,0.818558534812368,3.69610599479128,2.35306497054958,0.5,41.1768779165435
CBC_1007,CBC_1007_MSI_AV_v3_Vset2_Aset1_2023-06-21_15h59.48.192.csv,1,25,2,3,z,0,1,2,aud,D,63,1,2D,3D,0,1,z,1.29213069999969,0,1,1,1,3D,2D,D23,2.07944154167984,0.59586984782828,0.40413015217172,0.44951649145038,0.5,0.40413015217172,0.505097169270959,0.44951649145038,0.44951649145038,0.5,0.5,0.735987946865746,0.5,0.5,0.5,0.5,0.645215268308425,0.645215268308425,0.354784731691575,0.645215268308425,0.5,0.899138237316899,0.926003115684874,0.354784731691575,0.0358215560712522,0.5,0.100967017099239,0.818558534812368,3.69610599479128,2.35306497054958,0.5,41.1768779165435
CBC_1007,CBC_1007_MSI_AV_v3_Vset2_Aset1_2023-06-21_15h59.48.192.csv,1,26,1,0,b,1,0,3,aud,B,63,1,1B,0B,1,0,b,1.45747579999988,1,0,1,1,1B,0B,B10,2.6149597780362,0.59586984782828,0.40413015217172,0.44951649145038,0.5,0.40413015217172,0.505097169270959,0.44951649145038,0.44951649145038,0.5,0.5,0.735987946865746,0.5,0.5,0.5,0.5,0.681036824379677,0.600770045984696,0.399229954015304,0.505097169270959,0.40413015217172,0.625988045149117,0.852563966591379,0.494902830729041,0.0499688625726809,0.5,0.100967017099239,0.818558534812368,3.69610599479128,2.35306497054958,0.5,41.1768779165435
CBC_1007,CBC_1007_MSI_AV_v3_Vset2_Aset1_2023-06-21_15h59.48.192.csv,1,27,0,3,b,1,0,0,aud,A,9,1,0A,3A,1,0,b,1.81029519999902,1,0,1,1,0A,3A,A03,3.73766961828337,0.59586984782828,0.40413015217172,0.44951649145038,0.5,0.40413015217172,0.55506603184364,0.44951649145038,0.44951649145038,0.5,0.5,0.735987946865746,0.5,0.5,0.5,0.5,0.681036824379677,0.59586984782828,0.40413015217172,0.59586984782828,0.5,0.419729154730613,0.841421904591196,0.40413015217172,0.0408038159846402,0.5,0.100967017099239,0.818558534812368,3.69610599479128,2.35306497054958,0.5,41.1768779165435
CBC_1007,CBC_1007_MSI_AV_v3_Vset2_Aset1_2023-06-21_15h59.48.192.csv,1,28,2,3,z,0,1,2,aud,D,63,1,2D,3D,0,1,z,0.982733799999551,0,1,1,1,3D,2D,D23,1.96944064646551,0.63667366381292,0.40413015217172,0.44951649145038,0.5,0.40413015217172,0.55506603184364,0.44951649145038,0.44951649145038,0.5,0.5,0.735987946865746,0.5,0.5,0.5,0.5,0.681036824379677,0.681036824379677,0.318963175620323,0.681036824379677,0.5,0.434219607294915,0.958883652079489,0.318963175620323,0.0322047604068847,0.5,0.100967017099239,0.818558534812368,3.69610599479128,2.35306497054958,0.5,41.1768779165435
CBC_1007,CBC_1007_MSI_AV_v3_Vset2_Aset1_2023-06-21_15h59.48.192.csv,1,29,2,0,b,1,0,1,aud,C,27,1,2C,0C,1,0,b,2.22869250000076,1,0,1,1,2C,0C,C20,2.68557734525015,0.63667366381292,0.40413015217172,0.44951649145038,0.5,0.40413015217172,0.55506603184364,0.44951649145038,0.44951649145038,0.5,0.5,0.735987946865746,0.5,0.5,0.5,0.5,0.713241584786562,0.735987946865746,0.264012053134254,0.735987946865746,0.5,0.147048695894918,0.983779480942129,0.264012053134254,0.0266565094832114,0.5,0.100967017099239,0.818558534812368,3.69610599479128,2.35306497054958,0.5,41.1768779165435
CBC_1007,CBC_1007_MSI_AV_v3_Vset2_Aset1_2023-06-21_15h59.48.192.csv,1,30,1,0,z,0,1,0,aud,A,63,0,1A,0A,1,0,z,1.40140400000018,0,1,1,0,0A,1A,A10,3.11351530921037,0.63667366381292,0.40413015217172,0.44951649145038,0.5,0.40413015217172,0.55506603184364,0.44951649145038,0.44951649145038,0.5,0.5,0.762644456348958,0.5,0.5,0.5,0.5,0.713241584786562,0.72096252678671,0.27903747321329,0.63667366381292,0.40413015217172,1.01009602292988,0.979058201581611,-0.63667366381292,-0.0642830407008344,0.5,0.100967017099239,0.818558534812368,3.69610599479128,2.35306497054958,0.5,41.1768779165435
CBC_1007,CBC_1007_MSI_AV_v3_Vset2_Aset1_2023-06-21_15h59.48.192.csv,1,31,1,0,b,1,0,3,aud,B,63,1,1B,0B,1,0,b,2.32691349999914,1,0,1,1,1B,0B,B10,2.4423470353692,0.572390623112086,0.40413015217172,0.44951649145038,0.5,0.40413015217172,0.55506603184364,0.44951649145038,0.44951649145038,0.5,0.5,0.762644456348958,0.5,0.5,0.5,0.5,0.713241584786562,0.647814526381261,0.352185473618739,0.55506603184364,0.40413015217172,0.217454819615531,0.928911379165211,0.44493396815636,0.0449236555708755,0.5,0.100967017099239,0.818558534812368,3.69610599479128,2.35306497054958,0.5,41.1768779165435
CBC_1007,CBC_1007_MSI_AV_v3_Vset2_Aset1_2023-06-21_15h59.48.192.csv,1,32,3,1,b,1,0,2,aud,D,27,1,3D,1D,1,0,b,1.18379920000007,1,0,1,1,3D,1D,D31,3.85014760171006,0.572390623112086,0.40413015217172,0.44951649145038,0.5,0.40413015217172,0.599989687414516,0.44951649145038,0.44951649145038,0.5,0.5,0.762644456348958,0.5,0.5,0.5,0.5,0.713241584786562,0.713241584786562,0.286758415213438,0.713241584786562,0.5,1.29654411515673,0.976033979885282,0.286758415213438,0.0289531418122059,0.5,0.100967017099239,0.818558534812368,3.69610599479128,2.35306497054958,0.5,41.1768779165435
CBC_1007,CBC_1007_MSI_AV_v3_Vset2_Aset1_2023-06-21_15h59.48.192.csv,1,33,3,2,z,0,1,1,aud,C,63,1,3C,2C,0,1,z,1.52717080000184,0,1,1,1,2C,3C,C32,2.77258872223978,0.572390623112086,0.40413015217172,0.44951649145038,0.5,0.40413015217172,0.599989687414516,0.44951649145038,0.44951649145038,0.5,0.5,0.762644456348958,0.5,0.5,0.5,0.5,0.742194726598768,0.762644456348958,0.237355543651042,0.762644456348958,0.5,0.764237671674955,0.989727570269327,0.237355543651042,0.023965081234414,0.5,0.100967017099239,0.818558534812368,3.69610599479128,2.35306497054958,0.5,41.1768779165435
CBC_1007,CBC_1007_MSI_AV_v3_Vset2_Aset1_2023-06-21_15h59.48.192.csv,1,34,1,0,b,1,0,3,aud,B,63,1,1B,0B,1,0,z,1.65293300000121,0,1,0,0,0B,1B,B10,2.28238238567653,0.572390623112086,0.40413015217172,0.44951649145038,0.5,0.40413015217172,0.599989687414516,0.44951649145038,0.44951649145038,0.5,0.5,0.786609537583372,0.5,0.5,0.5,0.5,0.742194726598768,0.311373169033886,0.688626830966114,0.40413015217172,0.599989687414516,0.0230717778009514,0.036251968751785,-0.40413015217172,-0.0408038159846402,0.5,0.100967017099239,0.818558534812368,3.69610599479128,2.35306497054958,0.5,41.1768779165435
CBC_1007,CBC_1007_MSI_AV_v3_Vset2_Aset1_2023-06-21_15h59.48.192.csv,1,35,0,1,b,1,0,0,aud,A,63,1,0A,1A,1,0,b,1.66228700000102,1,0,1,1,0A,1A,A01,2.52572864430826,0.572390623112086,0.40413015217172,0.44951649145038,0.5,0.36332633618708,0.599989687414516,0.44951649145038,0.44951649145038,0.5,0.5,0.786609537583372,0.5,0.5,0.5,0.5,0.742194726598768,0.66371567277059,0.33628432722941,0.572390623112086,0.40413015217172,0.59449153308444,0.945197236886403,0.427609376887914,0.043174443268037,0.5,0.100967017099239,0.818558534812368,3.69610599479128,2.35306497054958,0.5,41.1768779165435
CBC_1007,CBC_1007_MSI_AV_v3_Vset2_Aset1_2023-06-21_15h59.48.192.csv,1,36,1,2,z,0,1,1,aud,C,9,1,1C,2C,0,1,z,1.73870859999988,0,1,1,1,2C,1C,C12,3.93182563272433,0.615565066380123,0.40413015217172,0.44951649145038,0.5,0.36332633618708,0.599989687414516,0.44951649145038,0.44951649145038,0.5,0.5,0.786609537583372,0.5,0.5,0.5,0.5,0.742194726598768,0.786609537583372,0.213390462416628,0.786609537583372,0.5,0.381427141263616,0.993215376378805,0.213390462416628,0.0215453984676343,0.5,0.100967017099239,0.818558534812368,3.69610599479128,2.35306497054958,0.5,41.1768779165435
CBC_1007,CBC_1007_MSI_AV_v3_Vset2_Aset1_2023-06-21_15h59.48.192.csv,1,37,1,0,z,0,1,0,aud,A,63,1,1A,0A,0,1,z,1.44983950000096,0,1,1,1,0A,1A,A10,2.85263142991332,0.615565066380123,0.40413015217172,0.44951649145038,0.5,0.36332633618708,0.599989687414516,0.44951649145038,0.44951649145038,0.5,0.5,0.808154936051006,0.5,0.5,0.5,0.5,0.742194726598768,0.702462423177929,0.297537576822071,0.615565066380123,0.40413015217172,0.896146153623044,0.971215746845713,0.384434933619877,0.038815248516343,0.5,0.100967017099239,0.818558534812368,3.69610599479128,2.35306497054958,0.5,41.1768779165435
CBC_1007,CBC_1007_MSI_AV_v3_Vset2_Aset1_2023-06-21_15h59.48.192.csv,1,38,3,1,b,1,0,2,aud,D,27,1,3D,1D,1,0,b,1.0958456999997,1,0,1,1,3D,1D,D31,3.27714473299218,0.654380314896466,0.40413015217172,0.44951649145038,0.5,0.36332633618708,0.599989687414516,0.44951649145038,0.44951649145038,0.5,0.5,0.808154936051006,0.5,0.5,0.5,0.5,0.742194726598768,0.742194726598768,0.257805273401232,0.742194726598768,0.5,1.39671482778557,0.985433855743268,0.257805273401232,0.0260298294477762,0.5,0.100967017099239,0.818558534812368,3.69610599479128,2.35306497054958,0.5,41.1768779165435
CBC_1007,CBC_1007_MSI_AV_v3_Vset2_Aset1_2023-06-21_15h59.48.192.csv,1,39,0,1,z,0,1,3,aud,B,63,1,0B,1B,0,1,z,1.69739569999911,0,1,1,1,1B,0B,B01,3.29583686600433,0.654380314896466,0.40413015217172,0.44951649145038,0.5,0.36332633618708,0.599989687414516,0.44951649145038,0.44951649145038,0.5,0.5,0.808154936051006,0.5,0.5,0.5,0.5,0.768224556046544,0.724396954758406,0.275603045241594,0.599989687414516,0.36332633618708,0.541764717474093,0.980182983291118,0.400010312585484,0.0403878480706906,0.5,0.100967017099239,0.818558534812368,3.69610599479128,2.35306497054958,0.5,41.1768779165435
CBC_1007,CBC_1007_MSI_AV_v3_Vset2_Aset1_2023-06-21_15h59.48.192.csv,1,40,2,3,b,1,0,1,aud,C,63,0,2C,3C,0,1,b,1.71795400000155,1,0,1,0,2C,3C,C23,2.90872089656436,0.654380314896466,0.40413015217172,0.44951649145038,0.5,0.36332633618708,0.640377535485206,0.44951649145038,0.44951649145038,0.5,0.5,0.808154936051006,0.5,0.5,0.5,0.5,0.768224556046544,0.808154936051006,0.191845063948994,0.808154936051006,0.5,0.358321527821544,0.995317681665387,-0.808154936051006,-0.0815969932470964,0.5,0.100967017099239,0.818558534812368,3.69610599479128,2.35306497054958,0.5,41.1768779165435
CBC_1007,CBC_1007_MSI_AV_v3_Vset2_Aset1_2023-06-21_15h59.48.192.csv,1,41,2,0,z,0,1,0,aud,A,27,1,2A,0A,0,1,z,2.24971390000064,0,1,1,1,0A,2A,A20,3.3322045101752,0.654380314896466,0.40413015217172,0.44951649145038,0.5,0.36332633618708,0.640377535485206,0.44951649145038,0.44951649145038,0.5,0.5,0.72655794280391,0.5,0.5,0.5,0.5,0.768224556046544,0.698670346943587,0.301329653056413,0.654380314896466,0.44951649145038,0.190538296259313,0.969406058978301,0.345619685103534,0.0348961886556822,0.5,0.100967017099239,0.818558534812368,3.69610599479128,2.35306497054958,0.5,41.1768779165435
CBC_1007,CBC_1007_MSI_AV_v3_Vset2_Aset1_2023-06-21_15h59.48.192.csv,1,42,3,2,b,1,0,2,aud,D,63,1,3D,2D,1,0,b,0.987982900000134,1,0,1,1,3D,2D,D32,4.04305126783455,0.689276503552148,0.40413015217172,0.44951649145038,0.5,0.36332633618708,0.640377535485206,0.44951649145038,0.44951649145038,0.5,0.5,0.72655794280391,0.5,0.5,0.5,0.5,0.768224556046544,0.768224556046544,0.231775443953456,0.768224556046544,0.5,0.83654187634643,0.990679259715115,0.231775443953456,0.0234016752128323,0.5,0.100967017099239,0.818558534812368,3.69610599479128,2.35306497054958,0.5,41.1768779165435
CBC_1007,CBC_1007_MSI_AV_v3_Vset2_Aset1_2023-06-21_15h59.48.192.csv,1,43,3,1,z,0,1,3,aud,B,27,1,3B,1B,0,1,z,1.40980610000042,0,1,1,1,1B,3B,B31,3.36729582998647,0.689276503552148,0.40413015217172,0.44951649145038,0.5,0.36332633618708,0.640377535485206,0.44951649145038,0.44951649145038,0.5,0.5,0.72655794280391,0.5,0.5,0.5,0.5,0.791626231259376,0.685599844852071,0.314400155147929,0.640377535485206,0.44951649145038,0.92205783315885,0.961906067082595,0.359622464514794,0.0363100075239357,0.5,0.100967017099239,0.818558534812368,3.69610599479128,2.35306497054958,0.5,41.1768779165435
CBC_1007,CBC_1007_MSI_AV_v3_Vset2_Aset1_2023-06-21_15h59.48.192.csv,1,44,2,3,b,1,0,1,aud,C,63,1,2C,3C,1,0,b,1.42296840000199,1,0,1,1,2C,3C,C23,2.69124308278583,0.689276503552148,0.40413015217172,0.44951649145038,0.5,0.36332633618708,0.676687543009142,0.44951649145038,0.44951649145038,0.5,0.5,0.72655794280391,0.5,0.5,0.5,0.5,0.791626231259376,0.72655794280391,0.27344205719609,0.72655794280391,0.5,0.976502833445188,0.980932602754318,0.27344205719609,0.0276086288645688,0.5,0.100967017099239,0.818558534812368,3.69610599479128,2.35306497054958,0.5,41.1768779165435
CBC_1007,CBC_1007_MSI_TV_v3_Vset5_Tset1_2023-06-21_16h08.10.582.csv,2,1,1,0,b,1,0,3,tac,B,63,1,1B,0B,1,0,b,1.9304147999992,1,0,1,1,1B,0B,B10,2.77258872223978,0.5,0.5,0.5,0.5,0.5,0.5,0.5,0.5,0.5,0.5,0.5,0.5,0.5,0.5,0.5,0.5,0.5,0.5,0.5,0.5,0.196227342454962,0.500081680631471,0.5,0.328537796641814,0.5,0.657075593283629,0.894110017515937,0.936558717589211,2.93495178962612,0.5,63.1308393535766
CBC_1007,CBC_1007_MSI_TV_v3_Vset5_Tset1_2023-06-21_16h08.10.582.csv,2,2,3,2,b,1,0,2,tac,D,63,1,3D,2D,1,0,b,2.32277090000025,1,0,1,1,3D,2D,D32,2.83321334405622,0.5,0.5,0.5,0.5,0.5,0.828537796641814,0.5,0.5,0.5,0.5,0.5,0.5,0.5,0.5,0.5,0.5,0.5,0.5,0.5,0.5,0.160512910057897,0.501020652952156,0.5,0.328537796641814,0.5,0.657075593283629,0.894110017515937,0.936558717589211,2.93495178962612,0.5,63.1308393535766
CBC_1007,CBC_1007_MSI_TV_v3_Vset5_Tset1_2023-06-21_16h08.10.582.csv,2,3,3,1,z,0,1,3,tac,B,27,1,3B,1B,0,1,z,2.27965330000006,0,1,1,1,1B,3B,B31,2.89037175789616,0.5,0.5,0.5,0.5,0.5,0.828537796641814,0.5,0.5,0.5,0.5,0.5,0.5,0.5,0.5,0.5,0.828537796641814,0.828537796641814,0.171462203358186,0.828537796641814,0.5,0.311337380895427,0.858935967426522,0.171462203358186,0.112663628997298,0.5,0.657075593283629,0.894110017515937,0.936558717589211,2.93495178962612,0.5,63.1308393535766
CBC_1007,CBC_1007_MSI_TV_v3_Vset5_Tset1_2023-06-21_16h08.10.582.csv,2,4,2,3,b,1,0,1,tac,C,63,1,2C,3C,1,0,z,2.61729469999955,0,1,0,0,3C,2C,C23,2.94443897916644,0.5,0.5,0.5,0.5,0.5,0.941201425639112,0.5,0.5,0.5,0.5,0.5,0.5,0.5,0.5,0.5,0.828537796641814,0.5,0.5,0.5,0.5,0.135759566634314,0.500042710839167,-0.5,-0.328537796641814,0.5,0.657075593283629,0.894110017515937,0.936558717589211,2.93495178962612,0.5,63.1308393535766
CBC_1007,CBC_1007_MSI_TV_v3_Vset5_Tset1_2023-06-21_16h08.10.582.csv,2,5,0,2,z,0,1,1,tac,C,27,1,0C,2C,0,1,z,2.80312450000019,0,1,1,1,2C,0C,C02,2.99573227355399,0.5,0.5,0.5,0.5,0.5,0.941201425639112,0.5,0.5,0.5,0.5,0.5,0.171462203358186,0.5,0.5,0.5,0.828537796641814,0.5,0.5,0.5,0.5,0.122153351076655,0.500148352975851,0.5,0.328537796641814,0.5,0.657075593283629,0.894110017515937,0.936558717589211,2.93495178962612,0.5,63.1308393535766
CBC_1007,CBC_1007_MSI_TV_v3_Vset5_Tset1_2023-06-21_16h08.10.582.csv,2,6,0,3,b,1,0,0,tac,A,9,1,0A,3A,1,0,b,1.4679443999994,1,0,1,1,0A,3A,A03,3.04452243772342,0.5,0.5,0.5,0.5,0.5,0.941201425639112,0.5,0.5,0.5,0.5,0.828537796641814,0.171462203358186,0.5,0.5,0.5,0.828537796641814,0.5,0.5,0.5,0.5,0.206549167865185,0.500728625150317,0.5,0.328537796641814,0.5,0.657075593283629,0.894110017515937,0.936558717589211,2.93495178962612,0.5,63.1308393535766
CBC_1007,CBC_1007_MSI_TV_v3_Vset5_Tset1_2023-06-21_16h08.10.582.csv,2,7,2,3,b,1,0,1,tac,C,63,1,2C,3C,1,0,b,3.32831929999884,1,0,1,1,2C,3C,C23,2.39789527279837,0.828537796641814,0.5,0.5,0.5,0.5,0.941201425639112,0.5,0.5,0.5,0.5,0.828537796641814,0.171462203358186,0.5,0.5,0.5,0.828537796641814,0.958932325666705,0.0410676743332953,0.828537796641814,0.171462203358186,0.129834444944087,0.925854957180298,0.171462203358186,0.112663628997298,0.5,0.657075593283629,0.894110017515937,0.936558717589211,2.93495178962612,0.5,63.1308393535766
CBC_1007,CBC_1007_MSI_TV_v3_Vset5_Tset1_2023-06-21_16h08.10.582.csv,2,8,1,0,z,0,1,0,tac,A,63,1,1A,0A,0,1,z,1.5676465000015,0,1,1,1,0A,1A,A10,3.13549421592915,0.828537796641814,0.5,0.5,0.5,0.5,0.941201425639112,0.5,0.5,0.5,0.5,0.941201425639112,0.171462203358186,0.5,0.5,0.5,0.828537796641814,0.828537796641814,0.171462203358186,0.828537796641814,0.5,0.464730684458749,0.85868941601581,0.171462203358186,0.112663628997298,0.5,0.657075593283629,0.894110017515937,0.936558717589211,2.93495178962612,0.5,63.1308393535766
CBC_1007,CBC_1007_MSI_TV_v3_Vset5_Tset1_2023-06-21_16h08.10.582.csv,2,9,2,3,z,0,1,2,tac,D,63,1,2D,3D,0,1,b,2.34338740000021,1,0,0,0,2D,3D,D23,3.17805383034795,0.941201425639112,0.5,0.5,0.5,0.5,0.941201425639112,0.5,0.5,0.5,0.5,0.941201425639112,0.171462203358186,0.5,0.5,0.5,0.828537796641814,0.171462203358186,0.828537796641814,0.5,0.828537796641814,0.0488722327148426,0.141375540653462,-0.5,-0.328537796641814,0.5,0.657075593283629,0.894110017515937,0.936558717589211,2.93495178962612,0.5,63.1308393535766
CBC_1007,CBC_1007_MSI_TV_v3_Vset5_Tset1_2023-06-21_16h08.10.582.csv,2,10,3,2,z,0,1,1,tac,C,63,1,3C,2C,0,1,z,2.82642490000035,0,1,1,1,2C,3C,C32,3.2188758248682,0.941201425639112,0.5,0.5,0.5,0.5,0.941201425639112,0.5,0.5,0.5,0.5,0.941201425639112,0.171462203358186,0.5,0.5,0.171462203358186,0.828537796641814,0.98723674034676,0.0127632596532401,0.941201425639112,0.171462203358186,0.205542785533516,0.93609159733115,0.0587985743608876,0.0386351081324118,0.5,0.657075593283629,0.894110017515937,0.936558717589211,2.93495178962612,0.5,63.1308393535766
CBC_1007,CBC_1007_MSI_TV_v3_Vset5_Tset1_2023-06-21_16h08.10.582.csv,2,11,3,1,b,1,0,2,tac,D,27,1,3D,1D,1,0,b,2.46974649999902,1,0,1,1,3D,1D,D31,3.25809653802148,0.941201425639112,0.5,0.5,0.5,0.5,0.941201425639112,0.5,0.5,0.5,0.5,0.979836533771524,0.171462203358186,0.5,0.5,0.171462203358186,0.828537796641814,0.828537796641814,0.171462203358186,0.828537796641814,0.5,0.270185758617062,0.858995799965393,0.171462203358186,0.112663628997298,0.5,0.657075593283629,0.894110017515937,0.936558717589211,2.93495178962612,0.5,63.1308393535766
CBC_1007,CBC_1007_MSI_TV_v3_Vset5_Tset1_2023-06-21_16h08.10.582.csv,2,12,0,1,b,1,0,0,tac,A,63,0,0A,1A,0,1,b,1.11930349999966,1,0,1,0,0A,1A,A01,3.29583686600433,0.941201425639112,0.5,0.5,0.5,0.5,0.941201425639112,0.5,0.5,0.5,0.5,0.979836533771524,0.171462203358186,0.5,0.5,0.171462203358186,0.941201425639112,0.941201425639112,0.0587985743608876,0.941201425639112,0.5,0.142803437315951,0.918490542495859,-0.941201425639112,-0.618440485151217,0.5,0.657075593283629,0.894110017515937,0.936558717589211,2.93495178962612,0.5,63.1308393535766
CBC_1007,CBC_1007_MSI_TV_v3_Vset5_Tset1_2023-06-21_16h08.10.582.csv,2,13,3,2,z,0,1,1,tac,C,63,1,3C,2C,0,1,z,2.6729336999997,0,1,1,1,2C,3C,C32,2.63905732961526,0.322760940487895,0.5,0.5,0.5,0.5,0.941201425639112,0.5,0.5,0.5,0.5,0.979836533771524,0.171462203358186,0.5,0.5,0.171462203358186,0.941201425639112,0.995759451094658,0.00424054890534198,0.979836533771524,0.171462203358186,0.238632629825689,0.938519065696938,0.0201634662284759,0.0132489215347302,0.5,0.657075593283629,0.894110017515937,0.936558717589211,2.93495178962612,0.5,63.1308393535766
CBC_1007,CBC_1007_MSI_TV_v3_Vset5_Tset1_2023-06-21_16h08.10.582.csv,2,14,2,0,z,0,1,0,tac,A,27,1,2A,0A,0,1,z,1.45980270000109,0,1,1,1,0A,2A,A20,3.36729582998647,0.322760940487895,0.5,0.5,0.5,0.5,0.941201425639112,0.5,0.5,0.5,0.5,0.993085455306254,0.171462203358186,0.5,0.5,0.171462203358186,0.941201425639112,0.322760940487895,0.677239059512105,0.322760940487895,0.5,0.122172344397272,0.2741096262869,0.677239059512105,0.444997256823763,0.5,0.657075593283629,0.894110017515937,0.936558717589211,2.93495178962612,0.5,63.1308393535766
CBC_1007,CBC_1007_MSI_TV_v3_Vset5_Tset1_2023-06-21_16h08.10.582.csv,2,15,1,0,b,1,0,3,tac,B,63,1,1B,0B,1,0,b,2.8562482999987,1,0,1,1,1B,0B,B10,2.70805020110221,0.767758197311658,0.5,0.5,0.5,0.5,0.941201425639112,0.5,0.5,0.5,0.5,0.993085455306254,0.171462203358186,0.5,0.5,0.171462203358186,0.941201425639112,0.941201425639112,0.0587985743608876,0.941201425639112,0.5,0.203847052736134,0.9187375515501,0.0587985743608876,0.0386351081324118,0.5,0.657075593283629,0.894110017515937,0.936558717589211,2.93495178962612,0.5,63.1308393535766
CBC_1007,CBC_1007_MSI_TV_v3_Vset5_Tset1_2023-06-21_16h08.10.582.csv,2,16,2,3,z,0,1,2,tac,D,63,1,2D,3D,0,1,z,2.28313389999857,0,1,1,1,3D,2D,D23,2.7408400239252,0.767758197311658,0.5,0.5,0.5,0.5,0.979836533771524,0.5,0.5,0.5,0.5,0.993085455306254,0.171462203358186,0.5,0.5,0.171462203358186,0.941201425639112,0.98723674034676,0.0127632596532401,0.941201425639112,0.171462203358186,0.35028367962126,0.935530926875085,0.0587985743608876,0.0386351081324118,0.5,0.657075593283629,0.894110017515937,0.936558717589211,2.93495178962612,0.5,63.1308393535766
CBC_1007,CBC_1007_MSI_TV_v3_Vset5_Tset1_2023-06-21_16h08.10.582.csv,2,17,2,1,z,0,1,3,tac,B,9,1,2B,1B,0,1,z,3.7552745999983,0,1,1,1,1B,2B,B21,3.46573590279973,0.767758197311658,0.5,0.5,0.5,0.5,0.979836533771524,0.5,0.5,0.5,0.5,0.993085455306254,0.171462203358186,0.5,0.5,0.171462203358186,0.979836533771524,0.979836533771524,0.0201634662284759,0.979836533771524,0.5,0.0832788746484054,0.933439525636371,0.0201634662284759,0.0132489215347302,0.5,0.657075593283629,0.894110017515937,0.936558717589211,2.93495178962612,0.5,63.1308393535766
CBC_1007,CBC_1007_MSI_TV_v3_Vset5_Tset1_2023-06-21_16h08.10.582.csv,2,18,3,1,b,1,0,2,tac,D,27,1,3D,1D,1,0,b,2.19291499999963,1,0,1,1,3D,1D,D31,2.80336038090653,0.767758197311658,0.5,0.5,0.5,0.5,0.993085455306254,0.5,0.5,0.5,0.5,0.993085455306254,0.171462203358186,0.5,0.5,0.171462203358186,0.979836533771524,0.979836533771524,0.0201634662284759,0.979836533771524,0.5,0.380633732250202,0.933431759169776,0.0201634662284759,0.0132489215347302,0.5,0.657075593283629,0.894110017515937,0.936558717589211,2.93495178962612,0.5,63.1308393535766
CBC_1007,CBC_1007_MSI_TV_v3_Vset5_Tset1_2023-06-21_16h08.10.582.csv,2,19,1,0,z,0,1,0,tac,A,63,1,1A,0A,0,1,z,1.25046350000048,0,1,1,1,0A,1A,A10,2.83321334405622,0.767758197311658,0.5,0.5,0.5,0.5,0.993085455306254,0.5,0.5,0.5,0.5,0.993085455306254,0.171462203358186,0.5,0.5,0.171462203358186,0.993085455306254,0.767758197311658,0.232241802688342,0.767758197311658,0.5,0.267358634981018,0.812966645611295,0.232241802688342,0.152600420286702,0.5,0.657075593283629,0.894110017515937,0.936558717589211,2.93495178962612,0.5,63.1308393535766
CBC_1007,CBC_1007_MSI_TV_v3_Vset5_Tset1_2023-06-21_16h08.10.582.csv,2,20,0,1,b,1,0,0,tac,A,63,1,0A,1A,1,0,b,1.16299900000013,1,0,1,1,0A,1A,A01,2.86220088092947,0.92035861759836,0.5,0.5,0.5,0.5,0.993085455306254,0.5,0.5,0.5,0.5,0.993085455306254,0.171462203358186,0.5,0.5,0.171462203358186,0.993085455306254,0.92035861759836,0.0796413824016402,0.92035861759836,0.5,0.223209656664469,0.909368145268739,0.0796413824016402,0.0523304085914861,0.5,0.657075593283629,0.894110017515937,0.936558717589211,2.93495178962612,0.5,63.1308393535766
CBC_1007,CBC_1007_MSI_TV_v3_Vset5_Tset1_2023-06-21_16h08.10.582.csv,2,21,0,2,z,0,1,1,tac,C,27,1,0C,2C,0,1,z,2.35411759999988,0,1,1,1,2C,0C,C02,2.89037175789616,0.972689026189846,0.5,0.5,0.5,0.5,0.993085455306254,0.5,0.5,0.5,0.5,0.993085455306254,0.171462203358186,0.5,0.5,0.171462203358186,0.993085455306254,0.993085455306254,0.00691454469374564,0.993085455306254,0.5,0.327577132331238,0.937843076552017,0.00691454469374564,0.00454337855692908,0.5,0.657075593283629,0.894110017515937,0.936558717589211,2.93495178962612,0.5,63.1308393535766
CBC_1007,CBC_1007_MSI_TV_v3_Vset5_Tset1_2023-06-21_16h08.10.582.csv,2,22,1,0,b,1,0,3,tac,B,63,1,1B,0B,1,0,b,2.45332170000074,1,0,1,1,1B,0B,B10,2.51230562397611,0.972689026189846,0.5,0.5,0.5,0.5,0.993085455306254,0.5,0.5,0.5,0.5,0.997628833863183,0.171462203358186,0.5,0.5,0.171462203358186,0.993085455306254,0.993085455306254,0.00691454469374564,0.993085455306254,0.5,0.297028663463901,0.937744906100935,0.00691454469374564,0.00454337855692908,0.5,0.657075593283629,0.894110017515937,0.936558717589211,2.93495178962612,0.5,63.1308393535766
CBC_1007,CBC_1007_MSI_TV_v3_Vset5_Tset1_2023-06-21_16h08.10.582.csv,2,23,0,2,z,0,1,1,tac,C,27,1,0C,2C,0,1,z,2.32233039999846,0,1,1,1,2C,0C,C02,2.53897387105828,0.972689026189846,0.5,0.5,0.5,0.5,0.997628833863183,0.5,0.5,0.5,0.5,0.997628833863183,0.171462203358186,0.5,0.5,0.171462203358186,0.993085455306254,0.997628833863183,0.00237116613681654,0.997628833863183,0.5,0.338352975219757,0.939226960087902,0.00237116613681654,0.00155803539612278,0.5,0.657075593283629,0.894110017515937,0.936558717589211,2.93495178962612,0.5,63.1308393535766
CBC_1007,CBC_1007_MSI_TV_v3_Vset5_Tset1_2023-06-21_16h08.10.582.csv,2,24,2,3,z,0,1,2,tac,D,63,1,2D,3D,0,1,z,2.23030269999981,0,1,1,1,3D,2D,D23,2.56494935746154,0.972689026189846,0.5,0.5,0.5,0.5,0.997628833863183,0.5,0.5,0.5,0.5,0.999186869259306,0.171462203358186,0.5,0.5,0.171462203358186,0.993085455306254,0.998561175849754,0.00143882415024581,0.993085455306254,0.171462203358186,0.370352299179808,0.939131499921549,0.00691454469374564,0.00454337855692908,0.5,0.657075593283629,0.894110017515937,0.936558717589211,2.93495178962612,0.5,63.1308393535766
CBC_1007,CBC_1007_MSI_TV_v3_Vset5_Tset1_2023-06-21_16h08.10.582.csv,2,25,0,1,b,1,0,0,tac,A,63,1,0A,1A,1,0,b,1.71789379999973,1,0,1,1,0A,1A,A01,2.59026716544583,0.972689026189846,0.5,0.5,0.5,0.5,0.997628833863183,0.5,0.5,0.5,0.5,0.999186869259306,0.171462203358186,0.5,0.5,0.171462203358186,0.997628833863183,0.972689026189846,0.0273109738101541,0.972689026189846,0.5,0.562940502351462,0.930974353778683,0.0273109738101541,0.0179453743194607,0.5,0.657075593283629,0.894110017515937,0.936558717589211,2.93495178962612,0.5,63.1308393535766
CBC_1007,CBC_1007_MSI_TV_v3_Vset5_Tset1_2023-06-21_16h08.10.582.csv,2,26,2,3,b,1,0,1,tac,C,63,1,2C,3C,1,0,b,2.45411289999902,1,0,1,1,2C,3C,C23,2.6149597780362,0.990634400509307,0.5,0.5,0.5,0.5,0.997628833863183,0.5,0.5,0.5,0.5,0.999186869259306,0.171462203358186,0.5,0.5,0.171462203358186,0.997628833863183,0.999831617635646,0.000168382364354458,0.999186869259306,0.171462203358186,0.296853268162432,0.939639776428087,0.000813130740693779,0.000534288363858521,0.5,0.657075593283629,0.894110017515937,0.936558717589211,2.93495178962612,0.5,63.1308393535766
CBC_1007,CBC_1007_MSI_TV_v3_Vset5_Tset1_2023-06-21_16h08.10.582.csv,2,27,0,2,b,1,0,0,tac,A,27,1,0A,2A,1,0,b,1.33100589999958,1,0,1,1,0A,2A,A02,3.73766961828337,0.990634400509307,0.5,0.5,0.5,0.5,0.997628833863183,0.5,0.5,0.5,0.5,0.999721157623165,0.171462203358186,0.5,0.5,0.171462203358186,0.997628833863183,0.990634400509307,0.00936559949069349,0.990634400509307,0.5,0.552603622464567,0.936960347110368,0.00936559949069349,0.00615390684180427,0.5,0.657075593283629,0.894110017515937,0.936558717589211,2.93495178962612,0.5,63.1308393535766
CBC_1007,CBC_1007_MSI_TV_v3_Vset5_Tset1_2023-06-21_16h08.10.582.csv,2,28,2,3,z,0,1,2,tac,D,63,1,2D,3D,0,1,z,2.27456990000064,0,1,1,1,3D,2D,D23,2.37490575457367,0.996788307351111,0.5,0.5,0.5,0.5,0.997628833863183,0.5,0.5,0.5,0.5,0.999721157623165,0.171462203358186,0.5,0.5,0.171462203358186,0.997628833863183,0.999508373252406,0.000491626747593515,0.997628833863183,0.171462203358186,0.354712992880564,0.939354102439968,0.00237116613681654,0.00155803539612278,0.5,0.657075593283629,0.894110017515937,0.936558717589211,2.93495178962612,0.5,63.1308393535766
CBC_1007,CBC_1007_MSI_TV_v3_Vset5_Tset1_2023-06-21_16h08.10.582.csv,2,29,2,3,z,0,1,2,tac,D,63,1,2D,3D,0,1,z,2.10770809999849,0,1,1,1,3D,2D,D23,2.17475172148416,0.996788307351111,0.5,0.5,0.5,0.5,0.997628833863183,0.5,0.5,0.5,0.5,0.999721157623165,0.171462203358186,0.5,0.5,0.171462203358186,0.999186869259306,0.999831617635646,0.000168382364354459,0.999186869259306,0.171462203358186,0.41745505119596,0.939736607064691,0.000813130740693779,0.000534288363858521,0.5,0.657075593283629,0.894110017515937,0.936558717589211,2.93495178962612,0.5,63.1308393535766
CBC_1007,CBC_1007_MSI_TV_v3_Vset5_Tset1_2023-06-21_16h08.10.582.csv,2,30,1,3,b,1,0,3,tac,B,27,1,1B,3B,1,0,b,2.41728309999962,1,0,1,1,1B,3B,B13,3.80666248977032,0.996788307351111,0.5,0.5,0.5,0.5,0.997628833863183,0.5,0.5,0.5,0.5,0.999721157623165,0.171462203358186,0.5,0.5,0.171462203358186,0.999721157623165,0.997628833863183,0.00237116613681654,0.997628833863183,0.5,0.307947972214465,0.93932849362983,0.00237116613681654,0.00155803539612278,0.5,0.657075593283629,0.894110017515937,0.936558717589211,2.93495178962612,0.5,63.1308393535766
CBC_1007,CBC_1007_MSI_TV_v3_Vset5_Tset1_2023-06-21_16h08.10.582.csv,2,31,3,0,b,1,0,2,tac,D,9,1,3D,0D,1,0,b,2.39995979999912,1,0,1,1,3D,0D,D30,3.8286413964891,0.996788307351111,0.5,0.5,0.5,0.5,0.999186869259306,0.5,0.5,0.5,0.5,0.999721157623165,0.171462203358186,0.5,0.5,0.171462203358186,0.999721157623165,0.999721157623165,0.000278842376835287,0.999721157623165,0.5,0.31334292506447,0.939679423605322,0.000278842376835287,0.000183220520191663,0.5,0.657075593283629,0.894110017515937,0.936558717589211,2.93495178962612,0.5,63.1308393535766
CBC_1007,CBC_1007_MSI_TV_v3_Vset5_Tset1_2023-06-21_16h08.10.582.csv,2,32,0,1,z,0,1,3,tac,B,63,1,0B,1B,0,1,z,2.39064770000005,0,1,1,1,1B,0B,B01,3.85014760171006,0.996788307351111,0.5,0.5,0.5,0.5,0.999186869259306,0.5,0.5,0.5,0.5,0.999721157623165,0.171462203358186,0.5,0.5,0.171462203358186,0.999904378143356,0.999186869259306,0.000813130740693779,0.999186869259306,0.5,0.316262807692389,0.939672455081353,0.000813130740693779,0.000534288363858521,0.5,0.657075593283629,0.894110017515937,0.936558717589211,2.93495178962612,0.5,63.1308393535766
CBC_1007,CBC_1007_MSI_TV_v3_Vset5_Tset1_2023-06-21_16h08.10.582.csv,2,33,0,1,b,1,0,0,tac,A,63,1,0A,1A,1,0,b,1.45166550000067,1,0,1,1,0A,1A,A01,2.484906649788,0.996788307351111,0.5,0.5,0.5,0.5,0.999721157623165,0.5,0.5,0.5,0.5,0.999721157623165,0.171462203358186,0.5,0.5,0.171462203358186,0.999904378143356,0.996788307351111,0.00321169264888921,0.996788307351111,0.5,0.627322136061505,0.938808947221605,0.00321169264888921,0.00211032485271355,0.5,0.657075593283629,0.894110017515937,0.936558717589211,2.93495178962612,0.5,63.1308393535766
CBC_1007,CBC_1007_MSI_TV_v3_Vset5_Tset1_2023-06-21_16h08.10.582.csv,2,34,0,1,z,0,1,3,tac,B,63,1,0B,1B,0,1,z,3.16768039999988,0,1,1,1,1B,0B,B01,3.19867311755068,0.998898632203824,0.5,0.5,0.5,0.5,0.999721157623165,0.5,0.5,0.5,0.5,0.999721157623165,0.171462203358186,0.5,0.5,0.171462203358186,0.999904378143356,0.999721157623165,0.000278842376835287,0.999721157623165,0.5,0.14449099420918,0.939982036755039,0.000278842376835287,0.000183220520191663,0.5,0.657075593283629,0.894110017515937,0.936558717589211,2.93495178962612,0.5,63.1308393535766
CBC_1007,CBC_1007_MSI_TV_v3_Vset5_Tset1_2023-06-21_16h08.10.582.csv,2,35,2,3,b,1,0,1,tac,C,63,1,2C,3C,1,0,b,2.68631269999969,1,0,1,1,2C,3C,C23,2.52572864430826,0.998898632203824,0.5,0.5,0.5,0.5,0.999904378143356,0.5,0.5,0.5,0.5,0.999721157623165,0.171462203358186,0.5,0.5,0.171462203358186,0.999904378143356,0.99994228204962,5.77179503802316e-05,0.999721157623165,0.171462203358186,0.23512018463868,0.939713032365464,0.000278842376835287,0.000183220520191663,0.5,0.657075593283629,0.894110017515937,0.936558717589211,2.93495178962612,0.5,63.1308393535766
CBC_1007,CBC_1007_MSI_TV_v3_Vset5_Tset1_2023-06-21_16h08.10.582.csv,2,36,2,0,z,0,1,0,tac,A,27,1,2A,0A,0,1,z,1.59397660000104,0,1,1,1,0A,2A,A20,3.23867845216438,0.998898632203824,0.5,0.5,0.5,0.5,0.999904378143356,0.5,0.5,0.5,0.5,0.999904378143356,0.171462203358186,0.5,0.5,0.171462203358186,0.999904378143356,0.998898632203824,0.00110136779617565,0.998898632203824,0.5,0.622799687019138,0.939359632681779,0.00110136779617565,0.000723681898095595,0.5,0.657075593283629,0.894110017515937,0.936558717589211,2.93495178962612,0.5,63.1308393535766
CBC_1007,CBC_1007_MSI_TV_v3_Vset5_Tset1_2023-06-21_16h08.10.582.csv,2,37,0,1,z,0,1,3,tac,B,63,1,0B,1B,0,1,z,2.4108995000006,0,1,1,1,1B,0B,B01,2.85263142991332,0.99962231410192,0.5,0.5,0.5,0.5,0.999904378143356,0.5,0.5,0.5,0.5,0.999904378143356,0.171462203358186,0.5,0.5,0.171462203358186,0.999904378143356,0.999904378143356,9.56218566435796e-05,0.999904378143356,0.5,0.309982645046036,0.940126383253305,9.56218566435796e-05,6.28307881849621e-05,0.5,0.657075593283629,0.894110017515937,0.936558717589211,2.93495178962612,0.5,63.1308393535766
CBC_1007,CBC_1007_MSI_TV_v3_Vset5_Tset1_2023-06-21_16h08.10.582.csv,2,38,1,3,b,1,0,3,tac,B,27,1,1B,3B,1,0,b,2.31569940000009,1,0,1,1,1B,3B,B13,3.27714473299218,0.99962231410192,0.5,0.5,0.5,0.5,0.999967208931541,0.5,0.5,0.5,0.5,0.999904378143356,0.171462203358186,0.5,0.5,0.171462203358186,0.999904378143356,0.999967208931541,3.27910684586596e-05,0.999967208931541,0.5,0.340810561167439,0.940056431867763,3.27910684586596e-05,2.15462107618779e-05,0.5,0.657075593283629,0.894110017515937,0.936558717589211,2.93495178962612,0.5,63.1308393535766
CBC_1007,CBC_1007_MSI_TV_v3_Vset5_Tset1_2023-06-21_16h08.10.582.csv,2,39,2,3,b,1,0,1,tac,C,63,1,2C,3C,1,0,b,2.6873470999999,1,0,1,1,2C,3C,C23,2.37954613413017,0.99962231410192,0.5,0.5,0.5,0.5,0.999988755142303,0.5,0.5,0.5,0.5,0.999904378143356,0.171462203358186,0.5,0.5,0.171462203358186,0.999904378143356,0.999980209982311,1.97900176891475e-05,0.999904378143356,0.171462203358186,0.234887189567357,0.939673349855973,9.56218566435796e-05,6.28307881849621e-05,0.5,0.657075593283629,0.894110017515937,0.936558717589211,2.93495178962612,0.5,63.1308393535766
CBC_1007,CBC_1007_MSI_TV_v3_Vset5_Tset1_2023-06-21_16h08.10.582.csv,2,40,1,3,z,0,1,2,tac,D,27,1,1D,3D,0,1,z,2.27222960000108,0,1,1,1,3D,1D,D13,4.00733318523247,0.99962231410192,0.5,0.5,0.5,0.5,0.999988755142303,0.5,0.5,0.5,0.5,0.999967208931541,0.171462203358186,0.5,0.5,0.171462203358186,0.999904378143356,0.999904378143356,9.56218566435796e-05,0.999904378143356,0.5,0.35571976755531,0.939849469366952,9.56218566435796e-05,6.28307881849621e-05,0.5,0.657075593283629,0.894110017515937,0.936558717589211,2.93495178962612,0.5,63.1308393535766
CBC_1007,CBC_1007_MSI_TV_v3_Vset5_Tset1_2023-06-21_16h08.10.582.csv,2,41,2,1,b,1,0,1,tac,C,9,1,2C,1C,1,0,z,3.89634430000115,0,1,0,0,1C,2C,C21,4.02535169073515,0.99962231410192,0.5,0.5,0.5,0.5,0.999988755142303,0.5,0.5,0.5,0.5,0.999967208931541,0.171462203358186,0.5,0.5,0.171462203358186,0.999967208931541,3.27910684586596e-05,0.999967208931541,0.5,0.999967208931541,0.00440810243716191,0.0599770791518634,-0.5,-0.328537796641814,0.5,0.657075593283629,0.894110017515937,0.936558717589211,2.93495178962612,0.5,63.1308393535766
CBC_1007,CBC_1007_MSI_TV_v3_Vset5_Tset1_2023-06-21_16h08.10.582.csv,2,42,1,0,b,1,0,3,tac,B,63,0,1B,0B,0,1,b,2.33222729999943,1,0,1,0,1B,0B,B10,2.65675690671466,0.99962231410192,0.5,0.5,0.5,0.5,0.999988755142303,0.5,0.5,0.5,0.171462203358186,0.999967208931541,0.171462203358186,0.5,0.5,0.171462203358186,0.999967208931541,0.999988755142303,1.12448576967683e-05,0.999988755142303,0.5,0.335174860005038,0.939694370458955,-0.999988755142303,-0.657068204562086,0.5,0.657075593283629,0.894110017515937,0.936558717589211,2.93495178962612,0.5,63.1308393535766
CBC_1007,CBC_1007_MSI_TV_v3_Vset5_Tset1_2023-06-21_16h08.10.582.csv,2,43,2,3,z,0,1,2,tac,D,63,1,2D,3D,0,1,z,2.17503729999953,0,1,1,1,3D,2D,D23,2.26868354131836,0.99962231410192,0.5,0.5,0.5,0.5,0.342920550580217,0.5,0.5,0.5,0.171462203358186,0.999967208931541,0.171462203358186,0.5,0.5,0.171462203358186,0.999967208931541,0.999993213858092,6.78614190785721e-06,0.999967208931541,0.171462203358186,0.391380233289175,0.940029652758732,3.27910684586596e-05,2.15462107618779e-05,0.5,0.657075593283629,0.894110017515937,0.936558717589211,2.93495178962612,0.5,63.1308393535766
CBC_1007,CBC_1007_MSI_TV_v3_Vset5_Tset1_2023-06-21_16h08.10.582.csv,2,44,1,0,z,0,1,0,tac,A,63,1,1A,0A,0,1,z,2.29483830000027,0,1,1,1,0A,1A,A10,2.97892515523761,0.99962231410192,0.5,0.5,0.5,0.5,0.342920550580217,0.5,0.5,0.5,0.171462203358186,0.999967208931541,0.171462203358186,0.5,0.5,0.171462203358186,0.999988755142303,0.99962231410192,0.000377685898080071,0.99962231410192,0.5,0.347834224790623,0.939758884061669,0.000377685898080071,0.000248168185555823,0.5,0.657075593283629,0.894110017515937,0.936558717589211,2.93495178962612,0.5,63.1308393535766
CBC_1007,CBC_1007_MSI_AV_v3_Vset4_Aset2_2023-06-21_16h24.09.852.csv,3,1,1,0,b,1,0,3,aud,B,63,1,1B,0B,1,0,z,1.66126739999891,0,1,0,0,0B,1B,B10,2.77258872223978,0.5,0.5,0.5,0.5,0.5,0.5,0.5,0.5,0.5,0.5,0.5,0.5,0.5,0.5,0.5,0.5,0.5,0.5,0.5,0.5,0.230317787415502,0.499852197569302,-0.5,-0.158036032491209,0.5,0.316072064982418,0.821642105539816,2.35511987464855,2.75764009301179,0.5,36.7336210170654
CBC_1007,CBC_1007_MSI_AV_v3_Vset4_Aset2_2023-06-21_16h24.09.852.csv,3,2,0,1,b,1,0,0,aud,A,63,1,0A,1A,1,0,b,3.03942339999958,1,0,1,1,0A,1A,A01,2.83321334405622,0.5,0.5,0.5,0.5,0.341963967508791,0.5,0.5,0.5,0.5,0.5,0.5,0.5,0.5,0.5,0.5,0.5,0.5,0.5,0.5,0.5,0.0978194682038665,0.49929705930064,0.5,0.158036032491209,0.5,0.316072064982418,0.821642105539816,2.35511987464855,2.75764009301179,0.5,36.7336210170654
CBC_1007,CBC_1007_MSI_AV_v3_Vset4_Aset2_2023-06-21_16h24.09.852.csv,3,3,1,2,z,0,1,1,aud,C,9,1,1C,2C,0,1,z,1.82182579999971,0,1,1,1,2C,1C,C12,2.89037175789616,0.658036032491209,0.5,0.5,0.5,0.341963967508791,0.5,0.5,0.5,0.5,0.5,0.5,0.5,0.5,0.5,0.5,0.5,0.5,0.5,0.5,0.5,0.212678072876475,0.500953369801606,0.5,0.158036032491209,0.5,0.316072064982418,0.821642105539816,2.35511987464855,2.75764009301179,0.5,36.7336210170654
CBC_1007,CBC_1007_MSI_AV_v3_Vset4_Aset2_2023-06-21_16h24.09.852.csv,3,4,1,0,z,0,1,0,aud,A,63,1,1A,0A,0,1,z,1.9362899000007,0,1,1,1,0A,1A,A10,2.94443897916644,0.658036032491209,0.5,0.5,0.5,0.341963967508791,0.5,0.5,0.5,0.5,0.5,0.658036032491209,0.5,0.5,0.5,0.5,0.5,0.658036032491209,0.341963967508791,0.658036032491209,0.5,0.406944293402154,0.886203367199605,0.341963967508791,0.108085257360084,0.5,0.316072064982418,0.821642105539816,2.35511987464855,2.75764009301179,0.5,36.7336210170654
CBC_1007,CBC_1007_MSI_AV_v3_Vset4_Aset2_2023-06-21_16h24.09.852.csv,3,5,3,1,b,1,0,2,aud,D,27,1,3D,1D,1,0,b,1.6795431999999,1,0,1,1,3D,1D,D31,2.99573227355399,0.766121289851293,0.5,0.5,0.5,0.341963967508791,0.5,0.5,0.5,0.5,0.5,0.658036032491209,0.5,0.5,0.5,0.5,0.5,0.5,0.5,0.5,0.5,0.228450818290989,0.499910765109478,0.5,0.158036032491209,0.5,0.316072064982418,0.821642105539816,2.35511987464855,2.75764009301179,0.5,36.7336210170654
CBC_1007,CBC_1007_MSI_AV_v3_Vset4_Aset2_2023-06-21_16h24.09.852.csv,3,6,0,1,z,0,1,3,aud,B,63,1,0B,1B,0,1,z,1.41934960000071,0,1,1,1,1B,0B,B01,3.04452243772342,0.766121289851293,0.5,0.5,0.5,0.341963967508791,0.5,0.5,0.5,0.5,0.5,0.658036032491209,0.5,0.5,0.5,0.5,0.658036032491209,0.658036032491209,0.341963967508791,0.5,0.341963967508791,0.573761491574149,0.886160943887185,0.5,0.158036032491209,0.5,0.316072064982418,0.821642105539816,2.35511987464855,2.75764009301179,0.5,36.7336210170654
CBC_1007,CBC_1007_MSI_AV_v3_Vset4_Aset2_2023-06-21_16h24.09.852.csv,3,7,2,3,b,1,0,1,aud,C,63,1,2C,3C,1,0,b,1.80670350000037,1,0,1,1,2C,3C,C23,3.09104245335832,0.766121289851293,0.5,0.5,0.5,0.341963967508791,0.658036032491209,0.5,0.5,0.5,0.5,0.658036032491209,0.5,0.5,0.5,0.5,0.658036032491209,0.658036032491209,0.341963967508791,0.658036032491209,0.5,0.454383695528543,0.885872948380336,0.341963967508791,0.108085257360084,0.5,0.316072064982418,0.821642105539816,2.35511987464855,2.75764009301179,0.5,36.7336210170654
CBC_1007,CBC_1007_MSI_AV_v3_Vset4_Aset2_2023-06-21_16h24.09.852.csv,3,8,2,0,z,0,1,0,aud,A,27,1,2A,0A,0,1,z,2.3398130000005,0,1,1,1,0A,2A,A20,3.13549421592915,0.766121289851293,0.5,0.5,0.5,0.341963967508791,0.658036032491209,0.5,0.5,0.5,0.5,0.766121289851293,0.5,0.5,0.5,0.5,0.658036032491209,0.766121289851293,0.233878710148707,0.766121289851293,0.5,0.263433042032043,0.969313161493202,0.233878710148707,0.0739225268721262,0.5,0.316072064982418,0.821642105539816,2.35511987464855,2.75764009301179,0.5,36.7336210170654
CBC_1007,CBC_1007_MSI_AV_v3_Vset4_Aset2_2023-06-21_16h24.09.852.csv,3,9,3,2,b,1,0,2,aud,D,63,1,3D,2D,1,0,b,1.4915861999998,1,0,1,1,3D,2D,D32,3.17805383034795,0.840043816723419,0.5,0.5,0.5,0.341963967508791,0.658036032491209,0.5,0.5,0.5,0.5,0.766121289851293,0.5,0.5,0.5,0.5,0.658036032491209,0.658036032491209,0.341963967508791,0.658036032491209,0.5,0.562004031738102,0.885838711906515,0.341963967508791,0.108085257360084,0.5,0.316072064982418,0.821642105539816,2.35511987464855,2.75764009301179,0.5,36.7336210170654
CBC_1007,CBC_1007_MSI_AV_v3_Vset4_Aset2_2023-06-21_16h24.09.852.csv,3,10,3,1,z,0,1,3,aud,B,27,1,3B,1B,0,1,z,1.90983140000026,0,1,1,1,1B,3B,B31,3.2188758248682,0.840043816723419,0.5,0.5,0.5,0.341963967508791,0.658036032491209,0.5,0.5,0.5,0.5,0.766121289851293,0.5,0.5,0.5,0.5,0.766121289851293,0.658036032491209,0.341963967508791,0.658036032491209,0.5,0.416685910223735,0.886460838945246,0.341963967508791,0.108085257360084,0.5,0.316072064982418,0.821642105539816,2.35511987464855,2.75764009301179,0.5,36.7336210170654
CBC_1007,CBC_1007_MSI_AV_v3_Vset4_Aset2_2023-06-21_16h24.09.852.csv,3,11,3,2,z,0,1,1,aud,C,63,0,3C,2C,1,0,z,3.43603809999877,0,1,1,0,2C,3C,C32,3.25809653802148,0.840043816723419,0.5,0.5,0.5,0.341963967508791,0.766121289851293,0.5,0.5,0.5,0.5,0.766121289851293,0.5,0.5,0.5,0.5,0.766121289851293,0.766121289851293,0.233878710148707,0.766121289851293,0.5,0.0546712659990467,0.969440937446782,-0.766121289851293,-0.242149538110292,0.5,0.316072064982418,0.821642105539816,2.35511987464855,2.75764009301179,0.5,36.7336210170654
CBC_1007,CBC_1007_MSI_AV_v3_Vset4_Aset2_2023-06-21_16h24.09.852.csv,3,12,1,3,b,1,0,3,aud,B,27,1,1B,3B,1,0,b,2.72216000000117,1,0,1,1,1B,3B,B13,3.29583686600433,0.840043816723419,0.5,0.5,0.5,0.341963967508791,0.766121289851293,0.5,0.5,0.5,0.5,0.523971751741001,0.5,0.5,0.5,0.5,0.766121289851293,0.766121289851293,0.233878710148707,0.766121289851293,0.5,0.151945179602147,0.9695933603744,0.233878710148707,0.0739225268721262,0.5,0.316072064982418,0.821642105539816,2.35511987464855,2.75764009301179,0.5,36.7336210170654
CBC_1007,CBC_1007_MSI_AV_v3_Vset4_Aset2_2023-06-21_16h24.09.852.csv,3,13,3,2,z,0,1,1,aud,C,63,1,3C,2C,0,1,b,2.11386549999952,1,0,0,0,3C,2C,C32,2.63905732961526,0.840043816723419,0.5,0.5,0.5,0.341963967508791,0.840043816723419,0.5,0.5,0.5,0.5,0.523971751741001,0.5,0.5,0.5,0.5,0.766121289851293,0.476028248258999,0.523971751741001,0.5,0.523971751741001,0.151163348813317,0.423121804155453,-0.5,-0.158036032491209,0.5,0.316072064982418,0.821642105539816,2.35511987464855,2.75764009301179,0.5,36.7336210170654
CBC_1007,CBC_1007_MSI_AV_v3_Vset4_Aset2_2023-06-21_16h24.09.852.csv,3,14,3,2,b,1,0,2,aud,D,63,1,3D,2D,1,0,b,1.10017619999962,1,0,1,1,3D,2D,D32,2.67414864942653,0.840043816723419,0.5,0.5,0.5,0.341963967508791,0.840043816723419,0.5,0.5,0.5,0.5,0.523971751741001,0.341963967508791,0.5,0.5,0.5,0.766121289851293,0.766121289851293,0.233878710148707,0.766121289851293,0.5,0.557367923263406,0.969358958069923,0.233878710148707,0.0739225268721262,0.5,0.316072064982418,0.821642105539816,2.35511987464855,2.75764009301179,0.5,36.7336210170654
CBC_1007,CBC_1007_MSI_AV_v3_Vset4_Aset2_2023-06-21_16h24.09.852.csv,3,15,0,3,b,1,0,0,aud,A,9,1,0A,3A,1,0,b,1.65734789999988,1,0,1,1,0A,3A,A03,3.40119738166216,0.840043816723419,0.5,0.5,0.5,0.341963967508791,0.840043816723419,0.5,0.5,0.5,0.5,0.523971751741001,0.341963967508791,0.5,0.5,0.5,0.840043816723419,0.840043816723419,0.159956183276581,0.840043816723419,0.5,0.719093921134213,0.988100676328629,0.159956183276581,0.050557681154935,0.5,0.316072064982418,0.821642105539816,2.35511987464855,2.75764009301179,0.5,36.7336210170654
CBC_1007,CBC_1007_MSI_AV_v3_Vset4_Aset2_2023-06-21_16h24.09.852.csv,3,16,0,1,z,0,1,3,aud,B,63,0,0B,1B,1,0,z,2.12121760000082,0,1,1,0,1B,0B,B01,2.7408400239252,0.890601497878354,0.5,0.5,0.5,0.341963967508791,0.840043816723419,0.5,0.5,0.5,0.5,0.523971751741001,0.341963967508791,0.5,0.5,0.5,0.840043816723419,0.909956871811974,0.090043128188026,0.840043816723419,0.341963967508791,0.224768775993837,0.995171705026755,-0.840043816723419,-0.265514383827483,0.5,0.316072064982418,0.821642105539816,2.35511987464855,2.75764009301179,0.5,36.7336210170654
CBC_1007,CBC_1007_MSI_AV_v3_Vset4_Aset2_2023-06-21_16h24.09.852.csv,3,17,2,3,z,0,1,2,aud,D,63,1,2D,3D,0,1,z,1.52937220000058,0,1,1,1,3D,2D,D23,3.46573590279973,0.890601497878354,0.5,0.5,0.5,0.341963967508791,0.574529432895936,0.5,0.5,0.5,0.5,0.523971751741001,0.341963967508791,0.5,0.5,0.5,0.840043816723419,0.840043816723419,0.159956183276581,0.840043816723419,0.5,0.885291485140958,0.988058076555047,0.159956183276581,0.050557681154935,0.5,0.316072064982418,0.821642105539816,2.35511987464855,2.75764009301179,0.5,36.7336210170654
CBC_1007,CBC_1007_MSI_AV_v3_Vset4_Aset2_2023-06-21_16h24.09.852.csv,3,18,0,2,z,0,1,1,aud,C,27,1,0C,2C,0,1,b,3.39959239999916,1,0,0,0,0C,2C,C02,3.49650756146648,0.890601497878354,0.5,0.5,0.5,0.341963967508791,0.574529432895936,0.5,0.5,0.5,0.5,0.523971751741001,0.341963967508791,0.5,0.5,0.5,0.890601497878354,0.476028248258999,0.523971751741001,0.5,0.523971751741001,0.0651902002919162,0.4222142573749,-0.5,-0.158036032491209,0.5,0.316072064982418,0.821642105539816,2.35511987464855,2.75764009301179,0.5,36.7336210170654
CBC_1007,CBC_1007_MSI_AV_v3_Vset4_Aset2_2023-06-21_16h24.09.852.csv,3,19,0,1,b,1,0,0,aud,A,63,1,0A,1A,1,0,b,0.991809699999067,1,0,1,1,0A,1A,A01,2.83321334405622,0.890601497878354,0.5,0.5,0.5,0.341963967508791,0.574529432895936,0.5,0.5,0.341963967508791,0.5,0.523971751741001,0.341963967508791,0.5,0.5,0.5,0.890601497878354,0.890601497878354,0.109398502121646,0.890601497878354,0.5,0.279087257483795,0.993816189809477,0.109398502121646,0.034577810471572,0.5,0.316072064982418,0.821642105539816,2.35511987464855,2.75764009301179,0.5,36.7336210170654
CBC_1007,CBC_1007_MSI_AV_v3_Vset4_Aset2_2023-06-21_16h24.09.852.csv,3,20,1,0,b,1,0,3,aud,B,63,1,1B,0B,1,0,b,1.87979779999841,1,0,1,1,1B,0B,B10,2.86220088092947,0.925179308349926,0.5,0.5,0.5,0.341963967508791,0.574529432895936,0.5,0.5,0.341963967508791,0.5,0.523971751741001,0.341963967508791,0.5,0.5,0.5,0.890601497878354,0.722101520172122,0.277898479827878,0.574529432895936,0.341963967508791,0.486933803362982,0.947126912085988,0.425470567104064,0.134479360733822,0.5,0.316072064982418,0.821642105539816,2.35511987464855,2.75764009301179,0.5,36.7336210170654
CBC_1007,CBC_1007_MSI_AV_v3_Vset4_Aset2_2023-06-21_16h24.09.852.csv,3,21,1,3,z,0,1,2,aud,D,27,1,1D,3D,0,1,z,1.30866839999908,0,1,1,1,3D,1D,D13,3.58351893845611,0.925179308349926,0.5,0.5,0.5,0.341963967508791,0.709008793629758,0.5,0.5,0.341963967508791,0.5,0.523971751741001,0.341963967508791,0.5,0.5,0.5,0.890601497878354,0.890601497878354,0.109398502121646,0.890601497878354,0.5,1.27353570285703,0.993766029624536,0.109398502121646,0.034577810471572,0.5,0.316072064982418,0.821642105539816,2.35511987464855,2.75764009301179,0.5,36.7336210170654
CBC_1007,CBC_1007_MSI_AV_v3_Vset4_Aset2_2023-06-21_16h24.09.852.csv,3,22,3,2,z,0,1,1,aud,C,63,1,3C,2C,0,1,z,2.35934300000008,0,1,1,1,2C,3C,C32,2.51230562397611,0.925179308349926,0.5,0.5,0.5,0.341963967508791,0.709008793629758,0.5,0.5,0.341963967508791,0.5,0.523971751741001,0.341963967508791,0.5,0.5,0.5,0.925179308349926,0.679290881544512,0.320709118455488,0.523971751741001,0.341963967508791,0.281745823323693,0.911413435710127,0.476028248258999,0.150459231417185,0.5,0.316072064982418,0.821642105539816,2.35511987464855,2.75764009301179,0.5,36.7336210170654
CBC_1007,CBC_1007_MSI_AV_v3_Vset4_Aset2_2023-06-21_16h24.09.852.csv,3,23,0,1,b,1,0,0,aud,A,63,1,0A,1A,1,0,b,1.25399389999984,1,0,1,1,0A,1A,A01,2.53897387105828,0.925179308349926,0.5,0.5,0.5,0.341963967508791,0.709008793629758,0.5,0.5,0.341963967508791,0.5,0.674430983158186,0.341963967508791,0.5,0.5,0.5,0.925179308349926,0.925179308349926,0.0748206916500735,0.925179308349926,0.5,1.42666610780236,0.99601163059436,0.0748206916500735,0.0236487305132515,0.5,0.316072064982418,0.821642105539816,2.35511987464855,2.75764009301179,0.5,36.7336210170654
CBC_1007,CBC_1007_MSI_AV_v3_Vset4_Aset2_2023-06-21_16h24.09.852.csv,3,24,2,3,z,0,1,2,aud,D,63,1,2D,3D,0,1,z,1.41416439999921,0,1,1,1,3D,2D,D23,2.9704144655697,0.948828038863178,0.5,0.5,0.5,0.341963967508791,0.709008793629758,0.5,0.5,0.341963967508791,0.5,0.674430983158186,0.341963967508791,0.5,0.5,0.5,0.925179308349926,0.925179308349926,0.0748206916500735,0.925179308349926,0.5,1.16913773330783,0.996026606092724,0.0748206916500735,0.0236487305132515,0.5,0.316072064982418,0.821642105539816,2.35511987464855,2.75764009301179,0.5,36.7336210170654
CBC_1007,CBC_1007_MSI_AV_v3_Vset4_Aset2_2023-06-21_16h24.09.852.csv,3,25,2,0,b,1,0,1,aud,C,27,1,2C,0C,1,0,b,2.15954239999883,1,0,1,1,2C,0C,C20,3.68887945411394,0.948828038863178,0.5,0.5,0.5,0.341963967508791,0.709008793629758,0.5,0.5,0.341963967508791,0.5,0.674430983158186,0.341963967508791,0.5,0.5,0.5,0.948828038863178,0.799448203186851,0.200551796813149,0.674430983158186,0.341963967508791,0.319346386043073,0.979990511894244,0.325569016841814,0.102903271447488,0.5,0.316072064982418,0.821642105539816,2.35511987464855,2.75764009301179,0.5,36.7336210170654
CBC_1007,CBC_1007_MSI_AV_v3_Vset4_Aset2_2023-06-21_16h24.09.852.csv,3,26,0,1,b,1,0,0,aud,A,63,1,0A,1A,1,0,b,1.21733180000047,1,0,1,1,0A,1A,A01,2.32727770558442,0.948828038863178,0.5,0.5,0.5,0.341963967508791,0.709008793629758,0.5,0.5,0.341963967508791,0.5,0.777334254605674,0.341963967508791,0.5,0.5,0.5,0.948828038863178,0.948828038863178,0.051171961136822,0.948828038863178,0.5,1.52462586393118,0.997075924049573,0.051171961136822,0.0161740274257154,0.5,0.316072064982418,0.821642105539816,2.35511987464855,2.75764009301179,0.5,36.7336210170654
CBC_1007,CBC_1007_MSI_AV_v3_Vset4_Aset2_2023-06-21_16h24.09.852.csv,3,27,1,3,b,1,0,3,aud,B,27,1,1B,3B,1,0,b,1.20220560000053,1,0,1,1,1B,3B,B13,3.04452243772342,0.965002066288893,0.5,0.5,0.5,0.341963967508791,0.709008793629758,0.5,0.5,0.341963967508791,0.5,0.777334254605674,0.341963967508791,0.5,0.5,0.5,0.948828038863178,0.709008793629758,0.290991206370242,0.709008793629758,0.5,0.624260196886923,0.93824337979419,0.290991206370242,0.0919741914891674,0.5,0.316072064982418,0.821642105539816,2.35511987464855,2.75764009301179,0.5,36.7336210170654
CBC_1007,CBC_1007_MSI_AV_v3_Vset4_Aset2_2023-06-21_16h24.09.852.csv,3,28,3,2,z,0,1,1,aud,C,63,1,3C,2C,0,1,z,1.49521320000167,0,1,1,1,2C,3C,C32,2.37490575457367,0.965002066288893,0.5,0.5,0.5,0.341963967508791,0.800982985118926,0.5,0.5,0.341963967508791,0.5,0.777334254605674,0.341963967508791,0.5,0.5,0.5,0.948828038863178,0.870428527841383,0.129571472158617,0.777334254605674,0.341963967508791,0.965314680127724,0.991980939120037,0.222665745394326,0.070378421947634,0.5,0.316072064982418,0.821642105539816,2.35511987464855,2.75764009301179,0.5,36.7336210170654
CBC_1007,CBC_1007_MSI_AV_v3_Vset4_Aset2_2023-06-21_16h24.09.852.csv,3,29,3,2,b,1,0,2,aud,D,63,0,3D,2D,0,1,b,1.14039719999892,1,0,1,0,3D,2D,D32,2.68557734525015,0.965002066288893,0.5,0.5,0.5,0.341963967508791,0.800982985118926,0.5,0.5,0.341963967508791,0.5,0.847712676553308,0.341963967508791,0.5,0.5,0.5,0.948828038863178,0.948828038863178,0.051171961136822,0.948828038863178,0.5,1.40346329996191,0.997083510369642,-0.948828038863178,-0.299898037556703,0.5,0.316072064982418,0.821642105539816,2.35511987464855,2.75764009301179,0.5,36.7336210170654
CBC_1007,CBC_1007_MSI_AV_v3_Vset4_Aset2_2023-06-21_16h24.09.852.csv,3,30,0,1,z,0,1,3,aud,B,63,1,0B,1B,0,1,z,1.63441539999985,0,1,1,1,1B,0B,B01,2.70805020110221,0.965002066288893,0.5,0.5,0.5,0.341963967508791,0.800982985118926,0.5,0.5,0.341963967508791,0.5,0.847712676553308,0.341963967508791,0.5,0.5,0.5,0.648930001306475,0.88564450887358,0.11435549112642,0.800982985118926,0.341963967508791,0.746217970070742,0.993342955170581,0.199017014881074,0.0629037188600979,0.5,0.316072064982418,0.821642105539816,2.35511987464855,2.75764009301179,0.5,36.7336210170654
CBC_1007,CBC_1007_MSI_AV_v3_Vset4_Aset2_2023-06-21_16h24.09.852.csv,3,31,2,0,z,0,1,0,aud,A,27,1,2A,0A,0,1,z,1.90010190000066,0,1,1,1,0A,2A,A20,3.13549421592915,0.965002066288893,0.5,0.5,0.5,0.341963967508791,0.863886703979023,0.5,0.5,0.341963967508791,0.5,0.847712676553308,0.341963967508791,0.5,0.5,0.5,0.648930001306475,0.965002066288893,0.0349979337111066,0.965002066288893,0.5,0.312738081747957,0.997627424582661,0.0349979337111066,0.0110618691781873,0.5,0.316072064982418,0.821642105539816,2.35511987464855,2.75764009301179,0.5,36.7336210170654
CBC_1007,CBC_1007_MSI_AV_v3_Vset4_Aset2_2023-06-21_16h24.09.852.csv,3,32,3,0,b,1,0,2,aud,D,9,1,3D,0D,1,0,b,1.42563370000062,1,0,1,1,3D,0D,D30,3.85014760171006,0.976063935467081,0.5,0.5,0.5,0.341963967508791,0.863886703979023,0.5,0.5,0.341963967508791,0.5,0.847712676553308,0.341963967508791,0.5,0.5,0.5,0.648930001306475,0.648930001306475,0.351069998693525,0.648930001306475,0.5,0.550549115334255,0.873673855848706,0.351069998693525,0.110963419440437,0.5,0.316072064982418,0.821642105539816,2.35511987464855,2.75764009301179,0.5,36.7336210170654
CBC_1007,CBC_1007_MSI_AV_v3_Vset4_Aset2_2023-06-21_16h24.09.852.csv,3,33,3,2,z,0,1,1,aud,C,63,1,3C,2C,0,1,z,1.79726230000051,0,1,1,1,2C,3C,C32,2.26176309847379,0.976063935467081,0.5,0.5,0.5,0.341963967508791,0.863886703979023,0.5,0.5,0.341963967508791,0.5,0.847712676553308,0.341963967508791,0.5,0.5,0.5,0.759893420746912,0.91461455313954,0.0853854468604598,0.847712676553308,0.341963967508791,0.494418476924108,0.995447405026275,0.152287323446692,0.0481337687924414,0.5,0.316072064982418,0.821642105539816,2.35511987464855,2.75764009301179,0.5,36.7336210170654
CBC_1007,CBC_1007_MSI_AV_v3_Vset4_Aset2_2023-06-21_16h24.09.852.csv,3,34,0,1,z,0,1,3,aud,B,63,1,0B,1B,0,1,z,2.18018439999832,0,1,1,1,1B,0B,B01,2.50552593699074,0.976063935467081,0.5,0.5,0.5,0.341963967508791,0.863886703979023,0.5,0.5,0.341963967508791,0.5,0.895846445345749,0.341963967508791,0.5,0.5,0.5,0.759893420746912,0.924317477644295,0.0756825223557052,0.863886703979023,0.341963967508791,0.178061519118627,0.995974588448173,0.136113296020977,0.0430216105449132,0.5,0.316072064982418,0.821642105539816,2.35511987464855,2.75764009301179,0.5,36.7336210170654
CBC_1007,CBC_1007_MSI_AV_v3_Vset4_Aset2_2023-06-21_16h24.09.852.csv,3,35,0,1,b,1,0,0,aud,A,63,0,0A,1A,0,1,b,1.18391060000067,1,0,1,0,0A,1A,A01,2.30258509299405,0.976063935467081,0.5,0.5,0.5,0.341963967508791,0.906908314523937,0.5,0.5,0.341963967508791,0.5,0.895846445345749,0.341963967508791,0.5,0.5,0.5,0.759893420746912,0.976063935467081,0.0239360645329193,0.976063935467081,0.5,1.61886582444622,0.997934198961238,-0.976063935467081,-0.308506543637946,0.5,0.316072064982418,0.821642105539816,2.35511987464855,2.75764009301179,0.5,36.7336210170654
CBC_1007,CBC_1007_MSI_AV_v3_Vset4_Aset2_2023-06-21_16h24.09.852.csv,3,36,2,3,z,0,1,2,aud,D,63,1,2D,3D,0,1,z,1.71770680000009,0,1,1,1,3D,2D,D23,2.83321334405622,0.667557391829135,0.5,0.5,0.5,0.341963967508791,0.906908314523937,0.5,0.5,0.341963967508791,0.5,0.895846445345749,0.341963967508791,0.5,0.5,0.5,0.759893420746912,0.759893420746912,0.240106579253088,0.759893420746912,0.5,0.619892089605058,0.966891187561682,0.240106579253088,0.0758909823203881,0.5,0.316072064982418,0.821642105539816,2.35511987464855,2.75764009301179,0.5,36.7336210170654
CBC_1007,CBC_1007_MSI_AV_v3_Vset4_Aset2_2023-06-21_16h24.09.852.csv,3,37,1,2,b,1,0,3,aud,B,9,1,1B,2B,1,0,b,1.89318139999887,1,0,1,1,1B,2B,B12,3.95124371858143,0.667557391829135,0.5,0.5,0.5,0.341963967508791,0.906908314523937,0.5,0.5,0.341963967508791,0.5,0.895846445345749,0.341963967508791,0.5,0.5,0.5,0.835784403067301,0.906908314523937,0.0930916854760633,0.906908314523937,0.5,0.39985706895101,0.994965553500472,0.0930916854760633,0.0294236812611131,0.5,0.316072064982418,0.821642105539816,2.35511987464855,2.75764009301179,0.5,36.7336210170654
CBC_1007,CBC_1007_MSI_AV_v3_Vset4_Aset2_2023-06-21_16h24.09.852.csv,3,38,2,0,z,0,1,0,aud,A,27,1,2A,0A,0,1,z,2.02267620000021,0,1,1,1,0A,2A,A20,2.87167962488401,0.667557391829135,0.5,0.5,0.5,0.341963967508791,0.93633199578505,0.5,0.5,0.341963967508791,0.5,0.895846445345749,0.341963967508791,0.5,0.5,0.5,0.835784403067301,0.667557391829135,0.332442608170865,0.667557391829135,0.5,0.384765519035501,0.898124644906772,0.332442608170865,0.105075821652706,0.5,0.316072064982418,0.821642105539816,2.35511987464855,2.75764009301179,0.5,36.7336210170654
CBC_1007,CBC_1007_MSI_AV_v3_Vset4_Aset2_2023-06-21_16h24.09.852.csv,3,39,2,3,b,1,0,1,aud,C,63,1,2C,3C,1,0,b,1.32778390000021,1,0,1,1,2C,3C,C23,3.29583686600433,0.772633213481841,0.5,0.5,0.5,0.341963967508791,0.93633199578505,0.5,0.5,0.341963967508791,0.5,0.895846445345749,0.341963967508791,0.5,0.5,0.5,0.835784403067301,0.943023754653219,0.0569762453467808,0.895846445345749,0.341963967508791,1.37846408589346,0.996844218934837,0.104153554654251,0.0329200290948281,0.5,0.316072064982418,0.821642105539816,2.35511987464855,2.75764009301179,0.5,36.7336210170654
CBC_1007,CBC_1007_MSI_AV_v3_Vset4_Aset2_2023-06-21_16h24.09.852.csv,3,40,1,3,z,0,1,2,aud,D,27,1,1D,3D,0,1,z,1.52682789999926,0,1,1,1,3D,1D,D13,3.31418600467253,0.772633213481841,0.5,0.5,0.5,0.341963967508791,0.93633199578505,0.5,0.5,0.341963967508791,0.5,0.928766474440578,0.341963967508791,0.5,0.5,0.5,0.835784403067301,0.835784403067301,0.164215596932699,0.835784403067301,0.5,0.884133872054559,0.987390108295051,0.164215596932699,0.0519039628248388,0.5,0.316072064982418,0.821642105539816,2.35511987464855,2.75764009301179,0.5,36.7336210170654
CBC_1007,CBC_1007_MSI_AV_v3_Vset4_Aset2_2023-06-21_16h24.09.852.csv,3,41,0,1,b,1,0,0,aud,A,63,1,0A,1A,1,0,b,1.16805919999933,1,0,1,1,0A,1A,A01,2.23359222150709,0.772633213481841,0.5,0.5,0.5,0.341963967508791,0.93633199578505,0.5,0.5,0.341963967508791,0.5,0.928766474440578,0.341963967508791,0.5,0.5,0.5,0.887688365892139,0.772633213481841,0.227366786518159,0.772633213481841,0.5,0.766526213430538,0.971893431292342,0.227366786518159,0.0718642897232112,0.5,0.316072064982418,0.821642105539816,2.35511987464855,2.75764009301179,0.5,36.7336210170654
CBC_1007,CBC_1007_MSI_AV_v3_Vset4_Aset2_2023-06-21_16h24.09.852.csv,3,42,0,2,z,0,1,1,aud,C,27,1,0C,2C,0,1,z,2.77161019999949,0,1,1,1,2C,0C,C02,3.3499040872746,0.844497503205052,0.5,0.5,0.5,0.341963967508791,0.93633199578505,0.5,0.5,0.341963967508791,0.5,0.928766474440578,0.341963967508791,0.5,0.5,0.5,0.887688365892139,0.961670353935728,0.038329646064272,0.928766474440578,0.341963967508791,0.0232550625457575,0.997518196137647,0.0712335255594224,0.0225149275195445,0.5,0.316072064982418,0.821642105539816,2.35511987464855,2.75764009301179,0.5,36.7336210170654
CBC_1007,CBC_1007_MSI_AV_v3_Vset4_Aset2_2023-06-21_16h24.09.852.csv,3,43,3,2,b,1,0,2,aud,D,63,1,3D,2D,1,0,b,1.18890570000076,1,0,1,1,3D,2D,D32,2.67414864942653,0.844497503205052,0.5,0.5,0.5,0.341963967508791,0.93633199578505,0.5,0.5,0.341963967508791,0.5,0.951281401960122,0.341963967508791,0.5,0.5,0.5,0.887688365892139,0.887688365892139,0.112311634107861,0.887688365892139,0.5,1.24877019828421,0.993542917283566,0.112311634107861,0.0354985701140213,0.5,0.316072064982418,0.821642105539816,2.35511987464855,2.75764009301179,0.5,36.7336210170654
CBC_1007,CBC_1007_MSI_AV_v3_Vset4_Aset2_2023-06-21_16h24.09.852.csv,3,44,1,0,b,1,0,3,aud,B,63,1,1B,0B,1,0,b,1.1392792000006,1,0,1,1,1B,0B,B10,2.97892515523761,0.844497503205052,0.5,0.5,0.5,0.341963967508791,0.93633199578505,0.5,0.5,0.341963967508791,0.5,0.951281401960122,0.341963967508791,0.5,0.5,0.5,0.923186936006161,0.965869663510049,0.0341303364899513,0.93633199578505,0.341963967508791,1.47959442548487,0.997659755087368,0.0636680042149501,0.0201236775655286,0.5,0.316072064982418,0.821642105539816,2.35511987464855,2.75764009301179,0.5,36.7336210170654
CBC_1007,CBC_1007_MSI_TV_v3_Vset1_Tset3_2023-06-21_16h50.43.207.csv,4,1,0,1,b,1,0,0,tac,A,63,1,0A,1A,1,0,z,2.03404790000059,0,1,0,0,1A,0A,A01,2.77258872223978,0.5,0.5,0.5,0.5,0.5,0.5,0.5,0.5,0.5,0.5,0.5,0.5,0.5,0.5,0.5,0.5,0.5,0.5,0.5,0.5,0.156417463993592,0.500418050407558,-0.5,-0.177440621227617,0.5,0.354881242455233,1.099944572128,1.71116993575692,3.43704582513421,0.5,46.4198991144333
CBC_1007,CBC_1007_MSI_TV_v3_Vset1_Tset3_2023-06-21_16h50.43.207.csv,4,2,2,3,z,0,1,2,tac,D,63,1,2D,3D,0,1,b,2.42155249999996,1,0,0,0,2D,3D,D23,2.83321334405622,0.5,0.322559378772383,0.5,0.5,0.5,0.5,0.5,0.5,0.5,0.5,0.5,0.5,0.5,0.5,0.5,0.5,0.5,0.5,0.5,0.5,0.147120998533166,0.498482074176391,-0.5,-0.177440621227617,0.5,0.354881242455233,1.099944572128,1.71116993575692,3.43704582513421,0.5,46.4198991144333
CBC_1007,CBC_1007_MSI_TV_v3_Vset1_Tset3_2023-06-21_16h50.43.207.csv,4,3,0,2,z,0,1,1,tac,C,27,1,0C,2C,0,1,z,2.58686540000053,0,1,1,1,2C,0C,C02,2.89037175789616,0.5,0.322559378772383,0.5,0.5,0.5,0.5,0.5,0.5,0.5,0.5,0.5,0.5,0.5,0.5,0.322559378772383,0.5,0.5,0.5,0.5,0.5,0.139685106996637,0.499167139009798,0.5,0.177440621227617,0.5,0.354881242455233,1.099944572128,1.71116993575692,3.43704582513421,0.5,46.4198991144333
CBC_1007,CBC_1007_MSI_TV_v3_Vset1_Tset3_2023-06-21_16h50.43.207.csv,4,4,0,1,b,1,0,0,tac,A,63,1,0A,1A,1,0,z,2.51520960000198,0,1,0,0,1A,0A,A01,2.2512917986065,0.5,0.322559378772383,0.5,0.5,0.5,0.5,0.5,0.5,0.5,0.5,0.677440621227617,0.5,0.5,0.5,0.322559378772383,0.5,0.322559378772383,0.677440621227617,0.322559378772383,0.5,0.0389386163927925,0.110520983572656,-0.322559378772383,-0.114470273104332,0.5,0.354881242455233,1.099944572128,1.71116993575692,3.43704582513421,0.5,46.4198991144333
CBC_1007,CBC_1007_MSI_TV_v3_Vset1_Tset3_2023-06-21_16h50.43.207.csv,4,5,1,3,b,1,0,3,tac,B,27,1,1B,3B,1,0,z,2.33534440000039,0,1,0,0,3B,1B,B13,2.99573227355399,0.5,0.208089105668052,0.5,0.5,0.5,0.5,0.5,0.5,0.5,0.5,0.677440621227617,0.5,0.5,0.5,0.322559378772383,0.5,0.5,0.5,0.5,0.5,0.151190583350902,0.500425996904052,-0.5,-0.177440621227617,0.5,0.354881242455233,1.099944572128,1.71116993575692,3.43704582513421,0.5,46.4198991144333
CBC_1007,CBC_1007_MSI_TV_v3_Vset1_Tset3_2023-06-21_16h50.43.207.csv,4,6,3,2,z,0,1,1,tac,C,63,1,3C,2C,0,1,z,2.55173960000138,0,1,1,1,2C,3C,C32,3.04452243772342,0.5,0.208089105668052,0.5,0.5,0.5,0.5,0.5,0.322559378772383,0.5,0.5,0.677440621227617,0.5,0.5,0.5,0.322559378772383,0.5,0.677440621227617,0.322559378772383,0.677440621227617,0.5,0.307560055980779,0.889525943567782,0.322559378772383,0.114470273104332,0.5,0.354881242455233,1.099944572128,1.71116993575692,3.43704582513421,0.5,46.4198991144333
CBC_1007,CBC_1007_MSI_TV_v3_Vset1_Tset3_2023-06-21_16h50.43.207.csv,4,7,3,2,b,1,0,2,tac,D,63,1,3D,2D,1,0,b,2.32430040000145,1,0,1,1,3D,2D,D32,3.09104245335832,0.5,0.208089105668052,0.5,0.5,0.5,0.5,0.5,0.322559378772383,0.5,0.5,0.791910894331948,0.5,0.5,0.5,0.322559378772383,0.5,0.677440621227617,0.322559378772383,0.5,0.322559378772383,0.343276322558988,0.889754873247511,0.5,0.177440621227617,0.5,0.354881242455233,1.099944572128,1.71116993575692,3.43704582513421,0.5,46.4198991144333
CBC_1007,CBC_1007_MSI_TV_v3_Vset1_Tset3_2023-06-21_16h50.43.207.csv,4,8,0,1,z,0,1,3,tac,B,63,1,0B,1B,0,1,z,3.3468842000002,0,1,1,1,1B,0B,B01,3.13549421592915,0.5,0.208089105668052,0.5,0.5,0.5,0.5,0.5,0.322559378772383,0.5,0.5,0.791910894331948,0.5,0.5,0.5,0.322559378772383,0.677440621227617,0.5,0.5,0.5,0.5,0.10358399957113,0.498696135464333,0.5,0.177440621227617,0.5,0.354881242455233,1.099944572128,1.71116993575692,3.43704582513421,0.5,46.4198991144333
CBC_1007,CBC_1007_MSI_TV_v3_Vset1_Tset3_2023-06-21_16h50.43.207.csv,4,9,2,0,z,0,1,0,tac,A,27,1,2A,0A,0,1,z,2.69209190000038,0,1,1,1,0A,2A,A20,3.17805383034795,0.5,0.208089105668052,0.5,0.5,0.5,0.677440621227617,0.5,0.322559378772383,0.5,0.5,0.791910894331948,0.5,0.5,0.5,0.322559378772383,0.677440621227617,0.5,0.5,0.5,0.5,0.134657876732921,0.499672640593903,0.5,0.177440621227617,0.5,0.354881242455233,1.099944572128,1.71116993575692,3.43704582513421,0.5,46.4198991144333
CBC_1007,CBC_1007_MSI_TV_v3_Vset1_Tset3_2023-06-21_16h50.43.207.csv,4,10,3,0,b,1,0,2,tac,D,9,1,3D,0D,1,0,b,2.17954090000057,1,0,1,1,3D,0D,D30,3.2188758248682,0.677440621227617,0.208089105668052,0.5,0.5,0.5,0.677440621227617,0.5,0.322559378772383,0.5,0.5,0.791910894331948,0.5,0.5,0.5,0.322559378772383,0.677440621227617,0.677440621227617,0.322559378772383,0.677440621227617,0.5,0.362143570029605,0.889635211119706,0.322559378772383,0.114470273104332,0.5,0.354881242455233,1.099944572128,1.71116993575692,3.43704582513421,0.5,46.4198991144333
CBC_1007,CBC_1007_MSI_TV_v3_Vset1_Tset3_2023-06-21_16h50.43.207.csv,4,11,2,3,b,1,0,1,tac,C,63,1,2C,3C,1,0,b,2.83385510000153,1,0,1,1,2C,3C,C23,3.25809653802148,0.677440621227617,0.208089105668052,0.5,0.5,0.5,0.677440621227617,0.5,0.322559378772383,0.5,0.5,0.791910894331948,0.5,0.5,0.5,0.322559378772383,0.791910894331948,0.791910894331948,0.208089105668052,0.791910894331948,0.5,0.299266330167714,0.968891433970712,0.208089105668052,0.0738469203608765,0.5,0.354881242455233,1.099944572128,1.71116993575692,3.43704582513421,0.5,46.4198991144333
CBC_1007,CBC_1007_MSI_TV_v3_Vset1_Tset3_2023-06-21_16h50.43.207.csv,4,12,0,1,z,0,1,3,tac,B,63,1,0B,1B,0,1,z,1.85968610000054,0,1,1,1,1B,0B,B01,2.60268968544438,0.677440621227617,0.208089105668052,0.5,0.5,0.5,0.677440621227617,0.5,0.322559378772383,0.5,0.5,0.865757814692825,0.5,0.5,0.5,0.322559378772383,0.791910894331948,0.677440621227617,0.322559378772383,0.677440621227617,0.5,0.366097598159348,0.889806838298835,0.322559378772383,0.114470273104332,0.5,0.354881242455233,1.099944572128,1.71116993575692,3.43704582513421,0.5,46.4198991144333
CBC_1007,CBC_1007_MSI_TV_v3_Vset1_Tset3_2023-06-21_16h50.43.207.csv,4,13,2,3,z,0,1,2,tac,D,63,1,2D,3D,0,1,z,2.11237790000087,0,1,1,1,3D,2D,D23,2.63905732961526,0.677440621227617,0.208089105668052,0.5,0.5,0.5,0.791910894331948,0.5,0.322559378772383,0.5,0.5,0.865757814692825,0.5,0.5,0.5,0.322559378772383,0.791910894331948,0.888797559422499,0.111202440577501,0.791910894331948,0.322559378772383,0.628909565433712,0.989817605895922,0.208089105668052,0.0738469203608765,0.5,0.354881242455233,1.099944572128,1.71116993575692,3.43704582513421,0.5,46.4198991144333
CBC_1007,CBC_1007_MSI_TV_v3_Vset1_Tset3_2023-06-21_16h50.43.207.csv,4,14,2,3,b,1,0,1,tac,C,63,1,2C,3C,1,0,b,2.50117239999963,1,0,1,1,2C,3C,C23,2.67414864942653,0.677440621227617,0.208089105668052,0.5,0.5,0.5,0.791910894331948,0.5,0.322559378772383,0.5,0.5,0.865757814692825,0.5,0.5,0.5,0.322559378772383,0.865757814692825,0.865757814692825,0.134242185307175,0.865757814692825,0.5,0.412871020398607,0.986669103502091,0.134242185307175,0.047640033511716,0.5,0.354881242455233,1.099944572128,1.71116993575692,3.43704582513421,0.5,46.4198991144333
CBC_1007,CBC_1007_MSI_TV_v3_Vset1_Tset3_2023-06-21_16h50.43.207.csv,4,15,3,1,z,0,1,3,tac,B,27,1,3B,1B,0,1,z,1.75963670000056,0,1,1,1,1B,3B,B31,3.40119738166216,0.677440621227617,0.208089105668052,0.5,0.5,0.5,0.791910894331948,0.5,0.322559378772383,0.5,0.5,0.913397848204541,0.5,0.5,0.5,0.322559378772383,0.865757814692825,0.888797559422499,0.111202440577501,0.791910894331948,0.322559378772383,0.749092551746094,0.989796079719836,0.208089105668052,0.0738469203608765,0.5,0.354881242455233,1.099944572128,1.71116993575692,3.43704582513421,0.5,46.4198991144333
CBC_1007,CBC_1007_MSI_TV_v3_Vset1_Tset3_2023-06-21_16h50.43.207.csv,4,16,0,3,b,1,0,0,tac,A,9,1,0A,3A,1,0,b,2.71860960000049,1,0,1,1,0A,3A,A03,3.43398720448515,0.677440621227617,0.208089105668052,0.5,0.5,0.5,0.865757814692825,0.5,0.322559378772383,0.5,0.5,0.913397848204541,0.5,0.5,0.5,0.322559378772383,0.865757814692825,0.677440621227617,0.322559378772383,0.677440621227617,0.5,0.281141035268844,0.889716621697909,0.322559378772383,0.114470273104332,0.5,0.354881242455233,1.099944572128,1.71116993575692,3.43704582513421,0.5,46.4198991144333
CBC_1007,CBC_1007_MSI_TV_v3_Vset1_Tset3_2023-06-21_16h50.43.207.csv,4,17,2,3,z,0,1,2,tac,D,63,1,2D,3D,0,1,z,1.94528710000122,0,1,1,1,3D,2D,D23,2.36712361413162,0.791910894331948,0.208089105668052,0.5,0.5,0.5,0.865757814692825,0.5,0.322559378772383,0.5,0.5,0.913397848204541,0.5,0.5,0.5,0.322559378772383,0.865757814692825,0.931246371085855,0.0687536289141453,0.865757814692825,0.322559378772383,0.773718463679521,0.993776306680909,0.134242185307175,0.047640033511716,0.5,0.354881242455233,1.099944572128,1.71116993575692,3.43704582513421,0.5,46.4198991144333
CBC_1007,CBC_1007_MSI_TV_v3_Vset1_Tset3_2023-06-21_16h50.43.207.csv,4,18,0,2,z,0,1,1,tac,C,27,1,0C,2C,0,1,z,2.88618900000074,0,1,1,1,2C,0C,C02,2.80336038090653,0.791910894331948,0.208089105668052,0.5,0.5,0.5,0.865757814692825,0.5,0.322559378772383,0.5,0.5,0.913397848204541,0.5,0.5,0.5,0.322559378772383,0.913397848204541,0.913397848204541,0.0866021517954593,0.913397848204541,0.5,0.238251091530756,0.992320389467811,0.0866021517954593,0.0307334792284693,0.5,0.354881242455233,1.099944572128,1.71116993575692,3.43704582513421,0.5,46.4198991144333
CBC_1007,CBC_1007_MSI_TV_v3_Vset1_Tset3_2023-06-21_16h50.43.207.csv,4,19,0,1,b,1,0,0,tac,A,63,1,0A,1A,1,0,b,3.09496350000154,1,0,1,1,0A,1A,A01,2.42774823594805,0.791910894331948,0.208089105668052,0.5,0.5,0.5,0.865757814692825,0.5,0.322559378772383,0.5,0.5,0.94413132743301,0.5,0.5,0.5,0.322559378772383,0.913397848204541,0.935412396120489,0.0645876038795108,0.791910894331948,0.208089105668052,0.162602612226615,0.994078981049722,0.208089105668052,0.0738469203608765,0.5,0.354881242455233,1.099944572128,1.71116993575692,3.43704582513421,0.5,46.4198991144333
CBC_1007,CBC_1007_MSI_TV_v3_Vset1_Tset3_2023-06-21_16h50.43.207.csv,4,20,1,0,b,1,0,3,tac,B,63,0,1B,0B,0,1,b,1.88815800000157,1,0,1,0,1B,0B,B10,3.55534806148941,0.865757814692825,0.208089105668052,0.5,0.5,0.5,0.865757814692825,0.5,0.322559378772383,0.5,0.5,0.94413132743301,0.5,0.5,0.5,0.322559378772383,0.913397848204541,0.865757814692825,0.134242185307175,0.865757814692825,0.5,0.697569399766573,0.98665144003749,-0.865757814692825,-0.307241208943517,0.5,0.354881242455233,1.099944572128,1.71116993575692,3.43704582513421,0.5,46.4198991144333
CBC_1007,CBC_1007_MSI_TV_v3_Vset1_Tset3_2023-06-21_16h50.43.207.csv,4,21,3,1,b,1,0,2,tac,D,27,1,3D,1D,1,0,b,2.2149129999998,1,0,1,1,3D,1D,D31,3.58351893845611,0.865757814692825,0.208089105668052,0.5,0.5,0.5,0.558516605749308,0.5,0.322559378772383,0.5,0.5,0.94413132743301,0.5,0.5,0.5,0.322559378772383,0.913397848204541,0.913397848204541,0.0866021517954593,0.913397848204541,0.5,0.57715158196877,0.992341288055916,0.0866021517954593,0.0307334792284693,0.5,0.354881242455233,1.099944572128,1.71116993575692,3.43704582513421,0.5,46.4198991144333
CBC_1007,CBC_1007_MSI_TV_v3_Vset1_Tset3_2023-06-21_16h50.43.207.csv,4,22,3,2,z,0,1,1,tac,C,63,1,3C,2C,0,1,z,2.16772760000094,0,1,1,1,2C,3C,C32,2.91777073208428,0.865757814692825,0.208089105668052,0.5,0.5,0.5,0.558516605749308,0.5,0.322559378772383,0.5,0.5,0.94413132743301,0.5,0.5,0.5,0.322559378772383,0.94413132743301,0.94413132743301,0.05586867256699,0.94413132743301,0.5,0.6187659210553,0.994671563144735,0.05586867256699,0.019826743934898,0.5,0.354881242455233,1.099944572128,1.71116993575692,3.43704582513421,0.5,46.4198991144333
CBC_1007,CBC_1007_MSI_TV_v3_Vset1_Tset3_2023-06-21_16h50.43.207.csv,4,23,0,1,z,0,1,3,tac,B,63,1,0B,1B,0,1,z,1.51004510000166,0,1,1,1,1B,0B,B01,2.53897387105828,0.865757814692825,0.208089105668052,0.5,0.5,0.5,0.558516605749308,0.5,0.322559378772383,0.5,0.5,0.963958071367908,0.5,0.5,0.5,0.322559378772383,0.94413132743301,0.558516605749308,0.441483394250692,0.558516605749308,0.5,0.0995867011048323,0.66489585546252,0.441483394250692,0.156674175475039,0.5,0.354881242455233,1.099944572128,1.71116993575692,3.43704582513421,0.5,46.4198991144333
CBC_1007,CBC_1007_MSI_TV_v3_Vset1_Tset3_2023-06-21_16h50.43.207.csv,4,24,0,2,b,1,0,0,tac,A,27,1,0A,2A,1,0,b,3.10006939999948,1,0,1,1,0A,2A,A02,3.66356164612965,0.865757814692825,0.208089105668052,0.5,0.5,0.5,0.715190781224347,0.5,0.322559378772383,0.5,0.5,0.963958071367908,0.5,0.5,0.5,0.322559378772383,0.94413132743301,0.865757814692825,0.134242185307175,0.865757814692825,0.5,0.20619590494189,0.986605632706526,0.134242185307175,0.047640033511716,0.5,0.354881242455233,1.099944572128,1.71116993575692,3.43704582513421,0.5,46.4198991144333
CBC_1007,CBC_1007_MSI_TV_v3_Vset1_Tset3_2023-06-21_16h50.43.207.csv,4,25,3,2,b,1,0,2,tac,D,63,1,3D,2D,1,0,b,2.65758939999978,1,0,1,1,3D,2D,D32,2.99573227355399,0.913397848204541,0.208089105668052,0.5,0.5,0.5,0.715190781224347,0.5,0.322559378772383,0.5,0.5,0.963958071367908,0.5,0.5,0.5,0.322559378772383,0.94413132743301,0.97259643547938,0.0274035645206199,0.94413132743301,0.322559378772383,0.286780437154756,0.996152928589812,0.05586867256699,0.019826743934898,0.5,0.354881242455233,1.099944572128,1.71116993575692,3.43704582513421,0.5,46.4198991144333
CBC_1007,CBC_1007_MSI_TV_v3_Vset1_Tset3_2023-06-21_16h50.43.207.csv,4,26,0,2,z,0,1,1,tac,C,27,1,0C,2C,0,1,z,2.15694570000051,0,1,1,1,2C,0C,C02,2.6149597780362,0.913397848204541,0.208089105668052,0.5,0.5,0.5,0.715190781224347,0.5,0.322559378772383,0.5,0.5,0.963958071367908,0.5,0.5,0.5,0.322559378772383,0.963958071367908,0.963958071367908,0.036041928632092,0.963958071367908,0.5,0.630372665526555,0.995749638284282,0.036041928632092,0.0127906044134396,0.5,0.354881242455233,1.099944572128,1.71116993575692,3.43704582513421,0.5,46.4198991144333
CBC_1007,CBC_1007_MSI_TV_v3_Vset1_Tset3_2023-06-21_16h50.43.207.csv,4,27,0,1,z,0,1,3,tac,B,63,1,0B,1B,0,1,z,1.56764789999943,0,1,1,1,1B,0B,B01,2.35137525716348,0.913397848204541,0.208089105668052,0.5,0.5,0.5,0.715190781224347,0.5,0.322559378772383,0.5,0.5,0.976748675781348,0.5,0.5,0.5,0.322559378772383,0.963958071367908,0.715190781224347,0.284809218775653,0.715190781224347,0.5,0.284920174662871,0.926391566775525,0.284809218775653,0.101073449421808,0.5,0.354881242455233,1.099944572128,1.71116993575692,3.43704582513421,0.5,46.4198991144333
CBC_1007,CBC_1007_MSI_TV_v3_Vset1_Tset3_2023-06-21_16h50.43.207.csv,4,28,1,0,z,0,1,0,tac,A,63,1,1A,0A,0,1,z,2.45552660000067,0,1,1,1,0A,1A,A10,3.76120011569356,0.913397848204541,0.208089105668052,0.5,0.5,0.5,0.816264230646155,0.5,0.322559378772383,0.5,0.5,0.976748675781348,0.5,0.5,0.5,0.322559378772383,0.963958071367908,0.97569171376396,0.0243082862360397,0.913397848204541,0.208089105668052,0.397784246428939,0.996287886572212,0.0866021517954593,0.0307334792284693,0.5,0.354881242455233,1.099944572128,1.71116993575692,3.43704582513421,0.5,46.4198991144333
CBC_1007,CBC_1007_MSI_TV_v3_Vset1_Tset3_2023-06-21_16h50.43.207.csv,4,29,2,3,b,1,0,1,tac,C,63,1,2C,3C,1,0,b,2.3321360000009,1,0,1,1,2C,3C,C23,2.68557734525015,0.94413132743301,0.208089105668052,0.5,0.5,0.5,0.816264230646155,0.5,0.322559378772383,0.5,0.5,0.976748675781348,0.5,0.5,0.5,0.322559378772383,0.963958071367908,0.976748675781348,0.0232513242186524,0.976748675781348,0.5,0.483705068244774,0.996379782373459,0.0232513242186524,0.00825145882744482,0.5,0.354881242455233,1.099944572128,1.71116993575692,3.43704582513421,0.5,46.4198991144333
CBC_1007,CBC_1007_MSI_TV_v3_Vset1_Tset3_2023-06-21_16h50.43.207.csv,4,30,1,3,z,0,1,2,tac,D,27,1,1D,3D,0,1,z,2.17157860000043,0,1,1,1,3D,1D,D13,3.80666248977032,0.94413132743301,0.208089105668052,0.5,0.5,0.5,0.816264230646155,0.5,0.322559378772383,0.5,0.5,0.985000134608792,0.5,0.5,0.5,0.322559378772383,0.963958071367908,0.963958071367908,0.036041928632092,0.963958071367908,0.5,0.617888758310429,0.99574231623826,0.036041928632092,0.0127906044134396,0.5,0.354881242455233,1.099944572128,1.71116993575692,3.43704582513421,0.5,46.4198991144333
CBC_1007,CBC_1007_MSI_TV_v3_Vset1_Tset3_2023-06-21_16h50.43.207.csv,4,31,0,1,b,1,0,0,tac,A,63,1,0A,1A,1,0,b,2.9246734999997,1,0,1,1,0A,1A,A01,2.4423470353692,0.94413132743301,0.208089105668052,0.5,0.5,0.5,0.816264230646155,0.5,0.322559378772383,0.5,0.5,0.985000134608792,0.5,0.5,0.5,0.322559378772383,0.976748675781348,0.984688843766918,0.0153111562330823,0.94413132743301,0.208089105668052,0.173072151980891,0.996676234491741,0.05586867256699,0.019826743934898,0.5,0.354881242455233,1.099944572128,1.71116993575692,3.43704582513421,0.5,46.4198991144333
CBC_1007,CBC_1007_MSI_TV_v3_Vset1_Tset3_2023-06-21_16h50.43.207.csv,4,32,2,3,z,0,1,2,tac,D,63,1,2D,3D,0,1,z,2.01514750000024,0,1,1,1,3D,2D,D23,2.46385324059017,0.963958071367908,0.208089105668052,0.5,0.5,0.5,0.816264230646155,0.5,0.322559378772383,0.5,0.5,0.985000134608792,0.5,0.5,0.5,0.322559378772383,0.976748675781348,0.988792507235617,0.0112074927643835,0.976748675781348,0.322559378772383,0.767978979014904,0.996813837262206,0.0232513242186524,0.00825145882744482,0.5,0.354881242455233,1.099944572128,1.71116993575692,3.43704582513421,0.5,46.4198991144333
CBC_1007,CBC_1007_MSI_TV_v3_Vset1_Tset3_2023-06-21_16h50.43.207.csv,4,33,1,2,b,1,0,3,tac,B,9,1,1B,2B,1,0,b,1.98820850000084,1,0,1,1,1B,2B,B12,3.87120101090789,0.963958071367908,0.208089105668052,0.5,0.5,0.5,0.816264230646155,0.5,0.322559378772383,0.5,0.5,0.985000134608792,0.5,0.5,0.5,0.322559378772383,0.985000134608792,0.816264230646155,0.183735769353845,0.816264230646155,0.5,0.592788780123719,0.976288189494922,0.183735769353845,0.0652043781117607,0.5,0.354881242455233,1.099944572128,1.71116993575692,3.43704582513421,0.5,46.4198991144333
CBC_1007,CBC_1007_MSI_TV_v3_Vset1_Tset3_2023-06-21_16h50.43.207.csv,4,34,0,1,b,1,0,0,tac,A,63,1,0A,1A,NaN,NaN,None,NaN,NaN,NaN,NaN,NaN,,,A01,2.28238238567653,0.963958071367908,0.208089105668052,0.5,0.5,0.5,0.881468608757916,0.5,0.322559378772383,0.5,0.5,0.985000134608792,0.5,0.5,0.5,0.322559378772383,0.985000134608792,0,0,0,0,NaN,0,0,0,0.5,0.354881242455233,1.099944572128,1.71116993575692,3.43704582513421,0.5,46.4198991144333
CBC_1007,CBC_1007_MSI_TV_v3_Vset1_Tset3_2023-06-21_16h50.43.207.csv,4,35,1,2,z,0,1,1,tac,C,9,1,1C,2C,0,1,z,2.00856659999954,0,1,1,1,2C,1C,C12,3.91202300542815,0.963958071367908,0.208089105668052,0.5,0.5,0.5,0.881468608757916,0.5,0.322559378772383,0.5,0.5,0.985000134608792,0.5,0.5,0.5,0.322559378772383,0.985000134608792,0.985000134608792,0.0149998653912076,0.985000134608792,0.5,0.772557200959244,0.996683840432593,0.0149998653912076,0.00532317086669299,0.5,0.354881242455233,1.099944572128,1.71116993575692,3.43704582513421,0.5,46.4198991144333
CBC_1007,CBC_1007_MSI_TV_v3_Vset1_Tset3_2023-06-21_16h50.43.207.csv,4,36,0,1,z,0,1,3,tac,B,63,1,0B,1B,0,1,z,2.20235330000105,0,1,1,1,1B,0B,B01,2.32238772029023,0.963958071367908,0.208089105668052,0.5,0.5,0.5,0.881468608757916,0.5,0.322559378772383,0.5,0.5,0.990323305475485,0.5,0.5,0.5,0.322559378772383,0.985000134608792,0.881468608757916,0.118531391242084,0.881468608757916,0.5,0.571670684886522,0.988869179514427,0.118531391242084,0.0420645673939382,0.5,0.354881242455233,1.099944572128,1.71116993575692,3.43704582513421,0.5,46.4198991144333
CBC_1007,CBC_1007_MSI_TV_v3_Vset1_Tset3_2023-06-21_16h50.43.207.csv,4,37,1,0,z,0,1,0,tac,A,63,0,1A,0A,1,0,z,1.96928800000205,0,1,1,0,0A,1A,A10,3.25809653802148,0.963958071367908,0.208089105668052,0.5,0.5,0.5,0.923533176151854,0.5,0.322559378772383,0.5,0.5,0.990323305475485,0.5,0.5,0.5,0.322559378772383,0.985000134608792,0.990270805624624,0.0097291943753759,0.963958071367908,0.208089105668052,0.813541354365275,0.996877753752569,-0.963958071367908,-0.342090638041794,0.5,0.354881242455233,1.099944572128,1.71116993575692,3.43704582513421,0.5,46.4198991144333
CBC_1007,CBC_1007_MSI_TV_v3_Vset1_Tset3_2023-06-21_16h50.43.207.csv,4,38,1,0,b,1,0,3,tac,B,63,1,1B,0B,1,0,b,1.56602320000093,1,0,1,1,1B,0B,B10,3.27714473299218,0.621867433326114,0.208089105668052,0.5,0.5,0.5,0.923533176151854,0.5,0.322559378772383,0.5,0.5,0.990323305475485,0.5,0.5,0.5,0.322559378772383,0.985000134608792,0.923533176151854,0.0764668238481461,0.923533176151854,0.5,0.670743156600766,0.993184084222032,0.0764668238481461,0.0271366414538355,0.5,0.354881242455233,1.099944572128,1.71116993575692,3.43704582513421,0.5,46.4198991144333
CBC_1007,CBC_1007_MSI_TV_v3_Vset1_Tset3_2023-06-21_16h50.43.207.csv,4,39,3,1,b,1,0,2,tac,D,27,1,3D,1D,1,0,b,1.96836520000033,1,0,1,1,3D,1D,D31,3.29583686600433,0.621867433326114,0.208089105668052,0.5,0.5,0.5,0.950669817605689,0.5,0.322559378772383,0.5,0.5,0.990323305475485,0.5,0.5,0.5,0.322559378772383,0.985000134608792,0.985000134608792,0.0149998653912076,0.985000134608792,0.5,0.81067491489158,0.996688742517593,0.0149998653912076,0.00532317086669299,0.5,0.354881242455233,1.099944572128,1.71116993575692,3.43704582513421,0.5,46.4198991144333
CBC_1007,CBC_1007_MSI_TV_v3_Vset1_Tset3_2023-06-21_16h50.43.207.csv,4,40,2,3,b,1,0,1,tac,C,63,1,2C,3C,1,0,b,2.20886940000128,1,0,1,1,2C,3C,C23,2.62103882411258,0.621867433326114,0.208089105668052,0.5,0.5,0.5,0.950669817605689,0.5,0.322559378772383,0.5,0.5,0.990323305475485,0.5,0.5,0.5,0.322559378772383,0.990323305475485,0.990323305475485,0.00967669452451458,0.990323305475485,0.5,0.581770422373372,0.99687607834367,0.00967669452451458,0.00343407737571949,0.5,0.354881242455233,1.099944572128,1.71116993575692,3.43704582513421,0.5,46.4198991144333
CBC_1007,CBC_1007_MSI_TV_v3_Vset1_Tset3_2023-06-21_16h50.43.207.csv,4,41,2,0,z,0,1,0,tac,A,27,1,2A,0A,0,1,z,2.26000190000195,0,1,1,1,0A,2A,A20,3.3322045101752,0.621867433326114,0.208089105668052,0.5,0.5,0.5,0.950669817605689,0.5,0.322559378772383,0.5,0.5,0.993757382851205,0.5,0.5,0.5,0.322559378772383,0.990323305475485,0.621867433326114,0.378132566673886,0.621867433326114,0.5,0.284381601832519,0.80741100123128,0.378132566673886,0.134192155074015,0.5,0.354881242455233,1.099944572128,1.71116993575692,3.43704582513421,0.5,46.4198991144333
CBC_1007,CBC_1007_MSI_TV_v3_Vset1_Tset3_2023-06-21_16h50.43.207.csv,4,42,3,2,b,1,0,2,tac,D,63,1,3D,2D,1,0,b,2.15760820000105,1,0,1,1,3D,2D,D32,2.94443897916644,0.756059588400129,0.208089105668052,0.5,0.5,0.5,0.950669817605689,0.5,0.322559378772383,0.5,0.5,0.993757382851205,0.5,0.5,0.5,0.322559378772383,0.990323305475485,0.99536902333832,0.00463097666167966,0.990323305475485,0.322559378772383,0.628576567968235,0.997069551979407,0.00967669452451458,0.00343407737571949,0.5,0.354881242455233,1.099944572128,1.71116993575692,3.43704582513421,0.5,46.4198991144333
CBC_1007,CBC_1007_MSI_TV_v3_Vset1_Tset3_2023-06-21_16h50.43.207.csv,4,43,3,1,z,0,1,3,tac,B,27,1,3B,1B,0,1,z,2.22163330000149,0,1,1,1,1B,3B,B31,3.36729582998647,0.756059588400129,0.208089105668052,0.5,0.5,0.5,0.950669817605689,0.5,0.322559378772383,0.5,0.5,0.993757382851205,0.5,0.5,0.5,0.322559378772383,0.993757382851205,0.975888639465564,0.0241113605344358,0.950669817605689,0.322559378772383,0.574063343167338,0.996305062472114,0.0493301823943105,0.0175063564186362,0.5,0.354881242455233,1.099944572128,1.71116993575692,3.43704582513421,0.5,46.4198991144333
CBC_1007,CBC_1007_MSI_TV_v3_Vset1_Tset3_2023-06-21_16h50.43.207.csv,4,44,2,3,b,1,0,1,tac,C,63,1,2C,3C,1,0,b,3.06092380000155,1,0,1,1,2C,3C,C23,2.46809953147162,0.756059588400129,0.208089105668052,0.5,0.5,0.5,0.968176174024326,0.5,0.322559378772383,0.5,0.5,0.993757382851205,0.5,0.5,0.5,0.322559378772383,0.993757382851205,0.993757382851205,0.00624261714879515,0.993757382851205,0.5,0.129350276582929,0.997015153213197,0.00624261714879515,0.00221538772993677,0.5,0.354881242455233,1.099944572128,1.71116993575692,3.43704582513421,0.5,46.4198991144333
