ID,session,trialNr,mod2Stim,visStimLeft,visStimRight,correctKey,frequency,rewardAccurate,probFB,stimPairLeft,stimPairRight,leftCorrect,rightCorrect,pCorrectLeft,pCorrectRight,triplet,rt,surprise,0A belief,1A belief,2A belief,3A belief,0B belief,1B belief,2B belief,3B belief,0C belief,1C belief,2C belief,3C belief,0D belief,1D belief,2D belief,3D belief,reactionTime,choice,choiceLeft,choiceRight,chosenPair,otherPair,beliefPair,beliefOtherPair,beliefPairNorm,beliefOtherPairNorm,choiceAccurate,reward,rewardPE,update2,sim_CBCsimpleRW_CBCdriftDiffusionLR_startBelief,sim_CBCsimpleRW_CBCdriftDiffusionLR_alpha1,sim_CBCsimpleRW_CBCdriftDiffusionLR_nonDecisionTime,sim_CBCsimpleRW_CBCdriftDiffusionLR_weight,sim_CBCsimpleRW_CBCdriftDiffusionLR_startingBoundary,sim_CBCsimpleRW_CBCdriftDiffusionLR_startingPoint,lik,corrLik,fitCBCsimpleRW_CBCdriftDiffusionLR_startBelief,fitCBCsimpleRW_CBCdriftDiffusionLR_alpha1,fitCBCsimpleRW_CBCdriftDiffusionLR_nonDecisionTime,fitCBCsimpleRW_CBCdriftDiffusionLR_weight,fitCBCsimpleRW_CBCdriftDiffusionLR_startingBoundary,fitCBCsimpleRW_CBCdriftDiffusionLR_startingPoint,fit_CBCsimpleRW_CBCdriftDiffusionLR_NLL
108,1,1,A,0,1,a,63,1,0.91,0A,1A,1,0,1,0,A01,2.22135674693245,2.77258872223978,0.5,0.5,0.5,0.5,0.5,0.5,0.5,0.5,0.5,0.5,0.5,0.5,0.5,0.5,0.5,0.5,1.09573839551408,1,1,0,0A,1A,0.5,0.5,0.5,0.5,1,1,0.5,0.341068405788071,0.5,0.122098448029666,0.970738395514082,1.17806681344196,1.62822794484528,0.5,0.847160709544429,0.500702028742749,0.5,0.682136811576141,0.964425297412403,0.206474396202618,1.43567740481173,0.5,41.3353643526223
108,1,2,D,2,3,l,63,1,0.91,2D,3D,0,1,0,1,D23,0.972606105636893,2.83321334405622,0.841068405788071,0.5,0.5,0.5,0.5,0.5,0.5,0.5,0.5,0.5,0.5,0.5,0.5,0.5,0.5,0.5,1.35373839551408,1,1,0,2D,3D,0.5,0.5,0.5,0.5,0,0,-0.5,-0.341068405788071,0.5,0.122098448029666,0.970738395514082,1.17806681344196,1.62822794484528,0.5,0.599296496319744,0.500181564018953,0.5,0.682136811576141,0.964425297412403,0.206474396202618,1.43567740481173,0.5,41.3353643526223
108,1,3,C,0,2,l,27,1,0.91,0C,2C,0,1,0,1,C02,2.16418640802008,2.89037175789616,0.841068405788071,0.5,0.5,0.5,0.5,0.5,0.5,0.5,0.5,0.5,0.5,0.5,0.5,0.5,0.158931594211929,0.5,1.05873839551408,0,0,1,2C,0C,0.5,0.5,0.5,0.5,1,1,0.5,0.341068405788071,0.5,0.122098448029666,0.970738395514082,1.17806681344196,1.62822794484528,0.5,0.644299091862924,0.500485891408941,0.5,0.682136811576141,0.964425297412403,0.206474396202618,1.43567740481173,0.5,41.3353643526223
108,1,4,A,0,1,a,63,1,0.91,0A,1A,1,0,1,0,A01,3.03832670588497,2.2512917986065,0.841068405788071,0.5,0.5,0.5,0.5,0.5,0.5,0.5,0.5,0.5,0.841068405788071,0.5,0.5,0.5,0.158931594211929,0.5,1.27573839551408,1,1,0,0A,1A,0.841068405788071,0.5,0.627162941247447,0.372837058752553,1,1,0.158931594211929,0.108413090934439,0.5,0.122098448029666,0.970738395514082,1.17806681344196,1.62822794484528,0.5,0.745212872825586,0.518981391513385,0.5,0.682136811576141,0.964425297412403,0.206474396202618,1.43567740481173,0.5,41.3353643526223
108,1,5,B,1,3,a,27,1,0.91,1B,3B,1,0,1,0,B13,3.28742890309599,2.99573227355399,0.949481496722509,0.5,0.5,0.5,0.5,0.5,0.5,0.5,0.5,0.5,0.841068405788071,0.5,0.5,0.5,0.158931594211929,0.5,1.04573839551408,0,0,1,3B,1B,0.5,0.5,0.5,0.5,0,0,-0.5,-0.341068405788071,0.5,0.122098448029666,0.970738395514082,1.17806681344196,1.62822794484528,0.5,0.519460875350702,0.499941184173452,0.5,0.682136811576141,0.964425297412403,0.206474396202618,1.43567740481173,0.5,41.3353643526223
108,1,6,C,3,2,l,63,1,0.91,3C,2C,0,1,0,1,C32,3.1473184812178,3.04452243772342,0.949481496722509,0.5,0.5,0.5,0.5,0.5,0.5,0.158931594211929,0.5,0.5,0.841068405788071,0.5,0.5,0.5,0.158931594211929,0.5,1.42973839551408,1,1,0,3C,2C,0.5,0.841068405788071,0.372837058752553,0.627162941247447,0,0,-0.5,-0.341068405788071,0.5,0.122098448029666,0.970738395514082,1.17806681344196,1.62822794484528,0.5,0.48127002218349,0.481160945642709,0.5,0.682136811576141,0.964425297412403,0.206474396202618,1.43567740481173,0.5,41.3353643526223
108,1,7,D,3,2,a,63,0,0.91,3D,2D,1,0,0,1,D32,1.11591860326519,3.09104245335832,0.949481496722509,0.5,0.5,0.5,0.5,0.5,0.5,0.158931594211929,0.5,0.5,0.841068405788071,0.158931594211929,0.5,0.5,0.158931594211929,0.5,1.25473839551408,1,1,0,3D,2D,0.5,0.158931594211929,0.758804107121303,0.241195892878697,1,0,-0.5,-0.341068405788071,0.5,0.122098448029666,0.970738395514082,1.17806681344196,1.62822794484528,0.5,0.8103046511392,0.538183561709297,0.5,0.682136811576141,0.964425297412403,0.206474396202618,1.43567740481173,0.5,41.3353643526223
108,1,8,B,0,1,l,63,1,0.91,0B,1B,0,1,0,1,B01,2.9112123161312,3.13549421592915,0.949481496722509,0.5,0.5,0.5,0.5,0.5,0.5,0.158931594211929,0.5,0.5,0.841068405788071,0.158931594211929,0.5,0.5,0.158931594211929,0.158931594211929,1.66173839551408,0,0,1,1B,0B,0.5,0.5,0.5,0.5,1,1,0.5,0.341068405788071,0.5,0.122098448029666,0.970738395514082,1.17806681344196,1.62822794484528,0.5,0.287019530142614,0.499916768631088,0.5,0.682136811576141,0.964425297412403,0.206474396202618,1.43567740481173,0.5,41.3353643526223
108,1,9,A,2,0,l,27,1,0.91,2A,0A,0,1,0,1,A20,1.25774223591428,3.17805383034795,0.949481496722509,0.5,0.5,0.5,0.5,0.841068405788071,0.5,0.158931594211929,0.5,0.5,0.841068405788071,0.158931594211929,0.5,0.5,0.158931594211929,0.158931594211929,1.36373839551408,0,0,1,0A,2A,0.949481496722509,0.5,0.655049063316383,0.344950936683616,1,1,0.0505185032774906,0.0344605307513063,0.5,0.122098448029666,0.970738395514082,1.17806681344196,1.62822794484528,0.5,0.612920807581286,0.523657481251075,0.5,0.682136811576141,0.964425297412403,0.206474396202618,1.43567740481173,0.5,41.3353643526223
108,1,10,D,3,0,a,9,1,0.91,3D,0D,1,0,1,0,D30,1.08202389517769,3.2188758248682,0.983942027473816,0.5,0.5,0.5,0.5,0.841068405788071,0.5,0.158931594211929,0.5,0.5,0.841068405788071,0.158931594211929,0.5,0.5,0.158931594211929,0.158931594211929,3.37773839551408,1,1,0,3D,0D,0.158931594211929,0.5,0.241195892878697,0.758804107121303,1,1,0.841068405788071,0.573723720641703,0.5,0.122098448029666,0.970738395514082,1.17806681344196,1.62822794484528,0.5,0.00430062869279058,0.460966866137952,0.5,0.682136811576141,0.964425297412403,0.206474396202618,1.43567740481173,0.5,41.3353643526223
108,1,11,C,2,3,a,63,1,0.91,2C,3C,1,0,1,0,C23,1.41796295342306,3.25809653802148,0.983942027473816,0.5,0.5,0.5,0.5,0.841068405788071,0.5,0.158931594211929,0.5,0.5,0.841068405788071,0.158931594211929,0.5,0.5,0.158931594211929,0.732655314853632,1.05873839551408,1,1,0,2C,3C,0.841068405788071,0.158931594211929,0.841068405788071,0.158931594211929,1,1,0.158931594211929,0.108413090934439,0.5,0.122098448029666,0.970738395514082,1.17806681344196,1.62822794484528,0.5,0.711212309949119,0.550184349408818,0.5,0.682136811576141,0.964425297412403,0.206474396202618,1.43567740481173,0.5,41.3353643526223
108,1,12,B,0,1,l,63,1,0.91,0B,1B,0,1,0,1,B01,0.49457419267002,2.60268968544438,0.983942027473816,0.5,0.5,0.5,0.5,0.841068405788071,0.5,0.158931594211929,0.5,0.5,0.949481496722509,0.158931594211929,0.5,0.5,0.158931594211929,0.732655314853632,1.30373839551408,1,1,0,0B,1B,0.5,0.841068405788071,0.372837058752553,0.627162941247447,0,0,-0.5,-0.341068405788071,0.5,0.122098448029666,0.970738395514082,1.17806681344196,1.62822794484528,0.5,0.647922085137449,0.480977241589469,0.5,0.682136811576141,0.964425297412403,0.206474396202618,1.43567740481173,0.5,41.3353643526223
108,1,13,D,2,3,l,63,1,0.91,2D,3D,0,1,0,1,D23,2.93718295902213,2.63905732961526,0.983942027473816,0.5,0.5,0.5,0.158931594211929,0.841068405788071,0.5,0.158931594211929,0.5,0.5,0.949481496722509,0.158931594211929,0.5,0.5,0.158931594211929,0.732655314853632,1.70773839551408,0,0,1,3D,2D,0.732655314853632,0.158931594211929,0.821743015071296,0.178256984928704,1,1,0.267344685146368,0.182365651117571,0.5,0.122098448029666,0.970738395514082,1.17806681344196,1.62822794484528,0.5,0.28088987739532,0.547291343292694,0.5,0.682136811576141,0.964425297412403,0.206474396202618,1.43567740481173,0.5,41.3353643526223
108,1,14,C,2,3,a,63,1,0.91,2C,3C,1,0,1,0,C23,3.31994871361864,2.67414864942653,0.983942027473816,0.5,0.5,0.5,0.158931594211929,0.841068405788071,0.5,0.158931594211929,0.5,0.5,0.949481496722509,0.158931594211929,0.5,0.5,0.158931594211929,0.915020965971203,1.40873839551408,1,1,0,2C,3C,0.949481496722509,0.158931594211929,0.85661339124212,0.14338660875788,1,1,0.0505185032774906,0.0344605307513063,0.5,0.122098448029666,0.970738395514082,1.17806681344196,1.62822794484528,0.5,0.581989424833443,0.553048893041018,0.5,0.682136811576141,0.964425297412403,0.206474396202618,1.43567740481173,0.5,41.3353643526223
108,1,15,B,3,1,l,27,1,0.91,3B,1B,0,1,0,1,B31,1.05020234604998,3.40119738166216,0.983942027473816,0.5,0.5,0.5,0.158931594211929,0.841068405788071,0.5,0.158931594211929,0.5,0.5,0.983942027473816,0.158931594211929,0.5,0.5,0.158931594211929,0.915020965971203,1.30173839551408,1,1,0,3B,1B,0.158931594211929,0.841068405788071,0.158931594211929,0.841068405788071,0,0,-0.158931594211929,-0.108413090934439,0.5,0.122098448029666,0.970738395514082,1.17806681344196,1.62822794484528,0.5,0.609518584056369,0.449710783454029,0.5,0.682136811576141,0.964425297412403,0.206474396202618,1.43567740481173,0.5,41.3353643526223
108,1,16,A,0,3,a,9,1,0.91,0A,3A,1,0,1,0,A03,1.00035430426163,3.43398720448515,0.983942027473816,0.5,0.5,0.5,0.158931594211929,0.841068405788071,0.5,0.0505185032774907,0.5,0.5,0.983942027473816,0.158931594211929,0.5,0.5,0.158931594211929,0.915020965971203,1.63173839551408,0,0,1,3A,0A,0.5,0.983942027473816,0.336940386310895,0.663059613689105,0,0,-0.5,-0.341068405788071,0.5,0.122098448029666,0.970738395514082,1.17806681344196,1.62822794484528,0.5,0.293644152647951,0.476169769734547,0.5,0.682136811576141,0.964425297412403,0.206474396202618,1.43567740481173,0.5,41.3353643526223
108,1,17,D,2,3,l,63,1,0.91,2D,3D,0,1,0,1,D23,0.913724564145338,2.36712361413162,0.983942027473816,0.5,0.5,0.158931594211929,0.158931594211929,0.841068405788071,0.5,0.0505185032774907,0.5,0.5,0.983942027473816,0.158931594211929,0.5,0.5,0.158931594211929,0.915020965971203,2.17473839551408,1,1,0,2D,3D,0.158931594211929,0.915020965971203,0.147987536977265,0.852012463022735,0,0,-0.158931594211929,-0.108413090934439,0.5,0.122098448029666,0.970738395514082,1.17806681344196,1.62822794484528,0.5,0.0747670290931009,0.448015752713426,0.5,0.682136811576141,0.964425297412403,0.206474396202618,1.43567740481173,0.5,41.3353643526223
108,1,18,C,0,2,l,27,1,0.91,0C,2C,0,1,0,1,C02,0.0659064616942606,2.80336038090653,0.983942027473816,0.5,0.5,0.158931594211929,0.158931594211929,0.841068405788071,0.5,0.0505185032774907,0.5,0.5,0.983942027473816,0.158931594211929,0.5,0.5,0.0505185032774907,0.915020965971203,1.29273839551408,0,0,1,2C,0C,0.983942027473816,0.5,0.663059613689105,0.336940386310895,1,1,0.0160579725261843,0.0109537341793887,0.5,0.122098448029666,0.970738395514082,1.17806681344196,1.62822794484528,0.5,0.724641529489413,0.524407752150163,0.5,0.682136811576141,0.964425297412403,0.206474396202618,1.43567740481173,0.5,41.3353643526223
108,1,19,A,0,1,a,63,1,0.91,0A,1A,1,0,1,0,A01,0.549082872993593,2.42774823594805,0.983942027473816,0.5,0.5,0.158931594211929,0.158931594211929,0.841068405788071,0.5,0.0505185032774907,0.5,0.5,0.994895761653204,0.158931594211929,0.5,0.5,0.0505185032774907,0.915020965971203,1.21673839551408,0,0,1,1A,0A,0.5,0.983942027473816,0.336940386310895,0.663059613689105,0,0,-0.5,-0.341068405788071,0.5,0.122098448029666,0.970738395514082,1.17806681344196,1.62822794484528,0.5,0.774636098284952,0.476023946678824,0.5,0.682136811576141,0.964425297412403,0.206474396202618,1.43567740481173,0.5,41.3353643526223
108,1,20,B,1,0,a,63,0,0.91,1B,0B,1,0,0,1,B10,2.17908028530143,3.55534806148941,0.983942027473816,0.158931594211929,0.5,0.158931594211929,0.158931594211929,0.841068405788071,0.5,0.0505185032774907,0.5,0.5,0.994895761653204,0.158931594211929,0.5,0.5,0.0505185032774907,0.915020965971203,1.39373839551408,1,1,0,1B,0B,0.841068405788071,0.158931594211929,0.841068405788071,0.158931594211929,1,0,-0.841068405788071,-0.573723720641703,0.5,0.122098448029666,0.970738395514082,1.17806681344196,1.62822794484528,0.5,0.600449093088073,0.550530279585885,0.5,0.682136811576141,0.964425297412403,0.206474396202618,1.43567740481173,0.5,41.3353643526223
108,1,21,D,3,1,a,27,1,0.91,3D,1D,1,0,1,0,D31,0.286602146385329,3.58351893845611,0.983942027473816,0.158931594211929,0.5,0.158931594211929,0.158931594211929,0.267344685146368,0.5,0.0505185032774907,0.5,0.5,0.994895761653204,0.158931594211929,0.5,0.5,0.0505185032774907,0.915020965971203,2.11573839551408,1,1,0,3D,1D,0.915020965971203,0.5,0.646648345131181,0.353351654868819,1,1,0.084979034028797,0.057967327323224,0.5,0.122098448029666,0.970738395514082,1.17806681344196,1.62822794484528,0.5,0.100887886943488,0.521657846621184,0.5,0.682136811576141,0.964425297412403,0.206474396202618,1.43567740481173,0.5,41.3353643526223
108,1,22,C,3,2,l,63,1,0.91,3C,2C,0,1,0,1,C32,2.31759336627398,2.91777073208428,0.983942027473816,0.158931594211929,0.5,0.158931594211929,0.158931594211929,0.267344685146368,0.5,0.0505185032774907,0.5,0.5,0.994895761653204,0.158931594211929,0.5,0.5,0.0505185032774907,0.972988293294427,1.56473839551408,1,1,0,3C,2C,0.158931594211929,0.994895761653204,0.137742959034598,0.862257040965402,0,0,-0.158931594211929,-0.108413090934439,0.5,0.122098448029666,0.970738395514082,1.17806681344196,1.62822794484528,0.5,0.322944069308866,0.446361469748149,0.5,0.682136811576141,0.964425297412403,0.206474396202618,1.43567740481173,0.5,41.3353643526223
108,1,23,B,0,1,l,63,1,0.91,0B,1B,0,1,0,1,B01,1.08709692960925,2.53897387105828,0.983942027473816,0.158931594211929,0.5,0.158931594211929,0.158931594211929,0.267344685146368,0.5,0.0505185032774907,0.5,0.5,0.994895761653204,0.0505185032774907,0.5,0.5,0.0505185032774907,0.972988293294427,1.12173839551408,1,1,0,0B,1B,0.158931594211929,0.267344685146368,0.372837058752553,0.627162941247447,0,0,-0.158931594211929,-0.108413090934439,0.5,0.122098448029666,0.970738395514082,1.17806681344196,1.62822794484528,0.5,0.858627082661311,0.480896368322241,0.5,0.682136811576141,0.964425297412403,0.206474396202618,1.43567740481173,0.5,41.3353643526223
108,1,24,A,0,2,a,27,1,0.91,0A,2A,1,0,1,0,A02,3.48011079156435,3.66356164612965,0.983942027473816,0.158931594211929,0.5,0.158931594211929,0.0505185032774907,0.267344685146368,0.5,0.0505185032774907,0.5,0.5,0.994895761653204,0.0505185032774907,0.5,0.5,0.0505185032774907,0.972988293294427,2.20873839551408,0,0,1,2A,0A,0.5,0.983942027473816,0.336940386310895,0.663059613689105,0,0,-0.5,-0.341068405788071,0.5,0.122098448029666,0.970738395514082,1.17806681344196,1.62822794484528,0.5,0.0735497593070467,0.475409770211619,0.5,0.682136811576141,0.964425297412403,0.206474396202618,1.43567740481173,0.5,41.3353643526223
108,1,25,D,3,2,a,63,1,0.91,3D,2D,1,0,1,0,D32,1.01907358931667,2.99573227355399,0.983942027473816,0.158931594211929,0.158931594211929,0.158931594211929,0.0505185032774907,0.267344685146368,0.5,0.0505185032774907,0.5,0.5,0.994895761653204,0.0505185032774907,0.5,0.5,0.0505185032774907,0.972988293294427,1.18273839551408,1,1,0,3D,2D,0.972988293294427,0.0505185032774907,0.950641751039959,0.0493582489600409,1,1,0.027011706705573,0.0184256794873694,0.5,0.122098448029666,0.970738395514082,1.17806681344196,1.62822794484528,0.5,0.982536991237365,0.566760274300948,0.5,0.682136811576141,0.964425297412403,0.206474396202618,1.43567740481173,0.5,41.3353643526223
108,1,26,C,0,2,l,27,1,0.91,0C,2C,0,1,0,1,C02,1.7559777903117,2.6149597780362,0.983942027473816,0.158931594211929,0.158931594211929,0.158931594211929,0.0505185032774907,0.267344685146368,0.5,0.0505185032774907,0.5,0.5,0.994895761653204,0.0505185032774907,0.5,0.5,0.0505185032774907,0.991413972781796,1.13973839551408,1,1,0,0C,2C,0.5,0.994895761653204,0.334471481440987,0.665528518559013,0,0,-0.5,-0.341068405788071,0.5,0.122098448029666,0.970738395514082,1.17806681344196,1.62822794484528,0.5,0.854330169506084,0.475669380322292,0.5,0.682136811576141,0.964425297412403,0.206474396202618,1.43567740481173,0.5,41.3353643526223
108,1,27,B,0,1,l,63,1,0.91,0B,1B,0,1,0,1,B01,2.79596388412285,2.35137525716348,0.983942027473816,0.158931594211929,0.158931594211929,0.158931594211929,0.0505185032774907,0.267344685146368,0.5,0.0505185032774907,0.158931594211929,0.5,0.994895761653204,0.0505185032774907,0.5,0.5,0.0505185032774907,0.991413972781796,1.63173839551408,1,1,0,0B,1B,0.0505185032774907,0.267344685146368,0.158931594211929,0.841068405788071,0,0,-0.0505185032774907,-0.0344605307513064,0.5,0.122098448029666,0.970738395514082,1.17806681344196,1.62822794484528,0.5,0.277150453528638,0.449945737323493,0.5,0.682136811576141,0.964425297412403,0.206474396202618,1.43567740481173,0.5,41.3353643526223
108,1,28,A,1,0,l,63,1,0.91,1A,0A,0,1,0,1,A10,1.25954821649965,3.76120011569356,0.983942027473816,0.158931594211929,0.158931594211929,0.158931594211929,0.0160579725261843,0.267344685146368,0.5,0.0505185032774907,0.158931594211929,0.5,0.994895761653204,0.0505185032774907,0.5,0.5,0.0505185032774907,0.991413972781796,1.67273839551408,0,0,1,0A,1A,0.983942027473816,0.158931594211929,0.860936860212502,0.139063139787498,1,1,0.0160579725261843,0.0109537341793887,0.5,0.122098448029666,0.970738395514082,1.17806681344196,1.62822794484528,0.5,0.308956154629692,0.553694831791359,0.5,0.682136811576141,0.964425297412403,0.206474396202618,1.43567740481173,0.5,41.3353643526223
108,1,29,C,2,3,a,63,0,0.91,2C,3C,1,0,0,1,C23,0.542609779957466,2.68557734525015,0.994895761653204,0.158931594211929,0.158931594211929,0.158931594211929,0.0160579725261843,0.267344685146368,0.5,0.0505185032774907,0.158931594211929,0.5,0.994895761653204,0.0505185032774907,0.5,0.5,0.0505185032774907,0.991413972781796,1.18373839551408,1,1,0,2C,3C,0.994895761653204,0.0505185032774907,0.951676091505371,0.0483239084946289,1,0,-0.994895761653204,-0.678655022704734,0.5,0.122098448029666,0.970738395514082,1.17806681344196,1.62822794484528,0.5,0.980065076875172,0.56623057797946,0.5,0.682136811576141,0.964425297412403,0.206474396202618,1.43567740481173,0.5,41.3353643526223
108,1,30,D,1,3,l,27,1,0.91,1D,3D,0,1,0,1,D13,1.15609738672033,3.80666248977032,0.994895761653204,0.158931594211929,0.158931594211929,0.158931594211929,0.0160579725261843,0.267344685146368,0.5,0.0505185032774907,0.158931594211929,0.5,0.316240738948471,0.0505185032774907,0.5,0.5,0.0505185032774907,0.991413972781796,1.19173839551408,1,1,0,1D,3D,0.5,0.991413972781796,0.335252323717604,0.664747676282396,0,0,-0.5,-0.341068405788071,0.5,0.122098448029666,0.970738395514082,1.17806681344196,1.62822794484528,0.5,0.810347009518232,0.476170871252495,0.5,0.682136811576141,0.964425297412403,0.206474396202618,1.43567740481173,0.5,41.3353643526223
108,1,31,A,0,1,a,63,1,0.91,0A,1A,1,0,1,0,A01,0.231867137125359,2.4423470353692,0.994895761653204,0.158931594211929,0.158931594211929,0.158931594211929,0.0160579725261843,0.267344685146368,0.5,0.0505185032774907,0.158931594211929,0.5,0.316240738948471,0.0505185032774907,0.5,0.158931594211929,0.0505185032774907,0.991413972781796,1.45273839551408,1,1,0,0A,1A,0.994895761653204,0.158931594211929,0.862257040965402,0.137742959034598,1,1,0.00510423834679563,0.00348178887140785,0.5,0.122098448029666,0.970738395514082,1.17806681344196,1.62822794484528,0.5,0.524366691325254,0.553721575824507,0.5,0.682136811576141,0.964425297412403,0.206474396202618,1.43567740481173,0.5,41.3353643526223
108,1,32,D,2,3,l,63,1,0.91,2D,3D,0,1,0,1,D23,3.08537838618736,2.46385324059017,0.998377550524612,0.158931594211929,0.158931594211929,0.158931594211929,0.0160579725261843,0.267344685146368,0.5,0.0505185032774907,0.158931594211929,0.5,0.316240738948471,0.0505185032774907,0.5,0.158931594211929,0.0505185032774907,0.991413972781796,2.46273839551408,0,0,1,3D,2D,0.991413972781796,0.0505185032774907,0.951514609210994,0.0484853907890055,1,1,0.00858602721820356,0.00585684523073135,0.5,0.122098448029666,0.970738395514082,1.17806681344196,1.62822794484528,0.5,0.0470024734672963,0.566858628035155,0.5,0.682136811576141,0.964425297412403,0.206474396202618,1.43567740481173,0.5,41.3353643526223
108,1,33,B,1,2,a,9,1,0.91,1B,2B,1,0,1,0,B12,0.446995821204606,3.87120101090789,0.998377550524612,0.158931594211929,0.158931594211929,0.158931594211929,0.0160579725261843,0.267344685146368,0.5,0.0505185032774907,0.158931594211929,0.5,0.316240738948471,0.0505185032774907,0.5,0.158931594211929,0.0505185032774907,0.997270818012528,1.84473839551408,1,1,0,1B,2B,0.267344685146368,0.5,0.348402341635263,0.651597658364737,1,1,0.732655314853632,0.499771160458571,0.5,0.122098448029666,0.970738395514082,1.17806681344196,1.62822794484528,0.5,0.176673110867864,0.477257527981769,0.5,0.682136811576141,0.964425297412403,0.206474396202618,1.43567740481173,0.5,41.3353643526223
108,1,34,A,0,1,a,63,1,0.91,0A,1A,1,0,1,0,A01,2.91860225133701,2.28238238567653,0.998377550524612,0.158931594211929,0.158931594211929,0.158931594211929,0.0160579725261843,0.767115845604939,0.5,0.0505185032774907,0.158931594211929,0.5,0.316240738948471,0.0505185032774907,0.5,0.158931594211929,0.0505185032774907,0.997270818012528,1.73473839551408,0,0,1,1A,0A,0.158931594211929,0.998377550524612,0.137328556449029,0.862671443550971,0,0,-0.158931594211929,-0.108413090934439,0.5,0.122098448029666,0.970738395514082,1.17806681344196,1.62822794484528,0.5,0.214872579296108,0.446983467138934,0.5,0.682136811576141,0.964425297412403,0.206474396202618,1.43567740481173,0.5,41.3353643526223
108,1,35,C,1,2,l,9,1,0.91,1C,2C,0,1,0,1,C12,0.864977214543798,3.91202300542815,0.998377550524612,0.0505185032774907,0.158931594211929,0.158931594211929,0.0160579725261843,0.767115845604939,0.5,0.0505185032774907,0.158931594211929,0.5,0.316240738948471,0.0505185032774907,0.5,0.158931594211929,0.0505185032774907,0.997270818012528,1.70273839551408,1,1,0,1C,2C,0.5,0.316240738948471,0.612564377323447,0.387435622676553,0,0,-0.5,-0.341068405788071,0.5,0.122098448029666,0.970738395514082,1.17806681344196,1.62822794484528,0.5,0.268937922043692,0.516862551000289,0.5,0.682136811576141,0.964425297412403,0.206474396202618,1.43567740481173,0.5,41.3353643526223
108,1,36,B,0,1,l,63,1,0.91,0B,1B,0,1,0,1,B01,0.0981124275160897,2.32238772029023,0.998377550524612,0.0505185032774907,0.158931594211929,0.158931594211929,0.0160579725261843,0.767115845604939,0.5,0.0505185032774907,0.158931594211929,0.158931594211929,0.316240738948471,0.0505185032774907,0.5,0.158931594211929,0.0505185032774907,0.997270818012528,1.64773839551408,1,1,0,0B,1B,0.0160579725261843,0.767115845604939,0.0205037146983581,0.979496285301642,0,0,-0.0160579725261843,-0.0109537341793887,0.5,0.122098448029666,0.970738395514082,1.17806681344196,1.62822794484528,0.5,0.253939027081379,0.429155940665597,0.5,0.682136811576141,0.964425297412403,0.206474396202618,1.43567740481173,0.5,41.3353643526223
108,1,37,A,1,0,l,63,0,0.91,1A,0A,0,1,1,0,A10,3.3578248696945,3.25809653802148,0.998377550524612,0.0505185032774907,0.158931594211929,0.158931594211929,0.00510423834679567,0.767115845604939,0.5,0.0505185032774907,0.158931594211929,0.158931594211929,0.316240738948471,0.0505185032774907,0.5,0.158931594211929,0.0505185032774907,0.997270818012528,1.10373839551408,0,0,1,0A,1A,0.998377550524612,0.0505185032774907,0.95183650172544,0.0481634982745603,1,0,-0.998377550524612,-0.681030079064057,0.5,0.122098448029666,0.970738395514082,1.17806681344196,1.62822794484528,0.5,0.989022307797709,0.566956447628061,0.5,0.682136811576141,0.964425297412403,0.206474396202618,1.43567740481173,0.5,41.3353643526223
108,1,38,B,1,0,a,63,1,0.91,1B,0B,1,0,1,0,B10,2.8441396315276,3.27714473299218,0.317347471460555,0.0505185032774907,0.158931594211929,0.158931594211929,0.00510423834679567,0.767115845604939,0.5,0.0505185032774907,0.158931594211929,0.158931594211929,0.316240738948471,0.0505185032774907,0.5,0.158931594211929,0.0505185032774907,0.997270818012528,1.27173839551408,1,1,0,1B,0B,0.767115845604939,0.00510423834679567,0.993390176644105,0.00660982335589539,1,1,0.232884154395061,0.158858854545653,0.5,0.122098448029666,0.970738395514082,1.17806681344196,1.62822794484528,0.5,0.833311881243323,0.572851675996867,0.5,0.682136811576141,0.964425297412403,0.206474396202618,1.43567740481173,0.5,41.3353643526223
108,1,39,D,3,1,a,27,1,0.91,3D,1D,1,0,1,0,D31,3.1850925569134,3.29583686600433,0.317347471460555,0.0505185032774907,0.158931594211929,0.158931594211929,0.00510423834679567,0.925974700150592,0.5,0.0505185032774907,0.158931594211929,0.158931594211929,0.316240738948471,0.0505185032774907,0.5,0.158931594211929,0.0505185032774907,0.997270818012528,1.14373839551408,0,0,1,1D,3D,0.158931594211929,0.997270818012528,0.137460009191778,0.862539990808222,0,0,-0.158931594211929,-0.108413090934439,0.5,0.122098448029666,0.970738395514082,1.17806681344196,1.62822794484528,0.5,0.803583615525777,0.446567748661864,0.5,0.682136811576141,0.964425297412403,0.206474396202618,1.43567740481173,0.5,41.3353643526223
108,1,40,C,2,3,a,63,1,0.91,2C,3C,1,0,1,0,C23,2.47011477526472,2.62103882411258,0.317347471460555,0.0505185032774907,0.158931594211929,0.158931594211929,0.00510423834679567,0.925974700150592,0.5,0.0505185032774907,0.158931594211929,0.158931594211929,0.316240738948471,0.0505185032774907,0.5,0.0505185032774907,0.0505185032774907,0.997270818012528,1.04573839551408,0,0,1,3C,2C,0.0505185032774907,0.316240738948471,0.137742959034598,0.862257040965402,0,0,-0.0505185032774907,-0.0344605307513064,0.5,0.122098448029666,0.970738395514082,1.17806681344196,1.62822794484528,0.5,0.466302613493458,0.446620123525838,0.5,0.682136811576141,0.964425297412403,0.206474396202618,1.43567740481173,0.5,41.3353643526223
108,1,41,A,2,0,l,27,1,0.91,2A,0A,0,1,0,1,A20,1.99029243303139,3.3322045101752,0.317347471460555,0.0505185032774907,0.158931594211929,0.158931594211929,0.00510423834679567,0.925974700150592,0.5,0.0505185032774907,0.158931594211929,0.158931594211929,0.316240738948471,0.0160579725261843,0.5,0.0505185032774907,0.0505185032774907,0.997270818012528,1.97473839551408,1,1,0,2A,0A,0.158931594211929,0.317347471460555,0.333694268060103,0.666305731939897,0,0,-0.158931594211929,-0.108413090934439,0.5,0.122098448029666,0.970738395514082,1.17806681344196,1.62822794484528,0.5,0.128819486946635,0.475256402786612,0.5,0.682136811576141,0.964425297412403,0.206474396202618,1.43567740481173,0.5,41.3353643526223
108,1,42,D,3,2,a,63,1,0.91,3D,2D,1,0,1,0,D32,1.67316764012931,2.94443897916644,0.317347471460555,0.0505185032774907,0.0505185032774907,0.158931594211929,0.00510423834679567,0.925974700150592,0.5,0.0505185032774907,0.158931594211929,0.158931594211929,0.316240738948471,0.0160579725261843,0.5,0.0505185032774907,0.0505185032774907,0.997270818012528,1.42373839551408,1,1,0,3D,2D,0.997270818012528,0.0505185032774907,0.951785628798647,0.048214371201353,1,1,0.00272918198747218,0.00186167549914531,0.5,0.122098448029666,0.970738395514082,1.17806681344196,1.62822794484528,0.5,0.574633700805575,0.565851333112327,0.5,0.682136811576141,0.964425297412403,0.206474396202618,1.43567740481173,0.5,41.3353643526223
108,1,43,B,3,1,l,27,1,0.91,3B,1B,0,1,0,1,B31,3.38770207224824,3.36729582998647,0.317347471460555,0.0505185032774907,0.0505185032774907,0.158931594211929,0.00510423834679567,0.925974700150592,0.5,0.0505185032774907,0.158931594211929,0.158931594211929,0.316240738948471,0.0160579725261843,0.5,0.0505185032774907,0.0505185032774907,0.999132493511673,1.23773839551408,0,0,1,1B,3B,0.925974700150592,0.0505185032774907,0.948265381571382,0.051734618428618,1,1,0.0740252998494084,0.0504953820152433,0.5,0.122098448029666,0.970738395514082,1.17806681344196,1.62822794484528,0.5,0.885952320919687,0.565906153851527,0.5,0.682136811576141,0.964425297412403,0.206474396202618,1.43567740481173,0.5,41.3353643526223
108,1,44,C,2,3,a,63,1,0.91,2C,3C,1,0,1,0,C23,2.80721831277495,2.46809953147162,0.317347471460555,0.0505185032774907,0.0505185032774907,0.158931594211929,0.00510423834679567,0.976470082165835,0.5,0.0505185032774907,0.158931594211929,0.158931594211929,0.316240738948471,0.0160579725261843,0.5,0.0505185032774907,0.0505185032774907,0.999132493511673,1.06073839551408,0,0,1,3C,2C,0.0160579725261843,0.316240738948471,0.0483239084946289,0.951676091505371,0,0,-0.0160579725261843,-0.0109537341793887,0.5,0.122098448029666,0.970738395514082,1.17806681344196,1.62822794484528,0.5,0.576008179933056,0.433090168517438,0.5,0.682136811576141,0.964425297412403,0.206474396202618,1.43567740481173,0.5,41.3353643526223
