ID,session,trialNr,mod2Stim,visStimLeft,visStimRight,correctKey,frequency,rewardAccurate,probFB,stimPairLeft,stimPairRight,leftCorrect,rightCorrect,pCorrectLeft,pCorrectRight,triplet,rt,surprise,0A belief,1A belief,2A belief,3A belief,0B belief,1B belief,2B belief,3B belief,0C belief,1C belief,2C belief,3C belief,0D belief,1D belief,2D belief,3D belief,reactionTime,choice,choiceLeft,choiceRight,chosenPair,otherPair,beliefPair,beliefOtherPair,beliefPairNorm,beliefOtherPairNorm,choiceAccurate,reward,rewardPE,update2,sim_CBCsimpleRW_CBCdriftDiffusionLR_pwBelief_startBelief,sim_CBCsimpleRW_CBCdriftDiffusionLR_pwBelief_alpha1,sim_CBCsimpleRW_CBCdriftDiffusionLR_pwBelief_nonDecisionTime,sim_CBCsimpleRW_CBCdriftDiffusionLR_pwBelief_weight,sim_CBCsimpleRW_CBCdriftDiffusionLR_pwBelief_startingBoundary,sim_CBCsimpleRW_CBCdriftDiffusionLR_pwBelief_startingPoint,lik,corrLik,fitCBCsimpleRW_CBCdriftDiffusionLR_pwBelief_startBelief,fitCBCsimpleRW_CBCdriftDiffusionLR_pwBelief_alpha1,fitCBCsimpleRW_CBCdriftDiffusionLR_pwBelief_nonDecisionTime,fitCBCsimpleRW_CBCdriftDiffusionLR_pwBelief_weight,fitCBCsimpleRW_CBCdriftDiffusionLR_pwBelief_startingBoundary,fitCBCsimpleRW_CBCdriftDiffusionLR_pwBelief_startingPoint,fit_CBCsimpleRW_CBCdriftDiffusionLR_pwBelief_NLL
108,1,1,A,0,1,a,63,1,0.91,0A,1A,1,0,1,0,A01,2.22135674693245,2.77258872223978,0.5,0.5,0.5,0.5,0.5,0.5,0.5,0.5,0.5,0.5,0.5,0.5,0.5,0.5,0.5,0.5,2.6506224033412,1,1,0,0A,1A,0.5,0.5,0.5,0.5,1,1,0.5,0.417171779626398,0.5,0.924039942941592,1.0486224033412,13.8847771226144,2.427006509712,0.5,0.145546078126074,0.500727617832126,0.5,0.834343559252797,1.0408008402238,14.5380690766901,2.81921369892156,0.5,-76.8121703522324
108,1,2,D,2,3,l,63,1,0.91,2D,3D,0,1,0,1,D23,0.972606105636893,2.83321334405622,0.917171779626398,0.5,0.5,0.5,0.5,0.5,0.5,0.5,0.5,0.5,0.5,0.5,0.5,0.5,0.5,0.5,1.8996224033412,1,1,0,2D,3D,0.5,0.5,0.5,0.5,0,0,-0.5,-0.417171779626398,0.5,0.924039942941592,1.0486224033412,13.8847771226144,2.427006509712,0.5,0.222111180427357,0.499929583536661,0.5,0.834343559252797,1.0408008402238,14.5380690766901,2.81921369892156,0.5,-76.8121703522324
108,1,3,C,0,2,l,27,1,0.91,0C,2C,0,1,0,1,C02,2.16418640802008,2.89037175789616,0.917171779626398,0.5,0.5,0.5,0.5,0.5,0.5,0.5,0.5,0.5,0.5,0.5,0.5,0.5,0.0828282203736016,0.5,3.4216224033412,1,1,0,0C,2C,0.5,0.5,0.5,0.5,0,0,-0.5,-0.417171779626398,0.5,0.924039942941592,1.0486224033412,13.8847771226144,2.427006509712,0.5,0.0901262249874332,0.499944603453169,0.5,0.834343559252797,1.0408008402238,14.5380690766901,2.81921369892156,0.5,-76.8121703522324
108,1,4,A,0,1,a,63,1,0.91,0A,1A,1,0,1,0,A01,3.03832670588497,2.2512917986065,0.917171779626398,0.5,0.5,0.5,0.5,0.5,0.5,0.5,0.0828282203736016,0.5,0.5,0.5,0.5,0.5,0.0828282203736016,0.5,1.1556224033412,1,1,0,0A,1A,0.917171779626398,0.5,0.917171779626398,0.0828282203736016,1,1,0.0828282203736016,0.0691071921930858,0.5,0.924039942941592,1.0486224033412,13.8847771226144,2.427006509712,0.5,14.4354362192817,0.999999999999999,0.5,0.834343559252797,1.0408008402238,14.5380690766901,2.81921369892156,0.5,-76.8121703522324
108,1,5,B,1,3,a,27,1,0.91,1B,3B,1,0,1,0,B13,3.28742890309599,2.99573227355399,0.986278971819484,0.5,0.5,0.5,0.5,0.5,0.5,0.5,0.0828282203736016,0.5,0.5,0.5,0.5,0.5,0.0828282203736016,0.5,2.6456224033412,1,1,0,1B,3B,0.5,0.5,0.5,0.5,1,1,0.5,0.417171779626398,0.5,0.924039942941592,1.0486224033412,13.8847771226144,2.427006509712,0.5,0.145405024133901,0.498704238770135,0.5,0.834343559252797,1.0408008402238,14.5380690766901,2.81921369892156,0.5,-76.8121703522324
108,1,6,C,3,2,l,63,1,0.91,3C,2C,0,1,0,1,C32,3.1473184812178,3.04452243772342,0.986278971819484,0.5,0.5,0.5,0.5,0.917171779626398,0.5,0.5,0.0828282203736016,0.5,0.5,0.5,0.5,0.5,0.0828282203736016,0.5,2.4306224033412,1,1,0,3C,2C,0.5,0.5,0.5,0.5,0,0,-0.5,-0.417171779626398,0.5,0.924039942941592,1.0486224033412,13.8847771226144,2.427006509712,0.5,0.166318150487871,0.500137784851577,0.5,0.834343559252797,1.0408008402238,14.5380690766901,2.81921369892156,0.5,-76.8121703522324
108,1,7,D,3,2,a,63,0,0.91,3D,2D,1,0,0,1,D32,1.11591860326519,3.09104245335832,0.986278971819484,0.5,0.5,0.5,0.5,0.917171779626398,0.5,0.5,0.0828282203736016,0.5,0.5,0.0828282203736016,0.5,0.5,0.0828282203736016,0.5,1.1446224033412,1,1,0,3D,2D,0.5,0.0828282203736016,0.917171779626398,0.0828282203736016,1,0,-0.5,-0.417171779626398,0.5,0.924039942941592,1.0486224033412,13.8847771226144,2.427006509712,0.5,15.0774798745684,0.999999999999999,0.5,0.834343559252797,1.0408008402238,14.5380690766901,2.81921369892156,0.5,-76.8121703522324
108,1,8,B,0,1,l,63,1,0.91,0B,1B,0,1,0,1,B01,2.9112123161312,3.13549421592915,0.986278971819484,0.5,0.5,0.5,0.5,0.917171779626398,0.5,0.5,0.0828282203736016,0.5,0.5,0.0828282203736016,0.5,0.5,0.0828282203736016,0.0828282203736016,1.1296224033412,0,0,1,1B,0B,0.917171779626398,0.5,0.917171779626398,0.0828282203736016,1,1,0.0828282203736016,0.0691071921930858,0.5,0.924039942941592,1.0486224033412,13.8847771226144,2.427006509712,0.5,11.4134269428139,0.999999999999999,0.5,0.834343559252797,1.0408008402238,14.5380690766901,2.81921369892156,0.5,-76.8121703522324
108,1,9,A,2,0,l,27,1,0.91,2A,0A,0,1,0,1,A20,1.25774223591428,3.17805383034795,0.986278971819484,0.5,0.5,0.5,0.5,0.986278971819484,0.5,0.5,0.0828282203736016,0.5,0.5,0.0828282203736016,0.5,0.5,0.0828282203736016,0.0828282203736016,1.1696224033412,0,0,1,0A,2A,0.986278971819484,0.5,0.986278971819484,0.0137210281805158,1,1,0.0137210281805158,0.0114480514887395,0.5,0.924039942941592,1.0486224033412,13.8847771226144,2.427006509712,0.5,6.30335093827215,1,0.5,0.834343559252797,1.0408008402238,14.5380690766901,2.81921369892156,0.5,-76.8121703522324
108,1,10,D,3,0,a,9,1,0.91,3D,0D,1,0,1,0,D30,1.08202389517769,3.2188758248682,0.997727023308224,0.5,0.5,0.5,0.5,0.986278971819484,0.5,0.5,0.0828282203736016,0.5,0.5,0.0828282203736016,0.5,0.5,0.0828282203736016,0.0828282203736016,1.1476224033412,0,0,1,0D,3D,0.5,0.0828282203736016,0.917171779626398,0.0828282203736016,0,0,-0.5,-0.417171779626398,0.5,0.924039942941592,1.0486224033412,13.8847771226144,2.427006509712,0.5,15.160037608482,0.999999999999999,0.5,0.834343559252797,1.0408008402238,14.5380690766901,2.81921369892156,0.5,-76.8121703522324
108,1,11,C,2,3,a,63,1,0.91,2C,3C,1,0,1,0,C23,1.41796295342306,3.25809653802148,0.997727023308224,0.5,0.5,0.5,0.5,0.986278971819484,0.5,0.5,0.0828282203736016,0.5,0.5,0.0828282203736016,0.0828282203736016,0.5,0.0828282203736016,0.0828282203736016,1.1616224033412,1,1,0,2C,3C,0.5,0.0828282203736016,0.917171779626398,0.0828282203736016,1,1,0.5,0.417171779626398,0.5,0.924039942941592,1.0486224033412,13.8847771226144,2.427006509712,0.5,13.2176331556213,0.999999999999999,0.5,0.834343559252797,1.0408008402238,14.5380690766901,2.81921369892156,0.5,-76.8121703522324
108,1,12,B,0,1,l,63,1,0.91,0B,1B,0,1,0,1,B01,0.49457419267002,2.60268968544438,0.997727023308224,0.5,0.5,0.5,0.5,0.986278971819484,0.5,0.5,0.0828282203736016,0.5,0.917171779626398,0.0828282203736016,0.0828282203736016,0.5,0.0828282203736016,0.0828282203736016,1.1666224033412,0,0,1,1B,0B,0.986278971819484,0.5,0.986278971819484,0.0137210281805158,1,1,0.0137210281805158,0.0114480514887395,0.5,0.924039942941592,1.0486224033412,13.8847771226144,2.427006509712,0.5,7.33325233874234,1,0.5,0.834343559252797,1.0408008402238,14.5380690766901,2.81921369892156,0.5,-76.8121703522324
108,1,13,D,2,3,l,63,1,0.91,2D,3D,0,1,0,1,D23,2.93718295902213,2.63905732961526,0.997727023308224,0.5,0.5,0.5,0.5,0.997727023308224,0.5,0.5,0.0828282203736016,0.5,0.917171779626398,0.0828282203736016,0.0828282203736016,0.5,0.0828282203736016,0.0828282203736016,1.8306224033412,0,0,1,3D,2D,0.0828282203736016,0.0828282203736016,0.5,0.5,1,1,0.917171779626398,0.765236367059711,0.5,0.924039942941592,1.0486224033412,13.8847771226144,2.427006509712,0.5,0.227640450020411,0.499859524584344,0.5,0.834343559252797,1.0408008402238,14.5380690766901,2.81921369892156,0.5,-76.8121703522324
108,1,14,C,2,3,a,63,1,0.91,2C,3C,1,0,1,0,C23,3.31994871361864,2.67414864942653,0.997727023308224,0.5,0.5,0.5,0.5,0.997727023308224,0.5,0.5,0.0828282203736016,0.5,0.917171779626398,0.0828282203736016,0.0828282203736016,0.5,0.0828282203736016,0.848064587433313,1.1406224033412,1,1,0,2C,3C,0.917171779626398,0.0828282203736016,0.99191038726069,0.00808961273930964,1,1,0.0828282203736016,0.0691071921930858,0.5,0.924039942941592,1.0486224033412,13.8847771226144,2.427006509712,0.5,17.8013892985207,1,0.5,0.834343559252797,1.0408008402238,14.5380690766901,2.81921369892156,0.5,-76.8121703522324
108,1,15,B,3,1,l,27,1,0.91,3B,1B,0,1,0,1,B31,1.05020234604998,3.40119738166216,0.997727023308224,0.5,0.5,0.5,0.5,0.997727023308224,0.5,0.5,0.0828282203736016,0.5,0.986278971819484,0.0828282203736016,0.0828282203736016,0.5,0.0828282203736016,0.848064587433313,1.1366224033412,0,0,1,1B,3B,0.997727023308224,0.5,0.997727023308224,0.00227297669177629,1,1,0.00227297669177629,0.00189644346311527,0.5,0.924039942941592,1.0486224033412,13.8847771226144,2.427006509712,0.5,18.9075706407382,1,0.5,0.834343559252797,1.0408008402238,14.5380690766901,2.81921369892156,0.5,-76.8121703522324
108,1,16,A,0,3,a,9,1,0.91,0A,3A,1,0,1,0,A03,1.00035430426163,3.43398720448515,0.997727023308224,0.5,0.5,0.5,0.5,0.999623466771339,0.5,0.5,0.0828282203736016,0.5,0.986278971819484,0.0828282203736016,0.0828282203736016,0.5,0.0828282203736016,0.848064587433313,1.1076224033412,1,1,0,0A,3A,0.997727023308224,0.5,0.997727023308224,0.00227297669177629,1,1,0.00227297669177629,0.00189644346311527,0.5,0.924039942941592,1.0486224033412,13.8847771226144,2.427006509712,0.5,7.52669788276914,1,0.5,0.834343559252797,1.0408008402238,14.5380690766901,2.81921369892156,0.5,-76.8121703522324
108,1,17,D,2,3,l,63,1,0.91,2D,3D,0,1,0,1,D23,0.913724564145338,2.36712361413162,0.999623466771339,0.5,0.5,0.5,0.5,0.999623466771339,0.5,0.5,0.0828282203736016,0.5,0.986278971819484,0.0828282203736016,0.0828282203736016,0.5,0.0828282203736016,0.848064587433313,1.1566224033412,0,0,1,3D,2D,0.848064587433313,0.0828282203736016,0.984078374096854,0.0159216259031461,1,1,0.151935412566687,0.126766332897432,0.5,0.924039942941592,1.0486224033412,13.8847771226144,2.427006509712,0.5,11.5618146519777,1,0.5,0.834343559252797,1.0408008402238,14.5380690766901,2.81921369892156,0.5,-76.8121703522324
108,1,18,C,0,2,l,27,1,0.91,0C,2C,0,1,0,1,C02,0.0659064616942606,2.80336038090653,0.999623466771339,0.5,0.5,0.5,0.5,0.999623466771339,0.5,0.5,0.0828282203736016,0.5,0.986278971819484,0.0828282203736016,0.0828282203736016,0.5,0.0828282203736016,0.974830920330745,1.1256224033412,0,0,1,2C,0C,0.986278971819484,0.0828282203736016,0.998745215223383,0.00125478477661725,1,1,0.0137210281805158,0.0114480514887395,0.5,0.924039942941592,1.0486224033412,13.8847771226144,2.427006509712,0.5,18.8272461615107,1,0.5,0.834343559252797,1.0408008402238,14.5380690766901,2.81921369892156,0.5,-76.8121703522324
108,1,19,A,0,1,a,63,1,0.91,0A,1A,1,0,1,0,A01,0.549082872993593,2.42774823594805,0.999623466771339,0.5,0.5,0.5,0.5,0.999623466771339,0.5,0.5,0.0828282203736016,0.5,0.997727023308224,0.0828282203736016,0.0828282203736016,0.5,0.0828282203736016,0.974830920330745,1.1356224033412,1,1,0,0A,1A,0.999623466771339,0.5,0.999623466771339,0.000376533228661047,1,1,0.000376533228661047,0.000314158074178005,0.5,0.924039942941592,1.0486224033412,13.8847771226144,2.427006509712,0.5,19.1549880333166,1,0.5,0.834343559252797,1.0408008402238,14.5380690766901,2.81921369892156,0.5,-76.8121703522324
108,1,20,B,1,0,a,63,0,0.91,1B,0B,1,0,0,1,B10,2.17908028530143,3.55534806148941,0.999937624845517,0.5,0.5,0.5,0.5,0.999623466771339,0.5,0.5,0.0828282203736016,0.5,0.997727023308224,0.0828282203736016,0.0828282203736016,0.5,0.0828282203736016,0.974830920330745,1.1376224033412,1,1,0,1B,0B,0.999623466771339,0.5,0.999623466771339,0.000376533228661047,1,0,-0.999623466771339,-0.834029401178619,0.5,0.924039942941592,1.0486224033412,13.8847771226144,2.427006509712,0.5,18.6650451139394,1,0.5,0.834343559252797,1.0408008402238,14.5380690766901,2.81921369892156,0.5,-76.8121703522324
108,1,21,D,3,1,a,27,1,0.91,3D,1D,1,0,1,0,D31,0.286602146385329,3.58351893845611,0.999937624845517,0.5,0.5,0.5,0.5,0.16559406559272,0.5,0.5,0.0828282203736016,0.5,0.997727023308224,0.0828282203736016,0.0828282203736016,0.5,0.0828282203736016,0.974830920330745,1.1666224033412,1,1,0,3D,1D,0.974830920330745,0.5,0.974830920330745,0.0251690796692553,1,1,0.0251690796692553,0.0209996595143637,0.5,0.924039942941592,1.0486224033412,13.8847771226144,2.427006509712,0.5,8.22814053221889,1,0.5,0.834343559252797,1.0408008402238,14.5380690766901,2.81921369892156,0.5,-76.8121703522324
108,1,22,C,3,2,l,63,1,0.91,3C,2C,0,1,0,1,C32,2.31759336627398,2.91777073208428,0.999937624845517,0.5,0.5,0.5,0.5,0.16559406559272,0.5,0.5,0.0828282203736016,0.5,0.997727023308224,0.0828282203736016,0.0828282203736016,0.5,0.0828282203736016,0.995830579845108,1.1086224033412,0,0,1,2C,3C,0.997727023308224,0.0828282203736016,0.999794306033505,0.000205693966495039,1,1,0.00227297669177629,0.00189644346311527,0.5,0.924039942941592,1.0486224033412,13.8847771226144,2.427006509712,0.5,8.46040486233337,1,0.5,0.834343559252797,1.0408008402238,14.5380690766901,2.81921369892156,0.5,-76.8121703522324
108,1,23,B,0,1,l,63,1,0.91,0B,1B,0,1,0,1,B01,1.08709692960925,2.53897387105828,0.999937624845517,0.5,0.5,0.5,0.5,0.16559406559272,0.5,0.5,0.0828282203736016,0.5,0.999623466771339,0.0828282203736016,0.0828282203736016,0.5,0.0828282203736016,0.995830579845108,1.1346224033412,1,1,0,0B,1B,0.5,0.16559406559272,0.83440593440728,0.16559406559272,0,0,-0.5,-0.417171779626398,0.5,0.924039942941592,1.0486224033412,13.8847771226144,2.427006509712,0.5,5.2379759579204,0.999999999998757,0.5,0.834343559252797,1.0408008402238,14.5380690766901,2.81921369892156,0.5,-76.8121703522324
108,1,24,A,0,2,a,27,1,0.91,0A,2A,1,0,1,0,A02,3.48011079156435,3.66356164612965,0.999937624845517,0.5,0.5,0.5,0.0828282203736016,0.16559406559272,0.5,0.5,0.0828282203736016,0.5,0.999623466771339,0.0828282203736016,0.0828282203736016,0.5,0.0828282203736016,0.995830579845108,1.1616224033412,1,1,0,0A,2A,0.999937624845517,0.5,0.999937624845517,6.23751544830409e-05,1,1,6.23751544830409e-05,5.20423084003234e-05,0.5,0.924039942941592,1.0486224033412,13.8847771226144,2.427006509712,0.5,8.14441094847442,1,0.5,0.834343559252797,1.0408008402238,14.5380690766901,2.81921369892156,0.5,-76.8121703522324
108,1,25,D,3,2,a,63,1,0.91,3D,2D,1,0,1,0,D32,1.01907358931667,2.99573227355399,0.999989667153917,0.5,0.5,0.5,0.0828282203736016,0.16559406559272,0.5,0.5,0.0828282203736016,0.5,0.999623466771339,0.0828282203736016,0.0828282203736016,0.5,0.0828282203736016,0.995830579845108,1.1346224033412,1,1,0,3D,2D,0.995830579845108,0.0828282203736016,0.999622033185951,0.000377966814048558,1,1,0.00416942015489163,0.00347872885205263,0.5,0.924039942941592,1.0486224033412,13.8847771226144,2.427006509712,0.5,19.3431148975721,1,0.5,0.834343559252797,1.0408008402238,14.5380690766901,2.81921369892156,0.5,-76.8121703522324
108,1,26,C,0,2,l,27,1,0.91,0C,2C,0,1,0,1,C02,1.7559777903117,2.6149597780362,0.999989667153917,0.5,0.5,0.5,0.0828282203736016,0.16559406559272,0.5,0.5,0.0828282203736016,0.5,0.999623466771339,0.0828282203736016,0.0828282203736016,0.5,0.0828282203736016,0.999309308697161,1.1266224033412,0,0,1,2C,0C,0.999623466771339,0.0828282203736016,0.99996598427443,3.40157255700411e-05,1,1,0.000376533228661047,0.000314158074178005,0.5,0.924039942941592,1.0486224033412,13.8847771226144,2.427006509712,0.5,19.2011598258058,1,0.5,0.834343559252797,1.0408008402238,14.5380690766901,2.81921369892156,0.5,-76.8121703522324
108,1,27,B,0,1,l,63,1,0.91,0B,1B,0,1,0,1,B01,2.79596388412285,2.35137525716348,0.999989667153917,0.5,0.5,0.5,0.0828282203736016,0.16559406559272,0.5,0.5,0.0828282203736016,0.5,0.999937624845517,0.0828282203736016,0.0828282203736016,0.5,0.0828282203736016,0.999309308697161,1.4326224033412,0,0,1,1B,0B,0.16559406559272,0.0828282203736016,0.687261040247659,0.312738959752341,1,1,0.83440593440728,0.696181217175026,0.5,0.924039942941592,1.0486224033412,13.8847771226144,2.427006509712,0.5,1.17429742465608,0.999999784973971,0.5,0.834343559252797,1.0408008402238,14.5380690766901,2.81921369892156,0.5,-76.8121703522324
108,1,28,A,1,0,l,63,1,0.91,1A,0A,0,1,0,1,A10,1.25954821649965,3.76120011569356,0.999989667153917,0.5,0.5,0.5,0.0828282203736016,0.861775282767746,0.5,0.5,0.0828282203736016,0.5,0.999937624845517,0.0828282203736016,0.0828282203736016,0.5,0.0828282203736016,0.999309308697161,1.1396224033412,0,0,1,0A,1A,0.999989667153917,0.5,0.999989667153917,1.03328460827612e-05,1,1,1.03328460827612e-05,8.62114357790229e-06,0.5,0.924039942941592,1.0486224033412,13.8847771226144,2.427006509712,0.5,18.0343144192072,1,0.5,0.834343559252797,1.0408008402238,14.5380690766901,2.81921369892156,0.5,-76.8121703522324
108,1,29,C,2,3,a,63,0,0.91,2C,3C,1,0,0,1,C23,0.542609779957466,2.68557734525015,0.999998288297495,0.5,0.5,0.5,0.0828282203736016,0.861775282767746,0.5,0.5,0.0828282203736016,0.5,0.999937624845517,0.0828282203736016,0.0828282203736016,0.5,0.0828282203736016,0.999309308697161,1.1736224033412,1,1,0,2C,3C,0.999937624845517,0.0828282203736016,0.999994366686452,5.63331354797025e-06,1,0,-0.999937624845517,-0.834291516944397,0.5,0.924039942941592,1.0486224033412,13.8847771226144,2.427006509712,0.5,4.17273576195213,1,0.5,0.834343559252797,1.0408008402238,14.5380690766901,2.81921369892156,0.5,-76.8121703522324
108,1,30,D,1,3,l,27,1,0.91,1D,3D,0,1,0,1,D13,1.15609738672033,3.80666248977032,0.999998288297495,0.5,0.5,0.5,0.0828282203736016,0.861775282767746,0.5,0.5,0.0828282203736016,0.5,0.16564610790112,0.0828282203736016,0.0828282203736016,0.5,0.0828282203736016,0.999309308697161,1.1076224033412,0,0,1,3D,1D,0.999309308697161,0.5,0.999309308697161,0.000690691302839053,1,1,0.000690691302839053,0.000576273839955687,0.5,0.924039942941592,1.0486224033412,13.8847771226144,2.427006509712,0.5,7.67051664289802,1,0.5,0.834343559252797,1.0408008402238,14.5380690766901,2.81921369892156,0.5,-76.8121703522324
108,1,31,A,0,1,a,63,1,0.91,0A,1A,1,0,1,0,A01,0.231867137125359,2.4423470353692,0.999998288297495,0.5,0.5,0.5,0.0828282203736016,0.861775282767746,0.5,0.5,0.0828282203736016,0.5,0.16564610790112,0.0828282203736016,0.0828282203736016,0.5,0.0828282203736016,0.999885582537117,1.1286224033412,1,1,0,0A,1A,0.999998288297495,0.5,0.999998288297495,1.71170250484742e-06,1,1,1.71170250484742e-06,1.42814796027633e-06,0.5,0.924039942941592,1.0486224033412,13.8847771226144,2.427006509712,0.5,19.5428556196394,1,0.5,0.834343559252797,1.0408008402238,14.5380690766901,2.81921369892156,0.5,-76.8121703522324
108,1,32,D,2,3,l,63,1,0.91,2D,3D,0,1,0,1,D23,3.08537838618736,2.46385324059017,0.999999716445455,0.5,0.5,0.5,0.0828282203736016,0.861775282767746,0.5,0.5,0.0828282203736016,0.5,0.16564610790112,0.0828282203736016,0.0828282203736016,0.5,0.0828282203736016,0.999885582537117,1.1496224033412,0,0,1,3D,2D,0.999885582537117,0.0828282203736016,0.999989666078315,1.03339216849922e-05,1,1,0.000114417462883321,9.54634732227444e-05,0.5,0.924039942941592,1.0486224033412,13.8847771226144,2.427006509712,0.5,13.6641485807955,1,0.5,0.834343559252797,1.0408008402238,14.5380690766901,2.81921369892156,0.5,-76.8121703522324
108,1,33,B,1,2,a,9,1,0.91,1B,2B,1,0,1,0,B12,0.446995821204606,3.87120101090789,0.999999716445455,0.5,0.5,0.5,0.0828282203736016,0.861775282767746,0.5,0.5,0.0828282203736016,0.5,0.16564610790112,0.0828282203736016,0.0828282203736016,0.5,0.0828282203736016,0.999981046010339,1.2026224033412,1,1,0,1B,2B,0.861775282767746,0.5,0.861775282767746,0.138224717232254,1,1,0.138224717232254,0.11532690255227,0.5,0.924039942941592,1.0486224033412,13.8847771226144,2.427006509712,0.5,6.62748665489577,0.999999999999869,0.5,0.834343559252797,1.0408008402238,14.5380690766901,2.81921369892156,0.5,-76.8121703522324
108,1,34,A,0,1,a,63,1,0.91,0A,1A,1,0,1,0,A01,2.91860225133701,2.28238238567653,0.999999716445455,0.5,0.5,0.5,0.0828282203736016,0.977102185320016,0.5,0.5,0.0828282203736016,0.5,0.16564610790112,0.0828282203736016,0.0828282203736016,0.5,0.0828282203736016,0.999981046010339,1.1326224033412,1,1,0,0A,1A,0.999999716445455,0.5,0.999999716445455,2.83554544622255e-07,1,1,2.83554544622255e-07,2.36581908002439e-07,0.5,0.924039942941592,1.0486224033412,13.8847771226144,2.427006509712,0.5,19.606510779182,1,0.5,0.834343559252797,1.0408008402238,14.5380690766901,2.81921369892156,0.5,-76.8121703522324
108,1,35,C,1,2,l,9,1,0.91,1C,2C,0,1,0,1,C12,0.864977214543798,3.91202300542815,0.999999953027363,0.5,0.5,0.5,0.0828282203736016,0.977102185320016,0.5,0.5,0.0828282203736016,0.5,0.16564610790112,0.0828282203736016,0.0828282203736016,0.5,0.0828282203736016,0.999981046010339,1.2006224033412,1,1,0,1C,2C,0.5,0.16564610790112,0.83435389209888,0.16564610790112,0,0,-0.5,-0.417171779626398,0.5,0.924039942941592,1.0486224033412,13.8847771226144,2.427006509712,0.5,8.24705206577677,0.999999999998751,0.5,0.834343559252797,1.0408008402238,14.5380690766901,2.81921369892156,0.5,-76.8121703522324
108,1,36,B,0,1,l,63,1,0.91,0B,1B,0,1,0,1,B01,0.0981124275160897,2.32238772029023,0.999999953027363,0.5,0.5,0.5,0.0828282203736016,0.977102185320016,0.5,0.5,0.0828282203736016,0.0828282203736016,0.16564610790112,0.0828282203736016,0.0828282203736016,0.5,0.0828282203736016,0.999981046010339,1.1806224033412,0,0,1,1B,0B,0.977102185320016,0.0828282203736016,0.99788814759435,0.00211185240565053,1,1,0.0228978146799839,0.0191046441992087,0.5,0.924039942941592,1.0486224033412,13.8847771226144,2.427006509712,0.5,2.78820796803295,1,0.5,0.834343559252797,1.0408008402238,14.5380690766901,2.81921369892156,0.5,-76.8121703522324
108,1,37,A,1,0,l,63,0,0.91,1A,0A,0,1,1,0,A10,3.3578248696945,3.25809653802148,0.999999953027363,0.5,0.5,0.5,0.0828282203736016,0.996206829519225,0.5,0.5,0.0828282203736016,0.0828282203736016,0.16564610790112,0.0828282203736016,0.0828282203736016,0.5,0.0828282203736016,0.999981046010339,1.1296224033412,0,0,1,0A,1A,0.999999953027363,0.5,0.999999953027363,4.69726366691958e-08,1,0,-0.999999953027363,-0.83434352006148,0.5,0.924039942941592,1.0486224033412,13.8847771226144,2.427006509712,0.5,19.6312094524854,1,0.5,0.834343559252797,1.0408008402238,14.5380690766901,2.81921369892156,0.5,-76.8121703522324
108,1,38,B,1,0,a,63,1,0.91,1B,0B,1,0,1,0,B10,2.8441396315276,3.27714473299218,0.165656432965883,0.5,0.5,0.5,0.0828282203736016,0.996206829519225,0.5,0.5,0.0828282203736016,0.0828282203736016,0.16564610790112,0.0828282203736016,0.0828282203736016,0.5,0.0828282203736016,0.999981046010339,1.1216224033412,1,1,0,1B,0B,0.996206829519225,0.0828282203736016,0.999656259120522,0.000343740879478416,1,1,0.00379317048077521,0.00316480735978263,0.5,0.924039942941592,1.0486224033412,13.8847771226144,2.427006509712,0.5,17.3656096385373,1,0.5,0.834343559252797,1.0408008402238,14.5380690766901,2.81921369892156,0.5,-76.8121703522324
108,1,39,D,3,1,a,27,1,0.91,3D,1D,1,0,1,0,D31,3.1850925569134,3.29583686600433,0.165656432965883,0.5,0.5,0.5,0.0828282203736016,0.999371636879007,0.5,0.5,0.0828282203736016,0.0828282203736016,0.16564610790112,0.0828282203736016,0.0828282203736016,0.5,0.0828282203736016,0.999981046010339,1.0936224033412,1,1,0,3D,1D,0.999981046010339,0.5,0.999981046010339,1.89539896605639e-05,1,1,1.89539896605639e-05,1.58141391954356e-05,0.5,0.924039942941592,1.0486224033412,13.8847771226144,2.427006509712,0.5,0.940920601182522,1,0.5,0.834343559252797,1.0408008402238,14.5380690766901,2.81921369892156,0.5,-76.8121703522324
108,1,40,C,2,3,a,63,1,0.91,2C,3C,1,0,1,0,C23,2.47011477526472,2.62103882411258,0.165656432965883,0.5,0.5,0.5,0.0828282203736016,0.999371636879007,0.5,0.5,0.0828282203736016,0.0828282203736016,0.16564610790112,0.0828282203736016,0.0828282203736016,0.5,0.0828282203736016,0.999996860149535,1.2756224033412,1,1,0,2C,3C,0.16564610790112,0.0828282203736016,0.68734197830711,0.31265802169289,1,1,0.83435389209888,0.696137796010203,0.5,0.924039942941592,1.0486224033412,13.8847771226144,2.427006509712,0.5,4.76584596541433,0.999999785730839,0.5,0.834343559252797,1.0408008402238,14.5380690766901,2.81921369892156,0.5,-76.8121703522324
108,1,41,A,2,0,l,27,1,0.91,2A,0A,0,1,0,1,A20,1.99029243303139,3.3322045101752,0.165656432965883,0.5,0.5,0.5,0.0828282203736016,0.999371636879007,0.5,0.5,0.0828282203736016,0.0828282203736016,0.861783903911324,0.0828282203736016,0.0828282203736016,0.5,0.0828282203736016,0.999996860149535,1.2006224033412,1,1,0,2A,0A,0.5,0.165656432965883,0.834343567034117,0.165656432965883,0,0,-0.5,-0.417171779626398,0.5,0.924039942941592,1.0486224033412,13.8847771226144,2.427006509712,0.5,8.24847702691675,0.999999999998747,0.5,0.834343559252797,1.0408008402238,14.5380690766901,2.81921369892156,0.5,-76.8121703522324
108,1,42,D,3,2,a,63,1,0.91,3D,2D,1,0,1,0,D32,1.67316764012931,2.94443897916644,0.165656432965883,0.5,0.0828282203736016,0.5,0.0828282203736016,0.999371636879007,0.5,0.5,0.0828282203736016,0.0828282203736016,0.861783903911324,0.0828282203736016,0.0828282203736016,0.5,0.0828282203736016,0.999996860149535,1.1306224033412,1,1,0,3D,2D,0.999996860149535,0.0828282203736016,0.999999716444645,2.83555354529952e-07,1,1,3.13985046518361e-06,2.61971401264285e-06,0.5,0.924039942941592,1.0486224033412,13.8847771226144,2.427006509712,0.5,19.6708551019916,1,0.5,0.834343559252797,1.0408008402238,14.5380690766901,2.81921369892156,0.5,-76.8121703522324
108,1,43,B,3,1,l,27,1,0.91,3B,1B,0,1,0,1,B31,3.38770207224824,3.36729582998647,0.165656432965883,0.5,0.0828282203736016,0.5,0.0828282203736016,0.999371636879007,0.5,0.5,0.0828282203736016,0.0828282203736016,0.861783903911324,0.0828282203736016,0.0828282203736016,0.5,0.0828282203736016,0.999999479863547,1.1516224033412,0,0,1,1B,3B,0.999371636879007,0.5,0.999371636879007,0.00062836312099257,1,1,0.00062836312099257,0.000524270722872137,0.5,0.924039942941592,1.0486224033412,13.8847771226144,2.427006509712,0.5,12.7405631192153,1,0.5,0.834343559252797,1.0408008402238,14.5380690766901,2.81921369892156,0.5,-76.8121703522324
108,1,44,C,2,3,a,63,1,0.91,2C,3C,1,0,1,0,C23,2.80721831277495,2.46809953147162,0.165656432965883,0.5,0.0828282203736016,0.5,0.0828282203736016,0.99989590760188,0.5,0.5,0.0828282203736016,0.0828282203736016,0.861783903911324,0.0828282203736016,0.0828282203736016,0.5,0.0828282203736016,0.999999479863547,1.1446224033412,1,1,0,2C,3C,0.861783903911324,0.0828282203736016,0.985722811359686,0.0142771886403137,1,1,0.138216096088676,0.115319709556653,0.5,0.924039942941592,1.0486224033412,13.8847771226144,2.427006509712,0.5,16.5525293394304,1,0.5,0.834343559252797,1.0408008402238,14.5380690766901,2.81921369892156,0.5,-76.8121703522324
