ID,filename,session,trial,visStimLeft,visStimRight,correctKey,leftCorrect,rightCorrect,secondStim,mod2Type,mod2Stim,frequency,rewardAccurate,stimPairLeft,stimPairRight,pCorrectLeft,pCorrectRight,key,reactionTime,choiceLeft,choiceRight,choiceAccurate,reward,chosenPair,otherPair,triplet,surprise,0A belief,1A belief,2A belief,3A belief,0B belief,1B belief,2B belief,3B belief,0C belief,1C belief,2C belief,3C belief,0D belief,1D belief,2D belief,3D belief,beliefPairNorm,beliefOtherPairNorm,beliefPair,beliefOtherPair,lik,corrLik,rewardPE,update2,fitCBCsimpleRW_CBCdriftDiffusionLR_pwBelief_startBelief,fitCBCsimpleRW_CBCdriftDiffusionLR_pwBelief_alpha1,fitCBCsimpleRW_CBCdriftDiffusionLR_pwBelief_nonDecisionTime,fitCBCsimpleRW_CBCdriftDiffusionLR_pwBelief_weight,fitCBCsimpleRW_CBCdriftDiffusionLR_pwBelief_startingBoundary,fitCBCsimpleRW_CBCdriftDiffusionLR_pwBelief_startingPoint,fit_CBCsimpleRW_CBCdriftDiffusionLR_pwBelief_NLL
CBC_1017,CBC_1017_MSI_TV_v3_Vset5_Tset1_2023-06-25_09h48.15.887.csv,1,1,1,0,z,0,1,2,tac,A,63,1,1A,0A,0,1,z,1.86829200000001,0,1,1,1,0A,1A,A10,2.77258872223978,0.5,0.5,0.5,0.5,0.5,0.5,0.5,0.5,0.5,0.5,0.5,0.5,0.5,0.5,0.5,0.5,0.5,0.5,0.5,0.5,0.187987356781158,0.499575445497626,0.5,0.266489957136356,0.5,0.532979914272713,1.09228788575955,1.25814598518829,3.13255956949941,0.5,55.204804603365
CBC_1017,CBC_1017_MSI_TV_v3_Vset5_Tset1_2023-06-25_09h48.15.887.csv,1,2,3,2,b,1,0,1,tac,D,63,1,3D,2D,1,0,b,2.38989490000002,1,0,1,1,3D,2D,D32,2.83321334405622,0.766489957136356,0.5,0.5,0.5,0.5,0.5,0.5,0.5,0.5,0.5,0.5,0.5,0.5,0.5,0.5,0.5,0.5,0.5,0.5,0.5,0.164049760124798,0.500141856901029,0.5,0.266489957136356,0.5,0.532979914272713,1.09228788575955,1.25814598518829,3.13255956949941,0.5,55.204804603365
CBC_1017,CBC_1017_MSI_TV_v3_Vset5_Tset1_2023-06-25_09h48.15.887.csv,1,3,2,0,b,1,0,0,tac,C,27,1,2C,0C,1,0,b,2.63040310000001,1,0,1,1,2C,0C,C20,2.89037175789616,0.766489957136356,0.5,0.5,0.5,0.5,0.5,0.5,0.5,0.5,0.5,0.5,0.5,0.5,0.5,0.5,0.766489957136356,0.5,0.5,0.5,0.5,0.147023739187165,0.500745307819521,0.5,0.266489957136356,0.5,0.532979914272713,1.09228788575955,1.25814598518829,3.13255956949941,0.5,55.204804603365
CBC_1017,CBC_1017_MSI_TV_v3_Vset5_Tset1_2023-06-25_09h48.15.887.csv,1,4,1,0,z,0,1,2,tac,A,63,1,1A,0A,0,1,z,2.4745415,0,1,1,1,0A,1A,A10,2.2512917986065,0.766489957136356,0.5,0.5,0.5,0.5,0.5,0.5,0.5,0.5,0.5,0.766489957136356,0.5,0.5,0.5,0.5,0.766489957136356,0.766489957136356,0.233510042863644,0.766489957136356,0.5,0.331074102553062,0.89131996424332,0.233510042863644,0.124456162627282,0.5,0.532979914272713,1.09228788575955,1.25814598518829,3.13255956949941,0.5,55.204804603365
CBC_1017,CBC_1017_MSI_TV_v3_Vset5_Tset1_2023-06-25_09h48.15.887.csv,1,5,3,1,z,0,1,3,tac,B,27,1,3B,1B,0,1,b,2.33157280000002,1,0,0,0,3B,1B,B31,2.99573227355399,0.890946119763639,0.5,0.5,0.5,0.5,0.5,0.5,0.5,0.5,0.5,0.766489957136356,0.5,0.5,0.5,0.5,0.766489957136356,0.5,0.5,0.5,0.5,0.167704189945689,0.498677682797459,-0.5,-0.266489957136356,0.5,0.532979914272713,1.09228788575955,1.25814598518829,3.13255956949941,0.5,55.204804603365
CBC_1017,CBC_1017_MSI_TV_v3_Vset5_Tset1_2023-06-25_09h48.15.887.csv,1,6,2,3,b,1,0,0,tac,C,63,1,2C,3C,1,0,b,2.38814569999998,1,0,1,1,2C,3C,C23,3.04452243772342,0.890946119763639,0.5,0.5,0.5,0.5,0.5,0.5,0.233510042863644,0.5,0.5,0.766489957136356,0.5,0.5,0.5,0.5,0.766489957136356,0.766489957136356,0.233510042863644,0.766489957136356,0.5,0.350832795603918,0.891271525778167,0.233510042863644,0.124456162627282,0.5,0.532979914272713,1.09228788575955,1.25814598518829,3.13255956949941,0.5,55.204804603365
CBC_1017,CBC_1017_MSI_TV_v3_Vset5_Tset1_2023-06-25_09h48.15.887.csv,1,7,2,3,z,0,1,1,tac,D,63,0,2D,3D,1,0,z,2.2369557,0,1,1,0,3D,2D,D23,3.09104245335832,0.890946119763639,0.5,0.5,0.5,0.5,0.5,0.5,0.233510042863644,0.5,0.5,0.890946119763639,0.5,0.5,0.5,0.5,0.766489957136356,0.766489957136356,0.233510042863644,0.766489957136356,0.5,0.386048694059441,0.891088066616067,-0.766489957136356,-0.408523751645431,0.5,0.532979914272713,1.09228788575955,1.25814598518829,3.13255956949941,0.5,55.204804603365
CBC_1017,CBC_1017_MSI_TV_v3_Vset5_Tset1_2023-06-25_09h48.15.887.csv,1,8,1,0,b,1,0,3,tac,B,63,1,1B,0B,1,0,b,4.23765849999997,1,0,1,1,1B,0B,B10,3.13549421592915,0.890946119763639,0.5,0.5,0.5,0.5,0.5,0.5,0.233510042863644,0.5,0.5,0.890946119763639,0.5,0.5,0.5,0.5,0.357966205490926,0.5,0.5,0.5,0.5,0.065869053622183,0.50033134680512,0.5,0.266489957136356,0.5,0.532979914272713,1.09228788575955,1.25814598518829,3.13255956949941,0.5,55.204804603365
CBC_1017,CBC_1017_MSI_TV_v3_Vset5_Tset1_2023-06-25_09h48.15.887.csv,1,9,0,2,b,1,0,2,tac,A,27,1,0A,2A,1,0,b,2.6871776,1,0,1,1,0A,2A,A02,3.17805383034795,0.890946119763639,0.5,0.5,0.5,0.5,0.766489957136356,0.5,0.233510042863644,0.5,0.5,0.890946119763639,0.5,0.5,0.5,0.5,0.357966205490926,0.890946119763639,0.109053880236361,0.890946119763639,0.5,0.308248840132185,0.956132668748146,0.109053880236361,0.0581235277394825,0.5,0.532979914272713,1.09228788575955,1.25814598518829,3.13255956949941,0.5,55.204804603365
CBC_1017,CBC_1017_MSI_TV_v3_Vset5_Tset1_2023-06-25_09h48.15.887.csv,1,10,0,3,z,0,1,1,tac,D,9,1,0D,3D,0,1,z,2.41491839999999,0,1,1,1,3D,0D,D03,3.2188758248682,0.949069647503121,0.5,0.5,0.5,0.5,0.766489957136356,0.5,0.233510042863644,0.5,0.5,0.890946119763639,0.5,0.5,0.5,0.5,0.357966205490926,0.357966205490926,0.642033794509074,0.357966205490926,0.5,0.0853598383176926,0.246734160377234,0.642033794509074,0.342191116757631,0.5,0.532979914272713,1.09228788575955,1.25814598518829,3.13255956949941,0.5,55.204804603365
CBC_1017,CBC_1017_MSI_TV_v3_Vset5_Tset1_2023-06-25_09h48.15.887.csv,1,11,3,2,z,0,1,0,tac,C,63,1,3C,2C,0,1,z,1.59141460000002,0,1,1,1,2C,3C,C32,3.25809653802148,0.949069647503121,0.5,0.5,0.5,0.5,0.766489957136356,0.5,0.233510042863644,0.5,0.5,0.890946119763639,0.5,0.5,0.5,0.5,0.700157322248557,0.890946119763639,0.109053880236361,0.890946119763639,0.5,0.556876588652422,0.956214671023109,0.109053880236361,0.0581235277394825,0.5,0.532979914272713,1.09228788575955,1.25814598518829,3.13255956949941,0.5,55.204804603365
CBC_1017,CBC_1017_MSI_TV_v3_Vset5_Tset1_2023-06-25_09h48.15.887.csv,1,12,1,0,b,1,0,3,tac,B,63,1,1B,0B,1,0,b,2.45836850000002,1,0,1,1,1B,0B,B10,2.60268968544438,0.949069647503121,0.5,0.5,0.5,0.5,0.766489957136356,0.5,0.233510042863644,0.5,0.5,0.949069647503121,0.5,0.5,0.5,0.5,0.700157322248557,0.766489957136356,0.233510042863644,0.766489957136356,0.5,0.33408359523211,0.890407960801767,0.233510042863644,0.124456162627282,0.5,0.532979914272713,1.09228788575955,1.25814598518829,3.13255956949941,0.5,55.204804603365
CBC_1017,CBC_1017_MSI_TV_v3_Vset5_Tset1_2023-06-25_09h48.15.887.csv,1,13,3,2,b,1,0,1,tac,D,63,1,3D,2D,1,0,b,3.09475880000004,1,0,1,1,3D,2D,D32,2.63905732961526,0.949069647503121,0.5,0.5,0.5,0.5,0.890946119763639,0.5,0.233510042863644,0.5,0.5,0.949069647503121,0.5,0.5,0.5,0.5,0.700157322248557,0.700157322248557,0.299842677751443,0.700157322248557,0.5,0.199472889896181,0.828867677225637,0.299842677751443,0.159810124683265,0.5,0.532979914272713,1.09228788575955,1.25814598518829,3.13255956949941,0.5,55.204804603365
CBC_1017,CBC_1017_MSI_TV_v3_Vset5_Tset1_2023-06-25_09h48.15.887.csv,1,14,3,2,z,0,1,0,tac,C,63,1,3C,2C,0,1,z,2.04662249999997,0,1,1,1,2C,3C,C32,2.67414864942653,0.949069647503121,0.5,0.5,0.5,0.5,0.890946119763639,0.5,0.233510042863644,0.5,0.5,0.949069647503121,0.5,0.5,0.5,0.5,0.859967446931822,0.949069647503121,0.0509303524968787,0.949069647503121,0.5,0.591859156756342,0.971878022011208,0.0509303524968787,0.0271448549076655,0.5,0.532979914272713,1.09228788575955,1.25814598518829,3.13255956949941,0.5,55.204804603365
CBC_1017,CBC_1017_MSI_TV_v3_Vset5_Tset1_2023-06-25_09h48.15.887.csv,1,15,1,3,b,1,0,3,tac,B,27,1,1B,3B,1,0,b,2.36582920000002,1,0,1,1,1B,3B,B13,3.40119738166216,0.949069647503121,0.5,0.5,0.5,0.5,0.890946119763639,0.5,0.233510042863644,0.5,0.5,0.976214502410787,0.5,0.5,0.5,0.5,0.859967446931822,0.964050842626575,0.035949157373425,0.890946119763639,0.233510042863644,0.43312394797561,0.974879811366477,0.109053880236361,0.0581235277394825,0.5,0.532979914272713,1.09228788575955,1.25814598518829,3.13255956949941,0.5,55.204804603365
CBC_1017,CBC_1017_MSI_TV_v3_Vset5_Tset1_2023-06-25_09h48.15.887.csv,1,16,3,0,z,0,1,2,tac,A,9,1,3A,0A,0,1,z,2.60067589999996,0,1,1,1,0A,3A,A30,3.43398720448515,0.949069647503121,0.5,0.5,0.5,0.5,0.949069647503121,0.5,0.233510042863644,0.5,0.5,0.976214502410787,0.5,0.5,0.5,0.5,0.859967446931822,0.949069647503121,0.0509303524968787,0.949069647503121,0.5,0.333640712184259,0.971840359357055,0.0509303524968787,0.0271448549076655,0.5,0.532979914272713,1.09228788575955,1.25814598518829,3.13255956949941,0.5,55.204804603365
CBC_1017,CBC_1017_MSI_TV_v3_Vset5_Tset1_2023-06-25_09h48.15.887.csv,1,17,3,2,b,1,0,1,tac,D,63,1,3D,2D,1,0,b,2.15621020000005,1,0,1,1,3D,2D,D32,2.36712361413162,0.976214502410787,0.5,0.5,0.5,0.5,0.949069647503121,0.5,0.233510042863644,0.5,0.5,0.976214502410787,0.5,0.5,0.5,0.5,0.859967446931822,0.859967446931822,0.140032553068178,0.859967446931822,0.5,0.480197370304061,0.944819528030414,0.140032553068178,0.0746345381296668,0.5,0.532979914272713,1.09228788575955,1.25814598518829,3.13255956949941,0.5,55.204804603365
CBC_1017,CBC_1017_MSI_TV_v3_Vset5_Tset1_2023-06-25_09h48.15.887.csv,1,18,2,0,b,1,0,0,tac,C,27,1,2C,0C,1,0,b,2.42951219999999,1,0,1,1,2C,0C,C20,2.80336038090653,0.976214502410787,0.5,0.5,0.5,0.5,0.949069647503121,0.5,0.233510042863644,0.5,0.5,0.976214502410787,0.5,0.5,0.5,0.5,0.934601985061488,0.976214502410787,0.0237854975892132,0.976214502410787,0.5,0.403085059024226,0.977179144852704,0.0237854975892132,0.0126771924660327,0.5,0.532979914272713,1.09228788575955,1.25814598518829,3.13255956949941,0.5,55.204804603365
CBC_1017,CBC_1017_MSI_TV_v3_Vset5_Tset1_2023-06-25_09h48.15.887.csv,1,19,1,0,z,0,1,2,tac,A,63,1,1A,0A,0,1,z,2.52190630000003,0,1,1,1,0A,1A,A10,2.42774823594805,0.976214502410787,0.5,0.5,0.5,0.5,0.949069647503121,0.5,0.233510042863644,0.5,0.5,0.988891694876819,0.5,0.5,0.5,0.5,0.934601985061488,0.976214502410787,0.0237854975892132,0.976214502410787,0.5,0.361621020004719,0.977169456042436,0.0237854975892132,0.0126771924660327,0.5,0.532979914272713,1.09228788575955,1.25814598518829,3.13255956949941,0.5,55.204804603365
CBC_1017,CBC_1017_MSI_TV_v3_Vset5_Tset1_2023-06-25_09h48.15.887.csv,1,20,0,1,z,0,1,3,tac,B,63,0,0B,1B,1,0,z,1.79482950000001,0,1,1,0,1B,0B,B01,3.55534806148941,0.988891694876819,0.5,0.5,0.5,0.5,0.949069647503121,0.5,0.233510042863644,0.5,0.5,0.988891694876819,0.5,0.5,0.5,0.5,0.934601985061488,0.949069647503121,0.0509303524968787,0.949069647503121,0.5,0.694616062140562,0.971896366497889,-0.949069647503121,-0.505835059365047,0.5,0.532979914272713,1.09228788575955,1.25814598518829,3.13255956949941,0.5,55.204804603365
CBC_1017,CBC_1017_MSI_TV_v3_Vset5_Tset1_2023-06-25_09h48.15.887.csv,1,21,1,3,z,0,1,1,tac,D,27,1,1D,3D,0,1,z,2.22417740000004,0,1,1,1,3D,1D,D13,3.58351893845611,0.988891694876819,0.5,0.5,0.5,0.5,0.443234588138074,0.5,0.233510042863644,0.5,0.5,0.988891694876819,0.5,0.5,0.5,0.5,0.934601985061488,0.934601985061488,0.0653980149385116,0.934601985061488,0.5,0.494213645214546,0.968339953988826,0.0653980149385116,0.0348558283955335,0.5,0.532979914272713,1.09228788575955,1.25814598518829,3.13255956949941,0.5,55.204804603365
CBC_1017,CBC_1017_MSI_TV_v3_Vset5_Tset1_2023-06-25_09h48.15.887.csv,1,22,2,3,b,1,0,0,tac,C,63,1,2C,3C,1,0,b,2.50879320000003,1,0,1,1,2C,3C,C23,2.91777073208428,0.988891694876819,0.5,0.5,0.5,0.5,0.443234588138074,0.5,0.233510042863644,0.5,0.5,0.988891694876819,0.5,0.5,0.5,0.5,0.969457813457022,0.988891694876819,0.0111083051231805,0.988891694876819,0.5,0.365570517260404,0.979185598808392,0.0111083051231805,0.00592050351226788,0.5,0.532979914272713,1.09228788575955,1.25814598518829,3.13255956949941,0.5,55.204804603365
CBC_1017,CBC_1017_MSI_TV_v3_Vset5_Tset1_2023-06-25_09h48.15.887.csv,1,23,1,0,b,1,0,3,tac,B,63,1,1B,0B,1,0,b,1.6989622,1,0,1,1,1B,0B,B10,2.53897387105828,0.988891694876819,0.5,0.5,0.5,0.5,0.443234588138074,0.5,0.233510042863644,0.5,0.5,0.994812198389087,0.5,0.5,0.5,0.5,0.969457813457022,0.443234588138074,0.556765411861926,0.443234588138074,0.5,0.139472683290908,0.391089599531765,0.556765411861926,0.296744781484181,0.5,0.532979914272713,1.09228788575955,1.25814598518829,3.13255956949941,0.5,55.204804603365
CBC_1017,CBC_1017_MSI_TV_v3_Vset5_Tset1_2023-06-25_09h48.15.887.csv,1,24,2,0,z,0,1,2,tac,A,27,1,2A,0A,0,1,b,2.31521490000002,1,0,0,0,2A,0A,A20,3.66356164612965,0.988891694876819,0.5,0.5,0.5,0.5,0.739979369622255,0.5,0.233510042863644,0.5,0.5,0.994812198389087,0.5,0.5,0.5,0.5,0.969457813457022,0.0111083051231805,0.988891694876819,0.5,0.988891694876819,0.00977367727836417,0.0207669891910385,-0.5,-0.266489957136356,0.5,0.532979914272713,1.09228788575955,1.25814598518829,3.13255956949941,0.5,55.204804603365
CBC_1017,CBC_1017_MSI_TV_v3_Vset5_Tset1_2023-06-25_09h48.15.887.csv,1,25,2,3,z,0,1,1,tac,D,63,1,2D,3D,0,1,z,2.5066958,0,1,1,1,3D,2D,D23,2.99573227355399,0.988891694876819,0.5,0.233510042863644,0.5,0.5,0.739979369622255,0.5,0.233510042863644,0.5,0.5,0.994812198389087,0.5,0.5,0.5,0.5,0.969457813457022,0.969457813457022,0.0305421865429781,0.969457813457022,0.5,0.368952643053698,0.975888112264834,0.0305421865429781,0.0162783719653777,0.5,0.532979914272713,1.09228788575955,1.25814598518829,3.13255956949941,0.5,55.204804603365
CBC_1017,CBC_1017_MSI_TV_v3_Vset5_Tset1_2023-06-25_09h48.15.887.csv,1,26,2,0,b,1,0,0,tac,C,27,1,2C,0C,1,0,b,2.20445409999998,1,0,1,1,2C,0C,C20,2.6149597780362,0.988891694876819,0.5,0.233510042863644,0.5,0.5,0.739979369622255,0.5,0.233510042863644,0.5,0.5,0.994812198389087,0.5,0.5,0.5,0.5,0.9857361854224,0.994812198389087,0.00518780161091259,0.994812198389087,0.5,0.524732120889252,0.980195963562097,0.00518780161091259,0.00276499405784803,0.5,0.532979914272713,1.09228788575955,1.25814598518829,3.13255956949941,0.5,55.204804603365
CBC_1017,CBC_1017_MSI_TV_v3_Vset5_Tset1_2023-06-25_09h48.15.887.csv,1,27,1,0,b,1,0,3,tac,B,63,1,1B,0B,1,0,b,2.33832289999999,1,0,1,1,1B,0B,B10,2.35137525716348,0.988891694876819,0.5,0.233510042863644,0.5,0.5,0.739979369622255,0.5,0.233510042863644,0.5,0.5,0.997577192446935,0.5,0.5,0.5,0.5,0.9857361854224,0.739979369622255,0.260020630377745,0.739979369622255,0.5,0.343898613174789,0.868809690752275,0.260020630377745,0.138585773287867,0.5,0.532979914272713,1.09228788575955,1.25814598518829,3.13255956949941,0.5,55.204804603365
CBC_1017,CBC_1017_MSI_TV_v3_Vset5_Tset1_2023-06-25_09h48.15.887.csv,1,28,0,1,b,1,0,2,tac,A,63,1,0A,1A,1,0,b,2.10907870000001,1,0,1,1,0A,1A,A01,3.76120011569356,0.988891694876819,0.5,0.233510042863644,0.5,0.5,0.878565142910122,0.5,0.233510042863644,0.5,0.5,0.997577192446935,0.5,0.5,0.5,0.5,0.9857361854224,0.988891694876819,0.0111083051231805,0.988891694876819,0.5,0.580100205498224,0.979193209269051,0.0111083051231805,0.00592050351226788,0.5,0.532979914272713,1.09228788575955,1.25814598518829,3.13255956949941,0.5,55.204804603365
CBC_1017,CBC_1017_MSI_TV_v3_Vset5_Tset1_2023-06-25_09h48.15.887.csv,1,29,3,2,z,0,1,0,tac,C,63,0,3C,2C,1,0,z,1.34220339999997,0,1,1,0,2C,3C,C32,2.68557734525015,0.994812198389087,0.5,0.233510042863644,0.5,0.5,0.878565142910122,0.5,0.233510042863644,0.5,0.5,0.997577192446935,0.5,0.5,0.5,0.5,0.9857361854224,0.997577192446935,0.00242280755306457,0.997577192446935,0.5,0.215517990655755,0.98051509275796,-0.997577192446935,-0.531688606510781,0.5,0.532979914272713,1.09228788575955,1.25814598518829,3.13255956949941,0.5,55.204804603365
CBC_1017,CBC_1017_MSI_TV_v3_Vset5_Tset1_2023-06-25_09h48.15.887.csv,1,30,3,1,b,1,0,1,tac,D,27,1,3D,1D,1,0,b,1.99046899999998,1,0,1,1,3D,1D,D31,3.80666248977032,0.994812198389087,0.5,0.233510042863644,0.5,0.5,0.878565142910122,0.5,0.233510042863644,0.5,0.5,0.465888585936154,0.5,0.5,0.5,0.5,0.9857361854224,0.9857361854224,0.0142638145776004,0.9857361854224,0.5,0.650194004267523,0.978851973183955,0.0142638145776004,0.00760232667077133,0.5,0.532979914272713,1.09228788575955,1.25814598518829,3.13255956949941,0.5,55.204804603365
CBC_1017,CBC_1017_MSI_TV_v3_Vset5_Tset1_2023-06-25_09h48.15.887.csv,1,31,1,0,z,0,1,2,tac,A,63,1,1A,0A,0,1,z,2.01762500000002,0,1,1,1,0A,1A,A10,2.4423470353692,0.994812198389087,0.5,0.233510042863644,0.5,0.5,0.878565142910122,0.5,0.233510042863644,0.5,0.5,0.465888585936154,0.5,0.5,0.5,0.5,0.993338512093171,0.994812198389087,0.00518780161091259,0.994812198389087,0.5,0.639879960486631,0.980183521897432,0.00518780161091259,0.00276499405784803,0.5,0.532979914272713,1.09228788575955,1.25814598518829,3.13255956949941,0.5,55.204804603365
CBC_1017,CBC_1017_MSI_TV_v3_Vset5_Tset1_2023-06-25_09h48.15.887.csv,1,32,3,2,b,1,0,1,tac,D,63,1,3D,2D,1,0,b,2.95366700000001,1,0,1,1,3D,2D,D32,2.46385324059017,0.997577192446935,0.5,0.233510042863644,0.5,0.5,0.878565142910122,0.5,0.233510042863644,0.5,0.5,0.465888585936154,0.5,0.5,0.5,0.5,0.993338512093171,0.993338512093171,0.00666148790682908,0.993338512093171,0.5,0.208587074848861,0.980006014711458,0.00666148790682908,0.00355043925351048,0.5,0.532979914272713,1.09228788575955,1.25814598518829,3.13255956949941,0.5,55.204804603365
CBC_1017,CBC_1017_MSI_TV_v3_Vset5_Tset1_2023-06-25_09h48.15.887.csv,1,33,2,1,z,0,1,3,tac,B,9,1,2B,1B,0,1,z,2.41031959999999,0,1,1,1,1B,2B,B21,3.87120101090789,0.997577192446935,0.5,0.233510042863644,0.5,0.5,0.878565142910122,0.5,0.233510042863644,0.5,0.5,0.465888585936154,0.5,0.5,0.5,0.5,0.996888951346681,0.878565142910122,0.121434857089878,0.878565142910122,0.5,0.397319926559953,0.951762480162328,0.121434857089878,0.0647223397214822,0.5,0.532979914272713,1.09228788575955,1.25814598518829,3.13255956949941,0.5,55.204804603365
CBC_1017,CBC_1017_MSI_TV_v3_Vset5_Tset1_2023-06-25_09h48.15.887.csv,1,34,1,0,z,0,1,2,tac,A,63,1,1A,0A,0,1,z,3.35002190000002,0,1,1,1,0A,1A,A10,2.28238238567653,0.997577192446935,0.5,0.233510042863644,0.5,0.5,0.943287482631604,0.5,0.233510042863644,0.5,0.5,0.465888585936154,0.5,0.5,0.5,0.5,0.996888951346681,0.997577192446935,0.00242280755306457,0.997577192446935,0.5,0.12456231970438,0.980569541586377,0.00242280755306457,0.00129130776193163,0.5,0.532979914272713,1.09228788575955,1.25814598518829,3.13255956949941,0.5,55.204804603365
CBC_1017,CBC_1017_MSI_TV_v3_Vset5_Tset1_2023-06-25_09h48.15.887.csv,1,35,2,1,b,1,0,0,tac,C,9,1,2C,1C,1,0,b,3.34449560000003,1,0,1,1,2C,1C,C21,3.91202300542815,0.998868500208867,0.5,0.233510042863644,0.5,0.5,0.943287482631604,0.5,0.233510042863644,0.5,0.5,0.465888585936154,0.5,0.5,0.5,0.5,0.996888951346681,0.465888585936154,0.534111414063846,0.465888585936154,0.5,0.0894202323991166,0.433293697800062,0.534111414063846,0.284670655679826,0.5,0.532979914272713,1.09228788575955,1.25814598518829,3.13255956949941,0.5,55.204804603365
CBC_1017,CBC_1017_MSI_TV_v3_Vset5_Tset1_2023-06-25_09h48.15.887.csv,1,36,1,0,b,1,0,3,tac,B,63,1,1B,0B,1,0,b,2.2425724000001,1,0,1,1,1B,0B,B10,2.32238772029023,0.998868500208867,0.5,0.233510042863644,0.5,0.5,0.943287482631604,0.5,0.233510042863644,0.5,0.5,0.75055924161598,0.5,0.5,0.5,0.5,0.996888951346681,0.943287482631604,0.0567125173683956,0.943287482631604,0.5,0.488673379781329,0.970409153118939,0.0567125173683956,0.0302266326451972,0.5,0.532979914272713,1.09228788575955,1.25814598518829,3.13255956949941,0.5,55.204804603365
CBC_1017,CBC_1017_MSI_TV_v3_Vset5_Tset1_2023-06-25_09h48.15.887.csv,1,37,0,1,b,1,0,2,tac,A,63,0,0A,1A,0,1,b,3.2898828,1,0,1,0,0A,1A,A01,3.25809653802148,0.998868500208867,0.5,0.233510042863644,0.5,0.5,0.973514115276802,0.5,0.233510042863644,0.5,0.5,0.75055924161598,0.5,0.5,0.5,0.5,0.996888951346681,0.998868500208867,0.00113149979113292,0.998868500208867,0.5,0.134055364915135,0.980760560040277,-0.998868500208867,-0.532376847611035,0.5,0.532979914272713,1.09228788575955,1.25814598518829,3.13255956949941,0.5,55.204804603365
CBC_1017,CBC_1017_MSI_TV_v3_Vset5_Tset1_2023-06-25_09h48.15.887.csv,1,38,0,1,z,0,1,3,tac,B,63,1,0B,1B,0,1,z,2.26754830000006,0,1,1,1,1B,0B,B01,3.27714473299218,0.466491652597832,0.5,0.233510042863644,0.5,0.5,0.973514115276802,0.5,0.233510042863644,0.5,0.5,0.75055924161598,0.5,0.5,0.5,0.5,0.996888951346681,0.973514115276802,0.0264858847231983,0.973514115276802,0.5,0.484387073928516,0.976636410326718,0.0264858847231983,0.0141164445692072,0.5,0.532979914272713,1.09228788575955,1.25814598518829,3.13255956949941,0.5,55.204804603365
CBC_1017,CBC_1017_MSI_TV_v3_Vset5_Tset1_2023-06-25_09h48.15.887.csv,1,39,1,3,z,0,1,1,tac,D,27,1,1D,3D,0,1,z,2.53284459999999,0,1,1,1,3D,1D,D13,3.29583686600433,0.466491652597832,0.5,0.233510042863644,0.5,0.5,0.987630559846009,0.5,0.233510042863644,0.5,0.5,0.75055924161598,0.5,0.5,0.5,0.5,0.996888951346681,0.996888951346681,0.00311104865331857,0.996888951346681,0.5,0.353395294318581,0.980464809708883,0.00311104865331857,0.00165812644454397,0.5,0.532979914272713,1.09228788575955,1.25814598518829,3.13255956949941,0.5,55.204804603365
CBC_1017,CBC_1017_MSI_TV_v3_Vset5_Tset1_2023-06-25_09h48.15.887.csv,1,40,3,2,z,0,1,0,tac,C,63,1,3C,2C,0,1,z,2.26870859999998,0,1,1,1,2C,3C,C32,2.62103882411258,0.466491652597832,0.5,0.233510042863644,0.5,0.5,0.987630559846009,0.5,0.233510042863644,0.5,0.5,0.75055924161598,0.5,0.5,0.5,0.5,0.998547077791225,0.75055924161598,0.24944075838402,0.75055924161598,0.5,0.366567356354892,0.878176993595293,0.24944075838402,0.132946914019635,0.5,0.532979914272713,1.09228788575955,1.25814598518829,3.13255956949941,0.5,55.204804603365
CBC_1017,CBC_1017_MSI_TV_v3_Vset5_Tset1_2023-06-25_09h48.15.887.csv,1,41,0,2,b,1,0,2,tac,A,27,1,0A,2A,1,0,z,2.37229900000001,0,1,0,0,2A,0A,A02,3.3322045101752,0.466491652597832,0.5,0.233510042863644,0.5,0.5,0.987630559846009,0.5,0.233510042863644,0.5,0.5,0.883506155635616,0.5,0.5,0.5,0.5,0.998547077791225,0.258388372732655,0.741611627267345,0.233510042863644,0.466491652597832,0.0502320418195818,0.129290063827565,-0.233510042863644,-0.124456162627282,0.5,0.532979914272713,1.09228788575955,1.25814598518829,3.13255956949941,0.5,55.204804603365
CBC_1017,CBC_1017_MSI_TV_v3_Vset5_Tset1_2023-06-25_09h48.15.887.csv,1,42,2,3,z,0,1,1,tac,D,63,1,2D,3D,0,1,z,2.89780430000009,0,1,1,1,3D,2D,D23,2.94443897916644,0.466491652597832,0.5,0.109053880236361,0.5,0.5,0.987630559846009,0.5,0.233510042863644,0.5,0.5,0.883506155635616,0.5,0.5,0.5,0.5,0.998547077791225,0.998547077791225,0.00145292220877458,0.998547077791225,0.5,0.222132180167439,0.980696967776549,0.00145292220877458,0.000774378354277594,0.5,0.532979914272713,1.09228788575955,1.25814598518829,3.13255956949941,0.5,55.204804603365
CBC_1017,CBC_1017_MSI_TV_v3_Vset5_Tset1_2023-06-25_09h48.15.887.csv,1,43,1,3,b,1,0,3,tac,B,27,1,1B,3B,1,0,b,2.40064880000001,1,0,1,1,1B,3B,B13,3.36729582998647,0.466491652597832,0.5,0.109053880236361,0.5,0.5,0.987630559846009,0.5,0.233510042863644,0.5,0.5,0.883506155635616,0.5,0.5,0.5,0.5,0.999321456145503,0.996198975146475,0.00380102485352518,0.987630559846009,0.233510042863644,0.416114683718314,0.980381275115768,0.0123694401539911,0.00659266315287563,0.5,0.532979914272713,1.09228788575955,1.25814598518829,3.13255956949941,0.5,55.204804603365
CBC_1017,CBC_1017_MSI_TV_v3_Vset5_Tset1_2023-06-25_09h48.15.887.csv,1,44,3,2,z,0,1,0,tac,C,63,1,3C,2C,0,1,z,1.54533419999997,0,1,1,1,2C,3C,C32,2.46809953147162,0.466491652597832,0.5,0.109053880236361,0.5,0.5,0.994223222998885,0.5,0.233510042863644,0.5,0.5,0.883506155635616,0.5,0.5,0.5,0.5,0.999321456145503,0.883506155635616,0.116493844364384,0.883506155635616,0.5,0.501362072983622,0.953492782441241,0.116493844364384,0.0620888791826284,0.5,0.532979914272713,1.09228788575955,1.25814598518829,3.13255956949941,0.5,55.204804603365
CBC_1017,CBC_1017_MSI_AV_v3_Vset3_Aset3_2023-06-25_10h04.01.692.csv,2,1,3,1,z,0,1,3,aud,B,27,1,3B,1B,0,1,z,2.01955879999991,0,1,1,1,1B,3B,B31,2.77258872223978,0.5,0.5,0.5,0.5,0.5,0.5,0.5,0.5,0.5,0.5,0.5,0.5,0.5,0.5,0.5,0.5,0.5,0.5,0.5,0.5,0.218516227018718,0.499955875697065,0.5,0.0778004365571428,0.5,0.155600873114286,0.971200612285011,2.19335445747639,2.50747520772148,0.5,47.8158264894787
CBC_1017,CBC_1017_MSI_AV_v3_Vset3_Aset3_2023-06-25_10h04.01.692.csv,2,2,2,3,b,1,0,0,aud,C,63,1,2C,3C,1,0,b,2.29919670000004,1,0,1,1,2C,3C,C23,2.83321334405622,0.5,0.5,0.5,0.5,0.5,0.577800436557143,0.5,0.5,0.5,0.5,0.5,0.5,0.5,0.5,0.5,0.5,0.5,0.5,0.5,0.5,0.176335794721809,0.500738754413425,0.5,0.0778004365571428,0.5,0.155600873114286,0.971200612285011,2.19335445747639,2.50747520772148,0.5,47.8158264894787
CBC_1017,CBC_1017_MSI_AV_v3_Vset3_Aset3_2023-06-25_10h04.01.692.csv,2,3,2,3,z,0,1,1,aud,D,63,1,2D,3D,0,1,z,2.88148130000013,0,1,1,1,3D,2D,D23,2.89037175789616,0.5,0.5,0.5,0.5,0.5,0.577800436557143,0.5,0.5,0.5,0.5,0.577800436557143,0.5,0.5,0.5,0.5,0.5,0.5,0.5,0.5,0.5,0.111414684405707,0.499331949348905,0.5,0.0778004365571428,0.5,0.155600873114286,0.971200612285011,2.19335445747639,2.50747520772148,0.5,47.8158264894787
CBC_1017,CBC_1017_MSI_AV_v3_Vset3_Aset3_2023-06-25_10h04.01.692.csv,2,4,1,0,b,1,0,3,aud,B,63,1,1B,0B,1,0,b,1.41824159999987,1,0,1,1,1B,0B,B10,2.94443897916644,0.5,0.5,0.5,0.5,0.5,0.577800436557143,0.5,0.5,0.5,0.5,0.577800436557143,0.5,0.5,0.5,0.5,0.577800436557143,0.577800436557143,0.422199563442857,0.577800436557143,0.5,0.431367464575857,0.702051766587819,0.422199563442857,0.0656946207001788,0.5,0.155600873114286,0.971200612285011,2.19335445747639,2.50747520772148,0.5,47.8158264894787
CBC_1017,CBC_1017_MSI_AV_v3_Vset3_Aset3_2023-06-25_10h04.01.692.csv,2,5,3,0,z,0,1,2,aud,A,9,1,3A,0A,0,1,z,1.91637639999999,0,1,1,1,0A,3A,A30,2.99573227355399,0.5,0.5,0.5,0.5,0.5,0.643495057257322,0.5,0.5,0.5,0.5,0.577800436557143,0.5,0.5,0.5,0.5,0.577800436557143,0.5,0.5,0.5,0.5,0.236893577871694,0.501744867768989,0.5,0.0778004365571428,0.5,0.155600873114286,0.971200612285011,2.19335445747639,2.50747520772148,0.5,47.8158264894787
CBC_1017,CBC_1017_MSI_AV_v3_Vset3_Aset3_2023-06-25_10h04.01.692.csv,2,6,2,3,z,0,1,1,aud,D,63,1,2D,3D,0,1,b,2.32619340000019,1,0,0,0,2D,3D,D23,2.35137525716348,0.577800436557143,0.5,0.5,0.5,0.5,0.643495057257322,0.5,0.5,0.5,0.5,0.577800436557143,0.5,0.5,0.5,0.5,0.577800436557143,0.422199563442857,0.577800436557143,0.5,0.577800436557143,0.104189384079544,0.299195277812977,-0.5,-0.0778004365571428,0.5,0.155600873114286,0.971200612285011,2.19335445747639,2.50747520772148,0.5,47.8158264894787
CBC_1017,CBC_1017_MSI_AV_v3_Vset3_Aset3_2023-06-25_10h04.01.692.csv,2,7,2,0,b,1,0,0,aud,C,27,1,2C,0C,1,0,b,2.57210459999988,1,0,1,1,2C,0C,C20,3.09104245335832,0.577800436557143,0.5,0.5,0.5,0.5,0.643495057257322,0.5,0.5,0.5,0.5,0.577800436557143,0.5,0.5,0.5,0.422199563442857,0.577800436557143,0.577800436557143,0.422199563442857,0.577800436557143,0.5,0.198869122232671,0.702289073208959,0.422199563442857,0.0656946207001788,0.5,0.155600873114286,0.971200612285011,2.19335445747639,2.50747520772148,0.5,47.8158264894787
CBC_1017,CBC_1017_MSI_AV_v3_Vset3_Aset3_2023-06-25_10h04.01.692.csv,2,8,1,0,z,0,1,2,aud,A,63,1,1A,0A,0,1,z,2.24483099999998,0,1,1,1,0A,1A,A10,3.13549421592915,0.577800436557143,0.5,0.5,0.5,0.5,0.643495057257322,0.5,0.5,0.5,0.5,0.643495057257322,0.5,0.5,0.5,0.422199563442857,0.577800436557143,0.577800436557143,0.422199563442857,0.577800436557143,0.5,0.26185946930331,0.702292790727306,0.422199563442857,0.0656946207001788,0.5,0.155600873114286,0.971200612285011,2.19335445747639,2.50747520772148,0.5,47.8158264894787
CBC_1017,CBC_1017_MSI_AV_v3_Vset3_Aset3_2023-06-25_10h04.01.692.csv,2,9,0,1,z,0,1,3,aud,B,63,1,0B,1B,0,1,z,2.08273110000005,0,1,1,1,1B,0B,B01,3.17805383034795,0.643495057257322,0.5,0.5,0.5,0.5,0.643495057257322,0.5,0.5,0.5,0.5,0.643495057257322,0.5,0.5,0.5,0.422199563442857,0.577800436557143,0.643495057257322,0.356504942742678,0.643495057257322,0.5,0.367717158469638,0.828721581509692,0.356504942742678,0.0554724803603192,0.5,0.155600873114286,0.971200612285011,2.19335445747639,2.50747520772148,0.5,47.8158264894787
CBC_1017,CBC_1017_MSI_AV_v3_Vset3_Aset3_2023-06-25_10h04.01.692.csv,2,10,3,1,b,1,0,1,aud,D,27,1,3D,1D,1,0,z,2.98281180000004,0,1,0,0,1D,3D,D31,3.2188758248682,0.643495057257322,0.5,0.5,0.5,0.5,0.698967537617641,0.5,0.5,0.5,0.5,0.643495057257322,0.5,0.5,0.5,0.422199563442857,0.577800436557143,0.422199563442857,0.577800436557143,0.5,0.577800436557143,0.0599065764846656,0.298968918094883,-0.5,-0.0778004365571428,0.5,0.155600873114286,0.971200612285011,2.19335445747639,2.50747520772148,0.5,47.8158264894787
CBC_1017,CBC_1017_MSI_AV_v3_Vset3_Aset3_2023-06-25_10h04.01.692.csv,2,11,2,3,b,1,0,0,aud,C,63,1,2C,3C,1,0,z,2.52039229999991,0,1,0,0,3C,2C,C23,2.56494935746154,0.643495057257322,0.5,0.5,0.5,0.5,0.698967537617641,0.5,0.5,0.5,0.5,0.643495057257322,0.5,0.5,0.422199563442857,0.422199563442857,0.577800436557143,0.356504942742678,0.643495057257322,0.5,0.643495057257322,0.0494599655720915,0.170934216052507,-0.5,-0.0778004365571428,0.5,0.155600873114286,0.971200612285011,2.19335445747639,2.50747520772148,0.5,47.8158264894787
CBC_1017,CBC_1017_MSI_AV_v3_Vset3_Aset3_2023-06-25_10h04.01.692.csv,2,12,0,1,z,0,1,3,aud,B,63,1,0B,1B,0,1,z,3.29068979999988,0,1,1,1,1B,0B,B01,2.60268968544438,0.643495057257322,0.5,0.5,0.5,0.5,0.698967537617641,0.5,0.5,0.5,0.5,0.643495057257322,0.422199563442857,0.5,0.422199563442857,0.422199563442857,0.577800436557143,0.698967537617641,0.301032462382359,0.698967537617641,0.5,0.0997737651035435,0.899603480480544,0.301032462382359,0.0468409139824384,0.5,0.155600873114286,0.971200612285011,2.19335445747639,2.50747520772148,0.5,47.8158264894787
CBC_1017,CBC_1017_MSI_AV_v3_Vset3_Aset3_2023-06-25_10h04.01.692.csv,2,13,1,0,z,0,1,2,aud,A,63,1,1A,0A,0,1,z,1.22185480000007,0,1,1,1,0A,1A,A10,2.63905732961526,0.643495057257322,0.5,0.5,0.5,0.5,0.745808451600079,0.5,0.5,0.5,0.5,0.643495057257322,0.422199563442857,0.5,0.422199563442857,0.422199563442857,0.577800436557143,0.643495057257322,0.356504942742678,0.643495057257322,0.5,0.363342696645158,0.829253361200217,0.356504942742678,0.0554724803603192,0.5,0.155600873114286,0.971200612285011,2.19335445747639,2.50747520772148,0.5,47.8158264894787
CBC_1017,CBC_1017_MSI_AV_v3_Vset3_Aset3_2023-06-25_10h04.01.692.csv,2,14,2,1,b,1,0,0,aud,C,9,1,2C,1C,1,0,b,2.0474114000001,1,0,1,1,2C,1C,C21,3.36729582998647,0.698967537617641,0.5,0.5,0.5,0.5,0.745808451600079,0.5,0.5,0.5,0.5,0.643495057257322,0.422199563442857,0.5,0.422199563442857,0.422199563442857,0.577800436557143,0.643495057257322,0.356504942742678,0.643495057257322,0.5,0.380551513410021,0.828906799652839,0.356504942742678,0.0554724803603192,0.5,0.155600873114286,0.971200612285011,2.19335445747639,2.50747520772148,0.5,47.8158264894787
CBC_1017,CBC_1017_MSI_AV_v3_Vset3_Aset3_2023-06-25_10h04.01.692.csv,2,15,0,1,b,1,0,2,aud,A,63,1,0A,1A,1,0,b,1.41863349999994,1,0,1,1,0A,1A,A01,3.40119738166216,0.698967537617641,0.5,0.5,0.5,0.5,0.745808451600079,0.5,0.5,0.5,0.5,0.698967537617641,0.422199563442857,0.5,0.422199563442857,0.422199563442857,0.577800436557143,0.698967537617641,0.301032462382359,0.698967537617641,0.5,0.726733304344261,0.899204445275865,0.301032462382359,0.0468409139824384,0.5,0.155600873114286,0.971200612285011,2.19335445747639,2.50747520772148,0.5,47.8158264894787
CBC_1017,CBC_1017_MSI_AV_v3_Vset3_Aset3_2023-06-25_10h04.01.692.csv,2,16,1,3,z,0,1,1,aud,D,27,1,1D,3D,0,1,z,2.38709300000005,0,1,1,1,3D,1D,D13,3.43398720448515,0.745808451600079,0.5,0.5,0.5,0.5,0.745808451600079,0.5,0.5,0.5,0.5,0.698967537617641,0.422199563442857,0.5,0.422199563442857,0.422199563442857,0.577800436557143,0.651922579568737,0.348077420431263,0.577800436557143,0.422199563442857,0.276806474319333,0.841693644338008,0.422199563442857,0.0656946207001788,0.5,0.155600873114286,0.971200612285011,2.19335445747639,2.50747520772148,0.5,47.8158264894787
CBC_1017,CBC_1017_MSI_AV_v3_Vset3_Aset3_2023-06-25_10h04.01.692.csv,2,17,1,0,b,1,0,3,aud,B,63,1,1B,0B,1,0,b,1.64272989999995,1,0,1,1,1B,0B,B10,2.77258872223978,0.745808451600079,0.5,0.5,0.5,0.5,0.745808451600079,0.5,0.5,0.5,0.5,0.698967537617641,0.422199563442857,0.5,0.422199563442857,0.422199563442857,0.643495057257322,0.745808451600079,0.254191548399921,0.745808451600079,0.5,0.738109883537769,0.937519184956765,0.254191548399921,0.0395524268692999,0.5,0.155600873114286,0.971200612285011,2.19335445747639,2.50747520772148,0.5,47.8158264894787
CBC_1017,CBC_1017_MSI_AV_v3_Vset3_Aset3_2023-06-25_10h04.01.692.csv,2,18,3,2,z,0,1,0,aud,C,63,0,3C,2C,1,0,z,2.77161660000002,0,1,1,0,2C,3C,C32,3.49650756146648,0.745808451600079,0.5,0.5,0.5,0.5,0.785360878469379,0.5,0.5,0.5,0.5,0.698967537617641,0.422199563442857,0.5,0.422199563442857,0.422199563442857,0.643495057257322,0.760630012653971,0.239369987346029,0.698967537617641,0.422199563442857,0.157154665838763,0.946225100190558,-0.698967537617641,-0.108759959131847,0.5,0.155600873114286,0.971200612285011,2.19335445747639,2.50747520772148,0.5,47.8158264894787
CBC_1017,CBC_1017_MSI_AV_v3_Vset3_Aset3_2023-06-25_10h04.01.692.csv,2,19,0,2,b,1,0,2,aud,A,27,1,0A,2A,1,0,b,1.44690500000002,1,0,1,1,0A,2A,A02,3.52636052461616,0.745808451600079,0.5,0.5,0.5,0.5,0.785360878469379,0.5,0.5,0.5,0.5,0.590207578485794,0.422199563442857,0.5,0.422199563442857,0.422199563442857,0.643495057257322,0.745808451600079,0.254191548399921,0.745808451600079,0.5,0.856262778900828,0.937248943113119,0.254191548399921,0.0395524268692999,0.5,0.155600873114286,0.971200612285011,2.19335445747639,2.50747520772148,0.5,47.8158264894787
CBC_1017,CBC_1017_MSI_AV_v3_Vset3_Aset3_2023-06-25_10h04.01.692.csv,2,20,2,3,z,0,1,1,aud,D,63,1,2D,3D,0,1,b,2.8222323,1,0,0,0,2D,3D,D23,2.4567357728213,0.785360878469379,0.5,0.5,0.5,0.5,0.785360878469379,0.5,0.5,0.5,0.5,0.590207578485794,0.422199563442857,0.5,0.422199563442857,0.422199563442857,0.643495057257322,0.28816422595321,0.71183577404679,0.422199563442857,0.643495057257322,0.0163945180346135,0.0886683608225549,-0.422199563442857,-0.0656946207001788,0.5,0.155600873114286,0.971200612285011,2.19335445747639,2.50747520772148,0.5,47.8158264894787
CBC_1017,CBC_1017_MSI_AV_v3_Vset3_Aset3_2023-06-25_10h04.01.692.csv,2,21,1,3,b,1,0,3,aud,B,27,1,1B,3B,1,0,b,2.14219539999999,1,0,1,1,1B,3B,B13,3.58351893845611,0.785360878469379,0.5,0.5,0.5,0.5,0.785360878469379,0.5,0.5,0.5,0.5,0.590207578485794,0.422199563442857,0.5,0.422199563442857,0.356504942742678,0.643495057257322,0.785360878469379,0.214639121530621,0.785360878469379,0.5,0.381774667641443,0.958492682815721,0.214639121530621,0.0333980347146479,0.5,0.155600873114286,0.971200612285011,2.19335445747639,2.50747520772148,0.5,47.8158264894787
CBC_1017,CBC_1017_MSI_AV_v3_Vset3_Aset3_2023-06-25_10h04.01.692.csv,2,22,2,3,b,1,0,0,aud,C,63,1,2C,3C,1,0,b,1.66823820000013,1,0,1,1,2C,3C,C23,2.51230562397611,0.785360878469379,0.5,0.5,0.5,0.5,0.818758913184027,0.5,0.5,0.5,0.5,0.590207578485794,0.422199563442857,0.5,0.422199563442857,0.356504942742678,0.643495057257322,0.663420355291919,0.336579644708081,0.590207578485794,0.422199563442857,0.570891647845723,0.857486451516389,0.409792421514206,0.0637640585832279,0.5,0.155600873114286,0.971200612285011,2.19335445747639,2.50747520772148,0.5,47.8158264894787
CBC_1017,CBC_1017_MSI_AV_v3_Vset3_Aset3_2023-06-25_10h04.01.692.csv,2,23,1,0,z,0,1,2,aud,A,63,1,1A,0A,0,1,z,1.2449072999998,0,1,1,1,0A,1A,A10,2.53897387105828,0.785360878469379,0.5,0.5,0.5,0.5,0.818758913184027,0.5,0.5,0.5,0.5,0.653971637069021,0.422199563442857,0.5,0.422199563442857,0.356504942742678,0.643495057257322,0.785360878469379,0.214639121530621,0.785360878469379,0.5,0.766970284476295,0.958511607406567,0.214639121530621,0.0333980347146479,0.5,0.155600873114286,0.971200612285011,2.19335445747639,2.50747520772148,0.5,47.8158264894787
CBC_1017,CBC_1017_MSI_AV_v3_Vset3_Aset3_2023-06-25_10h04.01.692.csv,2,24,1,2,b,1,0,3,aud,B,9,1,1B,2B,1,0,b,2.08357839999985,1,0,1,1,1B,2B,B12,3.66356164612965,0.818758913184027,0.5,0.5,0.5,0.5,0.818758913184027,0.5,0.5,0.5,0.5,0.653971637069021,0.422199563442857,0.5,0.422199563442857,0.356504942742678,0.643495057257322,0.818758913184027,0.181241086815973,0.818758913184027,0.5,0.404807051071483,0.970931100225968,0.181241086815973,0.0282012713527475,0.5,0.155600873114286,0.971200612285011,2.19335445747639,2.50747520772148,0.5,47.8158264894787
CBC_1017,CBC_1017_MSI_AV_v3_Vset3_Aset3_2023-06-25_10h04.01.692.csv,2,25,3,2,z,0,1,0,aud,C,63,1,3C,2C,0,1,z,2.83985310000003,0,1,1,1,2C,3C,C32,2.99573227355399,0.818758913184027,0.5,0.5,0.5,0.5,0.846960184536774,0.5,0.5,0.5,0.5,0.653971637069021,0.422199563442857,0.5,0.422199563442857,0.356504942742678,0.643495057257322,0.721174235368098,0.278825764631902,0.653971637069021,0.422199563442857,0.161415275755767,0.919353845567375,0.346028362930979,0.0538423153943672,0.5,0.155600873114286,0.971200612285011,2.19335445747639,2.50747520772148,0.5,47.8158264894787
CBC_1017,CBC_1017_MSI_AV_v3_Vset3_Aset3_2023-06-25_10h04.01.692.csv,2,26,3,2,b,1,0,1,aud,D,63,1,3D,2D,1,0,b,1.51558939999995,1,0,1,1,3D,2D,D32,3.71357206670431,0.818758913184027,0.5,0.5,0.5,0.5,0.846960184536774,0.5,0.5,0.5,0.5,0.707813952463389,0.422199563442857,0.5,0.422199563442857,0.356504942742678,0.643495057257322,0.765151366150362,0.234848633849638,0.643495057257322,0.356504942742678,0.874314221406704,0.948668902519872,0.356504942742678,0.0554724803603192,0.5,0.155600873114286,0.971200612285011,2.19335445747639,2.50747520772148,0.5,47.8158264894787
CBC_1017,CBC_1017_MSI_AV_v3_Vset3_Aset3_2023-06-25_10h04.01.692.csv,2,27,1,0,b,1,0,3,aud,B,63,1,1B,0B,1,0,b,1.4113026,1,0,1,1,1B,0B,B10,2.63905732961526,0.818758913184027,0.5,0.5,0.5,0.5,0.846960184536774,0.5,0.5,0.5,0.5,0.707813952463389,0.422199563442857,0.5,0.422199563442857,0.356504942742678,0.698967537617641,0.846960184536774,0.153039815463226,0.846960184536774,0.5,1.16220280416446,0.978407602070637,0.153039815463226,0.0238131289073271,0.5,0.155600873114286,0.971200612285011,2.19335445747639,2.50747520772148,0.5,47.8158264894787
CBC_1017,CBC_1017_MSI_AV_v3_Vset3_Aset3_2023-06-25_10h04.01.692.csv,2,28,2,0,z,0,1,2,aud,A,27,1,2A,0A,0,1,z,1.48738469999989,0,1,1,1,0A,2A,A20,3.76120011569356,0.818758913184027,0.5,0.5,0.5,0.5,0.870773313444101,0.5,0.5,0.5,0.5,0.707813952463389,0.422199563442857,0.5,0.422199563442857,0.356504942742678,0.698967537617641,0.818758913184027,0.181241086815973,0.818758913184027,0.5,1.02474316919686,0.970788396862313,0.181241086815973,0.0282012713527475,0.5,0.155600873114286,0.971200612285011,2.19335445747639,2.50747520772148,0.5,47.8158264894787
CBC_1017,CBC_1017_MSI_AV_v3_Vset3_Aset3_2023-06-25_10h04.01.692.csv,2,29,3,1,b,1,0,1,aud,D,27,1,3D,1D,1,0,b,1.88049490000003,1,0,1,1,3D,1D,D31,3.09104245335832,0.846960184536774,0.5,0.5,0.5,0.5,0.870773313444101,0.5,0.5,0.5,0.5,0.707813952463389,0.422199563442857,0.5,0.422199563442857,0.356504942742678,0.698967537617641,0.760630012653971,0.239369987346029,0.698967537617641,0.422199563442857,0.560942754345956,0.94632524769859,0.301032462382359,0.0468409139824384,0.5,0.155600873114286,0.971200612285011,2.19335445747639,2.50747520772148,0.5,47.8158264894787
CBC_1017,CBC_1017_MSI_AV_v3_Vset3_Aset3_2023-06-25_10h04.01.692.csv,2,30,0,1,b,1,0,2,aud,A,63,1,0A,1A,1,0,b,1.48818579999988,1,0,1,1,0A,1A,A01,3.11351530921037,0.846960184536774,0.5,0.5,0.5,0.5,0.870773313444101,0.5,0.5,0.5,0.5,0.707813952463389,0.422199563442857,0.5,0.422199563442857,0.356504942742678,0.745808451600079,0.846960184536774,0.153039815463226,0.846960184536774,0.5,1.09011312358028,0.978502247531171,0.153039815463226,0.0238131289073271,0.5,0.155600873114286,0.971200612285011,2.19335445747639,2.50747520772148,0.5,47.8158264894787
CBC_1017,CBC_1017_MSI_AV_v3_Vset3_Aset3_2023-06-25_10h04.01.692.csv,2,31,0,2,z,0,1,0,aud,C,27,1,0C,2C,0,1,z,1.39803170000005,0,1,1,1,2C,0C,C02,3.8286413964891,0.870773313444101,0.5,0.5,0.5,0.5,0.870773313444101,0.5,0.5,0.5,0.5,0.707813952463389,0.422199563442857,0.5,0.422199563442857,0.356504942742678,0.745808451600079,0.707813952463389,0.292186047536611,0.707813952463389,0.5,0.746518075245837,0.907496081342963,0.292186047536611,0.0454644041085089,0.5,0.155600873114286,0.971200612285011,2.19335445747639,2.50747520772148,0.5,47.8158264894787
CBC_1017,CBC_1017_MSI_AV_v3_Vset3_Aset3_2023-06-25_10h04.01.692.csv,2,32,3,2,b,1,0,1,aud,D,63,1,3D,2D,1,0,b,1.57846610000001,1,0,1,1,3D,2D,D32,3.15700042115011,0.870773313444101,0.5,0.5,0.5,0.5,0.870773313444101,0.5,0.5,0.5,0.5,0.753278356571897,0.422199563442857,0.5,0.422199563442857,0.356504942742678,0.745808451600079,0.841168343201931,0.158831656798069,0.745808451600079,0.356504942742678,0.958263421337804,0.977088567164244,0.254191548399921,0.0395524268692999,0.5,0.155600873114286,0.971200612285011,2.19335445747639,2.50747520772148,0.5,47.8158264894787
CBC_1017,CBC_1017_MSI_AV_v3_Vset3_Aset3_2023-06-25_10h04.01.692.csv,2,33,0,1,z,0,1,3,aud,B,63,1,0B,1B,0,1,z,2.34444860000008,0,1,1,1,1B,0B,B01,2.77258872223978,0.870773313444101,0.5,0.5,0.5,0.5,0.870773313444101,0.5,0.5,0.5,0.5,0.753278356571897,0.422199563442857,0.5,0.422199563442857,0.356504942742678,0.785360878469379,0.870773313444101,0.129226686555899,0.870773313444101,0.5,0.212537344653844,0.983313836641792,0.129226686555899,0.0201077852577639,0.5,0.155600873114286,0.971200612285011,2.19335445747639,2.50747520772148,0.5,47.8158264894787
CBC_1017,CBC_1017_MSI_AV_v3_Vset3_Aset3_2023-06-25_10h04.01.692.csv,2,34,1,0,z,0,1,2,aud,A,63,1,1A,0A,0,1,z,1.2163101000001,0,1,1,1,0A,1A,A10,2.50552593699074,0.870773313444101,0.5,0.5,0.5,0.5,0.890881098701865,0.5,0.5,0.5,0.5,0.753278356571897,0.422199563442857,0.5,0.422199563442857,0.356504942742678,0.785360878469379,0.870773313444101,0.129226686555899,0.870773313444101,0.5,0.928023893032256,0.983371178642453,0.129226686555899,0.0201077852577639,0.5,0.155600873114286,0.971200612285011,2.19335445747639,2.50747520772148,0.5,47.8158264894787
CBC_1017,CBC_1017_MSI_AV_v3_Vset3_Aset3_2023-06-25_10h04.01.692.csv,2,35,3,2,b,1,0,1,aud,D,63,0,3D,2D,0,1,b,1.89807849999988,1,0,1,0,3D,2D,D32,2.81341071676004,0.890881098701865,0.5,0.5,0.5,0.5,0.890881098701865,0.5,0.5,0.5,0.5,0.753278356571897,0.422199563442857,0.5,0.422199563442857,0.356504942742678,0.785360878469379,0.868498940617565,0.131501059382435,0.785360878469379,0.356504942742678,0.540961233286291,0.982902935560566,-0.785360878469379,-0.122202838399638,0.5,0.155600873114286,0.971200612285011,2.19335445747639,2.50747520772148,0.5,47.8158264894787
CBC_1017,CBC_1017_MSI_AV_v3_Vset3_Aset3_2023-06-25_10h04.01.692.csv,2,36,0,2,z,0,1,0,aud,C,27,1,0C,2C,0,1,z,3.10621979999996,0,1,1,1,2C,0C,C02,3.23867845216438,0.890881098701865,0.5,0.5,0.5,0.5,0.890881098701865,0.5,0.5,0.5,0.5,0.753278356571897,0.422199563442857,0.5,0.422199563442857,0.356504942742678,0.663158040069741,0.753278356571897,0.246721643428103,0.753278356571897,0.5,0.100892546425349,0.941832334380718,0.246721643428103,0.0383901031336042,0.5,0.155600873114286,0.971200612285011,2.19335445747639,2.50747520772148,0.5,47.8158264894787
CBC_1017,CBC_1017_MSI_AV_v3_Vset3_Aset3_2023-06-25_10h04.01.692.csv,2,37,1,0,z,0,1,2,aud,A,63,1,1A,0A,0,1,z,1.60727419999989,0,1,1,1,0A,1A,A10,2.34180580614733,0.890881098701865,0.5,0.5,0.5,0.5,0.890881098701865,0.5,0.5,0.5,0.5,0.791668459705502,0.422199563442857,0.5,0.422199563442857,0.356504942742678,0.663158040069741,0.890881098701865,0.109118901298135,0.890881098701865,0.5,0.965495857428745,0.986625324951561,0.109118901298135,0.0169789963152613,0.5,0.155600873114286,0.971200612285011,2.19335445747639,2.50747520772148,0.5,47.8158264894787
CBC_1017,CBC_1017_MSI_AV_v3_Vset3_Aset3_2023-06-25_10h04.01.692.csv,2,38,3,1,z,0,1,3,aud,B,27,1,3B,1B,0,1,z,2.78383239999994,0,1,1,1,1B,3B,B31,3.27714473299218,0.907860095017127,0.5,0.5,0.5,0.5,0.890881098701865,0.5,0.5,0.5,0.5,0.791668459705502,0.422199563442857,0.5,0.422199563442857,0.356504942742678,0.663158040069741,0.890881098701865,0.109118901298135,0.890881098701865,0.5,0.072007312101298,0.986598288634611,0.109118901298135,0.0169789963152613,0.5,0.155600873114286,0.971200612285011,2.19335445747639,2.50747520772148,0.5,47.8158264894787
CBC_1017,CBC_1017_MSI_AV_v3_Vset3_Aset3_2023-06-25_10h04.01.692.csv,2,39,2,3,b,1,0,0,aud,C,63,1,2C,3C,1,0,b,1.51829279999993,1,0,1,1,2C,3C,C23,2.60268968544438,0.907860095017127,0.5,0.5,0.5,0.5,0.907860095017127,0.5,0.5,0.5,0.5,0.791668459705502,0.422199563442857,0.5,0.422199563442857,0.356504942742678,0.663158040069741,0.838723712439195,0.161276287560805,0.791668459705502,0.422199563442857,1.03508139224354,0.976500910963616,0.208331540294498,0.0324165695670679,0.5,0.155600873114286,0.971200612285011,2.19335445747639,2.50747520772148,0.5,47.8158264894787
CBC_1017,CBC_1017_MSI_AV_v3_Vset3_Aset3_2023-06-25_10h04.01.692.csv,2,40,2,3,z,0,1,1,aud,D,63,1,2D,3D,0,1,z,2.15980839999997,0,1,1,1,3D,2D,D23,2.62103882411258,0.907860095017127,0.5,0.5,0.5,0.5,0.907860095017127,0.5,0.5,0.5,0.5,0.82408502927257,0.422199563442857,0.5,0.422199563442857,0.356504942742678,0.663158040069741,0.780394313126191,0.219605686873809,0.663158040069741,0.356504942742678,0.373267202017449,0.95623103370682,0.336841959930259,0.0524129030666755,0.5,0.155600873114286,0.971200612285011,2.19335445747639,2.50747520772148,0.5,47.8158264894787
CBC_1017,CBC_1017_MSI_AV_v3_Vset3_Aset3_2023-06-25_10h04.01.692.csv,2,41,1,0,b,1,0,3,aud,B,63,1,1B,0B,1,0,b,2.20147079999992,1,0,1,1,1B,0B,B10,2.63905732961526,0.907860095017127,0.5,0.5,0.5,0.5,0.907860095017127,0.5,0.5,0.5,0.5,0.82408502927257,0.422199563442857,0.5,0.422199563442857,0.356504942742678,0.715570943136417,0.907860095017127,0.0921399049828734,0.907860095017127,0.5,0.249997154548484,0.988850937309746,0.0921399049828734,0.0143370496640024,0.5,0.155600873114286,0.971200612285011,2.19335445747639,2.50747520772148,0.5,47.8158264894787
CBC_1017,CBC_1017_MSI_AV_v3_Vset3_Aset3_2023-06-25_10h04.01.692.csv,2,42,0,2,b,1,0,2,aud,A,27,1,0A,2A,1,0,b,1.1333482,1,0,1,1,0A,2A,A02,3.3499040872746,0.907860095017127,0.5,0.5,0.5,0.5,0.922197144681129,0.5,0.5,0.5,0.5,0.82408502927257,0.422199563442857,0.5,0.422199563442857,0.356504942742678,0.715570943136417,0.907860095017127,0.0921399049828734,0.907860095017127,0.5,0.437490874536204,0.988880740272605,0.0921399049828734,0.0143370496640024,0.5,0.155600873114286,0.971200612285011,2.19335445747639,2.50747520772148,0.5,47.8158264894787
CBC_1017,CBC_1017_MSI_AV_v3_Vset3_Aset3_2023-06-25_10h04.01.692.csv,2,43,0,3,z,0,1,1,aud,D,9,1,0D,3D,0,1,z,1.44305239999994,0,1,1,1,3D,0D,D03,4.06044301054642,0.922197144681129,0.5,0.5,0.5,0.5,0.922197144681129,0.5,0.5,0.5,0.5,0.82408502927257,0.422199563442857,0.5,0.422199563442857,0.356504942742678,0.715570943136417,0.715570943136417,0.284429056863583,0.715570943136417,0.5,0.774036540374399,0.914858564802273,0.284429056863583,0.0442574095870464,0.5,0.155600873114286,0.971200612285011,2.19335445747639,2.50747520772148,0.5,47.8158264894787
CBC_1017,CBC_1017_MSI_AV_v3_Vset3_Aset3_2023-06-25_10h04.01.692.csv,2,44,2,3,b,1,0,0,aud,C,63,1,2C,3C,1,0,b,1.30950419999999,1,0,1,1,2C,3C,C23,2.46809953147162,0.922197144681129,0.5,0.5,0.5,0.5,0.922197144681129,0.5,0.5,0.5,0.5,0.82408502927257,0.422199563442857,0.5,0.422199563442857,0.356504942742678,0.759828352723463,0.865066392855194,0.134933607144806,0.82408502927257,0.422199563442857,1.20219742584442,0.982312056226546,0.17591497072743,0.0273725230390622,0.5,0.155600873114286,0.971200612285011,2.19335445747639,2.50747520772148,0.5,47.8158264894787
CBC_1017,CBC_1017_MSI_AV_v3_Vset1_Aset2_2023-06-25_11h31.46.540.csv,3,1,0,1,z,0,1,3,aud,B,63,1,0B,1B,0,1,z,2.29527059999964,0,1,1,1,1B,0B,B01,2.77258872223978,0.5,0.5,0.5,0.5,0.5,0.5,0.5,0.5,0.5,0.5,0.5,0.5,0.5,0.5,0.5,0.5,0.5,0.5,0.5,0.5,0.142836907485134,0.499922610902513,0.5,0.0608549879471249,0.5,0.12170997589425,0.659012128334312,2.02150070622015,2.89079402966656,0.5,67.0687810359583
CBC_1017,CBC_1017_MSI_AV_v3_Vset1_Aset2_2023-06-25_11h31.46.540.csv,3,2,1,0,z,0,1,2,aud,A,63,1,1A,0A,0,1,z,1.90512609999951,0,1,1,1,0A,1A,A10,2.83321334405622,0.5,0.5,0.5,0.5,0.5,0.560854987947125,0.5,0.5,0.5,0.5,0.5,0.5,0.5,0.5,0.5,0.5,0.5,0.5,0.5,0.5,0.178550007650335,0.499832255695831,0.5,0.0608549879471249,0.5,0.12170997589425,0.659012128334312,2.02150070622015,2.89079402966656,0.5,67.0687810359583
CBC_1017,CBC_1017_MSI_AV_v3_Vset1_Aset2_2023-06-25_11h31.46.540.csv,3,3,2,1,b,1,0,0,aud,C,9,1,2C,1C,1,0,b,1.87123539999993,1,0,1,1,2C,1C,C21,2.89037175789616,0.560854987947125,0.5,0.5,0.5,0.5,0.560854987947125,0.5,0.5,0.5,0.5,0.5,0.5,0.5,0.5,0.5,0.5,0.5,0.5,0.5,0.5,0.182067303156824,0.500309061210422,0.5,0.0608549879471249,0.5,0.12170997589425,0.659012128334312,2.02150070622015,2.89079402966656,0.5,67.0687810359583
CBC_1017,CBC_1017_MSI_AV_v3_Vset1_Aset2_2023-06-25_11h31.46.540.csv,3,4,0,1,b,1,0,2,aud,A,63,1,0A,1A,1,0,z,2.99798769999961,0,1,0,0,1A,0A,A01,2.94443897916644,0.560854987947125,0.5,0.5,0.5,0.5,0.560854987947125,0.5,0.5,0.5,0.5,0.560854987947125,0.5,0.5,0.5,0.5,0.5,0.439145012052875,0.560854987947125,0.5,0.560854987947125,0.0615470515556635,0.328711010382196,-0.5,-0.0608549879471249,0.5,0.12170997589425,0.659012128334312,2.02150070622015,2.89079402966656,0.5,67.0687810359583
CBC_1017,CBC_1017_MSI_AV_v3_Vset1_Aset2_2023-06-25_11h31.46.540.csv,3,5,1,3,z,0,1,1,aud,D,27,1,1D,3D,0,1,z,1.58982079999987,0,1,1,1,3D,1D,D13,2.99573227355399,0.560854987947125,0.439145012052875,0.5,0.5,0.5,0.560854987947125,0.5,0.5,0.5,0.5,0.560854987947125,0.5,0.5,0.5,0.5,0.5,0.5,0.5,0.5,0.5,0.208452325462089,0.498786195958721,0.5,0.0608549879471249,0.5,0.12170997589425,0.659012128334312,2.02150070622015,2.89079402966656,0.5,67.0687810359583
CBC_1017,CBC_1017_MSI_AV_v3_Vset1_Aset2_2023-06-25_11h31.46.540.csv,3,6,1,0,b,1,0,3,aud,B,63,1,1B,0B,1,0,z,2.86783379999997,0,1,0,0,0B,1B,B10,3.04452243772342,0.560854987947125,0.439145012052875,0.5,0.5,0.5,0.560854987947125,0.5,0.5,0.5,0.5,0.560854987947125,0.5,0.5,0.5,0.5,0.560854987947125,0.439145012052875,0.560854987947125,0.5,0.560854987947125,0.0667738986060304,0.328942407285378,-0.5,-0.0608549879471249,0.5,0.12170997589425,0.659012128334312,2.02150070622015,2.89079402966656,0.5,67.0687810359583
CBC_1017,CBC_1017_MSI_AV_v3_Vset1_Aset2_2023-06-25_11h31.46.540.csv,3,7,3,2,z,0,1,0,aud,C,63,1,3C,2C,0,1,b,2.21261379999942,1,0,0,0,3C,2C,C32,3.09104245335832,0.560854987947125,0.439145012052875,0.5,0.5,0.439145012052875,0.560854987947125,0.5,0.5,0.5,0.5,0.560854987947125,0.5,0.5,0.5,0.5,0.560854987947125,0.439145012052875,0.560854987947125,0.5,0.560854987947125,0.10019101519378,0.32921424739631,-0.5,-0.0608549879471249,0.5,0.12170997589425,0.659012128334312,2.02150070622015,2.89079402966656,0.5,67.0687810359583
CBC_1017,CBC_1017_MSI_AV_v3_Vset1_Aset2_2023-06-25_11h31.46.540.csv,3,8,0,2,b,1,0,2,aud,A,27,1,0A,2A,1,0,b,1.44838440000058,1,0,1,1,0A,2A,A02,3.13549421592915,0.560854987947125,0.439145012052875,0.5,0.5,0.439145012052875,0.560854987947125,0.5,0.5,0.5,0.5,0.560854987947125,0.439145012052875,0.5,0.5,0.5,0.560854987947125,0.560854987947125,0.439145012052875,0.560854987947125,0.5,0.304721921162092,0.670207183307146,0.439145012052875,0.0534483288310355,0.5,0.12170997589425,0.659012128334312,2.02150070622015,2.89079402966656,0.5,67.0687810359583
CBC_1017,CBC_1017_MSI_AV_v3_Vset1_Aset2_2023-06-25_11h31.46.540.csv,3,9,2,3,z,0,1,1,aud,D,63,1,2D,3D,0,1,z,1.70972160000019,0,1,1,1,3D,2D,D23,3.17805383034795,0.61430331677816,0.439145012052875,0.5,0.5,0.439145012052875,0.560854987947125,0.5,0.5,0.5,0.5,0.560854987947125,0.439145012052875,0.5,0.5,0.5,0.560854987947125,0.560854987947125,0.439145012052875,0.560854987947125,0.5,0.273543885131716,0.670604481284056,0.439145012052875,0.0534483288310355,0.5,0.12170997589425,0.659012128334312,2.02150070622015,2.89079402966656,0.5,67.0687810359583
CBC_1017,CBC_1017_MSI_AV_v3_Vset1_Aset2_2023-06-25_11h31.46.540.csv,3,10,1,3,b,1,0,3,aud,B,27,1,1B,3B,1,0,b,2.40210959999968,1,0,1,1,1B,3B,B13,3.2188758248682,0.61430331677816,0.439145012052875,0.5,0.5,0.439145012052875,0.560854987947125,0.5,0.5,0.5,0.5,0.560854987947125,0.439145012052875,0.5,0.5,0.5,0.61430331677816,0.560854987947125,0.439145012052875,0.560854987947125,0.5,0.181624143035131,0.670541280510806,0.439145012052875,0.0534483288310355,0.5,0.12170997589425,0.659012128334312,2.02150070622015,2.89079402966656,0.5,67.0687810359583
CBC_1017,CBC_1017_MSI_AV_v3_Vset1_Aset2_2023-06-25_11h31.46.540.csv,3,11,2,3,b,1,0,0,aud,C,63,0,2C,3C,0,1,b,3.08844139999928,1,0,1,0,2C,3C,C23,3.25809653802148,0.61430331677816,0.439145012052875,0.5,0.5,0.439145012052875,0.61430331677816,0.5,0.5,0.5,0.5,0.560854987947125,0.439145012052875,0.5,0.5,0.5,0.61430331677816,0.619933364794887,0.380066635205113,0.560854987947125,0.439145012052875,0.135666654087713,0.802768251625767,-0.560854987947125,-0.0682616470632143,0.5,0.12170997589425,0.659012128334312,2.02150070622015,2.89079402966656,0.5,67.0687810359583
CBC_1017,CBC_1017_MSI_AV_v3_Vset1_Aset2_2023-06-25_11h31.46.540.csv,3,12,3,1,z,0,1,3,aud,B,27,1,3B,1B,0,1,b,3.34724949999963,1,0,0,0,3B,1B,B31,3.29583686600433,0.61430331677816,0.439145012052875,0.5,0.5,0.439145012052875,0.61430331677816,0.5,0.5,0.5,0.5,0.492593340883911,0.439145012052875,0.5,0.5,0.5,0.61430331677816,0.38569668322184,0.61430331677816,0.5,0.61430331677816,0.0295838438798761,0.208233279112141,-0.5,-0.0608549879471249,0.5,0.12170997589425,0.659012128334312,2.02150070622015,2.89079402966656,0.5,67.0687810359583
CBC_1017,CBC_1017_MSI_AV_v3_Vset1_Aset2_2023-06-25_11h31.46.540.csv,3,13,2,3,b,1,0,0,aud,C,63,1,2C,3C,1,0,b,3.46771290000015,1,0,1,1,2C,3C,C23,2.63905732961526,0.61430331677816,0.439145012052875,0.5,0.5,0.439145012052875,0.61430331677816,0.5,0.439145012052875,0.5,0.5,0.492593340883911,0.439145012052875,0.5,0.5,0.5,0.61430331677816,0.553544866402321,0.446455133597679,0.492593340883911,0.439145012052875,0.0915931224013289,0.651104936502095,0.507406659116089,0.0617564522496011,0.5,0.12170997589425,0.659012128334312,2.02150070622015,2.89079402966656,0.5,67.0687810359583
CBC_1017,CBC_1017_MSI_AV_v3_Vset1_Aset2_2023-06-25_11h31.46.540.csv,3,14,2,3,z,0,1,1,aud,D,63,1,2D,3D,0,1,z,1.24657630000002,0,1,1,1,3D,2D,D23,2.67414864942653,0.61430331677816,0.439145012052875,0.5,0.5,0.439145012052875,0.61430331677816,0.5,0.439145012052875,0.5,0.5,0.554349793133512,0.439145012052875,0.5,0.5,0.5,0.61430331677816,0.61430331677816,0.38569668322184,0.61430331677816,0.5,0.397257514051439,0.792765868735065,0.38569668322184,0.0469431340174222,0.5,0.12170997589425,0.659012128334312,2.02150070622015,2.89079402966656,0.5,67.0687810359583
CBC_1017,CBC_1017_MSI_AV_v3_Vset1_Aset2_2023-06-25_11h31.46.540.csv,3,15,3,0,z,0,1,2,aud,A,9,1,3A,0A,0,1,z,2.0908088999995,0,1,1,1,0A,3A,A30,3.40119738166216,0.61430331677816,0.439145012052875,0.5,0.5,0.439145012052875,0.61430331677816,0.5,0.439145012052875,0.5,0.5,0.554349793133512,0.439145012052875,0.5,0.5,0.5,0.661246450795583,0.61430331677816,0.38569668322184,0.61430331677816,0.5,0.269287215164811,0.791977071539435,0.38569668322184,0.0469431340174222,0.5,0.12170997589425,0.659012128334312,2.02150070622015,2.89079402966656,0.5,67.0687810359583
CBC_1017,CBC_1017_MSI_AV_v3_Vset1_Aset2_2023-06-25_11h31.46.540.csv,3,16,1,0,b,1,0,3,aud,B,63,0,1B,0B,0,1,b,2.51327320000019,1,0,1,0,1B,0B,B10,2.7408400239252,0.661246450795583,0.439145012052875,0.5,0.5,0.439145012052875,0.61430331677816,0.5,0.439145012052875,0.5,0.5,0.554349793133512,0.439145012052875,0.5,0.5,0.5,0.661246450795583,0.670416680784761,0.329583319215239,0.61430331677816,0.439145012052875,0.219143531915514,0.879938324637517,-0.61430331677816,-0.0747668418768276,0.5,0.12170997589425,0.659012128334312,2.02150070622015,2.89079402966656,0.5,67.0687810359583
CBC_1017,CBC_1017_MSI_AV_v3_Vset1_Aset2_2023-06-25_11h31.46.540.csv,3,17,3,2,b,1,0,1,aud,D,63,1,3D,2D,1,0,b,1.90472150000005,1,0,1,1,3D,2D,D32,3.46573590279973,0.661246450795583,0.439145012052875,0.5,0.5,0.439145012052875,0.539536474901333,0.5,0.439145012052875,0.5,0.5,0.554349793133512,0.439145012052875,0.5,0.5,0.5,0.661246450795583,0.661246450795583,0.338753549204417,0.661246450795583,0.5,0.352029982557324,0.868510477105637,0.338753549204417,0.0412296863077612,0.5,0.12170997589425,0.659012128334312,2.02150070622015,2.89079402966656,0.5,67.0687810359583
CBC_1017,CBC_1017_MSI_AV_v3_Vset1_Aset2_2023-06-25_11h31.46.540.csv,3,18,2,0,b,1,0,0,aud,C,27,1,2C,0C,1,0,b,3.60515069999929,1,0,1,1,2C,0C,C20,3.49650756146648,0.661246450795583,0.439145012052875,0.5,0.5,0.439145012052875,0.539536474901333,0.5,0.439145012052875,0.5,0.5,0.554349793133512,0.439145012052875,0.5,0.5,0.5,0.702476137103344,0.554349793133512,0.445650206866488,0.554349793133512,0.5,0.08443158765122,0.653505005357916,0.445650206866488,0.0542400759349877,0.5,0.12170997589425,0.659012128334312,2.02150070622015,2.89079402966656,0.5,67.0687810359583
CBC_1017,CBC_1017_MSI_AV_v3_Vset1_Aset2_2023-06-25_11h31.46.540.csv,3,19,1,0,z,0,1,2,aud,A,63,1,1A,0A,0,1,z,1.62880979999954,0,1,1,1,0A,1A,A10,2.83321334405622,0.661246450795583,0.439145012052875,0.5,0.5,0.439145012052875,0.539536474901333,0.5,0.439145012052875,0.5,0.5,0.608589869068499,0.439145012052875,0.5,0.5,0.5,0.702476137103344,0.713713071748047,0.286286928251953,0.661246450795583,0.439145012052875,0.498823855077466,0.923930992955039,0.338753549204417,0.0412296863077612,0.5,0.12170997589425,0.659012128334312,2.02150070622015,2.89079402966656,0.5,67.0687810359583
CBC_1017,CBC_1017_MSI_AV_v3_Vset1_Aset2_2023-06-25_11h31.46.540.csv,3,20,0,1,z,0,1,3,aud,B,63,1,0B,1B,0,1,z,2.32356429999982,0,1,1,1,1B,0B,B01,2.86220088092947,0.702476137103344,0.439145012052875,0.5,0.5,0.439145012052875,0.539536474901333,0.5,0.439145012052875,0.5,0.5,0.608589869068499,0.439145012052875,0.5,0.5,0.5,0.702476137103344,0.599434508439037,0.400565491560963,0.539536474901333,0.439145012052875,0.219794881339448,0.7622744243263,0.460463525098667,0.0560430045399401,0.5,0.12170997589425,0.659012128334312,2.02150070622015,2.89079402966656,0.5,67.0687810359583
CBC_1017,CBC_1017_MSI_AV_v3_Vset1_Aset2_2023-06-25_11h31.46.540.csv,3,21,3,1,b,1,0,1,aud,D,27,1,3D,1D,1,0,b,1.08175989999927,1,0,1,1,3D,1D,D31,3.58351893845611,0.702476137103344,0.439145012052875,0.5,0.5,0.439145012052875,0.595579479441273,0.5,0.439145012052875,0.5,0.5,0.608589869068499,0.439145012052875,0.5,0.5,0.5,0.702476137103344,0.702476137103344,0.297523862896656,0.702476137103344,0.5,0.501815989210632,0.914012329847459,0.297523862896656,0.0362116221811161,0.5,0.12170997589425,0.659012128334312,2.02150070622015,2.89079402966656,0.5,67.0687810359583
CBC_1017,CBC_1017_MSI_AV_v3_Vset1_Aset2_2023-06-25_11h31.46.540.csv,3,22,2,3,b,1,0,0,aud,C,63,1,2C,3C,1,0,b,2.18514450000021,1,0,1,1,2C,3C,C23,2.51230562397611,0.702476137103344,0.439145012052875,0.5,0.5,0.439145012052875,0.595579479441273,0.5,0.439145012052875,0.5,0.5,0.608589869068499,0.439145012052875,0.5,0.5,0.5,0.73868775928446,0.665081273503519,0.334918726496481,0.608589869068499,0.439145012052875,0.28464913960515,0.873547249738413,0.391410130931501,0.0476385176004381,0.5,0.12170997589425,0.659012128334312,2.02150070622015,2.89079402966656,0.5,67.0687810359583
CBC_1017,CBC_1017_MSI_AV_v3_Vset1_Aset2_2023-06-25_11h31.46.540.csv,3,23,1,0,z,0,1,2,aud,A,63,1,1A,0A,0,1,z,1.55879149999964,0,1,1,1,0A,1A,A10,2.53897387105828,0.702476137103344,0.439145012052875,0.5,0.5,0.439145012052875,0.595579479441273,0.5,0.439145012052875,0.5,0.5,0.656228386668937,0.439145012052875,0.5,0.5,0.5,0.73868775928446,0.750962027000942,0.249037972999058,0.702476137103344,0.439145012052875,0.577613853125569,0.949748621903243,0.297523862896656,0.0362116221811161,0.5,0.12170997589425,0.659012128334312,2.02150070622015,2.89079402966656,0.5,67.0687810359583
CBC_1017,CBC_1017_MSI_AV_v3_Vset1_Aset2_2023-06-25_11h31.46.540.csv,3,24,3,2,b,1,0,1,aud,D,63,1,3D,2D,1,0,b,0.877481399999851,1,0,1,1,3D,2D,D32,2.9704144655697,0.73868775928446,0.439145012052875,0.5,0.5,0.439145012052875,0.595579479441273,0.5,0.439145012052875,0.5,0.5,0.656228386668937,0.439145012052875,0.5,0.5,0.5,0.73868775928446,0.73868775928446,0.26131224071554,0.73868775928446,0.5,0.172613382180473,0.942174683622665,0.26131224071554,0.0318043065183608,0.5,0.12170997589425,0.659012128334312,2.02150070622015,2.89079402966656,0.5,67.0687810359583
CBC_1017,CBC_1017_MSI_AV_v3_Vset1_Aset2_2023-06-25_11h31.46.540.csv,3,25,0,2,z,0,1,0,aud,C,27,1,0C,2C,0,1,z,1.71017920000031,0,1,1,1,2C,0C,C02,3.68887945411394,0.73868775928446,0.439145012052875,0.5,0.5,0.439145012052875,0.595579479441273,0.5,0.439145012052875,0.5,0.5,0.656228386668937,0.439145012052875,0.5,0.5,0.5,0.770492065802821,0.656228386668937,0.343771613331063,0.656228386668937,0.5,0.399817680001135,0.861356424385016,0.343771613331063,0.041840434771651,0.5,0.12170997589425,0.659012128334312,2.02150070622015,2.89079402966656,0.5,67.0687810359583
CBC_1017,CBC_1017_MSI_AV_v3_Vset1_Aset2_2023-06-25_11h31.46.540.csv,3,26,1,0,z,0,1,2,aud,A,63,1,1A,0A,0,1,z,1.88853609999933,0,1,1,1,0A,1A,A10,2.32727770558442,0.73868775928446,0.439145012052875,0.5,0.5,0.439145012052875,0.595579479441273,0.5,0.439145012052875,0.5,0.5,0.698068821440588,0.439145012052875,0.5,0.5,0.5,0.770492065802821,0.783094567067407,0.216905432932593,0.73868775928446,0.439145012052875,0.421289366734418,0.964749307987202,0.26131224071554,0.0318043065183608,0.5,0.12170997589425,0.659012128334312,2.02150070622015,2.89079402966656,0.5,67.0687810359583
CBC_1017,CBC_1017_MSI_AV_v3_Vset1_Aset2_2023-06-25_11h31.46.540.csv,3,27,3,1,z,0,1,3,aud,B,27,1,3B,1B,0,1,z,1.04556869999942,0,1,1,1,1B,3B,B31,3.04452243772342,0.770492065802821,0.439145012052875,0.5,0.5,0.439145012052875,0.595579479441273,0.5,0.439145012052875,0.5,0.5,0.698068821440588,0.439145012052875,0.5,0.5,0.5,0.770492065802821,0.652877623886741,0.347122376113259,0.595579479441273,0.439145012052875,0.364941792053231,0.856401562214342,0.404420520558727,0.0492220118083426,0.5,0.12170997589425,0.659012128334312,2.02150070622015,2.89079402966656,0.5,67.0687810359583
CBC_1017,CBC_1017_MSI_AV_v3_Vset1_Aset2_2023-06-25_11h31.46.540.csv,3,28,2,3,b,1,0,0,aud,C,63,1,2C,3C,1,0,b,1.41042399999969,1,0,1,1,2C,3C,C23,2.37490575457367,0.770492065802821,0.439145012052875,0.5,0.5,0.439145012052875,0.644801491249615,0.5,0.439145012052875,0.5,0.5,0.698068821440588,0.439145012052875,0.5,0.5,0.5,0.770492065802821,0.747014286545046,0.252985713454954,0.698068821440588,0.439145012052875,0.642234423914776,0.947299861982326,0.301931178559412,0.0367480364641884,0.5,0.12170997589425,0.659012128334312,2.02150070622015,2.89079402966656,0.5,67.0687810359583
CBC_1017,CBC_1017_MSI_AV_v3_Vset1_Aset2_2023-06-25_11h31.46.540.csv,3,29,2,3,z,0,1,1,aud,D,63,0,2D,3D,1,0,z,1.33084239999971,0,1,1,0,3D,2D,D23,2.68557734525015,0.770492065802821,0.439145012052875,0.5,0.5,0.439145012052875,0.644801491249615,0.5,0.439145012052875,0.5,0.5,0.734816857904777,0.439145012052875,0.5,0.5,0.5,0.770492065802821,0.770492065802821,0.229507934197179,0.770492065802821,0.5,0.71905773299146,0.959357698615963,-0.770492065802821,-0.0937765707555721,0.5,0.12170997589425,0.659012128334312,2.02150070622015,2.89079402966656,0.5,67.0687810359583
CBC_1017,CBC_1017_MSI_AV_v3_Vset1_Aset2_2023-06-25_11h31.46.540.csv,3,30,1,0,b,1,0,3,aud,B,63,1,1B,0B,1,0,z,2.90541050000047,0,1,0,0,0B,1B,B10,2.70805020110221,0.770492065802821,0.439145012052875,0.5,0.5,0.439145012052875,0.644801491249615,0.5,0.439145012052875,0.5,0.5,0.734816857904777,0.439145012052875,0.5,0.5,0.5,0.676715495047249,0.301345605867319,0.698654394132681,0.439145012052875,0.644801491249615,0.0151089613209394,0.089184658075606,-0.439145012052875,-0.0534483288310355,0.5,0.12170997589425,0.659012128334312,2.02150070622015,2.89079402966656,0.5,67.0687810359583
CBC_1017,CBC_1017_MSI_AV_v3_Vset1_Aset2_2023-06-25_11h31.46.540.csv,3,31,0,2,b,1,0,2,aud,A,27,1,0A,2A,1,0,b,1.5496635999998,1,0,1,1,0A,2A,A02,3.13549421592915,0.770492065802821,0.439145012052875,0.5,0.5,0.38569668322184,0.644801491249615,0.5,0.439145012052875,0.5,0.5,0.734816857904777,0.439145012052875,0.5,0.5,0.5,0.676715495047249,0.770492065802821,0.229507934197179,0.770492065802821,0.5,0.605652477142755,0.959448900848626,0.229507934197179,0.0279334051386778,0.5,0.12170997589425,0.659012128334312,2.02150070622015,2.89079402966656,0.5,67.0687810359583
CBC_1017,CBC_1017_MSI_AV_v3_Vset1_Aset2_2023-06-25_11h31.46.540.csv,3,32,0,3,z,0,1,1,aud,D,9,1,0D,3D,0,1,z,1.62244559999908,0,1,1,1,3D,0D,D03,3.85014760171006,0.798425470941499,0.439145012052875,0.5,0.5,0.38569668322184,0.644801491249615,0.5,0.439145012052875,0.5,0.5,0.734816857904777,0.439145012052875,0.5,0.5,0.5,0.676715495047249,0.676715495047249,0.323284504952751,0.676715495047249,0.5,0.452307816823677,0.887202489795364,0.323284504952751,0.0393469493047838,0.5,0.12170997589425,0.659012128334312,2.02150070622015,2.89079402966656,0.5,67.0687810359583
CBC_1017,CBC_1017_MSI_AV_v3_Vset1_Aset2_2023-06-25_11h31.46.540.csv,3,33,2,3,b,1,0,0,aud,C,63,1,2C,3C,1,0,b,2.3274421999995,1,0,1,1,2C,3C,C23,2.26176309847379,0.798425470941499,0.439145012052875,0.5,0.5,0.38569668322184,0.644801491249615,0.5,0.439145012052875,0.5,0.5,0.734816857904777,0.439145012052875,0.5,0.5,0.5,0.716062444352033,0.779685284409892,0.220314715590108,0.734816857904777,0.439145012052875,0.247534816171828,0.963168061247336,0.265183142095223,0.032275433831971,0.5,0.12170997589425,0.659012128334312,2.02150070622015,2.89079402966656,0.5,67.0687810359583
CBC_1017,CBC_1017_MSI_AV_v3_Vset1_Aset2_2023-06-25_11h31.46.540.csv,3,34,1,0,b,1,0,3,aud,B,63,1,1B,0B,1,0,b,1.83050329999969,1,0,1,1,1B,0B,B10,2.50552593699074,0.798425470941499,0.439145012052875,0.5,0.5,0.38569668322184,0.644801491249615,0.5,0.439145012052875,0.5,0.5,0.767092291736748,0.439145012052875,0.5,0.5,0.5,0.716062444352033,0.74301590073317,0.25698409926683,0.644801491249615,0.38569668322184,0.43700781495517,0.944583593734093,0.355198508750385,0.0432312019376828,0.5,0.12170997589425,0.659012128334312,2.02150070622015,2.89079402966656,0.5,67.0687810359583
CBC_1017,CBC_1017_MSI_AV_v3_Vset1_Aset2_2023-06-25_11h31.46.540.csv,3,35,1,0,z,0,1,2,aud,A,63,0,1A,0A,1,0,z,2.24326299999939,0,1,1,0,0A,1A,A10,2.30258509299405,0.798425470941499,0.439145012052875,0.5,0.5,0.38569668322184,0.688032693187298,0.5,0.439145012052875,0.5,0.5,0.767092291736748,0.439145012052875,0.5,0.5,0.5,0.716062444352033,0.834948864410673,0.165051135589327,0.798425470941499,0.439145012052875,0.243855286681426,0.9804705775848,-0.798425470941499,-0.0971763448216448,0.5,0.12170997589425,0.659012128334312,2.02150070622015,2.89079402966656,0.5,67.0687810359583
CBC_1017,CBC_1017_MSI_AV_v3_Vset1_Aset2_2023-06-25_11h31.46.540.csv,3,36,3,2,b,1,0,1,aud,D,63,1,3D,2D,1,0,b,1.07440889999998,1,0,1,1,3D,2D,D32,2.83321334405622,0.701249126119854,0.439145012052875,0.5,0.5,0.38569668322184,0.688032693187298,0.5,0.439145012052875,0.5,0.5,0.767092291736748,0.439145012052875,0.5,0.5,0.5,0.716062444352033,0.716062444352033,0.283937555647967,0.716062444352033,0.5,0.525151687639422,0.925754260789743,0.283937555647967,0.0345580330533863,0.5,0.12170997589425,0.659012128334312,2.02150070622015,2.89079402966656,0.5,67.0687810359583
CBC_1017,CBC_1017_MSI_AV_v3_Vset1_Aset2_2023-06-25_11h31.46.540.csv,3,37,2,1,z,0,1,3,aud,B,9,1,2B,1B,0,1,b,3.45838009999989,1,0,0,0,2B,1B,B21,3.95124371858143,0.701249126119854,0.439145012052875,0.5,0.5,0.38569668322184,0.688032693187298,0.5,0.439145012052875,0.5,0.5,0.767092291736748,0.439145012052875,0.5,0.5,0.5,0.750620477405419,0.311967306812702,0.688032693187298,0.5,0.688032693187298,0.0106882282990375,0.100003213454598,-0.5,-0.0608549879471249,0.5,0.12170997589425,0.659012128334312,2.02150070622015,2.89079402966656,0.5,67.0687810359583
CBC_1017,CBC_1017_MSI_AV_v3_Vset1_Aset2_2023-06-25_11h31.46.540.csv,3,38,0,2,b,1,0,2,aud,A,27,1,0A,2A,1,0,b,1.58339389999946,1,0,1,1,0A,2A,A02,2.87167962488401,0.701249126119854,0.439145012052875,0.5,0.5,0.38569668322184,0.688032693187298,0.439145012052875,0.439145012052875,0.5,0.5,0.767092291736748,0.439145012052875,0.5,0.5,0.5,0.750620477405419,0.701249126119854,0.298750873880146,0.701249126119854,0.5,0.499799429473801,0.912898502145838,0.298750873880146,0.0363609616583387,0.5,0.12170997589425,0.659012128334312,2.02150070622015,2.89079402966656,0.5,67.0687810359583
CBC_1017,CBC_1017_MSI_AV_v3_Vset1_Aset2_2023-06-25_11h31.46.540.csv,3,39,3,2,z,0,1,0,aud,C,63,1,3C,2C,0,1,z,3.78501349999988,0,1,1,1,2C,3C,C32,3.29583686600433,0.737610087778192,0.439145012052875,0.5,0.5,0.38569668322184,0.688032693187298,0.439145012052875,0.439145012052875,0.5,0.5,0.767092291736748,0.439145012052875,0.5,0.5,0.5,0.750620477405419,0.807927209618182,0.192072790381818,0.767092291736748,0.439145012052875,0.0317506139451166,0.973450493268616,0.232907708263252,0.0283471915583054,0.5,0.12170997589425,0.659012128334312,2.02150070622015,2.89079402966656,0.5,67.0687810359583
CBC_1017,CBC_1017_MSI_AV_v3_Vset1_Aset2_2023-06-25_11h31.46.540.csv,3,40,3,1,b,1,0,1,aud,D,27,1,3D,1D,1,0,b,2.17577720000008,1,0,1,1,3D,1D,D31,3.31418600467253,0.737610087778192,0.439145012052875,0.5,0.5,0.38569668322184,0.688032693187298,0.439145012052875,0.439145012052875,0.5,0.5,0.795439483295053,0.439145012052875,0.5,0.5,0.5,0.750620477405419,0.750620477405419,0.249379522594581,0.750620477405419,0.5,0.304082707887374,0.949350495425578,0.249379522594581,0.030351975683506,0.5,0.12170997589425,0.659012128334312,2.02150070622015,2.89079402966656,0.5,67.0687810359583
CBC_1017,CBC_1017_MSI_AV_v3_Vset1_Aset2_2023-06-25_11h31.46.540.csv,3,41,1,0,z,0,1,2,aud,A,63,1,1A,0A,0,1,z,2.61962700000004,0,1,1,1,0A,1A,A10,2.23359222150709,0.737610087778192,0.439145012052875,0.5,0.5,0.38569668322184,0.688032693187298,0.439145012052875,0.439145012052875,0.5,0.5,0.795439483295053,0.439145012052875,0.5,0.5,0.5,0.780972453088925,0.78214602178273,0.21785397821727,0.737610087778192,0.439145012052875,0.171666949640605,0.964216464236682,0.262389912221808,0.0319354698914105,0.5,0.12170997589425,0.659012128334312,2.02150070622015,2.89079402966656,0.5,67.0687810359583
CBC_1017,CBC_1017_MSI_AV_v3_Vset1_Aset2_2023-06-25_11h31.46.540.csv,3,42,2,0,b,1,0,0,aud,C,27,1,2C,0C,1,0,b,1.63029609999921,1,0,1,1,2C,0C,C20,3.3499040872746,0.769545557669603,0.439145012052875,0.5,0.5,0.38569668322184,0.688032693187298,0.439145012052875,0.439145012052875,0.5,0.5,0.795439483295053,0.439145012052875,0.5,0.5,0.5,0.780972453088925,0.795439483295053,0.204560516704947,0.795439483295053,0.5,0.577021083244164,0.969139920003608,0.204560516704947,0.0248970555570743,0.5,0.12170997589425,0.659012128334312,2.02150070622015,2.89079402966656,0.5,67.0687810359583
CBC_1017,CBC_1017_MSI_AV_v3_Vset1_Aset2_2023-06-25_11h31.46.540.csv,3,43,2,3,z,0,1,1,aud,D,63,1,2D,3D,0,1,z,1.46930310000062,0,1,1,1,3D,2D,D23,2.67414864942653,0.769545557669603,0.439145012052875,0.5,0.5,0.38569668322184,0.688032693187298,0.439145012052875,0.439145012052875,0.5,0.5,0.820336538852128,0.439145012052875,0.5,0.5,0.5,0.780972453088925,0.780972453088925,0.219027546911075,0.780972453088925,0.5,0.666738803864071,0.963829982562328,0.219027546911075,0.0266578374547236,0.5,0.12170997589425,0.659012128334312,2.02150070622015,2.89079402966656,0.5,67.0687810359583
CBC_1017,CBC_1017_MSI_AV_v3_Vset1_Aset2_2023-06-25_11h31.46.540.csv,3,44,0,1,z,0,1,3,aud,B,63,1,0B,1B,0,1,z,1.66690769999968,0,1,1,1,1B,0B,B01,2.97892515523761,0.769545557669603,0.439145012052875,0.5,0.5,0.38569668322184,0.688032693187298,0.439145012052875,0.439145012052875,0.5,0.5,0.820336538852128,0.439145012052875,0.5,0.5,0.5,0.807630290543649,0.778401539524751,0.221598460475249,0.688032693187298,0.38569668322184,0.54285644828071,0.962861216772033,0.311967306812702,0.037969533391968,0.5,0.12170997589425,0.659012128334312,2.02150070622015,2.89079402966656,0.5,67.0687810359583
CBC_1017,CBC_1017_MSI_TV_v3_Vset6_Tset2_2023-06-25_11h49.37.760.csv,4,1,1,0,z,0,1,2,tac,A,63,1,1A,0A,0,1,z,2.61624110000048,0,1,1,1,0A,1A,A10,2.77258872223978,0.5,0.5,0.5,0.5,0.5,0.5,0.5,0.5,0.5,0.5,0.5,0.5,0.5,0.5,0.5,0.5,0.5,0.5,0.5,0.5,0.151342618425421,0.499397441484589,0.5,0.0137292133483332,0.5,0.0274584266966663,1.09963323747778,7.29726568070543,2.99262827404374,0.5,80.702437720439
CBC_1017,CBC_1017_MSI_TV_v3_Vset6_Tset2_2023-06-25_11h49.37.760.csv,4,2,3,2,b,1,0,1,tac,D,63,1,3D,2D,1,0,b,2.94372759999987,1,0,1,1,3D,2D,D32,2.83321334405622,0.513729213348333,0.5,0.5,0.5,0.5,0.5,0.5,0.5,0.5,0.5,0.5,0.5,0.5,0.5,0.5,0.5,0.5,0.5,0.5,0.5,0.126649217469529,0.499125896107846,0.5,0.0137292133483332,0.5,0.0274584266966663,1.09963323747778,7.29726568070543,2.99262827404374,0.5,80.702437720439
CBC_1017,CBC_1017_MSI_TV_v3_Vset6_Tset2_2023-06-25_11h49.37.760.csv,4,3,2,0,b,1,0,0,tac,C,27,1,2C,0C,1,0,z,2.51165860000037,0,1,0,0,0C,2C,C20,2.89037175789616,0.513729213348333,0.5,0.5,0.5,0.5,0.5,0.5,0.5,0.5,0.5,0.5,0.5,0.5,0.5,0.5,0.513729213348333,0.5,0.5,0.5,0.5,0.160202638199821,0.50013312111665,-0.5,-0.0137292133483332,0.5,0.0274584266966663,1.09963323747778,7.29726568070543,2.99262827404374,0.5,80.702437720439
CBC_1017,CBC_1017_MSI_TV_v3_Vset6_Tset2_2023-06-25_11h49.37.760.csv,4,4,1,0,z,0,1,2,tac,A,63,1,1A,0A,0,1,z,2.66046200000073,0,1,1,1,0A,1A,A10,2.2512917986065,0.513729213348333,0.5,0.5,0.5,0.5,0.5,0.5,0.5,0.486270786651667,0.5,0.5,0.5,0.5,0.5,0.5,0.513729213348333,0.513729213348333,0.486270786651667,0.513729213348333,0.5,0.193379442366981,0.645062511664311,0.486270786651667,0.0133522307500051,0.5,0.0274584266966663,1.09963323747778,7.29726568070543,2.99262827404374,0.5,80.702437720439
CBC_1017,CBC_1017_MSI_TV_v3_Vset6_Tset2_2023-06-25_11h49.37.760.csv,4,5,3,1,z,0,1,3,tac,B,27,1,3B,1B,0,1,z,2.39173820000087,0,1,1,1,1B,3B,B31,2.99573227355399,0.527081444098338,0.5,0.5,0.5,0.5,0.5,0.5,0.5,0.486270786651667,0.5,0.5,0.5,0.5,0.5,0.5,0.513729213348333,0.5,0.5,0.5,0.5,0.170640180609018,0.500739301831953,0.5,0.0137292133483332,0.5,0.0274584266966663,1.09963323747778,7.29726568070543,2.99262827404374,0.5,80.702437720439
CBC_1017,CBC_1017_MSI_TV_v3_Vset6_Tset2_2023-06-25_11h49.37.760.csv,4,6,2,3,b,1,0,0,tac,C,63,1,2C,3C,1,0,z,2.30566720000024,0,1,0,0,3C,2C,C23,3.04452243772342,0.527081444098338,0.5,0.5,0.5,0.5,0.513729213348333,0.5,0.5,0.486270786651667,0.5,0.5,0.5,0.5,0.5,0.5,0.513729213348333,0.5,0.5,0.5,0.5,0.177580581532329,0.499314383242727,-0.5,-0.0137292133483332,0.5,0.0274584266966663,1.09963323747778,7.29726568070543,2.99262827404374,0.5,80.702437720439
CBC_1017,CBC_1017_MSI_TV_v3_Vset6_Tset2_2023-06-25_11h49.37.760.csv,4,7,2,3,z,0,1,1,tac,D,63,0,2D,3D,1,0,z,3.13088620000053,0,1,1,0,3D,2D,D23,3.09104245335832,0.527081444098338,0.5,0.5,0.5,0.5,0.513729213348333,0.5,0.5,0.486270786651667,0.5,0.5,0.486270786651667,0.5,0.5,0.5,0.513729213348333,0.513729213348333,0.486270786651667,0.513729213348333,0.5,0.148547432184296,0.646404348825392,-0.513729213348333,-0.0141061959466613,0.5,0.0274584266966663,1.09963323747778,7.29726568070543,2.99262827404374,0.5,80.702437720439
CBC_1017,CBC_1017_MSI_TV_v3_Vset6_Tset2_2023-06-25_11h49.37.760.csv,4,8,1,0,b,1,0,3,tac,B,63,1,1B,0B,1,0,b,2.69500940000034,1,0,1,1,1B,0B,B10,3.13549421592915,0.527081444098338,0.5,0.5,0.5,0.5,0.513729213348333,0.5,0.5,0.486270786651667,0.5,0.5,0.486270786651667,0.5,0.5,0.5,0.499623017401672,0.513729213348333,0.486270786651667,0.513729213348333,0.5,0.190120752591267,0.646396962140858,0.486270786651667,0.0133522307500051,0.5,0.0274584266966663,1.09963323747778,7.29726568070543,2.99262827404374,0.5,80.702437720439
CBC_1017,CBC_1017_MSI_TV_v3_Vset6_Tset2_2023-06-25_11h49.37.760.csv,4,9,0,2,b,1,0,2,tac,A,27,1,0A,2A,1,0,z,2.84922000000006,0,1,0,0,2A,0A,A02,3.17805383034795,0.527081444098338,0.5,0.5,0.5,0.5,0.527081444098338,0.5,0.5,0.486270786651667,0.5,0.5,0.486270786651667,0.5,0.5,0.5,0.499623017401672,0.472918555901662,0.527081444098338,0.5,0.527081444098338,0.0642739509327108,0.233671735102421,-0.5,-0.0137292133483332,0.5,0.0274584266966663,1.09963323747778,7.29726568070543,2.99262827404374,0.5,80.702437720439
CBC_1017,CBC_1017_MSI_TV_v3_Vset6_Tset2_2023-06-25_11h49.37.760.csv,4,10,0,3,z,0,1,1,tac,D,9,1,0D,3D,0,1,z,2.99554740000076,0,1,1,1,3D,0D,D03,3.2188758248682,0.527081444098338,0.5,0.486270786651667,0.5,0.5,0.527081444098338,0.5,0.5,0.486270786651667,0.5,0.5,0.486270786651667,0.5,0.5,0.5,0.499623017401672,0.499623017401672,0.500376982598328,0.499623017401672,0.5,0.122313975306761,0.495910944669066,0.500376982598328,0.0137395646973753,0.5,0.0274584266966663,1.09963323747778,7.29726568070543,2.99262827404374,0.5,80.702437720439
CBC_1017,CBC_1017_MSI_TV_v3_Vset6_Tset2_2023-06-25_11h49.37.760.csv,4,11,3,2,z,0,1,0,tac,C,63,0,3C,2C,1,0,z,2.23721569999998,0,1,1,0,2C,3C,C32,3.25809653802148,0.527081444098338,0.5,0.486270786651667,0.5,0.5,0.527081444098338,0.5,0.5,0.486270786651667,0.5,0.5,0.486270786651667,0.5,0.5,0.5,0.513362582099047,0.513729213348333,0.486270786651667,0.5,0.486270786651667,0.242931135424719,0.646955862350556,-0.5,-0.0137292133483332,0.5,0.0274584266966663,1.09963323747778,7.29726568070543,2.99262827404374,0.5,80.702437720439
CBC_1017,CBC_1017_MSI_TV_v3_Vset6_Tset2_2023-06-25_11h49.37.760.csv,4,12,1,0,b,1,0,3,tac,B,63,1,1B,0B,1,0,b,3.80235209999955,1,0,1,1,1B,0B,B10,2.60268968544438,0.527081444098338,0.5,0.486270786651667,0.5,0.5,0.527081444098338,0.5,0.5,0.486270786651667,0.5,0.486270786651667,0.486270786651667,0.5,0.5,0.5,0.513362582099047,0.527081444098338,0.472918555901662,0.527081444098338,0.5,0.115704652392696,0.765226425935277,0.472918555901662,0.0129855995007191,0.5,0.0274584266966663,1.09963323747778,7.29726568070543,2.99262827404374,0.5,80.702437720439
CBC_1017,CBC_1017_MSI_TV_v3_Vset6_Tset2_2023-06-25_11h49.37.760.csv,4,13,3,2,b,1,0,1,tac,D,63,0,3D,2D,0,1,z,2.75886490000084,0,1,0,1,2D,3D,D32,2.63905732961526,0.527081444098338,0.5,0.486270786651667,0.5,0.5,0.540067043599057,0.5,0.5,0.486270786651667,0.5,0.486270786651667,0.486270786651667,0.5,0.5,0.5,0.513362582099047,0.486637417900953,0.513362582099047,0.5,0.513362582099047,0.101393690628403,0.357516694133082,0.5,0.0137292133483332,0.5,0.0274584266966663,1.09963323747778,7.29726568070543,2.99262827404374,0.5,80.702437720439
CBC_1017,CBC_1017_MSI_TV_v3_Vset6_Tset2_2023-06-25_11h49.37.760.csv,4,14,3,2,z,0,1,0,tac,C,63,1,3C,2C,0,1,b,2.49989069999992,1,0,0,0,3C,2C,C32,2.67414864942653,0.527081444098338,0.5,0.486270786651667,0.5,0.5,0.540067043599057,0.5,0.5,0.486270786651667,0.5,0.486270786651667,0.486270786651667,0.5,0.5,0.513729213348333,0.513362582099047,0.5,0.5,0.486270786651667,0.486270786651667,0.161021603055185,0.499599719840191,-0.486270786651667,-0.0133522307500051,0.5,0.0274584266966663,1.09963323747778,7.29726568070543,2.99262827404374,0.5,80.702437720439
CBC_1017,CBC_1017_MSI_TV_v3_Vset6_Tset2_2023-06-25_11h49.37.760.csv,4,15,1,3,b,1,0,3,tac,B,27,1,1B,3B,1,0,z,2.9081170999998,0,1,0,0,3B,1B,B13,3.40119738166216,0.527081444098338,0.5,0.486270786651667,0.5,0.5,0.540067043599057,0.5,0.5,0.486270786651667,0.5,0.486270786651667,0.472918555901662,0.5,0.5,0.513729213348333,0.513362582099047,0.459932956400943,0.540067043599057,0.5,0.540067043599057,0.0397473001109295,0.148656173712532,-0.5,-0.0137292133483332,0.5,0.0274584266966663,1.09963323747778,7.29726568070543,2.99262827404374,0.5,80.702437720439
CBC_1017,CBC_1017_MSI_TV_v3_Vset6_Tset2_2023-06-25_11h49.37.760.csv,4,16,3,0,z,0,1,2,tac,A,9,1,3A,0A,0,1,b,3.61531820000073,1,0,0,0,3A,0A,A30,3.43398720448515,0.527081444098338,0.5,0.486270786651667,0.5,0.5,0.540067043599057,0.5,0.486270786651667,0.486270786651667,0.5,0.486270786651667,0.472918555901662,0.5,0.5,0.513729213348333,0.513362582099047,0.472918555901662,0.527081444098338,0.5,0.527081444098338,0.0399099488978524,0.234670886624999,-0.5,-0.0137292133483332,0.5,0.0274584266966663,1.09963323747778,7.29726568070543,2.99262827404374,0.5,80.702437720439
CBC_1017,CBC_1017_MSI_TV_v3_Vset6_Tset2_2023-06-25_11h49.37.760.csv,4,17,3,2,b,1,0,1,tac,D,63,1,3D,2D,1,0,b,2.99724900000001,1,0,1,1,3D,2D,D32,2.36712361413162,0.527081444098338,0.5,0.486270786651667,0.486270786651667,0.5,0.540067043599057,0.5,0.486270786651667,0.486270786651667,0.5,0.486270786651667,0.472918555901662,0.5,0.5,0.513729213348333,0.513362582099047,0.499633099507773,0.500366900492227,0.513362582099047,0.513729213348333,0.121977522412843,0.495006903405339,0.486637417900953,0.0133622978672883,0.5,0.0274584266966663,1.09963323747778,7.29726568070543,2.99262827404374,0.5,80.702437720439
CBC_1017,CBC_1017_MSI_TV_v3_Vset6_Tset2_2023-06-25_11h49.37.760.csv,4,18,2,0,b,1,0,0,tac,C,27,1,2C,0C,1,0,z,3.17336680000062,0,1,0,0,0C,2C,C20,2.80336038090653,0.527081444098338,0.5,0.486270786651667,0.486270786651667,0.5,0.540067043599057,0.5,0.486270786651667,0.486270786651667,0.5,0.486270786651667,0.472918555901662,0.5,0.5,0.513729213348333,0.526724879966335,0.5,0.5,0.486270786651667,0.486270786651667,0.112042260143518,0.500839077237201,-0.486270786651667,-0.0133522307500051,0.5,0.0274584266966663,1.09963323747778,7.29726568070543,2.99262827404374,0.5,80.702437720439
CBC_1017,CBC_1017_MSI_TV_v3_Vset6_Tset2_2023-06-25_11h49.37.760.csv,4,19,1,0,z,0,1,2,tac,A,63,1,1A,0A,0,1,z,3.95801310000024,0,1,1,1,0A,1A,A10,2.42774823594805,0.527081444098338,0.5,0.486270786651667,0.486270786651667,0.5,0.540067043599057,0.5,0.486270786651667,0.472918555901662,0.5,0.486270786651667,0.472918555901662,0.5,0.5,0.513729213348333,0.526724879966335,0.527081444098338,0.472918555901662,0.527081444098338,0.5,0.104991137562222,0.766299197578451,0.472918555901662,0.0129855995007191,0.5,0.0274584266966663,1.09963323747778,7.29726568070543,2.99262827404374,0.5,80.702437720439
CBC_1017,CBC_1017_MSI_TV_v3_Vset6_Tset2_2023-06-25_11h49.37.760.csv,4,20,0,1,z,0,1,3,tac,B,63,0,0B,1B,1,0,z,2.84155270000065,0,1,1,0,1B,0B,B01,3.55534806148941,0.540067043599057,0.5,0.486270786651667,0.486270786651667,0.5,0.540067043599057,0.5,0.486270786651667,0.472918555901662,0.5,0.486270786651667,0.472918555901662,0.5,0.5,0.513729213348333,0.526724879966335,0.540067043599057,0.459932956400943,0.540067043599057,0.5,0.238766525581679,0.851439329769575,-0.540067043599057,-0.01482939132795,0.5,0.0274584266966663,1.09963323747778,7.29726568070543,2.99262827404374,0.5,80.702437720439
CBC_1017,CBC_1017_MSI_TV_v3_Vset6_Tset2_2023-06-25_11h49.37.760.csv,4,21,1,3,z,0,1,1,tac,D,27,1,1D,3D,0,1,b,4.06940900000063,1,0,0,0,1D,3D,D13,3.58351893845611,0.540067043599057,0.5,0.486270786651667,0.486270786651667,0.5,0.525237652271107,0.5,0.486270786651667,0.472918555901662,0.5,0.486270786651667,0.472918555901662,0.5,0.5,0.513729213348333,0.526724879966335,0.473275120033665,0.526724879966335,0.5,0.526724879966335,0.0302948257329345,0.236684357035041,-0.5,-0.0137292133483332,0.5,0.0274584266966663,1.09963323747778,7.29726568070543,2.99262827404374,0.5,80.702437720439
CBC_1017,CBC_1017_MSI_TV_v3_Vset6_Tset2_2023-06-25_11h49.37.760.csv,4,22,2,3,b,1,0,0,tac,C,63,1,2C,3C,1,0,b,4.45502880000004,1,0,1,1,2C,3C,C23,2.91777073208428,0.540067043599057,0.5,0.486270786651667,0.486270786651667,0.5,0.525237652271107,0.5,0.486270786651667,0.472918555901662,0.5,0.486270786651667,0.472918555901662,0.5,0.486270786651667,0.513729213348333,0.526724879966335,0.513372118134439,0.486627881865561,0.486270786651667,0.472918555901662,0.0693850576563558,0.642198506393417,0.513729213348333,0.0141061959466613,0.5,0.0274584266966663,1.09963323747778,7.29726568070543,2.99262827404374,0.5,80.702437720439
CBC_1017,CBC_1017_MSI_TV_v3_Vset6_Tset2_2023-06-25_11h49.37.760.csv,4,23,1,0,b,1,0,3,tac,B,63,1,1B,0B,1,0,b,4.22660879999967,1,0,1,1,1B,0B,B10,2.53897387105828,0.540067043599057,0.5,0.486270786651667,0.486270786651667,0.5,0.525237652271107,0.5,0.486270786651667,0.472918555901662,0.5,0.500376982598328,0.472918555901662,0.5,0.486270786651667,0.513729213348333,0.526724879966335,0.525237652271107,0.474762347728893,0.525237652271107,0.5,0.0878853861248624,0.75043509478042,0.474762347728893,0.013036227123451,0.5,0.0274584266966663,1.09963323747778,7.29726568070543,2.99262827404374,0.5,80.702437720439
CBC_1017,CBC_1017_MSI_TV_v3_Vset6_Tset2_2023-06-25_11h49.37.760.csv,4,24,2,0,z,0,1,2,tac,A,27,1,2A,0A,0,1,b,3.11156800000026,1,0,0,0,2A,0A,A20,3.66356164612965,0.540067043599057,0.5,0.486270786651667,0.486270786651667,0.5,0.538273879394558,0.5,0.486270786651667,0.472918555901662,0.5,0.500376982598328,0.472918555901662,0.5,0.486270786651667,0.513729213348333,0.526724879966335,0.446321854080863,0.553678145919137,0.486270786651667,0.540067043599057,0.0192288339442507,0.0871104623496383,-0.486270786651667,-0.0133522307500051,0.5,0.0274584266966663,1.09963323747778,7.29726568070543,2.99262827404374,0.5,80.702437720439
CBC_1017,CBC_1017_MSI_TV_v3_Vset6_Tset2_2023-06-25_11h49.37.760.csv,4,25,2,3,z,0,1,1,tac,D,63,1,2D,3D,0,1,b,2.60576140000012,1,0,0,0,2D,3D,D23,2.99573227355399,0.540067043599057,0.5,0.472918555901662,0.486270786651667,0.5,0.538273879394558,0.5,0.486270786651667,0.472918555901662,0.5,0.500376982598328,0.472918555901662,0.5,0.486270786651667,0.513729213348333,0.526724879966335,0.48698523230615,0.51301476769385,0.513729213348333,0.526724879966335,0.111992847494658,0.362946648718198,-0.513729213348333,-0.0141061959466613,0.5,0.0274584266966663,1.09963323747778,7.29726568070543,2.99262827404374,0.5,80.702437720439
CBC_1017,CBC_1017_MSI_TV_v3_Vset6_Tset2_2023-06-25_11h49.37.760.csv,4,26,2,0,b,1,0,0,tac,C,27,1,2C,0C,1,0,b,4.33486150000044,1,0,1,1,2C,0C,C20,2.6149597780362,0.540067043599057,0.5,0.472918555901662,0.486270786651667,0.5,0.538273879394558,0.5,0.486270786651667,0.472918555901662,0.5,0.500376982598328,0.472918555901662,0.5,0.486270786651667,0.499623017401672,0.526724879966335,0.527457305424534,0.472542694575466,0.500376982598328,0.472918555901662,0.0828628221210306,0.767900801164803,0.499623017401672,0.013718861999291,0.5,0.0274584266966663,1.09963323747778,7.29726568070543,2.99262827404374,0.5,80.702437720439
CBC_1017,CBC_1017_MSI_TV_v3_Vset6_Tset2_2023-06-25_11h49.37.760.csv,4,27,1,0,b,1,0,3,tac,B,63,1,1B,0B,1,0,b,1.51242490000095,1,0,1,1,1B,0B,B10,2.35137525716348,0.540067043599057,0.5,0.472918555901662,0.486270786651667,0.5,0.538273879394558,0.5,0.486270786651667,0.472918555901662,0.5,0.514095844597619,0.472918555901662,0.5,0.486270786651667,0.499623017401672,0.526724879966335,0.538273879394558,0.461726120605442,0.538273879394558,0.5,0.323107297512038,0.84163442633463,0.461726120605442,0.0126782728365806,0.5,0.0274584266966663,1.09963323747778,7.29726568070543,2.99262827404374,0.5,80.702437720439
CBC_1017,CBC_1017_MSI_TV_v3_Vset6_Tset2_2023-06-25_11h49.37.760.csv,4,28,0,1,b,1,0,2,tac,A,63,1,0A,1A,1,0,b,1.80664780000006,1,0,1,1,0A,1A,A01,3.76120011569356,0.540067043599057,0.5,0.472918555901662,0.486270786651667,0.5,0.550952152231139,0.5,0.486270786651667,0.472918555901662,0.5,0.514095844597619,0.472918555901662,0.5,0.486270786651667,0.499623017401672,0.526724879966335,0.540067043599057,0.459932956400943,0.540067043599057,0.5,0.437961871769331,0.851790734777179,0.459932956400943,0.0126290353687163,0.5,0.0274584266966663,1.09963323747778,7.29726568070543,2.99262827404374,0.5,80.702437720439
CBC_1017,CBC_1017_MSI_TV_v3_Vset6_Tset2_2023-06-25_11h49.37.760.csv,4,29,3,2,z,0,1,0,tac,C,63,0,3C,2C,1,0,z,2.32337900000039,0,1,1,0,2C,3C,C32,2.68557734525015,0.552696078967774,0.5,0.472918555901662,0.486270786651667,0.5,0.550952152231139,0.5,0.486270786651667,0.472918555901662,0.5,0.514095844597619,0.472918555901662,0.5,0.486270786651667,0.499623017401672,0.526724879966335,0.541114509171236,0.458885490828764,0.514095844597619,0.472918555901662,0.347218106924964,0.857743883477453,-0.514095844597619,-0.0141162630639445,0.5,0.0274584266966663,1.09963323747778,7.29726568070543,2.99262827404374,0.5,80.702437720439
CBC_1017,CBC_1017_MSI_TV_v3_Vset6_Tset2_2023-06-25_11h49.37.760.csv,4,30,3,1,b,1,0,1,tac,D,27,1,3D,1D,1,0,b,4.8841652000001,1,0,1,1,3D,1D,D31,3.80666248977032,0.552696078967774,0.5,0.472918555901662,0.486270786651667,0.5,0.550952152231139,0.5,0.486270786651667,0.472918555901662,0.5,0.499979581533675,0.472918555901662,0.5,0.486270786651667,0.499623017401672,0.526724879966335,0.540394808023525,0.459605191976475,0.526724879966335,0.486270786651667,0.0545680419341016,0.853673366280342,0.473275120033665,0.0129953901908003,0.5,0.0274584266966663,1.09963323747778,7.29726568070543,2.99262827404374,0.5,80.702437720439
CBC_1017,CBC_1017_MSI_TV_v3_Vset6_Tset2_2023-06-25_11h49.37.760.csv,4,31,1,0,z,0,1,2,tac,A,63,0,1A,0A,1,0,z,2.50435560000005,0,1,1,0,0A,1A,A10,2.4423470353692,0.552696078967774,0.5,0.472918555901662,0.486270786651667,0.5,0.550952152231139,0.5,0.486270786651667,0.472918555901662,0.5,0.499979581533675,0.472918555901662,0.5,0.486270786651667,0.499623017401672,0.539720270157136,0.552696078967774,0.447303921032226,0.552696078967774,0.5,0.335554629355873,0.909264901610911,-0.552696078967774,-0.0151761647698715,0.5,0.0274584266966663,1.09963323747778,7.29726568070543,2.99262827404374,0.5,80.702437720439
CBC_1017,CBC_1017_MSI_TV_v3_Vset6_Tset2_2023-06-25_11h49.37.760.csv,4,32,3,2,b,1,0,1,tac,D,63,1,3D,2D,1,0,b,2.46445650000078,1,0,1,1,3D,2D,D32,2.46385324059017,0.537519914197902,0.5,0.472918555901662,0.486270786651667,0.5,0.550952152231139,0.5,0.486270786651667,0.472918555901662,0.5,0.499979581533675,0.472918555901662,0.5,0.486270786651667,0.499623017401672,0.539720270157136,0.540094851258206,0.459905148741794,0.539720270157136,0.499623017401672,0.312223868886728,0.852642761701612,0.460279729842864,0.0126385572218517,0.5,0.0274584266966663,1.09963323747778,7.29726568070543,2.99262827404374,0.5,80.702437720439
CBC_1017,CBC_1017_MSI_TV_v3_Vset6_Tset2_2023-06-25_11h49.37.760.csv,4,33,2,1,z,0,1,3,tac,B,9,1,2B,1B,0,1,z,3.45419990000028,0,1,1,1,1B,2B,B21,3.87120101090789,0.537519914197902,0.5,0.472918555901662,0.486270786651667,0.5,0.550952152231139,0.5,0.486270786651667,0.472918555901662,0.5,0.499979581533675,0.472918555901662,0.5,0.486270786651667,0.499623017401672,0.552358827378987,0.550952152231139,0.449047847768861,0.550952152231139,0.5,0.152036389700708,0.902762610644368,0.449047847768861,0.0123301474112571,0.5,0.0274584266966663,1.09963323747778,7.29726568070543,2.99262827404374,0.5,80.702437720439
CBC_1017,CBC_1017_MSI_TV_v3_Vset6_Tset2_2023-06-25_11h49.37.760.csv,4,34,1,0,z,0,1,2,tac,A,63,1,1A,0A,0,1,z,2.01731550000022,0,1,1,1,0A,1A,A10,2.28238238567653,0.537519914197902,0.5,0.472918555901662,0.486270786651667,0.5,0.563282299642396,0.5,0.486270786651667,0.472918555901662,0.5,0.499979581533675,0.472918555901662,0.5,0.486270786651667,0.499623017401672,0.552358827378987,0.537519914197902,0.462480085802098,0.537519914197902,0.5,0.396250548936164,0.837222454562822,0.462480085802098,0.0126989755346649,0.5,0.0274584266966663,1.09963323747778,7.29726568070543,2.99262827404374,0.5,80.702437720439
CBC_1017,CBC_1017_MSI_TV_v3_Vset6_Tset2_2023-06-25_11h49.37.760.csv,4,35,2,1,b,1,0,0,tac,C,9,1,2C,1C,1,0,b,2.30442420000054,1,0,1,1,2C,1C,C21,3.91202300542815,0.550218889732567,0.5,0.472918555901662,0.486270786651667,0.5,0.563282299642396,0.5,0.486270786651667,0.472918555901662,0.5,0.499979581533675,0.472918555901662,0.5,0.486270786651667,0.499623017401672,0.552358827378987,0.499979581533675,0.500020418466325,0.499979581533675,0.5,0.17782890877101,0.499711498372378,0.500020418466325,0.013729774007294,0.5,0.0274584266966663,1.09963323747778,7.29726568070543,2.99262827404374,0.5,80.702437720439
CBC_1017,CBC_1017_MSI_TV_v3_Vset6_Tset2_2023-06-25_11h49.37.760.csv,4,36,1,0,b,1,0,3,tac,B,63,1,1B,0B,1,0,b,1.75655660000029,1,0,1,1,1B,0B,B10,2.32238772029023,0.550218889732567,0.5,0.472918555901662,0.486270786651667,0.5,0.563282299642396,0.5,0.486270786651667,0.472918555901662,0.5,0.513709355540969,0.472918555901662,0.5,0.486270786651667,0.499623017401672,0.552358827378987,0.563282299642396,0.436717700357604,0.563282299642396,0.5,0.613926893689288,0.940716119344571,0.436717700357604,0.011991580962406,0.5,0.0274584266966663,1.09963323747778,7.29726568070543,2.99262827404374,0.5,80.702437720439
CBC_1017,CBC_1017_MSI_TV_v3_Vset6_Tset2_2023-06-25_11h49.37.760.csv,4,37,0,1,b,1,0,2,tac,A,63,0,0A,1A,0,1,b,1.80158510000001,1,0,1,0,0A,1A,A01,3.25809653802148,0.550218889732567,0.5,0.472918555901662,0.486270786651667,0.5,0.575273880604802,0.5,0.486270786651667,0.472918555901662,0.5,0.513709355540969,0.472918555901662,0.5,0.486270786651667,0.499623017401672,0.552358827378987,0.550218889732567,0.449781110267433,0.550218889732567,0.5,0.510979967322584,0.89974626981769,-0.550218889732567,-0.0151081450508428,0.5,0.0274584266966663,1.09963323747778,7.29726568070543,2.99262827404374,0.5,80.702437720439
CBC_1017,CBC_1017_MSI_TV_v3_Vset6_Tset2_2023-06-25_11h49.37.760.csv,4,38,0,1,z,0,1,3,tac,B,63,1,0B,1B,0,1,z,2.87630379999973,0,1,1,1,1B,0B,B01,3.27714473299218,0.535110744681724,0.5,0.472918555901662,0.486270786651667,0.5,0.575273880604802,0.5,0.486270786651667,0.472918555901662,0.5,0.513709355540969,0.472918555901662,0.5,0.486270786651667,0.499623017401672,0.552358827378987,0.575273880604802,0.424726119395198,0.575273880604802,0.5,0.233303734624062,0.96386110591042,0.424726119395198,0.0116623110155726,0.5,0.0274584266966663,1.09963323747778,7.29726568070543,2.99262827404374,0.5,80.702437720439
CBC_1017,CBC_1017_MSI_TV_v3_Vset6_Tset2_2023-06-25_11h49.37.760.csv,4,39,1,3,z,0,1,1,tac,D,27,1,1D,3D,0,1,z,3.61900130000049,0,1,1,1,3D,1D,D13,3.29583686600433,0.535110744681724,0.5,0.472918555901662,0.486270786651667,0.5,0.586936191620374,0.5,0.486270786651667,0.472918555901662,0.5,0.513709355540969,0.472918555901662,0.5,0.486270786651667,0.499623017401672,0.552358827378987,0.565898557199026,0.434101442800974,0.552358827378987,0.486270786651667,0.115112167964455,0.94674575518925,0.447641172621013,0.0122915223248238,0.5,0.0274584266966663,1.09963323747778,7.29726568070543,2.99262827404374,0.5,80.702437720439
CBC_1017,CBC_1017_MSI_TV_v3_Vset6_Tset2_2023-06-25_11h49.37.760.csv,4,40,3,2,z,0,1,0,tac,C,63,1,3C,2C,0,1,z,2.5715468999997,0,1,1,1,2C,3C,C32,2.62103882411258,0.535110744681724,0.5,0.472918555901662,0.486270786651667,0.5,0.586936191620374,0.5,0.486270786651667,0.472918555901662,0.5,0.513709355540969,0.472918555901662,0.5,0.486270786651667,0.499623017401672,0.564650349703811,0.540730312006734,0.459269687993266,0.513709355540969,0.472918555901662,0.291216734068913,0.855622808347491,0.486290644459031,0.0133527760141529,0.5,0.0274584266966663,1.09963323747778,7.29726568070543,2.99262827404374,0.5,80.702437720439
CBC_1017,CBC_1017_MSI_TV_v3_Vset6_Tset2_2023-06-25_11h49.37.760.csv,4,41,0,2,b,1,0,2,tac,A,27,1,0A,2A,1,0,b,2.50825070000064,1,0,1,1,0A,2A,A02,3.3322045101752,0.535110744681724,0.5,0.472918555901662,0.486270786651667,0.5,0.586936191620374,0.5,0.486270786651667,0.472918555901662,0.5,0.527062131555122,0.472918555901662,0.5,0.486270786651667,0.499623017401672,0.564650349703811,0.561956543345048,0.438043456654952,0.535110744681724,0.472918555901662,0.348906794258203,0.937142955086938,0.464889255318276,0.0127651275392247,0.5,0.0274584266966663,1.09963323747778,7.29726568070543,2.99262827404374,0.5,80.702437720439
CBC_1017,CBC_1017_MSI_TV_v3_Vset6_Tset2_2023-06-25_11h49.37.760.csv,4,42,2,3,z,0,1,1,tac,D,63,1,2D,3D,0,1,z,2.38407200000074,0,1,1,1,3D,2D,D23,2.94443897916644,0.547875872220949,0.5,0.472918555901662,0.486270786651667,0.5,0.586936191620374,0.5,0.486270786651667,0.472918555901662,0.5,0.527062131555122,0.472918555901662,0.5,0.486270786651667,0.499623017401672,0.564650349703811,0.565020993520747,0.434979006479253,0.564650349703811,0.499623017401672,0.396995088714623,0.944997936651463,0.435349650296189,0.0119540164600772,0.5,0.0274584266966663,1.09963323747778,7.29726568070543,2.99262827404374,0.5,80.702437720439
CBC_1017,CBC_1017_MSI_TV_v3_Vset6_Tset2_2023-06-25_11h49.37.760.csv,4,43,1,3,b,1,0,3,tac,B,27,0,1B,3B,0,1,b,1.62848660000054,1,0,1,0,1B,3B,B13,3.36729582998647,0.547875872220949,0.5,0.472918555901662,0.486270786651667,0.5,0.586936191620374,0.5,0.486270786651667,0.472918555901662,0.5,0.527062131555122,0.472918555901662,0.5,0.486270786651667,0.499623017401672,0.576604366163888,0.600187085564212,0.399812914435788,0.586936191620374,0.486270786651667,0.947759003341596,0.987626910283622,-0.586936191620374,-0.0161163443932285,0.5,0.0274584266966663,1.09963323747778,7.29726568070543,2.99262827404374,0.5,80.702437720439
CBC_1017,CBC_1017_MSI_TV_v3_Vset6_Tset2_2023-06-25_11h49.37.760.csv,4,44,3,2,z,0,1,0,tac,C,63,1,3C,2C,0,1,z,1.41124640000089,0,1,1,1,2C,3C,C32,2.46809953147162,0.547875872220949,0.5,0.472918555901662,0.486270786651667,0.5,0.570819847227146,0.5,0.486270786651667,0.472918555901662,0.5,0.527062131555122,0.472918555901662,0.5,0.486270786651667,0.499623017401672,0.576604366163888,0.553985316272969,0.446014683727031,0.527062131555122,0.472918555901662,0.278589656761118,0.913414021937058,0.472937868444878,0.0129861297927713,0.5,0.0274584266966663,1.09963323747778,7.29726568070543,2.99262827404374,0.5,80.702437720439
