ID,filename,session,trial,visStimLeft,visStimRight,correctKey,leftCorrect,rightCorrect,secondStim,mod2Type,mod2Stim,frequency,rewardAccurate,stimPairLeft,stimPairRight,pCorrectLeft,pCorrectRight,key,reactionTime,choiceLeft,choiceRight,choiceAccurate,reward,chosenPair,otherPair,triplet,surprise,0A belief,1A belief,2A belief,3A belief,0B belief,1B belief,2B belief,3B belief,0C belief,1C belief,2C belief,3C belief,0D belief,1D belief,2D belief,3D belief,beliefPairNorm,beliefOtherPairNorm,beliefPair,beliefOtherPair,lik,corrLik,rewardPE,update2,fitCBCsimpleRW_CBCdriftDiffusionLR_startBelief,fitCBCsimpleRW_CBCdriftDiffusionLR_alpha1,fitCBCsimpleRW_CBCdriftDiffusionLR_nonDecisionTime,fitCBCsimpleRW_CBCdriftDiffusionLR_weight,fitCBCsimpleRW_CBCdriftDiffusionLR_startingBoundary,fitCBCsimpleRW_CBCdriftDiffusionLR_startingPoint,fit_CBCsimpleRW_CBCdriftDiffusionLR_NLL
CBC_1017,CBC_1017_MSI_TV_v3_Vset5_Tset1_2023-06-25_09h48.15.887.csv,1,1,1,0,z,0,1,2,tac,A,63,1,1A,0A,0,1,z,1.86829200000001,0,1,1,1,0A,1A,A10,2.77258872223978,0.5,0.5,0.5,0.5,0.5,0.5,0.5,0.5,0.5,0.5,0.5,0.5,0.5,0.5,0.5,0.5,0.5,0.5,0.5,0.5,0.201180382741762,0.498853727026612,0.5,0.185432799322718,0.5,0.370865598645437,1.08646332461112,3.50085362005299,3.0284893436639,0.5,56.361915019985
CBC_1017,CBC_1017_MSI_TV_v3_Vset5_Tset1_2023-06-25_09h48.15.887.csv,1,2,3,2,b,1,0,1,tac,D,63,1,3D,2D,1,0,b,2.38989490000002,1,0,1,1,3D,2D,D32,2.83321334405622,0.685432799322718,0.5,0.5,0.5,0.5,0.5,0.5,0.5,0.5,0.5,0.5,0.5,0.5,0.5,0.5,0.5,0.5,0.5,0.5,0.5,0.167503614586431,0.498496248737963,0.5,0.185432799322718,0.5,0.370865598645437,1.08646332461112,3.50085362005299,3.0284893436639,0.5,56.361915019985
CBC_1017,CBC_1017_MSI_TV_v3_Vset5_Tset1_2023-06-25_09h48.15.887.csv,1,3,2,0,b,1,0,0,tac,C,27,1,2C,0C,1,0,b,2.63040310000001,1,0,1,1,2C,0C,C20,2.89037175789616,0.685432799322718,0.5,0.5,0.5,0.5,0.5,0.5,0.5,0.5,0.5,0.5,0.5,0.5,0.5,0.5,0.685432799322718,0.5,0.5,0.5,0.5,0.148948805360074,0.500930171155202,0.5,0.185432799322718,0.5,0.370865598645437,1.08646332461112,3.50085362005299,3.0284893436639,0.5,56.361915019985
CBC_1017,CBC_1017_MSI_TV_v3_Vset5_Tset1_2023-06-25_09h48.15.887.csv,1,4,1,0,z,0,1,2,tac,A,63,1,1A,0A,0,1,z,2.4745415,0,1,1,1,0A,1A,A10,2.2512917986065,0.685432799322718,0.5,0.5,0.5,0.5,0.5,0.5,0.5,0.5,0.5,0.685432799322718,0.5,0.5,0.5,0.5,0.685432799322718,0.578213121582541,0.421786878417459,0.685432799322718,0.5,0.300055811182255,0.840579855776982,0.314567200677282,0.116662153193399,0.5,0.370865598645437,1.08646332461112,3.50085362005299,3.0284893436639,0.5,56.361915019985
CBC_1017,CBC_1017_MSI_TV_v3_Vset5_Tset1_2023-06-25_09h48.15.887.csv,1,5,3,1,z,0,1,3,tac,B,27,1,3B,1B,0,1,b,2.33157280000002,1,0,0,0,3B,1B,B31,2.99573227355399,0.802094952516118,0.5,0.5,0.5,0.5,0.5,0.5,0.5,0.5,0.5,0.685432799322718,0.5,0.5,0.5,0.5,0.685432799322718,0.5,0.5,0.5,0.5,0.172811320323421,0.499988930366134,-0.5,-0.185432799322718,0.5,0.370865598645437,1.08646332461112,3.50085362005299,3.0284893436639,0.5,56.361915019985
CBC_1017,CBC_1017_MSI_TV_v3_Vset5_Tset1_2023-06-25_09h48.15.887.csv,1,6,2,3,b,1,0,0,tac,C,63,1,2C,3C,1,0,b,2.38814569999998,1,0,1,1,2C,3C,C23,3.04452243772342,0.802094952516118,0.5,0.5,0.5,0.5,0.5,0.5,0.314567200677282,0.5,0.5,0.685432799322718,0.5,0.5,0.5,0.5,0.685432799322718,0.578213121582541,0.421786878417459,0.685432799322718,0.5,0.316911663669123,0.8398786776184,0.314567200677282,0.116662153193399,0.5,0.370865598645437,1.08646332461112,3.50085362005299,3.0284893436639,0.5,56.361915019985
CBC_1017,CBC_1017_MSI_TV_v3_Vset5_Tset1_2023-06-25_09h48.15.887.csv,1,7,2,3,z,0,1,1,tac,D,63,0,2D,3D,1,0,z,2.2369557,0,1,1,0,3D,2D,D23,3.09104245335832,0.802094952516118,0.5,0.5,0.5,0.5,0.5,0.5,0.314567200677282,0.5,0.5,0.802094952516118,0.5,0.5,0.5,0.5,0.685432799322718,0.578213121582541,0.421786878417459,0.685432799322718,0.5,0.348306709913082,0.840239087701709,-0.685432799322718,-0.254203445452037,0.5,0.370865598645437,1.08646332461112,3.50085362005299,3.0284893436639,0.5,56.361915019985
CBC_1017,CBC_1017_MSI_TV_v3_Vset5_Tset1_2023-06-25_09h48.15.887.csv,1,8,1,0,b,1,0,3,tac,B,63,1,1B,0B,1,0,b,4.23765849999997,1,0,1,1,1B,0B,B10,3.13549421592915,0.802094952516118,0.5,0.5,0.5,0.5,0.5,0.5,0.314567200677282,0.5,0.5,0.802094952516118,0.5,0.5,0.5,0.5,0.431229353870681,0.5,0.5,0.5,0.5,0.0629645768570338,0.500850967952608,0.5,0.185432799322718,0.5,0.370865598645437,1.08646332461112,3.50085362005299,3.0284893436639,0.5,56.361915019985
CBC_1017,CBC_1017_MSI_TV_v3_Vset5_Tset1_2023-06-25_09h48.15.887.csv,1,9,0,2,b,1,0,2,tac,A,27,1,0A,2A,1,0,b,2.6871776,1,0,1,1,0A,2A,A02,3.17805383034795,0.802094952516118,0.5,0.5,0.5,0.5,0.685432799322718,0.5,0.314567200677282,0.5,0.5,0.802094952516118,0.5,0.5,0.5,0.5,0.431229353870681,0.616003426605856,0.383996573394144,0.802094952516118,0.5,0.291188954605143,0.92130044125782,0.197905047483882,0.0733961739100636,0.5,0.370865598645437,1.08646332461112,3.50085362005299,3.0284893436639,0.5,56.361915019985
CBC_1017,CBC_1017_MSI_TV_v3_Vset5_Tset1_2023-06-25_09h48.15.887.csv,1,10,0,3,z,0,1,1,tac,D,9,1,0D,3D,0,1,z,2.41491839999999,0,1,1,1,3D,0D,D03,3.2188758248682,0.875491126426181,0.5,0.5,0.5,0.5,0.685432799322718,0.5,0.314567200677282,0.5,0.5,0.802094952516118,0.5,0.5,0.5,0.5,0.431229353870681,0.463075344519869,0.536924655480131,0.431229353870681,0.5,0.107224748766925,0.313373239141437,0.568770646129319,0.210937466168702,0.5,0.370865598645437,1.08646332461112,3.50085362005299,3.0284893436639,0.5,56.361915019985
CBC_1017,CBC_1017_MSI_TV_v3_Vset5_Tset1_2023-06-25_09h48.15.887.csv,1,11,3,2,z,0,1,0,tac,C,63,1,3C,2C,0,1,z,1.59141460000002,0,1,1,1,2C,3C,C32,3.25809653802148,0.875491126426181,0.5,0.5,0.5,0.5,0.685432799322718,0.5,0.314567200677282,0.5,0.5,0.802094952516118,0.5,0.5,0.5,0.5,0.642166820039383,0.616003426605856,0.383996573394144,0.802094952516118,0.5,0.503935529382779,0.921451484050715,0.197905047483882,0.0733961739100636,0.5,0.370865598645437,1.08646332461112,3.50085362005299,3.0284893436639,0.5,56.361915019985
CBC_1017,CBC_1017_MSI_TV_v3_Vset5_Tset1_2023-06-25_09h48.15.887.csv,1,12,1,0,b,1,0,3,tac,B,63,1,1B,0B,1,0,b,2.45836850000002,1,0,1,1,1B,0B,B10,2.60268968544438,0.875491126426181,0.5,0.5,0.5,0.5,0.685432799322718,0.5,0.314567200677282,0.5,0.5,0.875491126426181,0.5,0.5,0.5,0.5,0.642166820039383,0.578213121582541,0.421786878417459,0.685432799322718,0.5,0.303022695397714,0.84018234080067,0.314567200677282,0.116662153193399,0.5,0.370865598645437,1.08646332461112,3.50085362005299,3.0284893436639,0.5,56.361915019985
CBC_1017,CBC_1017_MSI_TV_v3_Vset5_Tset1_2023-06-25_09h48.15.887.csv,1,13,3,2,b,1,0,1,tac,D,63,1,3D,2D,1,0,b,3.09475880000004,1,0,1,1,3D,2D,D32,2.63905732961526,0.875491126426181,0.5,0.5,0.5,0.5,0.802094952516118,0.5,0.314567200677282,0.5,0.5,0.875491126426181,0.5,0.5,0.5,0.5,0.642166820039383,0.562235576075691,0.437764423924309,0.642166820039383,0.5,0.185794754203417,0.789282184388008,0.357833179960617,0.132708016501295,0.5,0.370865598645437,1.08646332461112,3.50085362005299,3.0284893436639,0.5,56.361915019985
CBC_1017,CBC_1017_MSI_TV_v3_Vset5_Tset1_2023-06-25_09h48.15.887.csv,1,14,3,2,z,0,1,0,tac,C,63,1,3C,2C,0,1,z,2.04662249999997,0,1,1,1,2C,3C,C32,2.67414864942653,0.875491126426181,0.5,0.5,0.5,0.5,0.802094952516118,0.5,0.314567200677282,0.5,0.5,0.875491126426181,0.5,0.5,0.5,0.5,0.774874836540677,0.636493474662315,0.363506525337685,0.875491126426181,0.5,0.53398819815722,0.947875697735013,0.124508873573819,0.0461760579346233,0.5,0.370865598645437,1.08646332461112,3.50085362005299,3.0284893436639,0.5,56.361915019985
CBC_1017,CBC_1017_MSI_TV_v3_Vset5_Tset1_2023-06-25_09h48.15.887.csv,1,15,1,3,b,1,0,3,tac,B,27,1,1B,3B,1,0,b,2.36582920000002,1,0,1,1,1B,3B,B13,3.40119738166216,0.875491126426181,0.5,0.5,0.5,0.5,0.802094952516118,0.5,0.314567200677282,0.5,0.5,0.921667184360805,0.5,0.5,0.5,0.5,0.774874836540677,0.718296890623819,0.281703109376181,0.802094952516118,0.314567200677282,0.385973589307607,0.990330752547199,0.197905047483882,0.0733961739100636,0.5,0.370865598645437,1.08646332461112,3.50085362005299,3.0284893436639,0.5,56.361915019985
CBC_1017,CBC_1017_MSI_TV_v3_Vset5_Tset1_2023-06-25_09h48.15.887.csv,1,16,3,0,z,0,1,2,tac,A,9,1,3A,0A,0,1,z,2.60067589999996,0,1,1,1,0A,3A,A30,3.43398720448515,0.875491126426181,0.5,0.5,0.5,0.5,0.875491126426181,0.5,0.314567200677282,0.5,0.5,0.921667184360805,0.5,0.5,0.5,0.5,0.774874836540677,0.636493474662315,0.363506525337685,0.875491126426181,0.5,0.321445064635435,0.947502632187493,0.124508873573819,0.0461760579346233,0.5,0.370865598645437,1.08646332461112,3.50085362005299,3.0284893436639,0.5,56.361915019985
CBC_1017,CBC_1017_MSI_TV_v3_Vset5_Tset1_2023-06-25_09h48.15.887.csv,1,17,3,2,b,1,0,1,tac,D,63,1,3D,2D,1,0,b,2.15621020000005,1,0,1,1,3D,2D,D32,2.36712361413162,0.921667184360805,0.5,0.5,0.5,0.5,0.875491126426181,0.5,0.314567200677282,0.5,0.5,0.921667184360805,0.5,0.5,0.5,0.5,0.774874836540677,0.607804636448288,0.392195363551712,0.774874836540677,0.5,0.432535951722076,0.908107971337127,0.225125163459323,0.0834911785164935,0.5,0.370865598645437,1.08646332461112,3.50085362005299,3.0284893436639,0.5,56.361915019985
CBC_1017,CBC_1017_MSI_TV_v3_Vset5_Tset1_2023-06-25_09h48.15.887.csv,1,18,2,0,b,1,0,0,tac,C,27,1,2C,0C,1,0,b,2.42951219999999,1,0,1,1,2C,0C,C20,2.80336038090653,0.921667184360805,0.5,0.5,0.5,0.5,0.875491126426181,0.5,0.314567200677282,0.5,0.5,0.921667184360805,0.5,0.5,0.5,0.5,0.858366015057171,0.64830024530333,0.35169975469667,0.921667184360805,0.5,0.384771509143205,0.958610614330431,0.0783328156391955,0.0290509465656129,0.5,0.370865598645437,1.08646332461112,3.50085362005299,3.0284893436639,0.5,56.361915019985
CBC_1017,CBC_1017_MSI_TV_v3_Vset5_Tset1_2023-06-25_09h48.15.887.csv,1,19,1,0,z,0,1,2,tac,A,63,1,1A,0A,0,1,z,2.52190630000003,0,1,1,1,0A,1A,A10,2.42774823594805,0.921667184360805,0.5,0.5,0.5,0.5,0.875491126426181,0.5,0.314567200677282,0.5,0.5,0.950718130926417,0.5,0.5,0.5,0.5,0.858366015057171,0.64830024530333,0.35169975469667,0.921667184360805,0.5,0.349426963501824,0.958788998051269,0.0783328156391955,0.0290509465656129,0.5,0.370865598645437,1.08646332461112,3.50085362005299,3.0284893436639,0.5,56.361915019985
CBC_1017,CBC_1017_MSI_TV_v3_Vset5_Tset1_2023-06-25_09h48.15.887.csv,1,20,0,1,z,0,1,3,tac,B,63,0,0B,1B,1,0,z,1.79482950000001,0,1,1,0,1B,0B,B01,3.55534806148941,0.950718130926417,0.5,0.5,0.5,0.5,0.875491126426181,0.5,0.314567200677282,0.5,0.5,0.950718130926417,0.5,0.5,0.5,0.5,0.858366015057171,0.636493474662315,0.363506525337685,0.875491126426181,0.5,0.618474992316456,0.9477702444285,-0.875491126426181,-0.324689540710813,0.5,0.370865598645437,1.08646332461112,3.50085362005299,3.0284893436639,0.5,56.361915019985
CBC_1017,CBC_1017_MSI_TV_v3_Vset5_Tset1_2023-06-25_09h48.15.887.csv,1,21,1,3,z,0,1,1,tac,D,27,1,1D,3D,0,1,z,2.22417740000004,0,1,1,1,3D,1D,D13,3.58351893845611,0.950718130926417,0.5,0.5,0.5,0.5,0.550801585715368,0.5,0.314567200677282,0.5,0.5,0.950718130926417,0.5,0.5,0.5,0.5,0.858366015057171,0.63191069678009,0.36808930321991,0.858366015057171,0.5,0.452644128418271,0.942606504467927,0.141633984942829,0.0525271726143611,0.5,0.370865598645437,1.08646332461112,3.50085362005299,3.0284893436639,0.5,56.361915019985
CBC_1017,CBC_1017_MSI_TV_v3_Vset5_Tset1_2023-06-25_09h48.15.887.csv,1,22,2,3,b,1,0,0,tac,C,63,1,2C,3C,1,0,b,2.50879320000003,1,0,1,1,2C,3C,C23,2.91777073208428,0.950718130926417,0.5,0.5,0.5,0.5,0.550801585715368,0.5,0.314567200677282,0.5,0.5,0.950718130926417,0.5,0.5,0.5,0.5,0.910893187671532,0.655343109497981,0.344656890502019,0.950718130926417,0.5,0.354290777399711,0.964324714755228,0.0492818690735826,0.0182769498763402,0.5,0.370865598645437,1.08646332461112,3.50085362005299,3.0284893436639,0.5,56.361915019985
CBC_1017,CBC_1017_MSI_TV_v3_Vset5_Tset1_2023-06-25_09h48.15.887.csv,1,23,1,0,b,1,0,3,tac,B,63,1,1B,0B,1,0,b,1.6989622,1,0,1,1,1B,0B,B10,2.53897387105828,0.950718130926417,0.5,0.5,0.5,0.5,0.550801585715368,0.5,0.314567200677282,0.5,0.5,0.968995080802758,0.5,0.5,0.5,0.5,0.910893187671532,0.524172777432946,0.475827222567054,0.550801585715368,0.5,0.247897048366292,0.624525857177164,0.449198414284632,0.166592238824251,0.5,0.370865598645437,1.08646332461112,3.50085362005299,3.0284893436639,0.5,56.361915019985
CBC_1017,CBC_1017_MSI_TV_v3_Vset5_Tset1_2023-06-25_09h48.15.887.csv,1,24,2,0,z,0,1,2,tac,A,27,1,2A,0A,0,1,b,2.31521490000002,1,0,0,0,2A,0A,A20,3.66356164612965,0.950718130926417,0.5,0.5,0.5,0.5,0.717393824539619,0.5,0.314567200677282,0.5,0.5,0.968995080802758,0.5,0.5,0.5,0.5,0.910893187671532,0.344656890502019,0.655343109497981,0.5,0.950718130926417,0.0161204999150802,0.0355561399979793,-0.5,-0.185432799322718,0.5,0.370865598645437,1.08646332461112,3.50085362005299,3.0284893436639,0.5,56.361915019985
CBC_1017,CBC_1017_MSI_TV_v3_Vset5_Tset1_2023-06-25_09h48.15.887.csv,1,25,2,3,z,0,1,1,tac,D,63,1,2D,3D,0,1,z,2.5066958,0,1,1,1,3D,2D,D23,2.99573227355399,0.950718130926417,0.5,0.314567200677282,0.5,0.5,0.717393824539619,0.5,0.314567200677282,0.5,0.5,0.968995080802758,0.5,0.5,0.5,0.5,0.910893187671532,0.645614562201427,0.354385437798573,0.910893187671532,0.5,0.354653225118121,0.956190789004355,0.0891068123284681,0.0330466512975839,0.5,0.370865598645437,1.08646332461112,3.50085362005299,3.0284893436639,0.5,56.361915019985
CBC_1017,CBC_1017_MSI_TV_v3_Vset5_Tset1_2023-06-25_09h48.15.887.csv,1,26,2,0,b,1,0,0,tac,C,27,1,2C,0C,1,0,b,2.20445409999998,1,0,1,1,2C,0C,C20,2.6149597780362,0.950718130926417,0.5,0.314567200677282,0.5,0.5,0.717393824539619,0.5,0.314567200677282,0.5,0.5,0.968995080802758,0.5,0.5,0.5,0.5,0.943939838969116,0.659631263212422,0.340368736787578,0.968995080802758,0.5,0.494804849991656,0.967186603076356,0.0310049191972424,0.0114986579190387,0.5,0.370865598645437,1.08646332461112,3.50085362005299,3.0284893436639,0.5,56.361915019985
CBC_1017,CBC_1017_MSI_TV_v3_Vset5_Tset1_2023-06-25_09h48.15.887.csv,1,27,1,0,b,1,0,3,tac,B,63,1,1B,0B,1,0,b,2.33832289999999,1,0,1,1,1B,0B,B10,2.35137525716348,0.950718130926417,0.5,0.314567200677282,0.5,0.5,0.717393824539619,0.5,0.314567200677282,0.5,0.5,0.980493738721796,0.5,0.5,0.5,0.5,0.943939838969116,0.589286564527231,0.410713435472769,0.717393824539619,0.5,0.34749798222929,0.869008888352858,0.282606175460381,0.104808908443012,0.5,0.370865598645437,1.08646332461112,3.50085362005299,3.0284893436639,0.5,56.361915019985
CBC_1017,CBC_1017_MSI_TV_v3_Vset5_Tset1_2023-06-25_09h48.15.887.csv,1,28,0,1,b,1,0,2,tac,A,63,1,0A,1A,1,0,b,2.10907870000001,1,0,1,1,0A,1A,A01,3.76120011569356,0.950718130926417,0.5,0.314567200677282,0.5,0.5,0.82220273298263,0.5,0.314567200677282,0.5,0.5,0.980493738721796,0.5,0.5,0.5,0.5,0.943939838969116,0.655343109497981,0.344656890502019,0.950718130926417,0.5,0.53964600608427,0.964251636326837,0.0492818690735826,0.0182769498763402,0.5,0.370865598645437,1.08646332461112,3.50085362005299,3.0284893436639,0.5,56.361915019985
CBC_1017,CBC_1017_MSI_TV_v3_Vset5_Tset1_2023-06-25_09h48.15.887.csv,1,29,3,2,z,0,1,0,tac,C,63,0,3C,2C,1,0,z,1.34220339999997,0,1,1,0,2C,3C,C32,2.68557734525015,0.968995080802758,0.5,0.314567200677282,0.5,0.5,0.82220273298263,0.5,0.314567200677282,0.5,0.5,0.980493738721796,0.5,0.5,0.5,0.5,0.943939838969116,0.662274829725601,0.337725170274399,0.980493738721796,0.5,0.250232519702939,0.969020168039237,-0.980493738721796,-0.363631397379162,0.5,0.370865598645437,1.08646332461112,3.50085362005299,3.0284893436639,0.5,56.361915019985
CBC_1017,CBC_1017_MSI_TV_v3_Vset5_Tset1_2023-06-25_09h48.15.887.csv,1,30,3,1,b,1,0,1,tac,D,27,1,3D,1D,1,0,b,1.99046899999998,1,0,1,1,3D,1D,D31,3.80666248977032,0.968995080802758,0.5,0.314567200677282,0.5,0.5,0.82220273298263,0.5,0.314567200677282,0.5,0.5,0.616862341342635,0.5,0.5,0.5,0.5,0.943939838969116,0.653725185422566,0.346274814577434,0.943939838969116,0.5,0.597789613372567,0.963071290040312,0.0560601610308842,0.0207907851808784,0.5,0.370865598645437,1.08646332461112,3.50085362005299,3.0284893436639,0.5,56.361915019985
CBC_1017,CBC_1017_MSI_TV_v3_Vset5_Tset1_2023-06-25_09h48.15.887.csv,1,31,1,0,z,0,1,2,tac,A,63,1,1A,0A,0,1,z,2.01762500000002,0,1,1,1,0A,1A,A10,2.4423470353692,0.968995080802758,0.5,0.314567200677282,0.5,0.5,0.82220273298263,0.5,0.314567200677282,0.5,0.5,0.616862341342635,0.5,0.5,0.5,0.5,0.964730624149994,0.659631263212422,0.340368736787578,0.968995080802758,0.5,0.596002214063109,0.967244127053699,0.0310049191972424,0.0114986579190387,0.5,0.370865598645437,1.08646332461112,3.50085362005299,3.0284893436639,0.5,56.361915019985
CBC_1017,CBC_1017_MSI_TV_v3_Vset5_Tset1_2023-06-25_09h48.15.887.csv,1,32,3,2,b,1,0,1,tac,D,63,1,3D,2D,1,0,b,2.95366700000001,1,0,1,1,3D,2D,D32,2.46385324059017,0.980493738721796,0.5,0.314567200677282,0.5,0.5,0.82220273298263,0.5,0.314567200677282,0.5,0.5,0.616862341342635,0.5,0.5,0.5,0.5,0.964730624149994,0.65864030439716,0.34135969560284,0.964730624149994,0.5,0.213105069977486,0.966392674909775,0.0352693758500058,0.0130801981884633,0.5,0.370865598645437,1.08646332461112,3.50085362005299,3.0284893436639,0.5,56.361915019985
CBC_1017,CBC_1017_MSI_TV_v3_Vset5_Tset1_2023-06-25_09h48.15.887.csv,1,33,2,1,z,0,1,3,tac,B,9,1,2B,1B,0,1,z,2.41031959999999,0,1,1,1,1B,2B,B21,3.87120101090789,0.980493738721796,0.5,0.314567200677282,0.5,0.5,0.82220273298263,0.5,0.314567200677282,0.5,0.5,0.616862341342635,0.5,0.5,0.5,0.5,0.977810822338458,0.621843165554424,0.378156834445575,0.82220273298263,0.5,0.373801646760643,0.92964568253541,0.17779726701737,0.0659388898699194,0.5,0.370865598645437,1.08646332461112,3.50085362005299,3.0284893436639,0.5,56.361915019985
CBC_1017,CBC_1017_MSI_TV_v3_Vset5_Tset1_2023-06-25_09h48.15.887.csv,1,34,1,0,z,0,1,2,tac,A,63,1,1A,0A,0,1,z,3.35002190000002,0,1,1,1,0A,1A,A10,2.28238238567653,0.980493738721796,0.5,0.314567200677282,0.5,0.5,0.88814162285255,0.5,0.314567200677282,0.5,0.5,0.616862341342635,0.5,0.5,0.5,0.5,0.977810822338458,0.662274829725601,0.337725170274399,0.980493738721796,0.5,0.131432169253994,0.968892563476026,0.0195062612782037,0.0072342012662753,0.5,0.370865598645437,1.08646332461112,3.50085362005299,3.0284893436639,0.5,56.361915019985
CBC_1017,CBC_1017_MSI_TV_v3_Vset5_Tset1_2023-06-25_09h48.15.887.csv,1,35,2,1,b,1,0,0,tac,C,9,1,2C,1C,1,0,b,3.34449560000003,1,0,1,1,2C,1C,C21,3.91202300542815,0.987727939988072,0.5,0.314567200677282,0.5,0.5,0.88814162285255,0.5,0.314567200677282,0.5,0.5,0.616862341342635,0.5,0.5,0.5,0.5,0.977810822338458,0.552317253889208,0.447682746110792,0.616862341342635,0.5,0.152186210165538,0.752553859778905,0.383137658657365,0.142092577141575,0.5,0.370865598645437,1.08646332461112,3.50085362005299,3.0284893436639,0.5,56.361915019985
CBC_1017,CBC_1017_MSI_TV_v3_Vset5_Tset1_2023-06-25_09h48.15.887.csv,1,36,1,0,b,1,0,3,tac,B,63,1,1B,0B,1,0,b,2.2425724000001,1,0,1,1,1B,0B,B10,2.32238772029023,0.987727939988072,0.5,0.314567200677282,0.5,0.5,0.88814162285255,0.5,0.314567200677282,0.5,0.5,0.75895491848421,0.5,0.5,0.5,0.5,0.977810822338458,0.639806204375221,0.360193795624779,0.88814162285255,0.5,0.455729657664823,0.950991998290366,0.11185837714745,0.0414844240042962,0.5,0.370865598645437,1.08646332461112,3.50085362005299,3.0284893436639,0.5,56.361915019985
CBC_1017,CBC_1017_MSI_TV_v3_Vset5_Tset1_2023-06-25_09h48.15.887.csv,1,37,0,1,b,1,0,2,tac,A,63,0,0A,1A,0,1,b,3.2898828,1,0,1,0,0A,1A,A01,3.25809653802148,0.987727939988072,0.5,0.314567200677282,0.5,0.5,0.929626046856846,0.5,0.314567200677282,0.5,0.5,0.75895491848421,0.5,0.5,0.5,0.5,0.977810822338458,0.663917046550857,0.336082953449143,0.987727939988072,0.5,0.139595362118625,0.969865199013109,-0.987727939988072,-0.3663143137625,0.5,0.370865598645437,1.08646332461112,3.50085362005299,3.0284893436639,0.5,56.361915019985
CBC_1017,CBC_1017_MSI_TV_v3_Vset5_Tset1_2023-06-25_09h48.15.887.csv,1,38,0,1,z,0,1,3,tac,B,63,1,0B,1B,0,1,z,2.26754830000006,0,1,1,1,1B,0B,B01,3.27714473299218,0.621413626225571,0.5,0.314567200677282,0.5,0.5,0.929626046856846,0.5,0.314567200677282,0.5,0.5,0.75895491848421,0.5,0.5,0.5,0.5,0.977810822338458,0.650258190874955,0.349741809125045,0.929626046856846,0.5,0.455569717531812,0.960302857925086,0.0703739531431541,0.0260992782614818,0.5,0.370865598645437,1.08646332461112,3.50085362005299,3.0284893436639,0.5,56.361915019985
CBC_1017,CBC_1017_MSI_TV_v3_Vset5_Tset1_2023-06-25_09h48.15.887.csv,1,39,1,3,z,0,1,1,tac,D,27,1,1D,3D,0,1,z,2.53284459999999,0,1,1,1,3D,1D,D13,3.29583686600433,0.621413626225571,0.5,0.314567200677282,0.5,0.5,0.955725325118328,0.5,0.314567200677282,0.5,0.5,0.75895491848421,0.5,0.5,0.5,0.5,0.977810822338458,0.661661700914593,0.338338299085407,0.977810822338458,0.5,0.343599522754132,0.968667951369237,0.0221891776615425,0.00822920265689791,0.5,0.370865598645437,1.08646332461112,3.50085362005299,3.0284893436639,0.5,56.361915019985
CBC_1017,CBC_1017_MSI_TV_v3_Vset5_Tset1_2023-06-25_09h48.15.887.csv,1,40,3,2,z,0,1,0,tac,C,63,1,3C,2C,0,1,z,2.26870859999998,0,1,1,1,2C,3C,C32,2.62103882411258,0.621413626225571,0.5,0.314567200677282,0.5,0.5,0.955725325118328,0.5,0.314567200677282,0.5,0.5,0.75895491848421,0.5,0.5,0.5,0.5,0.986040024995355,0.602845191151083,0.397154808848917,0.75895491848421,0.5,0.389754628441521,0.898531607557786,0.24104508151579,0.0893953284568917,0.5,0.370865598645437,1.08646332461112,3.50085362005299,3.0284893436639,0.5,56.361915019985
CBC_1017,CBC_1017_MSI_TV_v3_Vset5_Tset1_2023-06-25_09h48.15.887.csv,1,41,0,2,b,1,0,2,tac,A,27,1,0A,2A,1,0,z,2.37229900000001,0,1,0,0,2A,0A,A02,3.3322045101752,0.621413626225571,0.5,0.314567200677282,0.5,0.5,0.955725325118328,0.5,0.314567200677282,0.5,0.5,0.848350246941101,0.5,0.5,0.5,0.5,0.986040024995355,0.336082953449143,0.663917046550857,0.314567200677282,0.621413626225571,0.0129133035260084,0.0303174260742009,-0.314567200677282,-0.116662153193399,0.5,0.370865598645437,1.08646332461112,3.50085362005299,3.0284893436639,0.5,56.361915019985
CBC_1017,CBC_1017_MSI_TV_v3_Vset5_Tset1_2023-06-25_09h48.15.887.csv,1,42,2,3,z,0,1,1,tac,D,63,1,2D,3D,0,1,z,2.89780430000009,0,1,1,1,3D,2D,D23,2.94443897916644,0.621413626225571,0.5,0.197905047483882,0.5,0.5,0.955725325118328,0.5,0.314567200677282,0.5,0.5,0.848350246941101,0.5,0.5,0.5,0.5,0.986040024995355,0.6635353075355,0.3364646924645,0.986040024995355,0.5,0.222882960326217,0.969807591762218,0.0139599750046446,0.00517727448717287,0.5,0.370865598645437,1.08646332461112,3.50085362005299,3.0284893436639,0.5,56.361915019985
CBC_1017,CBC_1017_MSI_TV_v3_Vset5_Tset1_2023-06-25_09h48.15.887.csv,1,43,1,3,b,1,0,3,tac,B,27,1,1B,3B,1,0,b,2.40064880000001,1,0,1,1,1B,3B,B13,3.36729582998647,0.621413626225571,0.5,0.197905047483882,0.5,0.5,0.955725325118328,0.5,0.314567200677282,0.5,0.5,0.848350246941101,0.5,0.5,0.5,0.5,0.991217299482528,0.752366329574157,0.247633670425843,0.955725325118328,0.314567200677282,0.312269913571784,0.99526115769856,0.0442746748816724,0.0164199538048235,0.5,0.370865598645437,1.08646332461112,3.50085362005299,3.0284893436639,0.5,56.361915019985
CBC_1017,CBC_1017_MSI_TV_v3_Vset5_Tset1_2023-06-25_09h48.15.887.csv,1,44,3,2,z,0,1,0,tac,C,63,1,3C,2C,0,1,z,1.54533419999997,0,1,1,1,2C,3C,C32,2.46809953147162,0.621413626225571,0.5,0.197905047483882,0.5,0.5,0.972145278923151,0.5,0.314567200677282,0.5,0.5,0.848350246941101,0.5,0.5,0.5,0.5,0.991217299482528,0.629176468699945,0.370823531300055,0.848350246941101,0.5,0.521088009091341,0.939340971101032,0.151649753058899,0.0562416764526211,0.5,0.370865598645437,1.08646332461112,3.50085362005299,3.0284893436639,0.5,56.361915019985
CBC_1017,CBC_1017_MSI_AV_v3_Vset3_Aset3_2023-06-25_10h04.01.692.csv,2,1,3,1,z,0,1,3,aud,B,27,1,3B,1B,0,1,z,2.01955879999991,0,1,1,1,1B,3B,B31,2.77258872223978,0.5,0.5,0.5,0.5,0.5,0.5,0.5,0.5,0.5,0.5,0.5,0.5,0.5,0.5,0.5,0.5,0.5,0.5,0.5,0.5,0.225359331469114,0.500589320819856,0.5,0.0340070517138114,0.5,0.0680141034276227,0.995716193935507,9.05348895066692,2.43963513162843,0.5,47.7326170295616
CBC_1017,CBC_1017_MSI_AV_v3_Vset3_Aset3_2023-06-25_10h04.01.692.csv,2,2,2,3,b,1,0,0,aud,C,63,1,2C,3C,1,0,b,2.29919670000004,1,0,1,1,2C,3C,C23,2.83321334405622,0.5,0.5,0.5,0.5,0.5,0.534007051713811,0.5,0.5,0.5,0.5,0.5,0.5,0.5,0.5,0.5,0.5,0.5,0.5,0.5,0.5,0.179203068705889,0.50050387546409,0.5,0.0340070517138114,0.5,0.0680141034276227,0.995716193935507,9.05348895066692,2.43963513162843,0.5,47.7326170295616
CBC_1017,CBC_1017_MSI_AV_v3_Vset3_Aset3_2023-06-25_10h04.01.692.csv,2,3,2,3,z,0,1,1,aud,D,63,1,2D,3D,0,1,z,2.88148130000013,0,1,1,1,3D,2D,D23,2.89037175789616,0.5,0.5,0.5,0.5,0.5,0.534007051713811,0.5,0.5,0.5,0.5,0.534007051713811,0.5,0.5,0.5,0.5,0.5,0.5,0.5,0.5,0.5,0.110348790867753,0.499202811510849,0.5,0.0340070517138114,0.5,0.0680141034276227,0.995716193935507,9.05348895066692,2.43963513162843,0.5,47.7326170295616
CBC_1017,CBC_1017_MSI_AV_v3_Vset3_Aset3_2023-06-25_10h04.01.692.csv,2,4,1,0,b,1,0,3,aud,B,63,1,1B,0B,1,0,b,1.41824159999987,1,0,1,1,1B,0B,B10,2.94443897916644,0.5,0.5,0.5,0.5,0.5,0.534007051713811,0.5,0.5,0.5,0.5,0.534007051713811,0.5,0.5,0.5,0.5,0.534007051713811,0.516444303574839,0.483555696425161,0.534007051713811,0.5,0.429499072117365,0.673604201845248,0.465992948286189,0.0316940925812797,0.5,0.0680141034276227,0.995716193935507,9.05348895066692,2.43963513162843,0.5,47.7326170295616
CBC_1017,CBC_1017_MSI_AV_v3_Vset3_Aset3_2023-06-25_10h04.01.692.csv,2,5,3,0,z,0,1,2,aud,A,9,1,3A,0A,0,1,z,1.91637639999999,0,1,1,1,0A,3A,A30,2.99573227355399,0.5,0.5,0.5,0.5,0.5,0.565701144295091,0.5,0.5,0.5,0.5,0.534007051713811,0.5,0.5,0.5,0.5,0.534007051713811,0.5,0.5,0.5,0.5,0.24422666308351,0.499678420228511,0.5,0.0340070517138114,0.5,0.0680141034276227,0.995716193935507,9.05348895066692,2.43963513162843,0.5,47.7326170295616
CBC_1017,CBC_1017_MSI_AV_v3_Vset3_Aset3_2023-06-25_10h04.01.692.csv,2,6,2,3,z,0,1,1,aud,D,63,1,2D,3D,0,1,b,2.32619340000019,1,0,0,0,2D,3D,D23,2.35137525716348,0.534007051713811,0.5,0.5,0.5,0.5,0.565701144295091,0.5,0.5,0.5,0.5,0.534007051713811,0.5,0.5,0.5,0.5,0.534007051713811,0.483555696425161,0.516444303574839,0.5,0.534007051713811,0.114908288654916,0.326348868938366,-0.5,-0.0340070517138114,0.5,0.0680141034276227,0.995716193935507,9.05348895066692,2.43963513162843,0.5,47.7326170295616
CBC_1017,CBC_1017_MSI_AV_v3_Vset3_Aset3_2023-06-25_10h04.01.692.csv,2,7,2,0,b,1,0,0,aud,C,27,1,2C,0C,1,0,b,2.57210459999988,1,0,1,1,2C,0C,C20,3.09104245335832,0.534007051713811,0.5,0.5,0.5,0.5,0.565701144295091,0.5,0.5,0.5,0.5,0.534007051713811,0.5,0.5,0.5,0.465992948286189,0.534007051713811,0.516444303574839,0.483555696425161,0.534007051713811,0.5,0.191599596142609,0.674304890872454,0.465992948286189,0.0316940925812797,0.5,0.0680141034276227,0.995716193935507,9.05348895066692,2.43963513162843,0.5,47.7326170295616
CBC_1017,CBC_1017_MSI_AV_v3_Vset3_Aset3_2023-06-25_10h04.01.692.csv,2,8,1,0,z,0,1,2,aud,A,63,1,1A,0A,0,1,z,2.24483099999998,0,1,1,1,0A,1A,A10,3.13549421592915,0.534007051713811,0.5,0.5,0.5,0.5,0.565701144295091,0.5,0.5,0.5,0.5,0.565701144295091,0.5,0.5,0.5,0.465992948286189,0.534007051713811,0.516444303574839,0.483555696425161,0.534007051713811,0.5,0.254757383253348,0.674092246936367,0.465992948286189,0.0316940925812797,0.5,0.0680141034276227,0.995716193935507,9.05348895066692,2.43963513162843,0.5,47.7326170295616
CBC_1017,CBC_1017_MSI_AV_v3_Vset3_Aset3_2023-06-25_10h04.01.692.csv,2,9,0,1,z,0,1,3,aud,B,63,1,0B,1B,0,1,z,2.08273110000005,0,1,1,1,1B,0B,B01,3.17805383034795,0.565701144295091,0.5,0.5,0.5,0.5,0.565701144295091,0.5,0.5,0.5,0.5,0.565701144295091,0.5,0.5,0.5,0.465992948286189,0.534007051713811,0.530825313760242,0.469174686239758,0.565701144295091,0.5,0.356585829131723,0.795875362506007,0.434298855704909,0.0295384472904119,0.5,0.0680141034276227,0.995716193935507,9.05348895066692,2.43963513162843,0.5,47.7326170295616
CBC_1017,CBC_1017_MSI_AV_v3_Vset3_Aset3_2023-06-25_10h04.01.692.csv,2,10,3,1,b,1,0,1,aud,D,27,1,3D,1D,1,0,z,2.98281180000004,0,1,0,0,1D,3D,D31,3.2188758248682,0.565701144295091,0.5,0.5,0.5,0.5,0.595239591585503,0.5,0.5,0.5,0.5,0.565701144295091,0.5,0.5,0.5,0.465992948286189,0.534007051713811,0.483555696425161,0.516444303574839,0.5,0.534007051713811,0.0648285370505227,0.326517383542429,-0.5,-0.0340070517138114,0.5,0.0680141034276227,0.995716193935507,9.05348895066692,2.43963513162843,0.5,47.7326170295616
CBC_1017,CBC_1017_MSI_AV_v3_Vset3_Aset3_2023-06-25_10h04.01.692.csv,2,11,2,3,b,1,0,0,aud,C,63,1,2C,3C,1,0,z,2.52039229999991,0,1,0,0,3C,2C,C23,2.56494935746154,0.565701144295091,0.5,0.5,0.5,0.5,0.595239591585503,0.5,0.5,0.5,0.5,0.565701144295091,0.5,0.5,0.465992948286189,0.465992948286189,0.534007051713811,0.469174686239758,0.530825313760242,0.5,0.565701144295091,0.0595820629713123,0.204190659564342,-0.5,-0.0340070517138114,0.5,0.0680141034276227,0.995716193935507,9.05348895066692,2.43963513162843,0.5,47.7326170295616
CBC_1017,CBC_1017_MSI_AV_v3_Vset3_Aset3_2023-06-25_10h04.01.692.csv,2,12,0,1,z,0,1,3,aud,B,63,1,0B,1B,0,1,z,3.29068979999988,0,1,1,1,1B,0B,B01,2.60268968544438,0.565701144295091,0.5,0.5,0.5,0.5,0.595239591585503,0.5,0.5,0.5,0.5,0.565701144295091,0.465992948286189,0.5,0.465992948286189,0.465992948286189,0.534007051713811,0.543478884582519,0.456521115417481,0.595239591585503,0.5,0.100964293889298,0.872359498831923,0.404760408414497,0.0275294162813104,0.5,0.0680141034276227,0.995716193935507,9.05348895066692,2.43963513162843,0.5,47.7326170295616
CBC_1017,CBC_1017_MSI_AV_v3_Vset3_Aset3_2023-06-25_10h04.01.692.csv,2,13,1,0,z,0,1,2,aud,A,63,1,1A,0A,0,1,z,1.22185480000007,0,1,1,1,0A,1A,A10,2.63905732961526,0.565701144295091,0.5,0.5,0.5,0.5,0.622769007866813,0.5,0.5,0.5,0.5,0.565701144295091,0.465992948286189,0.5,0.465992948286189,0.465992948286189,0.534007051713811,0.530825313760242,0.469174686239758,0.565701144295091,0.5,0.321027117707733,0.795452259953836,0.434298855704909,0.0295384472904119,0.5,0.0680141034276227,0.995716193935507,9.05348895066692,2.43963513162843,0.5,47.7326170295616
CBC_1017,CBC_1017_MSI_AV_v3_Vset3_Aset3_2023-06-25_10h04.01.692.csv,2,14,2,1,b,1,0,0,aud,C,9,1,2C,1C,1,0,b,2.0474114000001,1,0,1,1,2C,1C,C21,3.36729582998647,0.595239591585503,0.5,0.5,0.5,0.5,0.622769007866813,0.5,0.5,0.5,0.5,0.565701144295091,0.465992948286189,0.5,0.465992948286189,0.465992948286189,0.534007051713811,0.530825313760242,0.469174686239758,0.565701144295091,0.5,0.369152592896928,0.796153086174925,0.434298855704909,0.0295384472904119,0.5,0.0680141034276227,0.995716193935507,9.05348895066692,2.43963513162843,0.5,47.7326170295616
CBC_1017,CBC_1017_MSI_AV_v3_Vset3_Aset3_2023-06-25_10h04.01.692.csv,2,15,0,1,b,1,0,2,aud,A,63,1,0A,1A,1,0,b,1.41863349999994,1,0,1,1,0A,1A,A01,3.40119738166216,0.595239591585503,0.5,0.5,0.5,0.5,0.622769007866813,0.5,0.5,0.5,0.5,0.595239591585503,0.465992948286189,0.5,0.465992948286189,0.465992948286189,0.534007051713811,0.543478884582519,0.456521115417481,0.595239591585503,0.5,0.698389476445639,0.87229817713411,0.404760408414497,0.0275294162813104,0.5,0.0680141034276227,0.995716193935507,9.05348895066692,2.43963513162843,0.5,47.7326170295616
CBC_1017,CBC_1017_MSI_AV_v3_Vset3_Aset3_2023-06-25_10h04.01.692.csv,2,16,1,3,z,0,1,1,aud,D,27,1,1D,3D,0,1,z,2.38709300000005,0,1,1,1,3D,1D,D13,3.43398720448515,0.622769007866813,0.5,0.5,0.5,0.5,0.622769007866813,0.5,0.5,0.5,0.5,0.595239591585503,0.465992948286189,0.5,0.465992948286189,0.465992948286189,0.534007051713811,0.534007051713811,0.465992948286189,0.534007051713811,0.465992948286189,0.271108236986924,0.818219664210206,0.465992948286189,0.0316940925812797,0.5,0.0680141034276227,0.995716193935507,9.05348895066692,2.43963513162843,0.5,47.7326170295616
CBC_1017,CBC_1017_MSI_AV_v3_Vset3_Aset3_2023-06-25_10h04.01.692.csv,2,17,1,0,b,1,0,3,aud,B,63,1,1B,0B,1,0,b,1.64272989999995,1,0,1,1,1B,0B,B10,2.77258872223978,0.622769007866813,0.5,0.5,0.5,0.5,0.622769007866813,0.5,0.5,0.5,0.5,0.595239591585503,0.465992948286189,0.5,0.465992948286189,0.465992948286189,0.565701144295091,0.554672424606761,0.445327575393239,0.622769007866813,0.5,0.72146901028629,0.918079094866805,0.377230992133187,0.0256570277150513,0.5,0.0680141034276227,0.995716193935507,9.05348895066692,2.43963513162843,0.5,47.7326170295616
CBC_1017,CBC_1017_MSI_AV_v3_Vset3_Aset3_2023-06-25_10h04.01.692.csv,2,18,3,2,z,0,1,0,aud,C,63,0,3C,2C,1,0,z,2.77161660000002,0,1,1,0,2C,3C,C32,3.49650756146648,0.622769007866813,0.5,0.5,0.5,0.5,0.648426035581865,0.5,0.5,0.5,0.5,0.595239591585503,0.465992948286189,0.5,0.465992948286189,0.465992948286189,0.565701144295091,0.560894591167993,0.439105408832007,0.595239591585503,0.465992948286189,0.157860365768904,0.936445650456135,-0.595239591585503,-0.0404846871463123,0.5,0.0680141034276227,0.995716193935507,9.05348895066692,2.43963513162843,0.5,47.7326170295616
CBC_1017,CBC_1017_MSI_AV_v3_Vset3_Aset3_2023-06-25_10h04.01.692.csv,2,19,0,2,b,1,0,2,aud,A,27,1,0A,2A,1,0,b,1.44690500000002,1,0,1,1,0A,2A,A02,3.52636052461616,0.622769007866813,0.5,0.5,0.5,0.5,0.648426035581865,0.5,0.5,0.5,0.5,0.554754904439191,0.465992948286189,0.5,0.465992948286189,0.465992948286189,0.565701144295091,0.554672424606761,0.445327575393239,0.622769007866813,0.5,0.826575987905805,0.917598441211735,0.377230992133187,0.0256570277150513,0.5,0.0680141034276227,0.995716193935507,9.05348895066692,2.43963513162843,0.5,47.7326170295616
CBC_1017,CBC_1017_MSI_AV_v3_Vset3_Aset3_2023-06-25_10h04.01.692.csv,2,20,2,3,z,0,1,1,aud,D,63,1,2D,3D,0,1,b,2.8222323,1,0,0,0,2D,3D,D23,2.4567357728213,0.648426035581865,0.5,0.5,0.5,0.5,0.648426035581865,0.5,0.5,0.5,0.5,0.554754904439191,0.465992948286189,0.5,0.465992948286189,0.465992948286189,0.565701144295091,0.45167744163416,0.54832255836584,0.465992948286189,0.565701144295091,0.019797523970148,0.105587303447047,-0.465992948286189,-0.0316940925812797,0.5,0.0680141034276227,0.995716193935507,9.05348895066692,2.43963513162843,0.5,47.7326170295616
CBC_1017,CBC_1017_MSI_AV_v3_Vset3_Aset3_2023-06-25_10h04.01.692.csv,2,21,1,3,b,1,0,3,aud,B,27,1,1B,3B,1,0,b,2.14219539999999,1,0,1,1,1B,3B,B13,3.58351893845611,0.648426035581865,0.5,0.5,0.5,0.5,0.648426035581865,0.5,0.5,0.5,0.5,0.554754904439191,0.465992948286189,0.5,0.465992948286189,0.434298855704909,0.565701144295091,0.564621504120926,0.435378495879074,0.648426035581865,0.5,0.387323975373254,0.945477367198513,0.351573964418135,0.0239119879783944,0.5,0.0680141034276227,0.995716193935507,9.05348895066692,2.43963513162843,0.5,47.7326170295616
CBC_1017,CBC_1017_MSI_AV_v3_Vset3_Aset3_2023-06-25_10h04.01.692.csv,2,22,2,3,b,1,0,0,aud,C,63,1,2C,3C,1,0,b,1.66823820000013,1,0,1,1,2C,3C,C23,2.51230562397611,0.648426035581865,0.5,0.5,0.5,0.5,0.672338023560259,0.5,0.5,0.5,0.5,0.554754904439191,0.465992948286189,0.5,0.465992948286189,0.434298855704909,0.565701144295091,0.543478884582519,0.456521115417481,0.554754904439191,0.465992948286189,0.618712468291407,0.872135804765766,0.445245095560809,0.0302829459801146,0.5,0.0680141034276227,0.995716193935507,9.05348895066692,2.43963513162843,0.5,47.7326170295616
CBC_1017,CBC_1017_MSI_AV_v3_Vset3_Aset3_2023-06-25_10h04.01.692.csv,2,23,1,0,z,0,1,2,aud,A,63,1,1A,0A,0,1,z,1.2449072999998,0,1,1,1,0A,1A,A10,2.53897387105828,0.648426035581865,0.5,0.5,0.5,0.5,0.672338023560259,0.5,0.5,0.5,0.5,0.585037850419305,0.465992948286189,0.5,0.465992948286189,0.434298855704909,0.565701144295091,0.564621504120926,0.435378495879074,0.648426035581865,0.5,0.694171803472778,0.945522744355609,0.351573964418135,0.0239119879783944,0.5,0.0680141034276227,0.995716193935507,9.05348895066692,2.43963513162843,0.5,47.7326170295616
CBC_1017,CBC_1017_MSI_AV_v3_Vset3_Aset3_2023-06-25_10h04.01.692.csv,2,24,1,2,b,1,0,3,aud,B,9,1,1B,2B,1,0,b,2.08357839999985,1,0,1,1,1B,2B,B12,3.66356164612965,0.672338023560259,0.5,0.5,0.5,0.5,0.672338023560259,0.5,0.5,0.5,0.5,0.585037850419305,0.465992948286189,0.5,0.465992948286189,0.434298855704909,0.565701144295091,0.573501848484317,0.426498151515683,0.672338023560259,0.5,0.413522497870215,0.962518792195828,0.327661976439741,0.0222856355548718,0.5,0.0680141034276227,0.995716193935507,9.05348895066692,2.43963513162843,0.5,47.7326170295616
CBC_1017,CBC_1017_MSI_AV_v3_Vset3_Aset3_2023-06-25_10h04.01.692.csv,2,25,3,2,z,0,1,0,aud,C,63,1,3C,2C,0,1,z,2.83985310000003,0,1,1,1,2C,3C,C32,2.99573227355399,0.672338023560259,0.5,0.5,0.5,0.5,0.694623659115131,0.5,0.5,0.5,0.5,0.585037850419305,0.465992948286189,0.5,0.465992948286189,0.434298855704909,0.565701144295091,0.556632451817653,0.443367548182347,0.585037850419305,0.465992948286189,0.15178400302763,0.923893826709141,0.414962149580695,0.02822327856013,0.5,0.0680141034276227,0.995716193935507,9.05348895066692,2.43963513162843,0.5,47.7326170295616
CBC_1017,CBC_1017_MSI_AV_v3_Vset3_Aset3_2023-06-25_10h04.01.692.csv,2,26,3,2,b,1,0,1,aud,D,63,1,3D,2D,1,0,b,1.51558939999995,1,0,1,1,3D,2D,D32,3.71357206670431,0.672338023560259,0.5,0.5,0.5,0.5,0.694623659115131,0.5,0.5,0.5,0.5,0.613261128979435,0.465992948286189,0.5,0.465992948286189,0.434298855704909,0.565701144295091,0.565701144295091,0.434298855704909,0.565701144295091,0.434298855704909,0.916489805614907,0.94788210952025,0.434298855704909,0.0295384472904119,0.5,0.0680141034276227,0.995716193935507,9.05348895066692,2.43963513162843,0.5,47.7326170295616
CBC_1017,CBC_1017_MSI_AV_v3_Vset3_Aset3_2023-06-25_10h04.01.692.csv,2,27,1,0,b,1,0,3,aud,B,63,1,1B,0B,1,0,b,1.4113026,1,0,1,1,1B,0B,B10,2.63905732961526,0.672338023560259,0.5,0.5,0.5,0.5,0.694623659115131,0.5,0.5,0.5,0.5,0.613261128979435,0.465992948286189,0.5,0.465992948286189,0.434298855704909,0.595239591585503,0.58145814693612,0.41854185306388,0.694623659115131,0.5,1.16592747906269,0.973331366426622,0.305376340884869,0.0207698980332925,0.5,0.0680141034276227,0.995716193935507,9.05348895066692,2.43963513162843,0.5,47.7326170295616
CBC_1017,CBC_1017_MSI_AV_v3_Vset3_Aset3_2023-06-25_10h04.01.692.csv,2,28,2,0,z,0,1,2,aud,A,27,1,2A,0A,0,1,z,1.48738469999989,0,1,1,1,0A,2A,A20,3.76120011569356,0.672338023560259,0.5,0.5,0.5,0.5,0.715393557148423,0.5,0.5,0.5,0.5,0.613261128979435,0.465992948286189,0.5,0.465992948286189,0.434298855704909,0.595239591585503,0.573501848484317,0.426498151515683,0.672338023560259,0.5,1.02041364503872,0.962669836090487,0.327661976439741,0.0222856355548718,0.5,0.0680141034276227,0.995716193935507,9.05348895066692,2.43963513162843,0.5,47.7326170295616
CBC_1017,CBC_1017_MSI_AV_v3_Vset3_Aset3_2023-06-25_10h04.01.692.csv,2,29,3,1,b,1,0,1,aud,D,27,1,3D,1D,1,0,b,1.88049490000003,1,0,1,1,3D,1D,D31,3.09104245335832,0.694623659115131,0.5,0.5,0.5,0.5,0.715393557148423,0.5,0.5,0.5,0.5,0.613261128979435,0.465992948286189,0.5,0.465992948286189,0.434298855704909,0.595239591585503,0.560894591167993,0.439105408832007,0.595239591585503,0.465992948286189,0.563287508019946,0.936408629284223,0.404760408414497,0.0275294162813104,0.5,0.0680141034276227,0.995716193935507,9.05348895066692,2.43963513162843,0.5,47.7326170295616
CBC_1017,CBC_1017_MSI_AV_v3_Vset3_Aset3_2023-06-25_10h04.01.692.csv,2,30,0,1,b,1,0,2,aud,A,63,1,0A,1A,1,0,b,1.48818579999988,1,0,1,1,0A,1A,A01,3.11351530921037,0.694623659115131,0.5,0.5,0.5,0.5,0.715393557148423,0.5,0.5,0.5,0.5,0.613261128979435,0.465992948286189,0.5,0.465992948286189,0.434298855704909,0.622769007866813,0.58145814693612,0.41854185306388,0.694623659115131,0.5,1.10001348646554,0.973399521908082,0.305376340884869,0.0207698980332925,0.5,0.0680141034276227,0.995716193935507,9.05348895066692,2.43963513162843,0.5,47.7326170295616
CBC_1017,CBC_1017_MSI_AV_v3_Vset3_Aset3_2023-06-25_10h04.01.692.csv,2,31,0,2,z,0,1,0,aud,C,27,1,0C,2C,0,1,z,1.39803170000005,0,1,1,1,2C,0C,C02,3.8286413964891,0.715393557148423,0.5,0.5,0.5,0.5,0.715393557148423,0.5,0.5,0.5,0.5,0.613261128979435,0.465992948286189,0.5,0.465992948286189,0.434298855704909,0.622769007866813,0.550869075561484,0.449130924438516,0.613261128979435,0.5,0.779029898251523,0.904673869473709,0.386738871020565,0.0263036975730747,0.5,0.0680141034276227,0.995716193935507,9.05348895066692,2.43963513162843,0.5,47.7326170295616
CBC_1017,CBC_1017_MSI_AV_v3_Vset3_Aset3_2023-06-25_10h04.01.692.csv,2,32,3,2,b,1,0,1,aud,D,63,1,3D,2D,1,0,b,1.57846610000001,1,0,1,1,3D,2D,D32,3.15700042115011,0.715393557148423,0.5,0.5,0.5,0.5,0.715393557148423,0.5,0.5,0.5,0.5,0.63956482655251,0.465992948286189,0.5,0.465992948286189,0.434298855704909,0.622769007866813,0.58914761230423,0.41085238769577,0.622769007866813,0.434298855704909,1.02358563234081,0.980971513749192,0.377230992133187,0.0256570277150513,0.5,0.0680141034276227,0.995716193935507,9.05348895066692,2.43963513162843,0.5,47.7326170295616
CBC_1017,CBC_1017_MSI_AV_v3_Vset3_Aset3_2023-06-25_10h04.01.692.csv,2,33,0,1,z,0,1,3,aud,B,63,1,0B,1B,0,1,z,2.34444860000008,0,1,1,1,1B,0B,B01,2.77258872223978,0.715393557148423,0.5,0.5,0.5,0.5,0.715393557148423,0.5,0.5,0.5,0.5,0.63956482655251,0.465992948286189,0.5,0.465992948286189,0.434298855704909,0.648426035581865,0.58861062158902,0.41138937841098,0.715393557148423,0.5,0.215274186157531,0.980403576010403,0.284606442851577,0.0193572520402749,0.5,0.0680141034276227,0.995716193935507,9.05348895066692,2.43963513162843,0.5,47.7326170295616
CBC_1017,CBC_1017_MSI_AV_v3_Vset3_Aset3_2023-06-25_10h04.01.692.csv,2,34,1,0,z,0,1,2,aud,A,63,1,1A,0A,0,1,z,1.2163101000001,0,1,1,1,0A,1A,A10,2.50552593699074,0.715393557148423,0.5,0.5,0.5,0.5,0.734750809188698,0.5,0.5,0.5,0.5,0.63956482655251,0.465992948286189,0.5,0.465992948286189,0.434298855704909,0.648426035581865,0.58861062158902,0.41138937841098,0.715393557148423,0.5,0.859421295159923,0.980489403246835,0.284606442851577,0.0193572520402749,0.5,0.0680141034276227,0.995716193935507,9.05348895066692,2.43963513162843,0.5,47.7326170295616
CBC_1017,CBC_1017_MSI_AV_v3_Vset3_Aset3_2023-06-25_10h04.01.692.csv,2,35,3,2,b,1,0,1,aud,D,63,0,3D,2D,0,1,b,1.89807849999988,1,0,1,0,3D,2D,D32,2.81341071676004,0.734750809188698,0.5,0.5,0.5,0.5,0.734750809188698,0.5,0.5,0.5,0.5,0.63956482655251,0.465992948286189,0.5,0.465992948286189,0.434298855704909,0.648426035581865,0.598883465966352,0.401116534033648,0.648426035581865,0.434298855704909,0.518025065332192,0.987534640465806,-0.648426035581865,-0.0441021154492283,0.5,0.0680141034276227,0.995716193935507,9.05348895066692,2.43963513162843,0.5,47.7326170295616
CBC_1017,CBC_1017_MSI_AV_v3_Vset3_Aset3_2023-06-25_10h04.01.692.csv,2,36,0,2,z,0,1,0,aud,C,27,1,0C,2C,0,1,z,3.10621979999996,0,1,1,1,2C,0C,C02,3.23867845216438,0.734750809188698,0.5,0.5,0.5,0.5,0.734750809188698,0.5,0.5,0.5,0.5,0.63956482655251,0.465992948286189,0.5,0.465992948286189,0.434298855704909,0.604323920132636,0.561236018917296,0.438763981082704,0.63956482655251,0.5,0.0968788338094064,0.937404360649641,0.36043517344749,0.0245146751658107,0.5,0.0680141034276227,0.995716193935507,9.05348895066692,2.43963513162843,0.5,47.7326170295616
CBC_1017,CBC_1017_MSI_AV_v3_Vset3_Aset3_2023-06-25_10h04.01.692.csv,2,37,1,0,z,0,1,2,aud,A,63,1,1A,0A,0,1,z,1.60727419999989,0,1,1,1,0A,1A,A10,2.34180580614733,0.734750809188698,0.5,0.5,0.5,0.5,0.734750809188698,0.5,0.5,0.5,0.5,0.664079501718321,0.465992948286189,0.5,0.465992948286189,0.434298855704909,0.604323920132636,0.595059994065905,0.404940005934095,0.734750809188698,0.5,0.994361068297516,0.985212752145822,0.265249190811302,0.0180406858979331,0.5,0.0680141034276227,0.995716193935507,9.05348895066692,2.43963513162843,0.5,47.7326170295616
CBC_1017,CBC_1017_MSI_AV_v3_Vset3_Aset3_2023-06-25_10h04.01.692.csv,2,38,3,1,z,0,1,3,aud,B,27,1,3B,1B,0,1,z,2.78383239999994,0,1,1,1,1B,3B,B31,3.27714473299218,0.752791495086631,0.5,0.5,0.5,0.5,0.734750809188698,0.5,0.5,0.5,0.5,0.664079501718321,0.465992948286189,0.5,0.465992948286189,0.434298855704909,0.604323920132636,0.595059994065905,0.404940005934095,0.734750809188698,0.5,0.0693200647878724,0.985181007874864,0.265249190811302,0.0180406858979331,0.5,0.0680141034276227,0.995716193935507,9.05348895066692,2.43963513162843,0.5,47.7326170295616
CBC_1017,CBC_1017_MSI_AV_v3_Vset3_Aset3_2023-06-25_10h04.01.692.csv,2,39,2,3,b,1,0,0,aud,C,63,1,2C,3C,1,0,b,1.51829279999993,1,0,1,1,2C,3C,C23,2.60268968544438,0.752791495086631,0.5,0.5,0.5,0.5,0.752791495086631,0.5,0.5,0.5,0.5,0.664079501718321,0.465992948286189,0.5,0.465992948286189,0.434298855704909,0.604323920132636,0.587643298193555,0.412356701806445,0.664079501718321,0.465992948286189,1.11356334943807,0.979633581029919,0.335920498281679,0.0228473315135887,0.5,0.0680141034276227,0.995716193935507,9.05348895066692,2.43963513162843,0.5,47.7326170295616
CBC_1017,CBC_1017_MSI_AV_v3_Vset3_Aset3_2023-06-25_10h04.01.692.csv,2,40,2,3,z,0,1,1,aud,D,63,1,2D,3D,0,1,z,2.15980839999997,0,1,1,1,3D,2D,D23,2.62103882411258,0.752791495086631,0.5,0.5,0.5,0.5,0.752791495086631,0.5,0.5,0.5,0.5,0.686926833231909,0.465992948286189,0.5,0.465992948286189,0.434298855704909,0.604323920132636,0.581851211230477,0.418148788769523,0.604323920132636,0.434298855704909,0.341196422646449,0.973707099614109,0.395676079867364,0.0269115538199352,0.5,0.0680141034276227,0.995716193935507,9.05348895066692,2.43963513162843,0.5,47.7326170295616
CBC_1017,CBC_1017_MSI_AV_v3_Vset3_Aset3_2023-06-25_10h04.01.692.csv,2,41,1,0,b,1,0,3,aud,B,63,1,1B,0B,1,0,b,2.20147079999992,1,0,1,1,1B,0B,B10,2.63905732961526,0.752791495086631,0.5,0.5,0.5,0.5,0.752791495086631,0.5,0.5,0.5,0.5,0.686926833231909,0.465992948286189,0.5,0.465992948286189,0.434298855704909,0.631235473952572,0.600891288006848,0.399108711993151,0.752791495086631,0.5,0.240769401426404,0.98855127975228,0.247208504913369,0.0168136648213658,0.5,0.0680141034276227,0.995716193935507,9.05348895066692,2.43963513162843,0.5,47.7326170295616
CBC_1017,CBC_1017_MSI_AV_v3_Vset3_Aset3_2023-06-25_10h04.01.692.csv,2,42,0,2,b,1,0,2,aud,A,27,1,0A,2A,1,0,b,1.1333482,1,0,1,1,0A,2A,A02,3.3499040872746,0.752791495086631,0.5,0.5,0.5,0.5,0.769605159907997,0.5,0.5,0.5,0.5,0.686926833231909,0.465992948286189,0.5,0.465992948286189,0.434298855704909,0.631235473952572,0.600891288006848,0.399108711993151,0.752791495086631,0.5,0.315747335349471,0.98851879294541,0.247208504913369,0.0168136648213658,0.5,0.0680141034276227,0.995716193935507,9.05348895066692,2.43963513162843,0.5,47.7326170295616
CBC_1017,CBC_1017_MSI_AV_v3_Vset3_Aset3_2023-06-25_10h04.01.692.csv,2,43,0,3,z,0,1,1,aud,D,9,1,0D,3D,0,1,z,1.44305239999994,0,1,1,1,3D,0D,D03,4.06044301054642,0.769605159907997,0.5,0.5,0.5,0.5,0.769605159907997,0.5,0.5,0.5,0.5,0.686926833231909,0.465992948286189,0.5,0.465992948286189,0.434298855704909,0.631235473952572,0.558005374201196,0.441994625798804,0.631235473952572,0.5,0.868347716191429,0.928636505738312,0.368764526047428,0.0250811886150281,0.5,0.0680141034276227,0.995716193935507,9.05348895066692,2.43963513162843,0.5,47.7326170295616
CBC_1017,CBC_1017_MSI_AV_v3_Vset3_Aset3_2023-06-25_10h04.01.692.csv,2,44,2,3,b,1,0,0,aud,C,63,1,2C,3C,1,0,b,1.30950419999999,1,0,1,1,2C,3C,C23,2.46809953147162,0.769605159907997,0.5,0.5,0.5,0.5,0.769605159907997,0.5,0.5,0.5,0.5,0.686926833231909,0.465992948286189,0.5,0.465992948286189,0.434298855704909,0.6563166625676,0.595814942412909,0.404185057587091,0.686926833231909,0.465992948286189,1.33807252434591,0.985683658647568,0.313073166768091,0.0212933907449783,0.5,0.0680141034276227,0.995716193935507,9.05348895066692,2.43963513162843,0.5,47.7326170295616
CBC_1017,CBC_1017_MSI_AV_v3_Vset1_Aset2_2023-06-25_11h31.46.540.csv,3,1,0,1,z,0,1,3,aud,B,63,1,0B,1B,0,1,z,2.29527059999964,0,1,1,1,1B,0B,B01,2.77258872223978,0.5,0.5,0.5,0.5,0.5,0.5,0.5,0.5,0.5,0.5,0.5,0.5,0.5,0.5,0.5,0.5,0.5,0.5,0.5,0.5,0.148102780909181,0.500763590759233,0.5,0.0321860959395973,0.5,0.0643721918791946,0.715126743103879,7.00965140650811,2.71420700343644,0.5,66.8617859000395
CBC_1017,CBC_1017_MSI_AV_v3_Vset1_Aset2_2023-06-25_11h31.46.540.csv,3,2,1,0,z,0,1,2,aud,A,63,1,1A,0A,0,1,z,1.90512609999951,0,1,1,1,0A,1A,A10,2.83321334405622,0.5,0.5,0.5,0.5,0.5,0.532186095939597,0.5,0.5,0.5,0.5,0.5,0.5,0.5,0.5,0.5,0.5,0.5,0.5,0.5,0.5,0.191151671850172,0.499913814186366,0.5,0.0321860959395973,0.5,0.0643721918791946,0.715126743103879,7.00965140650811,2.71420700343644,0.5,66.8617859000395
CBC_1017,CBC_1017_MSI_AV_v3_Vset1_Aset2_2023-06-25_11h31.46.540.csv,3,3,2,1,b,1,0,0,aud,C,9,1,2C,1C,1,0,b,1.87123539999993,1,0,1,1,2C,1C,C21,2.89037175789616,0.532186095939597,0.5,0.5,0.5,0.5,0.532186095939597,0.5,0.5,0.5,0.5,0.5,0.5,0.5,0.5,0.5,0.5,0.5,0.5,0.5,0.5,0.195687156064388,0.500798952121241,0.5,0.0321860959395973,0.5,0.0643721918791946,0.715126743103879,7.00965140650811,2.71420700343644,0.5,66.8617859000395
CBC_1017,CBC_1017_MSI_AV_v3_Vset1_Aset2_2023-06-25_11h31.46.540.csv,3,4,0,1,b,1,0,2,aud,A,63,1,0A,1A,1,0,z,2.99798769999961,0,1,0,0,1A,0A,A01,2.94443897916644,0.532186095939597,0.5,0.5,0.5,0.5,0.532186095939597,0.5,0.5,0.5,0.5,0.532186095939597,0.5,0.5,0.5,0.5,0.5,0.484408772765778,0.515591227234222,0.5,0.532186095939597,0.0650524535026877,0.355914606328424,-0.5,-0.0321860959395973,0.5,0.0643721918791946,0.715126743103879,7.00965140650811,2.71420700343644,0.5,66.8617859000395
CBC_1017,CBC_1017_MSI_AV_v3_Vset1_Aset2_2023-06-25_11h31.46.540.csv,3,5,1,3,z,0,1,1,aud,D,27,1,1D,3D,0,1,z,1.58982079999987,0,1,1,1,3D,1D,D13,2.99573227355399,0.532186095939597,0.467813904060403,0.5,0.5,0.5,0.532186095939597,0.5,0.5,0.5,0.5,0.532186095939597,0.5,0.5,0.5,0.5,0.5,0.5,0.5,0.5,0.5,0.231741734986178,0.502040788567326,0.5,0.0321860959395973,0.5,0.0643721918791946,0.715126743103879,7.00965140650811,2.71420700343644,0.5,66.8617859000395
CBC_1017,CBC_1017_MSI_AV_v3_Vset1_Aset2_2023-06-25_11h31.46.540.csv,3,6,1,0,b,1,0,3,aud,B,63,1,1B,0B,1,0,z,2.86783379999997,0,1,0,0,0B,1B,B10,3.04452243772342,0.532186095939597,0.467813904060403,0.5,0.5,0.5,0.532186095939597,0.5,0.5,0.5,0.5,0.532186095939597,0.5,0.5,0.5,0.5,0.532186095939597,0.484408772765778,0.515591227234222,0.5,0.532186095939597,0.0710332848937942,0.35512460020095,-0.5,-0.0321860959395973,0.5,0.0643721918791946,0.715126743103879,7.00965140650811,2.71420700343644,0.5,66.8617859000395
CBC_1017,CBC_1017_MSI_AV_v3_Vset1_Aset2_2023-06-25_11h31.46.540.csv,3,7,3,2,z,0,1,0,aud,C,63,1,3C,2C,0,1,b,2.21261379999942,1,0,0,0,3C,2C,C32,3.09104245335832,0.532186095939597,0.467813904060403,0.5,0.5,0.467813904060403,0.532186095939597,0.5,0.5,0.5,0.5,0.532186095939597,0.5,0.5,0.5,0.5,0.532186095939597,0.484408772765778,0.515591227234222,0.5,0.532186095939597,0.111937150059761,0.355496572173689,-0.5,-0.0321860959395973,0.5,0.0643721918791946,0.715126743103879,7.00965140650811,2.71420700343644,0.5,66.8617859000395
CBC_1017,CBC_1017_MSI_AV_v3_Vset1_Aset2_2023-06-25_11h31.46.540.csv,3,8,0,2,b,1,0,2,aud,A,27,1,0A,2A,1,0,b,1.44838440000058,1,0,1,1,0A,2A,A02,3.13549421592915,0.532186095939597,0.467813904060403,0.5,0.5,0.467813904060403,0.532186095939597,0.5,0.5,0.5,0.5,0.532186095939597,0.467813904060403,0.5,0.5,0.5,0.532186095939597,0.515591227234222,0.484408772765778,0.532186095939597,0.5,0.324664147325076,0.644167383645071,0.467813904060403,0.0301142063959314,0.5,0.0643721918791946,0.715126743103879,7.00965140650811,2.71420700343644,0.5,66.8617859000395
CBC_1017,CBC_1017_MSI_AV_v3_Vset1_Aset2_2023-06-25_11h31.46.540.csv,3,9,2,3,z,0,1,1,aud,D,63,1,2D,3D,0,1,z,1.70972160000019,0,1,1,1,3D,2D,D23,3.17805383034795,0.562300302335529,0.467813904060403,0.5,0.5,0.467813904060403,0.532186095939597,0.5,0.5,0.5,0.5,0.532186095939597,0.467813904060403,0.5,0.5,0.5,0.532186095939597,0.515591227234222,0.484408772765778,0.532186095939597,0.5,0.283860601871808,0.644661386665863,0.467813904060403,0.0301142063959314,0.5,0.0643721918791946,0.715126743103879,7.00965140650811,2.71420700343644,0.5,66.8617859000395
CBC_1017,CBC_1017_MSI_AV_v3_Vset1_Aset2_2023-06-25_11h31.46.540.csv,3,10,1,3,b,1,0,3,aud,B,27,1,1B,3B,1,0,b,2.40210959999968,1,0,1,1,1B,3B,B13,3.2188758248682,0.562300302335529,0.467813904060403,0.5,0.5,0.467813904060403,0.532186095939597,0.5,0.5,0.5,0.5,0.532186095939597,0.467813904060403,0.5,0.5,0.5,0.562300302335529,0.515591227234222,0.484408772765778,0.532186095939597,0.5,0.177981498812631,0.644276247946959,0.467813904060403,0.0301142063959314,0.5,0.0643721918791946,0.715126743103879,7.00965140650811,2.71420700343644,0.5,66.8617859000395
CBC_1017,CBC_1017_MSI_AV_v3_Vset1_Aset2_2023-06-25_11h31.46.540.csv,3,11,2,3,b,1,0,0,aud,C,63,0,2C,3C,0,1,b,3.08844139999928,1,0,1,0,2C,3C,C23,3.25809653802148,0.562300302335529,0.467813904060403,0.5,0.5,0.467813904060403,0.562300302335529,0.5,0.5,0.5,0.5,0.532186095939597,0.467813904060403,0.5,0.5,0.5,0.562300302335529,0.532186095939597,0.467813904060403,0.532186095939597,0.467813904060403,0.1260268740745,0.772985262975579,-0.532186095939597,-0.0342579854832632,0.5,0.0643721918791946,0.715126743103879,7.00965140650811,2.71420700343644,0.5,66.8617859000395
CBC_1017,CBC_1017_MSI_AV_v3_Vset1_Aset2_2023-06-25_11h31.46.540.csv,3,12,3,1,z,0,1,3,aud,B,27,1,3B,1B,0,1,b,3.34724949999963,1,0,0,0,3B,1B,B31,3.29583686600433,0.562300302335529,0.467813904060403,0.5,0.5,0.467813904060403,0.562300302335529,0.5,0.5,0.5,0.5,0.497928110456334,0.467813904060403,0.5,0.5,0.5,0.562300302335529,0.470676699329484,0.529323300670516,0.5,0.562300302335529,0.0335796632435768,0.247185508076299,-0.5,-0.0321860959395973,0.5,0.0643721918791946,0.715126743103879,7.00965140650811,2.71420700343644,0.5,66.8617859000395
CBC_1017,CBC_1017_MSI_AV_v3_Vset1_Aset2_2023-06-25_11h31.46.540.csv,3,13,2,3,b,1,0,0,aud,C,63,1,2C,3C,1,0,b,3.46771290000015,1,0,1,1,2C,3C,C23,2.63905732961526,0.562300302335529,0.467813904060403,0.5,0.5,0.467813904060403,0.562300302335529,0.5,0.467813904060403,0.5,0.5,0.497928110456334,0.467813904060403,0.5,0.5,0.5,0.562300302335529,0.515591227234222,0.484408772765778,0.497928110456334,0.467813904060403,0.0851012784171512,0.645208498437435,0.502071889543666,0.0323194680108547,0.5,0.0643721918791946,0.715126743103879,7.00965140650811,2.71420700343644,0.5,66.8617859000395
CBC_1017,CBC_1017_MSI_AV_v3_Vset1_Aset2_2023-06-25_11h31.46.540.csv,3,14,2,3,z,0,1,1,aud,D,63,1,2D,3D,0,1,z,1.24657630000002,0,1,1,1,3D,2D,D23,2.67414864942653,0.562300302335529,0.467813904060403,0.5,0.5,0.467813904060403,0.562300302335529,0.5,0.467813904060403,0.5,0.5,0.530247578467189,0.467813904060403,0.5,0.5,0.5,0.562300302335529,0.529323300670516,0.470676699329484,0.562300302335529,0.5,0.413085612072342,0.753659424562265,0.437699697664471,0.0281756889235228,0.5,0.0643721918791946,0.715126743103879,7.00965140650811,2.71420700343644,0.5,66.8617859000395
CBC_1017,CBC_1017_MSI_AV_v3_Vset1_Aset2_2023-06-25_11h31.46.540.csv,3,15,3,0,z,0,1,2,aud,A,9,1,3A,0A,0,1,z,2.0908088999995,0,1,1,1,0A,3A,A30,3.40119738166216,0.562300302335529,0.467813904060403,0.5,0.5,0.467813904060403,0.562300302335529,0.5,0.467813904060403,0.5,0.5,0.530247578467189,0.467813904060403,0.5,0.5,0.5,0.590475991259052,0.529323300670516,0.470676699329484,0.562300302335529,0.5,0.263413872998577,0.753200847246947,0.437699697664471,0.0281756889235228,0.5,0.0643721918791946,0.715126743103879,7.00965140650811,2.71420700343644,0.5,66.8617859000395
CBC_1017,CBC_1017_MSI_AV_v3_Vset1_Aset2_2023-06-25_11h31.46.540.csv,3,16,1,0,b,1,0,3,aud,B,63,0,1B,0B,0,1,b,2.51327320000019,1,0,1,0,1B,0B,B10,2.7408400239252,0.590475991259052,0.467813904060403,0.5,0.5,0.467813904060403,0.562300302335529,0.5,0.467813904060403,0.5,0.5,0.530247578467189,0.467813904060403,0.5,0.5,0.5,0.590475991259052,0.545862098439408,0.454137901560592,0.562300302335529,0.467813904060403,0.210943589802694,0.851197818936468,-0.562300302335529,-0.0361965029556718,0.5,0.0643721918791946,0.715126743103879,7.00965140650811,2.71420700343644,0.5,66.8617859000395
CBC_1017,CBC_1017_MSI_AV_v3_Vset1_Aset2_2023-06-25_11h31.46.540.csv,3,17,3,2,b,1,0,1,aud,D,63,1,3D,2D,1,0,b,1.90472150000005,1,0,1,1,3D,2D,D32,3.46573590279973,0.590475991259052,0.467813904060403,0.5,0.5,0.467813904060403,0.526103799379857,0.5,0.467813904060403,0.5,0.5,0.530247578467189,0.467813904060403,0.5,0.5,0.5,0.590475991259052,0.541484632391855,0.458515367608145,0.590475991259052,0.5,0.344311513375256,0.828975507154279,0.409524008740948,0.0263619580698093,0.5,0.0643721918791946,0.715126743103879,7.00965140650811,2.71420700343644,0.5,66.8617859000395
CBC_1017,CBC_1017_MSI_AV_v3_Vset1_Aset2_2023-06-25_11h31.46.540.csv,3,18,2,0,b,1,0,0,aud,C,27,1,2C,0C,1,0,b,3.60515069999929,1,0,1,1,2C,0C,C20,3.49650756146648,0.590475991259052,0.467813904060403,0.5,0.5,0.467813904060403,0.526103799379857,0.5,0.467813904060403,0.5,0.5,0.530247578467189,0.467813904060403,0.5,0.5,0.5,0.616837949328861,0.514679761981189,0.485320238018811,0.530247578467189,0.5,0.0764623567959985,0.635412057219885,0.469752421532811,0.0302389930146264,0.5,0.0643721918791946,0.715126743103879,7.00965140650811,2.71420700343644,0.5,66.8617859000395
CBC_1017,CBC_1017_MSI_AV_v3_Vset1_Aset2_2023-06-25_11h31.46.540.csv,3,19,1,0,z,0,1,2,aud,A,63,1,1A,0A,0,1,z,1.62880979999954,0,1,1,1,0A,1A,A10,2.83321334405622,0.590475991259052,0.467813904060403,0.5,0.5,0.467813904060403,0.526103799379857,0.5,0.467813904060403,0.5,0.5,0.560486571481815,0.467813904060403,0.5,0.5,0.5,0.616837949328861,0.557952970987039,0.442047029012961,0.590475991259052,0.467813904060403,0.503760923152578,0.900830884102328,0.409524008740948,0.0263619580698093,0.5,0.0643721918791946,0.715126743103879,7.00965140650811,2.71420700343644,0.5,66.8617859000395
CBC_1017,CBC_1017_MSI_AV_v3_Vset1_Aset2_2023-06-25_11h31.46.540.csv,3,20,0,1,z,0,1,3,aud,B,63,1,0B,1B,0,1,z,2.32356429999982,0,1,1,1,1B,0B,B01,2.86220088092947,0.616837949328861,0.467813904060403,0.5,0.5,0.467813904060403,0.526103799379857,0.5,0.467813904060403,0.5,0.5,0.560486571481815,0.467813904060403,0.5,0.5,0.5,0.616837949328861,0.529323300670516,0.470676699329484,0.526103799379857,0.467813904060403,0.22122706448678,0.752981483885739,0.473896200620143,0.0305057371571412,0.5,0.0643721918791946,0.715126743103879,7.00965140650811,2.71420700343644,0.5,66.8617859000395
CBC_1017,CBC_1017_MSI_AV_v3_Vset1_Aset2_2023-06-25_11h31.46.540.csv,3,21,3,1,b,1,0,1,aud,D,27,1,3D,1D,1,0,b,1.08175989999927,1,0,1,1,3D,1D,D31,3.58351893845611,0.616837949328861,0.467813904060403,0.5,0.5,0.467813904060403,0.556609536536998,0.5,0.467813904060403,0.5,0.5,0.560486571481815,0.467813904060403,0.5,0.5,0.5,0.616837949328861,0.552307476388617,0.447692523611383,0.616837949328861,0.5,0.485013275254348,0.879779591882881,0.383162050671139,0.0246649810466283,0.5,0.0643721918791946,0.715126743103879,7.00965140650811,2.71420700343644,0.5,66.8617859000395
CBC_1017,CBC_1017_MSI_AV_v3_Vset1_Aset2_2023-06-25_11h31.46.540.csv,3,22,2,3,b,1,0,0,aud,C,63,1,2C,3C,1,0,b,2.18514450000021,1,0,1,1,2C,3C,C23,2.51230562397611,0.616837949328861,0.467813904060403,0.5,0.5,0.467813904060403,0.556609536536998,0.5,0.467813904060403,0.5,0.5,0.560486571481815,0.467813904060403,0.5,0.5,0.5,0.641502930375489,0.545061083615928,0.454938916384072,0.560486571481815,0.467813904060403,0.279594272543993,0.847195634423197,0.439513428518185,0.0282924427540553,0.5,0.0643721918791946,0.715126743103879,7.00965140650811,2.71420700343644,0.5,66.8617859000395
CBC_1017,CBC_1017_MSI_AV_v3_Vset1_Aset2_2023-06-25_11h31.46.540.csv,3,23,1,0,z,0,1,2,aud,A,63,1,1A,0A,0,1,z,1.55879149999964,0,1,1,1,0A,1A,A10,2.53897387105828,0.616837949328861,0.467813904060403,0.5,0.5,0.467813904060403,0.556609536536998,0.5,0.467813904060403,0.5,0.5,0.58877901423587,0.467813904060403,0.5,0.5,0.5,0.641502930375489,0.568696718123329,0.43130328187667,0.616837949328861,0.467813904060403,0.585658064935118,0.931698931256264,0.383162050671139,0.0246649810466283,0.5,0.0643721918791946,0.715126743103879,7.00965140650811,2.71420700343644,0.5,66.8617859000395
CBC_1017,CBC_1017_MSI_AV_v3_Vset1_Aset2_2023-06-25_11h31.46.540.csv,3,24,3,2,b,1,0,1,aud,D,63,1,3D,2D,1,0,b,0.877481399999851,1,0,1,1,3D,2D,D32,2.9704144655697,0.641502930375489,0.467813904060403,0.5,0.5,0.467813904060403,0.556609536536998,0.5,0.467813904060403,0.5,0.5,0.58877901423587,0.467813904060403,0.5,0.5,0.5,0.641502930375489,0.561980975523621,0.438019024476379,0.641502930375489,0.5,0.0872570743792734,0.913908262124499,0.358497069624511,0.023077242153998,0.5,0.0643721918791946,0.715126743103879,7.00965140650811,2.71420700343644,0.5,66.8617859000395
CBC_1017,CBC_1017_MSI_AV_v3_Vset1_Aset2_2023-06-25_11h31.46.540.csv,3,25,0,2,z,0,1,0,aud,C,27,1,0C,2C,0,1,z,1.71017920000031,0,1,1,1,2C,0C,C02,3.68887945411394,0.641502930375489,0.467813904060403,0.5,0.5,0.467813904060403,0.556609536536998,0.5,0.467813904060403,0.5,0.5,0.58877901423587,0.467813904060403,0.5,0.5,0.5,0.664580172529487,0.540769987791406,0.459230012208594,0.58877901423587,0.5,0.397945699096521,0.824532116706936,0.41122098576413,0.0264711962003601,0.5,0.0643721918791946,0.715126743103879,7.00965140650811,2.71420700343644,0.5,66.8617859000395
CBC_1017,CBC_1017_MSI_AV_v3_Vset1_Aset2_2023-06-25_11h31.46.540.csv,3,26,1,0,z,0,1,2,aud,A,63,1,1A,0A,0,1,z,1.88853609999933,0,1,1,1,0A,1A,A10,2.32727770558442,0.641502930375489,0.467813904060403,0.5,0.5,0.467813904060403,0.556609536536998,0.5,0.467813904060403,0.5,0.5,0.615250210436231,0.467813904060403,0.5,0.5,0.5,0.664580172529487,0.578286482690678,0.421713517309322,0.641502930375489,0.467813904060403,0.422700383588966,0.951710990638151,0.358497069624511,0.023077242153998,0.5,0.0643721918791946,0.715126743103879,7.00965140650811,2.71420700343644,0.5,66.8617859000395
CBC_1017,CBC_1017_MSI_AV_v3_Vset1_Aset2_2023-06-25_11h31.46.540.csv,3,27,3,1,z,0,1,3,aud,B,27,1,3B,1B,0,1,z,1.04556869999942,0,1,1,1,1B,3B,B31,3.04452243772342,0.664580172529487,0.467813904060403,0.5,0.5,0.467813904060403,0.556609536536998,0.5,0.467813904060403,0.5,0.5,0.615250210436231,0.467813904060403,0.5,0.5,0.5,0.664580172529487,0.543339320908556,0.456660679091444,0.556609536536998,0.467813904060403,0.376319928453435,0.838290706653972,0.443390463463002,0.0285420159914454,0.5,0.0643721918791946,0.715126743103879,7.00965140650811,2.71420700343644,0.5,66.8617859000395
CBC_1017,CBC_1017_MSI_AV_v3_Vset1_Aset2_2023-06-25_11h31.46.540.csv,3,28,2,3,b,1,0,0,aud,C,63,1,2C,3C,1,0,b,1.41042399999969,1,0,1,1,2C,3C,C23,2.37490575457367,0.664580172529487,0.467813904060403,0.5,0.5,0.467813904060403,0.585151552528443,0.5,0.467813904060403,0.5,0.5,0.615250210436231,0.467813904060403,0.5,0.5,0.5,0.664580172529487,0.568064440693038,0.431935559306962,0.615250210436231,0.467813904060403,0.66068407185978,0.930224217251503,0.384749789563769,0.0247671872792787,0.5,0.0643721918791946,0.715126743103879,7.00965140650811,2.71420700343644,0.5,66.8617859000395
CBC_1017,CBC_1017_MSI_AV_v3_Vset1_Aset2_2023-06-25_11h31.46.540.csv,3,29,2,3,z,0,1,1,aud,D,63,0,2D,3D,1,0,z,1.33084239999971,0,1,1,0,3D,2D,D23,2.68557734525015,0.664580172529487,0.467813904060403,0.5,0.5,0.467813904060403,0.585151552528443,0.5,0.467813904060403,0.5,0.5,0.640017397715509,0.467813904060403,0.5,0.5,0.5,0.664580172529487,0.570660730970551,0.429339269029449,0.664580172529487,0.5,0.711556152915604,0.936182965405606,-0.664580172529487,-0.0427804823851764,0.5,0.0643721918791946,0.715126743103879,7.00965140650811,2.71420700343644,0.5,66.8617859000395
CBC_1017,CBC_1017_MSI_AV_v3_Vset1_Aset2_2023-06-25_11h31.46.540.csv,3,30,1,0,b,1,0,3,aud,B,63,1,1B,0B,1,0,z,2.90541050000047,0,1,0,0,0B,1B,B10,2.70805020110221,0.664580172529487,0.467813904060403,0.5,0.5,0.467813904060403,0.585151552528443,0.5,0.467813904060403,0.5,0.5,0.640017397715509,0.467813904060403,0.5,0.5,0.5,0.621799690144311,0.444282289730489,0.555717710269511,0.467813904060403,0.585151552528443,0.0174835409279638,0.10726154991545,-0.467813904060403,-0.0301142063959314,0.5,0.0643721918791946,0.715126743103879,7.00965140650811,2.71420700343644,0.5,66.8617859000395
CBC_1017,CBC_1017_MSI_AV_v3_Vset1_Aset2_2023-06-25_11h31.46.540.csv,3,31,0,2,b,1,0,2,aud,A,27,1,0A,2A,1,0,b,1.5496635999998,1,0,1,1,0A,2A,A02,3.13549421592915,0.664580172529487,0.467813904060403,0.5,0.5,0.437699697664471,0.585151552528443,0.5,0.467813904060403,0.5,0.5,0.640017397715509,0.467813904060403,0.5,0.5,0.5,0.621799690144311,0.570660730970551,0.429339269029449,0.664580172529487,0.5,0.600187084381506,0.936585575073537,0.335419827470513,0.0215917094940182,0.5,0.0643721918791946,0.715126743103879,7.00965140650811,2.71420700343644,0.5,66.8617859000395
CBC_1017,CBC_1017_MSI_AV_v3_Vset1_Aset2_2023-06-25_11h31.46.540.csv,3,32,0,3,z,0,1,1,aud,D,9,1,0D,3D,0,1,z,1.62244559999908,0,1,1,1,3D,0D,D03,3.85014760171006,0.686171882023505,0.467813904060403,0.5,0.5,0.437699697664471,0.585151552528443,0.5,0.467813904060403,0.5,0.5,0.640017397715509,0.467813904060403,0.5,0.5,0.5,0.621799690144311,0.554287628715891,0.445712371284109,0.621799690144311,0.5,0.489701466665067,0.887312795681203,0.378200309855689,0.0243455829148013,0.5,0.0643721918791946,0.715126743103879,7.00965140650811,2.71420700343644,0.5,66.8617859000395
CBC_1017,CBC_1017_MSI_AV_v3_Vset1_Aset2_2023-06-25_11h31.46.540.csv,3,33,2,3,b,1,0,0,aud,C,63,1,2C,3C,1,0,b,2.3274421999995,1,0,1,1,2C,3C,C23,2.26176309847379,0.686171882023505,0.467813904060403,0.5,0.5,0.437699697664471,0.585151552528443,0.5,0.467813904060403,0.5,0.5,0.640017397715509,0.467813904060403,0.5,0.5,0.5,0.646145273059112,0.577720991173952,0.422279008826048,0.640017397715509,0.467813904060403,0.243799204975292,0.950673063486467,0.359982602284491,0.023172869147429,0.5,0.0643721918791946,0.715126743103879,7.00965140650811,2.71420700343644,0.5,66.8617859000395
CBC_1017,CBC_1017_MSI_AV_v3_Vset1_Aset2_2023-06-25_11h31.46.540.csv,3,34,1,0,b,1,0,3,aud,B,63,1,1B,0B,1,0,b,1.83050329999969,1,0,1,1,1B,0B,B10,2.50552593699074,0.686171882023505,0.467813904060403,0.5,0.5,0.437699697664471,0.585151552528443,0.5,0.467813904060403,0.5,0.5,0.663190266862938,0.467813904060403,0.5,0.5,0.5,0.646145273059112,0.572078835918792,0.427921164081208,0.585151552528443,0.437699697664471,0.446996121402259,0.939470128377357,0.414848447471557,0.026704703861425,0.5,0.0643721918791946,0.715126743103879,7.00965140650811,2.71420700343644,0.5,66.8617859000395
CBC_1017,CBC_1017_MSI_AV_v3_Vset1_Aset2_2023-06-25_11h31.46.540.csv,3,35,1,0,z,0,1,2,aud,A,63,0,1A,0A,1,0,z,2.24326299999939,0,1,1,0,0A,1A,A10,2.30258509299405,0.686171882023505,0.467813904060403,0.5,0.5,0.437699697664471,0.611856256389868,0.5,0.467813904060403,0.5,0.5,0.663190266862938,0.467813904060403,0.5,0.5,0.5,0.646145273059112,0.594610341217507,0.405389658782493,0.686171882023505,0.467813904060403,0.241105066221989,0.973572190754891,-0.686171882023505,-0.0441703880517252,0.5,0.0643721918791946,0.715126743103879,7.00965140650811,2.71420700343644,0.5,66.8617859000395
CBC_1017,CBC_1017_MSI_AV_v3_Vset1_Aset2_2023-06-25_11h31.46.540.csv,3,36,3,2,b,1,0,1,aud,D,63,1,3D,2D,1,0,b,1.07440889999998,1,0,1,1,3D,2D,D32,2.83321334405622,0.64200149397178,0.467813904060403,0.5,0.5,0.437699697664471,0.611856256389868,0.5,0.467813904060403,0.5,0.5,0.663190266862938,0.467813904060403,0.5,0.5,0.5,0.646145273059112,0.563755126201866,0.436244873798134,0.646145273059112,0.5,0.565234915871299,0.919020259946214,0.353854726940888,0.0227784043799989,0.5,0.0643721918791946,0.715126743103879,7.00965140650811,2.71420700343644,0.5,66.8617859000395
CBC_1017,CBC_1017_MSI_AV_v3_Vset1_Aset2_2023-06-25_11h31.46.540.csv,3,37,2,1,z,0,1,3,aud,B,9,1,2B,1B,0,1,b,3.45838009999989,1,0,0,0,2B,1B,B21,3.95124371858143,0.64200149397178,0.467813904060403,0.5,0.5,0.437699697664471,0.611856256389868,0.5,0.467813904060403,0.5,0.5,0.663190266862938,0.467813904060403,0.5,0.5,0.5,0.668923677439111,0.44969841841199,0.55030158158801,0.5,0.611856256389868,0.013254591312047,0.129044337203547,-0.5,-0.0321860959395973,0.5,0.0643721918791946,0.715126743103879,7.00965140650811,2.71420700343644,0.5,66.8617859000395
CBC_1017,CBC_1017_MSI_AV_v3_Vset1_Aset2_2023-06-25_11h31.46.540.csv,3,38,0,2,b,1,0,2,aud,A,27,1,0A,2A,1,0,b,1.58339389999946,1,0,1,1,0A,2A,A02,2.87167962488401,0.64200149397178,0.467813904060403,0.5,0.5,0.437699697664471,0.611856256389868,0.467813904060403,0.467813904060403,0.5,0.5,0.663190266862938,0.467813904060403,0.5,0.5,0.5,0.668923677439111,0.562172201490697,0.437827798509303,0.64200149397178,0.5,0.543474467589214,0.914203242408799,0.35799850602822,0.0230451485225136,0.5,0.0643721918791946,0.715126743103879,7.00965140650811,2.71420700343644,0.5,66.8617859000395
CBC_1017,CBC_1017_MSI_AV_v3_Vset1_Aset2_2023-06-25_11h31.46.540.csv,3,39,3,2,z,0,1,0,aud,C,63,1,3C,2C,0,1,z,3.78501349999988,0,1,1,1,2C,3C,C32,3.29583686600433,0.665046642494294,0.467813904060403,0.5,0.5,0.437699697664471,0.611856256389868,0.467813904060403,0.467813904060403,0.5,0.5,0.663190266862938,0.467813904060403,0.5,0.5,0.5,0.668923677439111,0.586372962994041,0.413627037005959,0.663190266862938,0.467813904060403,0.029761067656291,0.963909514115174,0.336809733137062,0.0216811807682793,0.5,0.0643721918791946,0.715126743103879,7.00965140650811,2.71420700343644,0.5,66.8617859000395
CBC_1017,CBC_1017_MSI_AV_v3_Vset1_Aset2_2023-06-25_11h31.46.540.csv,3,40,3,1,b,1,0,1,aud,D,27,1,3D,1D,1,0,b,2.17577720000008,1,0,1,1,3D,1D,D31,3.31418600467253,0.665046642494294,0.467813904060403,0.5,0.5,0.437699697664471,0.611856256389868,0.467813904060403,0.467813904060403,0.5,0.5,0.684871447631218,0.467813904060403,0.5,0.5,0.5,0.668923677439111,0.572256076551204,0.427743923448796,0.668923677439111,0.5,0.299189705509475,0.939995400175191,0.331076322560889,0.0213121085625477,0.5,0.0643721918791946,0.715126743103879,7.00965140650811,2.71420700343644,0.5,66.8617859000395
CBC_1017,CBC_1017_MSI_AV_v3_Vset1_Aset2_2023-06-25_11h31.46.540.csv,3,41,1,0,z,0,1,2,aud,A,63,1,1A,0A,0,1,z,2.61962700000004,0,1,1,1,0A,1A,A10,2.23359222150709,0.665046642494294,0.467813904060403,0.5,0.5,0.437699697664471,0.611856256389868,0.467813904060403,0.467813904060403,0.5,0.5,0.684871447631218,0.467813904060403,0.5,0.5,0.5,0.690235786001659,0.58705075793915,0.41294924206085,0.665046642494294,0.467813904060403,0.15105204333787,0.964847889908424,0.334953357505706,0.0215616817999378,0.5,0.0643721918791946,0.715126743103879,7.00965140650811,2.71420700343644,0.5,66.8617859000395
CBC_1017,CBC_1017_MSI_AV_v3_Vset1_Aset2_2023-06-25_11h31.46.540.csv,3,42,2,0,b,1,0,0,aud,C,27,1,2C,0C,1,0,b,1.63029609999921,1,0,1,1,2C,0C,C20,3.3499040872746,0.686608324294232,0.467813904060403,0.5,0.5,0.437699697664471,0.611856256389868,0.467813904060403,0.467813904060403,0.5,0.5,0.684871447631218,0.467813904060403,0.5,0.5,0.5,0.690235786001659,0.578013293341151,0.421986706658849,0.684871447631218,0.5,0.576508971757751,0.951175552941534,0.315128552368782,0.0202855156396961,0.5,0.0643721918791946,0.715126743103879,7.00965140650811,2.71420700343644,0.5,66.8617859000395
CBC_1017,CBC_1017_MSI_AV_v3_Vset1_Aset2_2023-06-25_11h31.46.540.csv,3,43,2,3,z,0,1,1,aud,D,63,1,2D,3D,0,1,z,1.46930310000062,0,1,1,1,3D,2D,D23,2.67414864942653,0.686608324294232,0.467813904060403,0.5,0.5,0.437699697664471,0.611856256389868,0.467813904060403,0.467813904060403,0.5,0.5,0.705156963270914,0.467813904060403,0.5,0.5,0.5,0.690235786001659,0.579915168170466,0.420084831829534,0.690235786001659,0.5,0.695144043204613,0.954578330412471,0.309764213998341,0.0199402014208091,0.5,0.0643721918791946,0.715126743103879,7.00965140650811,2.71420700343644,0.5,66.8617859000395
CBC_1017,CBC_1017_MSI_AV_v3_Vset1_Aset2_2023-06-25_11h31.46.540.csv,3,44,0,1,z,0,1,3,aud,B,63,1,0B,1B,0,1,z,1.66690769999968,0,1,1,1,1B,0B,B01,2.97892515523761,0.686608324294232,0.467813904060403,0.5,0.5,0.437699697664471,0.611856256389868,0.467813904060403,0.467813904060403,0.5,0.5,0.705156963270914,0.467813904060403,0.5,0.5,0.5,0.710175987422468,0.5829667813577,0.4170332186423,0.611856256389868,0.437699697664471,0.56331378635639,0.959051632956794,0.388143743610132,0.0249856635403803,0.5,0.0643721918791946,0.715126743103879,7.00965140650811,2.71420700343644,0.5,66.8617859000395
CBC_1017,CBC_1017_MSI_TV_v3_Vset6_Tset2_2023-06-25_11h49.37.760.csv,4,1,1,0,z,0,1,2,tac,A,63,1,1A,0A,0,1,z,2.61624110000048,0,1,1,1,0A,1A,A10,2.77258872223978,0.5,0.5,0.5,0.5,0.5,0.5,0.5,0.5,0.5,0.5,0.5,0.5,0.5,0.5,0.5,0.5,0.5,0.5,0.5,0.5,0.147630004468455,0.498185111045323,0.5,0.041457385892648,0.5,0.0829147717852959,1.07308832351886,5.52625370491283,3.05678084082012,0.5,81.4650468223854
CBC_1017,CBC_1017_MSI_TV_v3_Vset6_Tset2_2023-06-25_11h49.37.760.csv,4,2,3,2,b,1,0,1,tac,D,63,1,3D,2D,1,0,b,2.94372759999987,1,0,1,1,3D,2D,D32,2.83321334405622,0.541457385892648,0.5,0.5,0.5,0.5,0.5,0.5,0.5,0.5,0.5,0.5,0.5,0.5,0.5,0.5,0.5,0.5,0.5,0.5,0.5,0.124801147642115,0.499006555809541,0.5,0.041457385892648,0.5,0.0829147717852959,1.07308832351886,5.52625370491283,3.05678084082012,0.5,81.4650468223854
CBC_1017,CBC_1017_MSI_TV_v3_Vset6_Tset2_2023-06-25_11h49.37.760.csv,4,3,2,0,b,1,0,0,tac,C,27,1,2C,0C,1,0,z,2.51165860000037,0,1,0,0,0C,2C,C20,2.89037175789616,0.541457385892648,0.5,0.5,0.5,0.5,0.5,0.5,0.5,0.5,0.5,0.5,0.5,0.5,0.5,0.5,0.541457385892648,0.5,0.5,0.5,0.5,0.156052527386002,0.499543470560062,-0.5,-0.041457385892648,0.5,0.0829147717852959,1.07308832351886,5.52625370491283,3.05678084082012,0.5,81.4650468223854
CBC_1017,CBC_1017_MSI_TV_v3_Vset6_Tset2_2023-06-25_11h49.37.760.csv,4,4,1,0,z,0,1,2,tac,A,63,1,1A,0A,0,1,z,2.66046200000073,0,1,1,1,0A,1A,A10,2.2512917986065,0.541457385892648,0.5,0.5,0.5,0.5,0.5,0.5,0.5,0.458542614107352,0.5,0.5,0.5,0.5,0.5,0.5,0.541457385892648,0.519903544040409,0.480096455959591,0.541457385892648,0.5,0.195053659665714,0.661885599823289,0.458542614107352,0.0380199562025441,0.5,0.0829147717852959,1.07308832351886,5.52625370491283,3.05678084082012,0.5,81.4650468223854
CBC_1017,CBC_1017_MSI_TV_v3_Vset6_Tset2_2023-06-25_11h49.37.760.csv,4,5,3,1,z,0,1,3,tac,B,27,1,3B,1B,0,1,z,2.39173820000087,0,1,1,1,1B,3B,B31,2.99573227355399,0.579477342095192,0.5,0.5,0.5,0.5,0.5,0.5,0.5,0.458542614107352,0.5,0.5,0.5,0.5,0.5,0.5,0.541457385892648,0.5,0.5,0.5,0.5,0.165749958300277,0.500310223286008,0.5,0.041457385892648,0.5,0.0829147717852959,1.07308832351886,5.52625370491283,3.05678084082012,0.5,81.4650468223854
CBC_1017,CBC_1017_MSI_TV_v3_Vset6_Tset2_2023-06-25_11h49.37.760.csv,4,6,2,3,b,1,0,0,tac,C,63,1,2C,3C,1,0,z,2.30566720000024,0,1,0,0,3C,2C,C23,3.04452243772342,0.579477342095192,0.5,0.5,0.5,0.5,0.541457385892648,0.5,0.5,0.458542614107352,0.5,0.5,0.5,0.5,0.5,0.5,0.541457385892648,0.5,0.5,0.5,0.5,0.173141346332815,0.501936194740681,-0.5,-0.041457385892648,0.5,0.0829147717852959,1.07308832351886,5.52625370491283,3.05678084082012,0.5,81.4650468223854
CBC_1017,CBC_1017_MSI_TV_v3_Vset6_Tset2_2023-06-25_11h49.37.760.csv,4,7,2,3,z,0,1,1,tac,D,63,0,2D,3D,1,0,z,3.13088620000053,0,1,1,0,3D,2D,D23,3.09104245335832,0.579477342095192,0.5,0.5,0.5,0.5,0.541457385892648,0.5,0.5,0.458542614107352,0.5,0.5,0.458542614107352,0.5,0.5,0.5,0.541457385892648,0.519903544040409,0.480096455959591,0.541457385892648,0.5,0.151126594129499,0.662823293154152,-0.541457385892648,-0.0448948155827518,0.5,0.0829147717852959,1.07308832351886,5.52625370491283,3.05678084082012,0.5,81.4650468223854
CBC_1017,CBC_1017_MSI_TV_v3_Vset6_Tset2_2023-06-25_11h49.37.760.csv,4,8,1,0,b,1,0,3,tac,B,63,1,1B,0B,1,0,b,2.69500940000034,1,0,1,1,1B,0B,B10,3.13549421592915,0.579477342095192,0.5,0.5,0.5,0.5,0.541457385892648,0.5,0.5,0.458542614107352,0.5,0.5,0.458542614107352,0.5,0.5,0.5,0.496562570309896,0.519903544040409,0.480096455959591,0.541457385892648,0.5,0.19145441824169,0.661859232669844,0.458542614107352,0.0380199562025441,0.5,0.0829147717852959,1.07308832351886,5.52625370491283,3.05678084082012,0.5,81.4650468223854
CBC_1017,CBC_1017_MSI_TV_v3_Vset6_Tset2_2023-06-25_11h49.37.760.csv,4,9,0,2,b,1,0,2,tac,A,27,1,0A,2A,1,0,z,2.84922000000006,0,1,0,0,2A,0A,A02,3.17805383034795,0.579477342095192,0.5,0.5,0.5,0.5,0.579477342095192,0.5,0.5,0.458542614107352,0.5,0.5,0.458542614107352,0.5,0.5,0.5,0.496562570309896,0.463187118897312,0.536812881102688,0.5,0.579477342095192,0.0609209209801919,0.223877350543179,-0.5,-0.041457385892648,0.5,0.0829147717852959,1.07308832351886,5.52625370491283,3.05678084082012,0.5,81.4650468223854
CBC_1017,CBC_1017_MSI_TV_v3_Vset6_Tset2_2023-06-25_11h49.37.760.csv,4,10,0,3,z,0,1,1,tac,D,9,1,0D,3D,0,1,z,2.99554740000076,0,1,1,1,3D,0D,D03,3.2188758248682,0.579477342095192,0.5,0.458542614107352,0.5,0.5,0.579477342095192,0.5,0.5,0.458542614107352,0.5,0.5,0.458542614107352,0.5,0.5,0.5,0.496562570309896,0.49827535681526,0.50172464318474,0.496562570309896,0.5,0.118395217469762,0.486389721568397,0.503437429690104,0.0417423995909309,0.5,0.0829147717852959,1.07308832351886,5.52625370491283,3.05678084082012,0.5,81.4650468223854
CBC_1017,CBC_1017_MSI_TV_v3_Vset6_Tset2_2023-06-25_11h49.37.760.csv,4,11,3,2,z,0,1,0,tac,C,63,0,3C,2C,1,0,z,2.23721569999998,0,1,1,0,2C,3C,C32,3.25809653802148,0.579477342095192,0.5,0.458542614107352,0.5,0.5,0.579477342095192,0.5,0.5,0.458542614107352,0.5,0.5,0.458542614107352,0.5,0.5,0.5,0.538304969900827,0.521625217951971,0.478374782048028,0.5,0.458542614107352,0.247700035912498,0.674610936900359,-0.5,-0.041457385892648,0.5,0.0829147717852959,1.07308832351886,5.52625370491283,3.05678084082012,0.5,81.4650468223854
CBC_1017,CBC_1017_MSI_TV_v3_Vset6_Tset2_2023-06-25_11h49.37.760.csv,4,12,1,0,b,1,0,3,tac,B,63,1,1B,0B,1,0,b,3.80235209999955,1,0,1,1,1B,0B,B10,2.60268968544438,0.579477342095192,0.5,0.458542614107352,0.5,0.5,0.579477342095192,0.5,0.5,0.458542614107352,0.5,0.458542614107352,0.458542614107352,0.5,0.5,0.5,0.538304969900827,0.536812881102688,0.463187118897312,0.579477342095192,0.5,0.118192308399764,0.776258390306753,0.420522657904808,0.0348675402107232,0.5,0.0829147717852959,1.07308832351886,5.52625370491283,3.05678084082012,0.5,81.4650468223854
CBC_1017,CBC_1017_MSI_TV_v3_Vset6_Tset2_2023-06-25_11h49.37.760.csv,4,13,3,2,b,1,0,1,tac,D,63,0,3D,2D,0,1,z,2.75886490000084,0,1,0,1,2D,3D,D32,2.63905732961526,0.579477342095192,0.5,0.458542614107352,0.5,0.5,0.614344882305915,0.5,0.5,0.458542614107352,0.5,0.458542614107352,0.458542614107352,0.5,0.5,0.5,0.538304969900827,0.481554085258551,0.518445914741449,0.5,0.538304969900827,0.0973641218871504,0.34907808531093,0.5,0.041457385892648,0.5,0.0829147717852959,1.07308832351886,5.52625370491283,3.05678084082012,0.5,81.4650468223854
CBC_1017,CBC_1017_MSI_TV_v3_Vset6_Tset2_2023-06-25_11h49.37.760.csv,4,14,3,2,z,0,1,0,tac,C,63,1,3C,2C,0,1,b,2.49989069999992,1,0,0,0,3C,2C,C32,2.67414864942653,0.579477342095192,0.5,0.458542614107352,0.5,0.5,0.614344882305915,0.5,0.5,0.458542614107352,0.5,0.458542614107352,0.458542614107352,0.5,0.5,0.541457385892648,0.538304969900827,0.5,0.5,0.458542614107352,0.458542614107352,0.156781672583014,0.498943860879197,-0.458542614107352,-0.0380199562025441,0.5,0.0829147717852959,1.07308832351886,5.52625370491283,3.05678084082012,0.5,81.4650468223854
CBC_1017,CBC_1017_MSI_TV_v3_Vset6_Tset2_2023-06-25_11h49.37.760.csv,4,15,1,3,b,1,0,3,tac,B,27,1,1B,3B,1,0,z,2.9081170999998,0,1,0,0,3B,1B,B13,3.40119738166216,0.579477342095192,0.5,0.458542614107352,0.5,0.5,0.614344882305915,0.5,0.5,0.458542614107352,0.5,0.458542614107352,0.420522657904808,0.5,0.5,0.541457385892648,0.538304969900827,0.448694123281968,0.551305876718032,0.5,0.614344882305915,0.0397244896289392,0.149603375641233,-0.5,-0.041457385892648,0.5,0.0829147717852959,1.07308832351886,5.52625370491283,3.05678084082012,0.5,81.4650468223854
CBC_1017,CBC_1017_MSI_TV_v3_Vset6_Tset2_2023-06-25_11h49.37.760.csv,4,16,3,0,z,0,1,2,tac,A,9,1,3A,0A,0,1,b,3.61531820000073,1,0,0,0,3A,0A,A30,3.43398720448515,0.579477342095192,0.5,0.458542614107352,0.5,0.5,0.614344882305915,0.5,0.458542614107352,0.458542614107352,0.5,0.458542614107352,0.420522657904808,0.5,0.5,0.541457385892648,0.538304969900827,0.463187118897312,0.536812881102688,0.5,0.579477342095192,0.038127869226838,0.223409449372259,-0.5,-0.041457385892648,0.5,0.0829147717852959,1.07308832351886,5.52625370491283,3.05678084082012,0.5,81.4650468223854
CBC_1017,CBC_1017_MSI_TV_v3_Vset6_Tset2_2023-06-25_11h49.37.760.csv,4,17,3,2,b,1,0,1,tac,D,63,1,3D,2D,1,0,b,2.99724900000001,1,0,1,1,3D,2D,D32,2.36712361413162,0.579477342095192,0.5,0.458542614107352,0.458542614107352,0.5,0.614344882305915,0.5,0.458542614107352,0.458542614107352,0.5,0.458542614107352,0.420522657904808,0.5,0.5,0.541457385892648,0.538304969900827,0.498540226942111,0.501459773057889,0.538304969900827,0.541457385892648,0.118435715852669,0.486993324884252,0.461695030099173,0.0382813380550783,0.5,0.0829147717852959,1.07308832351886,5.52625370491283,3.05678084082012,0.5,81.4650468223854
CBC_1017,CBC_1017_MSI_TV_v3_Vset6_Tset2_2023-06-25_11h49.37.760.csv,4,18,2,0,b,1,0,0,tac,C,27,1,2C,0C,1,0,z,3.17336680000062,0,1,0,0,0C,2C,C20,2.80336038090653,0.579477342095192,0.5,0.458542614107352,0.458542614107352,0.5,0.614344882305915,0.5,0.458542614107352,0.458542614107352,0.5,0.458542614107352,0.420522657904808,0.5,0.5,0.541457385892648,0.576586307955905,0.5,0.5,0.458542614107352,0.458542614107352,0.110684655572322,0.499283330685262,-0.458542614107352,-0.0380199562025441,0.5,0.0829147717852959,1.07308832351886,5.52625370491283,3.05678084082012,0.5,81.4650468223854
CBC_1017,CBC_1017_MSI_TV_v3_Vset6_Tset2_2023-06-25_11h49.37.760.csv,4,19,1,0,z,0,1,2,tac,A,63,1,1A,0A,0,1,z,3.95801310000024,0,1,1,1,0A,1A,A10,2.42774823594805,0.579477342095192,0.5,0.458542614107352,0.458542614107352,0.5,0.614344882305915,0.5,0.458542614107352,0.420522657904808,0.5,0.458542614107352,0.420522657904808,0.5,0.5,0.541457385892648,0.576586307955905,0.536812881102688,0.463187118897312,0.579477342095192,0.5,0.107512816948806,0.776833176069734,0.420522657904808,0.0348675402107232,0.5,0.0829147717852959,1.07308832351886,5.52625370491283,3.05678084082012,0.5,81.4650468223854
CBC_1017,CBC_1017_MSI_TV_v3_Vset6_Tset2_2023-06-25_11h49.37.760.csv,4,20,0,1,z,0,1,3,tac,B,63,0,0B,1B,1,0,z,2.84155270000065,0,1,1,0,1B,0B,B01,3.55534806148941,0.614344882305915,0.5,0.458542614107352,0.458542614107352,0.5,0.614344882305915,0.5,0.458542614107352,0.420522657904808,0.5,0.458542614107352,0.420522657904808,0.5,0.5,0.541457385892648,0.576586307955905,0.551305876718032,0.448694123281968,0.614344882305915,0.5,0.236292730871889,0.850319987862735,-0.614344882305915,-0.0509382657138595,0.5,0.0829147717852959,1.07308832351886,5.52625370491283,3.05678084082012,0.5,81.4650468223854
CBC_1017,CBC_1017_MSI_TV_v3_Vset6_Tset2_2023-06-25_11h49.37.760.csv,4,21,1,3,z,0,1,1,tac,D,27,1,1D,3D,0,1,b,4.06940900000063,1,0,0,0,1D,3D,D13,3.58351893845611,0.614344882305915,0.5,0.458542614107352,0.458542614107352,0.5,0.563406616592056,0.5,0.458542614107352,0.420522657904808,0.5,0.458542614107352,0.420522657904808,0.5,0.5,0.541457385892648,0.576586307955905,0.464430948364317,0.535569051635683,0.5,0.576586307955905,0.0300007130510847,0.2308331445172,-0.5,-0.041457385892648,0.5,0.0829147717852959,1.07308832351886,5.52625370491283,3.05678084082012,0.5,81.4650468223854
CBC_1017,CBC_1017_MSI_TV_v3_Vset6_Tset2_2023-06-25_11h49.37.760.csv,4,22,2,3,b,1,0,0,tac,C,63,1,2C,3C,1,0,b,4.45502880000004,1,0,1,1,2C,3C,C23,2.91777073208428,0.614344882305915,0.5,0.458542614107352,0.458542614107352,0.5,0.563406616592056,0.5,0.458542614107352,0.420522657904808,0.5,0.458542614107352,0.420522657904808,0.5,0.458542614107352,0.541457385892648,0.576586307955905,0.521625217951971,0.478374782048029,0.458542614107352,0.420522657904808,0.0737098607137347,0.674733210765158,0.541457385892648,0.0448948155827518,0.5,0.0829147717852959,1.07308832351886,5.52625370491283,3.05678084082012,0.5,81.4650468223854
CBC_1017,CBC_1017_MSI_TV_v3_Vset6_Tset2_2023-06-25_11h49.37.760.csv,4,23,1,0,b,1,0,3,tac,B,63,1,1B,0B,1,0,b,4.22660879999967,1,0,1,1,1B,0B,B10,2.53897387105828,0.614344882305915,0.5,0.458542614107352,0.458542614107352,0.5,0.563406616592056,0.5,0.458542614107352,0.420522657904808,0.5,0.503437429690104,0.420522657904808,0.5,0.458542614107352,0.541457385892648,0.576586307955905,0.529812968813029,0.470187031186971,0.563406616592056,0.5,0.088655103296953,0.732538045841712,0.436593383407944,0.0362000407482399,0.5,0.0829147717852959,1.07308832351886,5.52625370491283,3.05678084082012,0.5,81.4650468223854
CBC_1017,CBC_1017_MSI_TV_v3_Vset6_Tset2_2023-06-25_11h49.37.760.csv,4,24,2,0,z,0,1,2,tac,A,27,1,2A,0A,0,1,b,3.11156800000026,1,0,0,0,2A,0A,A20,3.66356164612965,0.614344882305915,0.5,0.458542614107352,0.458542614107352,0.5,0.599606657340296,0.5,0.458542614107352,0.420522657904808,0.5,0.503437429690104,0.420522657904808,0.5,0.458542614107352,0.541457385892648,0.576586307955905,0.427391143656991,0.572608856343009,0.458542614107352,0.614344882305915,0.0173780945314023,0.0790392620690707,-0.458542614107352,-0.0380199562025441,0.5,0.0829147717852959,1.07308832351886,5.52625370491283,3.05678084082012,0.5,81.4650468223854
CBC_1017,CBC_1017_MSI_TV_v3_Vset6_Tset2_2023-06-25_11h49.37.760.csv,4,25,2,3,z,0,1,1,tac,D,63,1,2D,3D,0,1,b,2.60576140000012,1,0,0,0,2D,3D,D23,2.99573227355399,0.614344882305915,0.5,0.420522657904808,0.458542614107352,0.5,0.599606657340296,0.5,0.458542614107352,0.420522657904808,0.5,0.503437429690104,0.420522657904808,0.5,0.458542614107352,0.541457385892648,0.576586307955905,0.484290004828731,0.515709995171269,0.541457385892648,0.576586307955905,0.111411441352113,0.369560676807078,-0.541457385892648,-0.0448948155827518,0.5,0.0829147717852959,1.07308832351886,5.52625370491283,3.05678084082012,0.5,81.4650468223854
CBC_1017,CBC_1017_MSI_TV_v3_Vset6_Tset2_2023-06-25_11h49.37.760.csv,4,26,2,0,b,1,0,0,tac,C,27,1,2C,0C,1,0,b,4.33486150000044,1,0,1,1,2C,0C,C20,2.6149597780362,0.614344882305915,0.5,0.420522657904808,0.458542614107352,0.5,0.599606657340296,0.5,0.458542614107352,0.420522657904808,0.5,0.503437429690104,0.420522657904808,0.5,0.458542614107352,0.496562570309896,0.576586307955905,0.544869238887323,0.455130761112677,0.503437429690104,0.420522657904808,0.0858023936935093,0.819595616362194,0.496562570309896,0.041172372194365,0.5,0.0829147717852959,1.07308832351886,5.52625370491283,3.05678084082012,0.5,81.4650468223854
CBC_1017,CBC_1017_MSI_TV_v3_Vset6_Tset2_2023-06-25_11h49.37.760.csv,4,27,1,0,b,1,0,3,tac,B,63,1,1B,0B,1,0,b,1.51242490000095,1,0,1,1,1B,0B,B10,2.35137525716348,0.614344882305915,0.5,0.420522657904808,0.458542614107352,0.5,0.599606657340296,0.5,0.458542614107352,0.420522657904808,0.5,0.544609801884469,0.420522657904808,0.5,0.458542614107352,0.496562570309896,0.576586307955905,0.545291949023491,0.454708050976509,0.599606657340296,0.5,0.298092588657157,0.821732371422455,0.400393342659704,0.0331985226309812,0.5,0.0829147717852959,1.07308832351886,5.52625370491283,3.05678084082012,0.5,81.4650468223854
CBC_1017,CBC_1017_MSI_TV_v3_Vset6_Tset2_2023-06-25_11h49.37.760.csv,4,28,0,1,b,1,0,2,tac,A,63,1,0A,1A,1,0,b,1.80664780000006,1,0,1,1,0A,1A,A01,3.76120011569356,0.614344882305915,0.5,0.420522657904808,0.458542614107352,0.5,0.632805179971277,0.5,0.458542614107352,0.420522657904808,0.5,0.544609801884469,0.420522657904808,0.5,0.458542614107352,0.496562570309896,0.576586307955905,0.551305876718032,0.448694123281968,0.614344882305915,0.5,0.417706725138195,0.850004872566128,0.385655117694085,0.0319765060714365,0.5,0.0829147717852959,1.07308832351886,5.52625370491283,3.05678084082012,0.5,81.4650468223854
CBC_1017,CBC_1017_MSI_TV_v3_Vset6_Tset2_2023-06-25_11h49.37.760.csv,4,29,3,2,z,0,1,0,tac,C,63,0,3C,2C,1,0,z,2.32337900000039,0,1,1,0,2C,3C,C32,2.68557734525015,0.646321388377352,0.5,0.420522657904808,0.458542614107352,0.5,0.632805179971277,0.5,0.458542614107352,0.420522657904808,0.5,0.544609801884469,0.420522657904808,0.5,0.458542614107352,0.496562570309896,0.576586307955905,0.564285032961566,0.435714967038434,0.544609801884469,0.420522657904808,0.36983744109356,0.897970020695116,-0.544609801884469,-0.045156197435286,0.5,0.0829147717852959,1.07308832351886,5.52625370491283,3.05678084082012,0.5,81.4650468223854
CBC_1017,CBC_1017_MSI_TV_v3_Vset6_Tset2_2023-06-25_11h49.37.760.csv,4,30,3,1,b,1,0,1,tac,D,27,1,3D,1D,1,0,b,4.8841652000001,1,0,1,1,3D,1D,D31,3.80666248977032,0.646321388377352,0.5,0.420522657904808,0.458542614107352,0.5,0.632805179971277,0.5,0.458542614107352,0.420522657904808,0.5,0.499453604449183,0.420522657904808,0.5,0.458542614107352,0.496562570309896,0.576586307955905,0.557018836655276,0.442981163344724,0.576586307955905,0.458542614107352,0.0552419645585277,0.872729941776033,0.423413692044095,0.0351072496466057,0.5,0.0829147717852959,1.07308832351886,5.52625370491283,3.05678084082012,0.5,81.4650468223854
CBC_1017,CBC_1017_MSI_TV_v3_Vset6_Tset2_2023-06-25_11h49.37.760.csv,4,31,1,0,z,0,1,2,tac,A,63,0,1A,0A,1,0,z,2.50435560000005,0,1,1,0,0A,1A,A10,2.4423470353692,0.646321388377352,0.5,0.420522657904808,0.458542614107352,0.5,0.632805179971277,0.5,0.458542614107352,0.420522657904808,0.5,0.499453604449183,0.420522657904808,0.5,0.458542614107352,0.496562570309896,0.611693557602511,0.563822148771242,0.436177851228758,0.646321388377352,0.5,0.322891678208366,0.896545379506252,-0.646321388377352,-0.0535895904172637,0.5,0.0829147717852959,1.07308832351886,5.52625370491283,3.05678084082012,0.5,81.4650468223854
CBC_1017,CBC_1017_MSI_TV_v3_Vset6_Tset2_2023-06-25_11h49.37.760.csv,4,32,3,2,b,1,0,1,tac,D,63,1,3D,2D,1,0,b,2.46445650000078,1,0,1,1,3D,2D,D32,2.46385324059017,0.592731797960088,0.5,0.420522657904808,0.458542614107352,0.5,0.632805179971277,0.5,0.458542614107352,0.420522657904808,0.5,0.499453604449183,0.420522657904808,0.5,0.458542614107352,0.496562570309896,0.611693557602511,0.551942409517502,0.448057590482498,0.611693557602511,0.496562570309896,0.305920070156075,0.852917476647273,0.388306442397489,0.032196340054148,0.5,0.0829147717852959,1.07308832351886,5.52625370491283,3.05678084082012,0.5,81.4650468223854
CBC_1017,CBC_1017_MSI_TV_v3_Vset6_Tset2_2023-06-25_11h49.37.760.csv,4,33,2,1,z,0,1,3,tac,B,9,1,2B,1B,0,1,z,3.45419990000028,0,1,1,1,1B,2B,B21,3.87120101090789,0.592731797960088,0.5,0.420522657904808,0.458542614107352,0.5,0.632805179971277,0.5,0.458542614107352,0.420522657904808,0.5,0.499453604449183,0.420522657904808,0.5,0.458542614107352,0.496562570309896,0.643889897656659,0.558617837523767,0.441382162476233,0.632805179971277,0.5,0.156111374639152,0.878832712333172,0.367194820028723,0.0304458747034244,0.5,0.0829147717852959,1.07308832351886,5.52625370491283,3.05678084082012,0.5,81.4650468223854
CBC_1017,CBC_1017_MSI_TV_v3_Vset6_Tset2_2023-06-25_11h49.37.760.csv,4,34,1,0,z,0,1,2,tac,A,63,1,1A,0A,0,1,z,2.01731550000022,0,1,1,1,0A,1A,A10,2.28238238567653,0.592731797960088,0.5,0.420522657904808,0.458542614107352,0.5,0.663251054674701,0.5,0.458542614107352,0.420522657904808,0.5,0.499453604449183,0.420522657904808,0.5,0.458542614107352,0.496562570309896,0.643889897656659,0.542431179422618,0.457568820577382,0.592731797960088,0.5,0.355932131446792,0.80737283098008,0.407268202039912,0.0337685500275471,0.5,0.0829147717852959,1.07308832351886,5.52625370491283,3.05678084082012,0.5,81.4650468223854
CBC_1017,CBC_1017_MSI_TV_v3_Vset6_Tset2_2023-06-25_11h49.37.760.csv,4,35,2,1,b,1,0,0,tac,C,9,1,2C,1C,1,0,b,2.30442420000054,1,0,1,1,2C,1C,C21,3.91202300542815,0.626500347987635,0.5,0.420522657904808,0.458542614107352,0.5,0.663251054674701,0.5,0.458542614107352,0.420522657904808,0.5,0.499453604449183,0.420522657904808,0.5,0.458542614107352,0.496562570309896,0.643889897656659,0.499726652868935,0.500273347131065,0.499453604449183,0.5,0.171595839235966,0.497171020844219,0.500546395550817,0.0415026901550485,0.5,0.0829147717852959,1.07308832351886,5.52625370491283,3.05678084082012,0.5,81.4650468223854
CBC_1017,CBC_1017_MSI_TV_v3_Vset6_Tset2_2023-06-25_11h49.37.760.csv,4,36,1,0,b,1,0,3,tac,B,63,1,1B,0B,1,0,b,1.75655660000029,1,0,1,1,1B,0B,B10,2.32238772029023,0.626500347987635,0.5,0.420522657904808,0.458542614107352,0.5,0.663251054674701,0.5,0.458542614107352,0.420522657904808,0.5,0.540956294604231,0.420522657904808,0.5,0.458542614107352,0.496562570309896,0.643889897656659,0.570170172646159,0.429829827353841,0.663251054674701,0.5,0.520869530133079,0.914737864083914,0.336748945325299,0.0279214619505862,0.5,0.0829147717852959,1.07308832351886,5.52625370491283,3.05678084082012,0.5,81.4650468223854
CBC_1017,CBC_1017_MSI_TV_v3_Vset6_Tset2_2023-06-25_11h49.37.760.csv,4,37,0,1,b,1,0,2,tac,A,63,0,0A,1A,0,1,b,1.80158510000001,1,0,1,0,0A,1A,A01,3.25809653802148,0.626500347987635,0.5,0.420522657904808,0.458542614107352,0.5,0.691172516625288,0.5,0.458542614107352,0.420522657904808,0.5,0.540956294604231,0.420522657904808,0.5,0.458542614107352,0.496562570309896,0.643889897656659,0.556147496187468,0.443852503812532,0.626500347987635,0.5,0.443051662680593,0.869736100966928,-0.626500347987635,-0.0519461333768033,0.5,0.0829147717852959,1.07308832351886,5.52625370491283,3.05678084082012,0.5,81.4650468223854
CBC_1017,CBC_1017_MSI_TV_v3_Vset6_Tset2_2023-06-25_11h49.37.760.csv,4,38,0,1,z,0,1,3,tac,B,63,1,0B,1B,0,1,z,2.87630379999973,0,1,1,1,1B,0B,B01,3.27714473299218,0.574554214610832,0.5,0.420522657904808,0.458542614107352,0.5,0.691172516625288,0.5,0.458542614107352,0.420522657904808,0.5,0.540956294604231,0.420522657904808,0.5,0.458542614107352,0.496562570309896,0.643889897656659,0.580245520257174,0.419754479742826,0.691172516625288,0.5,0.247242350490025,0.937461436736482,0.308827483374712,0.0256063603050416,0.5,0.0829147717852959,1.07308832351886,5.52625370491283,3.05678084082012,0.5,81.4650468223854
CBC_1017,CBC_1017_MSI_TV_v3_Vset6_Tset2_2023-06-25_11h49.37.760.csv,4,39,1,3,z,0,1,1,tac,D,27,1,1D,3D,0,1,z,3.61900130000049,0,1,1,1,3D,1D,D13,3.29583686600433,0.574554214610832,0.5,0.420522657904808,0.458542614107352,0.5,0.716778876930329,0.5,0.458542614107352,0.420522657904808,0.5,0.540956294604231,0.420522657904808,0.5,0.458542614107352,0.496562570309896,0.643889897656659,0.58406287077507,0.41593712922493,0.643889897656659,0.458542614107352,0.120787203039817,0.944853635102684,0.356110102343341,0.0295267878662365,0.5,0.0829147717852959,1.07308832351886,5.52625370491283,3.05678084082012,0.5,81.4650468223854
CBC_1017,CBC_1017_MSI_TV_v3_Vset6_Tset2_2023-06-25_11h49.37.760.csv,4,40,3,2,z,0,1,0,tac,C,63,1,3C,2C,0,1,z,2.5715468999997,0,1,1,1,2C,3C,C32,2.62103882411258,0.574554214610832,0.5,0.420522657904808,0.458542614107352,0.5,0.716778876930329,0.5,0.458542614107352,0.420522657904808,0.5,0.540956294604231,0.420522657904808,0.5,0.458542614107352,0.496562570309896,0.673416685522895,0.562629367177068,0.437370632822932,0.540956294604231,0.420522657904808,0.304751236011147,0.892144390682126,0.459043705395769,0.0380615040723668,0.5,0.0829147717852959,1.07308832351886,5.52625370491283,3.05678084082012,0.5,81.4650468223854
CBC_1017,CBC_1017_MSI_TV_v3_Vset6_Tset2_2023-06-25_11h49.37.760.csv,4,41,0,2,b,1,0,2,tac,A,27,1,0A,2A,1,0,b,2.50825070000064,1,0,1,1,0A,2A,A02,3.3322045101752,0.574554214610832,0.5,0.420522657904808,0.458542614107352,0.5,0.716778876930329,0.5,0.458542614107352,0.420522657904808,0.5,0.579017798676598,0.420522657904808,0.5,0.458542614107352,0.496562570309896,0.673416685522895,0.57739681272896,0.42260318727104,0.574554214610832,0.420522657904808,0.341931871238047,0.931472028132858,0.425445785389168,0.0352757402025589,0.5,0.0829147717852959,1.07308832351886,5.52625370491283,3.05678084082012,0.5,81.4650468223854
CBC_1017,CBC_1017_MSI_TV_v3_Vset6_Tset2_2023-06-25_11h49.37.760.csv,4,42,2,3,z,0,1,1,tac,D,63,1,2D,3D,0,1,z,2.38407200000074,0,1,1,1,3D,2D,D23,2.94443897916644,0.609829954813391,0.5,0.420522657904808,0.458542614107352,0.5,0.716778876930329,0.5,0.458542614107352,0.420522657904808,0.5,0.579017798676598,0.420522657904808,0.5,0.458542614107352,0.496562570309896,0.673416685522895,0.575580021753084,0.424419978246916,0.673416685522895,0.496562570309896,0.377024007831567,0.927546219242274,0.326583314477105,0.0270785809887547,0.5,0.0829147717852959,1.07308832351886,5.52625370491283,3.05678084082012,0.5,81.4650468223854
CBC_1017,CBC_1017_MSI_TV_v3_Vset6_Tset2_2023-06-25_11h49.37.760.csv,4,43,1,3,b,1,0,3,tac,B,27,0,1B,3B,0,1,b,1.62848660000054,1,0,1,0,1B,3B,B13,3.36729582998647,0.609829954813391,0.5,0.420522657904808,0.458542614107352,0.5,0.716778876930329,0.5,0.458542614107352,0.420522657904808,0.5,0.579017798676598,0.420522657904808,0.5,0.458542614107352,0.496562570309896,0.70049526651165,0.609857713311692,0.390142286688307,0.716778876930329,0.458542614107352,0.764365540406594,0.976186561109509,-0.716778876930329,-0.059431557001199,0.5,0.0829147717852959,1.07308832351886,5.52625370491283,3.05678084082012,0.5,81.4650468223854
CBC_1017,CBC_1017_MSI_TV_v3_Vset6_Tset2_2023-06-25_11h49.37.760.csv,4,44,3,2,z,0,1,0,tac,C,63,1,3C,2C,0,1,z,1.41124640000089,0,1,1,1,2C,3C,C32,2.46809953147162,0.609829954813391,0.5,0.420522657904808,0.458542614107352,0.5,0.65734731992913,0.5,0.458542614107352,0.420522657904808,0.5,0.579017798676598,0.420522657904808,0.5,0.458542614107352,0.496562570309896,0.70049526651165,0.579284004828514,0.420715995171486,0.579017798676598,0.420522657904808,0.32847982263852,0.935689880520795,0.420982201323402,0.0349056431484014,0.5,0.0829147717852959,1.07308832351886,5.52625370491283,3.05678084082012,0.5,81.4650468223854
