ID,session,trialNr,mod2Stim,visStimLeft,visStimRight,correctKey,frequency,rewardAccurate,probFB,stimPairLeft,stimPairRight,leftCorrect,rightCorrect,pCorrectLeft,pCorrectRight,triplet,rt,surprise,0A belief,1A belief,2A belief,3A belief,0B belief,1B belief,2B belief,3B belief,0C belief,1C belief,2C belief,3C belief,0D belief,1D belief,2D belief,3D belief,reactionTime,choice,choiceLeft,choiceRight,chosenPair,otherPair,beliefPair,beliefOtherPair,beliefPairNorm,beliefOtherPairNorm,choiceAccurate,reward,rewardPE,update2,sim_CBCsimpleRW_CBCdriftDiffusionLR_startBelief,sim_CBCsimpleRW_CBCdriftDiffusionLR_alpha1,sim_CBCsimpleRW_CBCdriftDiffusionLR_nonDecisionTime,sim_CBCsimpleRW_CBCdriftDiffusionLR_weight,sim_CBCsimpleRW_CBCdriftDiffusionLR_startingBoundary,sim_CBCsimpleRW_CBCdriftDiffusionLR_startingPoint,lik,corrLik,fitCBCsimpleRW_CBCdriftDiffusionLR_startBelief,fitCBCsimpleRW_CBCdriftDiffusionLR_alpha1,fitCBCsimpleRW_CBCdriftDiffusionLR_nonDecisionTime,fitCBCsimpleRW_CBCdriftDiffusionLR_weight,fitCBCsimpleRW_CBCdriftDiffusionLR_startingBoundary,fitCBCsimpleRW_CBCdriftDiffusionLR_startingPoint,fit_CBCsimpleRW_CBCdriftDiffusionLR_NLL
115,1,1,B,0,1,l,63,1,0.95,0B,1B,0,1,0,1,B01,1.60706559313462,2.77258872223978,0.5,0.5,0.5,0.5,0.5,0.5,0.5,0.5,0.5,0.5,0.5,0.5,0.5,0.5,0.5,0.5,2.86539483594895,0,0,1,1B,0B,0.5,0.5,0.5,0.5,1,1,0.5,0.40679383887762,0.5,0.775961065591034,0.460394835948953,14.5416312179571,3.61615631271195,0.5,0.0981246266440016,0.499615128906158,0.5,0.81358767775524,0.483352935154017,14.9507636178048,3.38024232452878,0.5,-41.0119937875946
115,1,2,D,2,3,l,63,1,0.95,2D,3D,0,1,0,1,D23,0.854328183501307,2.83321334405622,0.5,0.5,0.5,0.5,0.5,0.90679383887762,0.5,0.5,0.5,0.5,0.5,0.5,0.5,0.5,0.5,0.5,3.21939483594895,1,1,0,2D,3D,0.5,0.5,0.5,0.5,0,0,-0.5,-0.40679383887762,0.5,0.775961065591034,0.460394835948953,14.5416312179571,3.61615631271195,0.5,0.0844362329061642,0.50065702089512,0.5,0.81358767775524,0.483352935154017,14.9507636178048,3.38024232452878,0.5,-41.0119937875946
115,1,3,B,1,3,a,27,1,0.95,1B,3B,1,0,1,0,B13,0.0999418003988307,2.89037175789616,0.5,0.5,0.5,0.5,0.5,0.90679383887762,0.5,0.5,0.5,0.5,0.5,0.5,0.5,0.5,0.0932061611223801,0.5,0.922394835948953,1,1,0,1B,3B,0.90679383887762,0.5,0.644581895241371,0.355418104758629,1,1,0.0932061611223801,0.0758313841800379,0.5,0.775961065591034,0.460394835948953,14.5416312179571,3.61615631271195,0.5,2.20601803880251,0.999999550980756,0.5,0.81358767775524,0.483352935154017,14.9507636178048,3.38024232452878,0.5,-41.0119937875946
115,1,4,C,3,2,l,63,1,0.95,3C,2C,0,1,0,1,C32,0.873386269538131,2.94443897916644,0.5,0.5,0.5,0.5,0.5,0.982625223057658,0.5,0.5,0.5,0.5,0.5,0.5,0.5,0.5,0.0932061611223801,0.5,3.83339483594895,1,1,0,3C,2C,0.5,0.5,0.5,0.5,0,0,-0.5,-0.40679383887762,0.5,0.775961065591034,0.460394835948953,14.5416312179571,3.61615631271195,0.5,0.0647216736430982,0.500193376405407,0.5,0.81358767775524,0.483352935154017,14.9507636178048,3.38024232452878,0.5,-41.0119937875946
115,1,5,C,2,0,a,27,1,0.95,2C,0C,1,0,1,0,C20,3.0636796157935,2.99573227355399,0.5,0.5,0.5,0.5,0.5,0.982625223057658,0.5,0.5,0.5,0.5,0.5,0.0932061611223801,0.5,0.5,0.0932061611223801,0.5,1.14439483594895,1,1,0,2C,0C,0.5,0.5,0.5,0.5,1,1,0.5,0.40679383887762,0.5,0.775961065591034,0.460394835948953,14.5416312179571,3.61615631271195,0.5,0.144297884106277,0.498983946315205,0.5,0.81358767775524,0.483352935154017,14.9507636178048,3.38024232452878,0.5,-41.0119937875946
115,1,6,A,3,0,l,9,1,0.95,3A,0A,0,1,0,1,A30,3.03516073364351,3.04452243772342,0.5,0.5,0.5,0.5,0.5,0.982625223057658,0.5,0.5,0.5,0.5,0.90679383887762,0.0932061611223801,0.5,0.5,0.0932061611223801,0.5,2.47139483594895,1,1,0,3A,0A,0.5,0.5,0.5,0.5,0,0,-0.5,-0.40679383887762,0.5,0.775961065591034,0.460394835948953,14.5416312179571,3.61615631271195,0.5,0.116203034328022,0.500244771121646,0.5,0.81358767775524,0.483352935154017,14.9507636178048,3.38024232452878,0.5,-41.0119937875946
115,1,7,C,3,2,l,63,1,0.95,3C,2C,0,1,0,1,C32,0.0432091767410037,2.39789527279837,0.5,0.5,0.5,0.0932061611223801,0.5,0.982625223057658,0.5,0.5,0.5,0.5,0.90679383887762,0.0932061611223801,0.5,0.5,0.0932061611223801,0.5,0.651394835948953,0,0,1,2C,3C,0.90679383887762,0.0932061611223801,0.90679383887762,0.0932061611223801,1,1,0.0932061611223801,0.0758313841800379,0.5,0.775961065591034,0.460394835948953,14.5416312179571,3.61615631271195,0.5,6.74072522554921,1,0.5,0.81358767775524,0.483352935154017,14.9507636178048,3.38024232452878,0.5,-41.0119937875946
115,1,8,A,0,1,a,63,1,0.95,0A,1A,1,0,1,0,A01,0.0479628976463372,3.13549421592915,0.5,0.5,0.5,0.0932061611223801,0.5,0.982625223057658,0.5,0.5,0.5,0.5,0.982625223057658,0.0932061611223801,0.5,0.5,0.0932061611223801,0.5,3.56539483594895,0,0,1,1A,0A,0.5,0.5,0.5,0.5,0,0,-0.5,-0.40679383887762,0.5,0.775961065591034,0.460394835948953,14.5416312179571,3.61615631271195,0.5,0.0728681171673854,0.501621804892917,0.5,0.81358767775524,0.483352935154017,14.9507636178048,3.38024232452878,0.5,-41.0119937875946
115,1,9,D,3,2,a,63,1,0.95,3D,2D,1,0,1,0,D32,3.17576708023435,3.17805383034795,0.5,0.0932061611223801,0.5,0.0932061611223801,0.5,0.982625223057658,0.5,0.5,0.5,0.5,0.982625223057658,0.0932061611223801,0.5,0.5,0.0932061611223801,0.5,0.596394835948953,1,1,0,3D,2D,0.5,0.0932061611223801,0.842877287474512,0.157122712525488,1,1,0.5,0.40679383887762,0.5,0.775961065591034,0.460394835948953,14.5416312179571,3.61615631271195,0.5,5.09143874202352,0.999999999999999,0.5,0.81358767775524,0.483352935154017,14.9507636178048,3.38024232452878,0.5,-41.0119937875946
115,1,10,C,2,3,a,63,1,0.95,2C,3C,1,0,1,0,C23,0.684796722110865,3.2188758248682,0.5,0.0932061611223801,0.5,0.0932061611223801,0.5,0.982625223057658,0.5,0.5,0.5,0.5,0.982625223057658,0.0932061611223801,0.5,0.5,0.0932061611223801,0.90679383887762,0.655394835948953,1,1,0,2C,3C,0.982625223057658,0.0932061611223801,0.91336359722075,0.0866364027792503,1,1,0.0173747769423421,0.0141359044240354,0.5,0.775961065591034,0.460394835948953,14.5416312179571,3.61615631271195,0.5,5.43327992491273,1,0.5,0.81358767775524,0.483352935154017,14.9507636178048,3.38024232452878,0.5,-41.0119937875946
115,1,11,D,1,3,l,27,1,0.95,1D,3D,0,1,0,1,D13,3.21644855690871,3.25809653802148,0.5,0.0932061611223801,0.5,0.0932061611223801,0.5,0.982625223057658,0.5,0.5,0.5,0.5,0.996761127481693,0.0932061611223801,0.5,0.5,0.0932061611223801,0.90679383887762,0.873394835948953,0,0,1,3D,1D,0.90679383887762,0.5,0.644581895241371,0.355418104758629,1,1,0.0932061611223801,0.0758313841800379,0.5,0.775961065591034,0.460394835948953,14.5416312179571,3.61615631271195,0.5,2.76791848801484,0.999999550413351,0.5,0.81358767775524,0.483352935154017,14.9507636178048,3.38024232452878,0.5,-41.0119937875946
115,1,12,A,1,0,l,63,0,0.95,1A,0A,0,1,1,0,A10,1.96371417626198,3.29583686600433,0.5,0.0932061611223801,0.5,0.0932061611223801,0.5,0.982625223057658,0.5,0.5,0.5,0.5,0.996761127481693,0.0932061611223801,0.5,0.5,0.0932061611223801,0.982625223057658,0.711394835948953,0,0,1,0A,1A,0.5,0.0932061611223801,0.842877287474512,0.157122712525488,1,0,-0.5,-0.40679383887762,0.5,0.775961065591034,0.460394835948953,14.5416312179571,3.61615631271195,0.5,2.46980619350102,0.999999999999999,0.5,0.81358767775524,0.483352935154017,14.9507636178048,3.38024232452878,0.5,-41.0119937875946
115,1,13,C,2,3,a,63,1,0.95,2C,3C,1,0,1,0,C23,0.860613572166746,2.63905732961526,0.0932061611223801,0.0932061611223801,0.5,0.0932061611223801,0.5,0.982625223057658,0.5,0.5,0.5,0.5,0.996761127481693,0.0932061611223801,0.5,0.5,0.0932061611223801,0.982625223057658,0.661394835948953,1,1,0,2C,3C,0.996761127481693,0.0932061611223801,0.914487194159974,0.0855128058400264,1,1,0.00323887251830668,0.0026351067707144,0.5,0.775961065591034,0.460394835948953,14.5416312179571,3.61615631271195,0.5,4.23907030213077,1,0.5,0.81358767775524,0.483352935154017,14.9507636178048,3.38024232452878,0.5,-41.0119937875946
115,1,14,A,0,2,a,27,1,0.95,0A,2A,1,0,1,0,A02,0.87312618563453,3.36729582998647,0.0932061611223801,0.0932061611223801,0.5,0.0932061611223801,0.5,0.982625223057658,0.5,0.5,0.5,0.5,0.999396234252408,0.0932061611223801,0.5,0.5,0.0932061611223801,0.982625223057658,0.653394835948953,0,0,1,2A,0A,0.5,0.0932061611223801,0.842877287474512,0.157122712525488,0,0,-0.5,-0.40679383887762,0.5,0.775961065591034,0.460394835948953,14.5416312179571,3.61615631271195,0.5,9.53581527890456,0.999999999999999,0.5,0.81358767775524,0.483352935154017,14.9507636178048,3.38024232452878,0.5,-41.0119937875946
115,1,15,B,0,1,l,63,1,0.95,0B,1B,0,1,0,1,B01,1.30387003839589,2.70805020110221,0.0932061611223801,0.0932061611223801,0.0932061611223801,0.0932061611223801,0.5,0.982625223057658,0.5,0.5,0.5,0.5,0.999396234252408,0.0932061611223801,0.5,0.5,0.0932061611223801,0.982625223057658,0.963394835948953,0,0,1,1B,0B,0.982625223057658,0.5,0.66276035762508,0.33723964237492,1,1,0.0173747769423421,0.0141359044240354,0.5,0.775961065591034,0.460394835948953,14.5416312179571,3.61615631271195,0.5,1.31140457129641,0.99999992858365,0.5,0.81358767775524,0.483352935154017,14.9507636178048,3.38024232452878,0.5,-41.0119937875946
115,1,16,D,3,2,a,63,1,0.95,3D,2D,1,0,1,0,D32,0.0179432845453862,2.7408400239252,0.0932061611223801,0.0932061611223801,0.0932061611223801,0.0932061611223801,0.5,0.996761127481693,0.5,0.5,0.5,0.5,0.999396234252408,0.0932061611223801,0.5,0.5,0.0932061611223801,0.982625223057658,0.570394835948953,1,1,0,3D,2D,0.982625223057658,0.0932061611223801,0.91336359722075,0.0866364027792503,1,1,0.0173747769423421,0.0141359044240354,0.5,0.775961065591034,0.460394835948953,14.5416312179571,3.61615631271195,0.5,3.00566127308832,1,0.5,0.81358767775524,0.483352935154017,14.9507636178048,3.38024232452878,0.5,-41.0119937875946
115,1,17,B,1,2,a,9,1,0.95,1B,2B,1,0,1,0,B12,0.254435601924019,3.46573590279973,0.0932061611223801,0.0932061611223801,0.0932061611223801,0.0932061611223801,0.5,0.996761127481693,0.5,0.5,0.5,0.5,0.999396234252408,0.0932061611223801,0.5,0.5,0.0932061611223801,0.996761127481693,0.684394835948953,1,1,0,1B,2B,0.996761127481693,0.5,0.66594535973736,0.33405464026264,1,1,0.00323887251830668,0.0026351067707144,0.5,0.775961065591034,0.460394835948953,14.5416312179571,3.61615631271195,0.5,2.27006350047764,0.999999948149239,0.5,0.81358767775524,0.483352935154017,14.9507636178048,3.38024232452878,0.5,-41.0119937875946
115,1,18,D,1,3,l,27,1,0.95,1D,3D,0,1,0,1,D13,1.90844816870405,2.80336038090653,0.0932061611223801,0.0932061611223801,0.0932061611223801,0.0932061611223801,0.5,0.999396234252408,0.5,0.5,0.5,0.5,0.999396234252408,0.0932061611223801,0.5,0.5,0.0932061611223801,0.996761127481693,0.799394835948953,0,0,1,3D,1D,0.996761127481693,0.5,0.66594535973736,0.33405464026264,1,1,0.00323887251830668,0.0026351067707144,0.5,0.775961065591034,0.460394835948953,14.5416312179571,3.61615631271195,0.5,3.70638513550223,0.999999947882502,0.5,0.81358767775524,0.483352935154017,14.9507636178048,3.38024232452878,0.5,-41.0119937875946
115,1,19,A,0,1,a,63,1,0.95,0A,1A,1,0,1,0,A01,1.95804893890381,2.83321334405622,0.0932061611223801,0.0932061611223801,0.0932061611223801,0.0932061611223801,0.5,0.999396234252408,0.5,0.5,0.5,0.5,0.999396234252408,0.0932061611223801,0.5,0.5,0.0932061611223801,0.999396234252408,1.86039483594895,0,0,1,1A,0A,0.0932061611223801,0.0932061611223801,0.5,0.5,0,0,-0.0932061611223801,-0.0758313841800379,0.5,0.775961065591034,0.460394835948953,14.5416312179571,3.61615631271195,0.5,0.14760284900564,0.499376634971048,0.5,0.81358767775524,0.483352935154017,14.9507636178048,3.38024232452878,0.5,-41.0119937875946
115,1,20,A,1,0,l,63,1,0.95,1A,0A,0,1,0,1,A10,3.08932653090171,2.86220088092947,0.0932061611223801,0.0173747769423422,0.0932061611223801,0.0932061611223801,0.5,0.999396234252408,0.5,0.5,0.5,0.5,0.999396234252408,0.0932061611223801,0.5,0.5,0.0932061611223801,0.999396234252408,0.610394835948953,0,0,1,0A,1A,0.0932061611223801,0.0173747769423422,0.842877287474512,0.157122712525488,1,1,0.90679383887762,0.737756293575202,0.5,0.775961065591034,0.460394835948953,14.5416312179571,3.61615631271195,0.5,8.24357812106462,0.999999999999999,0.5,0.81358767775524,0.483352935154017,14.9507636178048,3.38024232452878,0.5,-41.0119937875946
115,1,21,C,2,0,a,27,1,0.95,2C,0C,1,0,1,0,C20,2.33115323670168,2.89037175789616,0.830962454697582,0.0173747769423422,0.0932061611223801,0.0932061611223801,0.5,0.999396234252408,0.5,0.5,0.5,0.5,0.999396234252408,0.0932061611223801,0.5,0.5,0.0932061611223801,0.999396234252408,0.915394835948953,1,1,0,2C,0C,0.999396234252408,0.5,0.666532442473888,0.333467557526112,1,1,0.000603765747592244,0.00049121637249173,0.5,0.775961065591034,0.460394835948953,14.5416312179571,3.61615631271195,0.5,1.85519961322364,0.99999995120994,0.5,0.81358767775524,0.483352935154017,14.9507636178048,3.38024232452878,0.5,-41.0119937875946
115,1,22,B,0,1,l,63,1,0.95,0B,1B,0,1,0,1,B01,2.78977499872842,2.51230562397611,0.830962454697582,0.0173747769423422,0.0932061611223801,0.0932061611223801,0.5,0.999396234252408,0.5,0.5,0.5,0.5,0.999887450624899,0.0932061611223801,0.5,0.5,0.0932061611223801,0.999396234252408,0.798394835948953,0,0,1,1B,0B,0.999396234252408,0.5,0.666532442473888,0.333467557526112,1,1,0.000603765747592244,0.00049121637249173,0.5,0.775961065591034,0.460394835948953,14.5416312179571,3.61615631271195,0.5,3.72493934850111,0.999999951014025,0.5,0.81358767775524,0.483352935154017,14.9507636178048,3.38024232452878,0.5,-41.0119937875946
115,1,23,C,2,0,a,27,1,0.95,2C,0C,1,0,1,0,C20,3.34853462099981,2.53897387105828,0.830962454697582,0.0173747769423422,0.0932061611223801,0.0932061611223801,0.5,0.999887450624899,0.5,0.5,0.5,0.5,0.999887450624899,0.0932061611223801,0.5,0.5,0.0932061611223801,0.999396234252408,0.773394835948953,1,1,0,2C,0C,0.999887450624899,0.5,0.666641653817635,0.333358346182365,1,1,0.000112549375100524,9.15687847208384e-05,0.5,0.775961065591034,0.460394835948953,14.5416312179571,3.61615631271195,0.5,3.89252950182897,0.999999951563025,0.5,0.81358767775524,0.483352935154017,14.9507636178048,3.38024232452878,0.5,-41.0119937875946
115,1,24,D,3,2,a,63,1,0.95,3D,2D,1,0,1,0,D32,0.798719227398311,2.56494935746154,0.830962454697582,0.0173747769423422,0.0932061611223801,0.0932061611223801,0.5,0.999887450624899,0.5,0.5,0.5,0.5,0.99997901940962,0.0932061611223801,0.5,0.5,0.0932061611223801,0.999396234252408,0.636394835948953,1,1,0,3D,2D,0.999396234252408,0.0932061611223801,0.91469343146515,0.0853065685348495,1,1,0.000603765747592244,0.00049121637249173,0.5,0.775961065591034,0.460394835948953,14.5416312179571,3.61615631271195,0.5,9.78168453203475,1,0.5,0.81358767775524,0.483352935154017,14.9507636178048,3.38024232452878,0.5,-41.0119937875946
115,1,25,A,1,0,l,63,1,0.95,1A,0A,0,1,0,1,A10,3.38168969057644,2.59026716544583,0.830962454697582,0.0173747769423422,0.0932061611223801,0.0932061611223801,0.5,0.999887450624899,0.5,0.5,0.5,0.5,0.99997901940962,0.0932061611223801,0.5,0.5,0.0932061611223801,0.999887450624899,0.569394835948953,0,0,1,0A,1A,0.830962454697582,0.0173747769423422,0.979519021098774,0.0204809789012265,1,1,0.169037545302418,0.13752686393604,0.5,0.775961065591034,0.460394835948953,14.5416312179571,3.61615631271195,0.5,7.95922711209777,1,0.5,0.81358767775524,0.483352935154017,14.9507636178048,3.38024232452878,0.5,-41.0119937875946
115,1,26,C,3,2,l,63,1,0.95,3C,2C,0,1,0,1,C32,3.17772919848356,2.6149597780362,0.968489318633622,0.0173747769423422,0.0932061611223801,0.0932061611223801,0.5,0.999887450624899,0.5,0.5,0.5,0.5,0.99997901940962,0.0932061611223801,0.5,0.5,0.0932061611223801,0.999887450624899,0.614394835948953,0,0,1,2C,3C,0.99997901940962,0.0932061611223801,0.914738909031843,0.0852610909681571,1,1,2.09805903796934e-05,1.70695498049486e-05,0.5,0.775961065591034,0.460394835948953,14.5416312179571,3.61615631271195,0.5,13.9874555699632,1,0.5,0.81358767775524,0.483352935154017,14.9507636178048,3.38024232452878,0.5,-41.0119937875946
115,1,27,A,2,0,l,27,1,0.95,2A,0A,0,1,0,1,A20,1.05696197368014,3.73766961828337,0.968489318633622,0.0173747769423422,0.0932061611223801,0.0932061611223801,0.5,0.999887450624899,0.5,0.5,0.5,0.5,0.999996088959425,0.0932061611223801,0.5,0.5,0.0932061611223801,0.999887450624899,0.600394835948953,0,0,1,0A,2A,0.968489318633622,0.0932061611223801,0.912210080103383,0.0877899198966173,1,1,0.0315106813663776,0.0256367020773564,0.5,0.775961065591034,0.460394835948953,14.5416312179571,3.61615631271195,0.5,12.9572724055245,1,0.5,0.81358767775524,0.483352935154017,14.9507636178048,3.38024232452878,0.5,-41.0119937875946
115,1,28,D,3,2,a,63,1,0.95,3D,2D,1,0,1,0,D32,2.66083391706561,2.37490575457367,0.994126020710979,0.0173747769423422,0.0932061611223801,0.0932061611223801,0.5,0.999887450624899,0.5,0.5,0.5,0.5,0.999996088959425,0.0932061611223801,0.5,0.5,0.0932061611223801,0.999887450624899,0.644394835948953,1,1,0,3D,2D,0.999887450624899,0.0932061611223801,0.914731766684289,0.0852682333157109,1,1,0.000112549375100524,9.15687847208384e-05,0.5,0.775961065591034,0.460394835948953,14.5416312179571,3.61615631271195,0.5,7.78572524888243,1,0.5,0.81358767775524,0.483352935154017,14.9507636178048,3.38024232452878,0.5,-41.0119937875946
115,1,29,D,3,2,a,63,1,0.95,3D,2D,1,0,1,0,D32,3.14225199111198,2.17475172148416,0.994126020710979,0.0173747769423422,0.0932061611223801,0.0932061611223801,0.5,0.999887450624899,0.5,0.5,0.5,0.5,0.999996088959425,0.0932061611223801,0.5,0.5,0.0932061611223801,0.99997901940962,0.602394835948953,1,1,0,3D,2D,0.99997901940962,0.0932061611223801,0.914738909031843,0.0852610909681571,1,1,2.09805903796934e-05,1.70695498049486e-05,0.5,0.775961065591034,0.460394835948953,14.5416312179571,3.61615631271195,0.5,13.5500185130476,1,0.5,0.81358767775524,0.483352935154017,14.9507636178048,3.38024232452878,0.5,-41.0119937875946
115,1,30,B,3,1,l,27,1,0.95,3B,1B,0,1,0,1,B31,0.672094057094277,3.80666248977032,0.994126020710979,0.0173747769423422,0.0932061611223801,0.0932061611223801,0.5,0.999887450624899,0.5,0.5,0.5,0.5,0.999996088959425,0.0932061611223801,0.5,0.5,0.0932061611223801,0.999996088959425,0.799394835948953,0,0,1,1B,3B,0.999887450624899,0.5,0.666641653817635,0.333358346182365,1,1,0.000112549375100524,9.15687847208384e-05,0.5,0.775961065591034,0.460394835948953,14.5416312179571,3.61615631271195,0.5,3.71580495179004,0.999999951513078,0.5,0.81358767775524,0.483352935154017,14.9507636178048,3.38024232452878,0.5,-41.0119937875946
115,1,31,D,0,3,l,9,1,0.95,0D,3D,0,1,0,1,D03,3.10632600229707,3.8286413964891,0.994126020710979,0.0173747769423422,0.0932061611223801,0.0932061611223801,0.5,0.99997901940962,0.5,0.5,0.5,0.5,0.999996088959425,0.0932061611223801,0.5,0.5,0.0932061611223801,0.999996088959425,0.921394835948953,0,0,1,3D,0D,0.999996088959425,0.5,0.666665797544273,0.333334202455727,1,1,3.91104057473335e-06,3.18197441880382e-06,0.5,0.775961065591034,0.460394835948953,14.5416312179571,3.61615631271195,0.5,1.76073328734438,0.999999952018208,0.5,0.81358767775524,0.483352935154017,14.9507636178048,3.38024232452878,0.5,-41.0119937875946
115,1,32,B,1,0,a,63,1,0.95,1B,0B,1,0,1,0,B10,2.26363368772622,3.85014760171006,0.994126020710979,0.0173747769423422,0.0932061611223801,0.0932061611223801,0.5,0.99997901940962,0.5,0.5,0.5,0.5,0.999996088959425,0.0932061611223801,0.5,0.5,0.0932061611223801,0.999999270933844,0.796394835948953,1,1,0,1B,0B,0.99997901940962,0.5,0.666662004248035,0.333337995751965,1,1,2.09805903796934e-05,1.70695498049486e-05,0.5,0.775961065591034,0.460394835948953,14.5416312179571,3.61615631271195,0.5,3.74666755123665,0.999999951558843,0.5,0.81358767775524,0.483352935154017,14.9507636178048,3.38024232452878,0.5,-41.0119937875946
115,1,33,A,1,0,l,63,1,0.95,1A,0A,0,1,0,1,A10,0.374346949505276,2.484906649788,0.994126020710979,0.0173747769423422,0.0932061611223801,0.0932061611223801,0.5,0.999996088959425,0.5,0.5,0.5,0.5,0.999996088959425,0.0932061611223801,0.5,0.5,0.0932061611223801,0.999999270933844,0.605394835948953,0,0,1,0A,1A,0.994126020710979,0.0173747769423422,0.982822774848372,0.0171772251516278,1,1,0.00587397928902111,0.00477899716893706,0.5,0.775961065591034,0.460394835948953,14.5416312179571,3.61615631271195,0.5,15.4842735185823,1,0.5,0.81358767775524,0.483352935154017,14.9507636178048,3.38024232452878,0.5,-41.0119937875946
115,1,34,B,1,0,a,63,1,0.95,1B,0B,1,0,1,0,B10,1.07961687875577,3.19867311755068,0.998905017879916,0.0173747769423422,0.0932061611223801,0.0932061611223801,0.5,0.999996088959425,0.5,0.5,0.5,0.5,0.999996088959425,0.0932061611223801,0.5,0.5,0.0932061611223801,0.999999270933844,0.702394835948953,1,1,0,1B,0B,0.999996088959425,0.5,0.666665797544273,0.333334202455727,1,1,3.91104057473335e-06,3.18197441880382e-06,0.5,0.775961065591034,0.460394835948953,14.5416312179571,3.61615631271195,0.5,2.90273958218419,0.999999951621448,0.5,0.81358767775524,0.483352935154017,14.9507636178048,3.38024232452878,0.5,-41.0119937875946
115,1,35,C,3,2,l,63,1,0.95,3C,2C,0,1,0,1,C32,2.52060554200493,2.52572864430826,0.998905017879916,0.0173747769423422,0.0932061611223801,0.0932061611223801,0.5,0.999999270933844,0.5,0.5,0.5,0.5,0.999996088959425,0.0932061611223801,0.5,0.5,0.0932061611223801,0.999999270933844,0.586394835948953,0,0,1,2C,3C,0.999996088959425,0.0932061611223801,0.914740240321125,0.085259759678875,1,1,3.91104057473335e-06,3.18197441880382e-06,0.5,0.775961065591034,0.460394835948953,14.5416312179571,3.61615631271195,0.5,8.93942051159499,1,0.5,0.81358767775524,0.483352935154017,14.9507636178048,3.38024232452878,0.5,-41.0119937875946
115,1,36,A,0,2,a,27,1,0.95,0A,2A,1,0,1,0,A02,0.692590358925165,3.23867845216438,0.998905017879916,0.0173747769423422,0.0932061611223801,0.0932061611223801,0.5,0.999999270933844,0.5,0.5,0.5,0.5,0.999999270933844,0.0932061611223801,0.5,0.5,0.0932061611223801,0.999999270933844,0.623394835948953,1,1,0,0A,2A,0.998905017879916,0.0932061611223801,0.914655061760718,0.0853449382392817,1,1,0.00109498212008408,0.000890863960262712,0.5,0.775961065591034,0.460394835948953,14.5416312179571,3.61615631271195,0.5,12.7682742255081,1,0.5,0.81358767775524,0.483352935154017,14.9507636178048,3.38024232452878,0.5,-41.0119937875946
115,1,37,B,1,0,a,63,1,0.95,1B,0B,1,0,1,0,B10,2.50178825674601,2.85263142991332,0.999795881840179,0.0173747769423422,0.0932061611223801,0.0932061611223801,0.5,0.999999270933844,0.5,0.5,0.5,0.5,0.999999270933844,0.0932061611223801,0.5,0.5,0.0932061611223801,0.999999270933844,0.855394835948953,1,1,0,1B,0B,0.999999270933844,0.5,0.666666504651887,0.333333495348113,1,1,7.29066155891189e-07,5.93159240701452e-07,0.5,0.775961065591034,0.460394835948953,14.5416312179571,3.61615631271195,0.5,2.86503711206452,0.999999951957753,0.5,0.81358767775524,0.483352935154017,14.9507636178048,3.38024232452878,0.5,-41.0119937875946
115,1,38,B,3,1,l,27,1,0.95,3B,1B,0,1,0,1,B31,1.02346273877685,3.27714473299218,0.999795881840179,0.0173747769423422,0.0932061611223801,0.0932061611223801,0.5,0.999999864093085,0.5,0.5,0.5,0.5,0.999999270933844,0.0932061611223801,0.5,0.5,0.0932061611223801,0.999999270933844,0.692394835948953,0,0,1,1B,3B,0.999999864093085,0.5,0.666666636465127,0.333333363534873,1,1,1.35906915166295e-07,1.10572191501024e-07,0.5,0.775961065591034,0.460394835948953,14.5416312179571,3.61615631271195,0.5,2.57949770479512,0.999999951523092,0.5,0.81358767775524,0.483352935154017,14.9507636178048,3.38024232452878,0.5,-41.0119937875946
115,1,39,C,3,2,l,63,1,0.95,3C,2C,0,1,0,1,C32,0.544110107521161,2.37954613413017,0.999795881840179,0.0173747769423422,0.0932061611223801,0.0932061611223801,0.5,0.999999974665276,0.5,0.5,0.5,0.5,0.999999270933844,0.0932061611223801,0.5,0.5,0.0932061611223801,0.999999270933844,0.586394835948953,0,0,1,2C,3C,0.999999270933844,0.0932061611223801,0.914740488485254,0.0852595115147456,1,1,7.29066155891189e-07,5.93159240701452e-07,0.5,0.775961065591034,0.460394835948953,14.5416312179571,3.61615631271195,0.5,8.93411553621484,1,0.5,0.81358767775524,0.483352935154017,14.9507636178048,3.38024232452878,0.5,-41.0119937875946
115,1,40,D,3,1,a,27,1,0.95,3D,1D,1,0,1,0,D31,0.853420247001325,4.00733318523247,0.999795881840179,0.0173747769423422,0.0932061611223801,0.0932061611223801,0.5,0.999999974665276,0.5,0.5,0.5,0.5,0.999999864093085,0.0932061611223801,0.5,0.5,0.0932061611223801,0.999999270933844,0.787394835948953,1,1,0,3D,1D,0.999999270933844,0.5,0.666666504651887,0.333333495348113,1,1,7.29066155891189e-07,5.93159240701452e-07,0.5,0.775961065591034,0.460394835948953,14.5416312179571,3.61615631271195,0.5,3.82499411095443,0.999999951804478,0.5,0.81358767775524,0.483352935154017,14.9507636178048,3.38024232452878,0.5,-41.0119937875946
115,1,41,C,1,2,l,9,1,0.95,1C,2C,0,1,0,1,C12,3.18918179496623,4.02535169073515,0.999795881840179,0.0173747769423422,0.0932061611223801,0.0932061611223801,0.5,0.999999974665276,0.5,0.5,0.5,0.5,0.999999864093085,0.0932061611223801,0.5,0.5,0.0932061611223801,0.999999864093085,0.888394835948953,0,0,1,2C,1C,0.999999864093085,0.5,0.666666636465127,0.333333363534873,1,1,1.35906915166295e-07,1.10572191501024e-07,0.5,0.775961065591034,0.460394835948953,14.5416312179571,3.61615631271195,0.5,2.28915640451135,0.999999951775782,0.5,0.81358767775524,0.483352935154017,14.9507636178048,3.38024232452878,0.5,-41.0119937875946
115,1,42,B,0,1,l,63,0,0.95,0B,1B,0,1,1,0,B01,2.79323141568465,2.65675690671466,0.999795881840179,0.0173747769423422,0.0932061611223801,0.0932061611223801,0.5,0.999999974665276,0.5,0.5,0.5,0.5,0.999999974665276,0.0932061611223801,0.5,0.5,0.0932061611223801,0.999999864093085,0.805394835948953,0,0,1,1B,0B,0.999999974665276,0.5,0.666666661036728,0.333333338963272,1,0,-0.999999974665276,-0.813587657143221,0.5,0.775961065591034,0.460394835948953,14.5416312179571,3.61615631271195,0.5,3.64838599680896,0.999999951852993,0.5,0.81358767775524,0.483352935154017,14.9507636178048,3.38024232452878,0.5,-41.0119937875946
115,1,43,D,3,2,a,63,1,0.95,3D,2D,1,0,1,0,D32,3.05055568422067,2.26868354131836,0.999795881840179,0.0173747769423422,0.0932061611223801,0.0932061611223801,0.5,0.186412317522056,0.5,0.5,0.5,0.5,0.999999974665276,0.0932061611223801,0.5,0.5,0.0932061611223801,0.999999864093085,0.655394835948953,1,1,0,3D,2D,0.999999864093085,0.0932061611223801,0.914740534745946,0.0852594652540537,1,1,1.35906915166295e-07,1.10572191501024e-07,0.5,0.775961065591034,0.460394835948953,14.5416312179571,3.61615631271195,0.5,5.33528777871618,1,0.5,0.81358767775524,0.483352935154017,14.9507636178048,3.38024232452878,0.5,-41.0119937875946
115,1,44,A,0,1,a,63,1,0.95,0A,1A,1,0,1,0,A01,0.420045053825177,2.97892515523761,0.999795881840179,0.0173747769423422,0.0932061611223801,0.0932061611223801,0.5,0.186412317522056,0.5,0.5,0.5,0.5,0.999999974665276,0.0932061611223801,0.5,0.5,0.0932061611223801,0.999999974665276,0.640394835948953,1,1,0,0A,1A,0.999795881840179,0.0173747769423422,0.982918523266156,0.0170814767338438,1,1,0.000204118159821354,0.000166068019636728,0.5,0.775961065591034,0.460394835948953,14.5416312179571,3.61615631271195,0.5,3.74287739005643,1,0.5,0.81358767775524,0.483352935154017,14.9507636178048,3.38024232452878,0.5,-41.0119937875946
