trials_runs.thisRepN;trials_runs.thisTrialN;trials_runs.thisN;trials_runs.thisIndex;standbild_start.started;standbild_start.stopped;trigger.keys;trigger.rt;trigger.started;trigger.stopped;keys_2.keys;keys_2.started;keys_2.stopped;trials_runs.tactile_stim;trials_runs.visual_stim_left;trials_runs.visual_stim_right;trials_runs.correctKey;trials_runs.presentationFrequncy;trials_runs.FBaccuracy;trials_runs.ISI_s;trials_runs.ITI_s;keys_3.keys;keys_3.started;keys_3.stopped;image_stim_left.started;image_stim_right.started;tactile.started;response_4.keys;allKeys.keys;response_4.rt;allKeys.rt;response_5.keys;response_5.started;response_5.stopped;response_runs.keys;response_runs.rt;trials_runs.correct_answer;trials_runs.feedback_given;trials_runs.running_mean;feedback_6.stopped;feedback_6.started;keys_6.keys;keys_6.started;keys_6.stopped;response_5.rt;keys_3.rt;keys_7.keys;keys_7.started;keys_7.stopped;standbild_end.started;standbild_end.stopped;Stop_exp.keys;Stop_exp.started;Stop_exp.stopped;trials_runs.rightKey;trials_runs.leftKey;ts_difficulty;visualPair;tactilePair;trials_runs.mean_acc_1stFourth;trials_runs.mean_acc_2ndFourth;trials_runs.mean_acc_3rdFourth;trials_runs.mean_acc_4thFourth;nbCorrect;nbOmissions;nbIncorrect;participant;session;visual set [1-6];tactile set [1-3];trial structure [0-3 / 4-7];pairing [0-23];prob Feedback;date;expName;psychopyVersion;frameRate
;;;;29.9165883;None;t;49.1618981;29.9165883;None;;;;;;;;;;;;;;;;;;;;;;;;;;;;;;;;;;;;;;;;;;;;;;;;;;;;;;;;;CBC_1019;2;5;2;2;18;0.9;2023-06-28_16h17.24.850;MSI_TV_v3;01.01.2022;59.98922594
;;;;;;;;;;None;79.1098934;None;;;;;;;;;;;;;;;;;;;;;;;;;;;;;;;;;;;;;;;;;;;;;;;;;;;;;;CBC_1019;2;5;2;2;18;0.9;2023-06-28_16h17.24.850;MSI_TV_v3;01.01.2022;59.98922594
0;0;0;0;;;;;;;;;;3;0;1;b;63;1;3.733261362;3.401559799;None;79.3096054;None;82.69299998;82.69299998;82.70968258;z;['z'];1.9776379;[1.9776378999995359];None;84.7382155;None;z;1.9776379;0;0;0;None;88.4814528;None;88.4814528;None;;;;;;;;;;;;;;;;;;;;;;;CBC_1019;2;5;2;2;18;0.9;2023-06-28_16h17.24.850;MSI_TV_v3;01.01.2022;59.98922594
1;0;1;0;;;;;;;;;;2;2;3;z;63;1;3.683710799;3.331249833;None;90.2760707;None;93.59264778;93.59264778;93.60930298;None;[];;;['z'];95.5932792;None;z;2.3704644;1;1;0.5;None;99.2766988;None;99.2766988;None;[0.3704643999990367];;;;;;;;;;;;;;;;;;;;;;CBC_1019;2;5;2;2;18;0.9;2023-06-28_16h17.24.850;MSI_TV_v3;01.01.2022;59.98922594
2;0;2;0;;;;;;;;;;1;0;2;z;27;1;2.639174735;1.965687352;None;101.0763009;None;103.0260955;103.0260955;103.04277;None;[];;;['b'];105.0286485;None;b;2.7995421;0;0;0.333333333;None;107.6803223;None;107.6803223;None;[0.7995420999995986];;;;;;;;;;;;;;;;;;;;;;CBC_1019;2;5;2;2;18;0.9;2023-06-28_16h17.24.850;MSI_TV_v3;01.01.2022;59.98922594
3;0;3;0;;;;;;;;;;3;0;1;b;63;1;2.275987795;1.363090781;None;109.493035;None;110.8431621;110.8431621;110.8597351;None;[];;;['z'];112.8460859;None;z;2.4092744;0;0;0.25;None;115.1235984;None;115.1235984;None;[0.4092743999990489];;;;;;;;;;;;;;;;;;;;;;CBC_1019;2;5;2;2;18;0.9;2023-06-28_16h17.24.850;MSI_TV_v3;01.01.2022;59.98922594
4;0;4;0;;;;;;;;;;0;1;3;b;27;1;4.124852712;1.607319379;None;116.9265541;None;118.5096774;118.5096774;118.5264447;b;['b'];1.8230413;[1.8230412999982946];None;120.5512837;None;b;1.8230413;1;1;0.4;None;124.6709302;None;124.6709302;None;;;;;;;;;;;;;;;;;;;;;;;CBC_1019;2;5;2;2;18;0.9;2023-06-28_16h17.24.850;MSI_TV_v3;01.01.2022;59.98922594
5;0;5;0;;;;;;;;;;1;3;2;z;63;1;2.678526078;0.777036402;None;126.4763214;None;127.2261799;127.2261799;127.2428863;None;[];;;['z'];129.2294089;None;z;2.070941;1;1;0.5;None;131.9112215;None;131.9112215;None;[0.07094099999994796];;;;;;;;;;;;;;;;;;;;;;CBC_1019;2;5;2;2;18;0.9;2023-06-28_16h17.24.850;MSI_TV_v3;01.01.2022;59.98922594
6;0;6;0;;;;;;;;;;2;3;2;b;63;0;3.372878561;3.069924563;None;133.7265784;None;136.7764713;136.7764713;136.7932003;None;[];;;['b'];138.8271546;None;b;2.282703;1;0;0.571428571;None;142.2031708;None;142.2031708;None;[0.2827029999989463];;;;;;;;;;;;;;;;;;;;;;CBC_1019;2;5;2;2;18;0.9;2023-06-28_16h17.24.850;MSI_TV_v3;01.01.2022;59.98922594
7;0;7;0;;;;;;;;;;0;0;1;z;63;1;4.610046692;2.403787129;None;144.0095285;None;146.3923138;146.3923138;146.4086135;None;[];;;['b'];148.3864133;None;b;3.191994;0;0;0.5;None;152.9910566;None;152.9910566;None;[1.1919940000007045];;;;;;;;;;;;;;;;;;;;;;CBC_1019;2;5;2;2;18;0.9;2023-06-28_16h17.24.850;MSI_TV_v3;01.01.2022;59.98922594
8;0;8;0;;;;;;;;;;3;2;0;z;27;1;2.526044641;2.155339498;None;154.79322;None;156.926666;156.926666;156.9433265;None;[];;;['z'];158.9296983;None;z;2.9685056;1;1;0.555555556;None;161.4554802;None;161.4554802;None;[0.968505599999844];;;;;;;;;;;;;;;;;;;;;;CBC_1019;2;5;2;2;18;0.9;2023-06-28_16h17.24.850;MSI_TV_v3;01.01.2022;59.98922594
9;0;9;0;;;;;;;;;;2;3;0;b;9;1;3.022342361;1.12425434;None;163.2595904;None;164.3590194;164.3590194;164.3753584;None;[];;;['z'];166.3547219;None;z;2.3677922;0;0;0.5;None;169.3705036;None;169.3705036;None;[0.36779219999880297];;;;;;;;;;;;;;;;;;;;;;CBC_1019;2;5;2;2;18;0.9;2023-06-28_16h17.24.850;MSI_TV_v3;01.01.2022;59.98922594
10;0;10;0;;;;;;;;;;1;2;3;b;63;1;4.190022164;1.951303448;None;171.1765272;None;173.1097049;173.1097049;173.1264025;None;[];;;['z'];175.1127239;None;z;3.0427023;0;0;0.454545455;None;179.3055271;None;179.3055271;None;[1.0427022999992914];;;;;;;;;;;;;;;;;;;;;;CBC_1019;2;5;2;2;18;0.9;2023-06-28_16h17.24.850;MSI_TV_v3;01.01.2022;59.98922594
11;0;11;0;;;;;;;;;;0;0;1;z;63;1;4.400172715;1.532435503;None;181.1097221;None;182.6265395;182.6265395;182.6431426;None;[];;;['z'];184.6246441;None;z;2.5909941;1;1;0.5;None;189.0443353;None;189.0443353;None;[0.5909940999990795];;;;;;;;;;;;;;;;;;;;;;CBC_1019;2;5;2;2;18;0.9;2023-06-28_16h17.24.850;MSI_TV_v3;01.01.2022;59.98922594
12;0;12;0;;;;;;;;;;2;2;3;z;63;1;4.115145368;1.644211099;None;190.8600655;None;192.4758972;192.4758972;192.4923867;None;[];;;['b'];194.4705876;None;b;2.4005722;0;0;0.461538462;None;198.5905254;None;198.5905254;None;[0.4005722000001697];;;;;;;;;;;;;;;;;;;;;;CBC_1019;2;5;2;2;18;0.9;2023-06-28_16h17.24.850;MSI_TV_v3;01.01.2022;59.98922594
13;0;13;0;;;;;;;;;;1;2;3;b;63;1;4.777236671;3.454316901;None;200.3924429;None;203.8268114;203.8268114;203.8434192;None;[];;;['b'];205.8283985;None;b;3.7807509;1;1;0.5;None;210.6030889;None;210.6030889;None;[1.7807508999994752];;;;;;;;;;;;;;;;;;;;;;CBC_1019;2;5;2;2;18;0.9;2023-06-28_16h17.24.850;MSI_TV_v3;01.01.2022;59.98922594
14;0;14;0;;;;;;;;;;0;3;1;z;27;1;2.433630701;1.259201458;None;212.4097071;None;213.6433996;213.6433996;213.6598018;None;[];;;['z'];215.6417398;None;z;3.5569678;1;1;0.533333333;None;218.0845508;None;218.0845508;None;[1.5569677999992564];;;;;;;;;;;;;;;;;;;;;;CBC_1019;2;5;2;2;18;0.9;2023-06-28_16h17.24.850;MSI_TV_v3;01.01.2022;59.98922594
15;0;15;0;;;;;;;;;;3;0;3;b;9;1;4.725850567;3.142444956;None;219.8935216;None;223.0097728;223.0097728;223.0260415;None;[];;;['b'];225.0036292;None;b;2.8166803;1;1;0.5625;None;229.7202511;None;229.7202511;None;[0.8166802999985521];;;;;;;;;;;;;;;;;;;;;;CBC_1019;2;5;2;2;18;0.9;2023-06-28_16h17.24.850;MSI_TV_v3;01.01.2022;59.98922594
16;0;16;0;;;;;;;;;;2;2;3;z;63;1;2.713456592;1.180657385;None;231.5265865;None;232.6936256;232.6936256;232.7100874;None;[];;;['b', 'z'];234.6957192;None;b;2.2796864;0;0;0.529411765;None;237.4196729;None;237.4196729;None;[0.2796863999992638, 1.185152800000651];;;;;;;;;;;;;;;;;;;;;;CBC_1019;2;5;2;2;18;0.9;2023-06-28_16h17.24.850;MSI_TV_v3;01.01.2022;59.98922594
17;0;17;0;;;;;;;;;;1;0;2;z;27;1;3.768736916;1.907436908;None;239.2266825;None;241.1091211;241.1091211;241.1261155;None;[];;;['z'];243.1048694;None;z;2.8807155;1;1;0.555555556;None;246.8721395;None;246.8721395;None;[0.8807154999976774];;;;;;;;;;;;;;;;;;;;;;CBC_1019;2;5;2;2;18;0.9;2023-06-28_16h17.24.850;MSI_TV_v3;01.01.2022;59.98922594
18;0;18;0;;;;;;;;;;3;0;1;b;63;1;2.823204082;0.974903167;None;248.6758947;None;249.6269252;249.6269252;249.6435555;None;[];;;['b'];251.6448606;None;b;2.8169973;1;1;0.578947368;None;254.454452;None;254.454452;None;[0.8169972999985475];;;;;;;;;;;;;;;;;;;;;;CBC_1019;2;5;2;2;18;0.9;2023-06-28_16h17.24.850;MSI_TV_v3;01.01.2022;59.98922594
19;0;19;0;;;;;;;;;;0;1;0;b;63;0;4.017143546;2.966530537;None;256.2599952;None;259.2096089;259.2096089;259.2258262;b;['b'];1.3914311;[1.3914311000007729];None;261.2565339;None;b;1.3914311;1;0;0.6;None;265.2865524;None;265.2865524;None;;;;;;;;;;;;;;;;;;;;;;;CBC_1019;2;5;2;2;18;0.9;2023-06-28_16h17.24.850;MSI_TV_v3;01.01.2022;59.98922594
20;0;20;0;;;;;;;;;;2;3;1;b;27;1;3.206202427;2.629910064;None;267.0931623;None;269.7100997;269.7100997;269.7269897;None;[];;;['b'];271.7070757;None;b;2.8472677;1;1;0.619047619;None;274.9233136;None;274.9233136;None;[0.8472676999990654];;;;;;;;;;;;;;;;;;;;;;CBC_1019;2;5;2;2;18;0.9;2023-06-28_16h17.24.850;MSI_TV_v3;01.01.2022;59.98922594
21;0;21;0;;;;;;;;;;1;3;2;z;63;1;2.629554641;3.196300833;None;276.7270629;None;279.9101832;279.9101832;279.9270737;None;[];;;None;281.9077101;None;None;[];0;3;0.590909091;None;284.5424159;None;284.5424159;None;;;;;;;;;;;;;;;;;;;;;;;CBC_1019;2;5;2;2;18;0.9;2023-06-28_16h17.24.850;MSI_TV_v3;01.01.2022;59.98922594
22;0;22;0;;;;;;;;;;0;0;1;z;63;1;2.496959178;1.43470441;['z'];286.3429336;None;287.7604043;287.7604043;287.7770577;z;['z'];1.1478389;[1.1478389000003517];None;289.7775011;None;z;1.1478389;1;1;0.608695652;None;292.276163;None;292.276163;None;;[0.24888059999830148];;;;;;;;;;;;;;;;;;;;;CBC_1019;2;5;2;2;18;0.9;2023-06-28_16h17.24.850;MSI_TV_v3;01.01.2022;59.98922594
23;0;23;0;;;;;;;;;;3;0;2;b;27;1;2.592312597;1.258177479;None;294.0771886;None;295.3101315;295.3101315;295.3268693;None;[];;;['b'];297.3062549;None;b;2.2034248;1;1;0.625;None;299.8978115;None;299.8978115;None;[0.2034247999999934];;;;;;;;;;;;;;;;;;;;;;CBC_1019;2;5;2;2;18;0.9;2023-06-28_16h17.24.850;MSI_TV_v3;01.01.2022;59.98922594
24;0;24;0;;;;;;;;;;2;3;2;b;63;1;3.265390635;1.786435855;None;301.7215996;None;303.4768239;303.4768239;303.4935353;None;[];;;['b'];305.4803396;None;b;3.1931317;1;1;0.64;None;308.7685172;None;308.7685172;None;[1.1931316999980481];;;;;;;;;;;;;;;;;;;;;;CBC_1019;2;5;2;2;18;0.9;2023-06-28_16h17.24.850;MSI_TV_v3;01.01.2022;59.98922594
25;0;25;0;;;;;;;;;;1;0;2;z;27;1;2.91303524;2.498395274;None;310.5772268;None;313.0431;313.0431;313.059579;None;[];;;['z'];315.0383236;None;z;2.9534942;1;1;0.653846154;None;317.9530316;None;317.9530316;None;[0.9534941999991133];;;;;;;;;;;;;;;;;;;;;;CBC_1019;2;5;2;2;18;0.9;2023-06-28_16h17.24.850;MSI_TV_v3;01.01.2022;59.98922594
26;0;26;0;;;;;;;;;;0;0;1;z;63;1;3.713727101;1.124389584;None;319.7605162;None;320.8604638;320.8604638;320.8771512;None;[];;;['z'];322.8574745;None;z;2.6121374;1;1;0.666666667;None;326.5889426;None;326.5889426;None;[0.612137399999483];;;;;;;;;;;;;;;;;;;;;;CBC_1019;2;5;2;2;18;0.9;2023-06-28_16h17.24.850;MSI_TV_v3;01.01.2022;59.98922594
27;0;27;0;;;;;;;;;;3;1;0;z;63;1;4.52047235;2.104215073;None;328.3929376;None;330.4772125;330.4772125;330.4937457;z;['z'];1.5995394;[1.5995393999983207];None;332.5255292;None;z;1.5995394;1;1;0.678571429;None;337.0388778;None;337.0388778;None;;;;;;;;;;;;;;;;;;;;;;;CBC_1019;2;5;2;2;18;0.9;2023-06-28_16h17.24.850;MSI_TV_v3;01.01.2022;59.98922594
28;0;28;0;;;;;;;;;;1;2;3;b;63;0;2.342239579;1.21250262;None;338.8439834;None;340.0272661;340.0272661;340.0439858;z;['z'];1.7286652;[1.7286651999984315];None;342.0684937;None;z;1.7286652;0;1;0.655172414;None;344.4034747;None;344.4034747;None;;;;;;;;;;;;;;;;;;;;;;;CBC_1019;2;5;2;2;18;0.9;2023-06-28_16h17.24.850;MSI_TV_v3;01.01.2022;59.98922594
29;0;29;0;;;;;;;;;;2;1;3;z;27;1;3.750031517;2.098878705;None;346.209661;None;348.2775068;348.2775068;348.2940581;None;[];;;['z'];350.2812385;None;z;2.018582;1;1;0.666666667;None;354.0440199;None;354.0440199;None;[0.01858199999878707];;;;;;;;;;;;;;;;;;;;;;CBC_1019;2;5;2;2;18;0.9;2023-06-28_16h17.24.850;MSI_TV_v3;01.01.2022;59.98922594
30;0;30;0;;;;;;;;;;3;0;1;b;63;1;4.469240022;0.952147612;None;355.8436702;None;356.777449;356.777449;356.7938179;b;['b'];1.3902008;[1.390200799998638];None;358.7933234;None;b;1.3902008;1;1;0.677419355;None;363.2719374;None;363.2719374;None;;;;;;;;;;;;;;;;;;;;;;;CBC_1019;2;5;2;2;18;0.9;2023-06-28_16h17.24.850;MSI_TV_v3;01.01.2022;59.98922594
31;0;31;0;;;;;;;;;;2;2;3;z;63;1;3.351334582;1.522905996;None;365.0869895;None;366.5767317;366.5767317;366.5926675;None;[];;;['b'];368.5702859;None;b;3.4218016;0;0;0.65625;None;371.9253422;None;371.9253422;None;[1.421801599999526];;;;;;;;;;;;;;;;;;;;;;CBC_1019;2;5;2;2;18;0.9;2023-06-28_16h17.24.850;MSI_TV_v3;01.01.2022;59.98922594
32;0;32;0;;;;;;;;;;0;1;2;b;9;1;4.770344255;1.346688606;None;373.7271079;None;375.0606512;375.0606512;375.0773394;b;['b'];1.6670956;[1.6670955999998114];None;377.1212456;None;b;1.6670956;1;1;0.666666667;None;381.8931175;None;381.8931175;None;;;;;;;;;;;;;;;;;;;;;;;CBC_1019;2;5;2;2;18;0.9;2023-06-28_16h17.24.850;MSI_TV_v3;01.01.2022;59.98922594
33;0;33;0;;;;;;;;;;3;0;1;b;63;1;4.53337422;1.275384627;None;383.6936958;None;384.9438992;384.9438992;384.9605132;b;['b'];1.4035191;[1.403519099998448];None;386.9566241;None;b;1.4035191;1;1;0.676470588;None;391.505025;None;391.505025;None;;;;;;;;;;;;;;;;;;;;;;;CBC_1019;2;5;2;2;18;0.9;2023-06-28_16h17.24.850;MSI_TV_v3;01.01.2022;59.98922594
34;0;34;0;;;;;;;;;;1;1;2;z;9;1;4.825318072;0.91751991;None;393.3106669;None;394.2107517;394.2107517;394.2274193;z;['z'];1.1644528;[1.164452799999708];None;396.2530251;None;z;1.1644528;1;1;0.685714286;None;401.08907;None;401.08907;None;;;;;;;;;;;;;;;;;;;;;;;CBC_1019;2;5;2;2;18;0.9;2023-06-28_16h17.24.850;MSI_TV_v3;01.01.2022;59.98922594
35;0;35;0;;;;;;;;;;0;0;1;z;63;1;2.517541938;1.382898925;None;402.8943295;None;404.2608269;404.2608269;404.2775335;z;['z'];1.3694181;[1.3694180999991659];None;406.3018719;None;z;1.3694181;1;1;0.694444444;None;408.8215203;None;408.8215203;None;;;;;;;;;;;;;;;;;;;;;;;CBC_1019;2;5;2;2;18;0.9;2023-06-28_16h17.24.850;MSI_TV_v3;01.01.2022;59.98922594
36;0;36;0;;;;;;;;;;3;1;0;z;63;0;2.792365601;2.783469325;None;410.6272394;None;413.3943858;413.3943858;413.4108006;z;['z'];1.2886122;[1.2886121999981697];None;415.4113848;None;z;1.2886122;1;0;0.702702703;None;418.2224512;None;418.2224512;None;;;;;;;;;;;;;;;;;;;;;;;CBC_1019;2;5;2;2;18;0.9;2023-06-28_16h17.24.850;MSI_TV_v3;01.01.2022;59.98922594
37;0;37;0;;;;;;;;;;0;1;0;b;63;1;3.643838655;0.761758675;None;420.0274867;None;420.7613942;420.7613942;420.7773178;b;['b'];1.7449358;[1.744935799999439];None;422.7736462;None;b;1.7449358;1;1;0.710526316;None;426.4226987;None;426.4226987;None;;;;;;;;;;;;;;;;;;;;;;;CBC_1019;2;5;2;2;18;0.9;2023-06-28_16h17.24.850;MSI_TV_v3;01.01.2022;59.98922594
38;0;38;0;;;;;;;;;;2;3;1;b;27;1;2.927313834;2.224271879;None;428.2263721;None;430.4269369;430.4269369;430.4431919;b;['b'];1.8735198;[1.8735197999994853];None;432.4595207;None;b;1.8735198;1;1;0.717948718;None;435.4062916;None;435.4062916;None;;;;;;;;;;;;;;;;;;;;;;;CBC_1019;2;5;2;2;18;0.9;2023-06-28_16h17.24.850;MSI_TV_v3;01.01.2022;59.98922594
39;0;39;0;;;;;;;;;;1;2;3;b;63;1;2.294664844;3.245693266;None;437.2108243;None;440.4444215;440.4444215;440.4611193;None;[];;;['z'];442.446492;None;z;2.1863712;0;0;0.7;None;444.7405218;None;444.7405218;None;[0.18637119999948482];;;;;;;;;;;;;;;;;;;;;;CBC_1019;2;5;2;2;18;0.9;2023-06-28_16h17.24.850;MSI_TV_v3;01.01.2022;59.98922594
40;0;40;0;;;;;;;;;;3;2;0;z;27;1;4.753330511;0.97977615;None;446.5446385;None;447.5112451;447.5112451;447.5279667;z;['z'];1.4287192;[1.4287191999992501];None;449.5526883;None;z;1.4287192;1;1;0.707317073;None;454.3049734;None;454.3049734;None;;;;;;;;;;;;;;;;;;;;;;;CBC_1019;2;5;2;2;18;0.9;2023-06-28_16h17.24.850;MSI_TV_v3;01.01.2022;59.98922594
41;0;41;0;;;;;;;;;;2;3;2;b;63;1;2.693348633;1.531228355;None;456.1100532;None;457.6111254;457.6111254;457.6278042;None;[];;;['b'];459.6122157;None;b;2.3927048;1;1;0.714285714;None;462.3050881;None;462.3050881;None;[0.39270480000050156];;;;;;;;;;;;;;;;;;;;;;CBC_1019;2;5;2;2;18;0.9;2023-06-28_16h17.24.850;MSI_TV_v3;01.01.2022;59.98922594
42;0;42;0;;;;;;;;;;0;3;1;z;27;1;2.666404968;1.948584858;None;464.1104812;None;466.0275343;466.0275343;466.0442047;z;['z'];1.6080262;[1.6080261999995855];None;468.0815315;None;z;1.6080262;1;1;0.720930233;None;470.7569629;None;470.7569629;None;;;;;;;;;;;;;;;;;;;;;;;CBC_1019;2;5;2;2;18;0.9;2023-06-28_16h17.24.850;MSI_TV_v3;01.01.2022;59.98922594
43;0;43;0;;;;;;;;;;1;2;3;b;63;1;3.319294193;0.807880636;None;472.5610419;None;473.3445636;473.3445636;473.361308;None;[];;;['b'];475.3475621;None;b;2.1314321;1;1;0.727272727;None;478.6833924;None;478.6833924;None;[0.13143209999907413];;;;;;;;;;;;;;;;;;;;;;CBC_1019;2;5;2;2;18;0.9;2023-06-28_16h17.24.850;MSI_TV_v3;01.01.2022;59.98922594
;;;;;;;;;;;;;;;;;;;;;;;;;;;;;;;;;;;;;;;;;;;;;;None;480.4944918;None;;;;;;;;;;;;;;;;;;CBC_1019;2;5;2;2;18;0.9;2023-06-28_16h17.24.850;MSI_TV_v3;01.01.2022;59.98922594
;;;;;;;;;;;;;;;;;;;;;;;;;;;;;;;;;;;;;;;;;;;;;;;;;485.4778364;None;None;485.4778364;490.4611484;;;;;;;;;;;;;CBC_1019;2;5;2;2;18;0.9;2023-06-28_16h17.24.850;MSI_TV_v3;01.01.2022;59.98922594
;;;;;;;;;;;;;;;;;;;;;;;;;;;;;;;;;;;;;;;;;;;;;;;;;;;;;;z;b;hard;[0, 1, 2, 3];[3, 0, 1, 2];0.454545455;0.727272727;0.818181818;0.909090909;30;1;13;;;;;;;;;;;
