trials_runs.thisRepN,trials_runs.thisTrialN,trials_runs.thisN,trials_runs.thisIndex,standbild_start.started,standbild_start.stopped,trigger.keys,trigger.rt,trigger.started,trigger.stopped,keys_2.keys,keys_2.started,keys_2.stopped,trials_runs.tactile_stim,trials_runs.visual_stim_left,trials_runs.visual_stim_right,trials_runs.correctKey,trials_runs.presentationFrequncy,trials_runs.FBaccuracy,trials_runs.ISI_s,trials_runs.ITI_s,keys_3.keys,keys_3.started,keys_3.stopped,image_stim_left.started,image_stim_right.started,tactile.started,response_4.keys,allKeys.keys,response_5.keys,response_5.started,response_5.stopped,response_runs.keys,response_runs.rt,trials_runs.correct_answer,trials_runs.feedback_given,trials_runs.running_mean,feedback_6.stopped,feedback_6.started,keys_6.keys,keys_6.started,keys_6.stopped,response_5.rt,response_4.rt,allKeys.rt,keys_7.keys,keys_7.started,keys_7.stopped,standbild_end.started,standbild_end.stopped,Stop_exp.keys,Stop_exp.started,Stop_exp.stopped,trials_runs.rightKey,trials_runs.leftKey,ts_difficulty,visualPair,tactilePair,trials_runs.mean_acc_1stFourth,trials_runs.mean_acc_2ndFourth,trials_runs.mean_acc_3rdFourth,trials_runs.mean_acc_4thFourth,nbCorrect,nbOmissions,nbIncorrect,participant,session,visual set [1-6],tactile set [1-3],trial structure [0-3 / 4-7],pairing [0-23],prob Feedback,date,expName,psychopyVersion,frameRate,
,,,,43.044805699999415,None,t,63.460065200002646,43.044805699999415,None,,,,,,,,,,,,,,,,,,,,,,,,,,,,,,,,,,,,,,,,,,,,,,,,,,,,,,,,CBC_1071,002,2,3,0,0,0.95,2024-02-02_15h20.49.299,MSI_TV_v3,2022.1.1,59.7962383377405,
,,,,,,,,,,None,106.52412619999996,None,,,,,,,,,,,,,,,,,,,,,,,,,,,,,,,,,,,,,,,,,,,,,,,,,,,,,CBC_1071,002,2,3,0,0,0.95,2024-02-02_15h20.49.299,MSI_TV_v3,2022.1.1,59.7962383377405,
0,0,0,0,,,,,,,,,,1,0.0,1.0,z,63.0,1.0,3.02234236141277,2.96653053743745,None,106.72387459999845,None,109.67490305999927,109.67490305999927,109.69152785999977,None,[],None,111.6774364999983,None,None,[],0,3,0.0,None,114.73928929999965,None,114.73928929999965,None,,,,,,,,,,,,,,,,,,,,,,,,CBC_1071,002,2,3,0,0,0.95,2024-02-02_15h20.49.299,MSI_TV_v3,2022.1.1,59.7962383377405,
1,0,1,0,,,,,,,,,,0,0.0,1.0,b,63.0,1.0,3.7500315165247198,2.6299100644723,None,116.50803749999977,None,119.12367315999909,119.12367315999909,119.14034725999845,None,[],['b'],121.11986489999981,None,b,3.1087358000022505,1,1,0.5,None,124.86873729999934,None,124.86873729999934,None,[1.1087358000022505],,,,,,,,,,,,,,,,,,,,,,,CBC_1071,002,2,3,0,0,0.95,2024-02-02_15h20.49.299,MSI_TV_v3,2022.1.1,59.7962383377405,
2,0,2,0,,,,,,,,,,3,2.0,3.0,z,63.0,1.0,4.7533305109883095,1.95130344756745,None,126.67494189999888,None,128.6082608599998,128.6082608599998,128.62491285999823,None,[],['b'],130.61326909999843,None,b,2.501702000001387,0,0,0.3333333333333333,None,135.36924839999847,None,135.36924839999847,None,[0.5017020000013872],,,,,,,,,,,,,,,,,,,,,,,CBC_1071,002,2,3,0,0,0.95,2024-02-02_15h20.49.299,MSI_TV_v3,2022.1.1,59.7962383377405,
3,0,3,0,,,,,,,,,,1,2.0,1.0,z,9.0,1.0,2.517541937862754,3.4543169006169,None,137.1737884999984,None,140.60823585999862,140.60823585999862,140.62495115999883,None,[],['b'],142.6078284999985,None,b,2.8900312000005215,0,0,0.25,None,145.1306358999991,None,145.1306358999991,None,[0.8900312000005215],,,,,,,,,,,,,,,,,,,,,,,CBC_1071,002,2,3,0,0,0.95,2024-02-02_15h20.49.299,MSI_TV_v3,2022.1.1,59.7962383377405,
4,0,4,0,,,,,,,,,,0,0.0,2.0,b,27.0,1.0,4.82531807167306,3.33124983260532,None,146.94179209999857,None,150.2574211599993,150.2574211599993,150.27394005999923,None,[],['b'],152.253794799999,None,b,2.552650400000857,1,1,0.4,None,157.07722159999867,None,157.07722159999867,None,[0.5526504000008572],,,,,,,,,,,,,,,,,,,,,,,CBC_1071,002,2,3,0,0,0.95,2024-02-02_15h20.49.299,MSI_TV_v3,2022.1.1,59.7962383377405,
5,0,5,0,,,,,,,,,,2,2.0,3.0,b,63.0,1.0,3.2062024266105302,1.43470440954152,None,158.89189009999973,None,160.3072677599983,160.3072677599983,160.32358425999956,None,[],['b'],162.30269729999964,None,b,3.0315329000022757,1,1,0.5,None,165.5070700999986,None,165.5070700999986,None,[1.0315329000022757],,,,,,,,,,,,,,,,,,,,,,,CBC_1071,002,2,3,0,0,0.95,2024-02-02_15h20.49.299,MSI_TV_v3,2022.1.1,59.7962383377405,
6,0,6,0,,,,,,,,,,3,1.0,3.0,z,27.0,1.0,3.35133458220192,0.761758675042088,None,167.3080046999985,None,168.05757325999986,168.05757325999986,168.07399465999953,None,[],['z'],170.05312400000003,None,z,4.469406700001855,1,1,0.5714285714285714,None,173.4005473999987,None,173.4005473999987,None,[2.469406700001855],,,,,,,,,,,,,,,,,,,,,,,CBC_1071,002,2,3,0,0,0.95,2024-02-02_15h20.49.299,MSI_TV_v3,2022.1.1,59.7962383377405,
7,0,7,0,,,,,,,,,,0,1.0,0.0,z,63.0,1.0,2.678526077912375,2.49839527409216,None,175.20814639999844,None,177.6914658599988,177.6914658599988,177.7081282599982,None,[],['z'],179.69728659999964,None,z,2.6416582000019844,1,1,0.625,None,182.38137339999957,None,182.38137339999957,None,[0.6416582000019844],,,,,,,,,,,,,,,,,,,,,,,CBC_1071,002,2,3,0,0,0.95,2024-02-02_15h20.49.299,MSI_TV_v3,2022.1.1,59.7962383377405,
8,0,8,0,,,,,,,,,,2,2.0,0.0,b,27.0,1.0,2.526044641065533,0.80788063606262,None,184.19141359999958,None,184.9752053599994,184.9752053599994,184.99182165999883,None,[],"['b', 'b']",186.97904779999953,None,b,2.7682083000017883,1,1,0.6666666666666666,None,189.51501739999912,None,189.51501739999912,None,"[0.7682083000017883, 1.2835368000014569]",,,,,,,,,,,,,,,,,,,,,,,CBC_1071,002,2,3,0,0,0.95,2024-02-02_15h20.49.299,MSI_TV_v3,2022.1.1,59.7962383377405,
9,0,9,0,,,,,,,,,,3,2.0,3.0,z,63.0,1.0,3.31929419319838,1.25817747924478,None,191.32470479999938,None,192.55830745999884,192.55830745999884,192.574926959999,None,[],['z'],194.56322889999865,None,z,3.153387800000928,1,1,0.7,None,197.88202219999948,None,197.88202219999948,None,[1.153387800000928],,,,,,,,,,,,,,,,,,,,,,,CBC_1071,002,2,3,0,0,0.95,2024-02-02_15h20.49.299,MSI_TV_v3,2022.1.1,59.7962383377405,
10,0,10,0,,,,,,,,,,1,1.0,0.0,b,63.0,1.0,2.6391747348430608,0.979776149765883,None,199.69186809999883,None,200.65856635999882,200.65856635999882,200.67491535999835,None,[],['b'],202.66158099999848,None,b,2.584567400002925,1,1,0.7272727272727273,None,205.3061719999987,None,205.3061719999987,None,[0.5845674000029248],,,,,,,,,,,,,,,,,,,,,,,CBC_1071,002,2,3,0,0,0.95,2024-02-02_15h20.49.299,MSI_TV_v3,2022.1.1,59.7962383377405,
11,0,11,0,,,,,,,,,,0,0.0,1.0,b,63.0,1.0,2.82320408183943,1.60731937853708,None,207.10827299999983,None,208.6915441599984,208.6915441599984,208.7083665599992,None,[],['b'],210.68927509999958,None,b,4.400427300002775,1,1,0.75,None,213.50393149999945,None,213.50393149999945,None,[2.400427300002775],,,,,,,,,,,,,,,,,,,,,,,CBC_1071,002,2,3,0,0,0.95,2024-02-02_15h20.49.299,MSI_TV_v3,2022.1.1,59.7962383377405,
12,0,12,0,,,,,,,,,,3,2.0,3.0,z,63.0,1.0,2.792365600763554,3.1424449555106,None,215.3083434,None,218.42494135999988,218.42494135999988,218.44163055999962,None,[],['z'],220.42897879999873,None,z,2.7055596000027435,1,1,0.7692307692307693,None,223.21731289999843,None,223.21731289999843,None,[0.7055596000027435],,,,,,,,,,,,,,,,,,,,,,,CBC_1071,002,2,3,0,0,0.95,2024-02-02_15h20.49.299,MSI_TV_v3,2022.1.1,59.7962383377405,
13,0,13,0,,,,,,,,,,2,2.0,0.0,b,27.0,1.0,4.40017271499661,1.53122835510861,None,225.0254501999989,None,226.5417674599983,226.5417674599983,226.55829455999884,None,[],['b'],228.5442897999983,None,b,2.395235000001776,1,1,0.7857142857142857,None,232.943780399999,None,232.943780399999,None,[0.3952350000017759],,,,,,,,,,,,,,,,,,,,,,,CBC_1071,002,2,3,0,0,0.95,2024-02-02_15h20.49.299,MSI_TV_v3,2022.1.1,59.7962383377405,
14,0,14,0,,,,,,,,,,0,0.0,1.0,b,63.0,1.0,3.73326136168326,1.52290599571961,None,234.75826489999963,None,236.25820055999867,236.25820055999867,236.27547535999912,b,['b'],None,238.3007361,None,b,0.3206739000015659,1,1,0.8,None,242.02398469999935,None,242.02398469999935,None,,0.3206739000015659,[0.3206739000015659],,,,,,,,,,,,,,,,,,,,,CBC_1071,002,2,3,0,0,0.95,2024-02-02_15h20.49.299,MSI_TV_v3,2022.1.1,59.7962383377405,
15,0,15,0,,,,,,,,,,1,1.0,3.0,b,27.0,1.0,2.92731383428727,3.40155979865722,None,243.825293599999,None,247.20739355999905,247.20739355999905,247.2242900599984,None,[],['b'],249.20452419999856,None,b,2.7240071000014723,1,1,0.8125,None,252.12733799999842,None,252.12733799999842,None,[0.7240071000014723],,,,,,,,,,,,,,,,,,,,,,,CBC_1071,002,2,3,0,0,0.95,2024-02-02_15h20.49.299,MSI_TV_v3,2022.1.1,59.7962383377405,
16,0,16,0,,,,,,,,,,2,3.0,2.0,z,63.0,1.0,4.72585056748869,1.25920145784721,None,253.94197509999867,None,255.17407335999889,255.17407335999889,255.1909196599998,None,[],['z'],257.1704536999987,None,z,3.616566900001999,1,1,0.8235294117647058,None,261.8895255999996,None,261.8895255999996,None,[1.6165669000019989],,,,,,,,,,,,,,,,,,,,,,,CBC_1071,002,2,3,0,0,0.95,2024-02-02_15h20.49.299,MSI_TV_v3,2022.1.1,59.7962383377405,
17,0,17,0,,,,,,,,,,3,2.0,3.0,z,63.0,0.0,2.666404967794728,1.96568735158996,None,263.6917695999982,None,265.64202645999904,265.64202645999904,265.65865145999925,None,[],['z'],267.6412488999995,None,z,2.7052560000011,1,0,0.8333333333333334,None,270.3068185999982,None,270.3068185999982,None,[0.7052560000010999],,,,,,,,,,,,,,,,,,,,,,,CBC_1071,002,2,3,0,0,0.95,2024-02-02_15h20.49.299,MSI_TV_v3,2022.1.1,59.7962383377405,
18,0,18,0,,,,,,,,,,1,1.0,0.0,b,63.0,1.0,4.190022164497369,1.21250262048173,None,272.1084756,None,273.30840725999843,273.30840725999843,273.32494065999964,None,[],['b'],275.3058012999991,None,b,3.278034700002536,1,1,0.8421052631578947,None,279.500044299999,None,279.500044299999,None,[1.2780347000025358],,,,,,,,,,,,,,,,,,,,,,,CBC_1071,002,2,3,0,0,0.95,2024-02-02_15h20.49.299,MSI_TV_v3,2022.1.1,59.7962383377405,
19,0,19,0,,,,,,,,,,0,2.0,0.0,z,27.0,1.0,4.46924002178158,1.53243550275999,None,281.3082622999991,None,282.82526515999854,282.82526515999854,282.8419835599987,None,[],['b'],284.8296427999994,None,b,4.7568716000005224,0,0,0.8,None,289.3102051999995,None,289.3102051999995,None,[2.7568716000005224],,,,,,,,,,,,,,,,,,,,,,,CBC_1071,002,2,3,0,0,0.95,2024-02-02_15h20.49.299,MSI_TV_v3,2022.1.1,59.7962383377405,
20,0,20,0,,,,,,,,,,3,0.0,3.0,z,9.0,1.0,2.2759877950103027,1.90743690794447,None,291.12471689999984,None,293.0088166599988,293.0088166599988,293.02532865999893,None,[],['z'],295.01394119999895,None,z,2.3916734000013093,1,1,0.8095238095238095,None,297.29706559999977,None,297.29706559999977,None,[0.39167340000130935],,,,,,,,,,,,,,,,,,,,,,,CBC_1071,002,2,3,0,0,0.95,2024-02-02_15h20.49.299,MSI_TV_v3,2022.1.1,59.7962383377405,
21,0,21,0,,,,,,,,,,2,2.0,3.0,b,63.0,1.0,2.433630701072358,2.78346932462847,None,299.1085181999988,None,301.8751630599989,301.8751630599989,301.8919050599987,None,[],['b'],303.8743610999991,None,b,2.529676700001801,1,1,0.8181818181818182,None,306.30449039999985,None,306.30449039999985,None,[0.5296767000018008],,,,,,,,,,,,,,,,,,,,,,,CBC_1071,002,2,3,0,0,0.95,2024-02-02_15h20.49.299,MSI_TV_v3,2022.1.1,59.7962383377405,
22,0,22,0,,,,,,,,,,1,3.0,1.0,z,27.0,1.0,4.52047235037039,1.64421109900286,None,308.1084572999989,None,309.7418802599994,309.7418802599994,309.75857135999905,None,[],['z'],311.7479926999986,None,z,2.354207900001711,1,1,0.8260869565217391,None,316.27140419999887,None,316.27140419999887,None,[0.3542079000017111],,,,,,,,,,,,,,,,,,,,,,,CBC_1071,002,2,3,0,0,0.95,2024-02-02_15h20.49.299,MSI_TV_v3,2022.1.1,59.7962383377405,
23,0,23,0,,,,,,,,,,2,3.0,2.0,z,63.0,1.0,2.629554641171433,0.77703640172831,None,318.0753619999996,None,318.8413964599993,318.8413964599993,318.8580692599997,None,[],['b'],320.8375014999983,None,b,2.9744007000026613,0,0,0.7916666666666666,None,323.46716109999943,None,323.46716109999943,None,[0.9744007000026613],,,,,,,,,,,,,,,,,,,,,,,CBC_1071,002,2,3,0,0,0.95,2024-02-02_15h20.49.299,MSI_TV_v3,2022.1.1,59.7962383377405,
24,0,24,0,,,,,,,,,,3,2.0,3.0,z,63.0,1.0,2.496959177995529,1.94858485820231,None,325.27526749999925,None,327.20846865999994,327.20846865999994,327.22510285999925,None,[],['z'],329.2074708,None,z,2.720008300002519,1,1,0.8,None,331.7072382999995,None,331.7072382999995,None,[0.7200083000025188],,,,,,,,,,,,,,,,,,,,,,,CBC_1071,002,2,3,0,0,0.95,2024-02-02_15h20.49.299,MSI_TV_v3,2022.1.1,59.7962383377405,
25,0,25,0,,,,,,,,,,1,1.0,0.0,b,63.0,1.0,4.12485271162806,0.952147612306987,None,333.5086537999996,None,334.4412243599989,334.4412243599989,334.45797935999946,None,[],['b'],336.43712589999996,None,b,2.9373007000012876,1,1,0.8076923076923077,None,340.56020589999935,None,340.56020589999935,None,[0.9373007000012876],,,,,,,,,,,,,,,,,,,,,,,CBC_1071,002,2,3,0,0,0.95,2024-02-02_15h20.49.299,MSI_TV_v3,2022.1.1,59.7962383377405,
26,0,26,0,,,,,,,,,,0,0.0,3.0,b,9.0,1.0,4.01714354611405,3.1963008326951,None,342.37507939999887,None,345.55844595999844,345.55844595999844,345.57524875999917,None,[],['b'],347.5628590999986,None,b,2.106423300001552,1,1,0.8148148148148148,None,351.5763599999991,None,351.5763599999991,None,[0.10642330000155198],,,,,,,,,,,,,,,,,,,,,,,CBC_1071,002,2,3,0,0,0.95,2024-02-02_15h20.49.299,MSI_TV_v3,2022.1.1,59.7962383377405,
27,0,27,0,,,,,,,,,,3,2.0,3.0,z,63.0,1.0,3.6438386551209,3.06992456303453,None,353.39195519999885,None,356.44187045999826,356.44187045999826,356.4586588599985,None,[],['z'],358.4480341999988,None,z,2.440912900001422,1,1,0.8214285714285714,None,362.1016485,None,362.1016485,None,[0.4409129000014218],,,,,,,,,,,,,,,,,,,,,,,CBC_1071,002,2,3,0,0,0.95,2024-02-02_15h20.49.299,MSI_TV_v3,2022.1.1,59.7962383377405,
28,0,28,0,,,,,,,,,,2,2.0,0.0,b,27.0,1.0,3.26539063535182,2.40378712856304,None,363.90893869999854,None,366.2919034599989,366.2919034599989,366.3085329599988,None,[],['z'],368.29596259999926,None,z,2.6466771000032168,0,0,0.7931034482758621,None,371.5613064999998,None,371.5613064999998,None,[0.6466771000032168],,,,,,,,,,,,,,,,,,,,,,,CBC_1071,002,2,3,0,0,0.95,2024-02-02_15h20.49.299,MSI_TV_v3,2022.1.1,59.7962383377405,
29,0,29,0,,,,,,,,,,0,1.0,0.0,z,63.0,1.0,2.294664843639333,1.12425433982333,None,373.3754242999985,None,374.4757715599997,374.4757715599997,374.49201585999873,None,[],['z'],376.47885809999934,None,z,2.9537074000018038,1,1,0.8,None,378.7828370999996,None,378.7828370999996,None,[0.9537074000018038],,,,,,,,,,,,,,,,,,,,,,,CBC_1071,002,2,3,0,0,0.95,2024-02-02_15h20.49.299,MSI_TV_v3,2022.1.1,59.7962383377405,
30,0,30,0,,,,,,,,,,1,1.0,0.0,b,63.0,1.0,4.77034425507967,0.917519910446003,None,380.5911228999994,None,381.49193625999834,381.49193625999834,381.50857005999825,None,[],['b'],383.4965024999983,None,b,2.313042300002053,1,1,0.8064516129032258,None,388.2687423999996,None,388.2687423999996,None,[0.3130423000020528],,,,,,,,,,,,,,,,,,,,,,,CBC_1071,002,2,3,0,0,0.95,2024-02-02_15h20.49.299,MSI_TV_v3,2022.1.1,59.7962383377405,
31,0,31,0,,,,,,,,,,3,3.0,1.0,b,27.0,1.0,3.3728785608729996,2.22427187882546,None,390.0754492999986,None,392.27585765999976,392.27585765999976,392.29196455999846,None,[],['z'],394.2811210999989,None,z,2.5223741000008886,0,0,0.78125,None,397.6512473999992,None,397.6512473999992,None,[0.5223741000008886],,,,,,,,,,,,,,,,,,,,,,,CBC_1071,002,2,3,0,0,0.95,2024-02-02_15h20.49.299,MSI_TV_v3,2022.1.1,59.7962383377405,
32,0,32,0,,,,,,,,,,2,3.0,2.0,z,63.0,1.0,4.11514536789087,1.36309078069689,None,399.45930209999824,None,400.80799685999847,400.80799685999847,400.82484085999823,None,[],['z'],402.80490499999905,None,z,2.5287896000027104,1,1,0.7878787878787878,None,406.9112544999989,None,406.9112544999989,None,[0.5287896000027104],,,,,,,,,,,,,,,,,,,,,,,CBC_1071,002,2,3,0,0,0.95,2024-02-02_15h20.49.299,MSI_TV_v3,2022.1.1,59.7962383377405,
33,0,33,0,,,,,,,,,,1,1.0,0.0,b,63.0,1.0,3.76873691643126,1.18065738546375,None,408.72451179999916,None,409.8755778599996,409.8755778599996,409.8922990599993,None,[],['b'],411.8814188999986,None,b,2.632060800002364,1,1,0.7941176470588235,None,415.6511052999995,None,415.6511052999995,None,[0.632060800002364],,,,,,,,,,,,,,,,,,,,,,,CBC_1071,002,2,3,0,0,0.95,2024-02-02_15h20.49.299,MSI_TV_v3,2022.1.1,59.7962383377405,
34,0,34,0,,,,,,,,,,0,0.0,1.0,b,63.0,1.0,4.77723667052879,1.34668860557497,None,417.45932699999867,None,418.7917124599997,418.7917124599997,418.8080925599996,None,[],['b'],420.7892478999984,None,b,2.7796356000017113,1,1,0.8,None,425.5669048999989,None,425.5669048999989,None,[0.7796356000017113],,,,,,,,,,,,,,,,,,,,,,,CBC_1071,002,2,3,0,0,0.95,2024-02-02_15h20.49.299,MSI_TV_v3,2022.1.1,59.7962383377405,
35,0,35,0,,,,,,,,,,2,1.0,2.0,z,9.0,1.0,2.91303524001082,0.974903167432984,None,427.37559469999906,None,428.32542775999974,428.32542775999974,428.34205396,None,[],['b'],430.33003479999934,None,b,2.467293500001688,0,0,0.7777777777777778,None,433.24768849999964,None,433.24768849999964,None,[0.4672935000016878],,,,,,,,,,,,,,,,,,,,,,,CBC_1071,002,2,3,0,0,0.95,2024-02-02_15h20.49.299,MSI_TV_v3,2022.1.1,59.7962383377405,
36,0,36,0,,,,,,,,,,0,1.0,0.0,z,63.0,1.0,4.53337421950507,3.24569326556923,None,435.0591670999984,None,438.2758926599989,438.2758926599989,438.2919834599987,None,[],['z'],440.27994089999993,None,z,3.1974522000018624,1,1,0.7837837837837838,None,444.80965059999835,None,444.80965059999835,None,[1.1974522000018624],,,,,,,,,,,,,,,,,,,,,,,CBC_1071,002,2,3,0,0,0.95,2024-02-02_15h20.49.299,MSI_TV_v3,2022.1.1,59.7962383377405,
37,0,37,0,,,,,,,,,,3,3.0,1.0,b,27.0,1.0,2.7134565917469198,1.38289892513751,None,446.60889789999965,None,447.9758016599997,447.9758016599997,447.99250335999824,None,[],['b'],449.9816484999992,None,b,2.5230603000018164,1,1,0.7894736842105263,None,452.69152069999836,None,452.69152069999836,None,[0.5230603000018164],,,,,,,,,,,,,,,,,,,,,,,CBC_1071,002,2,3,0,0,0.95,2024-02-02_15h20.49.299,MSI_TV_v3,2022.1.1,59.7962383377405,
38,0,38,0,,,,,,,,,,1,0.0,1.0,z,63.0,1.0,2.342239579230602,1.1243895841892,None,454.49119809999866,None,455.59211705999843,455.59211705999843,455.60875015999846,None,[],['b'],457.5971467999989,None,b,2.6384152000009635,0,0,0.7692307692307693,None,459.9399942,None,459.9399942,None,[0.6384152000009635],,,,,,,,,,,,,,,,,,,,,,,CBC_1071,002,2,3,0,0,0.95,2024-02-02_15h20.49.299,MSI_TV_v3,2022.1.1,59.7962383377405,
39,0,39,0,,,,,,,,,,2,2.0,3.0,b,63.0,0.0,3.71372710086949,2.15533949826702,None,461.7424147999991,None,463.876074659999,463.876074659999,463.8922858599988,None,[],['b'],465.88044919999993,None,b,2.4300332000020717,1,0,0.775,None,469.59663679999903,None,469.59663679999903,None,[0.4300332000020717],,,,,,,,,,,,,,,,,,,,,,,CBC_1071,002,2,3,0,0,0.95,2024-02-02_15h20.49.299,MSI_TV_v3,2022.1.1,59.7962383377405,
40,0,40,0,,,,,,,,,,0,2.0,0.0,z,27.0,1.0,4.61004669244928,1.27538462653558,None,471.40887509999993,None,472.65840795999867,472.65840795999867,472.6749375599982,None,[],['z'],474.6549049999994,None,z,2.4284482000020944,1,1,0.7804878048780488,None,479.25421469999856,None,479.25421469999856,None,[0.4284482000020944],,,,,,,,,,,,,,,,,,,,,,,CBC_1071,002,2,3,0,0,0.95,2024-02-02_15h20.49.299,MSI_TV_v3,2022.1.1,59.7962383377405,
41,0,41,0,,,,,,,,,,3,3.0,2.0,b,63.0,1.0,3.68371079902891,1.78643585472448,None,481.0596119999991,None,482.8245366599993,482.8245366599993,482.84179665999983,None,[],['b'],484.82096609999826,None,b,2.2859884000008606,1,1,0.7857142857142857,None,488.5045298999994,None,488.5045298999994,None,[0.28598840000086057],,,,,,,,,,,,,,,,,,,,,,,CBC_1071,002,2,3,0,0,0.95,2024-02-02_15h20.49.299,MSI_TV_v3,2022.1.1,59.7962383377405,
42,0,42,0,,,,,,,,,,1,3.0,1.0,z,27.0,1.0,2.592312596923728,2.09887870490381,None,490.30812960000003,None,492.3922940599994,492.3922940599994,492.408965559999,None,[],['z'],494.3979103999991,None,z,2.489642600003208,1,1,0.7906976744186046,None,496.9909289999996,None,496.9909289999996,None,[0.4896426000032079],,,,,,,,,,,,,,,,,,,,,,,CBC_1071,002,2,3,0,0,0.95,2024-02-02_15h20.49.299,MSI_TV_v3,2022.1.1,59.7962383377405,
43,0,43,0,,,,,,,,,,2,2.0,3.0,b,63.0,1.0,2.693348633324513,2.10421507306074,None,498.7925254999991,None,500.87511325999986,500.87511325999986,500.8916611599987,None,[],['z'],502.87177709999924,None,z,3.205340900001829,0,0,0.7727272727272727,None,505.553544299999,None,505.553544299999,None,[1.2053409000018291],,,,,,,,,,,,,,,,,,,,,,,CBC_1071,002,2,3,0,0,0.95,2024-02-02_15h20.49.299,MSI_TV_v3,2022.1.1,59.7962383377405,
,,,,,,,,,,,,,,,,,,,,,,,,,,,,,,,,,,,,,,,,,,,,,None,507.3590164999987,None,,,,,,,,,,,,,,,,,,CBC_1071,002,2,3,0,0,0.95,2024-02-02_15h20.49.299,MSI_TV_v3,2022.1.1,59.7962383377405,
,,,,,,,,,,,,,,,,,,,,,,,,,,,,,,,,,,,,,,,,,,,,,,,,512.3424350999994,None,None,512.3424350999994,517.3257977999983,,,,,,,,,,,,,CBC_1071,002,2,3,0,0,0.95,2024-02-02_15h20.49.299,MSI_TV_v3,2022.1.1,59.7962383377405,
,,,,,,,,,,,,,,,,,,,,,,,,,,,,,,,,,,,,,,,,,,,,,,,,,,,,,z,b,hard,"[0, 1, 2, 3]","[0, 1, 2, 3]",0.7272727272727273,0.9090909090909091,0.7272727272727273,0.7272727272727273,32,1,11,,,,,,,,,,,,
