trials_runs.thisRepN,trials_runs.thisTrialN,trials_runs.thisN,trials_runs.thisIndex,standbild_start.started,standbild_start.stopped,trigger.keys,trigger.rt,trigger.started,trigger.stopped,keys_2.keys,keys_2.started,keys_2.stopped,trials_runs.auditory_stim,trials_runs.visual_stim_left,trials_runs.visual_stim_right,trials_runs.correctKey,trials_runs.presentationFrequncy,trials_runs.FBaccuracy,trials_runs.ISI_s,trials_runs.ITI_s,keys_3.keys,keys_3.started,keys_3.stopped,ImageLeft_4.started,ImageLeft_4.stopped,ImageRight_4.started,ImageRight_4.stopped,sound_4.started,sound_4.stopped,response_4.keys,response_4.started,response_4.stopped,response_5.keys,response_5.rt,response_5.started,response_5.stopped,response_runs.keys,response_runs.rt,trials_runs.correct_answer,trials_runs.feedback_given,trials_runs.running_mean,feedback_6.started,feedback_6.stopped,keys_6.keys,keys_6.started,keys_6.stopped,response_4.rt,keys_6.rt,keys_7.keys,keys_7.started,keys_7.stopped,standbild_end.started,standbild_end.stopped,Stop_exp.keys,Stop_exp.started,Stop_exp.stopped,trials_runs.rightKey,trials_runs.leftKey,ts_difficulty,visualPair,audioPair,trials_runs.mean_acc_1stFourth,trials_runs.mean_acc_2ndFourth,trials_runs.mean_acc_3rdFourth,trials_runs.mean_acc_4thFourth,nbCorrect,nbOmissions,nbIncorrect,participant,session,visual set [1-6],audio set [1-3],trial structure [0-3 / 4-7],pairing [0-23],prob Feedback,date,expName,psychopyVersion,frameRate,
,,,,48.34568870000021,None,t,61.76736750000009,48.34568870000021,None,,,,,,,,,,,,,,,,,,,,,,,,,,,,,,,,,,,,,,,,,,,,,,,,,,,,,,,,,,,,CBC_1034,002,2,3,4,11,0.95,2023-12-13_14h05.28.139,MSI_AV_v3,2022.1.1,59.94618031933206,
,,,,,,,,,,None,110.13766040000019,None,,,,,,,,,,,,,,,,,,,,,,,,,,,,,,,,,,,,,,,,,,,,,,,,,,,,,,,,,CBC_1034,002,2,3,4,11,0.95,2023-12-13_14h05.28.139,MSI_AV_v3,2022.1.1,59.94618031933206,
0,0,0,0,,,,,,,,,,3,1.0,0.0,b,63.0,1.0,2.2759877950103027,1.25920145784721,None,110.33772219999992,None,111.79336809999995,None,111.79336809999995,None,111.80588350000016,None,None,111.79336809999995,None,['z'],[0.38293799999974],113.58714800000007,None,z,2.38293799999974,0,0,0.0,115.86683949999997,None,None,115.86683949999997,None,,,,,,,,,,,,,,,,,,,,,,,CBC_1034,002,2,3,4,11,0.95,2023-12-13_14h05.28.139,MSI_AV_v3,2022.1.1,59.94618031933206,
1,0,1,0,,,,,,,,,,1,1.0,0.0,z,63.0,1.0,3.73326136168326,1.94858485820231,None,117.67066680000016,None,119.65438610000001,None,119.65438610000001,None,119.65440378000012,None,['b'],119.65438610000001,None,None,,121.63981890000014,None,b,1.2594122000000425,0,0,0.0,125.37731630000007,None,None,125.37731630000007,None,[1.2594122000000425],,,,,,,,,,,,,,,,,,,,,,CBC_1034,002,2,3,4,11,0.95,2023-12-13_14h05.28.139,MSI_AV_v3,2022.1.1,59.94618031933206,
2,0,2,0,,,,,,,,,,0,3.0,2.0,b,63.0,1.0,4.82531807167306,0.80788063606262,None,127.18748539999979,None,128.06843909999998,None,128.06843909999998,None,128.07129524,None,None,128.06843909999998,None,['z'],[0.25558159999991403],129.98770259999992,None,z,2.255581599999914,0,0,0.0,134.8062619000002,None,None,134.8062619000002,None,,,,,,,,,,,,,,,,,,,,,,,CBC_1034,002,2,3,4,11,0.95,2023-12-13_14h05.28.139,MSI_AV_v3,2022.1.1,59.94618031933206,
3,0,3,0,,,,,,,,,,3,1.0,2.0,b,9.0,1.0,2.92731383428727,1.64421109900286,None,136.62101070000017,None,138.27707599999985,None,138.27707599999985,None,138.28768838000016,None,None,138.27707599999985,None,['b'],[0.3290353000002142],140.2543125000002,None,b,2.329035300000214,1,1,0.25,143.17730459999984,None,None,143.17730459999984,None,,,,,,,,,,,,,,,,,,,,,,,CBC_1034,002,2,3,4,11,0.95,2023-12-13_14h05.28.139,MSI_AV_v3,2022.1.1,59.94618031933206,
4,0,4,0,,,,,,,,,,1,2.0,0.0,z,27.0,1.0,4.12485271162806,1.95130344756745,None,144.9877489999999,None,146.94355309999992,None,146.94355309999992,None,146.9538455599999,None,['b'],146.94355309999992,None,None,,148.9557393,None,b,1.870288999999957,0,0,0.2,153.09367380000003,None,None,153.09367380000003,None,[1.870288999999957],,,,,,,,,,,,,,,,,,,,,,CBC_1034,002,2,3,4,11,0.95,2023-12-13_14h05.28.139,MSI_AV_v3,2022.1.1,59.94618031933206,
5,0,5,0,,,,,,,,,,2,3.0,2.0,z,63.0,1.0,2.342239579230602,2.22427187882546,None,154.9044687999999,None,157.17283550000002,None,157.17283550000002,None,157.1714737000002,None,None,157.17283550000002,None,['b'],[0.2848359999998138],159.1207899000001,None,b,2.284835999999814,0,0,0.16666666666666666,161.46177420000004,None,None,161.46177420000004,None,,,,,,,,,,,,,,,,,,,,,,,CBC_1034,002,2,3,4,11,0.95,2023-12-13_14h05.28.139,MSI_AV_v3,2022.1.1,59.94618031933206,
6,0,6,0,,,,,,,,,,0,3.0,1.0,b,27.0,1.0,2.693348633324513,0.974903167432984,None,163.27111539999987,None,164.25914250000005,None,164.25914250000005,None,164.27127058000016,None,None,164.25914250000005,None,['b'],[0.49478030000000217],166.2378365999998,None,b,2.494780300000002,1,1,0.2857142857142857,168.91185640000003,None,None,168.91185640000003,None,,,,,,,,,,,,,,,,,,,,,,,CBC_1034,002,2,3,4,11,0.95,2023-12-13_14h05.28.139,MSI_AV_v3,2022.1.1,59.94618031933206,
7,0,7,0,,,,,,,,,,1,0.0,1.0,b,63.0,1.0,3.6438386551209,0.77703640172831,None,170.72102069999983,None,171.5106979000002,None,171.5106979000002,None,171.52142508000017,None,None,171.5106979000002,None,['b'],[0.4631330999995953],173.48786130000008,None,b,2.4631330999995953,1,1,0.375,177.1236769000002,None,None,177.1236769000002,None,,,,,,,,,,,,,,,,,,,,,,,CBC_1034,002,2,3,4,11,0.95,2023-12-13_14h05.28.139,MSI_AV_v3,2022.1.1,59.94618031933206,
8,0,8,0,,,,,,,,,,2,0.0,2.0,z,27.0,1.0,2.433630701072358,1.12425433982333,None,178.9376502,None,180.07476189999988,None,180.07476189999988,None,180.0713774599998,None,None,180.07476189999988,None,['b'],[0.5031914000001052],182.0545443000001,None,b,2.503191400000105,0,0,0.3333333333333333,184.4744993999998,None,['z'],184.4744993999998,None,,[0.053054099999826576],,,,,,,,,,,,,,,,,,,,,CBC_1034,002,2,3,4,11,0.95,2023-12-13_14h05.28.139,MSI_AV_v3,2022.1.1,59.94618031933206,
9,0,9,0,,,,,,,,,,0,3.0,2.0,b,63.0,1.0,3.26539063535182,2.10421507306074,None,186.28788110000005,None,188.41023429999996,None,188.41023429999996,None,188.4217358799999,None,None,188.41023429999996,None,['z'],[0.3305593999998564],190.38797720000002,None,z,2.3305593999998564,0,0,0.3,193.64813099999992,None,None,193.64813099999992,None,,,,,,,,,,,,,,,,,,,,,,,CBC_1034,002,2,3,4,11,0.95,2023-12-13_14h05.28.139,MSI_AV_v3,2022.1.1,59.94618031933206,
10,0,10,0,,,,,,,,,,3,0.0,1.0,z,63.0,1.0,3.3728785608729996,1.96568735158996,None,195.45462140000018,None,197.4401296000001,None,197.4401296000001,None,197.43821265999978,None,None,197.4401296000001,None,['z'],[0.2683563000000504],199.4210039999998,None,z,2.2683563000000504,1,1,0.36363636363636365,202.78980820000015,None,None,202.78980820000015,None,,,,,,,,,,,,,,,,,,,,,,,CBC_1034,002,2,3,4,11,0.95,2023-12-13_14h05.28.139,MSI_AV_v3,2022.1.1,59.94618031933206,
11,0,11,0,,,,,,,,,,1,1.0,0.0,z,63.0,1.0,3.68371079902891,1.78643585472448,None,204.60455490000004,None,206.41044539999984,None,206.41044539999984,None,206.4215494799998,None,None,206.41044539999984,None,['b'],[0.7541599000001042],208.3879278999998,None,b,2.7541599000001042,0,0,0.3333333333333333,212.05468810000002,None,None,212.05468810000002,None,,,,,,,,,,,,,,,,,,,,,,,CBC_1034,002,2,3,4,11,0.95,2023-12-13_14h05.28.139,MSI_AV_v3,2022.1.1,59.94618031933206,
12,0,12,0,,,,,,,,,,0,3.0,2.0,b,63.0,1.0,2.666404967794728,3.1424449555106,None,213.85463299999992,None,217.00847190000013,None,217.00847190000013,None,217.02165158,None,None,217.00847190000013,None,['z'],[0.40060780000021623],218.9878647999999,None,z,2.4006078000002162,0,0,0.3076923076923077,221.6479628000002,None,None,221.6479628000002,None,,,,,,,,,,,,,,,,,,,,,,,CBC_1034,002,2,3,4,11,0.95,2023-12-13_14h05.28.139,MSI_AV_v3,2022.1.1,59.94618031933206,
13,0,13,0,,,,,,,,,,2,0.0,2.0,z,27.0,1.0,4.40017271499661,3.33124983260532,None,223.45473219999985,None,226.81015199999956,None,226.81015199999956,None,226.8216648799996,None,None,226.81015199999956,None,['b'],[0.9037720999999692],228.78807050000023,None,b,2.903772099999969,0,0,0.2857142857142857,233.16874049999979,None,None,233.16874049999979,None,,,,,,,,,,,,,,,,,,,,,,,CBC_1034,002,2,3,4,11,0.95,2023-12-13_14h05.28.139,MSI_AV_v3,2022.1.1,59.94618031933206,
14,0,14,0,,,,,,,,,,1,1.0,0.0,z,63.0,1.0,4.77723667052879,1.25817747924478,None,234.97209169999996,None,236.2433374999996,None,236.2433374999996,None,236.23851505999974,None,None,236.2433374999996,None,['z'],[1.589114900000368],238.2212800000002,None,z,3.589114900000368,1,1,0.3333333333333333,242.99086409999973,None,None,242.99086409999973,None,,,,,,,,,,,,,,,,,,,,,,,CBC_1034,002,2,3,4,11,0.95,2023-12-13_14h05.28.139,MSI_AV_v3,2022.1.1,59.94618031933206,
15,0,15,0,,,,,,,,,,3,3.0,1.0,z,27.0,1.0,4.53337421950507,0.917519910446003,None,244.80462269999998,None,245.74311220000027,None,245.74311220000027,None,245.7550235799997,None,None,245.74311220000027,None,['z'],[0.9163911000000553],247.72132219999958,None,z,2.9163911000000553,1,1,0.375,252.24840410000024,None,None,252.24840410000024,None,,,,,,,,,,,,,,,,,,,,,,,CBC_1034,002,2,3,4,11,0.95,2023-12-13_14h05.28.139,MSI_AV_v3,2022.1.1,59.94618031933206,
16,0,16,0,,,,,,,,,,2,2.0,3.0,b,63.0,1.0,2.91303524001082,1.34668860557497,None,254.05472979999968,None,255.42707149999978,None,255.42707149999978,None,255.4223951600001,None,None,255.42707149999978,None,['z'],[0.6348358999998709],257.4048779999998,None,z,2.634835899999871,0,0,0.35294117647058826,260.2973668999998,None,None,260.2973668999998,None,,,,,,,,,,,,,,,,,,,,,,,CBC_1034,002,2,3,4,11,0.95,2023-12-13_14h05.28.139,MSI_AV_v3,2022.1.1,59.94618031933206,
17,0,17,0,,,,,,,,,,0,3.0,2.0,b,63.0,0.0,2.517541937862754,2.49839527409216,None,262.1049535999996,None,264.62355309999975,None,264.62355309999975,None,264.62174045999967,None,['z'],264.62355309999975,None,None,,266.6163468999998,None,z,1.795927099999517,0,1,0.3333333333333333,269.1255100000003,None,None,269.1255100000003,None,[1.795927099999517],,,,,,,,,,,,,,,,,,,,,,CBC_1034,002,2,3,4,11,0.95,2023-12-13_14h05.28.139,MSI_AV_v3,2022.1.1,59.94618031933206,
18,0,18,0,,,,,,,,,,3,0.0,1.0,z,63.0,1.0,3.7500315165247198,1.90743690794447,None,270.9381705999999,None,272.85769690000006,None,272.85769690000006,None,272.85512676,None,None,272.85769690000006,None,['z'],[0.04275980000011259],274.8381323999997,None,z,2.0427598000001126,1,1,0.3684210526315789,278.58355100000017,None,None,278.58355100000017,None,,,,,,,,,,,,,,,,,,,,,,,CBC_1034,002,2,3,4,11,0.95,2023-12-13_14h05.28.139,MSI_AV_v3,2022.1.1,59.94618031933206,
19,0,19,0,,,,,,,,,,1,0.0,2.0,b,27.0,1.0,3.71372710086949,2.40378712856304,None,280.38822109999956,None,282.8098447999996,None,282.8098447999996,None,282.8217834800004,None,None,282.8098447999996,None,['b'],[0.31629709999970146],284.78824380000015,None,b,2.3162970999997015,1,1,0.4,288.4854029000003,None,None,288.4854029000003,None,,,,,,,,,,,,,,,,,,,,,,,CBC_1034,002,2,3,4,11,0.95,2023-12-13_14h05.28.139,MSI_AV_v3,2022.1.1,59.94618031933206,
20,0,20,0,,,,,,,,,,0,3.0,0.0,b,9.0,1.0,2.496959177995529,1.18065738546375,None,290.28825670000015,None,291.49368970000023,None,291.49368970000023,None,291.48852365999977,None,None,291.49368970000023,None,['b'],[0.00761350000038874],293.47142440000016,None,b,2.0076135000003887,1,1,0.42857142857142855,295.9601054,None,None,295.9601054,None,,,,,,,,,,,,,,,,,,,,,,,CBC_1034,002,2,3,4,11,0.95,2023-12-13_14h05.28.139,MSI_AV_v3,2022.1.1,59.94618031933206,
21,0,21,0,,,,,,,,,,2,3.0,2.0,z,63.0,1.0,4.01714354611405,1.21250262048173,None,297.77199840000003,None,299.0076812000002,None,299.0076812000002,None,299.00526805999965,None,None,299.0076812000002,None,['b'],[0.1823378000003686],300.9883947000003,None,b,2.1823378000003686,0,0,0.4090909090909091,304.9913161999998,None,None,304.9913161999998,None,,,,,,,,,,,,,,,,,,,,,,,CBC_1034,002,2,3,4,11,0.95,2023-12-13_14h05.28.139,MSI_AV_v3,2022.1.1,59.94618031933206,
22,0,22,0,,,,,,,,,,3,1.0,3.0,b,27.0,1.0,4.52047235037039,2.09887870490381,None,306.80510019999974,None,308.9275405000003,None,308.9275405000003,None,308.9387668799997,None,['z'],308.9275405000003,None,None,,310.9203583000003,None,z,1.8813264000004892,0,0,0.391304347826087,315.44352500000014,None,None,315.44352500000014,None,[1.8813264000004892],,,,,,,,,,,,,,,,,,,,,,CBC_1034,002,2,3,4,11,0.95,2023-12-13_14h05.28.139,MSI_AV_v3,2022.1.1,59.94618031933206,
23,0,23,0,,,,,,,,,,2,2.0,3.0,b,63.0,1.0,2.678526077912375,0.979776149765883,None,317.2550895999998,None,318.26216969999996,None,318.26216969999996,None,318.27194407999986,None,None,318.26216969999996,None,['z'],[0.22063869999919916],320.23854079999956,None,z,2.220638699999199,0,0,0.375,322.90137989999994,None,None,322.90137989999994,None,,,,,,,,,,,,,,,,,,,,,,,CBC_1034,002,2,3,4,11,0.95,2023-12-13_14h05.28.139,MSI_AV_v3,2022.1.1,59.94618031933206,
24,0,24,0,,,,,,,,,,0,3.0,2.0,b,63.0,1.0,4.11514536789087,1.43470440954152,None,324.7051773999997,None,326.16071390000025,None,326.16071390000025,None,326.17212587999956,None,None,326.16071390000025,None,['b'],[0.2736739999995734],328.13857750000034,None,b,2.2736739999995734,1,1,0.4,332.2478164999998,None,None,332.2478164999998,None,,,,,,,,,,,,,,,,,,,,,,,CBC_1034,002,2,3,4,11,0.95,2023-12-13_14h05.28.139,MSI_AV_v3,2022.1.1,59.94618031933206,
25,0,25,0,,,,,,,,,,3,0.0,1.0,z,63.0,1.0,4.46924002178158,3.4543169006169,None,334.0551221999999,None,337.5289415000002,None,337.5289415000002,None,337.53887108000043,None,None,337.5289415000002,None,['b'],[0.4187125000003107],339.50517290000016,None,b,2.4187125000003107,0,0,0.38461538461538464,343.9638275000002,None,None,343.9638275000002,None,,,,,,,,,,,,,,,,,,,,,,,CBC_1034,002,2,3,4,11,0.95,2023-12-13_14h05.28.139,MSI_AV_v3,2022.1.1,59.94618031933206,
26,0,26,0,,,,,,,,,,1,3.0,0.0,z,9.0,1.0,4.190022164497369,2.15533949826702,None,345.7725223000002,None,347.94270860000006,None,347.94270860000006,None,347.9387068600003,None,['z'],347.94270860000006,None,None,,349.9416844000002,None,z,1.6688787999996748,1,1,0.4074074074074074,354.14559619999955,None,None,354.14559619999955,None,[1.6688787999996748],,,,,,,,,,,,,,,,,,,,,,CBC_1034,002,2,3,4,11,0.95,2023-12-13_14h05.28.139,MSI_AV_v3,2022.1.1,59.94618031933206,
27,0,27,0,,,,,,,,,,0,3.0,2.0,b,63.0,1.0,2.792365600763554,1.52290599571961,None,355.9552828000001,None,357.4902841999997,None,357.4902841999997,None,357.4886866600004,None,None,357.4902841999997,None,['b'],[0.6746308999995563],359.4717542000003,None,b,2.6746308999995563,1,1,0.42857142857142855,362.2498221999999,None,None,362.2498221999999,None,,,,,,,,,,,,,,,,,,,,,,,CBC_1034,002,2,3,4,11,0.95,2023-12-13_14h05.28.139,MSI_AV_v3,2022.1.1,59.94618031933206,
28,0,28,0,,,,,,,,,,2,0.0,2.0,z,27.0,1.0,2.526044641065533,1.53243550275999,None,364.0553726000003,None,365.61011199999984,None,365.61011199999984,None,365.6222322800001,None,['z'],365.61011199999984,None,None,,367.60818640000025,None,z,1.9424919999996746,1,1,0.4482758620689655,370.1445312000001,None,None,370.1445312000001,None,[1.9424919999996746],,,,,,,,,,,,,,,,,,,,,,CBC_1034,002,2,3,4,11,0.95,2023-12-13_14h05.28.139,MSI_AV_v3,2022.1.1,59.94618031933206,
29,0,29,0,,,,,,,,,,1,0.0,1.0,b,63.0,1.0,2.294664843639333,0.761758675042088,None,371.95534309999994,None,372.72705799999994,None,372.72705799999994,None,372.7389870800004,None,['b'],372.72705799999994,None,None,,374.7306929000001,None,b,1.0959392999998272,1,1,0.4666666666666667,377.01186780000035,None,None,377.01186780000035,None,[1.0959392999998272],,,,,,,,,,,,,,,,,,,,,,CBC_1034,002,2,3,4,11,0.95,2023-12-13_14h05.28.139,MSI_AV_v3,2022.1.1,59.94618031933206,
30,0,30,0,,,,,,,,,,3,0.0,1.0,z,63.0,1.0,3.31929419319838,3.06992456303453,None,378.82184689999985,None,381.9088692999999,None,381.9088692999999,None,381.9055867600004,None,None,381.9088692999999,None,['z'],[0.3732089999998607],383.8889455000003,None,z,2.3732089999998607,1,1,0.4838709677419355,387.2036241999999,None,None,387.2036241999999,None,,,,,,,,,,,,,,,,,,,,,,,CBC_1034,002,2,3,4,11,0.95,2023-12-13_14h05.28.139,MSI_AV_v3,2022.1.1,59.94618031933206,
31,0,31,0,,,,,,,,,,0,1.0,3.0,z,27.0,1.0,3.02234236141277,2.96653053743745,None,389.0054704999998,None,391.99251849999973,None,391.99251849999973,None,391.98894776000037,None,None,391.99251849999973,None,['b'],[0.17365550000022267],393.9725050000002,None,b,2.1736555000002227,0,0,0.46875,396.9787815000004,None,None,396.9787815000004,None,,,,,,,,,,,,,,,,,,,,,,,CBC_1034,002,2,3,4,11,0.95,2023-12-13_14h05.28.139,MSI_AV_v3,2022.1.1,59.94618031933206,
32,0,32,0,,,,,,,,,,2,2.0,3.0,b,63.0,1.0,2.592312596923728,3.40155979865722,None,398.7889043,None,402.2088526000002,None,402.2088526000002,None,402.20594146000025,None,None,402.2088526000002,None,['z'],[0.17807439999933194],404.18875530000014,None,z,2.178074399999332,0,0,0.45454545454545453,406.7772546000001,None,None,406.7772546000001,None,,,,,,,,,,,,,,,,,,,,,,,CBC_1034,002,2,3,4,11,0.95,2023-12-13_14h05.28.139,MSI_AV_v3,2022.1.1,59.94618031933206,
33,0,33,0,,,,,,,,,,3,0.0,1.0,z,63.0,1.0,4.61004669244928,1.53122835510861,None,408.5885394000002,None,410.1453081000004,None,410.1453081000004,None,410.1558799800002,None,['z'],410.1453081000004,None,None,,412.1438739,None,z,1.301874599999337,1,1,0.47058823529411764,416.7382534000003,None,None,416.7382534000003,None,[1.301874599999337],,,,,,,,,,,,,,,,,,,,,,CBC_1034,002,2,3,4,11,0.95,2023-12-13_14h05.28.139,MSI_AV_v3,2022.1.1,59.94618031933206,
34,0,34,0,,,,,,,,,,1,1.0,0.0,z,63.0,1.0,4.72585056748869,0.952147612306987,None,418.5389517999997,None,419.5127991000004,None,419.5127991000004,None,419.52244518000015,None,None,419.5127991000004,None,['b'],[0.5600190000000111],421.4887497000004,None,b,2.560019000000011,0,0,0.45714285714285713,426.20427940000036,None,None,426.20427940000036,None,,,,,,,,,,,,,,,,,,,,,,,CBC_1034,002,2,3,4,11,0.95,2023-12-13_14h05.28.139,MSI_AV_v3,2022.1.1,59.94618031933206,
35,0,35,0,,,,,,,,,,2,2.0,1.0,b,9.0,1.0,2.6391747348430608,1.60731937853708,None,428.0056417999999,None,429.62354339999956,None,429.62354339999956,None,429.62274996000036,None,None,429.62354339999956,None,['z'],[1.4707544999996571],431.60566080000035,None,z,3.470754499999657,0,0,0.4444444444444444,434.22560589999966,None,None,434.22560589999966,None,,,,,,,,,,,,,,,,,,,,,,,CBC_1034,002,2,3,4,11,0.95,2023-12-13_14h05.28.139,MSI_AV_v3,2022.1.1,59.94618031933206,
36,0,36,0,,,,,,,,,,1,0.0,1.0,b,63.0,1.0,3.76873691643126,1.27538462653558,None,436.03903390000005,None,437.32782559999987,None,437.32782559999987,None,437.33921137999977,None,None,437.32782559999987,None,['b'],[0.6067223999993985],439.3055241999996,None,b,2.6067223999993985,1,1,0.4594594594594595,443.0614982000002,None,None,443.0614982000002,None,,,,,,,,,,,,,,,,,,,,,,,CBC_1034,002,2,3,4,11,0.95,2023-12-13_14h05.28.139,MSI_AV_v3,2022.1.1,59.94618031933206,
37,0,37,0,,,,,,,,,,0,1.0,3.0,z,27.0,1.0,3.2062024266105302,1.38289892513751,None,444.87239,None,446.2756396,None,446.2756396,None,446.2725654600003,None,None,446.2756396,None,['b'],[1.7279751000000942],448.2554487000002,None,b,3.7279751000000942,0,0,0.4473684210526316,451.4529058000003,None,None,451.4529058000003,None,,,,,,,,,,,,,,,,,,,,,,,CBC_1034,002,2,3,4,11,0.95,2023-12-13_14h05.28.139,MSI_AV_v3,2022.1.1,59.94618031933206,
38,0,38,0,,,,,,,,,,3,1.0,0.0,b,63.0,1.0,2.629554641171433,1.36309078069689,None,453.25581720000037,None,454.63904630000025,None,454.63904630000025,None,454.6390826600004,None,None,454.63904630000025,None,['z'],[2.004114599999866],456.62230059999956,None,z,4.004114599999866,0,0,0.4358974358974359,459.2440926000004,None,None,459.2440926000004,None,,,,,,,,,,,,,,,,,,,,,,,CBC_1034,002,2,3,4,11,0.95,2023-12-13_14h05.28.139,MSI_AV_v3,2022.1.1,59.94618031933206,
39,0,39,0,,,,,,,,,,2,3.0,2.0,z,63.0,0.0,2.82320408183943,3.1963008326951,None,461.0556596000001,None,464.2782542,None,464.2782542,None,464.2893212799997,None,['z'],464.2782542,None,None,,466.27293059999965,None,z,1.4528405999994902,1,0,0.45,469.08821169999965,None,None,469.08821169999965,None,[1.4528405999994902],,,,,,,,,,,,,,,,,,,,,,CBC_1034,002,2,3,4,11,0.95,2023-12-13_14h05.28.139,MSI_AV_v3,2022.1.1,59.94618031933206,
40,0,40,0,,,,,,,,,,1,0.0,2.0,b,27.0,1.0,3.35133458220192,2.78346932462847,None,470.8892148,None,473.69547920000014,None,473.69547920000014,None,473.70611077999973,None,None,473.69547920000014,None,['b'],[1.098377600000731],475.6726114999997,None,b,3.098377600000731,1,1,0.4634146341463415,479.00953439999967,None,None,479.00953439999967,None,,,,,,,,,,,,,,,,,,,,,,,CBC_1034,002,2,3,4,11,0.95,2023-12-13_14h05.28.139,MSI_AV_v3,2022.1.1,59.94618031933206,
41,0,41,0,,,,,,,,,,0,2.0,3.0,z,63.0,1.0,4.77034425507967,3.24569326556923,None,480.8224951999996,None,484.0956031999999,None,484.0956031999999,None,484.1062206800004,None,['z'],484.0956031999999,None,None,,486.09268349999957,None,z,1.6217830999999023,1,1,0.47619047619047616,490.8795624999998,None,None,490.8795624999998,None,[1.6217830999999023],,,,,,,,,,,,,,,,,,,,,,CBC_1034,002,2,3,4,11,0.95,2023-12-13_14h05.28.139,MSI_AV_v3,2022.1.1,59.94618031933206,
42,0,42,0,,,,,,,,,,3,1.0,3.0,b,27.0,1.0,4.7533305109883095,2.6299100644723,None,492.6892122000004,None,495.34588099999974,None,495.34588099999974,None,495.35651828,None,['b'],495.34588099999974,None,None,,497.3259782,None,b,1.4641823000006298,1,1,0.4883720930232558,502.0793421000003,None,None,502.0793421000003,None,[1.4641823000006298],,,,,,,,,,,,,,,,,,,,,,CBC_1034,002,2,3,4,11,0.95,2023-12-13_14h05.28.139,MSI_AV_v3,2022.1.1,59.94618031933206,
43,0,43,0,,,,,,,,,,2,3.0,2.0,z,63.0,1.0,2.7134565917469198,1.1243895841892,None,503.8893172000003,None,505.00959399999965,None,505.00959399999965,None,505.02206866,None,['b'],505.00959399999965,None,None,,507.0071912999997,None,b,1.6935638999998446,0,0,0.4772727272727273,509.72855949999985,None,None,509.72855949999985,None,[1.6935638999998446],,,,,,,,,,,,,,,,,,,,,,CBC_1034,002,2,3,4,11,0.95,2023-12-13_14h05.28.139,MSI_AV_v3,2022.1.1,59.94618031933206,
,,,,,,,,,,,,,,,,,,,,,,,,,,,,,,,,,,,,,,,,,,,,,,,,,None,511.5393651999998,None,,,,,,,,,,,,,,,,,,CBC_1034,002,2,3,4,11,0.95,2023-12-13_14h05.28.139,MSI_AV_v3,2022.1.1,59.94618031933206,
,,,,,,,,,,,,,,,,,,,,,,,,,,,,,,,,,,,,,,,,,,,,,,,,,,,,516.5402712,None,None,516.5402712,None,,,,,,,,,,,,,CBC_1034,002,2,3,4,11,0.95,2023-12-13_14h05.28.139,MSI_AV_v3,2022.1.1,59.94618031933206,
,,,,,,,,,,,,,,,,,,,,,,,,,,,,,,,,,,,,,,,,,,,,,,,,,,,,,,,,,z,b,hard,"[0, 1, 2, 3]","[1, 3, 2, 0]",0.36363636363636365,0.45454545454545453,0.5454545454545454,0.5454545454545454,21,0,23,,,,,,,,,,,,
