trials_runs.thisRepN,trials_runs.thisTrialN,trials_runs.thisN,trials_runs.thisIndex,standbild_start.started,standbild_start.stopped,trigger.keys,trigger.rt,trigger.started,trigger.stopped,keys_2.keys,keys_2.started,keys_2.stopped,trials_runs.auditory_stim,trials_runs.visual_stim_left,trials_runs.visual_stim_right,trials_runs.correctKey,trials_runs.presentationFrequncy,trials_runs.FBaccuracy,trials_runs.ISI_s,trials_runs.ITI_s,keys_3.keys,keys_3.started,keys_3.stopped,ImageLeft_4.started,ImageLeft_4.stopped,ImageRight_4.started,ImageRight_4.stopped,sound_4.started,sound_4.stopped,response_4.keys,response_4.started,response_4.stopped,response_5.keys,response_5.rt,response_5.started,response_5.stopped,response_runs.keys,response_runs.rt,trials_runs.correct_answer,trials_runs.feedback_given,trials_runs.running_mean,feedback_6.started,feedback_6.stopped,keys_6.keys,keys_6.started,keys_6.stopped,response_4.rt,keys_3.rt,keys_6.rt,keys_7.keys,keys_7.started,keys_7.stopped,standbild_end.started,standbild_end.stopped,Stop_exp.keys,Stop_exp.started,Stop_exp.stopped,trials_runs.rightKey,trials_runs.leftKey,ts_difficulty,visualPair,audioPair,trials_runs.mean_acc_1stFourth,trials_runs.mean_acc_2ndFourth,trials_runs.mean_acc_3rdFourth,trials_runs.mean_acc_4thFourth,nbCorrect,nbOmissions,nbIncorrect,participant,session,visual set [1-6],audio set [1-3 / 4-6],trial structure [0-3 / 4-7],pairing [0-23],prob Feedback,date,expName,psychopyVersion,frameRate,
,,,,41.67151169999943,None,t,14.362241200000426,41.67151169999943,None,,,,,,,,,,,,,,,,,,,,,,,,,,,,,,,,,,,,,,,,,,,,,,,,,,,,,,,,,,,,,CBC_1146,1,4,3,2,3,0.95,2024-09-11_14h37.04.530,MSI_AV_v3,2022.1.1,59.980374421740606,
,,,,,,,,,,None,56.06004479999956,None,,,,,,,,,,,,,,,,,,,,,,,,,,,,,,,,,,,,,,,,,,,,,,,,,,,,,,,,,,CBC_1146,1,4,3,2,3,0.95,2024-09-11_14h37.04.530,MSI_AV_v3,2022.1.1,59.980374421740606,
0,0,0,0,,,,,,,,,,0,0,1,b,63,1,4.01714354611405,1.25817747924478,None,56.25993749999998,None,57.58250169999974,None,57.58250169999974,None,57.59297573999993,None,None,57.58250169999974,None,['z'],[0.1975207000014052],59.5094567999995,None,z,2.197520700001405,0,0,0.0,63.5330699999995,None,None,63.5330699999995,None,,,,,,,,,,,,,,,,,,,,,,,,CBC_1146,1,4,3,2,3,0.95,2024-09-11_14h37.04.530,MSI_AV_v3,2022.1.1,59.980374421740606,
1,0,1,0,,,,,,,,,,1,2,3,z,63,1,4.11514536789087,1.95130344756745,None,65.34309159999975,None,67.29879769999934,None,67.29879769999934,None,67.30915405999986,None,['z'],67.29879769999934,None,None,,69.29751909999959,None,z,1.7067349000008107,1,1,0.5,73.41349360000004,None,None,73.41349360000004,None,[1.7067349000008107],,,,,,,,,,,,,,,,,,,,,,,CBC_1146,1,4,3,2,3,0.95,2024-09-11_14h37.04.530,MSI_AV_v3,2022.1.1,59.980374421740606,
2,0,2,0,,,,,,,,,,3,0,2,z,27,1,4.53337421950507,1.38289892513751,None,75.22570439999981,None,76.61713509999936,None,76.61713509999936,None,76.62643427999956,None,None,76.61713509999936,None,['z'],[1.0249990000011167],78.5931572999998,None,z,3.0249990000011167,1,1,0.6666666666666666,83.11390109999957,None,None,83.11390109999957,None,,,,,,,,,,,,,,,,,,,,,,,,CBC_1146,1,4,3,2,3,0.95,2024-09-11_14h37.04.530,MSI_AV_v3,2022.1.1,59.980374421740606,
3,0,3,0,,,,,,,,,,0,0,1,b,63,1,3.31929419319838,1.64421109900286,None,84.92634709999948,None,86.58284849999927,None,86.58284849999927,None,86.59324138000011,None,None,86.58284849999927,None,['b'],[0.023766600000271865],88.55974009999954,None,b,2.023766600000272,1,1,0.75,91.87236099999973,None,None,91.87236099999973,None,,,,,,,,,,,,,,,,,,,,,,,,CBC_1146,1,4,3,2,3,0.95,2024-09-11_14h37.04.530,MSI_AV_v3,2022.1.1,59.980374421740606,
4,0,4,0,,,,,,,,,,2,1,3,b,27,1,2.2759877950103027,1.53122835510861,None,93.67685679999977,None,95.23339169999963,None,95.23339169999963,None,95.24355687999923,None,None,95.23339169999963,None,['b'],[0.13415420000092126],97.21018969999932,None,b,2.1341542000009213,1,1,0.8,99.4714000999993,None,None,99.4714000999993,None,,,,,,,,,,,,,,,,,,,,,,,,CBC_1146,1,4,3,2,3,0.95,2024-09-11_14h37.04.530,MSI_AV_v3,2022.1.1,59.980374421740606,
5,0,5,0,,,,,,,,,,3,3,2,z,63,1,3.6438386551209,0.917519910446003,None,101.27676859999974,None,102.21684180000011,None,102.21684180000011,None,102.22677537999971,None,None,102.21684180000011,None,['z'],[1.5184786000008899],104.19345859999976,None,z,3.51847860000089,1,1,0.8333333333333334,107.8190139999997,None,None,107.8190139999997,None,,,,,,,,,,,,,,,,,,,,,,,,CBC_1146,1,4,3,2,3,0.95,2024-09-11_14h37.04.530,MSI_AV_v3,2022.1.1,59.980374421740606,
6,0,6,0,,,,,,,,,,1,3,2,b,63,1,4.190022164497369,1.94858485820231,None,109.62629539999944,None,111.60126330000003,None,111.60126330000003,None,111.6099091799997,None,['b'],111.60126330000003,None,None,,113.5788235,None,b,1.8347966000010274,1,1,0.8571428571428571,117.76428699999997,None,None,117.76428699999997,None,[1.8347966000010274],,,,,,,,,,,,,,,,,,,,,,,CBC_1146,1,4,3,2,3,0.95,2024-09-11_14h37.04.530,MSI_AV_v3,2022.1.1,59.980374421740606,
7,0,7,0,,,,,,,,,,2,0,1,z,63,1,2.678526077912375,1.96568735158996,None,119.57647779999934,None,121.57002490000013,None,121.57002490000013,None,121.57628388000012,None,['z'],121.57002490000013,None,None,,123.54910489999929,None,z,1.4805274000000281,1,1,0.875,126.20875089999936,None,None,126.20875089999936,None,[1.4805274000000281],,,,,,,,,,,,,,,,,,,,,,,CBC_1146,1,4,3,2,3,0.95,2024-09-11_14h37.04.530,MSI_AV_v3,2022.1.1,59.980374421740606,
8,0,8,0,,,,,,,,,,0,2,0,z,27,1,3.3728785608729996,2.96653053743745,None,128.01013280000006,None,130.99852370000008,None,130.99852370000008,None,131.0099494799997,None,['z'],130.99852370000008,None,None,,132.99505059999956,None,z,1.7992328000009365,1,1,0.8888888888888888,136.37566809999953,None,None,136.37566809999953,None,[1.7992328000009365],,,,,,,,,,,,,,,,,,,,,,,CBC_1146,1,4,3,2,3,0.95,2024-09-11_14h37.04.530,MSI_AV_v3,2022.1.1,59.980374421740606,
9,0,9,0,,,,,,,,,,1,3,0,b,9,1,3.73326136168326,3.33124983260532,None,138.17685040000015,None,141.5160453999997,None,141.5160453999997,None,141.52542165999967,None,None,141.5160453999997,None,['b'],[1.1154032000013103],143.49362099999962,None,b,3.1154032000013103,1,1,0.9,147.20894959999987,None,None,147.20894959999987,None,,,,,,,,,,,,,,,,,,,,,,,,CBC_1146,1,4,3,2,3,0.95,2024-09-11_14h37.04.530,MSI_AV_v3,2022.1.1,59.980374421740606,
10,0,10,0,,,,,,,,,,3,2,3,b,63,1,4.82531807167306,0.974903167432984,None,149.01009169999998,None,149.99734050000006,None,149.99734050000006,None,149.99332195999978,None,['b'],149.99734050000006,None,None,,151.97924859999966,None,b,1.4381701000002067,1,1,0.9090909090909091,156.79982349999955,None,None,156.79982349999955,None,[1.4381701000002067],,,,,,,,,,,,,,,,,,,,,,,CBC_1146,1,4,3,2,3,0.95,2024-09-11_14h37.04.530,MSI_AV_v3,2022.1.1,59.980374421740606,
11,0,11,0,,,,,,,,,,2,0,1,z,63,1,2.693348633324513,1.34668860557497,None,158.60985399999936,None,159.9821435999993,None,159.9821435999993,None,159.99355637999997,None,['z'],159.9821435999993,None,None,,161.96585460000006,None,z,1.6061021000004985,1,1,0.9166666666666666,164.64218110000002,None,None,164.64218110000002,None,[1.6061021000004985],,,,,,,,,,,,,,,,,,,,,,,CBC_1146,1,4,3,2,3,0.95,2024-09-11_14h37.04.530,MSI_AV_v3,2022.1.1,59.980374421740606,
12,0,12,0,,,,,,,,,,1,2,3,z,63,1,2.342239579230602,0.761758675042088,None,166.44309049999993,None,167.216539,None,167.216539,None,167.22598145999928,None,['z'],167.216539,None,None,,169.2123802999995,None,z,1.7668210000010731,1,1,0.9230769230769231,171.56791769999927,None,None,171.56791769999927,None,[1.7668210000010731],,,,,,,,,,,,,,,,,,,,,,,CBC_1146,1,4,3,2,3,0.95,2024-09-11_14h37.04.530,MSI_AV_v3,2022.1.1,59.980374421740606,
13,0,13,0,,,,,,,,,,3,2,3,b,63,1,4.52047235037039,2.40378712856304,None,173.37660739999956,None,175.80207109999992,None,175.80207109999992,None,175.81004957999994,None,None,175.80207109999992,None,['z'],[2.823193100000026],177.77551419999963,None,z,4.823193100000026,0,0,0.8571428571428571,182.27476380000007,None,None,182.27476380000007,None,,,,,,,,,,,,,,,,,,,,,,,,CBC_1146,1,4,3,2,3,0.95,2024-09-11_14h37.04.530,MSI_AV_v3,2022.1.1,59.980374421740606,
14,0,14,0,,,,,,,,,,2,3,1,z,27,1,3.76873691643126,1.21250262048173,None,184.07697589999952,None,185.29794149999998,None,185.29794149999998,None,185.3092238599993,None,['z'],185.29794149999998,None,None,,187.29303529999925,None,z,1.109469200001513,1,1,0.8666666666666667,191.06752999999935,None,None,191.06752999999935,None,[1.109469200001513],,,,,,,,,,,,,,,,,,,,,,,CBC_1146,1,4,3,2,3,0.95,2024-09-11_14h37.04.530,MSI_AV_v3,2022.1.1,59.980374421740606,
15,0,15,0,,,,,,,,,,0,0,3,b,9,1,4.46924002178158,3.40155979865722,['z'],192.87635409999984,None,196.30014969999957,None,196.30014969999957,None,196.3103367799995,None,None,196.30014969999957,None,['b'],[0.9149619000008897],198.27559259999998,None,b,2.9149619000008897,1,1,0.875,202.72505529999944,None,None,202.72505529999944,None,,[3.169139399999949],,,,,,,,,,,,,,,,,,,,,,CBC_1146,1,4,3,2,3,0.95,2024-09-11_14h37.04.530,MSI_AV_v3,2022.1.1,59.980374421740606,
16,0,16,0,,,,,,,,,,1,2,3,z,63,1,4.77723667052879,3.4543169006169,None,204.52684569999928,None,207.99496629999976,None,207.99496629999976,None,207.99325945999954,None,['z'],207.99496629999976,None,None,,209.99505729999964,None,z,1.4411742000011145,1,1,0.8823529411764706,214.78056259999994,None,None,214.78056259999994,None,[1.4411742000011145],,,,,,,,,,,,,,,,,,,,,,,CBC_1146,1,4,3,2,3,0.95,2024-09-11_14h37.04.530,MSI_AV_v3,2022.1.1,59.980374421740606,
17,0,17,0,,,,,,,,,,3,0,2,z,27,1,3.35133458220192,1.60731937853708,None,216.5934072,None,218.21807850000005,None,218.21807850000005,None,218.2271934800001,None,None,218.21807850000005,None,['z'],[1.106975900001089],220.19357839999975,None,z,3.106975900001089,1,1,0.8888888888888888,223.5368923999995,None,None,223.5368923999995,None,,,,,,,,,,,,,,,,,,,,,,,,CBC_1146,1,4,3,2,3,0.95,2024-09-11_14h37.04.530,MSI_AV_v3,2022.1.1,59.980374421740606,
18,0,18,0,,,,,,,,,,0,0,1,b,63,1,3.26539063535182,1.78643585472448,None,225.34301679999953,None,227.1518527999997,None,227.1518527999997,None,227.1605684799997,None,None,227.1518527999997,None,['z'],[0.7486951999999292],229.12703629999942,None,z,2.748695199999929,0,0,0.8421052631578947,232.38157669999964,None,None,232.38157669999964,None,,,,,,,,,,,,,,,,,,,,,,,,CBC_1146,1,4,3,2,3,0.95,2024-09-11_14h37.04.530,MSI_AV_v3,2022.1.1,59.980374421740606,
19,0,19,0,,,,,,,,,,2,1,0,b,63,0,2.6391747348430608,2.22427187882546,None,234.19343879999997,None,236.41332609999972,None,236.41332609999972,None,236.4258640600001,None,None,236.41332609999972,None,['b'],[1.2908821000009993],238.39333089999946,None,b,3.2908821000009993,1,0,0.85,241.0282548999994,None,None,241.0282548999994,None,,,,,,,,,,,,,,,,,,,,,,,,CBC_1146,1,4,3,2,3,0.95,2024-09-11_14h37.04.530,MSI_AV_v3,2022.1.1,59.980374421740606,
20,0,20,0,,,,,,,,,,1,3,1,b,27,1,2.7134565917469198,1.90743690794447,None,242.8435946999998,None,244.76350360000015,None,244.76350360000015,None,244.76043385999947,None,None,244.76350360000015,None,['b'],[0.870009500001288],246.74256239999977,None,b,2.870009500001288,1,1,0.8571428571428571,249.4354573999999,None,None,249.4354573999999,None,,,,,,,,,,,,,,,,,,,,,,,,CBC_1146,1,4,3,2,3,0.95,2024-09-11_14h37.04.530,MSI_AV_v3,2022.1.1,59.980374421740606,
21,0,21,0,,,,,,,,,,3,3,2,z,63,1,3.71372710086949,2.15533949826702,None,251.24384909999935,None,253.41939719999937,None,253.41939719999937,None,253.42679187999966,None,None,253.41939719999937,None,['z'],[0.1279532000007748],255.39328079999996,None,z,2.127953200000775,1,1,0.8636363636363636,259.09160919999977,None,None,259.09160919999977,None,,,,,,,,,,,,,,,,,,,,,,,,CBC_1146,1,4,3,2,3,0.95,2024-09-11_14h37.04.530,MSI_AV_v3,2022.1.1,59.980374421740606,
22,0,22,0,,,,,,,,,,2,0,1,z,63,1,3.2062024266105302,3.1424449555106,None,260.8934939999999,None,264.0499215,None,264.0499215,None,264.0603433799997,None,None,264.0499215,None,['z'],[2.256604600001083],266.0269191999996,None,z,4.256604600001083,1,1,0.8695652173913043,269.22173609999936,None,None,269.22173609999936,None,,,,,,,,,,,,,,,,,,,,,,,,CBC_1146,1,4,3,2,3,0.95,2024-09-11_14h37.04.530,MSI_AV_v3,2022.1.1,59.980374421740606,
23,0,23,0,,,,,,,,,,0,0,2,b,27,1,2.666404967794728,1.53243550275999,None,271.02699459999985,None,272.5828597999998,None,272.5828597999998,None,272.59346557999925,None,None,272.5828597999998,None,['b'],[0.7797489000004134],274.56002399999943,None,b,2.7797489000004134,1,1,0.875,277.21730579999985,None,None,277.21730579999985,None,,,,,,,,,,,,,,,,,,,,,,,,CBC_1146,1,4,3,2,3,0.95,2024-09-11_14h37.04.530,MSI_AV_v3,2022.1.1,59.980374421740606,
24,0,24,0,,,,,,,,,,1,3,2,b,63,1,3.02234236141277,3.24569326556923,None,279.02698109999983,None,282.28898519999984,None,282.28898519999984,None,282.2929311600001,None,['b'],282.28898519999984,None,None,,284.2794004999996,None,b,1.6272104000008767,1,1,0.88,287.29883549999977,None,None,287.29883549999977,None,[1.6272104000008767],,,,,,,,,,,,,,,,,,,,,,,CBC_1146,1,4,3,2,3,0.95,2024-09-11_14h37.04.530,MSI_AV_v3,2022.1.1,59.980374421740606,
25,0,25,0,,,,,,,,,,3,0,2,z,27,1,2.526044641065533,2.49839527409216,None,289.1104442999995,None,291.63061689999995,None,291.63061689999995,None,291.62671625999974,None,None,291.63061689999995,None,['z'],[1.689462100000128],293.60998649999965,None,z,3.689462100000128,1,1,0.8846153846153846,296.11625989999993,None,None,296.11625989999993,None,,,,,,,,,,,,,,,,,,,,,,,,CBC_1146,1,4,3,2,3,0.95,2024-09-11_14h37.04.530,MSI_AV_v3,2022.1.1,59.980374421740606,
26,0,26,0,,,,,,,,,,2,0,1,z,63,1,2.82320408183943,1.52290599571961,None,297.92607469999984,None,299.46282040000006,None,299.46282040000006,None,299.46030835999954,None,None,299.46282040000006,None,['b'],[1.7436321000004682],301.44333969999934,None,b,3.743632100000468,0,0,0.8518518518518519,304.2583592000001,None,None,304.2583592000001,None,,,,,,,,,,,,,,,,,,,,,,,,CBC_1146,1,4,3,2,3,0.95,2024-09-11_14h37.04.530,MSI_AV_v3,2022.1.1,59.980374421740606,
27,0,27,0,,,,,,,,,,0,1,0,z,63,1,2.92731383428727,3.1963008326951,None,306.0604156999998,None,309.2804618,None,309.2804618,None,309.27719686,None,None,309.2804618,None,['z'],[0.937080400000923],311.26050439999926,None,z,2.937080400000923,1,1,0.8571428571428571,314.17207340000004,None,None,314.17207340000004,None,,,,,,,,,,,,,,,,,,,,,,,,CBC_1146,1,4,3,2,3,0.95,2024-09-11_14h37.04.530,MSI_AV_v3,2022.1.1,59.980374421740606,
28,0,28,0,,,,,,,,,,3,2,3,b,63,1,2.629554641171433,1.12425433982333,None,315.97687529999985,None,317.1129065999994,None,317.1129065999994,None,317.1103134599998,None,['b'],317.1129065999994,None,None,,319.1074828999999,None,b,1.6040672000008271,1,1,0.8620689655172413,321.73156990000007,None,None,321.73156990000007,None,[1.6040672000008271],,,,,,,,,,,,,,,,,,,,,,,CBC_1146,1,4,3,2,3,0.95,2024-09-11_14h37.04.530,MSI_AV_v3,2022.1.1,59.980374421740606,
29,0,29,0,,,,,,,,,,1,1,3,z,27,1,2.592312596923728,1.27538462653558,None,323.54359229999955,None,324.8334146999996,None,324.8334146999996,None,324.8435908799993,None,['z'],324.8334146999996,None,None,,326.8252933999993,None,z,1.4080830000002607,1,1,0.8666666666666667,329.41777319999983,None,None,329.41777319999983,None,[1.4080830000002607],,,,,,,,,,,,,,,,,,,,,,,CBC_1146,1,4,3,2,3,0.95,2024-09-11_14h37.04.530,MSI_AV_v3,2022.1.1,59.980374421740606,
30,0,30,0,,,,,,,,,,0,0,1,b,63,1,4.12485271162806,0.77703640172831,None,331.22781639999994,None,332.0166258999998,None,332.0166258999998,None,332.0273305800001,None,None,332.0166258999998,None,['z'],[3.4129554000010103],333.9933063999997,None,z,5.41295540000101,0,0,0.8387096774193549,338.11476049999965,None,None,338.11476049999965,None,,,,,,,,,,,,,,,,,,,,,,,,CBC_1146,1,4,3,2,3,0.95,2024-09-11_14h37.04.530,MSI_AV_v3,2022.1.1,59.980374421740606,
31,0,31,0,,,,,,,,,,1,2,3,z,63,1,2.517541937862754,1.1243895841892,None,339.92727899999954,None,341.0633504999996,None,341.0633504999996,None,341.06041125999946,None,None,341.0633504999996,None,['z'],[1.6841754000006404],343.04372859999967,None,z,3.6841754000006404,1,1,0.84375,345.56163689999994,None,None,345.56163689999994,None,,,,,,,,,,,,,,,,,,,,,,,,CBC_1146,1,4,3,2,3,0.95,2024-09-11_14h37.04.530,MSI_AV_v3,2022.1.1,59.980374421740606,
32,0,32,0,,,,,,,,,,2,1,2,b,9,1,2.294664843639333,1.18065738546375,None,347.3770389000001,None,348.58369109999967,None,348.58369109999967,None,348.59447227999954,None,None,348.58369109999967,None,None,,350.5602380999999,None,[],[],0,3,0.8181818181818182,352.8768406999998,None,['b'],352.8768406999998,None,,,[1.1590966000012486],,,,,,,,,,,,,,,,,,,,,CBC_1146,1,4,3,2,3,0.95,2024-09-11_14h37.04.530,MSI_AV_v3,2022.1.1,59.980374421740606,
33,0,33,0,,,,,,,,,,0,0,1,b,63,1,4.61004669244928,0.80788063606262,None,354.6436789999998,None,355.46661799999947,None,355.46661799999947,None,355.4769300799999,None,None,355.46661799999947,None,['z'],[3.5836651000008715],357.4437047000001,None,z,5.5836651000008715,0,0,0.7941176470588235,362.0526436,None,None,362.0526436,None,,,,,,,,,,,,,,,,,,,,,,,,CBC_1146,1,4,3,2,3,0.95,2024-09-11_14h37.04.530,MSI_AV_v3,2022.1.1,59.980374421740606,
34,0,34,0,,,,,,,,,,3,1,2,z,9,1,3.7500315165247198,3.06992456303453,None,363.8604193000001,None,366.93007339999986,None,366.93007339999986,None,366.9426189599999,None,None,366.93007339999986,None,['z'],[0.7625200000002224],368.91042899999957,None,z,2.7625200000002224,1,1,0.8,372.6529961999995,None,None,372.6529961999995,None,,,,,,,,,,,,,,,,,,,,,,,,CBC_1146,1,4,3,2,3,0.95,2024-09-11_14h37.04.530,MSI_AV_v3,2022.1.1,59.980374421740606,
35,0,35,0,,,,,,,,,,2,0,1,z,63,1,4.7533305109883095,2.10421507306074,None,374.4603922999995,None,376.5830898999993,None,376.5830898999993,None,376.5945684799999,None,None,376.5830898999993,None,['z'],[0.47056850000080885],378.56014099999993,None,z,2.470568500000809,1,1,0.8055555555555556,383.3037786999994,None,None,383.3037786999994,None,,,,,,,,,,,,,,,,,,,,,,,,CBC_1146,1,4,3,2,3,0.95,2024-09-11_14h37.04.530,MSI_AV_v3,2022.1.1,59.980374421740606,
36,0,36,0,,,,,,,,,,0,1,0,z,63,0,4.77034425507967,1.36309078069689,None,385.11081899999954,None,386.4966571999994,None,386.4966571999994,None,386.4938051599993,None,None,386.4966571999994,None,['b'],[1.8366690000002563],388.47674989999996,None,b,3.8366690000002563,0,1,0.7837837837837838,393.2365842999998,None,None,393.2365842999998,None,,,,,,,,,,,,,,,,,,,,,,,,CBC_1146,1,4,3,2,3,0.95,2024-09-11_14h37.04.530,MSI_AV_v3,2022.1.1,59.980374421740606,
37,0,37,0,,,,,,,,,,2,1,0,b,63,1,4.72585056748869,0.979776149765883,None,395.0437385999994,None,396.04668669999955,None,396.04668669999955,None,396.0437534599996,None,['b'],396.04668669999955,None,None,,398.03753659999984,None,b,1.414514699999927,1,1,0.7894736842105263,402.7655451999999,None,None,402.7655451999999,None,[1.414514699999927],,,,,,,,,,,,,,,,,,,,,,,CBC_1146,1,4,3,2,3,0.95,2024-09-11_14h37.04.530,MSI_AV_v3,2022.1.1,59.980374421740606,
38,0,38,0,,,,,,,,,,1,3,1,b,27,1,2.91303524001082,2.6299100644723,None,404.5768430999997,None,407.2323116999996,None,407.2323116999996,None,407.2440274800001,None,None,407.2323116999996,None,['z'],[1.3364369000000806],409.21068119999927,None,z,3.3364369000000806,0,0,0.7692307692307693,412.11097530000006,None,None,412.11097530000006,None,,,,,,,,,,,,,,,,,,,,,,,,CBC_1146,1,4,3,2,3,0.95,2024-09-11_14h37.04.530,MSI_AV_v3,2022.1.1,59.980374421740606,
39,0,39,0,,,,,,,,,,3,2,3,b,63,1,2.792365600763554,2.09887870490381,None,413.9106955999996,None,416.03170109999974,None,416.03170109999974,None,416.02735695999945,None,['b'],416.03170109999974,None,None,,418.0290355999996,None,b,1.4261216000004424,1,1,0.775,420.8347745000001,None,None,420.8347745000001,None,[1.4261216000004424],,,,,,,,,,,,,,,,,,,,,,,CBC_1146,1,4,3,2,3,0.95,2024-09-11_14h37.04.530,MSI_AV_v3,2022.1.1,59.980374421740606,
40,0,40,0,,,,,,,,,,0,2,0,z,27,1,2.496959177995529,1.25920145784721,None,422.64368749999994,None,423.9165708999999,None,423.9165708999999,None,423.9271812799998,None,None,423.9165708999999,None,['z'],[1.9959693999999217],425.8938005,None,z,3.9959693999999217,1,1,0.7804878048780488,428.3724352999998,None,None,428.3724352999998,None,,,,,,,,,,,,,,,,,,,,,,,,CBC_1146,1,4,3,2,3,0.95,2024-09-11_14h37.04.530,MSI_AV_v3,2022.1.1,59.980374421740606,
41,0,41,0,,,,,,,,,,1,3,2,b,63,1,3.68371079902891,1.43470440954152,None,430.1773256999995,None,431.63398509999934,None,431.63398509999934,None,431.64399867999964,None,['b'],431.63398509999934,None,None,,433.6289673000001,None,b,1.6907445000006192,1,1,0.7857142857142857,437.3163369999993,None,None,437.3163369999993,None,[1.6907445000006192],,,,,,,,,,,,,,,,,,,,,,,CBC_1146,1,4,3,2,3,0.95,2024-09-11_14h37.04.530,MSI_AV_v3,2022.1.1,59.980374421740606,
42,0,42,0,,,,,,,,,,2,3,1,z,27,1,4.40017271499661,2.78346932462847,None,439.12726549999934,None,441.93453109999973,None,441.93453109999973,None,441.9441505799996,None,['z'],441.93453109999973,None,None,,443.93093229999977,None,z,1.7746577000007164,1,1,0.7906976744186046,448.33198659999925,None,None,448.33198659999925,None,[1.7746577000007164],,,,,,,,,,,,,,,,,,,,,,,CBC_1146,1,4,3,2,3,0.95,2024-09-11_14h37.04.530,MSI_AV_v3,2022.1.1,59.980374421740606,
43,0,43,0,,,,,,,,,,3,2,3,b,63,1,2.433630701072358,0.952147612306987,None,450.1440671999999,None,451.1152523999999,None,451.1152523999999,None,451.11062735999985,None,None,451.1152523999999,None,['b'],[0.6785242000005383],453.0943987999999,None,b,2.6785242000005383,1,1,0.7954545454545454,455.5126131999996,None,None,455.5126131999996,None,,,,,,,,,,,,,,,,,,,,,,,,CBC_1146,1,4,3,2,3,0.95,2024-09-11_14h37.04.530,MSI_AV_v3,2022.1.1,59.980374421740606,
,,,,,,,,,,,,,,,,,,,,,,,,,,,,,,,,,,,,,,,,,,,,,,,,,,None,457.3270687999993,None,,,,,,,,,,,,,,,,,,CBC_1146,1,4,3,2,3,0.95,2024-09-11_14h37.04.530,MSI_AV_v3,2022.1.1,59.980374421740606,
,,,,,,,,,,,,,,,,,,,,,,,,,,,,,,,,,,,,,,,,,,,,,,,,,,,,,462.3272178999996,None,None,462.3272178999996,None,,,,,,,,,,,,,CBC_1146,1,4,3,2,3,0.95,2024-09-11_14h37.04.530,MSI_AV_v3,2022.1.1,59.980374421740606,
,,,,,,,,,,,,,,,,,,,,,,,,,,,,,,,,,,,,,,,,,,,,,,,,,,,,,,,,,,z,b,hard,"[0, 1, 2, 3]","[0, 2, 3, 1]",0.9090909090909091,0.8181818181818182,0.7272727272727273,0.7272727272727273,35,1,8,,,,,,,,,,,,
