trials_runs.thisRepN,trials_runs.thisTrialN,trials_runs.thisN,trials_runs.thisIndex,standbild_start.started,standbild_start.stopped,trigger.keys,trigger.rt,trigger.started,trigger.stopped,keys_2.keys,keys_2.started,keys_2.stopped,trials_runs.auditory_stim,trials_runs.visual_stim_left,trials_runs.visual_stim_right,trials_runs.correctKey,trials_runs.presentationFrequncy,trials_runs.FBaccuracy,trials_runs.ISI_s,trials_runs.ITI_s,keys_3.keys,keys_3.started,keys_3.stopped,ImageLeft_4.started,ImageLeft_4.stopped,ImageRight_4.started,ImageRight_4.stopped,sound_4.started,sound_4.stopped,response_4.keys,response_4.rt,response_4.started,response_4.stopped,response_5.keys,response_5.started,response_5.stopped,response_runs.keys,response_runs.rt,trials_runs.correct_answer,trials_runs.feedback_given,trials_runs.running_mean,feedback_6.started,feedback_6.stopped,keys_6.keys,keys_6.started,keys_6.stopped,response_5.rt,keys_6.rt,keys_3.rt,keys_7.keys,keys_7.started,keys_7.stopped,standbild_end.started,standbild_end.stopped,Stop_exp.keys,Stop_exp.started,Stop_exp.stopped,trials_runs.rightKey,trials_runs.leftKey,ts_difficulty,visualPair,audioPair,trials_runs.mean_acc_1stFourth,trials_runs.mean_acc_2ndFourth,trials_runs.mean_acc_3rdFourth,trials_runs.mean_acc_4thFourth,nbCorrect,nbOmissions,nbIncorrect,participant,session,visual set [1-6],audio set [1-3 / 4-6],trial structure [0-3 / 4-7],pairing [0-23],prob Feedback,date,expName,psychopyVersion,frameRate,
,,,,25.169745399998646,None,t,59.17658920000213,25.169745399998646,None,,,,,,,,,,,,,,,,,,,,,,,,,,,,,,,,,,,,,,,,,,,,,,,,,,,,,,,,,,,,,CBC_1119,3,3,1,4,0,0.90,2024-05-22_16h30.20.038,MSI_AV_v3,2022.1.1,60.03492832167757,
,,,,,,,,,,None,84.36349629999859,None,,,,,,,,,,,,,,,,,,,,,,,,,,,,,,,,,,,,,,,,,,,,,,,,,,,,,,,,,,CBC_1119,3,3,1,4,0,0.90,2024-05-22_16h30.20.038,MSI_AV_v3,2022.1.1,60.03492832167757,
0,0,0,0,,,,,,,,,,1,1.0,0.0,b,63.0,1.0,2.2759877950103027,1.34668860557497,None,84.56399939999937,None,86.0372157999991,None,86.0372157999991,None,86.04649215999925,None,['b'],[1.7667076000016095],86.0372157999991,None,None,87.91460529999858,None,b,1.7667076000016095,1,1,1.0,90.21761960000003,None,None,90.21761960000003,None,,,,,,,,,,,,,,,,,,,,,,,,CBC_1119,3,3,1,4,0,0.90,2024-05-22_16h30.20.038,MSI_AV_v3,2022.1.1,60.03492832167757,
1,0,1,0,,,,,,,,,,0,1.0,0.0,z,63.0,1.0,3.73326136168326,1.25920145784721,None,92.01376899999923,None,93.30270219999875,None,93.30270219999875,None,93.31309469999906,None,None,,93.30270219999875,None,['b'],95.26369429999977,None,b,2.062385800001721,0,0,0.5,98.97973509999974,None,None,98.97973509999974,None,[0.06238580000172078],,,,,,,,,,,,,,,,,,,,,,,CBC_1119,3,3,1,4,0,0.90,2024-05-22_16h30.20.038,MSI_AV_v3,2022.1.1,60.03492832167757,
2,0,2,0,,,,,,,,,,3,3.0,2.0,b,63.0,1.0,2.6391747348430608,0.974903167432984,None,100.78065759999845,None,101.78908489999958,None,101.78908489999958,None,101.79672129999926,None,['b'],[1.2574472000014794],101.78908489999958,None,None,103.76643309999963,None,b,1.2574472000014794,1,1,0.6666666666666666,106.41929229999914,None,None,106.41929229999914,None,,,,,,,,,,,,,,,,,,,,,,,,CBC_1119,3,3,1,4,0,0.90,2024-05-22_16h30.20.038,MSI_AV_v3,2022.1.1,60.03492832167757,
3,0,3,0,,,,,,,,,,1,1.0,2.0,b,9.0,1.0,2.792365600763554,1.64421109900286,None,108.23028739999972,None,109.86437309999928,None,109.86437309999928,None,109.86240561999983,None,None,,109.86437309999928,None,['z'],111.8468785999994,None,z,4.055567400000655,0,0,0.5,114.6267603999986,None,"['b', 'b']",114.6267603999986,None,[2.0555674000006547],"[1.153952600001503, 1.602155100001255]",,,,,,,,,,,,,,,,,,,,,,CBC_1119,3,3,1,4,0,0.90,2024-05-22_16h30.20.038,MSI_AV_v3,2022.1.1,60.03492832167757,
4,0,4,0,,,,,,,,,,0,2.0,0.0,z,27.0,1.0,2.82320408183943,0.979776149765883,"['b', 'b']",116.43022149999888,None,117.4159955999985,None,117.4159955999985,None,117.4123953199989,None,['b'],[1.9079543000025296],117.4159955999985,None,None,119.41551939999954,None,b,1.9079543000025296,0,0,0.4,122.24617269999908,None,None,122.24617269999908,None,,,"[0.06430750000072294, 0.5360084000003553]",,,,,,,,,,,,,,,,,,,,,CBC_1119,3,3,1,4,0,0.90,2024-05-22_16h30.20.038,MSI_AV_v3,2022.1.1,60.03492832167757,
5,0,5,0,,,,,,,,,,2,3.0,2.0,z,63.0,1.0,4.82531807167306,1.53122835510861,None,124.04708749999918,None,125.62800519999837,None,125.62800519999837,None,125.63032699999894,None,['b'],[1.8360462000018742],125.62800519999837,None,None,127.58367889999863,None,b,1.8360462000018742,0,0,0.3333333333333333,132.4045604999992,None,None,132.4045604999992,None,,,,,,,,,,,,,,,,,,,,,,,,CBC_1119,3,3,1,4,0,0.90,2024-05-22_16h30.20.038,MSI_AV_v3,2022.1.1,60.03492832167757,
6,0,6,0,,,,,,,,,,3,3.0,1.0,b,27.0,1.0,2.666404967794728,1.52290599571961,None,134.21339999999873,None,135.75103959999979,None,135.75103959999979,None,135.74703367999862,None,['b'],[1.4774327000013727],135.75103959999979,None,None,137.73425529999986,None,b,1.4774327000013727,1,1,0.42857142857142855,140.39621819999957,None,None,140.39621819999957,None,,,,,,,,,,,,,,,,,,,,,,,,CBC_1119,3,3,1,4,0,0.90,2024-05-22_16h30.20.038,MSI_AV_v3,2022.1.1,60.03492832167757,
7,0,7,0,,,,,,,,,,0,0.0,1.0,b,63.0,1.0,4.77034425507967,1.96568735158996,None,142.19699769999897,None,144.18490289999863,None,144.18490289999863,None,144.19710223999974,None,['z'],[1.7166124000013951],144.18490289999863,None,None,146.18204049999986,None,z,1.7166124000013951,0,0,0.375,150.95400840000002,None,None,150.95400840000002,None,,,,,,,,,,,,,,,,,,,,,,,,CBC_1119,3,3,1,4,0,0.90,2024-05-22_16h30.20.038,MSI_AV_v3,2022.1.1,60.03492832167757,
8,0,8,0,,,,,,,,,,2,0.0,2.0,z,27.0,1.0,2.294664843639333,1.90743690794447,None,152.76390619999984,None,154.68363639999916,None,154.68363639999916,None,154.68092817999857,None,['z'],[1.0054835000028106],154.68363639999916,None,None,156.6842758999992,None,z,1.0054835000028106,1,1,0.4444444444444444,158.98729359999925,None,None,158.98729359999925,None,,,,,,,,,,,,,,,,,,,,,,,,CBC_1119,3,3,1,4,0,0.90,2024-05-22_16h30.20.038,MSI_AV_v3,2022.1.1,60.03492832167757,
9,0,9,0,,,,,,,,,,3,3.0,2.0,b,63.0,1.0,4.40017271499661,1.18065738546375,None,160.7963639999998,None,161.98342779999984,None,161.98342779999984,None,161.98035857999892,None,['b'],[1.656250000001819],161.98342779999984,None,None,163.9801897999987,None,b,1.656250000001819,1,1,0.5,168.37943709999854,None,None,168.37943709999854,None,,,,,,,,,,,,,,,,,,,,,,,,CBC_1119,3,3,1,4,0,0.90,2024-05-22_16h30.20.038,MSI_AV_v3,2022.1.1,60.03492832167757,
10,0,10,0,,,,,,,,,,1,0.0,1.0,z,63.0,0.0,3.35133458220192,2.15533949826702,None,170.18077829999856,None,172.3544155999989,None,172.3544155999989,None,172.36376293999857,None,None,,172.3544155999989,None,"['b', 'z', 'z', 'z']",174.33069849999993,None,b,2.105246500001158,0,1,0.45454545454545453,177.6795418999991,None,None,177.6795418999991,None,"[0.10524650000115798, 0.6217642000010528, 1.0994908000011492, 1.5288700000019162]",,,,,,,,,,,,,,,,,,,,,,,CBC_1119,3,3,1,4,0,0.90,2024-05-22_16h30.20.038,MSI_AV_v3,2022.1.1,60.03492832167757,
11,0,11,0,,,,,,,,,,0,1.0,0.0,z,63.0,1.0,2.433630701072358,2.22427187882546,None,179.48073369999838,None,181.71918379999988,None,181.71918379999988,None,181.73038953999858,None,None,,181.71918379999988,None,['b'],183.69618919999994,None,b,2.0612515000011626,0,0,0.4166666666666667,186.11298389999865,None,None,186.11298389999865,None,[0.06125150000116264],,,,,,,,,,,,,,,,,,,,,,,CBC_1119,3,3,1,4,0,0.90,2024-05-22_16h30.20.038,MSI_AV_v3,2022.1.1,60.03492832167757,
12,0,12,0,,,,,,,,,,3,3.0,2.0,b,63.0,1.0,2.496959177995529,0.80788063606262,None,187.91393939999944,None,188.73826219999864,None,188.73826219999864,None,188.74712753999884,None,None,,188.73826219999864,None,['b'],190.71367439999995,None,b,2.28523370000039,1,1,0.46153846153846156,193.2077107999994,None,None,193.2077107999994,None,[0.28523370000038994],,,,,,,,,,,,,,,,,,,,,,,CBC_1119,3,3,1,4,0,0.90,2024-05-22_16h30.20.038,MSI_AV_v3,2022.1.1,60.03492832167757,
13,0,13,0,,,,,,,,,,2,0.0,2.0,z,27.0,1.0,4.01714354611405,2.78346932462847,None,195.0137595999986,None,197.81982900000003,None,197.81982900000003,None,197.8306180399999,None,['z'],[1.7358240000012302],197.81982900000003,None,None,199.81228999999985,None,z,1.7358240000012302,1,1,0.5,203.83925139999883,None,None,203.83925139999883,None,,,,,,,,,,,,,,,,,,,,,,,,CBC_1119,3,3,1,4,0,0.90,2024-05-22_16h30.20.038,MSI_AV_v3,2022.1.1,60.03492832167757,
14,0,14,0,,,,,,,,,,0,1.0,0.0,z,63.0,1.0,2.693348633324513,0.952147612306987,None,205.64722660000007,None,206.61865899999975,None,206.61865899999975,None,206.6305597399991,None,['z'],[0.7784938000004331],206.61865899999975,None,None,208.61805449999883,None,z,0.7784938000004331,1,1,0.5333333333333333,211.32200679999914,None,None,211.32200679999914,None,,,,,,,,,,,,,,,,,,,,,,,,CBC_1119,3,3,1,4,0,0.90,2024-05-22_16h30.20.038,MSI_AV_v3,2022.1.1,60.03492832167757,
15,0,15,0,,,,,,,,,,1,3.0,1.0,z,27.0,1.0,3.6438386551209,2.40378712856304,None,213.13074199999937,None,215.55302479999955,None,215.55302479999955,None,215.54731797999992,None,['b'],[1.7521472000007634],215.55302479999955,None,"['z', 'z', 'z']",217.55072569999902,None,b,1.7521472000007634,0,0,0.5,221.2018062999996,None,"['z', 'z']",221.2018062999996,None,"[2.426851700001862, 3.0423933000020043, 3.5758379000017158]","[0.6219973000006576, 1.3005063000000519]",,,,,,,,,,,,,,,,,,,,,,CBC_1119,3,3,1,4,0,0.90,2024-05-22_16h30.20.038,MSI_AV_v3,2022.1.1,60.03492832167757,
16,0,16,0,,,,,,,,,,2,2.0,3.0,b,63.0,1.0,4.46924002178158,3.1963008326951,None,223.01421649999975,None,226.2359775999994,None,226.2359775999994,None,226.24742643999926,None,None,,226.2359775999994,None,"['z', 'b', 'b']",228.2137645999992,None,z,2.451675200001773,0,0,0.47058823529411764,232.66847999999845,None,"['b', 'b']",232.66847999999845,None,"[0.4516752000017732, 3.680157800001325, 4.234643000001597]","[0.38946040000155335, 1.150367100002768]",,,,,,,,,,,,,,,,,,,,,,CBC_1119,3,3,1,4,0,0.90,2024-05-22_16h30.20.038,MSI_AV_v3,2022.1.1,60.03492832167757,
17,0,17,0,,,,,,,,,,3,3.0,2.0,b,63.0,0.0,2.517541937862754,2.10421507306074,None,234.4808710999987,None,236.6018884999994,None,236.6018884999994,None,236.59745207999984,None,None,,236.6018884999994,None,"['z', 'b', 'b', 'b', 'b']",238.5810296999989,None,z,2.3114853000024596,0,1,0.4444444444444444,241.09115089999977,None,None,241.09115089999977,None,"[0.31148530000245955, 1.240621500002817, 1.739626100003079, 1.984051700002965, 2.2373729000028106]",,,,,,,,,,,,,,,,,,,,,,,CBC_1119,3,3,1,4,0,0.90,2024-05-22_16h30.20.038,MSI_AV_v3,2022.1.1,60.03492832167757,
18,0,18,0,,,,,,,,,,1,0.0,1.0,z,63.0,1.0,2.526044641065533,1.78643585472448,None,242.89651869999943,None,244.70091460000003,None,244.70091460000003,None,244.69744007999978,None,['z'],[1.0572602000011102],244.70091460000003,None,None,246.6997309999988,None,z,1.0572602000011102,1,1,0.47368421052631576,249.2343327999988,None,None,249.2343327999988,None,,,,,,,,,,,,,,,,,,,,,,,,CBC_1119,3,3,1,4,0,0.90,2024-05-22_16h30.20.038,MSI_AV_v3,2022.1.1,60.03492832167757,
19,0,19,0,,,,,,,,,,0,0.0,2.0,b,27.0,1.0,2.342239579230602,2.09887870490381,None,251.04762559999836,None,253.1511534000001,None,253.1511534000001,None,253.16331907999918,None,['b'],[0.911675400002423],253.1511534000001,None,None,255.1649250999999,None,b,0.911675400002423,1,1,0.5,257.5192526999999,None,None,257.5192526999999,None,,,,,,,,,,,,,,,,,,,,,,,,CBC_1119,3,3,1,4,0,0.90,2024-05-22_16h30.20.038,MSI_AV_v3,2022.1.1,60.03492832167757,
20,0,20,0,,,,,,,,,,3,3.0,0.0,b,9.0,1.0,4.7533305109883095,1.27538462653558,None,259.3308367999998,None,260.60383699999875,None,260.60383699999875,None,260.61327497999883,None,['b'],[1.226128600001175],260.60383699999875,None,None,262.59789869999986,None,b,1.226128600001175,1,1,0.5238095238095238,267.35208429999875,None,None,267.35208429999875,None,,,,,,,,,,,,,,,,,,,,,,,,CBC_1119,3,3,1,4,0,0.90,2024-05-22_16h30.20.038,MSI_AV_v3,2022.1.1,60.03492832167757,
21,0,21,0,,,,,,,,,,2,3.0,2.0,z,63.0,1.0,2.629554641171433,1.12425433982333,None,269.1642865999984,None,270.29423359999964,None,270.29423359999964,None,270.2970737799995,None,['b'],[1.8719761000011204],270.29423359999964,None,"['z', 'z']",272.29838779999955,None,b,1.8719761000011204,0,0,0.5,274.93722349999916,None,"['z', 'z', 'z']",274.93722349999916,None,"[1.6801379000007728, 2.226573300000382]","[0.1233434000005218, 0.582234100002097, 1.020981000001484]",,,,,,,,,,,,,,,,,,,,,,CBC_1119,3,3,1,4,0,0.90,2024-05-22_16h30.20.038,MSI_AV_v3,2022.1.1,60.03492832167757,
22,0,22,0,,,,,,,,,,1,1.0,3.0,b,27.0,1.0,3.76873691643126,1.21250262048173,None,276.7479246999992,None,277.98668309999994,None,277.98668309999994,None,277.99749593999917,None,['b'],[1.171418600000834],277.98668309999994,None,None,279.9832723999989,None,b,1.171418600000834,1,1,0.5217391304347826,283.7468091999999,None,None,283.7468091999999,None,,,,,,,,,,,,,,,,,,,,,,,,CBC_1119,3,3,1,4,0,0.90,2024-05-22_16h30.20.038,MSI_AV_v3,2022.1.1,60.03492832167757,
23,0,23,0,,,,,,,,,,2,2.0,3.0,b,63.0,1.0,4.12485271162806,0.917519910446003,None,285.5476239999989,None,286.4681425999988,None,286.4681425999988,None,286.47979947999994,None,None,,286.4681425999988,None,['b'],288.44780189999983,None,b,2.085442100002183,1,1,0.5416666666666666,292.5683455999988,None,None,292.5683455999988,None,[0.085442100002183],,,,,,,,,,,,,,,,,,,,,,,CBC_1119,3,3,1,4,0,0.90,2024-05-22_16h30.20.038,MSI_AV_v3,2022.1.1,60.03492832167757,
24,0,24,0,,,,,,,,,,3,3.0,2.0,b,63.0,1.0,2.7134565917469198,1.1243895841892,None,294.3814222000001,None,295.5220455999988,None,295.5220455999988,None,295.5310366399994,None,['b'],[1.0306886000016675],295.5220455999988,None,None,297.51075049999963,None,b,1.0306886000016675,1,1,0.56,300.21843589999844,None,None,300.21843589999844,None,,,,,,,,,,,,,,,,,,,,,,,,CBC_1119,3,3,1,4,0,0.90,2024-05-22_16h30.20.038,MSI_AV_v3,2022.1.1,60.03492832167757,
25,0,25,0,,,,,,,,,,1,0.0,1.0,z,63.0,1.0,4.52047235037039,1.60731937853708,None,302.0313761999987,None,303.65358339999875,None,303.65358339999875,None,303.6643607399987,None,['z'],[0.8756537000026583],303.65358339999875,None,None,305.6491557999998,None,z,0.8756537000026583,1,1,0.5769230769230769,310.1684140999987,None,None,310.1684140999987,None,,,,,,,,,,,,,,,,,,,,,,,,CBC_1119,3,3,1,4,0,0.90,2024-05-22_16h30.20.038,MSI_AV_v3,2022.1.1,60.03492832167757,
26,0,26,0,,,,,,,,,,0,3.0,0.0,z,9.0,1.0,3.7500315165247198,1.95130344756745,None,311.9799776999989,None,313.95002569999997,None,313.95002569999997,None,313.9478019799997,None,['z'],[0.6822063000017806],313.95002569999997,None,None,315.9493657999992,None,z,0.6822063000017806,1,1,0.5925925925925926,319.7060641999997,None,None,319.7060641999997,None,,,,,,,,,,,,,,,,,,,,,,,,CBC_1119,3,3,1,4,0,0.90,2024-05-22_16h30.20.038,MSI_AV_v3,2022.1.1,60.03492832167757,
27,0,27,0,,,,,,,,,,3,3.0,2.0,b,63.0,1.0,3.31929419319838,3.4543169006169,None,321.51470919999883,None,324.96594359999835,None,324.96594359999835,None,324.9639068199988,None,['b'],[1.6694909000016196],324.96594359999835,None,"['z', 'z', 'z', 'z', 'z', 'z', 'z', 'z', 'z']",326.98465979999855,None,b,1.6694909000016196,1,1,0.6071428571428571,330.30296759999874,None,"['z', 'z']",330.30296759999874,None,"[0.6243683000011515, 1.1859209000012925, 1.4701265000021522, 1.7225357000024815, 1.9732612000025256, 2.2487427000014577, 2.5739252000021224, 2.8888791000026686, 3.2231777000015427]","[0.14425190000110888, 0.44698090000201773]",,,,,,,,,,,,,,,,,,,,,,CBC_1119,3,3,1,4,0,0.90,2024-05-22_16h30.20.038,MSI_AV_v3,2022.1.1,60.03492832167757,
28,0,28,0,,,,,,,,,,2,0.0,2.0,z,27.0,1.0,2.91303524001082,3.33124983260532,None,332.11477449999984,None,335.47247139999854,None,335.47247139999854,None,335.48099033999864,None,None,,335.47247139999854,None,['z'],337.44800909999867,None,z,2.171660600002724,1,1,0.6206896551724138,340.34579399999893,None,None,340.34579399999893,None,[0.1716606000027241],,,,,,,,,,,,,,,,,,,,,,,CBC_1119,3,3,1,4,0,0.90,2024-05-22_16h30.20.038,MSI_AV_v3,2022.1.1,60.03492832167757,
29,0,29,0,,,,,,,,,,0,0.0,1.0,b,63.0,0.0,3.68371079902891,2.6299100644723,None,342.1481628999991,None,344.80311039999833,None,344.80311039999833,None,344.7979874799992,None,['b'],[1.478358100002879],344.80311039999833,None,None,346.7954918999985,None,b,1.478358100002879,1,0,0.6333333333333333,350.47986539999874,None,None,350.47986539999874,None,,,,,,,,,,,,,,,,,,,,,,,,CBC_1119,3,3,1,4,0,0.90,2024-05-22_16h30.20.038,MSI_AV_v3,2022.1.1,60.03492832167757,
30,0,30,0,,,,,,,,,,1,0.0,1.0,z,63.0,1.0,4.53337421950507,1.36309078069689,None,352.28117759999986,None,353.6702392999996,None,353.6702392999996,None,353.68127513999974,None,['z'],[1.1962530000018887],353.6702392999996,None,None,355.6484985999996,None,z,1.1962530000018887,1,1,0.6451612903225806,360.1886767999986,None,None,360.1886767999986,None,,,,,,,,,,,,,,,,,,,,,,,,CBC_1119,3,3,1,4,0,0.90,2024-05-22_16h30.20.038,MSI_AV_v3,2022.1.1,60.03492832167757,
31,0,31,0,,,,,,,,,,3,1.0,3.0,z,27.0,1.0,3.2062024266105302,1.38289892513751,None,361.99828029999844,None,363.40174379999917,None,363.40174379999917,None,363.3979454799999,None,['z'],[1.1821247000025323],363.40174379999917,None,None,365.3880974999993,None,z,1.1821247000025323,1,1,0.65625,368.5870888999998,None,None,368.5870888999998,None,,,,,,,,,,,,,,,,,,,,,,,,CBC_1119,3,3,1,4,0,0.90,2024-05-22_16h30.20.038,MSI_AV_v3,2022.1.1,60.03492832167757,
32,0,32,0,,,,,,,,,,2,2.0,3.0,b,63.0,1.0,4.61004669244928,3.06992456303453,None,370.3978565999987,None,373.48246130000007,None,373.48246130000007,None,373.48134827999894,None,None,,373.48246130000007,None,['b'],375.4642237999997,None,b,2.099145199999839,1,1,0.6666666666666666,380.05449789999875,None,None,380.05449789999875,None,[0.09914519999983895],,,,,,,,,,,,,,,,,,,,,,,CBC_1119,3,3,1,4,0,0.90,2024-05-22_16h30.20.038,MSI_AV_v3,2022.1.1,60.03492832167757,
33,0,33,0,,,,,,,,,,1,0.0,1.0,z,63.0,1.0,3.02234236141277,1.25817747924478,None,381.8648183999994,None,383.1384976999998,None,383.1384976999998,None,383.1479052399995,None,['z'],[1.500925800000914],383.1384976999998,None,None,385.1293962999989,None,z,1.500925800000914,1,1,0.6764705882352942,388.1559269999998,None,None,388.1559269999998,None,,,,,,,,,,,,,,,,,,,,,,,,CBC_1119,3,3,1,4,0,0.90,2024-05-22_16h30.20.038,MSI_AV_v3,2022.1.1,60.03492832167757,
34,0,34,0,,,,,,,,,,0,1.0,0.0,z,63.0,1.0,2.592312596923728,2.96653053743745,None,389.96558579999873,None,392.95359539999845,None,392.95359539999845,None,392.94836057999856,None,['z'],[1.2975117000005412],392.95359539999845,None,None,394.94868139999926,None,z,1.2975117000005412,1,1,0.6857142857142857,397.5385701999985,None,None,397.5385701999985,None,,,,,,,,,,,,,,,,,,,,,,,,CBC_1119,3,3,1,4,0,0.90,2024-05-22_16h30.20.038,MSI_AV_v3,2022.1.1,60.03492832167757,
35,0,35,0,,,,,,,,,,2,2.0,1.0,b,9.0,1.0,2.92731383428727,0.77703640172831,None,399.3483415999999,None,400.1323814999996,None,400.1323814999996,None,400.1312845799992,None,['b'],[1.1192627000000357],400.1323814999996,None,None,402.1333952999994,None,b,1.1192627000000357,1,1,0.6944444444444444,405.0706758999986,None,None,405.0706758999986,None,,,,,,,,,,,,,,,,,,,,,,,,CBC_1119,3,3,1,4,0,0.90,2024-05-22_16h30.20.038,MSI_AV_v3,2022.1.1,60.03492832167757,
36,0,36,0,,,,,,,,,,0,0.0,1.0,b,63.0,1.0,4.77723667052879,3.40155979865722,None,406.88171019999936,None,410.2952590999994,None,410.2952590999994,None,410.2977991799988,None,['b'],[1.1421421000031842],410.2952590999994,None,None,412.3012684999994,None,b,1.1421421000031842,1,1,0.7027027027027027,417.08339259999957,None,None,417.08339259999957,None,,,,,,,,,,,,,,,,,,,,,,,,CBC_1119,3,3,1,4,0,0.90,2024-05-22_16h30.20.038,MSI_AV_v3,2022.1.1,60.03492832167757,
37,0,37,0,,,,,,,,,,3,1.0,3.0,z,27.0,1.0,4.190022164497369,3.1424449555106,None,418.898391499999,None,422.0529315999993,None,422.0529315999993,None,422.0483945799995,None,['z'],[1.047851700001047],422.0529315999993,None,None,424.0482121999994,None,z,1.047851700001047,1,1,0.7105263157894737,428.23753489999945,None,None,428.23753489999945,None,,,,,,,,,,,,,,,,,,,,,,,,CBC_1119,3,3,1,4,0,0.90,2024-05-22_16h30.20.038,MSI_AV_v3,2022.1.1,60.03492832167757,
38,0,38,0,,,,,,,,,,1,1.0,0.0,b,63.0,1.0,3.3728785608729996,3.24569326556923,None,430.04840799999874,None,433.32361089999904,None,433.32361089999904,None,433.33156963999903,None,['b'],[0.8722391000010248],433.32361089999904,None,None,435.31796399999985,None,b,0.8722391000010248,1,1,0.717948717948718,438.70392639999955,None,None,438.70392639999955,None,,,,,,,,,,,,,,,,,,,,,,,,CBC_1119,3,3,1,4,0,0.90,2024-05-22_16h30.20.038,MSI_AV_v3,2022.1.1,60.03492832167757,
39,0,39,0,,,,,,,,,,2,3.0,2.0,z,63.0,0.0,4.72585056748869,1.94858485820231,None,440.5151666999991,None,442.48789299999953,None,442.48789299999953,None,442.49907553999986,None,['z'],[1.8622857999998814],442.48789299999953,None,None,444.48526239999956,None,z,1.8622857999998814,1,0,0.725,449.2197785999997,None,None,449.2197785999997,None,,,,,,,,,,,,,,,,,,,,,,,,CBC_1119,3,3,1,4,0,0.90,2024-05-22_16h30.20.038,MSI_AV_v3,2022.1.1,60.03492832167757,
40,0,40,0,,,,,,,,,,0,0.0,2.0,b,27.0,1.0,3.71372710086949,1.53243550275999,None,451.0320428999985,None,452.587982699999,None,452.587982699999,None,452.5985502400003,None,['b'],[1.2354747000026691],452.587982699999,None,None,454.58353050000005,None,b,1.2354747000026691,1,1,0.7317073170731707,458.3064480999983,None,None,458.3064480999983,None,,,,,,,,,,,,,,,,,,,,,,,,CBC_1119,3,3,1,4,0,0.90,2024-05-22_16h30.20.038,MSI_AV_v3,2022.1.1,60.03492832167757,
41,0,41,0,,,,,,,,,,3,2.0,3.0,z,63.0,1.0,4.11514536789087,1.43470440954152,None,460.1151854999989,None,461.5724313999999,None,461.5724313999999,None,461.5819095399988,None,['z'],[1.8373819000025833],461.5724313999999,None,None,463.5644677,None,z,1.8373819000025833,1,1,0.7380952380952381,467.68900269999904,None,None,467.68900269999904,None,,,,,,,,,,,,,,,,,,,,,,,,CBC_1119,3,3,1,4,0,0.90,2024-05-22_16h30.20.038,MSI_AV_v3,2022.1.1,60.03492832167757,
42,0,42,0,,,,,,,,,,1,1.0,3.0,b,27.0,1.0,2.678526077912375,2.49839527409216,None,469.49865359999967,None,472.0170316999993,None,472.0170316999993,None,472.01522167999866,None,['b'],[0.9875616000008449],472.0170316999993,None,None,474.0200436999985,None,b,0.9875616000008449,1,1,0.7441860465116279,476.68710759999885,None,None,476.68710759999885,None,,,,,,,,,,,,,,,,,,,,,,,,CBC_1119,3,3,1,4,0,0.90,2024-05-22_16h30.20.038,MSI_AV_v3,2022.1.1,60.03492832167757,
43,0,43,0,,,,,,,,,,2,3.0,2.0,z,63.0,1.0,3.26539063535182,0.761758675042088,None,478.49890139999843,None,479.2727043999985,None,479.2727043999985,None,479.28197933999985,None,['z'],[1.7148101000002498],479.2727043999985,None,None,481.2626758999995,None,z,1.7148101000002498,1,1,0.75,484.5227677999992,None,None,484.5227677999992,None,,,,,,,,,,,,,,,,,,,,,,,,CBC_1119,3,3,1,4,0,0.90,2024-05-22_16h30.20.038,MSI_AV_v3,2022.1.1,60.03492832167757,
,,,,,,,,,,,,,,,,,,,,,,,,,,,,,,,,,,,,,,,,,,,,,,,,,,None,486.3319378999986,None,,,,,,,,,,,,,,,,,,CBC_1119,3,3,1,4,0,0.90,2024-05-22_16h30.20.038,MSI_AV_v3,2022.1.1,60.03492832167757,
,,,,,,,,,,,,,,,,,,,,,,,,,,,,,,,,,,,,,,,,,,,,,,,,,,,,,491.33220660000006,None,None,491.33220660000006,None,,,,,,,,,,,,,CBC_1119,3,3,1,4,0,0.90,2024-05-22_16h30.20.038,MSI_AV_v3,2022.1.1,60.03492832167757,
,,,,,,,,,,,,,,,,,,,,,,,,,,,,,,,,,,,,,,,,,,,,,,,,,,,,,,,,,,z,b,hard,"[0, 1, 2, 3]","[0, 1, 2, 3]",0.45454545454545453,0.5454545454545454,1.0,1.0,33,0,11,,,,,,,,,,,,
