trials_runs.thisRepN,trials_runs.thisTrialN,trials_runs.thisN,trials_runs.thisIndex,standbild_start.started,standbild_start.stopped,trigger.keys,trigger.rt,trigger.started,trigger.stopped,keys_2.keys,keys_2.started,keys_2.stopped,trials_runs.tactile_stim,trials_runs.visual_stim_left,trials_runs.visual_stim_right,trials_runs.correctKey,trials_runs.presentationFrequncy,trials_runs.FBaccuracy,trials_runs.ISI_s,trials_runs.ITI_s,keys_3.keys,keys_3.started,keys_3.stopped,image_stim_left.started,image_stim_right.started,tactile.started,response_4.keys,allKeys.keys,response_5.keys,response_5.rt,response_5.started,response_5.stopped,response_runs.keys,response_runs.rt,trials_runs.correct_answer,trials_runs.feedback_given,trials_runs.running_mean,feedback_6.stopped,feedback_6.started,keys_6.keys,keys_6.started,keys_6.stopped,response_4.rt,allKeys.rt,keys_6.rt,keys_7.keys,keys_7.started,keys_7.stopped,standbild_end.started,standbild_end.stopped,Stop_exp.keys,Stop_exp.started,Stop_exp.stopped,trials_runs.rightKey,trials_runs.leftKey,ts_difficulty,visualPair,tactilePair,trials_runs.mean_acc_1stFourth,trials_runs.mean_acc_2ndFourth,trials_runs.mean_acc_3rdFourth,trials_runs.mean_acc_4thFourth,nbCorrect,nbOmissions,nbIncorrect,participant,session,visual set [1-6],tactile set [1-3],trial structure [0-3 / 4-7],pairing [0-23],prob Feedback,date,expName,psychopyVersion,frameRate,
,,,,245.99181640000006,None,t,84.47037470000032,245.99181640000006,None,,,,,,,,,,,,,,,,,,,,,,,,,,,,,,,,,,,,,,,,,,,,,,,,,,,,,,,,,CBC_1138,001,4,3,4,19,0.95,2024-07-24_14h19.30.560,MSI_TV_v3,2022.1.1,60.119312788352005,
,,,,,,,,,,None,330.48181360000035,None,,,,,,,,,,,,,,,,,,,,,,,,,,,,,,,,,,,,,,,,,,,,,,,,,,,,,,CBC_1138,001,4,3,4,19,0.95,2024-07-24_14h19.30.560,MSI_TV_v3,2022.1.1,60.119312788352005,
0,0,0,0,,,,,,,,,,0,1.0,0.0,b,63.0,1.0,4.11514536789087,0.80788063606262,None,330.68243770000026,None,331.4663865800003,331.4663865800003,331.48277807999966,None,[],['z'],[0.5420387999993181],333.47616930000004,None,z,2.542038799999318,0,0,0.0,None,337.6108178000004,None,337.6108178000004,None,,,,,,,,,,,,,,,,,,,,,,,,CBC_1138,001,4,3,4,19,0.95,2024-07-24_14h19.30.560,MSI_TV_v3,2022.1.1,60.119312788352005,
1,0,1,0,,,,,,,,,,3,1.0,0.0,z,63.0,1.0,4.72585056748869,2.15533949826702,None,339.4163779999999,None,341.54922368000007,341.54922368000007,341.5658131800001,None,[],['b'],[1.2675181000004159],343.55153809999956,None,b,3.267518100000416,0,0,0.0,None,348.2730101999996,None,348.2730101999996,None,,,,,,,,,,,,,,,,,,,,,,,,CBC_1138,001,4,3,4,19,0.95,2024-07-24_14h19.30.560,MSI_TV_v3,2022.1.1,60.119312788352005,
2,0,2,0,,,,,,,,,,1,3.0,2.0,b,63.0,1.0,2.678526077912375,1.53122835510861,None,350.0834037000004,None,351.59947808000015,351.59947808000015,351.61645917999977,None,[],['z'],[2.6014562999998816],353.60134780000044,None,z,4.601456299999882,0,0,0.0,None,356.27859720000015,None,356.27859720000015,None,,,,,,,,,,,,,,,,,,,,,,,,CBC_1138,001,4,3,4,19,0.95,2024-07-24_14h19.30.560,MSI_TV_v3,2022.1.1,60.119312788352005,
3,0,3,0,,,,,,,,,,0,1.0,2.0,b,9.0,1.0,3.2062024266105302,1.25817747924478,None,358.0835624000001,None,359.3162193799999,359.3162193799999,359.33298467999975,None,[],['b'],[0.8859789000007368],361.3158018000004,None,b,2.8859789000007368,1,1,0.25,None,364.52350920000026,None,364.52350920000026,None,,,,,,,,,,,,,,,,,,,,,,,,CBC_1138,001,4,3,4,19,0.95,2024-07-24_14h19.30.560,MSI_TV_v3,2022.1.1,60.119312788352005,
4,0,4,0,,,,,,,,,,3,2.0,0.0,z,27.0,1.0,3.73326136168326,1.60731937853708,None,366.3327615999997,None,367.9166426800002,367.9166426800002,367.93324458000006,None,[],['z'],[2.348992299999736],369.92278609999994,None,z,4.348992299999736,1,1,0.4,None,373.65547100000003,None,373.65547100000003,None,,,,,,,,,,,,,,,,,,,,,,,,CBC_1138,001,4,3,4,19,0.95,2024-07-24_14h19.30.560,MSI_TV_v3,2022.1.1,60.119312788352005,
5,0,5,0,,,,,,,,,,2,3.0,2.0,z,63.0,1.0,2.92731383428727,0.761758675042088,None,375.4661822999997,None,376.20020097999986,376.20020097999986,376.21662328,None,[],['b'],[1.2507709000001341],378.2039477999997,None,b,3.250770900000134,0,0,0.3333333333333333,None,381.1288894999998,None,381.1288894999998,None,,,,,,,,,,,,,,,,,,,,,,,,CBC_1138,001,4,3,4,19,0.95,2024-07-24_14h19.30.560,MSI_TV_v3,2022.1.1,60.119312788352005,
6,0,6,0,,,,,,,,,,1,3.0,1.0,b,27.0,1.0,4.12485271162806,3.06992456303453,None,382.9332162999999,None,385.98318698,385.98318698,385.9998832800002,None,[],['z'],[1.0615152999998827],387.9897560999998,None,z,3.0615152999998827,0,0,0.2857142857142857,None,392.1170954999998,None,392.1170954999998,None,,,,,,,,,,,,,,,,,,,,,,,,CBC_1138,001,4,3,4,19,0.95,2024-07-24_14h19.30.560,MSI_TV_v3,2022.1.1,60.119312788352005,
7,0,7,0,,,,,,,,,,3,0.0,1.0,b,63.0,1.0,3.7500315165247198,3.24569326556923,None,393.9165455000002,None,397.1500798799998,397.1500798799998,397.16631398000027,None,[],['b'],[0.8547225000002072],399.15522090000013,None,b,2.854722500000207,1,1,0.375,None,402.9001538000002,None,402.9001538000002,None,,,,,,,,,,,,,,,,,,,,,,,,CBC_1138,001,4,3,4,19,0.95,2024-07-24_14h19.30.560,MSI_TV_v3,2022.1.1,60.119312788352005,
8,0,8,0,,,,,,,,,,2,0.0,2.0,z,27.0,1.0,3.02234236141277,3.4543169006169,None,404.6998102999996,None,408.1330832800004,408.1330832800004,408.1501935799997,None,[],['z'],[1.467674700000316],410.13990319999994,None,z,3.467674700000316,1,1,0.4444444444444444,None,413.1624730000003,None,413.1624730000003,None,,,,,,,,,,,,,,,,,,,,,,,,CBC_1138,001,4,3,4,19,0.95,2024-07-24_14h19.30.560,MSI_TV_v3,2022.1.1,60.119312788352005,
9,0,9,0,,,,,,,,,,1,3.0,2.0,b,63.0,1.0,3.26539063535182,2.10421507306074,None,414.9651944999996,None,417.0500564800004,417.0500564800004,417.0664343799999,None,[],['z'],[1.4838191999997434],419.0527222999999,None,z,3.4838191999997434,0,0,0.4,None,422.3024357000004,None,422.3024357000004,None,,,,,,,,,,,,,,,,,,,,,,,,CBC_1138,001,4,3,4,19,0.95,2024-07-24_14h19.30.560,MSI_TV_v3,2022.1.1,60.119312788352005,
10,0,10,0,,,,,,,,,,0,0.0,1.0,z,63.0,1.0,2.496959177995529,3.1424449555106,None,424.11637940000037,None,427.23333428000024,427.23333428000024,427.2500558800002,None,[],['b'],[1.5691335999999865],429.2383528999999,None,b,3.5691335999999865,0,0,0.36363636363636365,None,431.7257434000003,None,431.7257434000003,None,,,,,,,,,,,,,,,,,,,,,,,,CBC_1138,001,4,3,4,19,0.95,2024-07-24_14h19.30.560,MSI_TV_v3,2022.1.1,60.119312788352005,
11,0,11,0,,,,,,,,,,3,1.0,0.0,z,63.0,1.0,4.190022164497369,1.94858485820231,None,433.53379719999975,None,435.4660772799998,435.4660772799998,435.4829267799996,None,[],['z'],[0.41702600000007806],437.4724137000003,None,z,2.417026000000078,1,1,0.4166666666666667,None,441.657424,None,441.657424,None,,,,,,,,,,,,,,,,,,,,,,,,CBC_1138,001,4,3,4,19,0.95,2024-07-24_14h19.30.560,MSI_TV_v3,2022.1.1,60.119312788352005,
12,0,12,0,,,,,,,,,,1,3.0,2.0,b,63.0,1.0,2.2759877950103027,1.18065738546375,None,443.4661311,None,444.63304338000034,444.63304338000034,444.6496024799999,None,[],['z'],[1.918020200000683],446.6379165999997,None,z,3.918020200000683,0,0,0.38461538461538464,None,448.9114569000003,None,448.9114569000003,None,,,,,,,,,,,,,,,,,,,,,,,,CBC_1138,001,4,3,4,19,0.95,2024-07-24_14h19.30.560,MSI_TV_v3,2022.1.1,60.119312788352005,
13,0,13,0,,,,,,,,,,2,0.0,2.0,z,27.0,1.0,2.91303524001082,0.952147612306987,None,450.7164792000003,None,451.6495183799998,451.6495183799998,451.6664026799999,None,[],None,,453.65531219999957,None,None,[],0,3,0.35714285714285715,None,456.59810430000016,None,456.59810430000016,None,,,,,,,,,,,,,,,,,,,,,,,,CBC_1138,001,4,3,4,19,0.95,2024-07-24_14h19.30.560,MSI_TV_v3,2022.1.1,60.119312788352005,
14,0,14,0,,,,,,,,,,3,1.0,0.0,z,63.0,1.0,2.7134565917469198,1.96568735158996,None,458.3668583999997,None,460.31680908,460.31680908,460.33341047999966,z,['z'],None,,462.36635469999965,None,z,1.3179073999999673,1,1,0.4,None,465.0810128000003,None,465.0810128000003,None,1.3179073999999673,[1.3179073999999673],,,,,,,,,,,,,,,,,,,,,,CBC_1138,001,4,3,4,19,0.95,2024-07-24_14h19.30.560,MSI_TV_v3,2022.1.1,60.119312788352005,
15,0,15,0,,,,,,,,,,0,3.0,1.0,z,27.0,1.0,3.31929419319838,1.52290599571961,None,466.8830205000004,None,468.3835174799997,468.3835174799997,468.4001809800002,None,[],['z'],[2.0468848999998954],470.39093969999976,None,z,4.046884899999895,1,1,0.4375,None,473.71366339999986,None,473.71366339999986,None,,,,,,,,,,,,,,,,,,,,,,,,CBC_1138,001,4,3,4,19,0.95,2024-07-24_14h19.30.560,MSI_TV_v3,2022.1.1,60.119312788352005,
16,0,16,0,,,,,,,,,,2,2.0,3.0,b,63.0,1.0,2.517541937862754,2.6299100644723,None,475.5165657999996,None,478.13343778000035,478.13343778000035,478.15006747999996,None,[],['z'],[0.5645272000001569],480.1399819999997,None,z,2.564527200000157,0,0,0.4117647058823529,None,482.6607683000002,None,482.6607683000002,None,,,,,,,,,,,,,,,,,,,,,,,,CBC_1138,001,4,3,4,19,0.95,2024-07-24_14h19.30.560,MSI_TV_v3,2022.1.1,60.119312788352005,
17,0,17,0,,,,,,,,,,1,3.0,2.0,b,63.0,0.0,2.433630701072358,3.1963008326951,None,484.46685439999965,None,487.64961138000035,487.64961138000035,487.6663790800003,None,[],['z'],[0.7101189999993949],489.6552138999996,None,z,2.710118999999395,0,1,0.3888888888888889,None,492.09060109999973,None,492.09060109999973,None,,,,,,,,,,,,,,,,,,,,,,,,CBC_1138,001,4,3,4,19,0.95,2024-07-24_14h19.30.560,MSI_TV_v3,2022.1.1,60.119312788352005,
18,0,18,0,,,,,,,,,,0,0.0,1.0,z,63.0,1.0,3.35133458220192,1.1243895841892,None,493.89938359999996,None,494.99987557999975,494.99987557999975,495.0163152799996,b,['b'],None,,497.0420522000004,None,b,1.535339600000043,0,0,0.3684210526315789,None,500.39570019999974,None,500.39570019999974,None,1.535339600000043,[1.535339600000043],,,,,,,,,,,,,,,,,,,,,,CBC_1138,001,4,3,4,19,0.95,2024-07-24_14h19.30.560,MSI_TV_v3,2022.1.1,60.119312788352005,
19,0,19,0,,,,,,,,,,3,0.0,2.0,b,27.0,1.0,4.7533305109883095,1.27538462653558,None,502.2001174999996,None,503.4501103800003,503.4501103800003,503.4667170800003,None,[],['z'],[2.67721309999979],505.4552319000004,None,z,4.67721309999979,0,0,0.35,None,510.20633090000047,None,510.20633090000047,None,,,,,,,,,,,,,,,,,,,,,,,,CBC_1138,001,4,3,4,19,0.95,2024-07-24_14h19.30.560,MSI_TV_v3,2022.1.1,60.119312788352005,
20,0,20,0,,,,,,,,,,1,3.0,0.0,b,9.0,1.0,3.6438386551209,1.34668860557497,None,512.0160297000002,None,513.3333878800004,513.3333878800004,513.3499016799997,None,[],['b'],[1.2060449999999037],515.3392188999997,None,b,3.2060449999999037,1,1,0.38095238095238093,None,518.9816905999996,None,518.9816905999996,None,,,,,,,,,,,,,,,,,,,,,,,,CBC_1138,001,4,3,4,19,0.95,2024-07-24_14h19.30.560,MSI_TV_v3,2022.1.1,60.119312788352005,
21,0,21,0,,,,,,,,,,2,3.0,2.0,z,63.0,1.0,4.77034425507967,1.21250262048173,None,520.7838000000002,None,521.9833801799996,521.9833801799996,522.0001618799997,None,[],['z'],[1.142825900000389],523.9931416,None,z,3.142825900000389,1,1,0.4090909090909091,None,528.7589638999998,None,528.7589638999998,None,,,,,,,,,,,,,,,,,,,,,,,,CBC_1138,001,4,3,4,19,0.95,2024-07-24_14h19.30.560,MSI_TV_v3,2022.1.1,60.119312788352005,
22,0,22,0,,,,,,,,,,0,1.0,3.0,b,27.0,1.0,2.666404967794728,2.40378712856304,None,530.5669054999998,None,532.9498346800001,532.9498346800001,532.96621478,None,[],['z'],[0.9188316999998278],534.9527587000002,None,z,2.918831699999828,0,0,0.391304347826087,None,537.6191463000005,None,537.6191463000005,None,,,,,,,,,,,,,,,,,,,,,,,,CBC_1138,001,4,3,4,19,0.95,2024-07-24_14h19.30.560,MSI_TV_v3,2022.1.1,60.119312788352005,
23,0,23,0,,,,,,,,,,2,2.0,3.0,b,63.0,1.0,2.6391747348430608,1.12425433982333,None,539.4334483000002,None,540.5335487800003,540.5335487800003,540.5500947800001,None,[],['b'],[0.7874256000004607],542.5386551000001,None,b,2.7874256000004607,1,1,0.4166666666666667,None,545.1876367000004,None,545.1876367000004,None,,,,,,,,,,,,,,,,,,,,,,,,CBC_1138,001,4,3,4,19,0.95,2024-07-24_14h19.30.560,MSI_TV_v3,2022.1.1,60.119312788352005,
24,0,24,0,,,,,,,,,,1,3.0,2.0,b,63.0,1.0,3.3728785608729996,0.979776149765883,None,546.9994355999997,None,547.9497545799995,547.9497545799995,547.9665214799998,None,[],['z'],[1.158340999999382],549.9559145000003,None,z,3.158340999999382,0,0,0.4,None,553.3333785000004,None,553.3333785000004,None,,,,,,,,,,,,,,,,,,,,,,,,CBC_1138,001,4,3,4,19,0.95,2024-07-24_14h19.30.560,MSI_TV_v3,2022.1.1,60.119312788352005,
25,0,25,0,,,,,,,,,,0,0.0,1.0,z,63.0,1.0,3.71372710086949,0.77703640172831,None,555.1331240999998,None,555.9001969800001,555.9001969800001,555.9164783799997,None,[],['b'],[1.0030888000001141],557.9069584999997,None,b,3.003088800000114,0,0,0.38461538461538464,None,561.6135093000003,None,561.6135093000003,None,,,,,,,,,,,,,,,,,,,,,,,,CBC_1138,001,4,3,4,19,0.95,2024-07-24_14h19.30.560,MSI_TV_v3,2022.1.1,60.119312788352005,
26,0,26,0,,,,,,,,,,3,3.0,0.0,z,9.0,1.0,2.82320408183943,1.78643585472448,None,563.4168748000002,None,565.1829797800001,565.1829797800001,565.1998057800001,None,[],['z'],[1.1050555000001623],567.1860694999996,None,z,3.1050555000001623,1,1,0.4074074074074074,None,569.9991053000003,None,569.9991053000003,None,,,,,,,,,,,,,,,,,,,,,,,,CBC_1138,001,4,3,4,19,0.95,2024-07-24_14h19.30.560,MSI_TV_v3,2022.1.1,60.119312788352005,
27,0,27,0,,,,,,,,,,1,3.0,2.0,b,63.0,1.0,4.53337421950507,2.09887870490381,None,571.7998845000002,None,573.8831436800001,573.8831436800001,573.8998503800003,None,[],['z'],[0.6532280000001265],575.8876725999999,None,z,2.6532280000001265,0,0,0.39285714285714285,None,580.4234184999996,None,580.4234184999996,None,,,,,,,,,,,,,,,,,,,,,,,,CBC_1138,001,4,3,4,19,0.95,2024-07-24_14h19.30.560,MSI_TV_v3,2022.1.1,60.119312788352005,
28,0,28,0,,,,,,,,,,2,0.0,2.0,z,27.0,1.0,4.77723667052879,2.49839527409216,None,582.2329929999996,None,584.7167425799998,584.7167425799998,584.7337653799996,None,[],['b'],[0.5740737000005538],586.7244879,None,b,2.574073700000554,0,0,0.3793103448275862,None,591.5080000999997,None,591.5080000999997,None,,,,,,,,,,,,,,,,,,,,,,,,CBC_1138,001,4,3,4,19,0.95,2024-07-24_14h19.30.560,MSI_TV_v3,2022.1.1,60.119312788352005,
29,0,29,0,,,,,,,,,,3,0.0,1.0,b,63.0,1.0,2.629554641171433,1.64421109900286,None,593.3170401999996,None,594.9331207799996,594.9331207799996,594.9504841799999,None,[],None,,596.9390939000004,None,None,[],0,3,0.36666666666666664,None,599.5621944000004,['z'],599.5621944000004,None,,,[0.3117165000003297],,,,,,,,,,,,,,,,,,,,,CBC_1138,001,4,3,4,19,0.95,2024-07-24_14h19.30.560,MSI_TV_v3,2022.1.1,60.119312788352005,
30,0,30,0,,,,,,,,,,0,0.0,1.0,z,63.0,1.0,2.592312596923728,1.43470440954152,None,601.3664522999998,None,602.7829581799997,602.7829581799997,602.7996824800002,None,[],None,,604.7895191999996,None,None,[],0,3,0.3548387096774194,None,607.3770151999997,None,607.3770151999997,None,,,,,,,,,,,,,,,,,,,,,,,,CBC_1138,001,4,3,4,19,0.95,2024-07-24_14h19.30.560,MSI_TV_v3,2022.1.1,60.119312788352005,
31,0,31,0,,,,,,,,,,1,1.0,3.0,z,27.0,1.0,4.01714354611405,3.40155979865722,None,609.1831539000004,None,612.5662060799996,612.5662060799996,612.5831751799997,None,[],['z'],[0.581656500000463],614.5703966000001,None,z,2.581656500000463,1,1,0.375,None,618.5838372999997,None,618.5838372999997,None,,,,,,,,,,,,,,,,,,,,,,,,CBC_1138,001,4,3,4,19,0.95,2024-07-24_14h19.30.560,MSI_TV_v3,2022.1.1,60.119312788352005,
32,0,32,0,,,,,,,,,,2,2.0,3.0,b,63.0,1.0,2.693348633324513,1.38289892513751,None,620.3833138,None,621.7501811800003,621.7501811800003,621.7668227799995,None,[],None,,623.7560950999996,None,None,[],0,3,0.36363636363636365,None,626.4437625999999,['z'],626.4437625999999,None,,,[1.0027485000000524],,,,,,,,,,,,,,,,,,,,,CBC_1138,001,4,3,4,19,0.95,2024-07-24_14h19.30.560,MSI_TV_v3,2022.1.1,60.119312788352005,
33,0,33,0,,,,,,,,,,0,0.0,1.0,z,63.0,1.0,4.52047235037039,1.25920145784721,None,628.2498808,None,629.48325088,629.48325088,629.49990738,z,['z'],None,,631.5276592999999,None,z,1.3335282999996707,1,1,0.38235294117647056,None,636.0629844000005,None,636.0629844000005,None,1.3335282999996707,[1.3335282999996707],,,,,,,,,,,,,,,,,,,,,,CBC_1138,001,4,3,4,19,0.95,2024-07-24_14h19.30.560,MSI_TV_v3,2022.1.1,60.119312788352005,
34,0,34,0,,,,,,,,,,3,1.0,0.0,z,63.0,1.0,2.792365600763554,2.78346932462847,None,637.8666718000004,None,640.63326228,640.63326228,640.6500615799996,None,[],None,,642.6362152000002,None,None,[],0,3,0.37142857142857144,None,645.4247880000003,None,645.4247880000003,None,,,,,,,,,,,,,,,,,,,,,,,,CBC_1138,001,4,3,4,19,0.95,2024-07-24_14h19.30.560,MSI_TV_v3,2022.1.1,60.119312788352005,
35,0,35,0,,,,,,,,,,2,2.0,1.0,b,9.0,1.0,4.46924002178158,3.33124983260532,None,647.2331725000004,None,650.5500724800004,650.5500724800004,650.5666393800002,z,['z'],None,,652.5964131999999,None,z,1.2378085000000283,0,0,0.3611111111111111,None,657.0783805000001,None,657.0783805000001,None,1.2378085000000283,[1.2378085000000283],,,,,,,,,,,,,,,,,,,,,,CBC_1138,001,4,3,4,19,0.95,2024-07-24_14h19.30.560,MSI_TV_v3,2022.1.1,60.119312788352005,
36,0,36,0,,,,,,,,,,3,0.0,1.0,b,63.0,1.0,2.526044641065533,1.36309078069689,None,658.8832592999997,None,660.2170619799999,660.2170619799999,660.2330980799998,None,[],['b'],[0.7372057000002314],662.2202398999998,None,b,2.7372057000002314,1,1,0.3783783783783784,None,664.7406868999997,None,664.7406868999997,None,,,,,,,,,,,,,,,,,,,,,,,,CBC_1138,001,4,3,4,19,0.95,2024-07-24_14h19.30.560,MSI_TV_v3,2022.1.1,60.119312788352005,
37,0,37,0,,,,,,,,,,1,1.0,3.0,z,27.0,1.0,3.68371079902891,0.974903167432984,None,666.5501383999999,None,667.5000425799999,667.5000425799999,667.5167533800004,None,[],['z'],[0.49020070000005944],669.5051746999998,None,z,2.4902007000000594,1,1,0.39473684210526316,None,673.1812375999998,None,673.1812375999998,None,,,,,,,,,,,,,,,,,,,,,,,,CBC_1138,001,4,3,4,19,0.95,2024-07-24_14h19.30.560,MSI_TV_v3,2022.1.1,60.119312788352005,
38,0,38,0,,,,,,,,,,0,1.0,0.0,b,63.0,1.0,4.61004669244928,2.22427187882546,None,674.9832931999999,None,677.1834367800002,677.1834367800002,677.2000542799997,None,[],['z'],[0.7134672000001956],679.1881675000004,None,z,2.7134672000001956,0,0,0.38461538461538464,None,683.7878615999998,None,683.7878615999998,None,,,,,,,,,,,,,,,,,,,,,,,,CBC_1138,001,4,3,4,19,0.95,2024-07-24_14h19.30.560,MSI_TV_v3,2022.1.1,60.119312788352005,
39,0,39,0,,,,,,,,,,2,3.0,2.0,z,63.0,0.0,4.40017271499661,1.90743690794447,None,685.6003093999998,None,687.4832291800003,687.4832291800003,687.49984898,None,[],['z'],[1.8615248000005522],689.4893510000002,None,z,3.861524800000552,1,0,0.4,None,693.8942422999999,None,693.8942422999999,None,,,,,,,,,,,,,,,,,,,,,,,,CBC_1138,001,4,3,4,19,0.95,2024-07-24_14h19.30.560,MSI_TV_v3,2022.1.1,60.119312788352005,
40,0,40,0,,,,,,,,,,3,0.0,2.0,b,27.0,1.0,2.294664843639333,1.53243550275999,None,695.6999487000003,None,697.2170169800002,697.2170169800002,697.2334366799996,None,[],['b'],[1.1140700000005381],699.2234700999998,None,b,3.114070000000538,1,1,0.4146341463414634,None,701.5185506999997,None,701.5185506999997,None,,,,,,,,,,,,,,,,,,,,,,,,CBC_1138,001,4,3,4,19,0.95,2024-07-24_14h19.30.560,MSI_TV_v3,2022.1.1,60.119312788352005,
41,0,41,0,,,,,,,,,,1,2.0,3.0,z,63.0,1.0,2.342239579230602,0.917519910446003,None,703.3333548,None,704.2335118800002,704.2335118800002,704.2500693800002,None,[],['z'],[1.267423900000722],706.2404124000004,None,z,3.267423900000722,1,1,0.42857142857142855,None,708.5755606000002,None,708.5755606000002,None,,,,,,,,,,,,,,,,,,,,,,,,CBC_1138,001,4,3,4,19,0.95,2024-07-24_14h19.30.560,MSI_TV_v3,2022.1.1,60.119312788352005,
42,0,42,0,,,,,,,,,,0,1.0,3.0,b,27.0,1.0,4.82531807167306,2.96653053743745,None,710.3838716,None,713.3334738800004,713.3334738800004,713.3500711799998,None,[],['z'],[0.9350856000000931],715.3409411000002,None,z,2.935085600000093,0,0,0.4186046511627907,None,720.1665488999997,None,720.1665488999997,None,,,,,,,,,,,,,,,,,,,,,,,,CBC_1138,001,4,3,4,19,0.95,2024-07-24_14h19.30.560,MSI_TV_v3,2022.1.1,60.119312788352005,
43,0,43,0,,,,,,,,,,2,3.0,2.0,z,63.0,1.0,3.76873691643126,1.95130344756745,None,721.9666955000002,None,723.9001879799998,723.9001879799998,723.9165694800004,None,[],None,,725.9029235999997,None,None,[],0,3,0.4090909090909091,None,729.6605826000005,None,729.6605826000005,None,,,,,,,,,,,,,,,,,,,,,,,,CBC_1138,001,4,3,4,19,0.95,2024-07-24_14h19.30.560,MSI_TV_v3,2022.1.1,60.119312788352005,
,,,,,,,,,,,,,,,,,,,,,,,,,,,,,,,,,,,,,,,,,,,,,,None,731.4668961999996,None,,,,,,,,,,,,,,,,,,CBC_1138,001,4,3,4,19,0.95,2024-07-24_14h19.30.560,MSI_TV_v3,2022.1.1,60.119312788352005,
,,,,,,,,,,,,,,,,,,,,,,,,,,,,,,,,,,,,,,,,,,,,,,,,,736.4502995000003,None,None,736.4502995000003,741.4332672999999,,,,,,,,,,,,,CBC_1138,001,4,3,4,19,0.95,2024-07-24_14h19.30.560,MSI_TV_v3,2022.1.1,60.119312788352005,
,,,,,,,,,,,,,,,,,,,,,,,,,,,,,,,,,,,,,,,,,,,,,,,,,,,,,,z,b,hard,"[0, 1, 2, 3]","[3, 0, 2, 1]",0.36363636363636365,0.45454545454545453,0.2727272727272727,0.5454545454545454,18,6,20,,,,,,,,,,,,
