trials_runs.thisRepN,trials_runs.thisTrialN,trials_runs.thisN,trials_runs.thisIndex,standbild_start.started,standbild_start.stopped,trigger.keys,trigger.rt,trigger.started,trigger.stopped,keys_2.keys,keys_2.started,keys_2.stopped,trials_runs.tactile_stim,trials_runs.visual_stim_left,trials_runs.visual_stim_right,trials_runs.correctKey,trials_runs.presentationFrequncy,trials_runs.FBaccuracy,trials_runs.ISI_s,trials_runs.ITI_s,keys_3.keys,keys_3.started,keys_3.stopped,image_stim_left.started,image_stim_right.started,tactile.started,response_4.keys,allKeys.keys,response_4.rt,allKeys.rt,response_5.keys,response_5.started,response_5.stopped,response_runs.keys,response_runs.rt,trials_runs.correct_answer,trials_runs.feedback_given,trials_runs.running_mean,feedback_6.stopped,feedback_6.started,keys_6.keys,keys_6.started,keys_6.stopped,response_5.rt,keys_6.rt,keys_3.rt,keys_7.keys,keys_7.started,keys_7.stopped,standbild_end.started,standbild_end.stopped,Stop_exp.keys,Stop_exp.started,Stop_exp.stopped,trials_runs.rightKey,trials_runs.leftKey,ts_difficulty,visualPair,tactilePair,trials_runs.mean_acc_1stFourth,trials_runs.mean_acc_2ndFourth,trials_runs.mean_acc_3rdFourth,trials_runs.mean_acc_4thFourth,participant,session,visual set [1-6],tactile set [1-3],trial structure [0-3 / 4-7],pairing [0-23],prob Feedback,date,expName,psychopyVersion,frameRate,
,,,,431.01613959999986,None,t,82.82918829999971,431.01613959999986,None,,,,,,,,,,,,,,,,,,,,,,,,,,,,,,,,,,,,,,,,,,,,,,,,,,,,,,,CBC_1001,2,1,1,4,0,0.9,2023-06-08_11h53.34.814,MSI_TV_v3,2022.1.1,60.07983408336667,
,,,,,,,,,,None,513.8726320000001,None,,,,,,,,,,,,,,,,,,,,,,,,,,,,,,,,,,,,,,,,,,,,,,,,,,,,CBC_1001,2,1,1,4,0,0.9,2023-06-08_11h53.34.814,MSI_TV_v3,2022.1.1,60.07983408336667,
0,0,0,0,,,,,,,,,,1,1.0,0.0,b,63.0,1.0,1.109698721,2.573610938,None,514.0728250999996,None,516.6229337900002,516.6229337900002,516.63942079,b,['b'],1.473025000000689,[1.473025000000689],None,518.6629124999995,None,b,1.473025000000689,1,1,1.0,None,519.7918881999999,None,519.7918881999999,None,,,,,,,,,,,,,,,,,,,,,CBC_1001,2,1,1,4,0,0.9,2023-06-08_11h53.34.814,MSI_TV_v3,2022.1.1,60.07983408336667,
1,0,1,0,,,,,,,,,,0,1.0,0.0,z,63.0,1.0,1.899747326,2.935368129,None,521.7730389000003,None,524.6895968899996,524.6895968899996,524.7062150899999,z,['z'],1.6189849999996113,[1.6189849999996113],None,526.7309487999996,None,z,1.6189849999996113,1,1,1.0,None,528.6346054,None,528.6346054,None,,,,,,,,,,,,,,,,,,,,,CBC_1001,2,1,1,4,0,0.9,2023-06-08_11h53.34.814,MSI_TV_v3,2022.1.1,60.07983408336667,
2,0,2,0,,,,,,,,,,3,3.0,2.0,b,63.0,1.0,2.0845750460000003,1.142638656,None,530.6387883000002,None,531.7561762900002,531.7561762900002,531.7729185899996,None,[],,,['z'],533.7571046999997,None,z,2.382887400000527,0,0,0.6666666666666666,None,535.8411387000001,None,535.8411387000001,None,[0.3828874000005271],,,,,,,,,,,,,,,,,,,,CBC_1001,2,1,1,4,0,0.9,2023-06-08_11h53.34.814,MSI_TV_v3,2022.1.1,60.07983408336667,
3,0,3,0,,,,,,,,,,1,1.0,2.0,b,9.0,1.0,1.543156518,2.407383959,None,537.8560057999998,None,540.2395120899998,540.2395120899998,540.2561265900001,None,[],,,None,542.2418163999996,None,None,[],0,3,0.5,None,543.7826576000002,['b'],543.7826576000002,None,,[1.1946294000003945],,,,,,,,,,,,,,,,,,,CBC_1001,2,1,1,4,0,0.9,2023-06-08_11h53.34.814,MSI_TV_v3,2022.1.1,60.07983408336667,
4,0,4,0,,,,,,,,,,0,2.0,0.0,z,27.0,1.0,1.887650177,0.971483559,['b'],545.7886028999997,None,546.7396875900001,546.7396875900001,546.7563094899995,None,[],,,['z'],548.7370760999997,None,z,2.5643693999995776,1,1,0.6,None,550.6329951000002,None,550.6329951000002,None,[0.5643693999995776],,[0.652454000000489],,,,,,,,,,,,,,,,,,CBC_1001,2,1,1,4,0,0.9,2023-06-08_11h53.34.814,MSI_TV_v3,2022.1.1,60.07983408336667,
5,0,5,0,,,,,,,,,,2,3.0,2.0,z,63.0,1.0,2.917714675,2.7801224,None,552.6397854000002,None,555.4063479899994,555.4063479899994,555.4227451899994,None,[],,,['b'],557.4280413000001,None,b,3.330903600000511,0,0,0.5,None,560.3423197999996,None,560.3423197999996,None,[1.3309036000005108],,,,,,,,,,,,,,,,,,,,CBC_1001,2,1,1,4,0,0.9,2023-06-08_11h53.34.814,MSI_TV_v3,2022.1.1,60.07983408336667,
6,0,6,0,,,,,,,,,,3,3.0,1.0,b,27.0,1.0,4.309752164,1.75396268,None,562.3563055999998,None,564.0884582899996,564.0884582899996,564.1051276899996,None,[],,,['z'],566.0824652999995,None,z,2.332539700000325,0,0,0.42857142857142855,None,570.3886520000001,None,570.3886520000001,None,[0.33253970000032496],,,,,,,,,,,,,,,,,,,,CBC_1001,2,1,1,4,0,0.9,2023-06-08_11h53.34.814,MSI_TV_v3,2022.1.1,60.07983408336667,
7,0,7,0,,,,,,,,,,0,0.0,1.0,b,63.0,1.0,2.742099981,1.293060736,None,572.3894494000001,None,573.6563972900001,573.6563972900001,573.6730602899995,None,[],,,['b'],575.6588035999998,None,b,2.341143600000123,1,1,0.5,None,578.3847929999997,None,578.3847929999997,None,[0.3411436000001231],,,,,,,,,,,,,,,,,,,,CBC_1001,2,1,1,4,0,0.9,2023-06-08_11h53.34.814,MSI_TV_v3,2022.1.1,60.07983408336667,
8,0,8,0,,,,,,,,,,2,0.0,2.0,z,27.0,1.0,1.610581685,2.962224669,None,580.3897179999999,None,583.3395913900001,583.3395913900001,583.3562772900002,None,[],,,['z'],585.3429890000002,None,z,3.4135411000002023,1,1,0.5555555555555556,None,586.9446234000002,None,586.9446234000002,None,[1.4135411000002023],,,,,,,,,,,,,,,,,,,,CBC_1001,2,1,1,4,0,0.9,2023-06-08_11h53.34.814,MSI_TV_v3,2022.1.1,60.07983408336667,
9,0,9,0,,,,,,,,,,3,3.0,2.0,b,63.0,1.0,3.478547126,1.910349838,None,588.9561579999995,None,590.8394364900003,590.8394364900003,590.8560534899996,None,[],,,['b'],592.8415244000003,None,b,3.3750176999997166,1,1,0.6,None,596.3140486999996,None,596.3140486999996,None,[1.3750176999997166],,,,,,,,,,,,,,,,,,,,CBC_1001,2,1,1,4,0,0.9,2023-06-08_11h53.34.814,MSI_TV_v3,2022.1.1,60.07983408336667,
10,0,10,0,,,,,,,,,,1,0.0,1.0,z,63.0,0.0,2.67601813,1.915207301,None,598.3230472,None,600.2229411899996,600.2229411899996,600.2396347900001,None,[],,,['b'],602.2220290999999,None,b,3.0608452000001307,0,1,0.5454545454545454,None,604.8947962999996,None,604.8947962999996,None,[1.0608452000001307],,,,,,,,,,,,,,,,,,,,CBC_1001,2,1,1,4,0,0.9,2023-06-08_11h53.34.814,MSI_TV_v3,2022.1.1,60.07983408336667,
11,0,11,0,,,,,,,,,,0,1.0,0.0,z,63.0,1.0,2.117809983,2.128027194,None,606.9061329000001,None,609.00677789,609.00677789,609.0227997899999,None,[],,,['b'],611.0074027999995,None,b,2.5656597000001966,0,0,0.5,None,613.1397898,None,613.1397898,None,[0.5656597000001966],,,,,,,,,,,,,,,,,,,,CBC_1001,2,1,1,4,0,0.9,2023-06-08_11h53.34.814,MSI_TV_v3,2022.1.1,60.07983408336667,
12,0,12,0,,,,,,,,,,3,3.0,2.0,b,63.0,1.0,2.088920167,1.883772966,None,615.1385569999998,None,617.0068569900002,617.0068569900002,617.0227858899996,None,[],,,['z'],619.0077780999995,None,z,2.9541354999996656,0,0,0.46153846153846156,None,621.1097910000003,None,621.1097910000003,None,[0.9541354999996656],,,,,,,,,,,,,,,,,,,,CBC_1001,2,1,1,4,0,0.9,2023-06-08_11h53.34.814,MSI_TV_v3,2022.1.1,60.07983408336667,
13,0,13,0,,,,,,,,,,2,0.0,2.0,z,27.0,1.0,3.884449499,2.108332021,None,623.1229668000001,None,625.2061137899998,625.2061137899998,625.22237939,None,[],,,['b'],627.2010053999998,None,b,2.621608200000537,0,0,0.42857142857142855,None,631.0911220000003,None,631.0911220000003,None,[0.6216082000005372],,,,,,,,,,,,,,,,,,,,CBC_1001,2,1,1,4,0,0.9,2023-06-08_11h53.34.814,MSI_TV_v3,2022.1.1,60.07983408336667,
14,0,14,0,,,,,,,,,,0,1.0,0.0,z,63.0,1.0,3.589438522,1.24796184,None,633.1056158999995,None,634.32317829,634.32317829,634.3399265899995,None,[],,,['b'],636.3269858999997,None,b,2.595570200000566,0,0,0.4,None,639.9006685999998,None,639.9006685999998,None,[0.5955702000005658],,,,,,,,,,,,,,,,,,,,CBC_1001,2,1,1,4,0,0.9,2023-06-08_11h53.34.814,MSI_TV_v3,2022.1.1,60.07983408336667,
15,0,15,0,,,,,,,,,,1,3.0,1.0,z,27.0,1.0,2.278602942,1.554037824,None,641.9063296999998,None,643.4391070899999,643.4391070899999,643.4554512900002,None,[],,,['z'],645.4349074999996,None,z,2.5299549000005754,1,1,0.4375,None,647.7171317999996,None,647.7171317999996,None,[0.5299549000005754],,,,,,,,,,,,,,,,,,,,CBC_1001,2,1,1,4,0,0.9,2023-06-08_11h53.34.814,MSI_TV_v3,2022.1.1,60.07983408336667,
16,0,16,0,,,,,,,,,,2,2.0,3.0,b,63.0,1.0,3.501824497,2.502774076,None,649.7233738999998,None,652.2067919899998,652.2067919899998,652.2229110899996,None,[],,,['b'],654.2090948,None,b,2.9325472000004993,1,1,0.47058823529411764,None,657.6968193999996,None,657.6968193999996,None,[0.9325472000004993],,,,,,,,,,,,,,,,,,,,CBC_1001,2,1,1,4,0,0.9,2023-06-08_11h53.34.814,MSI_TV_v3,2022.1.1,60.07983408336667,
17,0,17,0,,,,,,,,,,3,3.0,2.0,b,63.0,0.0,1.219965572,3.388090306,None,659.7068124000002,None,663.0730913899995,663.0730913899995,663.0896293900003,None,[],,,None,665.0747458000001,None,None,[],0,3,0.4444444444444444,None,666.2723300000002,['b'],666.2723300000002,None,,[0.9422767000000931],,,,,,,,,,,,,,,,,,,CBC_1001,2,1,1,4,0,0.9,2023-06-08_11h53.34.814,MSI_TV_v3,2022.1.1,60.07983408336667,
18,0,18,0,,,,,,,,,,1,0.0,1.0,z,63.0,1.0,2.949122761,2.684881281,['b'],668.2729820999998,None,670.9396190899995,670.9396190899995,670.95632679,None,[],,,['z'],672.9436674000003,None,z,2.3699069999997846,1,1,0.47368421052631576,None,675.8938430000003,None,675.8938430000003,None,[0.3699069999997846],,[0.741761900000256],,,,,,,,,,,,,,,,,,CBC_1001,2,1,1,4,0,0.9,2023-06-08_11h53.34.814,MSI_TV_v3,2022.1.1,60.07983408336667,
19,0,19,0,,,,,,,,,,0,0.0,2.0,b,27.0,1.0,1.556335756,2.495793893,None,677.9064001000002,None,680.37315079,680.37315079,680.3898897899996,None,[],,,['b'],682.3763893,None,b,2.469994200000201,1,1,0.5,None,683.9306104000002,None,683.9306104000002,None,[0.4699942000002011],,,,,,,,,,,,,,,,,,,,CBC_1001,2,1,1,4,0,0.9,2023-06-08_11h53.34.814,MSI_TV_v3,2022.1.1,60.07983408336667,
20,0,20,0,,,,,,,,,,3,3.0,0.0,b,9.0,1.0,2.518459073,0.789129603,None,685.9397109999995,None,686.70616829,686.70616829,686.7225579899994,None,[],,,['b'],688.7011048999998,None,b,3.0529568000006293,1,1,0.5238095238095238,None,691.228318,None,691.228318,None,[1.0529568000006293],,,,,,,,,,,,,,,,,,,,CBC_1001,2,1,1,4,0,0.9,2023-06-08_11h53.34.814,MSI_TV_v3,2022.1.1,60.07983408336667,
21,0,21,0,,,,,,,,,,2,3.0,2.0,z,63.0,1.0,3.622505815,2.071213329,None,693.2399081999997,None,695.28984139,695.28984139,695.3065115899997,None,[],,,['z'],697.2922555,None,z,2.240720600000259,1,1,0.5454545454545454,None,700.9050067000003,None,700.9050067000003,None,[0.24072060000025886],,,,,,,,,,,,,,,,,,,,CBC_1001,2,1,1,4,0,0.9,2023-06-08_11h53.34.814,MSI_TV_v3,2022.1.1,60.07983408336667,
22,0,22,0,,,,,,,,,,1,1.0,3.0,b,27.0,1.0,1.6718976049999998,1.448890429,None,702.9064242999998,None,704.3400209899999,704.3400209899999,704.3566170900001,None,[],,,['b'],706.3439244999995,None,b,2.4749729000000116,1,1,0.5652173913043478,None,708.0172086999996,None,708.0172086999996,None,[0.4749729000000116],,,,,,,,,,,,,,,,,,,,CBC_1001,2,1,1,4,0,0.9,2023-06-08_11h53.34.814,MSI_TV_v3,2022.1.1,60.07983408336667,
23,0,23,0,,,,,,,,,,2,2.0,3.0,b,63.0,1.0,3.869831913,0.977134615,None,710.0220771999998,None,710.9731925899994,710.9731925899994,710.9898216899999,None,[],,,['z'],712.9933012999995,None,z,2.5461503000001358,0,0,0.5416666666666666,None,716.8513004000001,None,716.8513004000001,None,[0.5461503000001358],,,,,,,,,,,,,,,,,,,,CBC_1001,2,1,1,4,0,0.9,2023-06-08_11h53.34.814,MSI_TV_v3,2022.1.1,60.07983408336667,
24,0,24,0,,,,,,,,,,3,3.0,2.0,b,63.0,1.0,1.874984683,3.274187802,None,718.8566472999996,None,722.1063880899999,722.1063880899999,722.1228995899999,None,[],,,['b'],724.1265744999996,None,b,2.971165700000256,1,1,0.56,None,725.994048,None,725.994048,None,[0.971165700000256],,,,,,,,,,,,,,,,,,,,CBC_1001,2,1,1,4,0,0.9,2023-06-08_11h53.34.814,MSI_TV_v3,2022.1.1,60.07983408336667,
25,0,25,0,,,,,,,,,,1,0.0,1.0,z,63.0,1.0,1.3262934849999999,2.232990834,None,728.0056253999996,None,730.2223917899998,730.2223917899998,730.2397667900002,None,[],,,['b'],732.2177263999997,None,b,2.716715000000022,0,0,0.5384615384615384,None,733.5389021999995,None,733.5389021999995,None,[0.716715000000022],,,,,,,,,,,,,,,,,,,,CBC_1001,2,1,1,4,0,0.9,2023-06-08_11h53.34.814,MSI_TV_v3,2022.1.1,60.07983408336667,
26,0,26,0,,,,,,,,,,0,3.0,0.0,z,9.0,1.0,2.232488062,2.297139377,None,735.5395162999998,None,737.8064805900001,737.8064805900001,737.8224793899997,b,['b'],1.9934355000000323,[1.9934355000000323],None,739.8403409999996,None,b,1.9934355000000323,0,0,0.5185185185185185,None,742.0650781999998,None,742.0650781999998,None,,,,,,,,,,,,,,,,,,,,,CBC_1001,2,1,1,4,0,0.9,2023-06-08_11h53.34.814,MSI_TV_v3,2022.1.1,60.07983408336667,
27,0,27,0,,,,,,,,,,3,3.0,2.0,b,63.0,1.0,4.334629553,2.648704933,None,744.0732657000003,None,746.7070852899994,746.7070852899994,746.7237447899995,None,[],,,['z'],748.7094543999997,None,z,2.7295793000007507,0,0,0.5,None,753.0462170999995,None,753.0462170999995,None,[0.7295793000007507],,,,,,,,,,,,,,,,,,,,CBC_1001,2,1,1,4,0,0.9,2023-06-08_11h53.34.814,MSI_TV_v3,2022.1.1,60.07983408336667,
28,0,28,0,,,,,,,,,,2,0.0,2.0,z,27.0,1.0,2.397501916,1.53162701,None,755.0681619000002,None,756.5736379899997,756.5736379899997,756.5903885899995,None,[],,,['b'],758.5723280999996,None,b,4.168217100000675,0,0,0.4827586206896552,None,760.9547822999998,None,760.9547822999998,None,[2.1682171000006747],,,,,,,,,,,,,,,,,,,,CBC_1001,2,1,1,4,0,0.9,2023-06-08_11h53.34.814,MSI_TV_v3,2022.1.1,60.07983408336667,
29,0,29,0,,,,,,,,,,0,0.0,1.0,b,63.0,0.0,4.196249082,1.08099246,None,762.9567614000002,None,764.0242087899994,764.0242087899994,764.0400558899998,None,[],,,['b'],766.0213098999998,None,b,3.2208958999995048,1,0,0.5,None,770.2236919000002,None,770.2236919000002,None,[1.2208958999995048],,,,,,,,,,,,,,,,,,,,CBC_1001,2,1,1,4,0,0.9,2023-06-08_11h53.34.814,MSI_TV_v3,2022.1.1,60.07983408336667,
30,0,30,0,,,,,,,,,,1,0.0,1.0,z,63.0,1.0,2.242058058,1.313600181,None,772.2239437000003,None,773.5236248899998,773.5236248899998,773.5402090899995,None,[],,,['z'],775.5265519999998,None,z,2.9288433999995505,1,1,0.5161290322580645,None,777.7598185000002,None,777.7598185000002,None,[0.9288433999995505],,,,,,,,,,,,,,,,,,,,CBC_1001,2,1,1,4,0,0.9,2023-06-08_11h53.34.814,MSI_TV_v3,2022.1.1,60.07983408336667,
31,0,31,0,,,,,,,,,,3,1.0,3.0,z,27.0,1.0,4.176609572,2.234398566,None,779.7740541999997,None,781.9900920899997,781.9900920899997,782.0069168899997,None,[],,,['b'],783.9884609999995,None,b,2.291670800000702,0,0,0.5,None,788.1655285000002,None,788.1655285000002,None,[0.291670800000702],,,,,,,,,,,,,,,,,,,,CBC_1001,2,1,1,4,0,0.9,2023-06-08_11h53.34.814,MSI_TV_v3,2022.1.1,60.07983408336667,
32,0,32,0,,,,,,,,,,2,2.0,3.0,b,63.0,1.0,4.21669271,1.411911144,None,790.1735369000003,None,791.55647509,791.55647509,791.5733304900002,None,[],,,['b'],793.5603604000003,None,b,3.4357827000008,1,1,0.5151515151515151,None,797.7685930000002,None,797.7685930000002,None,[1.4357827000008],,,,,,,,,,,,,,,,,,,,CBC_1001,2,1,1,4,0,0.9,2023-06-08_11h53.34.814,MSI_TV_v3,2022.1.1,60.07983408336667,
33,0,33,0,,,,,,,,,,1,0.0,1.0,z,63.0,1.0,2.818459073,1.732943574,None,799.7739859999997,None,801.4904333900001,801.4904333900001,801.5070940900002,None,[],,,['z'],803.4920216999994,None,z,2.298483199999737,1,1,0.5294117647058824,None,806.3188622000002,None,806.3188622000002,None,[0.2984831999997368],,,,,,,,,,,,,,,,,,,,CBC_1001,2,1,1,4,0,0.9,2023-06-08_11h53.34.814,MSI_TV_v3,2022.1.1,60.07983408336667,
34,0,34,0,,,,,,,,,,0,1.0,0.0,z,63.0,1.0,4.268032915,3.276660373,None,808.3238494000002,None,811.5738752899995,811.5738752899995,811.5905879899999,z,['z'],1.6661303000005319,[1.6661303000005319],None,813.6214520999997,None,z,1.6661303000005319,1,1,0.5428571428571428,None,817.8845645999995,None,817.8845645999995,None,,,,,,,,,,,,,,,,,,,,,CBC_1001,2,1,1,4,0,0.9,2023-06-08_11h53.34.814,MSI_TV_v3,2022.1.1,60.07983408336667,
35,0,35,0,,,,,,,,,,2,2.0,1.0,b,9.0,1.0,1.758742576,3.264468617,None,819.8896149999996,None,823.1237412899998,823.1237412899998,823.14038099,None,[],,,['b'],825.1214821999997,None,b,2.287564800000382,1,1,0.5555555555555556,None,826.8828675999998,None,826.8828675999998,None,[0.2875648000003821],,,,,,,,,,,,,,,,,,,,CBC_1001,2,1,1,4,0,0.9,2023-06-08_11h53.34.814,MSI_TV_v3,2022.1.1,60.07983408336667,
36,0,36,0,,,,,,,,,,0,0.0,1.0,b,63.0,1.0,3.278108735,1.086048241,None,828.8903534999995,None,829.9566958900002,829.9566958900002,829.9732994899994,None,[],,,['b'],831.9516134999999,None,b,2.0298672000003535,1,1,0.5675675675675675,None,835.2319905999998,None,835.2319905999998,None,[0.029867200000353478],,,,,,,,,,,,,,,,,,,,CBC_1001,2,1,1,4,0,0.9,2023-06-08_11h53.34.814,MSI_TV_v3,2022.1.1,60.07983408336667,
37,0,37,0,,,,,,,,,,3,1.0,3.0,z,27.0,1.0,2.078483356,1.84422311,None,837.2404019,None,839.0570750899994,839.0570750899994,839.0737660900002,b,['b'],1.9494661000003362,[1.9494661000003362],None,841.1003441999997,None,b,1.9494661000003362,0,0,0.5526315789473685,None,843.1733958,None,843.1733958,None,,,,,,,,,,,,,,,,,,,,,CBC_1001,2,1,1,4,0,0.9,2023-06-08_11h53.34.814,MSI_TV_v3,2022.1.1,60.07983408336667,
38,0,38,0,,,,,,,,,,1,1.0,0.0,b,63.0,1.0,2.208904638,3.321420384,None,845.1737490999999,None,848.4738879899994,848.4738879899994,848.4906366900002,None,[],,,['b'],850.4731907999999,None,b,3.0646646999998666,1,1,0.5641025641025641,None,852.6813442999996,None,852.6813442999996,None,[1.0646646999998666],,,,,,,,,,,,,,,,,,,,CBC_1001,2,1,1,4,0,0.9,2023-06-08_11h53.34.814,MSI_TV_v3,2022.1.1,60.07983408336667,
39,0,39,0,,,,,,,,,,2,3.0,2.0,z,63.0,0.0,1.90573091,2.757001452,None,854.6907920999997,None,857.4242037900001,857.4242037900001,857.4407758899995,z,['z'],1.9979905999994116,[1.9979905999994116],None,859.4733050999998,None,z,1.9979905999994116,1,0,0.575,None,861.3837788999995,None,861.3837788999995,None,,,,,,,,,,,,,,,,,,,,,CBC_1001,2,1,1,4,0,0.9,2023-06-08_11h53.34.814,MSI_TV_v3,2022.1.1,60.07983408336667,
40,0,40,0,,,,,,,,,,0,0.0,2.0,b,27.0,1.0,3.044827724,1.483424551,None,863.3900159,None,864.85713689,864.85713689,864.8737538900002,b,['b'],1.626212800000303,[1.626212800000303],None,866.8977051999996,None,b,1.626212800000303,1,1,0.5853658536585366,None,869.9517352999997,None,869.9517352999997,None,,,,,,,,,,,,,,,,,,,,,CBC_1001,2,1,1,4,0,0.9,2023-06-08_11h53.34.814,MSI_TV_v3,2022.1.1,60.07983408336667,
41,0,41,0,,,,,,,,,,3,2.0,3.0,z,63.0,1.0,2.372527466,1.378098418,None,871.9573463000002,None,873.3073595899994,873.3073595899994,873.3238415900003,None,[],,,['z'],875.3099974000002,None,z,2.740699499999664,1,1,0.5952380952380952,None,877.6792250000003,None,877.6792250000003,None,[0.7406994999996641],,,,,,,,,,,,,,,,,,,,CBC_1001,2,1,1,4,0,0.9,2023-06-08_11h53.34.814,MSI_TV_v3,2022.1.1,60.07983408336667,
42,0,42,0,,,,,,,,,,1,1.0,3.0,b,27.0,1.0,1.595506577,2.210349838,None,879.6911151999998,None,881.8740227899996,881.8740227899996,881.8905588899995,None,[],,,['b'],883.8895201999999,None,b,2.3659608000002663,1,1,0.6046511627906976,None,885.4845548999997,None,885.4845548999997,None,[0.3659608000002663],,,,,,,,,,,,,,,,,,,,CBC_1001,2,1,1,4,0,0.9,2023-06-08_11h53.34.814,MSI_TV_v3,2022.1.1,60.07983408336667,
43,0,43,0,,,,,,,,,,2,3.0,2.0,z,63.0,1.0,3.956662465,2.349749758,None,887.4908238000003,None,889.8244188899996,889.8244188899996,889.8406964900003,None,[],,,['z'],891.8219322999998,None,z,2.1833700000001954,1,1,0.6136363636363636,None,895.7928264999996,None,895.7928264999996,None,[0.18337000000019543],,,,,,,,,,,,,,,,,,,,CBC_1001,2,1,1,4,0,0.9,2023-06-08_11h53.34.814,MSI_TV_v3,2022.1.1,60.07983408336667,
,,,,,,,,,,,,,,,,,,,,,,,,,,,,,,,,,,,,,,,,,,,,,,,None,897.8076181000001,None,,,,,,,,,,,,,,,CBC_1001,2,1,1,4,0,0.9,2023-06-08_11h53.34.814,MSI_TV_v3,2022.1.1,60.07983408336667,
,,,,,,,,,,,,,,,,,,,,,,,,,,,,,,,,,,,,,,,,,,,,,,,,,,902.7913887,None,None,902.7913887,907.7744116999997,,,,,,,,,,CBC_1001,2,1,1,4,0,0.9,2023-06-08_11h53.34.814,MSI_TV_v3,2022.1.1,60.07983408336667,
,,,,,,,,,,,,,,,,,,,,,,,,,,,,,,,,,,,,,,,,,,,,,,,,,,,,,,,z,b,hard,"[0, 1, 2, 3]","[0, 1, 2, 3]",0.5454545454545454,0.5454545454545454,0.45454545454545453,0.9090909090909091,,,,,,,,,,,,
