trials_runs.thisRepN,trials_runs.thisTrialN,trials_runs.thisN,trials_runs.thisIndex,standbild_start.started,standbild_start.stopped,trigger.keys,trigger.rt,trigger.started,trigger.stopped,keys_2.keys,keys_2.started,keys_2.stopped,trials_runs.tactile_stim,trials_runs.visual_stim_left,trials_runs.visual_stim_right,trials_runs.correctKey,trials_runs.presentationFrequncy,trials_runs.FBaccuracy,trials_runs.ISI_s,trials_runs.ITI_s,keys_3.keys,keys_3.started,keys_3.stopped,image_stim_left.started,image_stim_right.started,tactile.started,response_4.keys,allKeys.keys,response_4.rt,allKeys.rt,response_5.keys,response_5.started,response_5.stopped,response_runs.keys,response_runs.rt,trials_runs.correct_answer,trials_runs.feedback_given,trials_runs.running_mean,feedback_6.stopped,feedback_6.started,keys_6.keys,keys_6.started,keys_6.stopped,response_5.rt,keys_6.rt,keys_7.keys,keys_7.started,keys_7.stopped,standbild_end.started,standbild_end.stopped,Stop_exp.keys,Stop_exp.started,Stop_exp.stopped,trials_runs.rightKey,trials_runs.leftKey,ts_difficulty,visualPair,tactilePair,trials_runs.mean_acc_1stFourth,trials_runs.mean_acc_2ndFourth,trials_runs.mean_acc_3rdFourth,trials_runs.mean_acc_4thFourth,nbCorrect,nbOmissions,nbIncorrect,participant,session,visual set [1-6],tactile set [1-3],trial structure [0-3 / 4-7],pairing [0-23],prob Feedback,date,expName,psychopyVersion,frameRate,
,,,,116.5237376999994,None,t,79.84874410000066,116.5237376999994,None,,,,,,,,,,,,,,,,,,,,,,,,,,,,,,,,,,,,,,,,,,,,,,,,,,,,,,,,,CBC_1036,001,2,3,3,13,0.95,2023-12-06_14h51.37.594,MSI_TV_v3,2022.1.1,60.2431413183772,
,,,,,,,,,,None,196.39094999999998,None,,,,,,,,,,,,,,,,,,,,,,,,,,,,,,,,,,,,,,,,,,,,,,,,,,,,,,CBC_1036,001,2,3,3,13,0.95,2023-12-06_14h51.37.594,MSI_TV_v3,2022.1.1,60.2431413183772,
0,0,0,0,,,,,,,,,,0,1.0,0.0,b,63.0,1.0,2.693348633324513,1.38289892513751,None,196.59066540000003,None,197.95764206999928,197.95764206999928,197.97425927000012,z,['z'],1.6205146000011155,[1.6205146000011155],None,200.0083641000001,None,z,1.6205146000011155,0,0,0.0,None,202.77226840000003,None,202.77226840000003,None,,,,,,,,,,,,,,,,,,,,,,,CBC_1036,001,2,3,3,13,0.95,2023-12-06_14h51.37.594,MSI_TV_v3,2022.1.1,60.2431413183772,
1,0,1,0,,,,,,,,,,2,0.0,1.0,b,63.0,1.0,4.11514536789087,1.25920145784721,None,204.5239690999997,None,205.75739496999967,205.75739496999967,205.77383296999932,None,[],,,['z'],207.7624740000001,None,z,3.263135500000317,0,0,0.0,None,211.8847820000001,None,211.8847820000001,None,[1.2631355000003168],,,,,,,,,,,,,,,,,,,,,,CBC_1036,001,2,3,3,13,0.95,2023-12-06_14h51.37.594,MSI_TV_v3,2022.1.1,60.2431413183772,
2,0,2,0,,,,,,,,,,3,1.0,2.0,z,9.0,1.0,4.72585056748869,1.52290599571961,None,213.68992230000003,None,215.1914008699993,215.1914008699993,215.20786286999981,None,[],,,['z'],217.19617519999974,None,z,3.1362504000007903,1,1,0.3333333333333333,None,221.92934249999962,None,221.92934249999962,None,[1.1362504000007903],,,,,,,,,,,,,,,,,,,,,,CBC_1036,001,2,3,3,13,0.95,2023-12-06_14h51.37.594,MSI_TV_v3,2022.1.1,60.2431413183772,
3,0,3,0,,,,,,,,,,2,1.0,0.0,z,63.0,1.0,4.46924002178158,1.95130344756745,None,223.72400219999963,None,225.65740126999998,225.65740126999998,225.67451456999942,None,[],,,"['b', 'z']",227.66302480000013,None,b,3.5126316000005318,0,0,0.25,None,232.1495234999993,None,232.1495234999993,None,"[1.5126316000005318, 1.5395821000001888]",,,,,,,,,,,,,,,,,,,,,,CBC_1036,001,2,3,3,13,0.95,2023-12-06_14h51.37.594,MSI_TV_v3,2022.1.1,60.2431413183772,
4,0,4,0,,,,,,,,,,1,3.0,1.0,b,27.0,1.0,2.666404967794728,3.1424449555106,None,233.95764849999978,None,237.07389996999945,237.07389996999945,237.09048266999952,None,[],,,None,239.07546860000002,None,None,[],0,3,0.2,None,241.76782009999988,"['z', 'z']",241.76782009999988,None,,"[0.5919777000008253, 1.2881145000010292]",,,,,,,,,,,,,,,,,,,,,CBC_1036,001,2,3,3,13,0.95,2023-12-06_14h51.37.594,MSI_TV_v3,2022.1.1,60.2431413183772,
5,0,5,0,,,,,,,,,,0,0.0,1.0,z,63.0,1.0,2.92731383428727,3.24569326556923,None,243.54084319999947,None,246.77414746999938,246.77414746999938,246.79074507000013,None,[],,,['z'],248.7774647999995,None,z,2.458157700000811,1,1,0.3333333333333333,None,251.7214758,None,251.7214758,None,[0.458157700000811],,,,,,,,,,,,,,,,,,,,,,CBC_1036,001,2,3,3,13,0.95,2023-12-06_14h51.37.594,MSI_TV_v3,2022.1.1,60.2431413183772,
6,0,6,0,,,,,,,,,,3,2.0,3.0,b,63.0,1.0,4.7533305109883095,3.40155979865722,None,253.52396769999996,None,256.9075414699998,256.9075414699998,256.92448756999937,None,[],,,['b'],258.9130488999999,None,b,2.1420697000012296,1,1,0.42857142857142855,None,263.6589660999998,None,263.6589660999998,None,[0.14206970000122965],,,,,,,,,,,,,,,,,,,,,,CBC_1036,001,2,3,3,13,0.95,2023-12-06_14h51.37.594,MSI_TV_v3,2022.1.1,60.2431413183772,
7,0,7,0,,,,,,,,,,2,2.0,0.0,z,27.0,1.0,4.53337421950507,1.12425433982333,None,265.45793289999983,None,266.5575249699993,266.5575249699993,266.57437877,None,[],,,['z'],268.56443339999987,None,z,2.791928600000574,1,1,0.5,None,273.0912697999993,None,273.0912697999993,None,[0.7919286000005741],,,,,,,,,,,,,,,,,,,,,,CBC_1036,001,2,3,3,13,0.95,2023-12-06_14h51.37.594,MSI_TV_v3,2022.1.1,60.2431413183772,
8,0,8,0,,,,,,,,,,1,3.0,2.0,b,63.0,1.0,2.6391747348430608,0.77703640172831,None,274.8906913999999,None,275.6408828699993,275.6408828699993,275.6573947699996,None,[],,,['b'],277.6369887999999,None,b,4.349735300001157,1,1,0.5555555555555556,None,280.2802504000001,None,280.2802504000001,None,[2.349735300001157],,,,,,,,,,,,,,,,,,,,,,CBC_1036,001,2,3,3,13,0.95,2023-12-06_14h51.37.594,MSI_TV_v3,2022.1.1,60.2431413183772,
9,0,9,0,,,,,,,,,,0,3.0,1.0,z,27.0,1.0,3.26539063535182,2.22427187882546,None,282.09110039999996,None,284.29123276999934,284.29123276999934,284.30796016999983,z,['z'],1.922305700000834,[1.922305700000834],None,286.33410319999984,None,z,1.922305700000834,1,1,0.6,None,289.60324559999935,None,289.60324559999935,None,,,,,,,,,,,,,,,,,,,,,,,CBC_1036,001,2,3,3,13,0.95,2023-12-06_14h51.37.594,MSI_TV_v3,2022.1.1,60.2431413183772,
10,0,10,0,,,,,,,,,,3,3.0,2.0,z,63.0,1.0,3.68371079902891,0.979776149765883,None,291.40801029999966,None,292.3747324699995,292.3747324699995,292.3911232699999,None,[],,,['b'],294.37929499999973,None,b,2.7686146000005465,0,0,0.5454545454545454,None,298.0806026,None,298.0806026,None,[0.7686146000005465],,,,,,,,,,,,,,,,,,,,,,CBC_1036,001,2,3,3,13,0.95,2023-12-06_14h51.37.594,MSI_TV_v3,2022.1.1,60.2431413183772,
11,0,11,0,,,,,,,,,,0,1.0,3.0,b,27.0,1.0,2.526044641065533,1.27538462653558,None,299.8909238999995,None,301.14101656999964,301.14101656999964,301.15774027000015,z,['z'],1.49464910000097,[1.49464910000097],None,303.16861900000004,None,z,1.49464910000097,0,0,0.5,None,305.69845929999974,None,305.69845929999974,None,,,,,,,,,,,,,,,,,,,,,,,CBC_1036,001,2,3,3,13,0.95,2023-12-06_14h51.37.594,MSI_TV_v3,2022.1.1,60.2431413183772,
12,0,12,0,,,,,,,,,,3,3.0,2.0,z,63.0,1.0,3.7500315165247198,1.18065738546375,None,307.5076343999999,None,308.67411107000015,308.67411107000015,308.68990706999983,None,[],,,['z'],310.6703480999995,None,z,3.2721972000008464,1,1,0.5384615384615384,None,314.4214959000001,None,314.4214959000001,None,[1.2721972000008464],,,,,,,,,,,,,,,,,,,,,,CBC_1036,001,2,3,3,13,0.95,2023-12-06_14h51.37.594,MSI_TV_v3,2022.1.1,60.2431413183772,
13,0,13,0,,,,,,,,,,1,3.0,2.0,b,63.0,1.0,2.678526077912375,2.09887870490381,None,316.2233575,None,318.2911685699998,318.2911685699998,318.30788656999965,None,[],,,['b'],320.29511849999926,None,b,3.1091050000004543,1,1,0.5714285714285714,None,323.02585159999944,None,323.02585159999944,None,[1.1091050000004543],,,,,,,,,,,,,,,,,,,,,,CBC_1036,001,2,3,3,13,0.95,2023-12-06_14h51.37.594,MSI_TV_v3,2022.1.1,60.2431413183772,
14,0,14,0,,,,,,,,,,2,0.0,3.0,b,9.0,1.0,3.76873691643126,3.33124983260532,None,324.8409873999999,None,328.1579231699995,328.1579231699995,328.17466846999986,None,[],,,['z'],330.16423359999953,None,z,2.8327439000004233,0,0,0.5333333333333333,None,333.91782950000015,None,333.91782950000015,None,[0.8327439000004233],,,,,,,,,,,,,,,,,,,,,,CBC_1036,001,2,3,3,13,0.95,2023-12-06_14h51.37.594,MSI_TV_v3,2022.1.1,60.2431413183772,
15,0,15,0,,,,,,,,,,0,0.0,1.0,z,63.0,0.0,2.2759877950103027,1.78643585472448,None,335.72439269999995,None,337.49161617,337.49161617,337.5079252699995,None,[],,,['b'],339.4968369999997,None,b,2.0604656000014074,0,1,0.5,None,341.7645758999997,None,341.7645758999997,None,[0.06046560000140744],,,,,,,,,,,,,,,,,,,,,,CBC_1036,001,2,3,3,13,0.95,2023-12-06_14h51.37.594,MSI_TV_v3,2022.1.1,60.2431413183772,
16,0,16,0,,,,,,,,,,1,2.0,3.0,z,63.0,1.0,2.342239579230602,1.64421109900286,None,343.574353,None,345.1913746699999,345.1913746699999,345.2079596699993,None,[],,,['b'],347.1974651999999,None,b,2.572195200000351,0,0,0.47058823529411764,None,349.5266578999999,None,349.5266578999999,None,[0.5721952000003512],,,,,,,,,,,,,,,,,,,,,,CBC_1036,001,2,3,3,13,0.95,2023-12-06_14h51.37.594,MSI_TV_v3,2022.1.1,60.2431413183772,
17,0,17,0,,,,,,,,,,3,0.0,2.0,z,27.0,1.0,3.2062024266105302,2.49839527409216,None,351.34138259999963,None,353.82434336999967,353.82434336999967,353.84104966999956,z,['z'],1.6499059000007037,[1.6499059000007037],None,355.8676812999993,None,z,1.6499059000007037,1,1,0.5,None,359.0687090000001,None,359.0687090000001,None,,,,,,,,,,,,,,,,,,,,,,,CBC_1036,001,2,3,3,13,0.95,2023-12-06_14h51.37.594,MSI_TV_v3,2022.1.1,60.2431413183772,
18,0,18,0,,,,,,,,,,2,0.0,1.0,b,63.0,1.0,3.02234236141277,1.43470440954152,None,360.8745818999996,None,362.29056096999983,362.29056096999983,362.3069928699994,None,[],,,['z'],364.28652539999985,None,z,2.2884793000011996,0,0,0.47368421052631576,None,367.31412049999926,None,367.31412049999926,None,[0.2884793000011996],,,,,,,,,,,,,,,,,,,,,,CBC_1036,001,2,3,3,13,0.95,2023-12-06_14h51.37.594,MSI_TV_v3,2022.1.1,60.2431413183772,
19,0,19,0,,,,,,,,,,0,1.0,0.0,b,63.0,1.0,3.73326136168326,3.1963008326951,None,369.1244772,None,372.30705197000015,372.30705197000015,372.3236772699999,b,['b'],1.789138400000411,[1.789138400000411],None,374.34114989999944,None,b,1.789138400000411,1,1,0.5,None,378.08625849999953,None,378.08625849999953,None,,,,,,,,,,,,,,,,,,,,,,,CBC_1036,001,2,3,3,13,0.95,2023-12-06_14h51.37.594,MSI_TV_v3,2022.1.1,60.2431413183772,
20,0,20,0,,,,,,,,,,1,1.0,3.0,z,27.0,1.0,3.71372710086949,0.80788063606262,None,379.8910215999995,None,380.67447057,380.67447057,380.69120226999956,None,[],,,['b'],382.67574239999976,None,b,2.4283943000000363,0,0,0.47619047619047616,None,386.3950189999996,None,386.3950189999996,None,[0.4283943000000363],,,,,,,,,,,,,,,,,,,,,,CBC_1036,001,2,3,3,13,0.95,2023-12-06_14h51.37.594,MSI_TV_v3,2022.1.1,60.2431413183772,
21,0,21,0,,,,,,,,,,3,3.0,2.0,z,63.0,1.0,2.496959177995529,0.761758675042088,None,388.2082475999996,None,388.94116387,388.94116387,388.95782236999975,z,['z'],1.9482367000009617,[1.9482367000009617],['b'],390.9851568999993,None,z,1.9482367000009617,1,1,0.5,None,393.4874012999999,None,393.4874012999999,None,[0.07102200000099401],,,,,,,,,,,,,,,,,,,,,,CBC_1036,001,2,3,3,13,0.95,2023-12-06_14h51.37.594,MSI_TV_v3,2022.1.1,60.2431413183772,
22,0,22,0,,,,,,,,,,2,0.0,1.0,b,63.0,1.0,2.592312596923728,1.36309078069689,None,395.2914142999998,None,396.64150726999986,396.64150726999986,396.65823936999976,b,['b'],1.7494218000010733,[1.7494218000010733],None,398.6855556999999,None,b,1.7494218000010733,1,1,0.5217391304347826,None,401.2872469999993,None,401.2872469999993,None,,,,,,,,,,,,,,,,,,,,,,,CBC_1036,001,2,3,3,13,0.95,2023-12-06_14h51.37.594,MSI_TV_v3,2022.1.1,60.2431413183772,
23,0,23,0,,,,,,,,,,1,2.0,3.0,z,63.0,1.0,4.01714354611405,3.4543169006169,None,403.09028450000005,None,406.5249467699993,406.5249467699993,406.5415051699999,z,['z'],1.1739336000000549,[1.1739336000000549],None,408.54556669999965,None,z,1.1739336000000549,1,1,0.5416666666666666,None,412.5699459999996,None,412.5699459999996,None,,,,,,,,,,,,,,,,,,,,,,,CBC_1036,001,2,3,3,13,0.95,2023-12-06_14h51.37.594,MSI_TV_v3,2022.1.1,60.2431413183772,
24,0,24,0,,,,,,,,,,3,2.0,0.0,b,27.0,1.0,3.31929419319838,0.917519910446003,None,414.37479540000004,None,415.2745783699999,415.2745783699999,415.2915550699997,b,['b'],1.0898117000006096,[1.0898117000006096],None,417.3186593999999,None,b,1.0898117000006096,1,1,0.56,None,420.63744640000004,None,420.63744640000004,None,,,,,,,,,,,,,,,,,,,,,,,CBC_1036,001,2,3,3,13,0.95,2023-12-06_14h51.37.594,MSI_TV_v3,2022.1.1,60.2431413183772,
25,0,25,0,,,,,,,,,,2,0.0,1.0,b,63.0,1.0,4.82531807167306,0.974903167432984,None,422.44150529999933,None,423.3914975699997,423.3914975699997,423.4080078699996,None,[],,,['b'],425.3947436999997,None,b,2.4891478000008647,1,1,0.5769230769230769,None,430.23364589999983,None,430.23364589999983,None,[0.48914780000086466],,,,,,,,,,,,,,,,,,,,,,CBC_1036,001,2,3,3,13,0.95,2023-12-06_14h51.37.594,MSI_TV_v3,2022.1.1,60.2431413183772,
26,0,26,0,,,,,,,,,,0,1.0,3.0,b,27.0,1.0,4.61004669244928,1.96568735158996,None,432.04136579999977,None,433.9910954699996,433.9910954699996,434.0069219699996,None,[],,,['z'],435.98625939999965,None,z,3.7043449000011606,0,0,0.5555555555555556,None,440.59945809999954,None,440.59945809999954,None,[1.7043449000011606],,,,,,,,,,,,,,,,,,,,,,CBC_1036,001,2,3,3,13,0.95,2023-12-06_14h51.37.594,MSI_TV_v3,2022.1.1,60.2431413183772,
27,0,27,0,,,,,,,,,,3,3.0,2.0,z,63.0,1.0,2.517541937862754,1.94858485820231,None,442.40799889999926,None,444.3404186699997,444.3404186699997,444.35708176999987,z,['z'],1.5579631000009613,[1.5579631000009613],None,446.37623170000006,None,z,1.5579631000009613,1,1,0.5714285714285714,None,448.90454469999986,None,448.90454469999986,None,,,,,,,,,,,,,,,,,,,,,,,CBC_1036,001,2,3,3,13,0.95,2023-12-06_14h51.37.594,MSI_TV_v3,2022.1.1,60.2431413183772,
28,0,28,0,,,,,,,,,,1,3.0,2.0,b,63.0,1.0,2.294664843639333,2.40378712856304,None,450.7082357999998,None,453.09147896999974,453.09147896999974,453.10792026999997,None,[],,,None,455.09676880000006,None,None,[],0,3,0.5517241379310345,None,457.3837236999998,"['z', 'z', 'z', 'z']",457.3837236999998,None,,"[0.16015430000061315, 0.6261464000008345, 0.8889234000007491, 1.1843460000009145]",,,,,,,,,,,,,,,,,,,,,CBC_1036,001,2,3,3,13,0.95,2023-12-06_14h51.37.594,MSI_TV_v3,2022.1.1,60.2431413183772,
29,0,29,0,,,,,,,,,,0,0.0,1.0,z,63.0,1.0,2.629554641171433,1.25817747924478,None,459.19146459999956,None,460.4250206699996,460.4250206699996,460.44175496999986,None,[],,,['b'],462.42945019999934,None,b,2.5558994000011808,0,0,0.5333333333333333,None,465.0622909999993,None,465.0622909999993,None,[0.5558994000011808],,,,,,,,,,,,,,,,,,,,,,CBC_1036,001,2,3,3,13,0.95,2023-12-06_14h51.37.594,MSI_TV_v3,2022.1.1,60.2431413183772,
30,0,30,0,,,,,,,,,,2,2.0,0.0,z,27.0,1.0,3.35133458220192,1.53122835510861,None,466.87484349999977,None,468.39139506999953,468.39139506999953,468.40815596999954,None,[],,,['z'],470.3953191999999,None,z,2.450901400001385,1,1,0.5483870967741935,None,473.74828249999973,None,473.74828249999973,None,[0.4509014000013849],,,,,,,,,,,,,,,,,,,,,,CBC_1036,001,2,3,3,13,0.95,2023-12-06_14h51.37.594,MSI_TV_v3,2022.1.1,60.2431413183772,
31,0,31,0,,,,,,,,,,1,3.0,0.0,b,9.0,1.0,4.52047235037039,2.10421507306074,None,475.55836289999934,None,477.6406736699998,477.6406736699998,477.6570936699997,None,[],,,['z'],479.63784469999973,None,z,3.592161100001249,0,0,0.53125,None,484.15119909999976,None,484.15119909999976,None,[1.592161100001249],,,,,,,,,,,,,,,,,,,,,,CBC_1036,001,2,3,3,13,0.95,2023-12-06_14h51.37.594,MSI_TV_v3,2022.1.1,60.2431413183772,
32,0,32,0,,,,,,,,,,3,3.0,2.0,z,63.0,1.0,4.12485271162806,2.15533949826702,None,485.9580898999993,None,488.09142476999995,488.09142476999995,488.10806376999943,z,['z'],1.137573800001519,[1.137573800001519],None,490.1047185999996,None,z,1.137573800001519,1,1,0.5454545454545454,None,494.2372458,None,494.2372458,None,,,,,,,,,,,,,,,,,,,,,,,CBC_1036,001,2,3,3,13,0.95,2023-12-06_14h51.37.594,MSI_TV_v3,2022.1.1,60.2431413183772,
33,0,33,0,,,,,,,,,,0,0.0,1.0,z,63.0,1.0,2.792365600763554,1.34668860557497,None,496.0414928,None,497.3748183699997,497.3748183699997,497.39224596999946,None,[],,,['z'],499.38087429999996,None,z,3.258505700000569,1,1,0.5588235294117647,None,502.18109559999994,None,502.18109559999994,None,[1.258505700000569],,,,,,,,,,,,,,,,,,,,,,CBC_1036,001,2,3,3,13,0.95,2023-12-06_14h51.37.594,MSI_TV_v3,2022.1.1,60.2431413183772,
34,0,34,0,,,,,,,,,,2,0.0,1.0,b,63.0,0.0,4.77723667052879,2.78346932462847,None,503.9918351999995,None,506.75846667000013,506.75846667000013,506.77529376999945,None,[],,,['b'],508.7662273999995,None,b,2.735536000001048,1,0,0.5714285714285714,None,513.5456141999994,None,513.5456141999994,None,[0.7355360000010478],,,,,,,,,,,,,,,,,,,,,,CBC_1036,001,2,3,3,13,0.95,2023-12-06_14h51.37.594,MSI_TV_v3,2022.1.1,60.2431413183772,
35,0,35,0,,,,,,,,,,1,2.0,3.0,z,63.0,1.0,4.190022164497369,1.60731937853708,None,515.3583485999998,None,516.9420727699996,516.9420727699996,516.9586486699998,None,[],,,['z'],518.9466281999994,None,z,2.5589452000003803,1,1,0.5833333333333334,None,523.1396899000001,None,523.1396899000001,None,[0.5589452000003803],,,,,,,,,,,,,,,,,,,,,,CBC_1036,001,2,3,3,13,0.95,2023-12-06_14h51.37.594,MSI_TV_v3,2022.1.1,60.2431413183772,
36,0,36,0,,,,,,,,,,0,1.0,2.0,b,9.0,1.0,4.77034425507967,1.1243895841892,None,524.9419849999995,None,526.0410421699996,526.0410421699996,526.0576775699999,None,[],,,['b'],528.0373753999993,None,b,3.951947100000325,1,1,0.5945945945945946,None,532.8057583,None,532.8057583,None,[1.951947100000325],,,,,,,,,,,,,,,,,,,,,,CBC_1036,001,2,3,3,13,0.95,2023-12-06_14h51.37.594,MSI_TV_v3,2022.1.1,60.2431413183772,
37,0,37,0,,,,,,,,,,2,2.0,0.0,z,27.0,1.0,2.7134565917469198,1.90743690794447,None,534.6085552999994,None,536.4910671699997,536.4910671699997,536.5074049699995,z,['z'],1.8150630000009187,[1.8150630000009187],None,538.5249559999993,None,z,1.8150630000009187,1,1,0.6052631578947368,None,541.2406548999998,None,541.2406548999998,None,,,,,,,,,,,,,,,,,,,,,,,CBC_1036,001,2,3,3,13,0.95,2023-12-06_14h51.37.594,MSI_TV_v3,2022.1.1,60.2431413183772,
38,0,38,0,,,,,,,,,,3,2.0,3.0,b,63.0,1.0,2.82320408183943,0.952147612306987,None,543.0419289000001,None,543.97433987,543.97433987,543.9915360699995,b,['b'],1.5918770000007498,[1.5918770000007498],None,546.0099163999994,None,b,1.5918770000007498,1,1,0.6153846153846154,None,548.8378555999998,None,548.8378555999998,None,,,,,,,,,,,,,,,,,,,,,,,CBC_1036,001,2,3,3,13,0.95,2023-12-06_14h51.37.594,MSI_TV_v3,2022.1.1,60.2431413183772,
39,0,39,0,,,,,,,,,,1,1.0,3.0,z,27.0,1.0,4.40017271499661,3.06992456303453,None,550.6418383,None,553.6917657699994,553.6917657699994,553.7082815699994,z,['z'],-0.017240499999388703,[-0.017240499999388703],['b'],555.7333785000001,None,z,-0.017240499999388703,1,1,0.625,None,560.1305236999997,None,560.1305236999997,None,[0.22824990000026446],,,,,,,,,,,,,,,,,,,,,,CBC_1036,001,2,3,3,13,0.95,2023-12-06_14h51.37.594,MSI_TV_v3,2022.1.1,60.2431413183772,
40,0,40,0,,,,,,,,,,2,0.0,1.0,b,63.0,1.0,3.3728785608729996,1.21250262048173,None,561.9410483000001,None,563.1254301699998,563.1254301699998,563.1421292699995,None,[],,,['z'],565.1304335999994,None,z,3.0273507000010795,0,0,0.6097560975609756,None,568.5166780999998,None,568.5166780999998,None,[1.0273507000010795],,,,,,,,,,,,,,,,,,,,,,CBC_1036,001,2,3,3,13,0.95,2023-12-06_14h51.37.594,MSI_TV_v3,2022.1.1,60.2431413183772,
41,0,41,0,,,,,,,,,,3,0.0,2.0,z,27.0,1.0,2.433630701072358,1.53243550275999,None,570.3250511999995,None,571.8418969699994,571.8418969699994,571.8585967699998,z,['z'],1.0340742000007594,[1.0340742000007594],None,573.8864969999995,None,z,1.0340742000007594,1,1,0.6190476190476191,None,576.3225235,None,576.3225235,None,,,,,,,,,,,,,,,,,,,,,,,CBC_1036,001,2,3,3,13,0.95,2023-12-06_14h51.37.594,MSI_TV_v3,2022.1.1,60.2431413183772,
42,0,42,0,,,,,,,,,,1,3.0,2.0,b,63.0,1.0,3.6438386551209,2.6299100644723,None,578.1255174999997,None,580.7419862699996,580.7419862699996,580.7590409699994,b,['b'],1.9390837000009924,[1.9390837000009924],None,582.7891405,None,b,1.9390837000009924,1,1,0.627906976744186,None,586.4375891999998,None,586.4375891999998,None,,,,,,,,,,,,,,,,,,,,,,,CBC_1036,001,2,3,3,13,0.95,2023-12-06_14h51.37.594,MSI_TV_v3,2022.1.1,60.2431413183772,
43,0,43,0,,,,,,,,,,0,1.0,0.0,b,63.0,1.0,2.91303524001082,2.96653053743745,None,588.2422025999995,None,591.1923517699995,591.1923517699995,591.2089847699997,b,['b'],1.89912220000042,[1.89912220000042],None,593.2364161999994,None,b,1.89912220000042,1,1,0.6363636363636364,None,596.1540882999998,None,596.1540882999998,None,,,,,,,,,,,,,,,,,,,,,,,CBC_1036,001,2,3,3,13,0.95,2023-12-06_14h51.37.594,MSI_TV_v3,2022.1.1,60.2431413183772,
,,,,,,,,,,,,,,,,,,,,,,,,,,,,,,,,,,,,,,,,,,,,,,None,597.9574955999997,None,,,,,,,,,,,,,,,,,,CBC_1036,001,2,3,3,13,0.95,2023-12-06_14h51.37.594,MSI_TV_v3,2022.1.1,60.2431413183772,
,,,,,,,,,,,,,,,,,,,,,,,,,,,,,,,,,,,,,,,,,,,,,,,,,602.9411520999993,None,None,602.9411520999993,607.9244025999997,,,,,,,,,,,,,CBC_1036,001,2,3,3,13,0.95,2023-12-06_14h51.37.594,MSI_TV_v3,2022.1.1,60.2431413183772,
,,,,,,,,,,,,,,,,,,,,,,,,,,,,,,,,,,,,,,,,,,,,,,,,,,,,,,z,b,hard,"[0, 1, 2, 3]","[2, 0, 3, 1]",0.5454545454545454,0.45454545454545453,0.6363636363636364,0.9090909090909091,28,2,14,,,,,,,,,,,,
