trials_runs.thisRepN,trials_runs.thisTrialN,trials_runs.thisN,trials_runs.thisIndex,standbild_start.started,standbild_start.stopped,trigger.keys,trigger.rt,trigger.started,trigger.stopped,keys_2.keys,keys_2.started,keys_2.stopped,trials_runs.tactile_stim,trials_runs.visual_stim_left,trials_runs.visual_stim_right,trials_runs.correctKey,trials_runs.presentationFrequncy,trials_runs.FBaccuracy,trials_runs.ISI_s,trials_runs.ITI_s,keys_3.keys,keys_3.started,keys_3.stopped,image_stim_left.started,image_stim_right.started,tactile.started,response_4.keys,allKeys.keys,response_4.rt,allKeys.rt,response_5.keys,response_5.started,response_5.stopped,response_runs.keys,response_runs.rt,trials_runs.correct_answer,trials_runs.feedback_given,trials_runs.running_mean,feedback_6.stopped,feedback_6.started,keys_6.keys,keys_6.started,keys_6.stopped,response_5.rt,keys_7.keys,keys_7.started,keys_7.stopped,standbild_end.started,standbild_end.stopped,Stop_exp.keys,Stop_exp.started,Stop_exp.stopped,trials_runs.rightKey,trials_runs.leftKey,ts_difficulty,visualPair,tactilePair,trials_runs.mean_acc_1stFourth,trials_runs.mean_acc_2ndFourth,trials_runs.mean_acc_3rdFourth,trials_runs.mean_acc_4thFourth,participant,session,visual set [1-6],tactile set [1-3],trial structure [0-3 / 4-7],pairing [0-23],prob Feedback,date,expName,psychopyVersion,frameRate,
,,,,33.14220939999723,None,t,57.143839299998945,33.14220939999723,None,,,,,,,,,,,,,,,,,,,,,,,,,,,,,,,,,,,,,,,,,,,,,,,,,,,,,CBC_1016,4,3,2,1,15,0.95,2023-06-25_16h33.10.466,MSI_TV_v3,2022.1.1,59.97156148673703,
,,,,,,,,,,None,90.30836819999968,None,,,,,,,,,,,,,,,,,,,,,,,,,,,,,,,,,,,,,,,,,,,,,,,,,,CBC_1016,4,3,2,1,15,0.95,2023-06-25_16h33.10.466,MSI_TV_v3,2022.1.1,59.97156148673703,
0,0,0,0,,,,,,,,,,1,1,3,b,27,1,3.26539063535182,1.94858485820231,None,90.509369899999,None,92.4425772199971,92.4425772199971,92.45932021999724,z,['z'],1.321725300000253,[1.321725300000253],None,94.4837140999989,None,z,1.321725300000253,0,0,0.0,None,97.75207579999915,None,97.75207579999915,None,,,,,,,,,,,,,,,,,,,CBC_1016,4,3,2,1,15,0.95,2023-06-25_16h33.10.466,MSI_TV_v3,2022.1.1,59.97156148673703,
1,0,1,0,,,,,,,,,,3,3,2,z,63,1,3.02234236141277,1.64421109900286,None,99.55934409999827,None,101.17582591999926,101.17582591999926,101.19248621999904,z,['z'],1.6822890999974334,[1.6822890999974334],None,103.19353819999742,None,z,1.6822890999974334,1,1,0.5,None,106.22884599999816,None,106.22884599999816,None,,,,,,,,,,,,,,,,,,,CBC_1016,4,3,2,1,15,0.95,2023-06-25_16h33.10.466,MSI_TV_v3,2022.1.1,59.97156148673703,
2,0,2,0,,,,,,,,,,0,3,2,b,63,1,3.68371079902891,1.90743690794447,None,108.02472990000024,None,109.90956461999994,109.90956461999994,109.92556321999982,b,['b'],1.0271576999984973,[1.0271576999984973],None,111.94853750000038,None,b,1.0271576999984973,1,1,0.6666666666666666,None,115.62538679999852,None,115.62538679999852,None,,,,,,,,,,,,,,,,,,,CBC_1016,4,3,2,1,15,0.95,2023-06-25_16h33.10.466,MSI_TV_v3,2022.1.1,59.97156148673703,
3,0,3,0,,,,,,,,,,1,0,1,z,63,1,4.82531807167306,1.38289892513751,None,117.4257723999981,None,118.79273031999728,118.79273031999728,118.8095871199981,None,[],,,['z'],120.79344619999756,None,z,2.2573436000020592,1,1,0.75,None,125.62547049999921,None,125.62547049999921,None,[0.25734360000205925],,,,,,,,,,,,,,,,,,CBC_1016,4,3,2,1,15,0.95,2023-06-25_16h33.10.466,MSI_TV_v3,2022.1.1,59.97156148673703,
4,0,4,0,,,,,,,,,,2,0,3,b,9,1,2.666404967794728,2.6299100644723,None,127.42570379999961,None,130.0426879199982,130.0426879199982,130.05905881999897,None,[],,,['z'],132.04488599999968,None,z,2.433464500001719,0,0,0.6,None,134.71988209999836,None,134.71988209999836,None,[0.433464500001719],,,,,,,,,,,,,,,,,,CBC_1016,4,3,2,1,15,0.95,2023-06-25_16h33.10.466,MSI_TV_v3,2022.1.1,59.97156148673703,
5,0,5,0,,,,,,,,,,0,3,2,b,63,1,3.3728785608729996,3.40155979865722,None,136.52588409999953,None,139.9094053199984,139.9094053199984,139.9261735199976,b,['b'],1.6080391999967105,[1.6080391999967105],None,141.9497319999973,None,b,1.6080391999967105,1,1,0.6666666666666666,None,145.32070689999819,None,145.32070689999819,None,,,,,,,,,,,,,,,,,,,CBC_1016,4,3,2,1,15,0.95,2023-06-25_16h33.10.466,MSI_TV_v3,2022.1.1,59.97156148673703,
6,0,6,0,,,,,,,,,,3,0,2,z,27,1,3.7500315165247198,1.53243550275999,None,147.1256942,None,148.64266241999903,148.64266241999903,148.65933601999822,z,['z'],1.9523208999999042,[1.9523208999999042],None,150.6837231999998,None,z,1.9523208999999042,1,1,0.7142857142857143,None,154.42486799999824,None,154.42486799999824,None,,,,,,,,,,,,,,,,,,,CBC_1016,4,3,2,1,15,0.95,2023-06-25_16h33.10.466,MSI_TV_v3,2022.1.1,59.97156148673703,
7,0,7,0,,,,,,,,,,2,0,1,b,63,1,4.40017271499661,2.40378712856304,None,156.22570359999736,None,158.6093314200003,158.6093314200003,158.62594351999687,None,[],,,['b'],160.613027899999,None,b,2.154197899999417,1,1,0.75,None,165.02582529999927,None,165.02582529999927,None,[0.15419789999941713],,,,,,,,,,,,,,,,,,CBC_1016,4,3,2,1,15,0.95,2023-06-25_16h33.10.466,MSI_TV_v3,2022.1.1,59.97156148673703,
8,0,8,0,,,,,,,,,,1,1,0,b,63,1,2.526044641065533,2.15533949826702,None,166.82512789999964,None,168.9590257199994,168.9590257199994,168.97536652000016,None,[],,,['b'],170.959036799999,None,b,3.3509725000003527,1,1,0.7777777777777778,None,173.49179430000004,None,173.49179430000004,None,[1.3509725000003527],,,,,,,,,,,,,,,,,,CBC_1016,4,3,2,1,15,0.95,2023-06-25_16h33.10.466,MSI_TV_v3,2022.1.1,59.97156148673703,
9,0,9,0,,,,,,,,,,0,1,3,z,27,1,4.77723667052879,1.1243895841892,None,175.292402199997,None,176.39249841999808,176.39249841999808,176.40906861999937,None,[],,,"['b', 'z']",178.3959978999992,None,b,3.195698800001992,0,0,0.7,None,183.1759566999972,None,183.1759566999972,None,"[1.195698800001992, 1.6186292999991565]",,,,,,,,,,,,,,,,,,CBC_1016,4,3,2,1,15,0.95,2023-06-25_16h33.10.466,MSI_TV_v3,2022.1.1,59.97156148673703,
10,0,10,0,,,,,,,,,,3,3,2,z,63,1,2.792365600763554,0.761758675042088,None,184.9917170999979,None,185.72612821999755,185.72612821999755,185.74277281999784,None,[],,,['z'],187.72941699999865,None,z,2.1560882999983733,1,1,0.7272727272727273,None,190.53241290000005,None,190.53241290000005,None,[0.15608829999837326],,,,,,,,,,,,,,,,,,CBC_1016,4,3,2,1,15,0.95,2023-06-25_16h33.10.466,MSI_TV_v3,2022.1.1,59.97156148673703,
11,0,11,0,,,,,,,,,,1,1,0,b,63,1,3.73326136168326,3.4543169006169,None,192.34189539999716,None,195.77608131999986,195.77608131999986,195.79259921999946,None,[],,,['z'],197.77460259999862,None,z,2.399569799999881,0,0,0.6666666666666666,None,201.507436099997,None,201.507436099997,None,[0.39956979999988107],,,,,,,,,,,,,,,,,,CBC_1016,4,3,2,1,15,0.95,2023-06-25_16h33.10.466,MSI_TV_v3,2022.1.1,59.97156148673703,
12,0,12,0,,,,,,,,,,2,0,1,b,63,1,2.7134565917469198,0.80788063606262,None,203.30913389999841,None,204.09257251999915,204.09257251999915,204.1091266199979,None,[],,,['z'],206.11511189999874,None,z,2.8162866000020585,0,0,0.6153846153846154,None,208.81415139999808,None,208.81415139999808,None,[0.8162866000020585],,,,,,,,,,,,,,,,,,CBC_1016,4,3,2,1,15,0.95,2023-06-25_16h33.10.466,MSI_TV_v3,2022.1.1,59.97156148673703,
13,0,13,0,,,,,,,,,,3,1,2,z,9,1,4.61004669244928,3.33124983260532,None,210.62549109999964,None,213.92639271999687,213.92639271999687,213.94265471999788,None,[],,,['z'],215.93002999999953,None,z,2.088586000001669,1,1,0.6428571428571429,None,220.54464599999847,None,220.54464599999847,None,[0.08858600000166916],,,,,,,,,,,,,,,,,,CBC_1016,4,3,2,1,15,0.95,2023-06-25_16h33.10.466,MSI_TV_v3,2022.1.1,59.97156148673703,
14,0,14,0,,,,,,,,,,2,1,0,z,63,1,4.11514536789087,3.1963008326951,None,222.35926199999813,None,225.52595851999976,225.52595851999976,225.54293831999857,None,[],,,['z'],227.53150379999715,None,z,2.8656482999977015,1,1,0.6666666666666666,None,231.659473599997,None,231.659473599997,None,[0.8656482999977015],,,,,,,,,,,,,,,,,,CBC_1016,4,3,2,1,15,0.95,2023-06-25_16h33.10.466,MSI_TV_v3,2022.1.1,59.97156148673703,
15,0,15,0,,,,,,,,,,0,3,1,b,27,1,4.77034425507967,2.96653053743745,None,233.47542429999885,None,236.42588781999766,236.42588781999766,236.44237181999742,None,[],,,['b'],238.44334849999723,None,b,2.352690600000642,1,1,0.6875,None,243.22325350000028,None,243.22325350000028,None,[0.352690600000642],,,,,,,,,,,,,,,,,,CBC_1016,4,3,2,1,15,0.95,2023-06-25_16h33.10.466,MSI_TV_v3,2022.1.1,59.97156148673703,
16,0,16,0,,,,,,,,,,1,0,1,z,63,1,4.7533305109883095,1.36309078069689,None,245.02579699999842,None,246.3750914199987,246.3750914199987,246.39202601999895,None,[],,,['b'],248.3793377999973,None,b,2.408542299999681,0,0,0.6470588235294118,None,253.13808939999944,None,253.13808939999944,None,[0.40854229999968084],,,,,,,,,,,,,,,,,,CBC_1016,4,3,2,1,15,0.95,2023-06-25_16h33.10.466,MSI_TV_v3,2022.1.1,59.97156148673703,
17,0,17,0,,,,,,,,,,3,2,3,b,63,0,4.53337421950507,3.1424449555106,None,254.94229169999744,None,258.0592515200002,258.0592515200002,258.0758449199999,None,[],,,['b'],260.06160230000023,None,b,2.3166049999999814,1,0,0.6666666666666666,None,264.6006626999988,None,264.6006626999988,None,[0.3166049999999814],,,,,,,,,,,,,,,,,,CBC_1016,4,3,2,1,15,0.95,2023-06-25_16h33.10.466,MSI_TV_v3,2022.1.1,59.97156148673703,
18,0,18,0,,,,,,,,,,2,2,0,z,27,1,4.52047235037039,1.25920145784721,None,266.40929459999825,None,267.6428610199979,267.6428610199979,267.6594140199992,None,[],,,['b'],269.64488119999805,None,b,2.6140389000029245,0,0,0.631578947368421,None,274.1639925999989,None,274.1639925999989,None,[0.6140389000029245],,,,,,,,,,,,,,,,,,CBC_1016,4,3,2,1,15,0.95,2023-06-25_16h33.10.466,MSI_TV_v3,2022.1.1,59.97156148673703,
19,0,19,0,,,,,,,,,,0,3,2,b,63,1,4.01714354611405,1.12425433982333,None,275.9758776999988,None,277.0748597199996,277.0748597199996,277.09196931999725,None,[],,,['b'],279.0713408999982,None,b,2.836809299999004,1,1,0.65,None,283.0858499999995,None,283.0858499999995,None,[0.836809299999004],,,,,,,,,,,,,,,,,,CBC_1016,4,3,2,1,15,0.95,2023-06-25_16h33.10.466,MSI_TV_v3,2022.1.1,59.97156148673703,
20,0,20,0,,,,,,,,,,1,3,1,z,27,1,3.35133458220192,1.21250262048173,None,284.89176769999904,None,286.07585341999913,286.07585341999913,286.0925525199997,None,[],,,['z'],288.0824004999995,None,z,3.4990538000020024,1,1,0.6666666666666666,None,291.41895999999906,None,291.41895999999906,None,[1.4990538000020024],,,,,,,,,,,,,,,,,,CBC_1016,4,3,2,1,15,0.95,2023-06-25_16h33.10.466,MSI_TV_v3,2022.1.1,59.97156148673703,
21,0,21,0,,,,,,,,,,3,3,2,z,63,1,4.190022164497369,0.974903167432984,None,293.2258901999994,None,294.17590701999836,294.17590701999836,294.1932397199995,None,[],,,['z'],296.1798514999973,None,z,2.345223600001191,1,1,0.6818181818181818,None,300.3824518000001,None,300.3824518000001,None,[0.3452236000011908],,,,,,,,,,,,,,,,,,CBC_1016,4,3,2,1,15,0.95,2023-06-25_16h33.10.466,MSI_TV_v3,2022.1.1,59.97156148673703,
22,0,22,0,,,,,,,,,,2,0,1,b,63,1,2.342239579230602,1.43470440954152,None,302.1925018999973,None,303.60961301999816,303.60961301999816,303.62628341999846,None,[],,,['z'],305.6129003999995,None,z,3.0240017999967677,0,0,0.6521739130434783,None,307.9619544999987,None,307.9619544999987,None,[1.0240017999967677],,,,,,,,,,,,,,,,,,CBC_1016,4,3,2,1,15,0.95,2023-06-25_16h33.10.466,MSI_TV_v3,2022.1.1,59.97156148673703,
23,0,23,0,,,,,,,,,,1,2,1,z,9,1,3.6438386551209,0.917519910446003,None,309.77595289999954,None,310.67618361999814,310.67618361999814,310.69289231999903,z,['z'],1.6096634000023187,[1.6096634000023187],None,312.6899279999998,None,z,1.6096634000023187,1,1,0.6666666666666666,None,316.33711669999684,None,316.33711669999684,None,,,,,,,,,,,,,,,,,,,CBC_1016,4,3,2,1,15,0.95,2023-06-25_16h33.10.466,MSI_TV_v3,2022.1.1,59.97156148673703,
24,0,24,0,,,,,,,,,,3,2,3,b,63,1,2.693348633324513,2.10421507306074,None,318.14204450000034,None,320.225981119998,320.225981119998,320.24280571999736,None,[],,,['b'],322.2312404000004,None,b,2.1830614999998943,1,1,0.68,None,324.9254411999973,None,324.9254411999973,None,[0.1830614999998943],,,,,,,,,,,,,,,,,,CBC_1016,4,3,2,1,15,0.95,2023-06-25_16h33.10.466,MSI_TV_v3,2022.1.1,59.97156148673703,
25,0,25,0,,,,,,,,,,0,2,3,z,63,1,2.678526077912375,0.77703640172831,None,326.7260022999981,None,327.476102819997,327.476102819997,327.49279001999787,z,['z'],1.6363053000022774,[1.6363053000022774],None,329.5171096999984,None,z,1.6363053000022774,1,1,0.6923076923076923,None,332.20373069999914,None,332.20373069999914,None,,,,,,,,,,,,,,,,,,,CBC_1016,4,3,2,1,15,0.95,2023-06-25_16h33.10.466,MSI_TV_v3,2022.1.1,59.97156148673703,
26,0,26,0,,,,,,,,,,1,0,1,z,63,1,2.433630701072358,0.979776149765883,None,334.0095984999971,None,334.9597412199979,334.9597412199979,334.97644292000007,None,[],,,['z'],336.9610025999973,None,z,2.629188899998553,1,1,0.7037037037037037,None,339.3979388999978,None,339.3979388999978,None,[0.6291888999985531],,,,,,,,,,,,,,,,,,CBC_1016,4,3,2,1,15,0.95,2023-06-25_16h33.10.466,MSI_TV_v3,2022.1.1,59.97156148673703,
27,0,27,0,,,,,,,,,,2,0,2,b,27,1,2.629554641171433,1.18065738546375,None,341.2082808999985,None,342.3593614199996,342.3593614199996,342.37612971999954,b,['b'],1.2444546000006085,[1.2444546000006085],None,344.39915969999856,None,b,1.2444546000006085,1,1,0.7142857142857143,None,347.0217860999983,None,347.0217860999983,None,,,,,,,,,,,,,,,,,,,CBC_1016,4,3,2,1,15,0.95,2023-06-25_16h33.10.466,MSI_TV_v3,2022.1.1,59.97156148673703,
28,0,28,0,,,,,,,,,,0,1,3,z,27,1,3.31929419319838,1.52290599571961,None,348.82549639999706,None,350.326182319997,350.326182319997,350.3432955200002,None,[],,,['z'],352.3302404999995,None,z,2.337875699999131,1,1,0.7241379310344828,None,355.666212199998,None,355.666212199998,None,[0.33787569999913103],,,,,,,,,,,,,,,,,,CBC_1016,4,3,2,1,15,0.95,2023-06-25_16h33.10.466,MSI_TV_v3,2022.1.1,59.97156148673703,
29,0,29,0,,,,,,,,,,2,1,0,z,63,1,2.517541937862754,1.60731937853708,None,357.4760792999987,None,359.0589317199989,359.0589317199989,359.07522711999957,None,[],,,['b'],361.0538876999999,None,b,2.2825905999998213,0,0,0.7,None,363.56555119999757,None,363.56555119999757,None,[0.2825905999998213],,,,,,,,,,,,,,,,,,CBC_1016,4,3,2,1,15,0.95,2023-06-25_16h33.10.466,MSI_TV_v3,2022.1.1,59.97156148673703,
30,0,30,0,,,,,,,,,,3,2,0,b,27,1,2.496959177995529,1.27538462653558,None,365.3759524999987,None,366.6250283199985,366.6250283199985,366.64242151999827,None,[],,,['b'],368.619215499999,None,b,2.2115325999984634,1,1,0.7096774193548387,None,371.1175567999999,None,371.1175567999999,None,[0.2115325999984634],,,,,,,,,,,,,,,,,,CBC_1016,4,3,2,1,15,0.95,2023-06-25_16h33.10.466,MSI_TV_v3,2022.1.1,59.97156148673703,
31,0,31,0,,,,,,,,,,0,2,3,z,63,1,2.294664843639333,1.95130344756745,None,372.9263237999985,None,374.85965061999707,374.85965061999707,374.8761194199975,z,['z'],1.828652800002601,[1.828652800002601],None,376.88396869999997,None,z,1.828652800002601,1,1,0.71875,None,379.18618419999984,None,379.18618419999984,None,,,,,,,,,,,,,,,,,,,CBC_1016,4,3,2,1,15,0.95,2023-06-25_16h33.10.466,MSI_TV_v3,2022.1.1,59.97156148673703,
32,0,32,0,,,,,,,,,,1,1,0,b,63,1,2.91303524001082,3.06992456303453,None,380.99271119999685,None,384.0428929199985,384.0428929199985,384.05959781999957,b,['b'],1.6519169000021066,[1.6519169000021066],None,386.0817853999979,None,b,1.6519169000021066,1,1,0.7272727272727273,None,388.98677849999876,None,388.98677849999876,None,,,,,,,,,,,,,,,,,,,CBC_1016,4,3,2,1,15,0.95,2023-06-25_16h33.10.466,MSI_TV_v3,2022.1.1,59.97156148673703,
33,0,33,0,,,,,,,,,,2,0,1,b,63,1,3.71372710086949,1.96568735158996,None,390.79287199999817,None,392.74294731999873,392.74294731999873,392.75952971999834,None,[],,,['z'],394.73981659999845,None,z,2.369140699996933,0,0,0.7058823529411765,None,398.46570509999947,None,398.46570509999947,None,[0.3691406999969331],,,,,,,,,,,,,,,,,,CBC_1016,4,3,2,1,15,0.95,2023-06-25_16h33.10.466,MSI_TV_v3,2022.1.1,59.97156148673703,
34,0,34,0,,,,,,,,,,0,2,3,z,63,0,2.6391747348430608,1.78643585472448,None,400.27609519999896,None,402.0433603199996,402.0433603199996,402.05978902000027,z,['z'],1.4236330999992788,[1.4236330999992788],None,404.0849288999998,None,z,1.4236330999992788,1,0,0.7142857142857143,None,406.7187346999999,None,406.7187346999999,None,,,,,,,,,,,,,,,,,,,CBC_1016,4,3,2,1,15,0.95,2023-06-25_16h33.10.466,MSI_TV_v3,2022.1.1,59.97156148673703,
35,0,35,0,,,,,,,,,,3,2,0,b,27,1,2.2759877950103027,1.25817747924478,None,408.5262318999994,None,409.7595229199975,409.7595229199975,409.7761427199981,b,['b'],1.9316092000008211,[1.9316092000008211],None,411.8013878999991,None,b,1.9316092000008211,1,1,0.7222222222222222,None,414.0715737999999,None,414.0715737999999,None,,,,,,,,,,,,,,,,,,,CBC_1016,4,3,2,1,15,0.95,2023-06-25_16h33.10.466,MSI_TV_v3,2022.1.1,59.97156148673703,
36,0,36,0,,,,,,,,,,2,0,1,b,63,1,4.46924002178158,1.53122835510861,None,415.8763282999971,None,417.3929724199985,417.3929724199985,417.40976102000025,None,[],,,['z'],419.3969939999988,None,z,2.6839341999984754,0,0,0.7027027027027027,None,423.8703217000002,None,423.8703217000002,None,[0.6839341999984754],,,,,,,,,,,,,,,,,,CBC_1016,4,3,2,1,15,0.95,2023-06-25_16h33.10.466,MSI_TV_v3,2022.1.1,59.97156148673703,
37,0,37,0,,,,,,,,,,1,1,3,b,27,1,2.92731383428727,3.24569326556923,None,425.6754985999978,None,428.89322442000014,428.89322442000014,428.9099252199991,b,['b'],1.9172811999997066,[1.9172811999997066],None,430.91481959999874,None,b,1.9172811999997066,1,1,0.7105263157894737,None,433.8300230999994,None,433.8300230999994,None,,,,,,,,,,,,,,,,,,,CBC_1016,4,3,2,1,15,0.95,2023-06-25_16h33.10.466,MSI_TV_v3,2022.1.1,59.97156148673703,
38,0,38,0,,,,,,,,,,3,3,2,z,63,1,3.2062024266105302,2.09887870490381,None,435.64198860000033,None,437.7096565199969,437.7096565199969,437.72627541999793,None,[],,,['z'],439.7120653999991,None,z,2.345549099998607,1,1,0.717948717948718,None,442.91969450000033,None,442.91969450000033,None,[0.34554909999860683],,,,,,,,,,,,,,,,,,CBC_1016,4,3,2,1,15,0.95,2023-06-25_16h33.10.466,MSI_TV_v3,2022.1.1,59.97156148673703,
39,0,39,0,,,,,,,,,,0,3,2,b,63,1,4.12485271162806,1.34668860557497,None,444.7264431000003,None,446.0590314199977,446.0590314199977,446.0757806199978,b,['b'],1.1831126999968546,[1.1831126999968546],None,448.092482,None,b,1.1831126999968546,1,1,0.725,None,452.22148209999796,None,452.22148209999796,None,,,,,,,,,,,,,,,,,,,CBC_1016,4,3,2,1,15,0.95,2023-06-25_16h33.10.466,MSI_TV_v3,2022.1.1,59.97156148673703,
40,0,40,0,,,,,,,,,,1,0,1,z,63,1,2.592312596923728,2.49839527409216,None,454.0263378999989,None,456.5094455199975,456.5094455199975,456.5261944199989,b,['b'],1.7347196000009717,[1.7347196000009717],None,458.5490390999985,None,b,1.7347196000009717,0,0,0.7073170731707317,None,461.1252518000001,None,461.1252518000001,None,,,,,,,,,,,,,,,,,,,CBC_1016,4,3,2,1,15,0.95,2023-06-25_16h33.10.466,MSI_TV_v3,2022.1.1,59.97156148673703,
41,0,41,0,,,,,,,,,,2,2,0,z,27,1,2.82320408183943,2.78346932462847,None,462.92668929999854,None,465.69305571999905,465.69305571999905,465.70960291999984,z,['z'],1.677115499998763,[1.677115499998763],None,467.7347450999987,None,z,1.677115499998763,1,1,0.7142857142857143,None,470.55448830000023,None,470.55448830000023,None,,,,,,,,,,,,,,,,,,,CBC_1016,4,3,2,1,15,0.95,2023-06-25_16h33.10.466,MSI_TV_v3,2022.1.1,59.97156148673703,
42,0,42,0,,,,,,,,,,0,3,0,b,9,1,4.72585056748869,2.22427187882546,None,472.3604142999975,None,474.55986431999884,474.55986431999884,474.5763982200002,b,['b'],1.410495500000252,[1.410495500000252],None,476.5742476999985,None,b,1.410495500000252,1,1,0.7209302325581395,None,481.3135067000003,None,481.3135067000003,None,,,,,,,,,,,,,,,,,,,CBC_1016,4,3,2,1,15,0.95,2023-06-25_16h33.10.466,MSI_TV_v3,2022.1.1,59.97156148673703,
43,0,43,0,,,,,,,,,,3,3,2,z,63,1,3.76873691643126,0.952147612306987,None,483.11003340000025,None,484.04361081999707,484.04361081999707,484.05993821999766,z,['z'],1.7776584999992338,[1.7776584999992338],None,486.08918970000013,None,z,1.7776584999992338,1,1,0.7272727272727273,None,489.87124380000023,None,489.87124380000023,None,,,,,,,,,,,,,,,,,,,CBC_1016,4,3,2,1,15,0.95,2023-06-25_16h33.10.466,MSI_TV_v3,2022.1.1,59.97156148673703,
,,,,,,,,,,,,,,,,,,,,,,,,,,,,,,,,,,,,,,,,,,,,,None,491.6764540999975,None,,,,,,,,,,,,,,,CBC_1016,4,3,2,1,15,0.95,2023-06-25_16h33.10.466,MSI_TV_v3,2022.1.1,59.97156148673703,
,,,,,,,,,,,,,,,,,,,,,,,,,,,,,,,,,,,,,,,,,,,,,,,,496.6598675999994,None,None,496.6598675999994,501.6432692999988,,,,,,,,,,CBC_1016,4,3,2,1,15,0.95,2023-06-25_16h33.10.466,MSI_TV_v3,2022.1.1,59.97156148673703,
,,,,,,,,,,,,,,,,,,,,,,,,,,,,,,,,,,,,,,,,,,,,,,,,,,,,,z,b,hard,"[0, 1, 2, 3]","[2, 1, 3, 0]",0.7272727272727273,0.6363636363636364,0.8181818181818182,0.7272727272727273,,,,,,,,,,,,
