trials_runs.thisRepN,trials_runs.thisTrialN,trials_runs.thisN,trials_runs.thisIndex,standbild_start.started,standbild_start.stopped,trigger.keys,trigger.rt,trigger.started,trigger.stopped,keys_2.keys,keys_2.started,keys_2.stopped,trials_runs.auditory_stim,trials_runs.visual_stim_left,trials_runs.visual_stim_right,trials_runs.correctKey,trials_runs.presentationFrequncy,trials_runs.FBaccuracy,trials_runs.ISI_s,trials_runs.ITI_s,keys_3.keys,keys_3.started,keys_3.stopped,ImageLeft_4.started,ImageLeft_4.stopped,ImageRight_4.started,ImageRight_4.stopped,sound_4.started,sound_4.stopped,response_4.keys,response_4.started,response_4.stopped,response_5.keys,response_5.rt,response_5.started,response_5.stopped,response_runs.keys,response_runs.rt,trials_runs.correct_answer,trials_runs.feedback_given,trials_runs.running_mean,feedback_6.started,feedback_6.stopped,keys_6.keys,keys_6.started,keys_6.stopped,keys_6.rt,response_4.rt,keys_7.keys,keys_7.started,keys_7.stopped,standbild_end.started,standbild_end.stopped,Stop_exp.keys,Stop_exp.started,Stop_exp.stopped,trials_runs.rightKey,trials_runs.leftKey,ts_difficulty,visualPair,audioPair,trials_runs.mean_acc_1stFourth,trials_runs.mean_acc_2ndFourth,trials_runs.mean_acc_3rdFourth,trials_runs.mean_acc_4thFourth,participant,session,visual set [1-6],audio set [1-3],trial structure [0-3 / 4-7],pairing [0-23],prob Feedback,date,expName,psychopyVersion,frameRate,
,,,,39.83093970000027,None,t,88.07923619999929,39.83093970000027,None,,,,,,,,,,,,,,,,,,,,,,,,,,,,,,,,,,,,,,,,,,,,,,,,,,,,,,,,,CBC_1006,001,1,3,7,8,0.95,2023-06-03_11h59.24.512,MSI_AV_v3,2022.1.1,59.98541154790473,
,,,,,,,,,,None,127.93423979999989,None,,,,,,,,,,,,,,,,,,,,,,,,,,,,,,,,,,,,,,,,,,,,,,,,,,,,,,CBC_1006,001,1,3,7,8,0.95,2023-06-03_11h59.24.512,MSI_AV_v3,2022.1.1,59.98541154790473,
0,0,0,0,,,,,,,,,,2,0.0,1.0,z,63.0,1.0,3.622505815,3.274187802,None,128.1342112000002,None,131.53101030000016,None,131.53101030000016,None,131.53362725000034,None,None,131.53101030000016,None,['b'],[0.5552968000001783],133.41719029999967,None,b,2.5552968000001783,0,0,0.0,137.05019170000014,None,None,137.05019170000014,None,,,,,,,,,,,,,,,,,,,,CBC_1006,001,1,3,7,8,0.95,2023-06-03_11h59.24.512,MSI_AV_v3,2022.1.1,59.98541154790473,
1,0,1,0,,,,,,,,,,1,1.0,0.0,z,63.0,1.0,4.268032915,0.789129603,None,139.05082149999998,None,139.86551930000041,None,139.86551930000041,None,139.8675129000003,None,None,139.86551930000041,None,['z'],[0.6970900999995138],141.83358800000042,None,z,2.6970900999995138,1,1,0.5,146.10244799999964,None,None,146.10244799999964,None,,,,,,,,,,,,,,,,,,,,CBC_1006,001,1,3,7,8,0.95,2023-06-03_11h59.24.512,MSI_AV_v3,2022.1.1,59.98541154790473,
2,0,2,0,,,,,,,,,,0,2.0,1.0,b,9.0,1.0,3.956662465,1.915207301,None,148.10100710000006,None,150.06216190000032,None,150.06216190000032,None,150.06758455000045,None,None,150.06216190000032,None,['b'],[0.6088006999989375],152.01778449999983,None,b,2.6088006999989375,1,1,0.6666666666666666,155.96673920000012,None,None,155.96673920000012,None,,,,,,,,,,,,,,,,,,,,CBC_1006,001,1,3,7,8,0.95,2023-06-03_11h59.24.512,MSI_AV_v3,2022.1.1,59.98541154790473,
3,0,3,0,,,,,,,,,,1,0.0,1.0,b,63.0,1.0,1.90573091,1.448890429,None,157.96788190000007,None,159.4396741999999,None,159.4396741999999,None,159.45054560000062,None,None,159.4396741999999,None,['z'],[0.5874161999990974],161.41708219999964,None,z,2.5874161999990974,0,0,0.5,163.31553600000007,None,None,163.31553600000007,None,,,,,,,,,,,,,,,,,,,,CBC_1006,001,1,3,7,8,0.95,2023-06-03_11h59.24.512,MSI_AV_v3,2022.1.1,59.98541154790473,
4,0,4,0,,,,,,,,,,3,1.0,3.0,z,27.0,1.0,1.543156518,1.554037824,None,165.31719580000026,None,166.90742260000025,None,166.90742260000025,None,166.91742835000014,None,None,166.90742260000025,None,['z'],[0.30660729999908654],168.86770530000013,None,z,2.3066072999990865,1,1,0.6,170.40607079999972,None,None,170.40607079999972,None,,,,,,,,,,,,,,,,,,,,CBC_1006,001,1,3,7,8,0.95,2023-06-03_11h59.24.512,MSI_AV_v3,2022.1.1,59.98541154790473,
5,0,5,0,,,,,,,,,,2,1.0,0.0,b,63.0,1.0,3.589438522,1.313600181,None,172.41743459999998,None,173.75582339999983,None,173.75582339999983,None,173.76753559999997,None,None,173.75582339999983,None,['z'],[0.3521575999993729],175.73432820000016,None,z,2.352157599999373,0,0,0.5,179.30855950000023,None,None,179.30855950000023,None,,,,,,,,,,,,,,,,,,,,CBC_1006,001,1,3,7,8,0.95,2023-06-03_11h59.24.512,MSI_AV_v3,2022.1.1,59.98541154790473,
6,0,6,0,,,,,,,,,,0,3.0,2.0,z,63.0,1.0,3.884449499,2.128027194,None,181.31733540000005,None,183.45514060000005,None,183.45514060000005,None,183.46729340000002,None,None,183.45514060000005,None,['b'],[0.3410167999991245],185.4340726999999,None,b,2.3410167999991245,0,0,0.42857142857142855,189.31534199999987,None,None,189.31534199999987,None,,,,,,,,,,,,,,,,,,,,CBC_1006,001,1,3,7,8,0.95,2023-06-03_11h59.24.512,MSI_AV_v3,2022.1.1,59.98541154790473,
7,0,7,0,,,,,,,,,,1,0.0,2.0,b,27.0,1.0,1.109698721,1.08099246,None,191.31732629999988,None,192.4218547999999,None,192.4218547999999,None,192.4338697000003,None,None,192.4218547999999,None,None,,194.40078879999965,None,[],[],0,3,0.375,195.50414340000043,None,['z'],195.50414340000043,None,[0.10500209999918297],,,,,,,,,,,,,,,,,,,CBC_1006,001,1,3,7,8,0.95,2023-06-03_11h59.24.512,MSI_AV_v3,2022.1.1,59.98541154790473,
8,0,8,0,,,,,,,,,,3,2.0,3.0,z,63.0,1.0,1.610581685,3.264468617,None,197.5007939999996,None,200.7877357999996,None,200.7877357999996,None,200.7841305500001,None,['z'],200.7877357999996,None,None,,202.7887724000002,None,z,1.5477362999990874,1,1,0.4444444444444444,204.39126719999967,None,None,204.39126719999967,None,,[1.5477362999990874],,,,,,,,,,,,,,,,,,CBC_1006,001,1,3,7,8,0.95,2023-06-03_11h59.24.512,MSI_AV_v3,2022.1.1,59.98541154790473,
9,0,9,0,,,,,,,,,,2,1.0,3.0,b,27.0,1.0,3.869831913,0.971483559,None,206.40066899999965,None,207.3840639,None,207.3840639,None,207.38386355000011,None,None,207.3840639,None,['b'],[0.4472077000000354],209.36733370000002,None,b,2.4472077000000354,1,1,0.5,213.24221810000017,None,None,213.24221810000017,None,,,,,,,,,,,,,,,,,,,,CBC_1006,001,1,3,7,8,0.95,2023-06-03_11h59.24.512,MSI_AV_v3,2022.1.1,59.98541154790473,
10,0,10,0,,,,,,,,,,0,2.0,3.0,b,63.0,1.0,1.758742576,3.321420384,None,215.2511741999997,None,218.58756900000026,None,218.58756900000026,None,218.5839681499997,None,None,218.58756900000026,None,['z'],[0.27779049999935523],220.5672480000003,None,z,2.2777904999993552,0,0,0.45454545454545453,222.31371510000008,None,None,222.31371510000008,None,,,,,,,,,,,,,,,,,,,,CBC_1006,001,1,3,7,8,0.95,2023-06-03_11h59.24.512,MSI_AV_v3,2022.1.1,59.98541154790473,
11,0,11,0,,,,,,,,,,2,3.0,1.0,z,27.0,1.0,2.278602942,1.910349838,None,224.3174087999996,None,226.23686710000038,None,226.23686710000038,None,226.23454125000035,None,None,226.23686710000038,None,['b'],[1.156157899999016],228.21801609999966,None,b,3.156157899999016,0,0,0.4166666666666667,230.4882803999999,None,None,230.4882803999999,None,,,,,,,,,,,,,,,,,,,,CBC_1006,001,1,3,7,8,0.95,2023-06-03_11h59.24.512,MSI_AV_v3,2022.1.1,59.98541154790473,
12,0,12,0,,,,,,,,,,0,2.0,3.0,b,63.0,1.0,2.397501916,3.388090306,None,232.50095650000003,None,235.90581819999989,None,235.90581819999989,None,235.91760280000017,None,None,235.90581819999989,None,['z'],[0.5252409999993688],237.88434870000037,None,z,2.525240999999369,0,0,0.38461538461538464,240.26508509999985,None,None,240.26508509999985,None,,,,,,,,,,,,,,,,,,,,CBC_1006,001,1,3,7,8,0.95,2023-06-03_11h59.24.512,MSI_AV_v3,2022.1.1,59.98541154790473,
13,0,13,0,,,,,,,,,,3,2.0,3.0,z,63.0,1.0,2.742099981,1.142638656,None,242.26801729999988,None,243.42690909999965,None,243.42690909999965,None,243.43414889999985,None,None,243.42690909999965,None,['z'],[0.560748899999453],245.40089110000008,None,z,2.560748899999453,1,1,0.42857142857142855,248.13025689999995,None,None,248.13025689999995,None,,,,,,,,,,,,,,,,,,,,CBC_1006,001,1,3,7,8,0.95,2023-06-03_11h59.24.512,MSI_AV_v3,2022.1.1,59.98541154790473,
14,0,14,0,,,,,,,,,,1,3.0,0.0,z,9.0,1.0,4.196249082,2.502774076,None,250.1346642999997,None,252.65341700000045,None,252.65341700000045,None,252.65078744999983,None,None,252.65341700000045,None,['z'],[0.37929759999951784],254.6343138000002,None,z,2.379297599999518,1,1,0.4666666666666667,258.82550530000026,None,None,258.82550530000026,None,,,,,,,,,,,,,,,,,,,,CBC_1006,001,1,3,7,8,0.95,2023-06-03_11h59.24.512,MSI_AV_v3,2022.1.1,59.98541154790473,
15,0,15,0,,,,,,,,,,2,1.0,0.0,b,63.0,0.0,3.501824497,2.349749758,None,260.8343163999998,None,263.2031463000003,None,263.2031463000003,None,263.20123015000036,None,None,263.2031463000003,None,['b'],[0.23226160000012896],265.1847869000003,None,b,2.232261600000129,1,0,0.5,268.6750955999996,None,None,268.6750955999996,None,,,,,,,,,,,,,,,,,,,,CBC_1006,001,1,3,7,8,0.95,2023-06-03_11h59.24.512,MSI_AV_v3,2022.1.1,59.98541154790473,
16,0,16,0,,,,,,,,,,3,3.0,2.0,b,63.0,1.0,2.088920167,2.407383959,None,270.6843200000003,None,273.10611830000016,None,273.10611830000016,None,273.11779149999984,None,None,273.10611830000016,None,['z'],[0.7981582000002163],275.0841495000004,None,z,2.7981582000002163,0,0,0.47058823529411764,277.1595086999996,None,None,277.1595086999996,None,,,,,,,,,,,,,,,,,,,,CBC_1006,001,1,3,7,8,0.95,2023-06-03_11h59.24.512,MSI_AV_v3,2022.1.1,59.98541154790473,
17,0,17,0,,,,,,,,,,0,2.0,0.0,b,27.0,1.0,2.078483356,1.411911144,None,279.1680723999998,None,280.5875683000004,None,280.5875683000004,None,280.5842651500002,None,None,280.5875683000004,None,['b'],[0.21556299999974726],282.5672926999996,None,b,2.2155629999997473,1,1,0.5,284.6295705000002,None,None,284.6295705000002,None,,,,,,,,,,,,,,,,,,,,CBC_1006,001,1,3,7,8,0.95,2023-06-03_11h59.24.512,MSI_AV_v3,2022.1.1,59.98541154790473,
18,0,18,0,,,,,,,,,,1,1.0,0.0,z,63.0,1.0,1.3262934849999999,2.573610938,None,286.6344041000002,None,289.2214025000003,None,289.2214025000003,None,289.21800655000015,None,['z'],289.2214025000003,None,None,,291.22107940000024,None,z,1.8671549999999115,1,1,0.5263157894736842,292.5577966000001,None,None,292.5577966000001,None,,[1.8671549999999115],,,,,,,,,,,,,,,,,,CBC_1006,001,1,3,7,8,0.95,2023-06-03_11h59.24.512,MSI_AV_v3,2022.1.1,59.98541154790473,
19,0,19,0,,,,,,,,,,2,0.0,1.0,z,63.0,1.0,1.595506577,2.234398566,None,294.5678651999997,None,296.8233565999999,None,296.8233565999999,None,296.83458260000043,None,None,296.8233565999999,None,['z'],[0.31210809999902267],298.80110289999993,None,z,2.3121080999990227,1,1,0.55,300.3835810999999,None,None,300.3835810999999,None,,,,,,,,,,,,,,,,,,,,CBC_1006,001,1,3,7,8,0.95,2023-06-03_11h59.24.512,MSI_AV_v3,2022.1.1,59.98541154790473,
20,0,20,0,,,,,,,,,,3,3.0,1.0,b,27.0,1.0,2.117809983,2.210349838,None,302.38440269999955,None,304.60369960000025,None,304.60369960000025,None,304.6009290500001,None,None,304.60369960000025,None,['z'],[0.49641929999961576],306.58437520000007,None,z,2.4964192999996158,0,0,0.5238095238095238,308.6902415000004,None,None,308.6902415000004,None,,,,,,,,,,,,,,,,,,,,CBC_1006,001,1,3,7,8,0.95,2023-06-03_11h59.24.512,MSI_AV_v3,2022.1.1,59.98541154790473,
21,0,21,0,,,,,,,,,,0,2.0,3.0,b,63.0,1.0,1.874984683,2.757001452,None,310.7003759999998,None,313.4519618000004,None,313.4519618000004,None,313.45040450000033,None,None,313.4519618000004,None,['b'],[1.1486308999992616],315.43445410000004,None,b,3.1486308999992616,1,1,0.5454545454545454,317.2926349999998,None,None,317.2926349999998,None,,,,,,,,,,,,,,,,,,,,CBC_1006,001,1,3,7,8,0.95,2023-06-03_11h59.24.512,MSI_AV_v3,2022.1.1,59.98541154790473,
22,0,22,0,,,,,,,,,,1,1.0,0.0,z,63.0,1.0,2.232488062,2.962224669,None,319.30150969999977,None,322.2900325999999,None,322.2900325999999,None,322.30138910000005,None,None,322.2900325999999,None,['z'],[0.15701049999915995],324.26830119999977,None,z,2.15701049999916,1,1,0.5652173913043478,326.48579299999983,None,None,326.48579299999983,None,,,,,,,,,,,,,,,,,,,,CBC_1006,001,1,3,7,8,0.95,2023-06-03_11h59.24.512,MSI_AV_v3,2022.1.1,59.98541154790473,
23,0,23,0,,,,,,,,,,3,3.0,2.0,b,63.0,1.0,2.242058058,1.24796184,None,328.5005723000004,None,329.75698509999984,None,329.75698509999984,None,329.76783309999973,None,None,329.75698509999984,None,['b'],[0.5020755999994435],331.73440459999983,None,b,2.5020755999994435,1,1,0.5833333333333334,333.9585344999996,None,None,333.9585344999996,None,,,,,,,,,,,,,,,,,,,,CBC_1006,001,1,3,7,8,0.95,2023-06-03_11h59.24.512,MSI_AV_v3,2022.1.1,59.98541154790473,
24,0,24,0,,,,,,,,,,0,0.0,2.0,z,27.0,1.0,1.6718976049999998,2.297139377,None,335.9680429,None,338.2901205999997,None,338.2901205999997,None,338.30151879999994,None,None,338.2901205999997,None,['z'],[0.622976399999061],340.2681216000001,None,z,2.622976399999061,1,1,0.6,341.9301271000004,None,None,341.9301271000004,None,,,,,,,,,,,,,,,,,,,,CBC_1006,001,1,3,7,8,0.95,2023-06-03_11h59.24.512,MSI_AV_v3,2022.1.1,59.98541154790473,
25,0,25,0,,,,,,,,,,1,1.0,0.0,z,63.0,1.0,3.278108735,0.977134615,None,343.93412869999975,None,344.9222129,None,344.9222129,None,344.91780855000025,None,['z'],344.9222129,None,None,,346.92041119999976,None,z,1.7287713999994594,1,1,0.6153846153846154,350.2085828999998,None,None,350.2085828999998,None,,[1.7287713999994594],,,,,,,,,,,,,,,,,,CBC_1006,001,1,3,7,8,0.95,2023-06-03_11h59.24.512,MSI_AV_v3,2022.1.1,59.98541154790473,
26,0,26,0,,,,,,,,,,2,3.0,1.0,z,27.0,1.0,2.818459073,1.086048241,None,352.2183173000003,None,353.33030729999973,None,353.33030729999973,None,353.3348556000001,None,None,353.33030729999973,None,['z'],[0.26179400000000896],355.30180800000016,None,z,2.261794000000009,1,1,0.6296296296296297,358.1053536999998,None,None,358.1053536999998,None,,,,,,,,,,,,,,,,,,,,CBC_1006,001,1,3,7,8,0.95,2023-06-03_11h59.24.512,MSI_AV_v3,2022.1.1,59.98541154790473,
27,0,27,0,,,,,,,,,,0,2.0,3.0,b,63.0,1.0,2.0845750460000003,1.732943574,None,360.11816929999986,None,361.8516491999999,None,361.8516491999999,None,361.8504023000005,None,None,361.8516491999999,None,['b'],[0.6840996000000814],363.8509326000003,None,b,2.6840996000000814,1,1,0.6428571428571429,365.9233271000003,None,None,365.9233271000003,None,,,,,,,,,,,,,,,,,,,,CBC_1006,001,1,3,7,8,0.95,2023-06-03_11h59.24.512,MSI_AV_v3,2022.1.1,59.98541154790473,
28,0,28,0,,,,,,,,,,3,2.0,3.0,z,63.0,1.0,1.556335756,2.071213329,None,367.93515819999993,None,370.0245195999996,None,370.0245195999996,None,370.0349567000003,None,['z'],370.0245195999996,None,None,,372.0078460000004,None,z,1.449306899999101,1,1,0.6551724137931034,373.55785449999985,None,None,373.55785449999985,None,,[1.449306899999101],,,,,,,,,,,,,,,,,,CBC_1006,001,1,3,7,8,0.95,2023-06-03_11h59.24.512,MSI_AV_v3,2022.1.1,59.98541154790473,
29,0,29,0,,,,,,,,,,2,1.0,0.0,b,63.0,1.0,2.917714675,3.276660373,None,375.56824789999973,None,378.8541597000003,None,378.8541597000003,None,378.8517895500004,None,None,378.8541597000003,None,['b'],[0.26819809999960853],380.8350214000002,None,b,2.2681980999996085,1,1,0.6666666666666666,383.7475715999999,None,None,383.7475715999999,None,,,,,,,,,,,,,,,,,,,,CBC_1006,001,1,3,7,8,0.95,2023-06-03_11h59.24.512,MSI_AV_v3,2022.1.1,59.98541154790473,
30,0,30,0,,,,,,,,,,1,0.0,2.0,b,27.0,1.0,4.21669271,1.293060736,None,385.75173819999964,None,387.05686630000037,None,387.05686630000037,None,387.06837220000034,None,None,387.05686630000037,None,"['b', 'z']","[0.7733337999998184, 2.1903168999997433]",389.0352818000001,None,b,2.7733337999998184,1,1,0.6774193548387096,393.24720119999984,None,None,393.24720119999984,None,,,,,,,,,,,,,,,,,,,,CBC_1006,001,1,3,7,8,0.95,2023-06-03_11h59.24.512,MSI_AV_v3,2022.1.1,59.98541154790473,
31,0,31,0,,,,,,,,,,3,0.0,3.0,z,9.0,1.0,1.899747326,2.232990834,None,395.25083989999985,None,397.50544640000044,None,397.50544640000044,None,397.50147394999976,None,['z'],397.50544640000044,None,None,,399.50293090000014,None,z,1.639702299999044,1,1,0.6875,401.4071586,None,None,401.4071586,None,,[1.639702299999044],,,,,,,,,,,,,,,,,,CBC_1006,001,1,3,7,8,0.95,2023-06-03_11h59.24.512,MSI_AV_v3,2022.1.1,59.98541154790473,
32,0,32,0,,,,,,,,,,0,2.0,3.0,b,63.0,1.0,3.044827724,1.75396268,None,403.4180951999997,None,405.18777109999974,None,405.18777109999974,None,405.18505125,None,['z'],405.18777109999974,None,None,,407.1843859999999,None,z,1.6148747999995976,0,0,0.6666666666666666,410.24180700000034,None,None,410.24180700000034,None,,[1.6148747999995976],,,,,,,,,,,,,,,,,,CBC_1006,001,1,3,7,8,0.95,2023-06-03_11h59.24.512,MSI_AV_v3,2022.1.1,59.98541154790473,
33,0,33,0,,,,,,,,,,2,1.0,0.0,b,63.0,1.0,4.334629553,1.84422311,None,412.2577376999998,None,414.10426610000013,None,414.10426610000013,None,414.10175604999995,None,None,414.10426610000013,None,['b'],[1.33489709999958],416.08534320000035,None,b,3.33489709999958,1,1,0.6764705882352942,420.40549809999993,None,None,420.40549809999993,None,,,,,,,,,,,,,,,,,,,,CBC_1006,001,1,3,7,8,0.95,2023-06-03_11h59.24.512,MSI_AV_v3,2022.1.1,59.98541154790473,
34,0,34,0,,,,,,,,,,1,1.0,0.0,z,63.0,0.0,2.208904638,2.684881281,None,422.4183205999998,None,425.1222909999997,None,425.1222909999997,None,425.11849235,None,['z'],425.1222909999997,None,None,,427.12277059999997,None,z,1.2556080999993355,1,0,0.6857142857142857,429.3419149000001,None,None,429.3419149000001,None,,[1.2556080999993355],,,,,,,,,,,,,,,,,,CBC_1006,001,1,3,7,8,0.95,2023-06-03_11h59.24.512,MSI_AV_v3,2022.1.1,59.98541154790473,
35,0,35,0,,,,,,,,,,3,3.0,2.0,b,63.0,1.0,1.219965572,1.883772966,None,431.35155209999994,None,433.2563275000002,None,433.2563275000002,None,433.26857440000003,None,None,433.2563275000002,None,['z'],[0.6660538999994969],435.2353413999999,None,z,2.666053899999497,0,0,0.6666666666666666,436.4357272999996,None,None,436.4357272999996,None,,,,,,,,,,,,,,,,,,,,CBC_1006,001,1,3,7,8,0.95,2023-06-03_11h59.24.512,MSI_AV_v3,2022.1.1,59.98541154790473,
36,0,36,0,,,,,,,,,,2,2.0,1.0,z,9.0,1.0,4.176609572,2.108332021,None,438.4349990999999,None,440.5564621000003,None,440.5564621000003,None,440.5683131000005,None,None,440.5564621000003,None,['z'],[1.3808452000002944],442.53512630000023,None,z,3.3808452000002944,1,1,0.6756756756756757,446.6961517999998,None,None,446.6961517999998,None,,,,,,,,,,,,,,,,,,,,CBC_1006,001,1,3,7,8,0.95,2023-06-03_11h59.24.512,MSI_AV_v3,2022.1.1,59.98541154790473,
37,0,37,0,,,,,,,,,,1,0.0,2.0,b,27.0,1.0,3.478547126,2.7801224,None,448.7018423999998,None,451.48729280000043,None,451.48729280000043,None,451.48399960000006,None,None,451.48729280000043,None,['b'],[0.8327542999995785],453.4682965000002,None,b,2.8327542999995785,1,1,0.6842105263157895,456.9440378999998,None,None,456.9440378999998,None,,,,,,,,,,,,,,,,,,,,CBC_1006,001,1,3,7,8,0.95,2023-06-03_11h59.24.512,MSI_AV_v3,2022.1.1,59.98541154790473,
38,0,38,0,,,,,,,,,,0,3.0,2.0,z,63.0,1.0,4.309752164,2.648704933,None,458.95199049999974,None,461.6072740999998,None,461.6072740999998,None,461.6175816500004,None,None,461.6072740999998,None,['b'],[0.11759230000006937],463.5850739999996,None,b,2.1175923000000694,0,0,0.6666666666666666,467.8787946000002,None,None,467.8787946000002,None,,,,,,,,,,,,,,,,,,,,CBC_1006,001,1,3,7,8,0.95,2023-06-03_11h59.24.512,MSI_AV_v3,2022.1.1,59.98541154790473,
39,0,39,0,,,,,,,,,,3,3.0,1.0,b,27.0,1.0,2.372527466,2.935368129,None,469.8851474000003,None,472.83932280000045,None,472.83932280000045,None,472.83512285000006,None,['b'],472.83932280000045,None,None,,474.81887389999974,None,b,1.4629608999994161,1,1,0.675,477.2012421999998,None,None,477.2012421999998,None,,[1.4629608999994161],,,,,,,,,,,,,,,,,,CBC_1006,001,1,3,7,8,0.95,2023-06-03_11h59.24.512,MSI_AV_v3,2022.1.1,59.98541154790473,
40,0,40,0,,,,,,,,,,1,1.0,0.0,z,63.0,1.0,2.67601813,2.495793893,None,479.2021285999999,None,481.7056673999996,None,481.7056673999996,None,481.70184505000043,None,['z'],481.7056673999996,None,None,,483.7009172999997,None,z,1.4372522999992725,1,1,0.6829268292682927,486.37562199999957,None,None,486.37562199999957,None,,[1.4372522999992725],,,,,,,,,,,,,,,,,,CBC_1006,001,1,3,7,8,0.95,2023-06-03_11h59.24.512,MSI_AV_v3,2022.1.1,59.98541154790473,
41,0,41,0,,,,,,,,,,0,2.0,0.0,b,27.0,1.0,1.887650177,1.378098418,None,488.3853246999997,None,489.7574983000004,None,489.7574983000004,None,489.76798885000017,None,None,489.7574983000004,None,['b'],[0.9706699999996999],491.73523490000025,None,b,2.9706699999997,1,1,0.6904761904761905,493.6190594999998,None,None,493.6190594999998,None,,,,,,,,,,,,,,,,,,,,CBC_1006,001,1,3,7,8,0.95,2023-06-03_11h59.24.512,MSI_AV_v3,2022.1.1,59.98541154790473,
42,0,42,0,,,,,,,,,,3,2.0,3.0,z,63.0,1.0,2.949122761,1.483424551,None,495.6185499000003,None,497.12358550000044,None,497.12358550000044,None,497.13534530000015,None,['z'],497.12358550000044,None,None,,499.11803940000027,None,z,1.4125458999997136,1,1,0.6976744186046512,502.07605760000024,None,None,502.07605760000024,None,,[1.4125458999997136],,,,,,,,,,,,,,,,,,CBC_1006,001,1,3,7,8,0.95,2023-06-03_11h59.24.512,MSI_AV_v3,2022.1.1,59.98541154790473,
43,0,43,0,,,,,,,,,,2,0.0,1.0,z,63.0,1.0,2.518459073,1.53162701,None,504.0855191999999,None,505.6191050999996,None,505.6191050999996,None,505.6177786999997,None,None,505.6191050999996,None,['z'],[0.23342979999961244],507.601987,None,z,2.2334297999996124,1,1,0.7045454545454546,510.11245580000013,None,None,510.11245580000013,None,,,,,,,,,,,,,,,,,,,,CBC_1006,001,1,3,7,8,0.95,2023-06-03_11h59.24.512,MSI_AV_v3,2022.1.1,59.98541154790473,
,,,,,,,,,,,,,,,,,,,,,,,,,,,,,,,,,,,,,,,,,,,,,,,,,None,512.1190709000002,None,,,,,,,,,,,,,,,CBC_1006,001,1,3,7,8,0.95,2023-06-03_11h59.24.512,MSI_AV_v3,2022.1.1,59.98541154790473,
,,,,,,,,,,,,,,,,,,,,,,,,,,,,,,,,,,,,,,,,,,,,,,,,,,,,517.1190475000003,None,None,517.1190475000003,None,,,,,,,,,,CBC_1006,001,1,3,7,8,0.95,2023-06-03_11h59.24.512,MSI_AV_v3,2022.1.1,59.98541154790473,
,,,,,,,,,,,,,,,,,,,,,,,,,,,,,,,,,,,,,,,,,,,,,,,,,,,,,,,,,z,b,hard,"[0, 1, 2, 3]","[1, 2, 0, 3]",0.45454545454545453,0.6363636363636364,0.9090909090909091,0.8181818181818182,,,,,,,,,,,,
