trials_runs.thisRepN,trials_runs.thisTrialN,trials_runs.thisN,trials_runs.thisIndex,standbild_start.started,standbild_start.stopped,trigger.keys,trigger.rt,trigger.started,trigger.stopped,keys_2.keys,keys_2.started,keys_2.stopped,trials_runs.tactile_stim,trials_runs.visual_stim_left,trials_runs.visual_stim_right,trials_runs.correctKey,trials_runs.presentationFrequncy,trials_runs.FBaccuracy,trials_runs.ISI_s,trials_runs.ITI_s,keys_3.keys,keys_3.rt,keys_3.started,keys_3.stopped,image_stim_left.started,image_stim_right.started,tactile.started,response_4.keys,allKeys.keys,response_5.keys,response_5.rt,response_5.started,response_5.stopped,response_runs.keys,response_runs.rt,trials_runs.correct_answer,trials_runs.feedback_given,trials_runs.running_mean,feedback_6.stopped,feedback_6.started,keys_6.keys,keys_6.started,keys_6.stopped,response_4.rt,allKeys.rt,keys_7.keys,keys_7.started,keys_7.stopped,standbild_end.started,standbild_end.stopped,Stop_exp.keys,Stop_exp.started,Stop_exp.stopped,trials_runs.rightKey,trials_runs.leftKey,ts_difficulty,visualPair,tactilePair,trials_runs.mean_acc_1stFourth,trials_runs.mean_acc_2ndFourth,trials_runs.mean_acc_3rdFourth,trials_runs.mean_acc_4thFourth,nbCorrect,nbOmissions,nbIncorrect,participant,session,visual set [1-6],tactile set [1-3],trial structure [0-3 / 4-7],pairing [0-23],prob Feedback,date,expName,psychopyVersion,frameRate,
,,,,28.404735199999777,None,t,61.464348399999835,28.404735199999777,None,,,,,,,,,,,,,,,,,,,,,,,,,,,,,,,,,,,,,,,,,,,,,,,,,,,,,,,,,CBC_1054,1,5,2,2,7,0.95,2024-03-03_10h27.49.019,MSI_TV_v3,2022.1.1,60.03204510540935,
,,,,,,,,,,None,89.89481789999991,None,,,,,,,,,,,,,,,,,,,,,,,,,,,,,,,,,,,,,,,,,,,,,,,,,,,,,,CBC_1054,1,5,2,2,7,0.95,2024-03-03_10h27.49.019,MSI_TV_v3,2022.1.1,60.03204510540935,
0,0,0,0,,,,,,,,,,1,0,1,b,63,1,4.46924002178158,3.40155979865722,['b'],[2.5688137000006463],90.09499940000023,None,93.4779783600001,93.4779783600001,93.4945919599999,None,[],['b'],[0.2746069000013449],95.49015409999993,None,b,2.274606900001345,1,1,1.0,None,99.97436389999984,None,99.97436389999984,None,,,,,,,,,,,,,,,,,,,,,,,CBC_1054,1,5,2,2,7,0.95,2024-03-03_10h27.49.019,MSI_TV_v3,2022.1.1,60.03204510540935,
1,0,1,0,,,,,,,,,,2,2,3,z,63,1,4.61004669244928,1.43470440954152,None,,101.77818109999953,None,103.1945902599995,103.1945902599995,103.21141896000009,None,[],['z'],[0.6564007000006313],105.19853599999988,None,z,2.6564007000006313,1,1,1.0,None,109.81344399999944,None,109.81344399999944,None,,,,,,,,,,,,,,,,,,,,,,,CBC_1054,1,5,2,2,7,0.95,2024-03-03_10h27.49.019,MSI_TV_v3,2022.1.1,60.03204510540935,
2,0,2,0,,,,,,,,,,3,0,2,z,27,1,4.12485271162806,1.53122835510861,None,,111.62819560000025,None,113.14510855999961,113.14510855999961,113.16176975999988,None,[],['z'],[0.767120800000157],115.1476318999994,None,z,2.767120800000157,1,1,1.0,None,119.27087019999999,None,119.27087019999999,None,,,,,,,,,,,,,,,,,,,,,,,CBC_1054,1,5,2,2,7,0.95,2024-03-03_10h27.49.019,MSI_TV_v3,2022.1.1,60.03204510540935,
3,0,3,0,,,,,,,,,,1,0,1,b,63,1,3.73326136168326,1.64421109900286,None,,121.07844909999949,None,122.69470825999943,122.69470825999943,122.71133885999953,None,[],['z'],[0.08436930000061693],124.69856340000024,None,z,2.084369300000617,0,0,0.75,None,128.41933319999953,None,128.41933319999953,None,,,,,,,,,,,,,,,,,,,,,,,CBC_1054,1,5,2,2,7,0.95,2024-03-03_10h27.49.019,MSI_TV_v3,2022.1.1,60.03204510540935,
4,0,4,0,,,,,,,,,,0,1,3,b,27,1,3.3728785608729996,1.38289892513751,None,,130.22791379999944,None,131.59519135999963,131.59519135999963,131.61124736000002,None,[],['b'],[1.027758600001107],133.59923749999962,None,b,3.027758600001107,1,1,0.8,None,136.96260470000016,None,136.96260470000016,None,,,,,,,,,,,,,,,,,,,,,,,CBC_1054,1,5,2,2,7,0.95,2024-03-03_10h27.49.019,MSI_TV_v3,2022.1.1,60.03204510540935,
5,0,5,0,,,,,,,,,,3,3,2,z,63,1,2.7134565917469198,1.1243895841892,None,,138.77830730000005,None,139.87820116000003,139.87820116000003,139.89494426000002,None,[],['z'],[0.6021295000000464],141.8832897000002,None,z,2.6021295000000464,1,1,0.8333333333333334,None,144.59221419999994,None,144.59221419999994,None,,,,,,,,,,,,,,,,,,,,,,,CBC_1054,1,5,2,2,7,0.95,2024-03-03_10h27.49.019,MSI_TV_v3,2022.1.1,60.03204510540935,
6,0,6,0,,,,,,,,,,2,3,2,b,63,1,2.678526077912375,1.90743690794447,None,,146.3945862999999,None,148.27782465999954,148.27782465999954,148.29475906000008,None,[],['b'],[0.05612420000034035],150.28275380000014,None,b,2.0561242000003404,1,1,0.8571428571428571,None,152.95220989999962,None,152.95220989999962,None,,,,,,,,,,,,,,,,,,,,,,,CBC_1054,1,5,2,2,7,0.95,2024-03-03_10h27.49.019,MSI_TV_v3,2022.1.1,60.03204510540935,
7,0,7,0,,,,,,,,,,0,0,1,z,63,1,2.666404967794728,0.917519910446003,None,,154.76139129999956,None,155.6614398599999,155.6614398599999,155.67782385999945,None,[],['z'],[0.15701270000045042],157.6681652999996,None,z,2.1570127000004504,1,1,0.875,None,160.3255532000003,None,160.3255532000003,None,,,,,,,,,,,,,,,,,,,,,,,CBC_1054,1,5,2,2,7,0.95,2024-03-03_10h27.49.019,MSI_TV_v3,2022.1.1,60.03204510540935,
8,0,8,0,,,,,,,,,,1,2,0,z,27,1,3.2062024266105302,2.15533949826702,None,,162.12837769999987,None,164.2613741600002,164.2613741600002,164.27792256000012,None,[],['b'],[0.7982312000003731],166.2651691000001,None,b,2.798231200000373,0,0,0.7777777777777778,None,169.47179099999994,None,169.47179099999994,None,,,,,,,,,,,,,,,,,,,,,,,CBC_1054,1,5,2,2,7,0.95,2024-03-03_10h27.49.019,MSI_TV_v3,2022.1.1,60.03204510540935,
9,0,9,0,,,,,,,,,,2,3,0,b,9,1,2.592312596923728,1.25817747924478,None,,171.27806940000028,None,172.51143085999993,172.51143085999993,172.52857775999965,None,[],['z'],[1.0741366000002017],174.51738130000012,None,z,3.0741366000002017,0,0,0.7,None,177.10443269999996,None,177.10443269999996,None,,,,,,,,,,,,,,,,,,,,,,,CBC_1054,1,5,2,2,7,0.95,2024-03-03_10h27.49.019,MSI_TV_v3,2022.1.1,60.03204510540935,
10,0,10,0,,,,,,,,,,3,2,3,b,63,1,2.91303524001082,1.21250262048173,None,,178.91163039999992,None,180.09509266000023,180.09509266000023,180.1118355599996,None,[],['b'],[1.0689770999997563],182.09856630000013,None,b,3.0689770999997563,1,1,0.7272727272727273,None,185.02667819999988,None,185.02667819999988,None,,,,,,,,,,,,,,,,,,,,,,,CBC_1054,1,5,2,2,7,0.95,2024-03-03_10h27.49.019,MSI_TV_v3,2022.1.1,60.03204510540935,
11,0,11,0,,,,,,,,,,0,0,1,z,63,1,4.77034425507967,2.78346932462847,None,,186.82843030000004,None,189.59490145999953,189.59490145999953,189.6120164600001,None,[],['z'],[0.3369421000006696],191.59942769999998,None,z,2.3369421000006696,1,1,0.75,None,196.36900009999954,None,196.36900009999954,None,,,,,,,,,,,,,,,,,,,,,,,CBC_1054,1,5,2,2,7,0.95,2024-03-03_10h27.49.019,MSI_TV_v3,2022.1.1,60.03204510540935,
12,0,12,0,,,,,,,,,,2,2,3,z,63,1,3.7500315165247198,2.96653053743745,None,,198.1786216999999,None,201.12852505999982,201.12852505999982,201.14505325999963,None,[],['b'],[0.6677503999999317],203.13414209999974,None,b,2.6677503999999317,0,0,0.6923076923076923,None,206.88031599999977,None,206.88031599999977,None,,,,,,,,,,,,,,,,,,,,,,,CBC_1054,1,5,2,2,7,0.95,2024-03-03_10h27.49.019,MSI_TV_v3,2022.1.1,60.03204510540935,
13,0,13,0,,,,,,,,,,3,2,3,b,63,1,2.6391747348430608,1.25920145784721,None,,208.6949571999994,None,209.92827785999944,209.92827785999944,209.9449917599999,None,[],['b'],[0.9694245999999112],211.93355859999974,None,b,2.969424599999911,1,1,0.7142857142857143,None,214.57182250000005,None,214.57182250000005,None,,,,,,,,,,,,,,,,,,,,,,,CBC_1054,1,5,2,2,7,0.95,2024-03-03_10h27.49.019,MSI_TV_v3,2022.1.1,60.03204510540935,
14,0,14,0,,,,,,,,,,0,3,1,z,27,1,2.526044641065533,0.974903167432984,None,,216.378103,None,217.32825746000017,217.32825746000017,217.34493116000013,None,[],['z'],[0.391246900000624],219.33361289999993,None,z,2.391246900000624,1,1,0.7333333333333333,None,221.8613134999996,None,221.8613134999996,None,,,,,,,,,,,,,,,,,,,,,,,CBC_1054,1,5,2,2,7,0.95,2024-03-03_10h27.49.019,MSI_TV_v3,2022.1.1,60.03204510540935,
15,0,15,0,,,,,,,,,,1,0,3,b,9,1,4.53337421950507,1.94858485820231,None,,223.66170770000008,None,225.59491245999962,225.59491245999962,225.61203205999973,b,['b'],None,,227.63875610000014,None,b,1.7707922999998118,1,1,0.75,None,232.17484109999987,None,232.17484109999987,None,1.7707922999998118,[1.7707922999998118],,,,,,,,,,,,,,,,,,,,,CBC_1054,1,5,2,2,7,0.95,2024-03-03_10h27.49.019,MSI_TV_v3,2022.1.1,60.03204510540935,
16,0,16,0,,,,,,,,,,2,2,3,z,63,1,2.92731383428727,0.80788063606262,None,,233.9787970999996,None,234.76162345999947,234.76162345999947,234.77818066,None,[],['b'],[1.03768780000064],236.7676719000001,None,b,3.03768780000064,0,0,0.7058823529411765,None,239.69667729999946,None,239.69667729999946,None,,,,,,,,,,,,,,,,,,,,,,,CBC_1054,1,5,2,2,7,0.95,2024-03-03_10h27.49.019,MSI_TV_v3,2022.1.1,60.03204510540935,
17,0,17,0,,,,,,,,,,3,0,2,z,27,1,2.342239579230602,2.10421507306074,None,,241.51161109999975,None,243.59497385999967,243.59497385999967,243.61227305999947,z,['z'],None,,245.63880280000012,None,z,1.8496317000008275,1,1,0.7222222222222222,None,247.99019339999995,None,247.99019339999995,None,1.8496317000008275,[1.8496317000008275],,,,,,,,,,,,,,,,,,,,,CBC_1054,1,5,2,2,7,0.95,2024-03-03_10h27.49.019,MSI_TV_v3,2022.1.1,60.03204510540935,
18,0,18,0,,,,,,,,,,1,0,1,b,63,1,3.76873691643126,1.78643585472448,None,,249.79504859999997,None,251.56159705999963,251.56159705999963,251.5784397599995,None,[],['b'],[0.3171790000005785],253.5669882000002,None,b,2.3171790000005785,1,1,0.7368421052631579,None,257.3267507999999,None,257.3267507999999,None,,,,,,,,,,,,,,,,,,,,,,,CBC_1054,1,5,2,2,7,0.95,2024-03-03_10h27.49.019,MSI_TV_v3,2022.1.1,60.03204510540935,
19,0,19,0,,,,,,,,,,0,1,0,b,63,0,2.517541937862754,1.12425433982333,None,,259.1283894999997,None,260.2286576600003,260.2286576600003,260.24487845999954,None,[],['z'],[1.1427561000009518],262.2318200999998,None,z,3.142756100000952,0,1,0.7,None,264.73378090000006,None,264.73378090000006,None,,,,,,,,,,,,,,,,,,,,,,,CBC_1054,1,5,2,2,7,0.95,2024-03-03_10h27.49.019,MSI_TV_v3,2022.1.1,60.03204510540935,
20,0,20,0,,,,,,,,,,2,3,1,b,27,1,3.68371079902891,1.27538462653558,None,,266.54498820000026,None,267.7949613599998,267.7949613599998,267.8116970599998,None,[],['z'],[0.6649654000002556],269.8003214999999,None,z,2.6649654000002556,0,0,0.6666666666666666,None,273.4954667000002,None,273.4954667000002,None,,,,,,,,,,,,,,,,,,,,,,,CBC_1054,1,5,2,2,7,0.95,2024-03-03_10h27.49.019,MSI_TV_v3,2022.1.1,60.03204510540935,
21,0,21,0,,,,,,,,,,3,3,2,z,63,1,2.629554641171433,1.96568735158996,None,,275.29488760000004,None,277.24535565999975,277.24535565999975,277.2623474599999,z,['z'],None,,279.29021589999957,None,z,1.314439200000379,1,1,0.6818181818181818,None,281.9239020999994,None,281.9239020999994,None,1.314439200000379,[1.314439200000379],,,,,,,,,,,,,,,,,,,,,CBC_1054,1,5,2,2,7,0.95,2024-03-03_10h27.49.019,MSI_TV_v3,2022.1.1,60.03204510540935,
22,0,22,0,,,,,,,,,,0,0,1,z,63,1,3.71372710086949,1.34668860557497,None,,283.72841359999984,None,285.0618768600001,285.0618768600001,285.07848865999983,None,[],['b'],[1.1367393000009542],287.0674042999999,None,b,3.1367393000009542,0,0,0.6521739130434783,None,290.7664519,None,290.7664519,None,,,,,,,,,,,,,,,,,,,,,,,CBC_1054,1,5,2,2,7,0.95,2024-03-03_10h27.49.019,MSI_TV_v3,2022.1.1,60.03204510540935,
23,0,23,0,,,,,,,,,,1,0,2,b,27,1,3.02234236141277,3.4543169006169,None,,292.57848659999945,None,296.0118413599997,296.0118413599997,296.0285081599999,None,[],['z'],[0.10947050000049785],298.01544899999953,None,z,2.109470500000498,0,0,0.625,None,301.0446535000001,None,301.0446535000001,None,,,,,,,,,,,,,,,,,,,,,,,CBC_1054,1,5,2,2,7,0.95,2024-03-03_10h27.49.019,MSI_TV_v3,2022.1.1,60.03204510540935,
24,0,24,0,,,,,,,,,,2,3,2,b,63,1,4.82531807167306,3.1963008326951,None,,302.8451814,None,306.02850546000025,306.02850546000025,306.0450498599997,None,[],['z'],[0.7077801000004911],308.03316970000014,None,z,2.707780100000491,0,0,0.6,None,312.8486385999995,None,312.8486385999995,None,,,,,,,,,,,,,,,,,,,,,,,CBC_1054,1,5,2,2,7,0.95,2024-03-03_10h27.49.019,MSI_TV_v3,2022.1.1,60.03204510540935,
25,0,25,0,,,,,,,,,,3,0,2,z,27,1,3.26539063535182,0.952147612306987,None,,314.6617094000003,None,315.59508825999944,315.59508825999944,315.61178615999995,None,[],None,,317.59999009999956,None,None,[],0,3,0.5769230769230769,None,320.88871759999984,None,320.88871759999984,None,,,,,,,,,,,,,,,,,,,,,,,CBC_1054,1,5,2,2,7,0.95,2024-03-03_10h27.49.019,MSI_TV_v3,2022.1.1,60.03204510540935,
26,0,26,0,,,,,,,,,,0,0,1,z,63,1,4.77723667052879,3.24569326556923,None,,322.6617685000001,None,325.8951668599997,325.8951668599997,325.91187495999964,z,['z'],None,,327.9385287999994,None,z,1.3444158000002062,1,1,0.5925925925925926,None,332.7245683000001,None,332.7245683000001,None,1.3444158000002062,[1.3444158000002062],,,,,,,,,,,,,,,,,,,,,CBC_1054,1,5,2,2,7,0.95,2024-03-03_10h27.49.019,MSI_TV_v3,2022.1.1,60.03204510540935,
27,0,27,0,,,,,,,,,,1,1,0,z,63,1,2.2759877950103027,1.36309078069689,None,,334.52857200000017,None,335.87924186,335.87924186,335.89507485999945,z,['z'],None,,337.9232032,None,z,1.4735270999999557,1,1,0.6071428571428571,None,340.2056819999998,None,340.2056819999998,None,1.4735270999999557,[1.4735270999999557],,,,,,,,,,,,,,,,,,,,,CBC_1054,1,5,2,2,7,0.95,2024-03-03_10h27.49.019,MSI_TV_v3,2022.1.1,60.03204510540935,
28,0,28,0,,,,,,,,,,3,2,3,b,63,1,4.7533305109883095,1.52290599571961,None,,342.0120287,None,343.51200155999993,343.51200155999993,343.52818825999964,None,[],None,,345.51377929999944,None,None,[],0,3,0.5862068965517241,None,350.2717327999999,None,350.2717327999999,None,,,,,,,,,,,,,,,,,,,,,,,CBC_1054,1,5,2,2,7,0.95,2024-03-03_10h27.49.019,MSI_TV_v3,2022.1.1,60.03204510540935,
29,0,29,0,,,,,,,,,,2,1,3,z,27,1,4.190022164497369,3.06992456303453,None,,352.0786951,None,355.1285841599996,355.1285841599996,355.14525145999994,None,[],['z'],[0.32282910000049014],357.13603909999983,None,z,2.32282910000049,1,1,0.6,None,361.3120312000001,None,361.3120312000001,None,,,,,,,,,,,,,,,,,,,,,,,CBC_1054,1,5,2,2,7,0.95,2024-03-03_10h27.49.019,MSI_TV_v3,2022.1.1,60.03204510540935,
30,0,30,0,,,,,,,,,,1,0,1,b,63,1,2.433630701072358,0.77703640172831,None,,363.11202570000023,None,363.87860515999944,363.87860515999944,363.8952399599997,None,[],['z'],[1.7867117000005237],365.88435239999944,None,z,3.7867117000005237,0,0,0.5806451612903226,None,368.31081639999957,None,368.31081639999957,None,,,,,,,,,,,,,,,,,,,,,,,CBC_1054,1,5,2,2,7,0.95,2024-03-03_10h27.49.019,MSI_TV_v3,2022.1.1,60.03204510540935,
31,0,31,0,,,,,,,,,,2,2,3,z,63,1,3.6438386551209,2.22427187882546,None,,370.1118445000002,None,372.31203545999995,372.31203545999995,372.3288569600003,None,[],['z'],[0.12471720000030473],374.31673390000014,None,z,2.1247172000003047,1,1,0.59375,None,377.9528120999994,None,377.9528120999994,None,,,,,,,,,,,,,,,,,,,,,,,CBC_1054,1,5,2,2,7,0.95,2024-03-03_10h27.49.019,MSI_TV_v3,2022.1.1,60.03204510540935,
32,0,32,0,,,,,,,,,,0,1,2,b,9,1,2.496959177995529,1.95130344756745,None,,379.7620533999998,None,381.69497136000007,381.69497136000007,381.71189855999944,b,['b'],None,,383.73709080000026,None,b,1.4762019000008877,1,1,0.6060606060606061,None,386.24161279999953,None,386.24161279999953,None,1.4762019000008877,[1.4762019000008877],,,,,,,,,,,,,,,,,,,,,CBC_1054,1,5,2,2,7,0.95,2024-03-03_10h27.49.019,MSI_TV_v3,2022.1.1,60.03204510540935,
33,0,33,0,,,,,,,,,,1,0,1,b,63,1,4.11514536789087,2.49839527409216,None,,388.04538349999984,None,390.52895146000026,390.52895146000026,390.5454393599997,b,['b'],None,,392.5693505999998,None,b,1.5825571000004857,1,1,0.6176470588235294,None,396.6903505999999,None,396.6903505999999,None,1.5825571000004857,[1.5825571000004857],,,,,,,,,,,,,,,,,,,,,CBC_1054,1,5,2,2,7,0.95,2024-03-03_10h27.49.019,MSI_TV_v3,2022.1.1,60.03204510540935,
34,0,34,0,,,,,,,,,,3,1,2,z,9,1,2.693348633324513,3.33124983260532,None,,398.49578479999946,None,401.8120447599998,401.8120447599998,401.82872345999965,z,['z'],None,,403.85513509999964,None,z,1.5044611000002988,1,1,0.6285714285714286,None,406.5587052000001,None,406.5587052000001,None,1.5044611000002988,[1.5044611000002988],,,,,,,,,,,,,,,,,,,,,CBC_1054,1,5,2,2,7,0.95,2024-03-03_10h27.49.019,MSI_TV_v3,2022.1.1,60.03204510540935,
35,0,35,0,,,,,,,,,,0,0,1,z,63,1,2.82320408183943,1.60731937853708,None,,408.3620215000001,None,409.9455043599995,409.9455043599995,409.9621564599996,z,['z'],None,,411.9885459999996,None,z,1.2660637000008137,1,1,0.6388888888888888,None,414.8249429999996,None,414.8249429999996,None,1.2660637000008137,[1.2660637000008137],,,,,,,,,,,,,,,,,,,,,CBC_1054,1,5,2,2,7,0.95,2024-03-03_10h27.49.019,MSI_TV_v3,2022.1.1,60.03204510540935,
36,0,36,0,,,,,,,,,,1,1,0,z,63,0,2.792365600763554,3.1424449555106,None,,416.62904739999976,None,419.74584765999987,419.74584765999987,419.76244066000015,None,[],['z'],[0.1894731000002139],421.75015689999964,None,z,2.189473100000214,1,0,0.6486486486486487,None,424.5346030999999,None,424.5346030999999,None,,,,,,,,,,,,,,,,,,,,,,,CBC_1054,1,5,2,2,7,0.95,2024-03-03_10h27.49.019,MSI_TV_v3,2022.1.1,60.03204510540935,
37,0,37,0,,,,,,,,,,0,1,0,b,63,1,3.35133458220192,2.40378712856304,None,,426.3456335999999,None,428.7291055600002,428.7291055600002,428.74574335999966,None,[],['b'],[0.031514600001173676],430.7342486999996,None,b,2.0315146000011737,1,1,0.6578947368421053,None,434.0759473999997,None,434.0759473999997,None,,,,,,,,,,,,,,,,,,,,,,,CBC_1054,1,5,2,2,7,0.95,2024-03-03_10h27.49.019,MSI_TV_v3,2022.1.1,60.03204510540935,
38,0,38,0,,,,,,,,,,2,3,1,b,27,1,2.294664843639333,1.53243550275999,None,,435.87846739999986,None,437.3956480599994,437.3956480599994,437.4121055600002,None,[],['b'],[0.37797150000096735],439.4002187999995,None,b,2.3779715000009674,1,1,0.6666666666666666,None,441.69037169999956,None,441.69037169999956,None,,,,,,,,,,,,,,,,,,,,,,,CBC_1054,1,5,2,2,7,0.95,2024-03-03_10h27.49.019,MSI_TV_v3,2022.1.1,60.03204510540935,
39,0,39,0,,,,,,,,,,3,2,3,b,63,1,4.40017271499661,0.979776149765883,None,,443.4959822999999,None,444.4623412599998,444.4623412599998,444.4789842599997,None,[],['z'],[1.445246600000246],446.4681623999995,None,z,3.445246600000246,0,0,0.65,None,450.85554299999967,None,450.85554299999967,None,,,,,,,,,,,,,,,,,,,,,,,CBC_1054,1,5,2,2,7,0.95,2024-03-03_10h27.49.019,MSI_TV_v3,2022.1.1,60.03204510540935,
40,0,40,0,,,,,,,,,,1,2,0,z,27,1,3.31929419319838,2.09887870490381,None,,452.6623295999998,None,454.7457263600003,454.7457263600003,454.7622315599996,None,[],['b'],[0.11779280000064318],456.7516300999996,None,b,2.117792800000643,0,0,0.6341463414634146,None,460.07295369999974,None,460.07295369999974,None,,,,,,,,,,,,,,,,,,,,,,,CBC_1054,1,5,2,2,7,0.95,2024-03-03_10h27.49.019,MSI_TV_v3,2022.1.1,60.03204510540935,
41,0,41,0,,,,,,,,,,2,3,2,b,63,1,4.72585056748869,2.6299100644723,None,,461.8791020999997,None,464.4957409599996,464.4957409599996,464.51254105999976,None,[],['z'],[0.8822945000010805],466.5004737999998,None,z,2.8822945000010805,0,0,0.6190476190476191,None,471.2121296999994,None,471.2121296999994,None,,,,,,,,,,,,,,,,,,,,,,,CBC_1054,1,5,2,2,7,0.95,2024-03-03_10h27.49.019,MSI_TV_v3,2022.1.1,60.03204510540935,
42,0,42,0,,,,,,,,,,0,3,1,z,27,1,4.01714354611405,0.761758675042088,None,,473.0120608999996,None,473.7627538599994,473.7627538599994,473.77924836,z,['z'],None,,475.8035863999994,None,z,1.3688668000004327,1,1,0.627906976744186,None,479.8257208999994,None,479.8257208999994,None,1.3688668000004327,[1.3688668000004327],,,,,,,,,,,,,,,,,,,,,CBC_1054,1,5,2,2,7,0.95,2024-03-03_10h27.49.019,MSI_TV_v3,2022.1.1,60.03204510540935,
43,0,43,0,,,,,,,,,,3,2,3,b,63,1,4.52047235037039,1.18065738546375,None,,481.62914269999965,None,482.79580485999975,482.79580485999975,482.81295076000004,b,['b'],None,,484.8410882999997,None,b,1.314142000001084,1,1,0.6363636363636364,None,489.3740742,None,489.3740742,None,1.314142000001084,[1.314142000001084],,,,,,,,,,,,,,,,,,,,,CBC_1054,1,5,2,2,7,0.95,2024-03-03_10h27.49.019,MSI_TV_v3,2022.1.1,60.03204510540935,
,,,,,,,,,,,,,,,,,,,,,,,,,,,,,,,,,,,,,,,,,,,,,,None,491.1792005999996,None,,,,,,,,,,,,,,,,,,CBC_1054,1,5,2,2,7,0.95,2024-03-03_10h27.49.019,MSI_TV_v3,2022.1.1,60.03204510540935,
,,,,,,,,,,,,,,,,,,,,,,,,,,,,,,,,,,,,,,,,,,,,,,,,,496.16247740000017,None,None,496.16247740000017,501.14592600000014,,,,,,,,,,,,,CBC_1054,1,5,2,2,7,0.95,2024-03-03_10h27.49.019,MSI_TV_v3,2022.1.1,60.03204510540935,
,,,,,,,,,,,,,,,,,,,,,,,,,,,,,,,,,,,,,,,,,,,,,,,,,,,,,,z,b,hard,"[0, 1, 2, 3]","[1, 0, 3, 2]",0.7272727272727273,0.6363636363636364,0.45454545454545453,0.7272727272727273,28,2,14,,,,,,,,,,,,
