trials_runs.thisRepN,trials_runs.thisTrialN,trials_runs.thisN,trials_runs.thisIndex,standbild_start.started,standbild_start.stopped,trigger.keys,trigger.rt,trigger.started,trigger.stopped,keys_2.keys,keys_2.started,keys_2.stopped,trials_runs.tactile_stim,trials_runs.visual_stim_left,trials_runs.visual_stim_right,trials_runs.correctKey,trials_runs.presentationFrequncy,trials_runs.FBaccuracy,trials_runs.ISI_s,trials_runs.ITI_s,keys_3.keys,keys_3.started,keys_3.stopped,image_stim_left.started,image_stim_right.started,tactile.started,response_4.keys,allKeys.keys,response_5.keys,response_5.rt,response_5.started,response_5.stopped,response_runs.keys,response_runs.rt,trials_runs.correct_answer,trials_runs.feedback_given,trials_runs.running_mean,feedback_6.stopped,feedback_6.started,keys_6.keys,keys_6.started,keys_6.stopped,response_4.rt,allKeys.rt,keys_6.rt,keys_7.keys,keys_7.started,keys_7.stopped,standbild_end.started,standbild_end.stopped,Stop_exp.keys,Stop_exp.started,Stop_exp.stopped,trials_runs.rightKey,trials_runs.leftKey,ts_difficulty,visualPair,tactilePair,trials_runs.mean_acc_1stFourth,trials_runs.mean_acc_2ndFourth,trials_runs.mean_acc_3rdFourth,trials_runs.mean_acc_4thFourth,participant,session,visual set [1-6],tactile set [1-3],trial structure [0-3 / 4-7],pairing [0-23],prob Feedback,date,expName,psychopyVersion,frameRate,
,,,,274.612821499999,None,t,63.84701530000166,274.612821499999,None,,,,,,,,,,,,,,,,,,,,,,,,,,,,,,,,,,,,,,,,,,,,,,,,,,,,,,CBC_1007,006,1,3,2,4,0.95,2023-06-21_16h50.43.207,MSI_TV_v3,2022.1.1,59.777901186250055,
,,,,,,,,,,None,338.4811432000006,None,,,,,,,,,,,,,,,,,,,,,,,,,,,,,,,,,,,,,,,,,,,,,,,,,,,CBC_1007,006,1,3,2,4,0.95,2023-06-21_16h50.43.207,MSI_TV_v3,2022.1.1,59.777901186250055,
0,0,0,0,,,,,,,,,,0,0,1,b,63,1,2.117809983,2.349749758,None,338.6814293000007,None,341.01427035999984,341.01427035999984,341.0309263599996,None,[],['z'],[0.034047900000587106],343.02377739999974,None,z,2.034047900000587,0,0,0.0,None,345.14084100000036,None,345.14084100000036,None,,,,,,,,,,,,,,,,,,,,,CBC_1007,006,1,3,2,4,0.95,2023-06-21_16h50.43.207,MSI_TV_v3,2022.1.1,59.777901186250055,
1,0,1,0,,,,,,,,,,2,2,3,z,63,1,3.478547126,0.977134615,None,347.14748449999934,None,348.09839026000043,348.09839026000043,348.1143189599992,None,[],['b'],[0.4215524999999616],350.1016199000005,None,b,2.4215524999999616,0,0,0.0,None,353.57856100000026,None,353.57856100000026,None,,,,,,,,,,,,,,,,,,,,,CBC_1007,006,1,3,2,4,0.95,2023-06-21_16h50.43.207,MSI_TV_v3,2022.1.1,59.777901186250055,
2,0,2,0,,,,,,,,,,1,0,2,z,27,1,1.6718976049999998,2.648704933,None,355.5811883999995,None,358.21446476000017,358.21446476000017,358.2310360599989,None,[],['z'],[0.5868654000005336],360.21762689999923,None,z,2.5868654000005336,1,1,0.3333333333333333,None,361.89300600000024,None,361.89300600000024,None,,,,,,,,,,,,,,,,,,,,,CBC_1007,006,1,3,2,4,0.95,2023-06-21_16h50.43.207,MSI_TV_v3,2022.1.1,59.777901186250055,
3,0,3,0,,,,,,,,,,0,0,1,b,63,1,2.232488062,1.448890429,None,363.89767459999894,None,365.3311919600004,365.3311919600004,365.34787335999897,None,[],['z'],[0.515209600001981],367.33378169999924,None,z,2.515209600001981,0,0,0.25,None,369.5745948999993,None,369.5745948999993,None,,,,,,,,,,,,,,,,,,,,,CBC_1007,006,1,3,2,4,0.95,2023-06-21_16h50.43.207,MSI_TV_v3,2022.1.1,59.777901186250055,
4,0,4,0,,,,,,,,,,3,1,3,b,27,1,4.196249082,1.75396268,None,371.5811293000006,None,373.31428835999975,373.31428835999975,373.3311712599992,None,[],['z'],[0.33534440000039467],375.3178576999999,None,z,2.3353444000003947,0,0,0.2,None,379.5171570000002,None,379.5171570000002,None,,,,,,,,,,,,,,,,,,,,,CBC_1007,006,1,3,2,4,0.95,2023-06-21_16h50.43.207,MSI_TV_v3,2022.1.1,59.777901186250055,
5,0,5,0,,,,,,,,,,1,3,2,z,63,1,2.917714675,2.071213329,None,381.53121660000033,None,383.58120755999914,383.58120755999914,383.5978582600004,None,[],['z'],[0.5517396000013832],385.5854068999997,None,z,2.5517396000013832,1,1,0.3333333333333333,None,388.51630250000017,None,388.51630250000017,None,,,,,,,,,,,,,,,,,,,,,CBC_1007,006,1,3,2,4,0.95,2023-06-21_16h50.43.207,MSI_TV_v3,2022.1.1,59.777901186250055,
6,0,6,0,,,,,,,,,,2,3,2,b,63,1,1.90573091,2.297139377,None,390.5311614000002,None,392.8143035599991,392.8143035599991,392.8308616599992,None,[],['b'],[0.324300400001448],394.81772079999973,None,b,2.324300400001448,1,1,0.42857142857142855,None,396.7274588,None,396.7274588,None,,,,,,,,,,,,,,,,,,,,,CBC_1007,006,1,3,2,4,0.95,2023-06-21_16h50.43.207,MSI_TV_v3,2022.1.1,59.777901186250055,
7,0,7,0,,,,,,,,,,3,0,1,z,63,1,2.397501916,1.142638656,None,398.73125040000014,None,399.84762816,399.84762816,399.86429996000004,None,[],['z'],[1.3468842000002041],401.85125340000013,None,z,3.346884200000204,1,1,0.5,None,404.25080779999917,None,404.25080779999917,None,,,,,,,,,,,,,,,,,,,,,CBC_1007,006,1,3,2,4,0.95,2023-06-21_16h50.43.207,MSI_TV_v3,2022.1.1,59.777901186250055,
8,0,8,0,,,,,,,,,,0,2,0,z,27,1,1.610581685,1.883772966,None,406.26449409999987,None,408.13107585999967,408.13107585999967,408.14806585999975,None,[],['z'],[0.6920919000003778],410.1349637000003,None,z,2.692091900000378,1,1,0.5555555555555556,None,411.75025409999944,None,411.75025409999944,None,,,,,,,,,,,,,,,,,,,,,CBC_1007,006,1,3,2,4,0.95,2023-06-21_16h50.43.207,MSI_TV_v3,2022.1.1,59.777901186250055,
9,0,9,0,,,,,,,,,,2,3,0,b,9,1,2.818459073,1.086048241,None,413.7642720999993,None,414.8307724600003,414.8307724600003,414.8474649599997,None,[],['b'],[0.17954090000057477],416.8338827000007,None,b,2.1795409000005748,1,1,0.6,None,419.6624862999997,None,419.6624862999997,None,,,,,,,,,,,,,,,,,,,,,CBC_1007,006,1,3,2,4,0.95,2023-06-21_16h50.43.207,MSI_TV_v3,2022.1.1,59.777901186250055,
10,0,10,0,,,,,,,,,,1,2,3,b,63,1,2.088920167,0.789129603,None,421.6645389999994,None,422.4314008599998,422.4314008599998,422.44789875999993,None,[],['b'],[0.8338551000015286],424.4334863999993,None,b,2.8338551000015286,1,1,0.6363636363636364,None,426.52621050000016,None,426.52621050000016,None,,,,,,,,,,,,,,,,,,,,,CBC_1007,006,1,3,2,4,0.95,2023-06-21_16h50.43.207,MSI_TV_v3,2022.1.1,59.777901186250055,
11,0,11,0,,,,,,,,,,3,0,1,z,63,1,1.219965572,1.08099246,None,428.5314087000006,None,429.5979260600001,429.5979260600001,429.6145339599992,z,['z'],None,,431.6392286999999,None,z,1.8596861000005447,1,1,0.6666666666666666,None,432.8587889999999,None,432.8587889999999,None,1.8596861000005447,[1.8596861000005447],,,,,,,,,,,,,,,,,,,CBC_1007,006,1,3,2,4,0.95,2023-06-21_16h50.43.207,MSI_TV_v3,2022.1.1,59.777901186250055,
12,0,12,0,,,,,,,,,,2,2,3,z,63,1,2.278602942,2.128027194,None,434.86417509999956,None,436.96501946000024,436.96501946000024,436.98072525999885,None,[],['z'],[0.11237790000086534],438.96724539999923,None,z,2.1123779000008653,1,1,0.6923076923076923,None,441.2444926999997,None,441.2444926999997,None,,,,,,,,,,,,,,,,,,,,,CBC_1007,006,1,3,2,4,0.95,2023-06-21_16h50.43.207,MSI_TV_v3,2022.1.1,59.777901186250055,
13,0,13,0,,,,,,,,,,1,2,3,b,63,1,1.543156518,2.234398566,None,443.24786759999915,None,445.4644751599993,445.4644751599993,445.4811832599993,None,[],['b'],[0.501172399999632],447.468326799999,None,b,2.501172399999632,1,1,0.7142857142857143,None,449.0197248000004,None,449.0197248000004,None,,,,,,,,,,,,,,,,,,,,,CBC_1007,006,1,3,2,4,0.95,2023-06-21_16h50.43.207,MSI_TV_v3,2022.1.1,59.777901186250055,
14,0,14,0,,,,,,,,,,3,3,1,z,27,1,3.044827724,2.495793893,None,451.0309216000005,None,453.49784276000025,453.49784276000025,453.5145833600003,z,['z'],None,,455.53951289999895,None,z,1.7596367000005557,1,1,0.7333333333333333,None,458.5925678000003,None,458.5925678000003,None,1.7596367000005557,[1.7596367000005557],,,,,,,,,,,,,,,,,,,CBC_1007,006,1,3,2,4,0.95,2023-06-21_16h50.43.207,MSI_TV_v3,2022.1.1,59.777901186250055,
15,0,15,0,,,,,,,,,,0,0,3,b,9,1,2.242058058,2.573610938,None,460.5978833999998,None,463.14787805999947,463.14787805999947,463.16496915999994,None,[],['b'],[0.7186096000004909],465.15194879999945,None,b,2.718609600000491,1,1,0.75,None,467.4004882999998,None,467.4004882999998,None,,,,,,,,,,,,,,,,,,,,,CBC_1007,006,1,3,2,4,0.95,2023-06-21_16h50.43.207,MSI_TV_v3,2022.1.1,59.777901186250055,
16,0,16,0,,,,,,,,,,2,2,3,z,63,1,4.309752164,3.276660373,None,469.4144956,None,472.66468896000003,472.66468896000003,472.6812096599991,z,['z'],None,,474.70812149999983,None,z,1.9452871000012237,1,1,0.7647058823529411,None,479.02552409999953,None,479.02552409999953,None,1.9452871000012237,[1.9452871000012237],,,,,,,,,,,,,,,,,,,CBC_1007,006,1,3,2,4,0.95,2023-06-21_16h50.43.207,MSI_TV_v3,2022.1.1,59.777901186250055,
17,0,17,0,,,,,,,,,,1,0,2,z,27,1,3.278108735,3.264468617,None,481.03098169999976,None,484.28118675999974,484.28118675999974,484.29777535999926,None,[],['z'],[0.8861890000007406],486.28359959999943,None,z,2.8861890000007406,1,1,0.7777777777777778,None,489.5649061999993,None,489.5649061999993,None,,,,,,,,,,,,,,,,,,,,,CBC_1007,006,1,3,2,4,0.95,2023-06-21_16h50.43.207,MSI_TV_v3,2022.1.1,59.777901186250055,
18,0,18,0,,,,,,,,,,0,0,1,b,63,1,4.268032915,1.293060736,None,491.5645585000002,None,492.8309598599993,492.8309598599993,492.8476391600001,None,[],['b'],[1.0949635000015405],494.8341251999991,None,b,3.0949635000015405,1,1,0.7894736842105263,None,499.1126036000005,None,499.1126036000005,None,,,,,,,,,,,,,,,,,,,,,CBC_1007,006,1,3,2,4,0.95,2023-06-21_16h50.43.207,MSI_TV_v3,2022.1.1,59.777901186250055,
19,0,19,0,,,,,,,,,,3,1,0,b,63,0,3.622505815,1.732943574,None,501.1143272999998,None,502.8310807599995,502.8310807599995,502.8477449599999,b,['b'],None,,504.87315800000033,None,b,1.8881580000015674,1,0,0.8,None,508.4904323999999,None,508.4904323999999,None,1.8881580000015674,[1.8881580000015674],,,,,,,,,,,,,,,,,,,CBC_1007,006,1,3,2,4,0.95,2023-06-21_16h50.43.207,MSI_TV_v3,2022.1.1,59.777901186250055,
20,0,20,0,,,,,,,,,,2,3,1,b,27,1,2.518459073,1.411911144,None,510.4979571999993,None,511.8811250599996,511.8811250599996,511.89779685999963,None,[],['b'],[0.21491299999979674],513.8851823000005,None,b,2.2149129999997967,1,1,0.8095238095238095,None,516.4129972999999,None,516.4129972999999,None,,,,,,,,,,,,,,,,,,,,,CBC_1007,006,1,3,2,4,0.95,2023-06-21_16h50.43.207,MSI_TV_v3,2022.1.1,59.777901186250055,
21,0,21,0,,,,,,,,,,1,3,2,z,63,1,4.334629553,2.407383959,None,518.414542999999,None,520.7979672599998,520.7979672599998,520.8146862599991,None,[],['z'],[0.16772760000094422],522.8017949000005,None,z,2.167727600000944,1,1,0.8181818181818182,None,527.1535356999993,None,527.1535356999993,None,,,,,,,,,,,,,,,,,,,,,CBC_1007,006,1,3,2,4,0.95,2023-06-21_16h50.43.207,MSI_TV_v3,2022.1.1,59.777901186250055,
22,0,22,0,,,,,,,,,,3,0,1,z,63,1,1.3262934849999999,2.684881281,None,529.1644488000002,None,531.8313868600002,531.8313868600002,531.8478096599996,z,['z'],None,,533.8731158999999,None,z,1.510045100001662,1,1,0.8260869565217391,None,535.1931490000006,None,535.1931490000006,None,1.510045100001662,[1.510045100001662],,,,,,,,,,,,,,,,,,,CBC_1007,006,1,3,2,4,0.95,2023-06-21_16h50.43.207,MSI_TV_v3,2022.1.1,59.777901186250055,
23,0,23,0,,,,,,,,,,0,0,2,b,27,1,4.21669271,1.84422311,None,537.197823999999,None,539.0141417599992,539.0141417599992,539.0309786599995,None,[],['b'],[1.1000693999994837],541.0167552000003,None,b,3.1000693999994837,1,1,0.8333333333333334,None,545.2415457999996,None,545.2415457999996,None,,,,,,,,,,,,,,,,,,,,,CBC_1007,006,1,3,2,4,0.95,2023-06-21_16h50.43.207,MSI_TV_v3,2022.1.1,59.777901186250055,
24,0,24,0,,,,,,,,,,2,3,2,b,63,1,2.949122761,2.935368129,None,547.2477519999993,None,550.1644232599996,550.1644232599996,550.1812350599997,None,[],['b'],[0.6575893999997788],552.1694542000005,None,b,2.657589399999779,1,1,0.84,None,555.1290367999991,None,555.1290367999991,None,,,,,,,,,,,,,,,,,,,,,CBC_1007,006,1,3,2,4,0.95,2023-06-21_16h50.43.207,MSI_TV_v3,2022.1.1,59.777901186250055,
25,0,25,0,,,,,,,,,,1,0,2,z,27,1,1.556335756,3.321420384,None,557.1311888,None,560.4312191600005,560.4312191600005,560.4482426599992,None,[],['z'],[0.1569457000005059],562.4358264000002,None,z,2.156945700000506,1,1,0.8461538461538461,None,563.9942807999996,None,563.9942807999996,None,,,,,,,,,,,,,,,,,,,,,CBC_1007,006,1,3,2,4,0.95,2023-06-21_16h50.43.207,MSI_TV_v3,2022.1.1,59.777901186250055,
26,0,26,0,,,,,,,,,,3,0,1,z,63,1,3.884449499,2.210349838,None,565.9981573999994,None,568.1811542599993,568.1811542599993,568.19773346,z,['z'],None,,570.223670899999,None,z,1.5676478999994288,1,1,0.8518518518518519,None,574.0976637000003,None,574.0976637000003,None,1.5676478999994288,[1.5676478999994288],,,,,,,,,,,,,,,,,,,CBC_1007,006,1,3,2,4,0.95,2023-06-21_16h50.43.207,MSI_TV_v3,2022.1.1,59.777901186250055,
27,0,27,0,,,,,,,,,,0,1,0,z,63,1,2.742099981,2.757001452,None,576.1073455999995,None,578.83132736,578.83132736,578.8480174599994,None,[],['z'],[0.4555266000006668],580.8356029999995,None,z,2.455526600000667,1,1,0.8571428571428571,None,583.5788126000007,None,583.5788126000007,None,,,,,,,,,,,,,,,,,,,,,CBC_1007,006,1,3,2,4,0.95,2023-06-21_16h50.43.207,MSI_TV_v3,2022.1.1,59.777901186250055,
28,0,28,0,,,,,,,,,,1,2,3,b,63,1,1.874984683,2.7801224,None,585.5812012999995,None,588.3484278599993,588.3484278599993,588.3647451599994,None,[],['b'],[0.3321360000009008],590.3519161999993,None,b,2.332136000000901,1,1,0.8620689655172413,None,592.2415208000002,None,592.2415208000002,None,,,,,,,,,,,,,,,,,,,,,CBC_1007,006,1,3,2,4,0.95,2023-06-21_16h50.43.207,MSI_TV_v3,2022.1.1,59.777901186250055,
29,0,29,0,,,,,,,,,,2,1,3,z,27,1,1.758742576,2.962224669,None,594.2477710999992,None,597.1816042600007,597.1816042600007,597.1980026599998,None,[],['z'],[0.17157860000043001],599.1841674000007,None,z,2.17157860000043,1,1,0.8666666666666667,None,600.969901299999,None,600.969901299999,None,,,,,,,,,,,,,,,,,,,,,CBC_1007,006,1,3,2,4,0.95,2023-06-21_16h50.43.207,MSI_TV_v3,2022.1.1,59.777901186250055,
30,0,30,0,,,,,,,,,,0,0,1,b,63,1,1.887650177,0.971483559,None,602.9816873,None,603.9311740599991,603.9311740599991,603.9479516599989,None,[],['b'],[0.9246734999996988],605.9351289000006,None,b,2.924673499999699,1,1,0.8709677419354839,None,607.8310326999999,None,607.8310326999999,None,,,,,,,,,,,,,,,,,,,,,CBC_1007,006,1,3,2,4,0.95,2023-06-21_16h50.43.207,MSI_TV_v3,2022.1.1,59.777901186250055,
31,0,31,0,,,,,,,,,,2,2,3,z,63,1,1.899747326,2.502774076,None,609.8311152999995,None,612.3143645599997,612.3143645599997,612.33115106,None,[],['z'],[0.015147500000239233],614.3171316999997,None,z,2.0151475000002392,1,1,0.875,None,616.2154283,None,616.2154283,None,,,,,,,,,,,,,,,,,,,,,CBC_1007,006,1,3,2,4,0.95,2023-06-21_16h50.43.207,MSI_TV_v3,2022.1.1,59.777901186250055,
32,0,32,0,,,,,,,,,,3,1,2,b,9,1,2.372527466,1.313600181,None,618.2148137000004,None,619.514630959999,619.514630959999,619.5311687599991,b,['b'],None,,621.5556106999993,None,b,1.9882085000008374,1,1,0.8787878787878788,None,623.9255857000007,None,623.9255857000007,None,1.9882085000008374,[1.9882085000008374],,,,,,,,,,,,,,,,,,,CBC_1007,006,1,3,2,4,0.95,2023-06-21_16h50.43.207,MSI_TV_v3,2022.1.1,59.777901186250055,
33,0,33,0,,,,,,,,,,0,0,1,b,63,1,1.109698721,1.910349838,None,625.9311085999998,None,627.8146139599997,627.8146139599997,627.8314499600004,None,[],None,,629.8169199999993,None,None,[],0,3,0.8529411764705882,None,630.9236108999994,['b'],630.9236108999994,None,,,[0.01831090000086988],,,,,,,,,,,,,,,,,,CBC_1007,006,1,3,2,4,0.95,2023-06-21_16h50.43.207,MSI_TV_v3,2022.1.1,59.777901186250055,
34,0,34,0,,,,,,,,,,1,1,2,z,9,1,2.078483356,2.108332021,None,632.9316780999998,None,635.0147077599999,635.0147077599999,635.031285559999,None,[],['z'],[0.008566599999539903],637.0192057999993,None,z,2.00856659999954,1,1,0.8571428571428571,None,639.1105095999992,None,639.1105095999992,None,,,,,,,,,,,,,,,,,,,,,CBC_1007,006,1,3,2,4,0.95,2023-06-21_16h50.43.207,MSI_TV_v3,2022.1.1,59.777901186250055,
35,0,35,0,,,,,,,,,,3,0,1,z,63,1,2.0845750460000003,1.53162701,None,641.1146599999993,None,642.6312674599998,642.6312674599998,642.6479342599999,None,[],['z'],[0.20235330000105023],644.6344155000006,None,z,2.2023533000010502,1,1,0.8611111111111112,None,646.717916399999,None,646.717916399999,None,,,,,,,,,,,,,,,,,,,,,CBC_1007,006,1,3,2,4,0.95,2023-06-21_16h50.43.207,MSI_TV_v3,2022.1.1,59.777901186250055,
36,0,36,0,,,,,,,,,,0,1,0,z,63,0,3.869831913,1.24796184,None,648.7314098999996,None,649.9647939600003,649.9647939600003,649.9813288600002,z,['z'],None,,652.0064402999997,None,z,1.9692880000020523,1,0,0.8648648648648649,None,655.8738197999992,None,655.8738197999992,None,1.9692880000020523,[1.9692880000020523],,,,,,,,,,,,,,,,,,,CBC_1007,006,1,3,2,4,0.95,2023-06-21_16h50.43.207,MSI_TV_v3,2022.1.1,59.777901186250055,
37,0,37,0,,,,,,,,,,3,1,0,b,63,1,1.595506577,2.232990834,None,657.8815123999993,None,660.0980344599997,660.0980344599997,660.1145771599989,b,['b'],None,,662.1385000999999,None,b,1.5660232000009273,1,1,0.868421052631579,None,663.7258660000007,None,663.7258660000007,None,1.5660232000009273,[1.5660232000009273],,,,,,,,,,,,,,,,,,,CBC_1007,006,1,3,2,4,0.95,2023-06-21_16h50.43.207,MSI_TV_v3,2022.1.1,59.777901186250055,
38,0,38,0,,,,,,,,,,2,3,1,b,27,1,2.208904638,1.915207301,None,665.7312741999995,None,667.6313120599992,667.6313120599992,667.6480467599998,b,['b'],None,,669.6724591000002,None,b,1.9683652000003349,1,1,0.8717948717948718,None,671.8759967000005,None,671.8759967000005,None,1.9683652000003349,[1.9683652000003349],,,,,,,,,,,,,,,,,,,CBC_1007,006,1,3,2,4,0.95,2023-06-21_16h50.43.207,MSI_TV_v3,2022.1.1,59.777901186250055,
39,0,39,0,,,,,,,,,,1,2,3,b,63,1,4.176609572,3.274187802,None,673.8814581999995,None,677.1318094599995,677.1318094599995,677.1481128599993,None,[],['b'],[0.20886940000127652],679.1336510000001,None,b,2.2088694000012765,1,1,0.875,None,683.3051529999993,None,683.3051529999993,None,,,,,,,,,,,,,,,,,,,,,CBC_1007,006,1,3,2,4,0.95,2023-06-21_16h50.43.207,MSI_TV_v3,2022.1.1,59.777901186250055,
40,0,40,0,,,,,,,,,,0,2,0,z,27,1,3.501824497,3.388090306,None,685.3150774000005,None,688.6814458600005,688.6814458600005,688.6980285600006,None,[],['z'],[0.2600019000019529],690.6840455999991,None,z,2.260001900001953,1,1,0.8780487804878049,None,694.1951836999997,None,694.1951836999997,None,,,,,,,,,,,,,,,,,,,,,CBC_1007,006,1,3,2,4,0.95,2023-06-21_16h50.43.207,MSI_TV_v3,2022.1.1,59.777901186250055,
41,0,41,0,,,,,,,,,,2,3,2,b,63,1,3.956662465,1.554037824,None,696.1982103999999,None,697.7314639599994,697.7314639599994,697.7481762600004,None,[],['b'],[0.15760820000105014],699.7342200000003,None,b,2.15760820000105,1,1,0.8809523809523809,None,703.6895454000005,None,703.6895454000005,None,,,,,,,,,,,,,,,,,,,,,CBC_1007,006,1,3,2,4,0.95,2023-06-21_16h50.43.207,MSI_TV_v3,2022.1.1,59.777901186250055,
42,0,42,0,,,,,,,,,,3,3,1,z,27,1,2.67601813,1.378098418,None,705.6980894999997,None,707.0481843599995,707.0481843599995,707.0652130599996,None,[],['z'],[0.22163330000148562],709.0523118000001,None,z,2.2216333000014856,1,1,0.8837209302325582,None,711.7244924999995,None,711.7244924999995,None,,,,,,,,,,,,,,,,,,,,,CBC_1007,006,1,3,2,4,0.95,2023-06-21_16h50.43.207,MSI_TV_v3,2022.1.1,59.777901186250055,
43,0,43,0,,,,,,,,,,1,2,3,b,63,1,3.589438522,1.483424551,None,713.7316188000004,None,715.1980741600004,715.1980741600004,715.21481446,None,[],['b'],[1.0609238000015466],717.2020209000002,None,b,3.0609238000015466,1,1,0.8863636363636364,None,720.7963811999998,None,720.7963811999998,None,,,,,,,,,,,,,,,,,,,,,CBC_1007,006,1,3,2,4,0.95,2023-06-21_16h50.43.207,MSI_TV_v3,2022.1.1,59.777901186250055,
,,,,,,,,,,,,,,,,,,,,,,,,,,,,,,,,,,,,,,,,,,,,,,None,722.7982642999996,None,,,,,,,,,,,,,,,CBC_1007,006,1,3,2,4,0.95,2023-06-21_16h50.43.207,MSI_TV_v3,2022.1.1,59.777901186250055,
,,,,,,,,,,,,,,,,,,,,,,,,,,,,,,,,,,,,,,,,,,,,,,,,,727.7815713999989,None,None,727.7815713999989,732.7640073000002,,,,,,,,,,CBC_1007,006,1,3,2,4,0.95,2023-06-21_16h50.43.207,MSI_TV_v3,2022.1.1,59.777901186250055,
,,,,,,,,,,,,,,,,,,,,,,,,,,,,,,,,,,,,,,,,,,,,,,,,,,,,,,z,b,hard,"[0, 1, 2, 3]","[0, 3, 1, 2]",0.6363636363636364,1.0,1.0,0.9090909090909091,,,,,,,,,,,,
