trials_runs.thisRepN,trials_runs.thisTrialN,trials_runs.thisN,trials_runs.thisIndex,standbild_start.started,standbild_start.stopped,trigger.keys,trigger.rt,trigger.started,trigger.stopped,keys_2.keys,keys_2.started,keys_2.stopped,trials_runs.auditory_stim,trials_runs.visual_stim_left,trials_runs.visual_stim_right,trials_runs.correctKey,trials_runs.presentationFrequncy,trials_runs.FBaccuracy,trials_runs.ISI_s,trials_runs.ITI_s,keys_3.keys,keys_3.started,keys_3.stopped,ImageLeft_4.started,ImageLeft_4.stopped,ImageRight_4.started,ImageRight_4.stopped,sound_4.started,sound_4.stopped,response_4.keys,response_4.started,response_4.stopped,response_5.keys,response_5.rt,response_5.started,response_5.stopped,response_runs.keys,response_runs.rt,trials_runs.correct_answer,trials_runs.feedback_given,trials_runs.running_mean,feedback_6.started,feedback_6.stopped,keys_6.keys,keys_6.started,keys_6.stopped,response_4.rt,keys_6.rt,keys_7.keys,keys_7.started,keys_7.stopped,standbild_end.started,standbild_end.stopped,Stop_exp.keys,Stop_exp.started,Stop_exp.stopped,trials_runs.rightKey,trials_runs.leftKey,ts_difficulty,visualPair,audioPair,trials_runs.mean_acc_1stFourth,trials_runs.mean_acc_2ndFourth,trials_runs.mean_acc_3rdFourth,trials_runs.mean_acc_4thFourth,nbCorrect,nbOmissions,nbIncorrect,participant,session,visual set [1-6],audio set [1-3],trial structure [0-3 / 4-7],pairing [0-23],prob Feedback,date,expName,psychopyVersion,frameRate,
,,,,244.26449520000097,None,t,69.669931299999,244.26449520000097,None,,,,,,,,,,,,,,,,,,,,,,,,,,,,,,,,,,,,,,,,,,,,,,,,,,,,,,,,,,,,CBC_1036,003,3,1,2,13,0.95,2023-12-06_15h58.00.246,MSI_AV_v3,2022.1.1,59.97112989859105,
,,,,,,,,,,None,313.96210690000044,None,,,,,,,,,,,,,,,,,,,,,,,,,,,,,,,,,,,,,,,,,,,,,,,,,,,,,,,,,CBC_1036,003,3,1,2,13,0.95,2023-12-06_15h58.00.246,MSI_AV_v3,2022.1.1,59.97112989859105,
0,0,0,0,,,,,,,,,,2,0,1,b,63,1,2.592312596923728,0.979776149765883,None,314.1622201000009,None,315.29935710000063,None,315.29935710000063,None,315.2960185999988,None,None,315.29935710000063,None,['z'],[0.50189169999976],317.14544150000074,None,z,2.50189169999976,0,0,0.0,319.74427020000076,None,None,319.74427020000076,None,,,,,,,,,,,,,,,,,,,,,,,CBC_1036,003,3,1,2,13,0.95,2023-12-06_15h58.00.246,MSI_AV_v3,2022.1.1,59.97112989859105,
1,0,1,0,,,,,,,,,,1,2,3,z,63,1,3.02234236141277,2.96653053743745,None,321.5451587999996,None,324.5806604999998,None,324.5806604999998,None,324.57930869999984,None,['b'],324.5806604999998,None,None,,326.5154999000006,None,b,1.775051299999177,0,0,0.0,329.53660690000106,None,None,329.53660690000106,None,[1.775051299999177],,,,,,,,,,,,,,,,,,,,,,CBC_1036,003,3,1,2,13,0.95,2023-12-06_15h58.00.246,MSI_AV_v3,2022.1.1,59.97112989859105,
2,0,2,0,,,,,,,,,,3,0,2,z,27,1,2.433630701072358,1.90743690794447,None,331.3459211999998,None,333.2797260999996,None,333.2797260999996,None,333.27943180000005,None,['z'],333.2797260999996,None,None,,335.26190510000015,None,z,1.9076184999994439,1,1,0.3333333333333333,337.70231799999965,None,None,337.70231799999965,None,[1.9076184999994439],,,,,,,,,,,,,,,,,,,,,,CBC_1036,003,3,1,2,13,0.95,2023-12-06_15h58.00.246,MSI_AV_v3,2022.1.1,59.97112989859105,
3,0,3,0,,,,,,,,,,2,0,1,b,63,1,3.26539063535182,2.40378712856304,None,339.5113293000013,None,341.9145879000007,None,341.9145879000007,None,341.9116114000001,None,None,341.9145879000007,None,"['b', 'z']","[0.2121809000000212, 0.7786068000004889]",343.91209060000074,None,b,2.212180900000021,1,1,0.5,347.1672696000005,None,None,347.1672696000005,None,,,,,,,,,,,,,,,,,,,,,,,CBC_1036,003,3,1,2,13,0.95,2023-12-06_15h58.00.246,MSI_AV_v3,2022.1.1,59.97112989859105,
4,0,4,0,,,,,,,,,,0,1,3,b,27,1,2.693348633324513,0.974903167432984,None,348.9789724000002,None,349.98197059999984,None,349.98197059999984,None,349.97907829999934,None,None,349.98197059999984,None,"['z', 'z', 'z']","[1.5662788999998156, 2.2443049999983486, 2.647181599999385]",351.94518590000007,None,z,3.5662788999998156,0,0,0.4,354.6222720000005,None,None,354.6222720000005,None,,,,,,,,,,,,,,,,,,,,,,,CBC_1036,003,3,1,2,13,0.95,2023-12-06_15h58.00.246,MSI_AV_v3,2022.1.1,59.97112989859105,
5,0,5,0,,,,,,,,,,3,3,2,z,63,1,3.76873691643126,3.24569326556923,None,356.429132700001,None,359.68181619999996,None,359.68181619999996,None,359.6944695,None,None,359.68181619999996,None,['z'],[0.11944999999832362],361.6622918000012,None,z,2.1194499999983236,1,1,0.5,365.4302383000013,None,None,365.4302383000013,None,,,,,,,,,,,,,,,,,,,,,,,CBC_1036,003,3,1,2,13,0.95,2023-12-06_15h58.00.246,MSI_AV_v3,2022.1.1,59.97112989859105,
6,0,6,0,,,,,,,,,,1,3,2,b,63,1,2.7134565917469198,1.64421109900286,None,367.22825120000016,None,368.9037569000011,None,368.9037569000011,None,368.9123064,None,None,368.9037569000011,None,['b'],[0.8190619999986666],370.87892570000076,None,b,2.8190619999986666,1,1,0.5714285714285714,373.5862680000009,None,None,373.5862680000009,None,,,,,,,,,,,,,,,,,,,,,,,CBC_1036,003,3,1,2,13,0.95,2023-12-06_15h58.00.246,MSI_AV_v3,2022.1.1,59.97112989859105,
7,0,7,0,,,,,,,,,,0,0,1,z,63,1,4.7533305109883095,2.10421507306074,None,375.3958254999998,None,377.5081299000012,None,377.5081299000012,None,377.5126297999994,None,None,377.5081299000012,None,"['b', 'z', 'z']","[0.2702036999999109, 1.8793261999999231, 2.712617600000158]",379.4957938000007,None,b,2.270203699999911,0,0,0.5,384.23390560000007,None,None,384.23390560000007,None,,,,,,,,,,,,,,,,,,,,,,,CBC_1036,003,3,1,2,13,0.95,2023-12-06_15h58.00.246,MSI_AV_v3,2022.1.1,59.97112989859105,
8,0,8,0,,,,,,,,,,2,2,0,z,27,1,3.3728785608729996,1.21250262048173,None,386.04570590000003,None,387.2871543000001,None,387.2871543000001,None,387.2958915000003,None,"['z', 'b']",387.2871543000001,None,None,,389.28295629999957,None,z,1.1590424999994866,1,1,0.5555555555555556,392.6678628999998,None,None,392.6678628999998,None,"[1.1590424999994866, 1.2524795999997878]",,,,,,,,,,,,,,,,,,,,,,CBC_1036,003,3,1,2,13,0.95,2023-12-06_15h58.00.246,MSI_AV_v3,2022.1.1,59.97112989859105,
9,0,9,0,,,,,,,,,,1,3,0,b,9,1,2.496959177995529,2.15533949826702,None,394.4792513000011,None,396.65280040000107,None,396.65280040000107,None,396.66299380000095,None,['b'],396.65280040000107,None,None,,398.6444276000002,None,b,1.3565479999997478,1,1,0.6,401.1534216,None,None,401.1534216,None,[1.3565479999997478],,,,,,,,,,,,,,,,,,,,,,CBC_1036,003,3,1,2,13,0.95,2023-12-06_15h58.00.246,MSI_AV_v3,2022.1.1,59.97112989859105,
10,0,10,0,,,,,,,,,,3,2,3,b,63,1,2.526044641065533,0.77703640172831,None,402.96234259999983,None,403.7537661000006,None,403.7537661000006,None,403.76233390000056,None,None,403.7537661000006,None,['b'],[0.01124589999926684],405.7284651000009,None,b,2.011245899999267,1,1,0.6363636363636364,408.2328026000014,None,None,408.2328026000014,None,,,,,,,,,,,,,,,,,,,,,,,CBC_1036,003,3,1,2,13,0.95,2023-12-06_15h58.00.246,MSI_AV_v3,2022.1.1,59.97112989859105,
11,0,11,0,,,,,,,,,,0,0,1,z,63,1,2.517541937862754,0.917519910446003,None,410.04560839999976,None,410.96430920000057,None,410.96430920000057,None,410.9616878999998,None,None,410.96430920000057,None,"['z', 'b', 'b']","[0.6343736999988323, 1.0116018999997323, 2.412226799999189]",412.94572020000123,None,z,2.6343736999988323,1,1,0.6666666666666666,415.44800620000024,None,None,415.44800620000024,None,,,,,,,,,,,,,,,,,,,,,,,CBC_1036,003,3,1,2,13,0.95,2023-12-06_15h58.00.246,MSI_AV_v3,2022.1.1,59.97112989859105,
12,0,12,0,,,,,,,,,,1,2,3,z,63,1,2.294664843639333,1.95130344756745,None,417.2626686000003,None,419.23647580000033,None,419.23647580000033,None,419.2461888000002,None,['z'],419.23647580000033,None,None,,421.23317190000125,None,z,1.3362238999998226,1,1,0.6923076923076923,423.53516300000047,None,None,423.53516300000047,None,[1.3362238999998226],,,,,,,,,,,,,,,,,,,,,,CBC_1036,003,3,1,2,13,0.95,2023-12-06_15h58.00.246,MSI_AV_v3,2022.1.1,59.97112989859105,
13,0,13,0,,,,,,,,,,3,2,3,b,63,1,2.792365600763554,1.25817747924478,None,425.3460262000008,None,426.60649490000105,None,426.60649490000105,None,426.61154660000085,None,['b'],426.60649490000105,None,None,,428.6024871999998,None,b,1.7516162000010809,1,1,0.7142857142857143,431.3864577000004,None,None,431.3864577000004,None,[1.7516162000010809],,,,,,,,,,,,,,,,,,,,,,CBC_1036,003,3,1,2,13,0.95,2023-12-06_15h58.00.246,MSI_AV_v3,2022.1.1,59.97112989859105,
14,0,14,0,,,,,,,,,,0,3,1,z,27,1,4.61004669244928,3.40155979865722,None,433.19610620000094,None,436.60269880000124,None,436.60269880000124,None,436.6116660000005,None,['z'],436.60269880000124,None,None,,438.5940105999998,None,z,1.6703416000000288,1,1,0.7333333333333333,443.20264660000066,None,None,443.20264660000066,None,[1.6703416000000288],,,,,,,,,,,,,,,,,,,,,,CBC_1036,003,3,1,2,13,0.95,2023-12-06_15h58.00.246,MSI_AV_v3,2022.1.1,59.97112989859105,
15,0,15,0,,,,,,,,,,2,0,3,b,9,1,4.12485271162806,1.34668860557497,None,445.01280620000034,None,446.3869973000001,None,446.3869973000001,None,446.3960836999999,None,None,446.3869973000001,None,['b'],[1.134761500001332],448.3627890000007,None,b,3.134761500001332,1,1,0.75,452.4727077000007,None,None,452.4727077000007,None,,,,,,,,,,,,,,,,,,,,,,,CBC_1036,003,3,1,2,13,0.95,2023-12-06_15h58.00.246,MSI_AV_v3,2022.1.1,59.97112989859105,
16,0,16,0,,,,,,,,,,1,2,3,z,63,1,3.73326136168326,2.49839527409216,None,454.2792934000008,None,456.8037781000003,None,456.8037781000003,None,456.81250270000095,None,['z'],456.8037781000003,None,None,,458.79897020000135,None,z,1.299143099999128,1,1,0.7647058823529411,462.53551830000106,None,None,462.53551830000106,None,[1.299143099999128],,,,,,,,,,,,,,,,,,,,,,CBC_1036,003,3,1,2,13,0.95,2023-12-06_15h58.00.246,MSI_AV_v3,2022.1.1,59.97112989859105,
17,0,17,0,,,,,,,,,,3,0,2,z,27,1,2.342239579230602,0.761758675042088,None,464.34603120000065,None,465.1122862000011,None,465.1122862000011,None,465.11226809999954,None,None,465.1122862000011,None,"['z', 'b']","[1.0424505999999383, 2.0638976999998704]",467.0959569000006,None,z,3.0424505999999383,1,1,0.7777777777777778,469.43633840000075,None,None,469.43633840000075,None,,,,,,,,,,,,,,,,,,,,,,,CBC_1036,003,3,1,2,13,0.95,2023-12-06_15h58.00.246,MSI_AV_v3,2022.1.1,59.97112989859105,
18,0,18,0,,,,,,,,,,2,0,1,b,63,1,3.68371079902891,1.43470440954152,None,471.24607769999966,None,472.70434300000124,None,472.70434300000124,None,472.71258060000076,None,['z'],472.70434300000124,None,['b'],[1.3132869999990362],474.69832230000065,None,z,1.799478499999168,0,0,0.7368421052631579,478.3837596000012,None,None,478.3837596000012,None,[1.799478499999168],,,,,,,,,,,,,,,,,,,,,,CBC_1036,003,3,1,2,13,0.95,2023-12-06_15h58.00.246,MSI_AV_v3,2022.1.1,59.97112989859105,
19,0,19,0,,,,,,,,,,0,1,0,b,63,0,4.46924002178158,0.952147612306987,None,480.1961744,None,481.1696047000005,None,481.1696047000005,None,481.17937000000023,None,['b'],481.1696047000005,None,None,,483.16085420000127,None,b,1.4566305999996985,1,0,0.75,487.6330435,None,None,487.6330435,None,[1.4566305999996985],,,,,,,,,,,,,,,,,,,,,,CBC_1036,003,3,1,2,13,0.95,2023-12-06_15h58.00.246,MSI_AV_v3,2022.1.1,59.97112989859105,
20,0,20,0,,,,,,,,,,1,3,1,b,27,1,4.77034425507967,1.27538462653558,None,489.44621630000074,None,490.7361043000001,None,490.7361043000001,None,490.7459356999993,None,['b'],490.7361043000001,None,None,,492.7297030000009,None,b,1.6095138000000588,1,1,0.7619047619047619,497.50238530000024,None,None,497.50238530000024,None,[1.6095138000000588],,,,,,,,,,,,,,,,,,,,,,CBC_1036,003,3,1,2,13,0.95,2023-12-06_15h58.00.246,MSI_AV_v3,2022.1.1,59.97112989859105,
21,0,21,0,,,,,,,,,,3,3,2,z,63,1,3.31929419319838,1.25920145784721,None,499.3128482000011,None,500.5850413999997,None,500.5850413999997,None,500.5963648000001,None,['z'],500.5850413999997,None,None,,502.5770585999999,None,z,1.4599301999987802,1,1,0.7727272727272727,505.9027179000004,None,None,505.9027179000004,None,[1.4599301999987802],,,,,,,,,,,,,,,,,,,,,,CBC_1036,003,3,1,2,13,0.95,2023-12-06_15h58.00.246,MSI_AV_v3,2022.1.1,59.97112989859105,
22,0,22,0,,,,,,,,,,0,0,1,z,63,1,2.2759877950103027,3.1424449555106,None,507.712485,None,510.8694300999996,None,510.8694300999996,None,510.88013089999953,None,['b'],510.8694300999996,None,"['z', 'z', 'z']","[0.17043849999936356, 1.2150960999988456, 1.921236799998951]",512.8597437999997,None,b,1.92474779999975,0,0,0.7391304347826086,515.1345706000011,None,"['z', 'z']",515.1345706000011,None,[1.92474779999975],"[0.3418739999997342, 1.1506922999997187]",,,,,,,,,,,,,,,,,,,,,CBC_1036,003,3,1,2,13,0.95,2023-12-06_15h58.00.246,MSI_AV_v3,2022.1.1,59.97112989859105,
23,0,23,0,,,,,,,,,,2,0,2,b,27,1,4.53337421950507,2.09887870490381,None,516.9461239000011,None,519.0713274999998,None,519.0713274999998,None,519.0798350000008,None,['z'],519.0713274999998,None,None,,521.0598446000004,None,z,1.9369848999995156,0,0,0.7083333333333334,525.6009301000013,None,None,525.6009301000013,None,[1.9369848999995156],,,,,,,,,,,,,,,,,,,,,,CBC_1036,003,3,1,2,13,0.95,2023-12-06_15h58.00.246,MSI_AV_v3,2022.1.1,59.97112989859105,
24,0,24,0,,,,,,,,,,1,3,2,b,63,1,3.7500315165247198,1.36309078069689,None,527.4130845,None,528.8029205000003,None,528.8029205000003,None,528.8127948000005,None,['b'],528.8029205000003,None,None,,530.8009192999998,None,b,1.3904513999987103,1,1,0.72,534.5540916000009,None,None,534.5540916000009,None,[1.3904513999987103],,,,,,,,,,,,,,,,,,,,,,CBC_1036,003,3,1,2,13,0.95,2023-12-06_15h58.00.246,MSI_AV_v3,2022.1.1,59.97112989859105,
25,0,25,0,,,,,,,,,,3,0,2,z,27,1,2.92731383428727,1.78643585472448,None,536.3630226000005,None,538.1691673000005,None,538.1691673000005,None,538.1795406000005,None,['z'],538.1691673000005,None,None,,540.1635653000012,None,z,1.8043046000002505,1,1,0.7307692307692307,543.1010575,None,None,543.1010575,None,[1.8043046000002505],,,,,,,,,,,,,,,,,,,,,,CBC_1036,003,3,1,2,13,0.95,2023-12-06_15h58.00.246,MSI_AV_v3,2022.1.1,59.97112989859105,
26,0,26,0,,,,,,,,,,0,0,1,z,63,1,4.77723667052879,1.94858485820231,None,544.9127719000007,None,546.8898687000001,None,546.8898687000001,None,546.8961794999999,None,None,546.8898687000001,None,['z'],[0.2245932999994693],548.8628134999999,None,z,2.2245932999994693,1,1,0.7407407407407407,553.6291213000004,None,None,553.6291213000004,None,,,,,,,,,,,,,,,,,,,,,,,CBC_1036,003,3,1,2,13,0.95,2023-12-06_15h58.00.246,MSI_AV_v3,2022.1.1,59.97112989859105,
27,0,27,0,,,,,,,,,,2,1,0,z,63,1,2.91303524001082,1.12425433982333,None,555.429646300001,None,556.5698771000007,None,556.5698771000007,None,556.5798813000005,None,None,556.5698771000007,None,['z'],[0.2670190000008006],558.5462487000004,None,z,2.2670190000008006,1,1,0.75,561.4563094000005,None,None,561.4563094000005,None,,,,,,,,,,,,,,,,,,,,,,,CBC_1036,003,3,1,2,13,0.95,2023-12-06_15h58.00.246,MSI_AV_v3,2022.1.1,59.97112989859105,
28,0,28,0,,,,,,,,,,3,2,3,b,63,1,4.72585056748869,0.80788063606262,None,563.2627912000007,None,564.0860773000004,None,564.0860773000004,None,564.0970538999994,None,['b'],564.0860773000004,None,None,,566.0765778000005,None,b,1.4929518999997526,1,1,0.7586206896551724,570.8040302999998,None,None,570.8040302999998,None,[1.4929518999997526],,,,,,,,,,,,,,,,,,,,,,CBC_1036,003,3,1,2,13,0.95,2023-12-06_15h58.00.246,MSI_AV_v3,2022.1.1,59.97112989859105,
29,0,29,0,,,,,,,,,,1,1,3,z,27,1,4.82531807167306,1.1243895841892,None,572.6128188000002,None,573.7511528000014,None,573.7511528000014,None,573.7628910000006,None,['z'],573.7511528000014,None,None,,575.7466741999997,None,z,1.6072155000001658,1,1,0.7666666666666667,580.5678384000003,None,None,580.5678384000003,None,[1.6072155000001658],,,,,,,,,,,,,,,,,,,,,,CBC_1036,003,3,1,2,13,0.95,2023-12-06_15h58.00.246,MSI_AV_v3,2022.1.1,59.97112989859105,
30,0,30,0,,,,,,,,,,2,0,1,b,63,1,3.71372710086949,1.53122835510861,None,582.3796499,None,583.9358650000013,None,583.9358650000013,None,583.9462987999999,None,['z'],583.9358650000013,None,None,,585.9234709000011,None,z,1.8853658999996696,0,0,0.7419354838709677,589.6321828,None,None,589.6321828,None,[1.8853658999996696],,,,,,,,,,,,,,,,,,,,,,CBC_1036,003,3,1,2,13,0.95,2023-12-06_15h58.00.246,MSI_AV_v3,2022.1.1,59.97112989859105,
31,0,31,0,,,,,,,,,,1,2,3,z,63,1,2.666404967794728,3.1963008326951,None,591.4466506000008,None,594.6640468000005,None,594.6640468000005,None,594.6629682000001,None,['z'],594.6640468000005,None,None,,596.6605275000002,None,z,1.039837799999077,1,1,0.75,599.3363404000011,None,None,599.3363404000011,None,[1.039837799999077],,,,,,,,,,,,,,,,,,,,,,CBC_1036,003,3,1,2,13,0.95,2023-12-06_15h58.00.246,MSI_AV_v3,2022.1.1,59.97112989859105,
32,0,32,0,,,,,,,,,,0,1,2,b,9,1,3.6438386551209,2.6299100644723,None,601.1464506000011,None,603.8017354000003,None,603.8017354000003,None,603.8129109000005,None,['b'],603.8017354000003,None,None,,605.8004719,None,b,1.4529234999990877,1,1,0.7575757575757576,609.4359818000012,None,None,609.4359818000012,None,[1.4529234999990877],,,,,,,,,,,,,,,,,,,,,,CBC_1036,003,3,1,2,13,0.95,2023-12-06_15h58.00.246,MSI_AV_v3,2022.1.1,59.97112989859105,
33,0,33,0,,,,,,,,,,2,0,1,b,63,1,4.52047235037039,1.38289892513751,None,611.2466313000004,None,612.6518419000004,None,612.6518419000004,None,612.6636822999993,None,None,612.6518419000004,None,['z'],[0.46441409999897587],614.6294904000006,None,z,2.464414099998976,0,0,0.7352941176470589,619.1431274000006,None,None,619.1431274000006,None,,,,,,,,,,,,,,,,,,,,,,,CBC_1036,003,3,1,2,13,0.95,2023-12-06_15h58.00.246,MSI_AV_v3,2022.1.1,59.97112989859105,
34,0,34,0,,,,,,,,,,3,1,2,z,9,1,4.01714354611405,3.33124983260532,None,620.9463218000001,None,624.2991340999997,None,624.2991340999997,None,624.2967650999998,None,['z'],624.2991340999997,None,None,,626.2990066000002,None,z,1.5588112999994337,1,1,0.7428571428571429,630.3193878000002,None,None,630.3193878000002,None,[1.5588112999994337],,,,,,,,,,,,,,,,,,,,,,CBC_1036,003,3,1,2,13,0.95,2023-12-06_15h58.00.246,MSI_AV_v3,2022.1.1,59.97112989859105,
35,0,35,0,,,,,,,,,,0,0,1,z,63,1,2.82320408183943,2.22427187882546,None,632.1300024000011,None,634.3738876000007,None,634.3738876000007,None,634.3801652999995,None,None,634.3738876000007,None,['z'],[0.488399699999718],636.3465065,None,z,2.488399699999718,1,1,0.75,639.1548610999998,None,None,639.1548610999998,None,,,,,,,,,,,,,,,,,,,,,,,CBC_1036,003,3,1,2,13,0.95,2023-12-06_15h58.00.246,MSI_AV_v3,2022.1.1,59.97112989859105,
36,0,36,0,,,,,,,,,,2,1,0,z,63,0,4.190022164497369,1.18065738546375,None,640.9628530000009,None,642.1696618000005,None,642.1696618000005,None,642.1800623999992,None,None,642.1696618000005,None,['z'],[0.11896379999961937],644.1466971000009,None,z,2.1189637999996194,1,0,0.7567567567567568,648.3267506000011,None,None,648.3267506000011,None,,,,,,,,,,,,,,,,,,,,,,,CBC_1036,003,3,1,2,13,0.95,2023-12-06_15h58.00.246,MSI_AV_v3,2022.1.1,59.97112989859105,
37,0,37,0,,,,,,,,,,0,1,0,b,63,1,2.678526077912375,1.52290599571961,None,650.1299356,None,651.6661827999997,None,651.6661827999997,None,651.6632862000005,None,['b'],651.6661827999997,None,None,,653.6592402000006,None,b,1.8001244999995833,1,1,0.7631578947368421,656.3372206000004,None,None,656.3372206000004,None,[1.8001244999995833],,,,,,,,,,,,,,,,,,,,,,CBC_1036,003,3,1,2,13,0.95,2023-12-06_15h58.00.246,MSI_AV_v3,2022.1.1,59.97112989859105,
38,0,38,0,,,,,,,,,,1,3,1,b,27,1,3.2062024266105302,3.06992456303453,None,658.1466130999997,None,661.2365006,None,661.2365006,None,661.2468235,None,['b'],661.2365006,None,None,,663.228544900001,None,b,1.2774332999997569,1,1,0.7692307692307693,666.4375435000002,None,None,666.4375435000002,None,[1.2774332999997569],,,,,,,,,,,,,,,,,,,,,,CBC_1036,003,3,1,2,13,0.95,2023-12-06_15h58.00.246,MSI_AV_v3,2022.1.1,59.97112989859105,
39,0,39,0,,,,,,,,,,3,2,3,b,63,1,3.35133458220192,1.60731937853708,None,668.2467154000005,None,669.8692193000006,None,669.8692193000006,None,669.880687700001,None,['b'],669.8692193000006,None,None,,671.8662135000013,None,b,1.3650573000013537,1,1,0.775,675.2195158000013,None,None,675.2195158000013,None,[1.3650573000013537],,,,,,,,,,,,,,,,,,,,,,CBC_1036,003,3,1,2,13,0.95,2023-12-06_15h58.00.246,MSI_AV_v3,2022.1.1,59.97112989859105,
40,0,40,0,,,,,,,,,,2,2,0,z,27,1,2.629554641171433,1.96568735158996,None,677.0299131000011,None,679.0202145000003,None,679.0202145000003,None,679.0299976000009,None,"['b', 'z']",679.0202145000003,None,"['z', 'z']","[0.5415075999990222, 1.2496995999990759]",681.0142460999996,None,b,1.237874099999317,0,0,0.7560975609756098,683.6495976000006,None,None,683.6495976000006,None,"[1.237874099999317, 1.7038618999995379]",,,,,,,,,,,,,,,,,,,,,,CBC_1036,003,3,1,2,13,0.95,2023-12-06_15h58.00.246,MSI_AV_v3,2022.1.1,59.97112989859105,
41,0,41,0,,,,,,,,,,1,3,2,b,63,1,4.11514536789087,2.78346932462847,None,685.4635825000005,None,688.2693135999998,None,688.2693135999998,None,688.2803631999999,None,"['z', 'b']",688.2693135999998,None,"['b', 'b']","[0.026705399999627843, 0.663047899999583]",690.2630585999996,None,z,0.9460770999994565,0,0,0.7380952380952381,694.3888494000003,None,None,694.3888494000003,None,"[0.9460770999994565, 1.319520699998975]",,,,,,,,,,,,,,,,,,,,,,CBC_1036,003,3,1,2,13,0.95,2023-12-06_15h58.00.246,MSI_AV_v3,2022.1.1,59.97112989859105,
42,0,42,0,,,,,,,,,,0,3,1,z,27,1,2.6391747348430608,1.53243550275999,None,696.1971599000008,None,697.7541242000007,None,697.7541242000007,None,697.7634765000006,None,['z'],697.7541242000007,None,None,,699.7470217999999,None,z,1.6160134000001563,1,1,0.7441860465116279,702.3879456000013,None,None,702.3879456000013,None,[1.6160134000001563],,,,,,,,,,,,,,,,,,,,,,CBC_1036,003,3,1,2,13,0.95,2023-12-06_15h58.00.246,MSI_AV_v3,2022.1.1,59.97112989859105,
43,0,43,0,,,,,,,,,,3,2,3,b,63,1,4.40017271499661,3.4543169006169,None,704.1969398000001,None,707.6652176999996,None,707.6652176999996,None,707.6634535000011,None,['b'],707.6652176999996,None,None,,709.6600212000012,None,b,1.755593999998382,1,1,0.75,714.0699605999998,None,None,714.0699605999998,None,[1.755593999998382],,,,,,,,,,,,,,,,,,,,,,CBC_1036,003,3,1,2,13,0.95,2023-12-06_15h58.00.246,MSI_AV_v3,2022.1.1,59.97112989859105,
,,,,,,,,,,,,,,,,,,,,,,,,,,,,,,,,,,,,,,,,,,,,,,,,,None,715.8801070999998,None,,,,,,,,,,,,,,,,,,CBC_1036,003,3,1,2,13,0.95,2023-12-06_15h58.00.246,MSI_AV_v3,2022.1.1,59.97112989859105,
,,,,,,,,,,,,,,,,,,,,,,,,,,,,,,,,,,,,,,,,,,,,,,,,,,,,720.8801187000008,None,None,720.8801187000008,None,,,,,,,,,,,,,CBC_1036,003,3,1,2,13,0.95,2023-12-06_15h58.00.246,MSI_AV_v3,2022.1.1,59.97112989859105,
,,,,,,,,,,,,,,,,,,,,,,,,,,,,,,,,,,,,,,,,,,,,,,,,,,,,,,,,,z,b,hard,"[0, 1, 2, 3]","[2, 0, 3, 1]",0.6363636363636364,0.9090909090909091,0.7272727272727273,0.7272727272727273,31,0,13,,,,,,,,,,,,
