trials_runs.thisRepN,trials_runs.thisTrialN,trials_runs.thisN,trials_runs.thisIndex,standbild_start.started,standbild_start.stopped,trigger.keys,trigger.rt,trigger.started,trigger.stopped,keys_2.keys,keys_2.started,keys_2.stopped,trials_runs.auditory_stim,trials_runs.visual_stim_left,trials_runs.visual_stim_right,trials_runs.correctKey,trials_runs.presentationFrequncy,trials_runs.FBaccuracy,trials_runs.ISI_s,trials_runs.ITI_s,keys_3.keys,keys_3.started,keys_3.stopped,ImageLeft_4.started,ImageLeft_4.stopped,ImageRight_4.started,ImageRight_4.stopped,sound_4.started,sound_4.stopped,response_4.keys,response_4.started,response_4.stopped,response_5.keys,response_5.rt,response_5.started,response_5.stopped,response_runs.keys,response_runs.rt,trials_runs.correct_answer,trials_runs.feedback_given,trials_runs.running_mean,feedback_6.started,feedback_6.stopped,keys_6.keys,keys_6.started,keys_6.stopped,response_4.rt,keys_3.rt,keys_7.keys,keys_7.started,keys_7.stopped,standbild_end.started,standbild_end.stopped,Stop_exp.keys,Stop_exp.started,Stop_exp.stopped,trials_runs.rightKey,trials_runs.leftKey,ts_difficulty,visualPair,audioPair,trials_runs.mean_acc_1stFourth,trials_runs.mean_acc_2ndFourth,trials_runs.mean_acc_3rdFourth,trials_runs.mean_acc_4thFourth,nbCorrect,nbOmissions,nbIncorrect,participant,session,visual set [1-6],audio set [1-3 / 4-6],trial structure [0-3 / 4-7],pairing [0-23],prob Feedback,date,expName,psychopyVersion,frameRate,
,,,,136.59292239999922,None,t,66.93686980000166,136.59292239999922,None,,,,,,,,,,,,,,,,,,,,,,,,,,,,,,,,,,,,,,,,,,,,,,,,,,,,,,,,,,,,CBC_1031,001,1,1,6,4,0.95,2023-10-20_10h25.09.885,MSI_AV_v3,2022.1.1,59.99948400421923,
,,,,,,,,,,None,203.5622996000002,None,,,,,,,,,,,,,,,,,,,,,,,,,,,,,,,,,,,,,,,,,,,,,,,,,,,,,,,,,CBC_1031,001,1,1,6,4,0.95,2023-10-20_10h25.09.885,MSI_AV_v3,2022.1.1,59.99948400421923,
0,0,0,0,,,,,,,,,,0,0.0,1.0,b,63.0,1.0,2.342239579230602,0.761758675042088,None,203.76343669999915,None,204.59779530000014,None,204.59779530000014,None,204.59652470999947,None,None,204.59779530000014,None,['b'],[0.23747240000193415],206.5131894999995,None,b,2.237472400001934,1,1,1.0,208.8587590999996,None,None,208.8587590999996,None,,,,,,,,,,,,,,,,,,,,,,,CBC_1031,001,1,1,6,4,0.95,2023-10-20_10h25.09.885,MSI_AV_v3,2022.1.1,59.99948400421923,
1,0,1,0,,,,,,,,,,1,3.0,2.0,z,63.0,1.0,2.693348633324513,1.43470440954152,None,210.6631744999995,None,212.14808540000013,None,212.14808540000013,None,212.14662654999984,None,['z'],212.14808540000013,None,None,,214.11693170000035,None,z,1.3221288999993703,1,1,1.0,216.819470299999,None,None,216.819470299999,None,[1.3221288999993703],,,,,,,,,,,,,,,,,,,,,,CBC_1031,001,1,1,6,4,0.95,2023-10-20_10h25.09.885,MSI_AV_v3,2022.1.1,59.99948400421923,
2,0,2,0,,,,,,,,,,0,0.0,2.0,b,27.0,1.0,4.40017271499661,0.77703640172831,None,218.62918929999978,None,219.42126520000056,None,219.42126520000056,None,219.43000461999983,None,['b'],219.42126520000056,None,None,,221.39729260000058,None,b,1.8118890000005194,1,1,1.0,225.80375689999892,None,None,225.80375689999892,None,[1.8118890000005194],,,,,,,,,,,,,,,,,,,,,,CBC_1031,001,1,1,6,4,0.95,2023-10-20_10h25.09.885,MSI_AV_v3,2022.1.1,59.99948400421923,
3,0,3,0,,,,,,,,,,3,1.0,0.0,b,63.0,1.0,4.7533305109883095,1.64421109900286,None,227.61333079999895,None,229.2562994,None,229.2562994,None,229.26229668999886,None,None,229.2562994,None,['z'],[1.1904013000003033],231.22993420000057,None,z,3.1904013000003033,0,0,0.75,235.98155509999924,None,None,235.98155509999924,None,,,,,,,,,,,,,,,,,,,,,,,CBC_1031,001,1,1,6,4,0.95,2023-10-20_10h25.09.885,MSI_AV_v3,2022.1.1,59.99948400421923,
4,0,4,0,,,,,,,,,,3,0.0,1.0,z,63.0,1.0,4.46924002178158,2.6299100644723,None,237.7966952000006,None,240.4531275999998,None,240.4531275999998,None,240.46336861999882,None,None,240.4531275999998,None,['b'],[0.06485919999977341],242.42998559999978,None,b,2.0648591999997734,0,0,0.6,246.8942533999998,None,None,246.8942533999998,None,,,,,,,,,,,,,,,,,,,,,,,CBC_1031,001,1,1,6,4,0.95,2023-10-20_10h25.09.885,MSI_AV_v3,2022.1.1,59.99948400421923,
5,0,5,0,,,,,,,,,,1,3.0,2.0,z,63.0,1.0,3.71372710086949,1.25817747924478,None,248.69658600000002,None,249.96781079999892,None,249.96781079999892,None,249.97997701999995,None,['z'],249.96781079999892,None,None,,251.94918659999894,None,z,1.7057416000006924,1,1,0.6666666666666666,255.65398490000007,None,None,255.65398490000007,None,[1.7057416000006924],,,,,,,,,,,,,,,,,,,,,,CBC_1031,001,1,1,6,4,0.95,2023-10-20_10h25.09.885,MSI_AV_v3,2022.1.1,59.99948400421923,
6,0,6,0,,,,,,,,,,2,3.0,1.0,b,27.0,1.0,2.91303524001082,2.49839527409216,None,257.4633037000003,None,259.95850359999895,None,259.95850359999895,None,259.96302258999907,None,None,259.95850359999895,None,['b'],[0.17132569999921543],261.94668719999936,None,b,2.1713256999992154,1,1,0.7142857142857143,264.8413089000005,None,None,264.8413089000005,None,,,,,,,,,,,,,,,,,,,,,,,CBC_1031,001,1,1,6,4,0.95,2023-10-20_10h25.09.885,MSI_AV_v3,2022.1.1,59.99948400421923,
7,0,7,0,,,,,,,,,,1,1.0,2.0,z,9.0,1.0,3.68371079902891,1.53122835510861,None,266.64674509999895,None,268.20154580000053,None,268.20154580000053,None,268.2134729199999,None,None,268.20154580000053,None,['b'],[3.0811652000011236],270.1794439999994,None,b,5.081165200001124,0,0,0.625,273.8449426999996,None,None,273.8449426999996,None,,,,,,,,,,,,,,,,,,,,,,,CBC_1031,001,1,1,6,4,0.95,2023-10-20_10h25.09.885,MSI_AV_v3,2022.1.1,59.99948400421923,
8,0,8,0,,,,,,,,,,3,3.0,1.0,z,27.0,1.0,2.592312596923728,2.96653053743745,['z'],275.6466553999999,None,278.63215219999984,None,278.63215219999984,None,278.62985978999944,None,['b'],278.63215219999984,None,None,,280.62684590000026,None,b,1.3099839000005886,0,0,0.5555555555555556,283.2187219999996,None,None,283.2187219999996,None,[1.3099839000005886],[2.296034100001634],,,,,,,,,,,,,,,,,,,,,CBC_1031,001,1,1,6,4,0.95,2023-10-20_10h25.09.885,MSI_AV_v3,2022.1.1,59.99948400421923,
9,0,9,0,,,,,,,,,,2,3.0,2.0,b,63.0,1.0,4.12485271162806,1.27538462653558,None,285.0300564999998,None,286.3172018000005,None,286.3172018000005,None,286.31342689000024,None,None,286.3172018000005,None,None,,288.29656989999967,None,[],[],0,3,0.5,292.4012838999988,None,None,292.4012838999988,None,,,,,,,,,,,,,,,,,,,,,,,CBC_1031,001,1,1,6,4,0.95,2023-10-20_10h25.09.885,MSI_AV_v3,2022.1.1,59.99948400421923,
10,0,10,0,,,,,,,,,,3,1.0,0.0,b,63.0,1.0,2.7134565917469198,1.96568735158996,None,294.2134970999996,None,296.20255410000027,None,296.20255410000027,None,296.2137800199991,None,['z'],296.20255410000027,None,None,,298.1831268999995,None,z,0.8465832000001683,0,0,0.45454545454545453,300.8961916999997,None,None,300.8961916999997,None,[0.8465832000001683],,,,,,,,,,,,,,,,,,,,,,CBC_1031,001,1,1,6,4,0.95,2023-10-20_10h25.09.885,MSI_AV_v3,2022.1.1,59.99948400421923,
11,0,11,0,,,,,,,,,,1,0.0,2.0,z,27.0,1.0,3.26539063535182,3.06992456303453,None,302.6968503999997,None,305.7649846000004,None,305.7649846000004,None,305.7625139599992,None,['b'],305.7649846000004,None,None,,307.7645472000004,None,b,1.0502632999996422,0,0,0.4166666666666667,311.029366499999,None,None,311.029366499999,None,[1.0502632999996422],,,,,,,,,,,,,,,,,,,,,,CBC_1031,001,1,1,6,4,0.95,2023-10-20_10h25.09.885,MSI_AV_v3,2022.1.1,59.99948400421923,
12,0,12,0,,,,,,,,,,2,3.0,2.0,b,63.0,0.0,4.190022164497369,1.60731937853708,None,312.83019459999923,None,314.45208339999954,None,314.45208339999954,None,314.46359111999953,None,None,314.45208339999954,None,['z'],[3.7747677999996085],316.4301385999988,None,z,5.7747677999996085,0,1,0.38461538461538464,320.6102133000004,None,None,320.6102133000004,None,,,,,,,,,,,,,,,,,,,,,,,CBC_1031,001,1,1,6,4,0.95,2023-10-20_10h25.09.885,MSI_AV_v3,2022.1.1,59.99948400421923,
13,0,13,0,,,,,,,,,,0,1.0,0.0,z,63.0,1.0,2.629554641171433,1.18065738546375,None,322.41344089999984,None,323.6023800999992,None,323.6023800999992,None,323.6126737900003,None,None,323.6023800999992,None,['b'],[1.545803299999534],325.59654109999974,None,b,3.545803299999534,0,0,0.35714285714285715,328.2076084,None,None,328.2076084,None,,,,,,,,,,,,,,,,,,,,,,,CBC_1031,001,1,1,6,4,0.95,2023-10-20_10h25.09.885,MSI_AV_v3,2022.1.1,59.99948400421923,
14,0,14,0,,,,,,,,,,1,2.0,3.0,b,63.0,1.0,4.53337421950507,0.917519910446003,None,330.01351690000047,None,330.9512622000002,None,330.9512622000002,None,330.9636002199997,None,None,330.9512622000002,None,['z'],[1.1330354000019724],332.9303478999991,None,z,3.1330354000019724,0,0,0.3333333333333333,337.4528341000005,None,None,337.4528341000005,None,,,,,,,,,,,,,,,,,,,,,,,CBC_1031,001,1,1,6,4,0.95,2023-10-20_10h25.09.885,MSI_AV_v3,2022.1.1,59.99948400421923,
15,0,15,0,,,,,,,,,,0,0.0,2.0,b,27.0,1.0,4.77034425507967,1.52290599571961,None,339.2628260999991,None,340.8028611999998,None,340.8028611999998,None,340.81370901999907,None,['z'],340.8028611999998,None,None,,342.7991428000005,None,z,1.1128951000009693,0,0,0.3125,347.5712879999992,None,None,347.5712879999992,None,[1.1128951000009693],,,,,,,,,,,,,,,,,,,,,,CBC_1031,001,1,1,6,4,0.95,2023-10-20_10h25.09.885,MSI_AV_v3,2022.1.1,59.99948400421923,
16,0,16,0,,,,,,,,,,2,2.0,3.0,z,63.0,1.0,2.92731383428727,3.33124983260532,None,349.3797008999991,None,352.71913049999966,None,352.71913049999966,None,352.7301981199991,None,['b'],352.71913049999966,None,None,,354.70104770000034,None,b,1.1719465000005584,0,0,0.29411764705882354,357.6176532999998,None,None,357.6176532999998,None,[1.1719465000005584],,,,,,,,,,,,,,,,,,,,,,CBC_1031,001,1,1,6,4,0.95,2023-10-20_10h25.09.885,MSI_AV_v3,2022.1.1,59.99948400421923,
17,0,17,0,,,,,,,,,,2,3.0,2.0,b,63.0,1.0,2.433630701072358,1.38289892513751,None,359.429688799999,None,360.81983799999944,None,360.81983799999944,None,360.83044441999954,None,['b'],360.81983799999944,None,None,,362.8154092999994,None,b,1.6493042000001878,1,1,0.3333333333333333,365.2532879999999,None,None,365.2532879999999,None,[1.6493042000001878],,,,,,,,,,,,,,,,,,,,,,CBC_1031,001,1,1,6,4,0.95,2023-10-20_10h25.09.885,MSI_AV_v3,2022.1.1,59.99948400421923,
18,0,18,0,,,,,,,,,,3,3.0,1.0,z,27.0,1.0,3.76873691643126,2.15533949826702,None,367.0631594000006,None,369.2353342000006,None,369.2353342000006,None,369.2312287899994,None,None,369.2353342000006,None,['z'],[0.5568764000017836],371.2137141000003,None,z,2.5568764000017836,1,1,0.3684210526315789,374.96561010000005,None,None,374.96561010000005,None,,,,,,,,,,,,,,,,,,,,,,,CBC_1031,001,1,1,6,4,0.95,2023-10-20_10h25.09.885,MSI_AV_v3,2022.1.1,59.99948400421923,
19,0,19,0,,,,,,,,,,2,0.0,3.0,z,9.0,1.0,4.11514536789087,2.09887870490381,None,376.7805121000001,None,378.9023555999993,None,378.9023555999993,None,378.9137777200005,None,['z'],378.9023555999993,None,None,,380.89829499999905,None,z,1.9261361000008037,1,1,0.4,385.01271559999986,None,None,385.01271559999986,None,[1.9261361000008037],,,,,,,,,,,,,,,,,,,,,,CBC_1031,001,1,1,6,4,0.95,2023-10-20_10h25.09.885,MSI_AV_v3,2022.1.1,59.99948400421923,
20,0,20,0,,,,,,,,,,3,1.0,0.0,b,63.0,1.0,4.82531807167306,3.1424449555106,None,386.81374030000006,None,389.9682140999994,None,389.9682140999994,None,389.98047841999977,None,None,389.9682140999994,None,['b'],[0.4389552000011463],391.94709279999915,None,b,2.4389552000011463,1,1,0.42857142857142855,396.76175669999975,None,None,396.76175669999975,None,,,,,,,,,,,,,,,,,,,,,,,CBC_1031,001,1,1,6,4,0.95,2023-10-20_10h25.09.885,MSI_AV_v3,2022.1.1,59.99948400421923,
21,0,21,0,,,,,,,,,,0,1.0,0.0,z,63.0,1.0,2.792365600763554,1.53243550275999,None,398.5637726999994,None,400.11939489999895,None,400.11939489999895,None,400.13051102000026,None,['z'],400.11939489999895,None,None,,402.1173196,None,z,1.1217467000005854,1,1,0.45454545454545453,404.919840999999,None,None,404.919840999999,None,[1.1217467000005854],,,,,,,,,,,,,,,,,,,,,,CBC_1031,001,1,1,6,4,0.95,2023-10-20_10h25.09.885,MSI_AV_v3,2022.1.1,59.99948400421923,
22,0,22,0,,,,,,,,,,1,2.0,3.0,b,63.0,1.0,3.3728785608729996,2.78346932462847,None,406.73037850000037,None,409.53392919999897,None,409.53392919999897,None,409.5305863900002,None,None,409.53392919999897,None,['b'],[0.3611144999995304],411.51379760000054,None,b,2.3611144999995304,1,1,0.4782608695652174,414.8728259999989,None,None,414.8728259999989,None,,,,,,,,,,,,,,,,,,,,,,,CBC_1031,001,1,1,6,4,0.95,2023-10-20_10h25.09.885,MSI_AV_v3,2022.1.1,59.99948400421923,
23,0,23,0,,,,,,,,,,0,0.0,2.0,b,27.0,1.0,4.01714354611405,1.34668860557497,None,416.68054680000023,None,418.0530560999996,None,418.0530560999996,None,418.06394801999994,None,None,418.0530560999996,None,['z'],[3.1600004000010813],420.03042409999944,None,z,5.160000400001081,0,0,0.4583333333333333,424.0332259000006,None,None,424.0332259000006,None,,,,,,,,,,,,,,,,,,,,,,,CBC_1031,001,1,1,6,4,0.95,2023-10-20_10h25.09.885,MSI_AV_v3,2022.1.1,59.99948400421923,
24,0,24,0,,,,,,,,,,3,1.0,0.0,b,63.0,1.0,4.61004669244928,0.952147612306987,None,425.8469628999992,None,426.8160078000001,None,426.8160078000001,None,426.81393218999887,None,None,426.8160078000001,None,['b'],[0.444949100001395],428.796233699999,None,b,2.444949100001395,1,1,0.48,433.3847972000003,None,None,433.3847972000003,None,,,,,,,,,,,,,,,,,,,,,,,CBC_1031,001,1,1,6,4,0.95,2023-10-20_10h25.09.885,MSI_AV_v3,2022.1.1,59.99948400421923,
25,0,25,0,,,,,,,,,,2,2.0,3.0,z,63.0,1.0,3.35133458220192,2.10421507306074,None,435.1977444999993,None,437.3213689000004,None,437.3213689000004,None,437.33071941999987,None,None,437.3213689000004,None,['z'],[2.0506675000015093],439.2973235999998,None,z,4.050667500001509,1,1,0.5,442.6390059000005,None,None,442.6390059000005,None,,,,,,,,,,,,,,,,,,,,,,,CBC_1031,001,1,1,6,4,0.95,2023-10-20_10h25.09.885,MSI_AV_v3,2022.1.1,59.99948400421923,
26,0,26,0,,,,,,,,,,3,1.0,2.0,b,9.0,1.0,2.517541937862754,1.12425433982333,None,444.4471130999991,None,445.58655439999893,None,445.58655439999893,None,445.5974370199994,None,None,445.58655439999893,None,['b'],[0.6787372000017058],447.56396119999954,None,b,2.678737200001706,1,1,0.5185185185185185,450.07172270000046,None,None,450.07172270000046,None,,,,,,,,,,,,,,,,,,,,,,,CBC_1031,001,1,1,6,4,0.95,2023-10-20_10h25.09.885,MSI_AV_v3,2022.1.1,59.99948400421923,
27,0,27,0,,,,,,,,,,2,1.0,3.0,z,27.0,1.0,2.294664843639333,0.80788063606262,None,451.8796893999988,None,452.69702419999885,None,452.69702419999885,None,452.69704729000017,None,None,452.69702419999885,None,None,,454.68065489999935,None,[],[],0,3,0.5,456.9631472000001,None,None,456.9631472000001,None,,,,,,,,,,,,,,,,,,,,,,,CBC_1031,001,1,1,6,4,0.95,2023-10-20_10h25.09.885,MSI_AV_v3,2022.1.1,59.99948400421923,
28,0,28,0,,,,,,,,,,0,1.0,0.0,z,63.0,1.0,2.678526077912375,1.36309078069689,None,458.7640193999996,None,460.15274659999886,None,460.15274659999886,None,460.16412882000003,None,['b'],460.15274659999886,None,None,,462.1333023999996,None,b,1.4421557000023313,0,0,0.4827586206896552,464.82057989999885,None,None,464.82057989999885,None,[1.4421557000023313],,,,,,,,,,,,,,,,,,,,,,CBC_1031,001,1,1,6,4,0.95,2023-10-20_10h25.09.885,MSI_AV_v3,2022.1.1,59.99948400421923,
29,0,29,0,,,,,,,,,,0,0.0,1.0,b,63.0,1.0,2.2759877950103027,1.78643585472448,None,466.63045989999955,None,468.4345637000006,None,468.4345637000006,None,468.4308095900005,None,None,468.4345637000006,None,"['z', 'b']","[0.217479100001583, 0.30832420000115235]",470.4138351999991,None,z,2.217479100001583,0,0,0.4666666666666667,472.68287620000046,None,None,472.68287620000046,None,,,,,,,,,,,,,,,,,,,,,,,CBC_1031,001,1,1,6,4,0.95,2023-10-20_10h25.09.885,MSI_AV_v3,2022.1.1,59.99948400421923,
30,0,30,0,,,,,,,,,,1,0.0,2.0,z,27.0,1.0,3.2062024266105302,1.21250262048173,None,474.49748530000033,None,475.73670459999994,None,475.73670459999994,None,475.74744281999955,None,['z'],475.73670459999994,None,None,,477.7340110999994,None,z,1.496033500001431,1,1,0.4838709677419355,480.9547690999989,None,None,480.9547690999989,None,[1.496033500001431],,,,,,,,,,,,,,,,,,,,,,CBC_1031,001,1,1,6,4,0.95,2023-10-20_10h25.09.885,MSI_AV_v3,2022.1.1,59.99948400421923,
31,0,31,0,,,,,,,,,,0,1.0,0.0,z,63.0,1.0,2.666404967794728,3.40155979865722,None,482.76406399999905,None,486.1851745999993,None,486.1851745999993,None,486.1808311899994,None,None,486.1851745999993,None,['z'],[0.515932200001771],488.1641600999992,None,z,2.515932200001771,1,1,0.5,490.81232889999956,None,None,490.81232889999956,None,,,,,,,,,,,,,,,,,,,,,,,CBC_1031,001,1,1,6,4,0.95,2023-10-20_10h25.09.885,MSI_AV_v3,2022.1.1,59.99948400421923,
32,0,32,0,,,,,,,,,,3,1.0,0.0,b,63.0,1.0,4.52047235037039,1.90743690794447,None,492.6143880999989,None,494.5361515000004,None,494.5361515000004,None,494.5475854199987,None,None,494.5361515000004,None,['b'],[1.247881100000086],496.514224999999,None,b,3.247881100000086,1,1,0.5151515151515151,501.0282731999996,None,None,501.0282731999996,None,,,,,,,,,,,,,,,,,,,,,,,CBC_1031,001,1,1,6,4,0.95,2023-10-20_10h25.09.885,MSI_AV_v3,2022.1.1,59.99948400421923,
33,0,33,0,,,,,,,,,,2,3.0,2.0,b,63.0,1.0,2.6391747348430608,3.1963008326951,None,502.83007279999947,None,506.03611009999986,None,506.03611009999986,None,506.04762881999994,None,None,506.03611009999986,None,['z'],[2.040101800001139],508.01377779999893,None,z,4.040101800001139,0,0,0.5,510.6323238999994,None,None,510.6323238999994,None,,,,,,,,,,,,,,,,,,,,,,,CBC_1031,001,1,1,6,4,0.95,2023-10-20_10h25.09.885,MSI_AV_v3,2022.1.1,59.99948400421923,
34,0,34,0,,,,,,,,,,3,3.0,1.0,z,27.0,1.0,3.02234236141277,0.979776149765883,None,512.4476223000001,None,513.4339870000003,None,513.4339870000003,None,513.4304226600002,None,None,513.4339870000003,None,['b'],[1.9733840000008058],515.4142991999997,None,b,3.973384000000806,0,0,0.4857142857142857,518.4259681999993,None,None,518.4259681999993,None,,,,,,,,,,,,,,,,,,,,,,,CBC_1031,001,1,1,6,4,0.95,2023-10-20_10h25.09.885,MSI_AV_v3,2022.1.1,59.99948400421923,
35,0,35,0,,,,,,,,,,1,3.0,2.0,z,63.0,1.0,3.7500315165247198,1.1243895841892,None,520.2309552999996,None,521.369584099999,None,521.369584099999,None,521.3810553199993,None,['b'],521.369584099999,None,None,,523.3492021000002,None,b,1.327572500000315,0,0,0.4722222222222222,527.1035133000005,None,None,527.1035133000005,None,[1.327572500000315],,,,,,,,,,,,,,,,,,,,,,CBC_1031,001,1,1,6,4,0.95,2023-10-20_10h25.09.885,MSI_AV_v3,2022.1.1,59.99948400421923,
36,0,36,0,,,,,,,,,,1,2.0,0.0,b,27.0,1.0,3.31929419319838,3.4543169006169,None,528.9143724000005,None,532.3854835999991,None,532.3854835999991,None,532.3810522899993,None,['z'],532.3854835999991,None,None,,534.3801093999991,None,z,1.9163392999998905,0,0,0.4594594594594595,537.7037574999995,None,None,537.7037574999995,None,[1.9163392999998905],,,,,,,,,,,,,,,,,,,,,,CBC_1031,001,1,1,6,4,0.95,2023-10-20_10h25.09.885,MSI_AV_v3,2022.1.1,59.99948400421923,
37,0,37,0,,,,,,,,,,3,1.0,0.0,b,63.0,1.0,2.526044641065533,2.40378712856304,None,539.5143921999988,None,541.9353245000002,None,541.9353245000002,None,541.9311168899993,None,['b'],541.9353245000002,None,None,,543.9303352000006,None,b,0.592424000000392,1,1,0.47368421052631576,546.4531109999989,None,None,546.4531109999989,None,[0.592424000000392],,,,,,,,,,,,,,,,,,,,,,CBC_1031,001,1,1,6,4,0.95,2023-10-20_10h25.09.885,MSI_AV_v3,2022.1.1,59.99948400421923,
38,0,38,0,,,,,,,,,,0,3.0,0.0,z,9.0,1.0,4.72585056748869,3.24569326556923,None,548.2643143999994,None,551.5178290000003,None,551.5178290000003,None,551.514349689999,None,None,551.5178290000003,None,['z'],[4.176707100001295],553.4978200999994,None,z,6.176707100001295,1,1,0.48717948717948717,558.2097783999998,None,None,558.2097783999998,None,,,,,,,,,,,,,,,,,,,,,,,CBC_1031,001,1,1,6,4,0.95,2023-10-20_10h25.09.885,MSI_AV_v3,2022.1.1,59.99948400421923,
39,0,39,0,,,,,,,,,,1,3.0,2.0,z,63.0,0.0,2.496959177995529,1.25920145784721,None,560.0151336999988,None,561.2852542,None,561.2852542,None,561.2815802899994,None,None,561.2852542,None,['b'],[2.267557200000738],563.2644328000006,None,b,4.267557200000738,0,1,0.475,565.7436094000004,None,None,565.7436094000004,None,,,,,,,,,,,,,,,,,,,,,,,CBC_1031,001,1,1,6,4,0.95,2023-10-20_10h25.09.885,MSI_AV_v3,2022.1.1,59.99948400421923,
40,0,40,0,,,,,,,,,,0,1.0,0.0,z,63.0,1.0,2.82320408183943,1.95130344756745,None,567.5478000999992,None,569.5187693999997,None,569.5187693999997,None,569.5145963900003,None,['z'],569.5187693999997,None,None,,571.5133432999992,None,z,0.6147483000004286,1,1,0.4878048780487805,574.3385663999998,None,None,574.3385663999998,None,[0.6147483000004286],,,,,,,,,,,,,,,,,,,,,,CBC_1031,001,1,1,6,4,0.95,2023-10-20_10h25.09.885,MSI_AV_v3,2022.1.1,59.99948400421923,
41,0,41,0,,,,,,,,,,2,3.0,2.0,b,63.0,1.0,3.6438386551209,0.974903167432984,None,576.1478741999999,None,577.1360153000005,None,577.1360153000005,None,577.1482457199992,None,['b'],577.1360153000005,None,None,,579.1315484999996,None,b,1.6775431000005483,1,1,0.5,582.7884656000006,None,None,582.7884656000006,None,[1.6775431000005483],,,,,,,,,,,,,,,,,,,,,,CBC_1031,001,1,1,6,4,0.95,2023-10-20_10h25.09.885,MSI_AV_v3,2022.1.1,59.99948400421923,
42,0,42,0,,,,,,,,,,1,2.0,3.0,b,63.0,1.0,3.73326136168326,2.22427187882546,None,584.5986821999995,None,586.8378253999999,None,586.8378253999999,None,586.848032519999,None,None,586.8378253999999,None,['z'],[0.16309740000178863],588.815411399999,None,z,2.1630974000017886,0,0,0.4883720930232558,592.5476321999995,None,None,592.5476321999995,None,,,,,,,,,,,,,,,,,,,,,,,CBC_1031,001,1,1,6,4,0.95,2023-10-20_10h25.09.885,MSI_AV_v3,2022.1.1,59.99948400421923,
43,0,43,0,,,,,,,,,,2,1.0,3.0,z,27.0,1.0,4.77723667052879,1.94858485820231,None,594.347907899999,None,596.3176426999999,None,596.3176426999999,None,596.3146687899997,None,['z'],596.3176426999999,None,None,,598.3185952999993,None,z,1.8598833000014565,1,1,0.5,603.1052655999993,None,None,603.1052655999993,None,[1.8598833000014565],,,,,,,,,,,,,,,,,,,,,,CBC_1031,001,1,1,6,4,0.95,2023-10-20_10h25.09.885,MSI_AV_v3,2022.1.1,59.99948400421923,
,,,,,,,,,,,,,,,,,,,,,,,,,,,,,,,,,,,,,,,,,,,,,,,,,None,604.9147457999989,None,,,,,,,,,,,,,,,,,,CBC_1031,001,1,1,6,4,0.95,2023-10-20_10h25.09.885,MSI_AV_v3,2022.1.1,59.99948400421923,
,,,,,,,,,,,,,,,,,,,,,,,,,,,,,,,,,,,,,,,,,,,,,,,,,,,,609.9147780000003,None,None,609.9147780000003,None,,,,,,,,,,,,,CBC_1031,001,1,1,6,4,0.95,2023-10-20_10h25.09.885,MSI_AV_v3,2022.1.1,59.99948400421923,
,,,,,,,,,,,,,,,,,,,,,,,,,,,,,,,,,,,,,,,,,,,,,,,,,,,,,,,,,z,b,easy,"[0, 1, 2, 3]","[0, 3, 1, 2]",0.45454545454545453,0.45454545454545453,0.6363636363636364,0.45454545454545453,24,2,18,,,,,,,,,,,,
