trials_runs.thisRepN,trials_runs.thisTrialN,trials_runs.thisN,trials_runs.thisIndex,standbild_start.started,standbild_start.stopped,trigger.keys,trigger.rt,trigger.started,trigger.stopped,keys_2.keys,keys_2.started,keys_2.stopped,trials_runs.auditory_stim,trials_runs.visual_stim_left,trials_runs.visual_stim_right,trials_runs.correctKey,trials_runs.presentationFrequncy,trials_runs.FBaccuracy,trials_runs.ISI_s,trials_runs.ITI_s,keys_3.keys,keys_3.started,keys_3.stopped,ImageLeft_4.started,ImageLeft_4.stopped,ImageRight_4.started,ImageRight_4.stopped,sound_4.started,sound_4.stopped,response_4.keys,response_4.started,response_4.stopped,response_5.keys,response_5.started,response_5.stopped,response_runs.keys,response_runs.rt,trials_runs.correct_answer,trials_runs.feedback_given,trials_runs.running_mean,feedback_6.started,feedback_6.stopped,keys_6.keys,keys_6.rt,keys_6.started,keys_6.stopped,response_5.rt,response_4.rt,keys_7.keys,keys_7.started,keys_7.stopped,standbild_end.started,standbild_end.stopped,Stop_exp.keys,Stop_exp.started,Stop_exp.stopped,trials_runs.rightKey,trials_runs.leftKey,ts_difficulty,visualPair,audioPair,trials_runs.mean_acc_1stFourth,trials_runs.mean_acc_2ndFourth,trials_runs.mean_acc_3rdFourth,trials_runs.mean_acc_4thFourth,nbCorrect,nbOmissions,nbIncorrect,participant,session,visual set [1-6],audio set [1-3 / 4-6],trial structure [0-3 / 4-7],pairing [0-23],prob Feedback,date,expName,psychopyVersion,frameRate,
,,,,214.15535640000053,None,t,91.14779439999893,214.15535640000053,None,,,,,,,,,,,,,,,,,,,,,,,,,,,,,,,,,,,,,,,,,,,,,,,,,,,,,,,,,,,,CBC_1110,001,4,1,0,15,0.95,2024-08-25_14h33.39.375,MSI_AV_v3,2022.1.1,59.95006159868488,
,,,,,,,,,,None,305.3201818000007,None,,,,,,,,,,,,,,,,,,,,,,,,,,,,,,,,,,,,,,,,,,,,,,,,,,,,,,,,,CBC_1110,001,4,1,0,15,0.95,2024-08-25_14h33.39.375,MSI_AV_v3,2022.1.1,59.95006159868488,
0,0,0,0,,,,,,,,,,2,0,1,b,63,1,2.342239579230602,0.974903167432984,None,305.5200855000003,None,306.58591440000055,None,306.58591440000055,None,306.58638752000024,None,None,306.58591440000055,None,None,308.48671750000085,None,[],[],0,3,0.0,310.82198040000003,None,['z'],[0.9546515999991243],310.82198040000003,None,,,,,,,,,,,,,,,,,,,,,,,CBC_1110,001,4,1,0,15,0.95,2024-08-25_14h33.39.375,MSI_AV_v3,2022.1.1,59.95006159868488,
1,0,1,0,,,,,,,,,,3,2,3,b,63,1,2.6391747348430608,1.12425433982333,None,312.6200421000003,None,313.7807833000006,None,313.7807833000006,None,313.7869961500005,None,None,313.7807833000006,None,['z'],315.7373950000001,None,z,2.9539760999987266,0,0,0.0,318.35697430000073,None,None,,318.35697430000073,None,[0.9539760999987266],,,,,,,,,,,,,,,,,,,,,,CBC_1110,001,4,1,0,15,0.95,2024-08-25_14h33.39.375,MSI_AV_v3,2022.1.1,59.95006159868488,
2,0,2,0,,,,,,,,,,2,2,0,z,27,1,3.6438386551209,0.77703640172831,None,320.1698111000005,None,320.9615298000008,None,320.9615298000008,None,320.9707020600008,None,None,320.9615298000008,None,['b'],322.93659620000017,None,b,2.8065897999995286,0,0,0.0,326.57044360000054,None,None,,326.57044360000054,None,[0.8065897999995286],,,,,,,,,,,,,,,,,,,,,,CBC_1110,001,4,1,0,15,0.95,2024-08-25_14h33.39.375,MSI_AV_v3,2022.1.1,59.95006159868488,
3,0,3,0,,,,,,,,,,1,0,1,z,63,1,3.76873691643126,1.90743690794447,None,328.37013450000086,None,330.3049837000008,None,330.3049837000008,None,330.3036244600007,None,None,330.3049837000008,None,['z'],332.26975220000077,None,z,3.2048116999985723,1,1,0.25,336.02427310000076,None,None,,336.02427310000076,None,[1.2048116999985723],,,,,,,,,,,,,,,,,,,,,,CBC_1110,001,4,1,0,15,0.95,2024-08-25_14h33.39.375,MSI_AV_v3,2022.1.1,59.95006159868488,
4,0,4,0,,,,,,,,,,0,3,2,b,63,1,4.7533305109883095,1.36309078069689,None,337.8367104000008,None,339.2299548000001,None,339.2299548000001,None,339.23685264999995,None,None,339.2299548000001,None,['b'],341.18659110000044,None,b,3.538678899999468,1,1,0.4,345.92727300000024,None,None,,345.92727300000024,None,[1.5386788999994678],,,,,,,,,,,,,,,,,,,,,,CBC_1110,001,4,1,0,15,0.95,2024-08-25_14h33.39.375,MSI_AV_v3,2022.1.1,59.95006159868488,
5,0,5,0,,,,,,,,,,1,2,1,z,9,1,4.61004669244928,1.34668860557497,None,347.73757640000076,None,349.10526670000036,None,349.10526670000036,None,349.1036249700005,None,None,349.10526670000036,None,['z'],351.08678450000025,None,z,2.668878299999051,1,1,0.5,355.69721890000073,None,None,,355.69721890000073,None,[0.6688782999990508],,,,,,,,,,,,,,,,,,,,,,CBC_1110,001,4,1,0,15,0.95,2024-08-25_14h33.39.375,MSI_AV_v3,2022.1.1,59.95006159868488,
6,0,6,0,,,,,,,,,,0,3,1,b,27,1,4.190022164497369,1.52290599571961,None,357.5029162000001,None,359.04332910000085,None,359.04332910000085,None,359.05365276000066,None,None,359.04332910000085,None,['z'],361.0200726000003,None,z,4.636205299999347,0,0,0.42857142857142855,365.1950196000007,None,None,,365.1950196000007,None,[2.6362052999993466],,,,,,,,,,,,,,,,,,,,,,CBC_1110,001,4,1,0,15,0.95,2024-08-25_14h33.39.375,MSI_AV_v3,2022.1.1,59.95006159868488,
7,0,7,0,,,,,,,,,,2,0,1,b,63,1,3.73326136168326,3.24569326556923,None,367.0036796000004,None,370.25875670000005,None,370.25875670000005,None,370.2697853700006,None,None,370.25875670000005,None,['b'],372.2367453000006,None,b,2.780230699999265,1,1,0.5,375.9557399000005,None,None,,375.9557399000005,None,[0.7802306999992652],,,,,,,,,,,,,,,,,,,,,,CBC_1110,001,4,1,0,15,0.95,2024-08-25_14h33.39.375,MSI_AV_v3,2022.1.1,59.95006159868488,
8,0,8,0,,,,,,,,,,2,1,0,z,63,1,2.592312596923728,1.96568735158996,None,377.7699913000006,None,379.7574773000006,None,379.7574773000006,None,379.7537628700006,None,None,379.7574773000006,None,['z'],381.73707750000085,None,z,2.478967999998531,1,1,0.5555555555555556,384.3244026000002,None,None,,384.3244026000002,None,[0.478967999998531],,,,,,,,,,,,,,,,,,,,,,CBC_1110,001,4,1,0,15,0.95,2024-08-25_14h33.39.375,MSI_AV_v3,2022.1.1,59.95006159868488,
9,0,9,0,,,,,,,,,,3,0,2,z,27,1,2.496959177995529,1.60731937853708,None,386.13752770000065,None,387.7553906000003,None,387.7553906000003,None,387.75379167000074,None,None,387.7553906000003,None,['b'],389.73711230000026,None,b,3.080375899999126,0,0,0.5,392.2149521000001,None,None,,392.2149521000001,None,[1.080375899999126],,,,,,,,,,,,,,,,,,,,,,CBC_1110,001,4,1,0,15,0.95,2024-08-25_14h33.39.375,MSI_AV_v3,2022.1.1,59.95006159868488,
10,0,10,0,,,,,,,,,,1,1,0,b,63,1,3.31929419319838,3.1424449555106,None,394.0202644000001,None,397.1728184000003,None,397.1728184000003,None,397.1700718700008,None,None,397.1728184000003,None,['z'],399.15355720000025,None,z,2.929472499999065,0,0,0.45454545454545453,402.4546652000008,None,None,,402.4546652000008,None,[0.9294724999990649],,,,,,,,,,,,,,,,,,,,,,CBC_1110,001,4,1,0,15,0.95,2024-08-25_14h33.39.375,MSI_AV_v3,2022.1.1,59.95006159868488,
11,0,11,0,,,,,,,,,,2,1,0,z,63,1,2.792365600763554,3.4543169006169,None,404.2536237000004,None,407.7254434000006,None,407.7254434000006,None,407.73720416000015,None,None,407.7254434000006,None,['b'],409.70367410000017,None,b,3.2664617999989787,0,0,0.4166666666666667,412.48173750000024,None,None,,412.48173750000024,None,[1.2664617999989787],,,,,,,,,,,,,,,,,,,,,,CBC_1110,001,4,1,0,15,0.95,2024-08-25_14h33.39.375,MSI_AV_v3,2022.1.1,59.95006159868488,
12,0,12,0,,,,,,,,,,3,2,3,b,63,1,2.294664843639333,2.40378712856304,None,414.28692050000063,None,416.6928420000004,None,416.6928420000004,None,416.7028494700003,None,None,416.6928420000004,None,['z'],418.68717650000053,None,z,2.558147399999143,0,0,0.38461538461538464,420.96387310000046,None,None,,420.96387310000046,None,[0.5581473999991431],,,,,,,,,,,,,,,,,,,,,,CBC_1110,001,4,1,0,15,0.95,2024-08-25_14h33.39.375,MSI_AV_v3,2022.1.1,59.95006159868488,
13,0,13,0,,,,,,,,,,2,2,0,z,27,1,2.629554641171433,1.95130344756745,None,422.7703147000002,None,424.7429572000001,None,424.7429572000001,None,424.75389306000034,None,None,424.7429572000001,None,['b'],426.7191810000004,None,b,3.602570699998978,0,0,0.35714285714285715,429.33817100000033,None,None,,429.33817100000033,None,[1.602570699998978],,,,,,,,,,,,,,,,,,,,,,CBC_1110,001,4,1,0,15,0.95,2024-08-25_14h33.39.375,MSI_AV_v3,2022.1.1,59.95006159868488,
14,0,14,0,,,,,,,,,,1,0,1,z,63,1,3.68371079902891,0.979776149765883,None,431.1537575000002,None,432.1564816,None,432.1564816,None,432.15372787000024,None,None,432.1564816,None,['z'],434.1362859000001,None,z,3.35227759999907,1,1,0.4,437.8083867000005,None,None,,437.8083867000005,None,[1.35227759999907],,,,,,,,,,,,,,,,,,,,,,CBC_1110,001,4,1,0,15,0.95,2024-08-25_14h33.39.375,MSI_AV_v3,2022.1.1,59.95006159868488,
15,0,15,0,,,,,,,,,,1,1,0,b,63,1,3.7500315165247198,1.25817747924478,None,439.6196996000008,None,440.8905513000009,None,440.8905513000009,None,440.8871433700001,None,None,440.8905513000009,None,['b'],442.8699895000009,None,b,3.1793380999988585,1,1,0.4375,446.60878290000073,None,None,,446.60878290000073,None,[1.1793380999988585],,,,,,,,,,,,,,,,,,,,,,CBC_1110,001,4,1,0,15,0.95,2024-08-25_14h33.39.375,MSI_AV_v3,2022.1.1,59.95006159868488,
16,0,16,0,,,,,,,,,,3,2,3,b,63,1,4.46924002178158,1.27538462653558,None,448.42046200000004,None,449.6932555000003,None,449.6932555000003,None,449.7031891700003,None,None,449.6932555000003,None,['z'],451.6873144000001,None,z,2.964072699999633,0,0,0.4117647058823529,456.1392760000008,None,None,,456.1392760000008,None,[0.9640726999996332],,,,,,,,,,,,,,,,,,,,,,CBC_1110,001,4,1,0,15,0.95,2024-08-25_14h33.39.375,MSI_AV_v3,2022.1.1,59.95006159868488,
17,0,17,0,,,,,,,,,,0,1,3,z,27,1,3.3728785608729996,1.64421109900286,None,457.9537540000001,None,459.60913340000025,None,459.60913340000025,None,459.62061366000034,None,None,459.60913340000025,None,['b'],461.5868822000002,None,b,3.903350299999147,0,0,0.3888888888888889,464.9547252000002,None,None,,464.9547252000002,None,[1.903350299999147],,,,,,,,,,,,,,,,,,,,,,CBC_1110,001,4,1,0,15,0.95,2024-08-25_14h33.39.375,MSI_AV_v3,2022.1.1,59.95006159868488,
18,0,18,0,,,,,,,,,,3,2,1,b,9,1,2.7134565917469198,2.10421507306074,None,466.7543460000006,None,468.8754963000001,None,468.8754963000001,None,468.88737286000014,None,None,468.8754963000001,None,['z'],470.85366350000004,None,z,2.5319448999989618,0,0,0.3684210526315789,473.58448210000006,None,None,,473.58448210000006,None,[0.5319448999989618],,,,,,,,,,,,,,,,,,,,,,CBC_1110,001,4,1,0,15,0.95,2024-08-25_14h33.39.375,MSI_AV_v3,2022.1.1,59.95006159868488,
19,0,19,0,,,,,,,,,,1,1,3,b,27,1,2.92731383428727,1.21250262048173,None,475.38650570000027,None,476.60803340000075,None,476.60803340000075,None,476.60401107000007,None,None,476.60803340000075,None,['z'],478.5872220000001,None,z,3.0324056999997993,0,0,0.35,481.49656380000033,None,None,,481.49656380000033,None,[1.0324056999997993],,,,,,,,,,,,,,,,,,,,,,CBC_1110,001,4,1,0,15,0.95,2024-08-25_14h33.39.375,MSI_AV_v3,2022.1.1,59.95006159868488,
20,0,20,0,,,,,,,,,,0,2,3,z,63,1,2.433630701072358,2.09887870490381,None,483.30306010000004,None,485.4096558000001,None,485.4096558000001,None,485.41936207000026,None,None,485.4096558000001,None,['b'],487.3875418000007,None,b,3.1522790999997596,0,0,0.3333333333333333,489.81139840000014,None,None,,489.81139840000014,None,[1.1522790999997596],,,,,,,,,,,,,,,,,,,,,,CBC_1110,001,4,1,0,15,0.95,2024-08-25_14h33.39.375,MSI_AV_v3,2022.1.1,59.95006159868488,
21,0,21,0,,,,,,,,,,1,0,1,z,63,0,2.526044641065533,0.761758675042088,None,491.6205624000004,None,492.39156190000085,None,492.39156190000085,None,492.3872667700002,None,None,492.39156190000085,None,['z'],494.3704664000006,None,z,2.871821299999283,1,0,0.36363636363636365,496.88649370000076,None,None,,496.88649370000076,None,[0.8718212999992829],,,,,,,,,,,,,,,,,,,,,,CBC_1110,001,4,1,0,15,0.95,2024-08-25_14h33.39.375,MSI_AV_v3,2022.1.1,59.95006159868488,
22,0,22,0,,,,,,,,,,2,0,3,b,9,1,4.52047235037039,2.6299100644723,None,498.6870499000006,None,501.3438021000002,None,501.3438021000002,None,501.3541818600006,None,None,501.3438021000002,None,['b'],503.3199306000006,None,b,3.5223447999997006,1,1,0.391304347826087,507.8226287000007,None,None,,507.8226287000007,None,[1.5223447999997006],,,,,,,,,,,,,,,,,,,,,,CBC_1110,001,4,1,0,15,0.95,2024-08-25_14h33.39.375,MSI_AV_v3,2022.1.1,59.95006159868488,
23,0,23,0,,,,,,,,,,0,3,2,b,63,1,2.82320408183943,1.94858485820231,None,509.6373070000009,None,511.61054390000027,None,511.61054390000027,None,511.62124896000023,None,None,511.61054390000027,None,['z'],513.5866850000002,None,z,3.13621189999958,0,0,0.375,516.4087219000003,None,None,,516.4087219000003,None,[1.13621189999958],,,,,,,,,,,,,,,,,,,,,,CBC_1110,001,4,1,0,15,0.95,2024-08-25_14h33.39.375,MSI_AV_v3,2022.1.1,59.95006159868488,
24,0,24,0,,,,,,,,,,1,3,1,z,27,1,3.26539063535182,1.78643585472448,None,518.2204878000002,None,520.0214853000007,None,520.0214853000007,None,520.0203903700008,None,None,520.0214853000007,None,['b'],522.0036835000001,None,b,2.6274518999989596,0,0,0.36,525.2530072000009,None,None,,525.2530072000009,None,[0.6274518999989596],,,,,,,,,,,,,,,,,,,,,,CBC_1110,001,4,1,0,15,0.95,2024-08-25_14h33.39.375,MSI_AV_v3,2022.1.1,59.95006159868488,
25,0,25,0,,,,,,,,,,3,3,2,z,63,1,3.71372710086949,2.49839527409216,None,527.0538628000004,None,529.5770600000005,None,529.5770600000005,None,529.5875636600003,None,None,529.5770600000005,None,['z'],531.5529067000007,None,z,2.4197882999987996,1,1,0.38461538461538464,535.2458541000005,None,None,,535.2458541000005,None,[0.41978829999879963],,,,,,,,,,,,,,,,,,,,,,CBC_1110,001,4,1,0,15,0.95,2024-08-25_14h33.39.375,MSI_AV_v3,2022.1.1,59.95006159868488,
26,0,26,0,,,,,,,,,,3,0,2,z,27,1,4.77723667052879,2.78346932462847,None,537.0539089000004,None,539.8573893000002,None,539.8573893000002,None,539.8539911700004,None,None,539.8573893000002,None,['b'],541.8362472000008,None,b,3.0167610999997123,0,0,0.37037037037037035,546.6068826000001,None,None,,546.6068826000001,None,[1.0167610999997123],,,,,,,,,,,,,,,,,,,,,,CBC_1110,001,4,1,0,15,0.95,2024-08-25_14h33.39.375,MSI_AV_v3,2022.1.1,59.95006159868488,
27,0,27,0,,,,,,,,,,1,1,0,b,63,1,4.11514536789087,2.96653053743745,None,548.4207268,None,551.4070521000003,None,551.4070521000003,None,551.4041539700006,None,None,551.4070521000003,None,['z'],553.3876434000003,None,z,3.6763597999988633,0,0,0.35714285714285715,557.4884790000006,None,None,,557.4884790000006,None,[1.6763597999988633],,,,,,,,,,,,,,,,,,,,,,CBC_1110,001,4,1,0,15,0.95,2024-08-25_14h33.39.375,MSI_AV_v3,2022.1.1,59.95006159868488,
28,0,28,0,,,,,,,,,,3,3,2,z,63,1,4.72585056748869,2.15533949826702,None,559.2873109000002,None,561.4596786000002,None,561.4596786000002,None,561.4709682600005,None,None,561.4596786000002,None,['b'],563.4375546000001,None,b,6.122236100000009,0,0,0.3448275862068966,568.1522325000005,None,None,,568.1522325000005,None,[4.122236100000009],,,,,,,,,,,,,,,,,,,,,,CBC_1110,001,4,1,0,15,0.95,2024-08-25_14h33.39.375,MSI_AV_v3,2022.1.1,59.95006159868488,
29,0,29,0,,,,,,,,,,2,0,1,b,63,1,3.2062024266105302,0.952147612306987,None,569.9534452000007,None,570.9274814,None,570.9274814,None,570.9376798600006,None,None,570.9274814,None,['b'],572.9040526000008,None,b,4.2184277999995174,1,1,0.36666666666666664,576.1072900000008,None,None,,576.1072900000008,None,[2.2184277999995174],,,,,,,,,,,,,,,,,,,,,,CBC_1110,001,4,1,0,15,0.95,2024-08-25_14h33.39.375,MSI_AV_v3,2022.1.1,59.95006159868488,
30,0,30,0,,,,,,,,,,0,3,2,b,63,1,4.12485271162806,1.25920145784721,None,577.9200089000005,None,579.1893320000008,None,579.1893320000008,None,579.1874336700007,None,None,579.1893320000008,None,['b'],581.1704903000009,None,b,6.005479800000103,1,1,0.3870967741935484,585.2894803000008,None,None,,585.2894803000008,None,[4.005479800000103],,,,,,,,,,,,,,,,,,,,,,CBC_1110,001,4,1,0,15,0.95,2024-08-25_14h33.39.375,MSI_AV_v3,2022.1.1,59.95006159868488,
31,0,31,0,,,,,,,,,,3,3,2,z,63,1,2.693348633324513,3.33124983260532,None,587.1042080000007,None,590.4400541000005,None,590.4400541000005,None,590.4363906800008,None,None,590.4400541000005,None,None,592.4204147,None,[],[],0,3,0.375,595.0924458000009,None,['z'],[1.0217140999993717],595.0924458000009,None,,,,,,,,,,,,,,,,,,,,,,,CBC_1110,001,4,1,0,15,0.95,2024-08-25_14h33.39.375,MSI_AV_v3,2022.1.1,59.95006159868488,
32,0,32,0,,,,,,,,,,0,1,3,z,27,1,2.517541937862754,1.53243550275999,None,596.9043226000003,None,598.4400488000001,None,598.4400488000001,None,598.4364143800003,None,None,598.4400488000001,None,['z'],600.4206059000007,None,z,2.936389499998768,1,1,0.3939393939393939,602.9284733000004,None,None,,602.9284733000004,None,[0.9363894999987679],,,,,,,,,,,,,,,,,,,,,,CBC_1110,001,4,1,0,15,0.95,2024-08-25_14h33.39.375,MSI_AV_v3,2022.1.1,59.95006159868488,
33,0,33,0,,,,,,,,,,3,2,0,b,27,1,4.53337421950507,0.80788063606262,None,604.7373383000004,None,605.5539597000006,None,605.5539597000006,None,605.5541062700008,None,['z'],605.5539597000006,None,None,607.5554272000008,None,z,1.3240726999993058,0,0,0.38235294117647056,612.0944764000005,None,None,,612.0944764000005,None,,[1.3240726999993058],,,,,,,,,,,,,,,,,,,,,CBC_1110,001,4,1,0,15,0.95,2024-08-25_14h33.39.375,MSI_AV_v3,2022.1.1,59.95006159868488,
34,0,34,0,,,,,,,,,,0,3,2,b,63,0,3.35133458220192,1.18065738546375,None,613.9041610000004,None,615.1076078000006,None,615.1076078000006,None,615.1043141700006,None,None,615.1076078000006,None,['z'],617.0874088,None,z,4.535028399998737,0,1,0.37142857142857144,620.4261815000009,None,None,,620.4261815000009,None,[2.535028399998737],,,,,,,,,,,,,,,,,,,,,,CBC_1110,001,4,1,0,15,0.95,2024-08-25_14h33.39.375,MSI_AV_v3,2022.1.1,59.95006159868488,
35,0,35,0,,,,,,,,,,2,0,1,b,63,1,4.01714354611405,2.22427187882546,None,622.2373153000008,None,624.4741039,None,624.4741039,None,624.4712236700002,None,None,624.4741039,None,['b'],626.4529337000004,None,b,3.0791648999993413,1,1,0.3888888888888889,630.4641767000003,None,None,,630.4641767000003,None,[1.0791648999993413],,,,,,,,,,,,,,,,,,,,,,CBC_1110,001,4,1,0,15,0.95,2024-08-25_14h33.39.375,MSI_AV_v3,2022.1.1,59.95006159868488,
36,0,36,0,,,,,,,,,,3,3,2,z,63,1,4.40017271499661,1.43470440954152,None,632.2710548000005,None,633.7225847000009,None,633.7225847000009,None,633.7208758700003,None,None,633.7225847000009,None,['z'],635.7042360000005,None,z,2.5194197999990138,1,1,0.40540540540540543,640.0926932000002,None,None,,640.0926932000002,None,[0.5194197999990138],,,,,,,,,,,,,,,,,,,,,,CBC_1110,001,4,1,0,15,0.95,2024-08-25_14h33.39.375,MSI_AV_v3,2022.1.1,59.95006159868488,
37,0,37,0,,,,,,,,,,2,2,0,z,27,1,2.2759877950103027,0.917519910446003,None,641.9037097,None,642.8413315000007,None,642.8413315000007,None,642.8378801700005,None,None,642.8413315000007,None,['z'],644.8211493000008,None,z,3.576848599999721,1,1,0.42105263157894735,647.0797858000005,None,None,,647.0797858000005,None,[1.576848599999721],,,,,,,,,,,,,,,,,,,,,,CBC_1110,001,4,1,0,15,0.95,2024-08-25_14h33.39.375,MSI_AV_v3,2022.1.1,59.95006159868488,
38,0,38,0,,,,,,,,,,0,3,2,b,63,1,2.678526077912375,3.40155979865722,None,648.8876969000003,None,652.3138242000005,None,652.3138242000005,None,652.3211260600001,None,None,652.3138242000005,None,['b'],654.2867838000002,None,b,2.633968099999038,1,1,0.4358974358974359,656.9644982000009,None,None,,656.9644982000009,None,[0.6339680999990378],,,,,,,,,,,,,,,,,,,,,,CBC_1110,001,4,1,0,15,0.95,2024-08-25_14h33.39.375,MSI_AV_v3,2022.1.1,59.95006159868488,
39,0,39,0,,,,,,,,,,0,2,3,z,63,1,2.666404967794728,3.06992456303453,None,658.7716420000006,None,661.8602300000002,None,661.8602300000002,None,661.8713360600004,None,None,661.8602300000002,None,['z'],663.8375808000001,None,z,2.573347999998987,1,1,0.45,666.4940935000004,None,None,,666.4940935000004,None,[0.5733479999989868],,,,,,,,,,,,,,,,,,,,,,CBC_1110,001,4,1,0,15,0.95,2024-08-25_14h33.39.375,MSI_AV_v3,2022.1.1,59.95006159868488,
40,0,40,0,,,,,,,,,,1,1,3,b,27,1,4.77034425507967,1.1243895841892,None,668.3045293000005,None,669.4418458,None,669.4418458,None,669.4379568700001,None,None,669.4418458,None,['b'],671.4211365000001,None,b,3.9894148999992467,1,1,0.4634146341463415,676.1745644000002,None,None,,676.1745644000002,None,[1.9894148999992467],,,,,,,,,,,,,,,,,,,,,,CBC_1110,001,4,1,0,15,0.95,2024-08-25_14h33.39.375,MSI_AV_v3,2022.1.1,59.95006159868488,
41,0,41,0,,,,,,,,,,0,0,3,z,9,1,3.02234236141277,1.53122835510861,None,677.9877537000002,None,679.5394678000002,None,679.5394678000002,None,679.5377997700002,None,None,679.5394678000002,None,['z'],681.5207839000004,None,z,3.4937106999996104,1,1,0.47619047619047616,684.5384627000003,None,None,,684.5384627000003,None,[1.4937106999996104],,,,,,,,,,,,,,,,,,,,,,CBC_1110,001,4,1,0,15,0.95,2024-08-25_14h33.39.375,MSI_AV_v3,2022.1.1,59.95006159868488,
42,0,42,0,,,,,,,,,,1,1,0,b,63,1,2.91303524001082,1.38289892513751,None,686.3375950000009,None,687.7273174000002,None,687.7273174000002,None,687.7374928700006,None,None,687.7273174000002,None,['b'],689.7207951,None,b,2.6983144999994693,1,1,0.4883720930232558,692.6277332000009,None,None,,692.6277332000009,None,[0.6983144999994693],,,,,,,,,,,,,,,,,,,,,,CBC_1110,001,4,1,0,15,0.95,2024-08-25_14h33.39.375,MSI_AV_v3,2022.1.1,59.95006159868488,
43,0,43,0,,,,,,,,,,2,1,0,z,63,1,4.82531807167306,3.1963008326951,None,694.4380076000007,None,697.6620996000001,None,697.6620996000001,None,697.6713737600003,None,None,697.6620996000001,None,['b'],699.6380402000004,None,b,3.943066799999542,0,0,0.4772727272727273,704.4544236000002,None,None,,704.4544236000002,None,[1.9430667999995421],,,,,,,,,,,,,,,,,,,,,,CBC_1110,001,4,1,0,15,0.95,2024-08-25_14h33.39.375,MSI_AV_v3,2022.1.1,59.95006159868488,
,,,,,,,,,,,,,,,,,,,,,,,,,,,,,,,,,,,,,,,,,,,,,,,,,None,706.2546653000009,None,,,,,,,,,,,,,,,,,,CBC_1110,001,4,1,0,15,0.95,2024-08-25_14h33.39.375,MSI_AV_v3,2022.1.1,59.95006159868488,
,,,,,,,,,,,,,,,,,,,,,,,,,,,,,,,,,,,,,,,,,,,,,,,,,,,,711.2544837000005,None,None,711.2544837000005,None,,,,,,,,,,,,,CBC_1110,001,4,1,0,15,0.95,2024-08-25_14h33.39.375,MSI_AV_v3,2022.1.1,59.95006159868488,
,,,,,,,,,,,,,,,,,,,,,,,,,,,,,,,,,,,,,,,,,,,,,,,,,,,,,,,,,z,b,easy,"[0, 1, 2, 3]","[2, 1, 3, 0]",0.45454545454545453,0.2727272727272727,0.45454545454545453,0.7272727272727273,21,2,21,,,,,,,,,,,,
