trials_runs.thisRepN,trials_runs.thisTrialN,trials_runs.thisN,trials_runs.thisIndex,standbild_start.started,standbild_start.stopped,trigger.keys,trigger.rt,trigger.started,trigger.stopped,keys_2.keys,keys_2.started,keys_2.stopped,trials_runs.tactile_stim,trials_runs.visual_stim_left,trials_runs.visual_stim_right,trials_runs.correctKey,trials_runs.presentationFrequncy,trials_runs.FBaccuracy,trials_runs.ISI_s,trials_runs.ITI_s,keys_3.keys,keys_3.started,keys_3.stopped,image_stim_left.started,image_stim_right.started,tactile.started,response_4.keys,allKeys.keys,response_5.keys,response_5.rt,response_5.started,response_5.stopped,response_runs.keys,response_runs.rt,trials_runs.correct_answer,trials_runs.feedback_given,trials_runs.running_mean,feedback_6.stopped,feedback_6.started,keys_6.keys,keys_6.started,keys_6.stopped,keys_7.keys,keys_7.started,keys_7.stopped,standbild_end.started,standbild_end.stopped,Stop_exp.keys,Stop_exp.started,Stop_exp.stopped,trials_runs.rightKey,trials_runs.leftKey,ts_difficulty,visualPair,tactilePair,trials_runs.mean_acc_1stFourth,trials_runs.mean_acc_2ndFourth,trials_runs.mean_acc_3rdFourth,trials_runs.mean_acc_4thFourth,nbCorrect,nbOmissions,nbIncorrect,participant,session,visual set [1-6],tactile set [1-3],trial structure [0-3 / 4-7],pairing [0-23],prob Feedback,date,expName,psychopyVersion,frameRate,
,,,,37.75448529999994,None,t,46.46138739999151,37.75448529999994,None,,,,,,,,,,,,,,,,,,,,,,,,,,,,,,,,,,,,,,,,,,,,,,,,,,,,,,CBC_1127,003,3,3,0,5,0.95,2024-06-26_17h06.56.696,MSI_TV_v3,2022.1.1,59.95358393696405,
,,,,,,,,,,None,84.2343658000027,None,,,,,,,,,,,,,,,,,,,,,,,,,,,,,,,,,,,,,,,,,,,,,,,,,,,CBC_1127,003,3,3,0,5,0.95,2024-06-26_17h06.56.696,MSI_TV_v3,2022.1.1,59.95358393696405,
0,0,0,0,,,,,,,,,,3,0.0,1.0,z,63.0,1.0,2.693348633324513,3.1424449555106,None,84.43434010000055,None,87.55035788999812,87.55035788999812,87.56663829000463,None,[],['z'],[0.890671499997552],89.55050589999883,None,z,2.890671499997552,1,1,1.0,None,92.25274979999813,None,92.25274979999813,None,,,,,,,,,,,,,,,,,,,,,CBC_1127,003,3,3,0,5,0.95,2024-06-26_17h06.56.696,MSI_TV_v3,2022.1.1,59.95358393696405,
1,0,1,0,,,,,,,,,,0,0.0,1.0,b,63.0,1.0,4.46924002178158,3.33124983260532,None,94.05117430000246,None,97.36776409000159,97.36776409000159,97.38441929000255,None,[],['b'],[0.46520139999483945],99.37216830000398,None,b,2.4652013999948394,1,1,1.0,None,103.84006349999981,None,103.84006349999981,None,,,,,,,,,,,,,,,,,,,,,CBC_1127,003,3,3,0,5,0.95,2024-06-26_17h06.56.696,MSI_TV_v3,2022.1.1,59.95358393696405,
2,0,2,0,,,,,,,,,,1,2.0,3.0,z,63.0,1.0,2.6391747348430608,2.15533949826702,None,105.65029589999904,None,107.78433679000155,107.78433679000155,107.80115149000194,None,[],['b'],[0.5407120999952895],109.79225589999987,None,b,2.5407120999952895,0,0,0.6666666666666666,None,112.43727390000277,None,112.43727390000277,None,,,,,,,,,,,,,,,,,,,,,CBC_1127,003,3,3,0,5,0.95,2024-06-26_17h06.56.696,MSI_TV_v3,2022.1.1,59.95358393696405,
3,0,3,0,,,,,,,,,,3,2.0,1.0,z,9.0,1.0,4.190022164497369,1.53243550275999,None,114.25099369999953,None,115.76718759000069,115.76718759000069,115.78374849000393,None,[],['b'],[2.148259199995664],117.76458260000072,None,b,4.148259199995664,0,0,0.5,None,121.94449400000303,None,121.94449400000303,None,,,,,,,,,,,,,,,,,,,,,CBC_1127,003,3,3,0,5,0.95,2024-06-26_17h06.56.696,MSI_TV_v3,2022.1.1,59.95358393696405,
4,0,4,0,,,,,,,,,,0,0.0,2.0,b,27.0,1.0,3.6438386551209,1.1243895841892,None,123.7511783000009,None,124.85122319000511,124.85122319000511,124.86801299000508,None,[],['z'],[1.264313999992737],126.85668350000196,None,z,3.264313999992737,0,0,0.4,None,130.5115444000039,None,130.5115444000039,None,,,,,,,,,,,,,,,,,,,,,CBC_1127,003,3,3,0,5,0.95,2024-06-26_17h06.56.696,MSI_TV_v3,2022.1.1,59.95358393696405,
5,0,5,0,,,,,,,,,,2,2.0,3.0,b,63.0,1.0,2.2759877950103027,1.64421109900286,None,132.31827010000416,None,133.95059849000535,133.95059849000535,133.96736329000413,None,[],['b'],[0.3979749999998603],135.95208139999886,None,b,2.3979749999998603,1,1,0.5,None,138.22919620000175,None,138.22919620000175,None,,,,,,,,,,,,,,,,,,,,,CBC_1127,003,3,3,0,5,0.95,2024-06-26_17h06.56.696,MSI_TV_v3,2022.1.1,59.95358393696405,
6,0,6,0,,,,,,,,,,1,1.0,3.0,z,27.0,1.0,3.7500315165247198,3.4543169006169,None,140.03454580000107,None,143.46814189000287,143.46814189000287,143.48481399000156,None,[],['b'],[0.5356126999977278],145.4741639999993,None,b,2.5356126999977278,0,0,0.42857142857142855,None,149.225153899999,None,149.225153899999,None,,,,,,,,,,,,,,,,,,,,,CBC_1127,003,3,3,0,5,0.95,2024-06-26_17h06.56.696,MSI_TV_v3,2022.1.1,59.95358393696405,
7,0,7,0,,,,,,,,,,0,1.0,0.0,z,63.0,1.0,2.7134565917469198,0.761758675042088,None,151.03473810000287,None,151.76681249000393,151.76681249000393,151.78378429000003,None,[],['b'],[0.8035212999966461],153.76471740000125,None,b,2.803521299996646,0,0,0.375,None,156.48404509999818,None,156.48404509999818,None,,,,,,,,,,,,,,,,,,,,,CBC_1127,003,3,3,0,5,0.95,2024-06-26_17h06.56.696,MSI_TV_v3,2022.1.1,59.95358393696405,
8,0,8,0,,,,,,,,,,2,2.0,0.0,b,27.0,1.0,2.82320408183943,1.21250262048173,None,158.28455109999777,None,159.48388799000094,159.48388799000094,159.500409989999,None,[],['z'],[1.7687173999947845],161.48019610000483,None,z,3.7687173999947845,0,0,0.3333333333333333,None,164.29704190000484,None,164.29704190000484,None,,,,,,,,,,,,,,,,,,,,,CBC_1127,003,3,3,0,5,0.95,2024-06-26_17h06.56.696,MSI_TV_v3,2022.1.1,59.95358393696405,
9,0,9,0,,,,,,,,,,1,2.0,3.0,z,63.0,1.0,4.12485271162806,1.60731937853708,None,166.1015899999984,None,167.68476499000388,167.68476499000388,167.70132478999875,None,[],['z'],[0.41308659999776864],169.68211999999767,None,z,2.4130865999977686,1,1,0.4,None,173.82123449999926,None,173.82123449999926,None,,,,,,,,,,,,,,,,,,,,,CBC_1127,003,3,3,0,5,0.95,2024-06-26_17h06.56.696,MSI_TV_v3,2022.1.1,59.95358393696405,
10,0,10,0,,,,,,,,,,3,1.0,0.0,b,63.0,1.0,3.71372710086949,2.09887870490381,None,175.6348683000033,None,177.7181564900049,177.7181564900049,177.73478179000375,None,[],['z'],[0.7114022999958252],179.7173862999989,None,z,2.711402299995825,0,0,0.36363636363636365,None,183.4440986000045,None,183.4440986000045,None,,,,,,,,,,,,,,,,,,,,,CBC_1127,003,3,3,0,5,0.95,2024-06-26_17h06.56.696,MSI_TV_v3,2022.1.1,59.95358393696405,
11,0,11,0,,,,,,,,,,0,0.0,1.0,b,63.0,1.0,4.77034425507967,3.40155979865722,None,185.25114369999937,None,188.63497269000362,188.63497269000362,188.6515335899996,None,[],['z'],[0.8599959999992279],190.64027989999886,None,z,2.859995999999228,0,0,0.3333333333333333,None,195.41136330000154,None,195.41136330000154,None,,,,,,,,,,,,,,,,,,,,,CBC_1127,003,3,3,0,5,0.95,2024-06-26_17h06.56.696,MSI_TV_v3,2022.1.1,59.95358393696405,
12,0,12,0,,,,,,,,,,1,2.0,3.0,z,63.0,1.0,4.7533305109883095,0.979776149765883,None,197.21807350000017,None,198.18489029000483,198.18489029000483,198.2014819900025,None,[],['b'],[0.7992472999976599],200.18375160000141,None,b,2.79924729999766,0,0,0.3076923076923077,None,204.9378244000036,None,204.9378244000036,None,,,,,,,,,,,,,,,,,,,,,CBC_1127,003,3,3,0,5,0.95,2024-06-26_17h06.56.696,MSI_TV_v3,2022.1.1,59.95358393696405,
13,0,13,0,,,,,,,,,,2,2.0,0.0,b,27.0,1.0,2.666404967794728,1.34668860557497,None,206.75177260000055,None,208.08384279000455,208.08384279000455,208.10034259000093,None,[],['b'],[0.13409439999668393],210.07955850000144,None,b,2.134094399996684,1,1,0.35714285714285715,None,212.74852230000397,None,212.74852230000397,None,,,,,,,,,,,,,,,,,,,,,CBC_1127,003,3,3,0,5,0.95,2024-06-26_17h06.56.696,MSI_TV_v3,2022.1.1,59.95358393696405,
14,0,14,0,,,,,,,,,,0,0.0,1.0,b,63.0,1.0,4.52047235037039,2.96653053743745,None,214.55182610000338,None,217.5016704900001,217.5016704900001,217.51839599000522,None,[],['z'],[0.6638479999965057],219.50704010000482,None,z,2.6638479999965057,0,0,0.3333333333333333,None,224.0234008000043,None,224.0234008000043,None,,,,,,,,,,,,,,,,,,,,,CBC_1127,003,3,3,0,5,0.95,2024-06-26_17h06.56.696,MSI_TV_v3,2022.1.1,59.95358393696405,
15,0,15,0,,,,,,,,,,3,1.0,3.0,b,27.0,1.0,4.11514536789087,1.43470440954152,None,225.83412150000368,None,227.2517522900045,227.2517522900045,227.26834619000437,None,[],['b'],[0.5512753999937559],229.25506979999773,None,b,2.551275399993756,1,1,0.375,None,233.36845390000235,None,233.36845390000235,None,,,,,,,,,,,,,,,,,,,,,CBC_1127,003,3,3,0,5,0.95,2024-06-26_17h06.56.696,MSI_TV_v3,2022.1.1,59.95358393696405,
16,0,16,0,,,,,,,,,,2,3.0,2.0,z,63.0,1.0,3.26539063535182,1.96568735158996,None,235.16898480000236,None,237.11860909000387,237.11860909000387,237.1352588900001,None,[],['z'],[1.009481599998253],239.12440530000458,None,z,3.009481599998253,1,1,0.4117647058823529,None,242.38982509999914,None,242.38982509999914,None,,,,,,,,,,,,,,,,,,,,,CBC_1127,003,3,3,0,5,0.95,2024-06-26_17h06.56.696,MSI_TV_v3,2022.1.1,59.95358393696405,
17,0,17,0,,,,,,,,,,1,2.0,3.0,z,63.0,0.0,2.592312596923728,1.18065738546375,None,244.2019036999991,None,245.36865079000125,245.36865079000125,245.3858921899984,None,[],['z'],[0.5940143999978318],247.37378249999892,None,z,2.594014399997832,1,0,0.4444444444444444,None,249.97583970000414,None,249.97583970000414,None,,,,,,,,,,,,,,,,,,,,,CBC_1127,003,3,3,0,5,0.95,2024-06-26_17h06.56.696,MSI_TV_v3,2022.1.1,59.95358393696405,
18,0,18,0,,,,,,,,,,3,1.0,0.0,b,63.0,1.0,2.91303524001082,3.24569326556923,None,251.78512970000156,None,255.00248609000408,255.00248609000408,255.01886509000468,None,[],['b'],[0.7621307999943383],257.00824580000335,None,b,2.7621307999943383,1,1,0.47368421052631576,None,259.9293863999992,None,259.9293863999992,None,,,,,,,,,,,,,,,,,,,,,CBC_1127,003,3,3,0,5,0.95,2024-06-26_17h06.56.696,MSI_TV_v3,2022.1.1,59.95358393696405,
19,0,19,0,,,,,,,,,,0,2.0,0.0,z,27.0,1.0,3.31929419319838,0.77703640172831,None,261.73415260000183,None,262.48540119000535,262.48540119000535,262.5020176900027,None,[],['z'],[0.5063233999971999],264.4856480000017,None,z,2.5063233999972,1,1,0.5,None,267.80785950000427,None,267.80785950000427,None,,,,,,,,,,,,,,,,,,,,,CBC_1127,003,3,3,0,5,0.95,2024-06-26_17h06.56.696,MSI_TV_v3,2022.1.1,59.95358393696405,
20,0,20,0,,,,,,,,,,1,0.0,3.0,z,9.0,1.0,3.73326136168326,3.06992456303453,None,269.61775740000303,None,272.6687964900004,272.6687964900004,272.6853719899984,None,[],['z'],[0.325852499998291],274.6696305000005,None,z,2.325852499998291,1,1,0.5238095238095238,None,278.42045820000203,None,278.42045820000203,None,,,,,,,,,,,,,,,,,,,,,CBC_1127,003,3,3,0,5,0.95,2024-06-26_17h06.56.696,MSI_TV_v3,2022.1.1,59.95358393696405,
21,0,21,0,,,,,,,,,,2,2.0,3.0,b,63.0,1.0,3.2062024266105302,0.80788063606262,None,280.2355308999977,None,281.01872279000526,281.01872279000526,281.03524579000367,None,[],['b'],[0.4623239999928046],283.0255453999998,None,b,2.4623239999928046,1,1,0.5454545454545454,None,286.2348359000025,None,286.2348359000025,None,,,,,,,,,,,,,,,,,,,,,CBC_1127,003,3,3,0,5,0.95,2024-06-26_17h06.56.696,MSI_TV_v3,2022.1.1,59.95358393696405,
22,0,22,0,,,,,,,,,,3,3.0,1.0,z,27.0,1.0,3.35133458220192,0.952147612306987,None,288.0362434999988,None,288.96890819000254,288.96890819000254,288.9854979900003,None,[],['z'],[0.4589966999919852],290.9747877000045,None,z,2.4589966999919852,1,1,0.5652173913043478,None,294.32668820000254,None,294.32668820000254,None,,,,,,,,,,,,,,,,,,,,,CBC_1127,003,3,3,0,5,0.95,2024-06-26_17h06.56.696,MSI_TV_v3,2022.1.1,59.95358393696405,
23,0,23,0,,,,,,,,,,2,3.0,2.0,z,63.0,1.0,4.82531807167306,1.12425433982333,None,296.13525310000114,None,297.2355478900019,297.2355478900019,297.25238269000255,None,[],['z'],[0.47703969999565743],299.2427792000017,None,z,2.4770396999956574,1,1,0.5833333333333334,None,304.0662830000001,None,304.0662830000001,None,,,,,,,,,,,,,,,,,,,,,CBC_1127,003,3,3,0,5,0.95,2024-06-26_17h06.56.696,MSI_TV_v3,2022.1.1,59.95358393696405,
24,0,24,0,,,,,,,,,,1,2.0,3.0,z,63.0,1.0,2.342239579230602,1.25817747924478,None,305.8691147999998,None,307.10218168999853,307.10218168999853,307.11883529000187,None,[],['z'],[0.6652996999910101],309.1076996000047,None,z,2.66529969999101,1,1,0.6,None,311.4507569999987,None,311.4507569999987,None,,,,,,,,,,,,,,,,,,,,,CBC_1127,003,3,3,0,5,0.95,2024-06-26_17h06.56.696,MSI_TV_v3,2022.1.1,59.95358393696405,
25,0,25,0,,,,,,,,,,3,1.0,0.0,b,63.0,1.0,2.678526077912375,2.49839527409216,None,313.25290959999984,None,315.7356236900043,315.7356236900043,315.75211049000353,None,[],['b'],[0.43587819999083877],317.7414288,None,b,2.4358781999908388,1,1,0.6153846153846154,None,320.4179837999982,None,320.4179837999982,None,,,,,,,,,,,,,,,,,,,,,CBC_1127,003,3,3,0,5,0.95,2024-06-26_17h06.56.696,MSI_TV_v3,2022.1.1,59.95358393696405,
26,0,26,0,,,,,,,,,,0,0.0,3.0,b,9.0,1.0,4.01714354611405,2.10421507306074,None,322.21898099999817,None,324.3023884899987,324.3023884899987,324.31919499000213,None,[],['b'],[1.0241167999993195],326.3077317999996,None,b,3.0241167999993195,1,1,0.6296296296296297,None,330.32497570000123,None,330.32497570000123,None,,,,,,,,,,,,,,,,,,,,,CBC_1127,003,3,3,0,5,0.95,2024-06-26_17h06.56.696,MSI_TV_v3,2022.1.1,59.95358393696405,
27,0,27,0,,,,,,,,,,1,2.0,3.0,z,63.0,1.0,2.629554641171433,2.40378712856304,None,332.1355363000039,None,334.5197294900019,334.5197294900019,334.53585868999943,None,[],['z'],[1.5353273999935482],336.5245576000016,None,z,3.535327399993548,1,1,0.6428571428571429,None,339.152465799998,None,339.152465799998,None,,,,,,,,,,,,,,,,,,,,,CBC_1127,003,3,3,0,5,0.95,2024-06-26_17h06.56.696,MSI_TV_v3,2022.1.1,59.95358393696405,
28,0,28,0,,,,,,,,,,2,2.0,0.0,b,27.0,1.0,4.40017271499661,1.53122835510861,None,340.95135429999937,None,342.45250469000456,342.45250469000456,342.4690617900007,None,[],['b'],[0.577535699994769],344.4595502000011,None,b,2.577535699994769,1,1,0.6551724137931034,None,348.85973450000165,None,348.85973450000165,None,,,,,,,,,,,,,,,,,,,,,CBC_1127,003,3,3,0,5,0.95,2024-06-26_17h06.56.696,MSI_TV_v3,2022.1.1,59.95358393696405,
29,0,29,0,,,,,,,,,,0,1.0,0.0,z,63.0,1.0,2.792365600763554,1.25920145784721,None,350.6690598999994,None,351.90224109000263,351.90224109000263,351.91906629000295,None,[],['z'],[0.4931817999968189],353.9033930000005,None,z,2.493181799996819,1,1,0.6666666666666666,None,356.6974179000026,None,356.6974179000026,None,,,,,,,,,,,,,,,,,,,,,CBC_1127,003,3,3,0,5,0.95,2024-06-26_17h06.56.696,MSI_TV_v3,2022.1.1,59.95358393696405,
30,0,30,0,,,,,,,,,,3,1.0,0.0,b,63.0,1.0,2.517541937862754,1.78643585472448,None,358.50260379999963,None,360.26913409000116,360.26913409000116,360.2856869900017,None,[],['b'],[0.3909053999959724],362.2754222000003,None,b,2.3909053999959724,1,1,0.6774193548387096,None,364.78919419999875,None,364.78919419999875,None,,,,,,,,,,,,,,,,,,,,,CBC_1127,003,3,3,0,5,0.95,2024-06-26_17h06.56.696,MSI_TV_v3,2022.1.1,59.95358393696405,
31,0,31,0,,,,,,,,,,1,3.0,1.0,b,27.0,1.0,2.92731383428727,1.90743690794447,None,366.60118689999945,None,368.4858891900032,368.4858891900032,368.5026142900053,None,[],['b'],[0.42130299999553245],370.4905241000015,None,b,2.4213029999955324,1,1,0.6875,None,373.4200523000036,None,373.4200523000036,None,,,,,,,,,,,,,,,,,,,,,CBC_1127,003,3,3,0,5,0.95,2024-06-26_17h06.56.696,MSI_TV_v3,2022.1.1,59.95358393696405,
32,0,32,0,,,,,,,,,,2,3.0,2.0,z,63.0,1.0,4.61004669244928,1.95130344756745,None,375.21910899999784,None,377.15246718999987,377.15246718999987,377.1691307899993,None,[],['z'],[0.47525169999426],379.15794050000113,None,z,2.47525169999426,1,1,0.696969696969697,None,383.7749441999986,None,383.7749441999986,None,,,,,,,,,,,,,,,,,,,,,CBC_1127,003,3,3,0,5,0.95,2024-06-26_17h06.56.696,MSI_TV_v3,2022.1.1,59.95358393696405,
33,0,33,0,,,,,,,,,,3,1.0,0.0,b,63.0,1.0,3.76873691643126,2.78346932462847,None,385.58609140000044,None,388.3525895900049,388.3525895900049,388.3698810900052,None,[],['b'],[0.4191974999921513],390.3590150000018,None,b,2.4191974999921513,1,1,0.7058823529411765,None,394.1259627000036,None,394.1259627000036,None,,,,,,,,,,,,,,,,,,,,,CBC_1127,003,3,3,0,5,0.95,2024-06-26_17h06.56.696,MSI_TV_v3,2022.1.1,59.95358393696405,
34,0,34,0,,,,,,,,,,0,0.0,1.0,b,63.0,1.0,3.68371079902891,1.94858485820231,None,395.93620440000086,None,397.86942838999965,397.86942838999965,397.8861161900015,None,[],['b'],[0.12073270000109915],399.87020750000374,None,b,2.120732700001099,1,1,0.7142857142857143,None,403.5673143000022,None,403.5673143000022,None,,,,,,,,,,,,,,,,,,,,,CBC_1127,003,3,3,0,5,0.95,2024-06-26_17h06.56.696,MSI_TV_v3,2022.1.1,59.95358393696405,
35,0,35,0,,,,,,,,,,2,1.0,2.0,z,9.0,1.0,3.3728785608729996,0.974903167432984,None,405.36939659999916,None,406.31950579000403,406.31950579000403,406.3362447900028,None,[],['z'],[0.2737068999922485],408.3286483999982,None,z,2.2737068999922485,1,1,0.7222222222222222,None,411.71826590000273,None,411.71826590000273,None,,,,,,,,,,,,,,,,,,,,,CBC_1127,003,3,3,0,5,0.95,2024-06-26_17h06.56.696,MSI_TV_v3,2022.1.1,59.95358393696405,
36,0,36,0,,,,,,,,,,0,1.0,0.0,z,63.0,1.0,2.294664843639333,2.22427187882546,None,413.5194590000028,None,415.7195284900037,415.7195284900037,415.73640499000174,None,[],['z'],[0.4260130999973626],417.7188208000007,None,z,2.4260130999973626,1,1,0.7297297297297297,None,420.0159442000004,None,420.0159442000004,None,,,,,,,,,,,,,,,,,,,,,CBC_1127,003,3,3,0,5,0.95,2024-06-26_17h06.56.696,MSI_TV_v3,2022.1.1,59.95358393696405,
37,0,37,0,,,,,,,,,,1,3.0,1.0,b,27.0,1.0,2.496959177995529,0.917519910446003,None,421.8199939000042,None,422.71971549000153,422.71971549000153,422.7352974900015,None,[],['b'],[0.7465861000018776],424.72075320000295,None,b,2.7465861000018776,1,1,0.7368421052631579,None,427.2144795999993,None,427.2144795999993,None,,,,,,,,,,,,,,,,,,,,,CBC_1127,003,3,3,0,5,0.95,2024-06-26_17h06.56.696,MSI_TV_v3,2022.1.1,59.95358393696405,
38,0,38,0,,,,,,,,,,3,0.0,1.0,z,63.0,1.0,2.433630701072358,1.27538462653558,None,429.0202972000043,None,430.2696986900002,430.2696986900002,430.2862655899982,None,[],['z'],[0.5531876999957603],432.2743296999979,None,z,2.5531876999957603,1,1,0.7435897435897436,None,434.70633010000165,None,434.70633010000165,None,,,,,,,,,,,,,,,,,,,,,CBC_1127,003,3,3,0,5,0.95,2024-06-26_17h06.56.696,MSI_TV_v3,2022.1.1,59.95358393696405,
39,0,39,0,,,,,,,,,,2,2.0,3.0,b,63.0,0.0,2.526044641065533,1.36309078069689,None,436.5196767000016,None,437.8532396900002,437.8532396900002,437.8700181900014,None,[],['b'],[0.4492870999965817],439.8572877999977,None,b,2.4492870999965817,1,0,0.75,None,442.38395989999844,None,442.38395989999844,None,,,,,,,,,,,,,,,,,,,,,CBC_1127,003,3,3,0,5,0.95,2024-06-26_17h06.56.696,MSI_TV_v3,2022.1.1,59.95358393696405,
40,0,40,0,,,,,,,,,,0,2.0,0.0,z,27.0,1.0,3.02234236141277,3.1963008326951,None,444.186103,None,447.36975619000003,447.36975619000003,447.38626108999887,None,[],['z'],[0.4200572999980068],449.37536089999776,None,z,2.420057299998007,1,1,0.7560975609756098,None,452.39914080000017,None,452.39914080000017,None,,,,,,,,,,,,,,,,,,,,,CBC_1127,003,3,3,0,5,0.95,2024-06-26_17h06.56.696,MSI_TV_v3,2022.1.1,59.95358393696405,
41,0,41,0,,,,,,,,,,1,3.0,2.0,b,63.0,1.0,4.53337421950507,1.38289892513751,None,454.20320840000204,None,455.5697266900053,455.5697266900053,455.5864603900001,None,[],['b'],[0.4463033999927575],457.5758203000005,None,b,2.4463033999927575,1,1,0.7619047619047619,None,462.11091370000213,None,462.11091370000213,None,,,,,,,,,,,,,,,,,,,,,CBC_1127,003,3,3,0,5,0.95,2024-06-26_17h06.56.696,MSI_TV_v3,2022.1.1,59.95358393696405,
42,0,42,0,,,,,,,,,,3,3.0,1.0,z,27.0,1.0,4.77723667052879,1.52290599571961,None,463.918525400004,None,465.41981359000346,465.41981359000346,465.4370247900035,None,[],['z'],[0.6413734999950975],467.4260759000026,None,z,2.6413734999950975,1,1,0.7674418604651163,None,472.2100159000038,None,472.2100159000038,None,,,,,,,,,,,,,,,,,,,,,CBC_1127,003,3,3,0,5,0.95,2024-06-26_17h06.56.696,MSI_TV_v3,2022.1.1,59.95358393696405,
43,0,43,0,,,,,,,,,,2,2.0,3.0,b,63.0,1.0,4.72585056748869,2.6299100644723,None,474.01876260000427,None,476.61892939000535,476.61892939000535,476.63519299000035,None,[],['z'],[0.6685284999985015],478.6143643000032,None,z,2.6685284999985015,0,0,0.75,None,483.3348365999991,None,483.3348365999991,None,,,,,,,,,,,,,,,,,,,,,CBC_1127,003,3,3,0,5,0.95,2024-06-26_17h06.56.696,MSI_TV_v3,2022.1.1,59.95358393696405,
,,,,,,,,,,,,,,,,,,,,,,,,,,,,,,,,,,,,,,,,,,,None,485.1363601000048,None,,,,,,,,,,,,,,,,,,CBC_1127,003,3,3,0,5,0.95,2024-06-26_17h06.56.696,MSI_TV_v3,2022.1.1,59.95358393696405,
,,,,,,,,,,,,,,,,,,,,,,,,,,,,,,,,,,,,,,,,,,,,,,490.12002159999975,None,None,490.12002159999975,495.10336420000385,,,,,,,,,,,,,CBC_1127,003,3,3,0,5,0.95,2024-06-26_17h06.56.696,MSI_TV_v3,2022.1.1,59.95358393696405,
,,,,,,,,,,,,,,,,,,,,,,,,,,,,,,,,,,,,,,,,,,,,,,,,,,,z,b,hard,"[0, 1, 2, 3]","[0, 3, 2, 1]",0.36363636363636365,0.7272727272727273,1.0,0.9090909090909091,31,0,13,,,,,,,,,,,,
