trials_runs.thisRepN,trials_runs.thisTrialN,trials_runs.thisN,trials_runs.thisIndex,standbild_start.started,standbild_start.stopped,trigger.keys,trigger.rt,trigger.started,trigger.stopped,keys_2.keys,keys_2.started,keys_2.stopped,trials_runs.auditory_stim,trials_runs.visual_stim_left,trials_runs.visual_stim_right,trials_runs.correctKey,trials_runs.presentationFrequncy,trials_runs.FBaccuracy,trials_runs.ISI_s,trials_runs.ITI_s,keys_3.keys,keys_3.started,keys_3.stopped,ImageLeft_4.started,ImageLeft_4.stopped,ImageRight_4.started,ImageRight_4.stopped,sound_4.started,sound_4.stopped,response_4.keys,response_4.started,response_4.stopped,response_5.keys,response_5.rt,response_5.started,response_5.stopped,response_runs.keys,response_runs.rt,trials_runs.correct_answer,trials_runs.feedback_given,trials_runs.running_mean,feedback_6.started,feedback_6.stopped,keys_6.keys,keys_6.started,keys_6.stopped,response_4.rt,keys_6.rt,keys_7.keys,keys_7.rt,keys_7.started,keys_7.stopped,standbild_end.started,standbild_end.stopped,Stop_exp.keys,Stop_exp.started,Stop_exp.stopped,trials_runs.rightKey,trials_runs.leftKey,ts_difficulty,visualPair,audioPair,trials_runs.mean_acc_1stFourth,trials_runs.mean_acc_2ndFourth,trials_runs.mean_acc_3rdFourth,trials_runs.mean_acc_4thFourth,nbCorrect,nbOmissions,nbIncorrect,participant,session,visual set [1-6],audio set [1-3 / 4-6],trial structure [0-3 / 4-7],pairing [0-23],prob Feedback,date,expName,psychopyVersion,frameRate,
,,,,26.71793439999965,None,t,56.755591999999524,26.71793439999965,None,,,,,,,,,,,,,,,,,,,,,,,,,,,,,,,,,,,,,,,,,,,,,,,,,,,,,,,,,,,,,CBC_1111,002,3,3,2,16,0.95,2024-06-04_14h44.38.349,MSI_AV_v3,2022.1.1,59.931486324881014,
,,,,,,,,,,None,83.50509939999938,None,,,,,,,,,,,,,,,,,,,,,,,,,,,,,,,,,,,,,,,,,,,,,,,,,,,,,,,,,,CBC_1111,002,3,3,2,16,0.95,2024-06-04_14h44.38.349,MSI_AV_v3,2022.1.1,59.931486324881014,
0,0,0,0,,,,,,,,,,2,1.0,0.0,r,63.0,1.0,3.76873691643126,1.12425433982333,None,83.70460599999933,None,84.97734559999935,None,84.97734559999935,None,84.98694112000103,None,None,84.97734559999935,None,['r'],[0.5765882000005149],86.82071519999954,None,r,2.576588200000515,1,1,1.0,90.62334569999985,None,None,90.62334569999985,None,,,,,,,,,,,,,,,,,,,,,,,,CBC_1111,002,3,3,2,16,0.95,2024-06-04_14h44.38.349,MSI_AV_v3,2022.1.1,59.931486324881014,
1,0,1,0,,,,,,,,,,0,2.0,3.0,b,63.0,1.0,2.629554641171433,0.979776149765883,None,92.3881365999996,None,93.46993409999959,None,93.46993409999959,None,93.4706821800006,None,None,93.46993409999959,None,['r'],[0.7511623999998847],95.37144089999947,None,r,2.7511623999998847,0,0,0.5,98.00734190000003,None,None,98.00734190000003,None,,,,,,,,,,,,,,,,,,,,,,,,CBC_1111,002,3,3,2,16,0.95,2024-06-04_14h44.38.349,MSI_AV_v3,2022.1.1,59.931486324881014,
2,0,2,0,,,,,,,,,,2,2.0,0.0,r,27.0,1.0,3.26539063535182,3.24569326556923,None,99.80428630000006,None,103.06187039999986,None,103.06187039999986,None,103.07110144000016,None,None,103.06187039999986,None,['r'],[0.572012900000118],105.03714379999928,None,r,2.572012900000118,1,1,0.6666666666666666,108.29063349999979,None,None,108.29063349999979,None,,,,,,,,,,,,,,,,,,,,,,,,CBC_1111,002,3,3,2,16,0.95,2024-06-04_14h44.38.349,MSI_AV_v3,2022.1.1,59.931486324881014,
3,0,3,0,,,,,,,,,,3,0.0,1.0,r,63.0,1.0,3.02234236141277,2.96653053743745,None,110.10364969999955,None,113.12124339999991,None,113.12124339999991,None,113.12172035000003,None,None,113.12124339999991,None,['r'],[0.2511369999992894],115.07049229999939,None,r,2.2511369999992894,1,1,0.75,118.08401569999933,None,None,118.08401569999933,None,,,,,,,,,,,,,,,,,,,,,,,,CBC_1111,002,3,3,2,16,0.95,2024-06-04_14h44.38.349,MSI_AV_v3,2022.1.1,59.931486324881014,
4,0,4,0,,,,,,,,,,3,1.0,0.0,b,63.0,1.0,4.53337421950507,2.49839527409216,None,119.88820309999937,None,122.41098650000004,None,122.41098650000004,None,122.42148773999979,None,None,122.41098650000004,None,['b'],[0.4831795999998576],124.38822699999946,None,b,2.4831795999998576,1,1,0.8,128.9037402999993,None,None,128.9037402999993,None,,,,,,,,,,,,,,,,,,,,,,,,CBC_1111,002,3,3,2,16,0.95,2024-06-04_14h44.38.349,MSI_AV_v3,2022.1.1,59.931486324881014,
5,0,5,0,,,,,,,,,,0,2.0,3.0,b,63.0,1.0,2.342239579230602,3.4543169006169,None,130.70476280000003,None,134.1730764999993,None,134.1730764999993,None,134.1712234299999,None,None,134.1730764999993,None,['r'],[0.6390454000002137],136.1551399,None,r,2.6390454000002137,0,0,0.6666666666666666,138.47912949999954,None,None,138.47912949999954,None,,,,,,,,,,,,,,,,,,,,,,,,CBC_1111,002,3,3,2,16,0.95,2024-06-04_14h44.38.349,MSI_AV_v3,2022.1.1,59.931486324881014,
6,0,6,0,,,,,,,,,,1,1.0,3.0,r,27.0,1.0,4.82531807167306,1.53243550275999,None,140.28789609999967,None,141.86012289999962,None,141.86012289999962,None,141.87128235,None,None,141.86012289999962,None,['r'],[0.548098299999765],143.8216042999993,None,r,2.548098299999765,1,1,0.7142857142857143,148.6421664999998,None,None,148.6421664999998,None,,,,,,,,,,,,,,,,,,,,,,,,CBC_1111,002,3,3,2,16,0.95,2024-06-04_14h44.38.349,MSI_AV_v3,2022.1.1,59.931486324881014,
7,0,7,0,,,,,,,,,,0,2.0,1.0,b,9.0,1.0,2.92731383428727,2.78346932462847,None,150.45560179999939,None,153.24529489999986,None,153.24529489999986,None,153.2537220299997,None,None,153.24529489999986,None,['b'],[0.642177200000333],155.22180539999954,None,b,2.642177200000333,1,1,0.75,158.13167129999965,None,None,158.13167129999965,None,,,,,,,,,,,,,,,,,,,,,,,,CBC_1111,002,3,3,2,16,0.95,2024-06-04_14h44.38.349,MSI_AV_v3,2022.1.1,59.931486324881014,
8,0,8,0,,,,,,,,,,3,1.0,3.0,b,27.0,1.0,2.433630701072358,3.40155979865722,None,159.93841059999977,None,163.35938429999987,None,163.35938429999987,None,163.37127214000046,None,None,163.35938429999987,None,['b'],[0.509906499999488],165.33808379999937,None,b,2.509906499999488,1,1,0.7777777777777778,167.7618251999993,None,None,167.7618251999993,None,,,,,,,,,,,,,,,,,,,,,,,,CBC_1111,002,3,3,2,16,0.95,2024-06-04_14h44.38.349,MSI_AV_v3,2022.1.1,59.931486324881014,
9,0,9,0,,,,,,,,,,1,2.0,3.0,r,63.0,1.0,2.517541937862754,2.6299100644723,None,169.57154899999932,None,172.2078662999993,None,172.2078662999993,None,172.20478733000036,None,None,172.2078662999993,None,['r'],[0.8826864999991813],174.1876446999995,None,r,2.8826864999991813,1,1,0.8,176.69256309999946,None,None,176.69256309999946,None,,,,,,,,,,,,,,,,,,,,,,,,CBC_1111,002,3,3,2,16,0.95,2024-06-04_14h44.38.349,MSI_AV_v3,2022.1.1,59.931486324881014,
10,0,10,0,,,,,,,,,,3,0.0,1.0,r,63.0,1.0,2.666404967794728,1.25920145784721,None,178.5051442999993,None,179.77704600000015,None,179.77704600000015,None,179.77130482999982,None,None,179.77704600000015,None,['r'],[0.5267643999995926],181.75392239999928,None,r,2.5267643999995926,1,1,0.8181818181818182,184.39663279999968,None,None,184.39663279999968,None,,,,,,,,,,,,,,,,,,,,,,,,CBC_1111,002,3,3,2,16,0.95,2024-06-04_14h44.38.349,MSI_AV_v3,2022.1.1,59.931486324881014,
11,0,11,0,,,,,,,,,,0,2.0,0.0,b,27.0,1.0,2.294664843639333,0.80788063606262,None,186.20512509999935,None,187.02791709999929,None,187.02791709999929,None,187.0379717399999,None,None,187.02791709999929,None,['b'],[0.9346604000002117],189.00511409999945,None,b,2.9346604000002117,1,1,0.8333333333333334,191.29809159999968,None,None,191.29809159999968,None,,,,,,,,,,,,,,,,,,,,,,,,CBC_1111,002,3,3,2,16,0.95,2024-06-04_14h44.38.349,MSI_AV_v3,2022.1.1,59.931486324881014,
12,0,12,0,,,,,,,,,,1,2.0,3.0,r,63.0,0.0,2.693348633324513,1.96568735158996,None,193.10509289999936,None,195.0950888999996,None,195.0950888999996,None,195.1055629399996,None,None,195.0950888999996,None,['r'],[1.202448099999856],197.07067300000017,None,r,3.202448099999856,1,0,0.8461538461538461,199.75545759999932,None,None,199.75545759999932,None,,,,,,,,,,,,,,,,,,,,,,,,CBC_1111,002,3,3,2,16,0.95,2024-06-04_14h44.38.349,MSI_AV_v3,2022.1.1,59.931486324881014,
13,0,13,0,,,,,,,,,,2,0.0,1.0,b,63.0,1.0,2.6391747348430608,1.52290599571961,None,201.55514820000008,None,203.09221089999937,None,203.09221089999937,None,203.08876502999973,None,None,203.09221089999937,None,['b'],[1.2219469000001482],205.0717668999996,None,b,3.221946900000148,1,1,0.8571428571428571,207.69991899999968,None,None,207.69991899999968,None,,,,,,,,,,,,,,,,,,,,,,,,CBC_1111,002,3,3,2,16,0.95,2024-06-04_14h44.38.349,MSI_AV_v3,2022.1.1,59.931486324881014,
14,0,14,0,,,,,,,,,,0,3.0,2.0,r,63.0,1.0,2.496959177995529,0.974903167432984,None,209.5051954999999,None,210.4899005999996,None,210.4899005999996,None,210.48816493000012,None,None,210.4899005999996,None,['b'],[0.5822449999996024],212.47056280000015,None,b,2.5822449999996024,0,0,0.8,214.94823859999997,None,None,214.94823859999997,None,,,,,,,,,,,,,,,,,,,,,,,,CBC_1111,002,3,3,2,16,0.95,2024-06-04_14h44.38.349,MSI_AV_v3,2022.1.1,59.931486324881014,
15,0,15,0,,,,,,,,,,2,2.0,0.0,r,27.0,1.0,2.91303524001082,2.10421507306074,None,216.75503919999937,None,218.87828420000005,None,218.87828420000005,None,218.88825153999986,None,None,218.87828420000005,None,['r'],[0.5504980000005162],220.8553081,None,r,2.550498000000516,1,1,0.8125,223.75001599999996,None,None,223.75001599999996,None,,,,,,,,,,,,,,,,,,,,,,,,CBC_1111,002,3,3,2,16,0.95,2024-06-04_14h44.38.349,MSI_AV_v3,2022.1.1,59.931486324881014,
16,0,16,0,,,,,,,,,,1,3.0,2.0,b,63.0,1.0,2.526044641065533,2.22427187882546,None,225.55519269999968,None,227.77363409999998,None,227.77363409999998,None,227.77069611999957,None,None,227.77363409999998,None,['r'],[0.8942002000003413],229.75507599999946,None,r,2.8942002000003413,0,0,0.7647058823529411,232.26435309999943,None,None,232.26435309999943,None,,,,,,,,,,,,,,,,,,,,,,,,CBC_1111,002,3,3,2,16,0.95,2024-06-04_14h44.38.349,MSI_AV_v3,2022.1.1,59.931486324881014,
17,0,17,0,,,,,,,,,,1,2.0,3.0,r,63.0,1.0,2.592312596923728,3.1963008326951,None,234.0717264999994,None,237.2949767,None,237.2949767,None,237.30574393999976,None,None,237.2949767,None,['r'],[1.5192630000001373],239.2715236999993,None,r,3.5192630000001373,1,1,0.7777777777777778,241.8620259999998,None,None,241.8620259999998,None,,,,,,,,,,,,,,,,,,,,,,,,CBC_1111,002,3,3,2,16,0.95,2024-06-04_14h44.38.349,MSI_AV_v3,2022.1.1,59.931486324881014,
18,0,18,0,,,,,,,,,,3,1.0,3.0,b,27.0,1.0,4.46924002178158,1.21250262048173,None,243.6719267999997,None,244.8902207000001,None,244.8902207000001,None,244.8884106299998,None,None,244.8902207000001,None,['b'],[1.144782700000178],246.8718928999997,None,b,3.144782700000178,1,1,0.7894736842105263,251.34172039999976,None,None,251.34172039999976,None,,,,,,,,,,,,,,,,,,,,,,,,CBC_1111,002,3,3,2,16,0.95,2024-06-04_14h44.38.349,MSI_AV_v3,2022.1.1,59.931486324881014,
19,0,19,0,,,,,,,,,,1,3.0,0.0,b,9.0,1.0,4.12485271162806,1.27538462653558,None,253.15420319999976,None,254.44186099999934,None,254.44186099999934,None,254.4383820299996,None,None,254.44186099999934,None,['b'],[0.31929440000021714],256.4219927999993,None,b,2.319294400000217,1,1,0.8,260.5362218,None,None,260.5362218,None,,,,,,,,,,,,,,,,,,,,,,,,CBC_1111,002,3,3,2,16,0.95,2024-06-04_14h44.38.349,MSI_AV_v3,2022.1.1,59.931486324881014,
20,0,20,0,,,,,,,,,,3,0.0,1.0,r,63.0,1.0,4.77723667052879,0.77703640172831,None,262.3386964000001,None,263.1275963999997,None,263.1275963999997,None,263.1382798399998,None,None,263.1275963999997,None,['r'],[1.1340022000003955],265.10530579999977,None,r,3.1340022000003955,1,1,0.8095238095238095,269.8673816999999,None,None,269.8673816999999,None,,,,,,,,,,,,,,,,,,,,,,,,CBC_1111,002,3,3,2,16,0.95,2024-06-04_14h44.38.349,MSI_AV_v3,2022.1.1,59.931486324881014,
21,0,21,0,,,,,,,,,,2,0.0,1.0,b,63.0,1.0,4.01714354611405,2.15533949826702,None,271.6718529999998,None,273.82568159999937,None,273.82568159999937,None,273.8373046299999,None,None,273.82568159999937,None,['b'],[0.3120290999995632],275.8053842999998,None,b,2.312029099999563,1,1,0.8181818181818182,279.81258290000005,None,None,279.81258290000005,None,,,,,,,,,,,,,,,,,,,,,,,,CBC_1111,002,3,3,2,16,0.95,2024-06-04_14h44.38.349,MSI_AV_v3,2022.1.1,59.931486324881014,
22,0,22,0,,,,,,,,,,0,3.0,2.0,r,63.0,1.0,3.6438386551209,1.1243895841892,None,281.6213465000001,None,282.7563111999998,None,282.7563111999998,None,282.7547903299997,None,None,282.7563111999998,None,['r'],[0.875456399999166],284.73861940000006,None,r,2.875456399999166,1,1,0.8260869565217391,288.3669298999994,None,None,288.3669298999994,None,,,,,,,,,,,,,,,,,,,,,,,,CBC_1111,002,3,3,2,16,0.95,2024-06-04_14h44.38.349,MSI_AV_v3,2022.1.1,59.931486324881014,
23,0,23,0,,,,,,,,,,2,2.0,0.0,r,27.0,1.0,2.792365600763554,1.34668860557497,None,290.1721117999996,None,291.52681029999985,None,291.52681029999985,None,291.53753163000016,None,None,291.52681029999985,None,['r'],[0.5349280999998882],293.5055980999996,None,r,2.534928099999888,1,1,0.8333333333333334,296.29963640000005,None,None,296.29963640000005,None,,,,,,,,,,,,,,,,,,,,,,,,CBC_1111,002,3,3,2,16,0.95,2024-06-04_14h44.38.349,MSI_AV_v3,2022.1.1,59.931486324881014,
24,0,24,0,,,,,,,,,,3,0.0,1.0,r,63.0,1.0,4.40017271499661,2.40378712856304,None,298.10541079999985,None,300.52488019999964,None,300.52488019999964,None,300.5226173300003,None,None,300.52488019999964,None,['r'],[1.5765615000000253],302.5056307999994,None,r,3.5765615000000253,1,1,0.84,306.9005927999997,None,None,306.9005927999997,None,,,,,,,,,,,,,,,,,,,,,,,,CBC_1111,002,3,3,2,16,0.95,2024-06-04_14h44.38.349,MSI_AV_v3,2022.1.1,59.931486324881014,
25,0,25,0,,,,,,,,,,1,3.0,2.0,b,63.0,1.0,3.71372710086949,1.60731937853708,None,308.70527739999943,None,310.3204528999995,None,310.3204528999995,None,310.3214108299995,None,None,310.3204528999995,None,['b'],[0.8224859000001743],312.3048362999998,None,b,2.8224859000001743,1,1,0.8461538461538461,316.0039092999996,None,None,316.0039092999996,None,,,,,,,,,,,,,,,,,,,,,,,,CBC_1111,002,3,3,2,16,0.95,2024-06-04_14h44.38.349,MSI_AV_v3,2022.1.1,59.931486324881014,
26,0,26,0,,,,,,,,,,3,2.0,1.0,r,9.0,1.0,4.11514536789087,1.25817747924478,None,317.80568649999987,None,319.07575929999985,None,319.07575929999985,None,319.0718090300002,None,None,319.07575929999985,None,['r'],[0.07568889999947714],321.0559833999996,None,r,2.075688899999477,1,1,0.8518518518518519,325.16286749999927,None,None,325.16286749999927,None,,,,,,,,,,,,,,,,,,,,,,,,CBC_1111,002,3,3,2,16,0.95,2024-06-04_14h44.38.349,MSI_AV_v3,2022.1.1,59.931486324881014,
27,0,27,0,,,,,,,,,,1,3.0,1.0,b,27.0,1.0,3.2062024266105302,0.761758675042088,None,326.9720275999998,None,327.7241576999995,None,327.7241576999995,None,327.7212942199998,None,None,327.7241576999995,None,['b'],[0.5937182999996367],329.7220363999995,None,b,2.5937182999996367,1,1,0.8571428571428571,332.91835170000013,None,None,332.91835170000013,None,,,,,,,,,,,,,,,,,,,,,,,,CBC_1111,002,3,3,2,16,0.95,2024-06-04_14h44.38.349,MSI_AV_v3,2022.1.1,59.931486324881014,
28,0,28,0,,,,,,,,,,2,0.0,1.0,b,63.0,1.0,3.3728785608729996,1.53122835510861,None,334.72219909999967,None,336.2778447999999,None,336.2778447999999,None,336.2886943399997,None,None,336.2778447999999,None,['r'],[0.5980333999996219],338.2557573999993,None,r,2.598033399999622,0,0,0.8275862068965517,341.6214900999994,None,None,341.6214900999994,None,,,,,,,,,,,,,,,,,,,,,,,,CBC_1111,002,3,3,2,16,0.95,2024-06-04_14h44.38.349,MSI_AV_v3,2022.1.1,59.931486324881014,
29,0,29,0,,,,,,,,,,2,1.0,0.0,r,63.0,1.0,3.31929419319838,1.78643585472448,None,343.4223119999997,None,345.2192277999993,None,345.2192277999993,None,345.22163462999976,None,None,345.2192277999993,None,['r'],[1.0828484999992725],347.2057359999999,None,r,3.0828484999992725,1,1,0.8333333333333334,350.5097234999994,None,None,350.5097234999994,None,,,,,,,,,,,,,,,,,,,,,,,,CBC_1111,002,3,3,2,16,0.95,2024-06-04_14h44.38.349,MSI_AV_v3,2022.1.1,59.931486324881014,
30,0,30,0,,,,,,,,,,0,2.0,0.0,b,27.0,1.0,4.52047235037039,0.917519910446003,None,352.3221659000001,None,353.2440966999993,None,353.2440966999993,None,353.2547679300001,None,None,353.2440966999993,None,['r'],[1.276364299999841],355.2397640999998,None,r,3.276364299999841,0,0,0.8064516129032258,359.7430352000001,None,None,359.7430352000001,None,,,,,,,,,,,,,,,,,,,,,,,,CBC_1111,002,3,3,2,16,0.95,2024-06-04_14h44.38.349,MSI_AV_v3,2022.1.1,59.931486324881014,
31,0,31,0,,,,,,,,,,2,0.0,1.0,b,63.0,1.0,3.73326136168326,3.1424449555106,None,361.5558996999998,None,364.7086866999998,None,364.7086866999998,None,364.7060403299998,None,['b'],364.7086866999998,None,None,,366.7032591999996,None,b,1.8045885000001363,1,1,0.8125,370.4441514,None,None,370.4441514,None,[1.8045885000001363],,,,,,,,,,,,,,,,,,,,,,,CBC_1111,002,3,3,2,16,0.95,2024-06-04_14h44.38.349,MSI_AV_v3,2022.1.1,59.931486324881014,
32,0,32,0,,,,,,,,,,3,0.0,1.0,r,63.0,1.0,2.678526077912375,2.09887870490381,None,372.2553608999997,None,374.3753659999993,None,374.3753659999993,None,374.37186612999955,None,None,374.3753659999993,None,['r'],[0.48632739999993646],376.3551499999994,None,r,2.4863273999999365,1,1,0.8181818181818182,379.0193183000001,None,None,379.0193183000001,None,,,,,,,,,,,,,,,,,,,,,,,,CBC_1111,002,3,3,2,16,0.95,2024-06-04_14h44.38.349,MSI_AV_v3,2022.1.1,59.931486324881014,
33,0,33,0,,,,,,,,,,1,2.0,3.0,r,63.0,1.0,4.190022164497369,1.43470440954152,None,380.8222784999998,None,382.27672339999936,None,382.27672339999936,None,382.2720708299999,None,None,382.27672339999936,None,['b'],[0.4304171000003407],384.2560567999999,None,b,2.4304171000003407,0,0,0.7941176470588235,388.4371102999994,None,None,388.4371102999994,None,,,,,,,,,,,,,,,,,,,,,,,,CBC_1111,002,3,3,2,16,0.95,2024-06-04_14h44.38.349,MSI_AV_v3,2022.1.1,59.931486324881014,
34,0,34,0,,,,,,,,,,3,1.0,3.0,b,27.0,1.0,4.7533305109883095,1.90743690794447,None,390.2391027999993,None,392.1571968999997,None,392.1571968999997,None,392.1554212300003,None,None,392.1571968999997,None,['r'],[2.694818099999793],394.1380296999996,None,r,4.694818099999793,0,0,0.7714285714285715,398.87570569999934,None,None,398.87570569999934,None,,,,,,,,,,,,,,,,,,,,,,,,CBC_1111,002,3,3,2,16,0.95,2024-06-04_14h44.38.349,MSI_AV_v3,2022.1.1,59.931486324881014,
35,0,35,0,,,,,,,,,,0,2.0,3.0,b,63.0,1.0,3.68371079902891,1.18065738546375,None,400.6890801999998,None,401.8742423999993,None,401.8742423999993,None,401.8712198199995,None,None,401.8742423999993,None,['b'],[2.7383558999999877],403.85574180000003,None,b,4.738355899999988,1,1,0.7777777777777778,407.5197533999999,None,None,407.5197533999999,None,,,,,,,,,,,,,,,,,,,,,,,,CBC_1111,002,3,3,2,16,0.95,2024-06-04_14h44.38.349,MSI_AV_v3,2022.1.1,59.931486324881014,
36,0,36,0,,,,,,,,,,0,0.0,2.0,r,27.0,1.0,3.35133458220192,3.06992456303453,None,409.3212746999998,None,412.40920539999934,None,412.40920539999934,None,412.40538993000024,None,None,412.40920539999934,None,None,,414.38810289999947,None,[],[],0,3,0.7567567567567568,417.76752919999944,None,['r'],417.76752919999944,None,,[1.211623299999701],,,,,,,,,,,,,,,,,,,,,,CBC_1111,002,3,3,2,16,0.95,2024-06-04_14h44.38.349,MSI_AV_v3,2022.1.1,59.931486324881014,
37,0,37,0,,,,,,,,,,3,0.0,1.0,r,63.0,1.0,4.77034425507967,1.64421109900286,None,419.53889399999935,None,421.1915825999995,None,421.1915825999995,None,421.1888690299998,None,None,421.1915825999995,None,None,,423.17233769999984,None,[],[],0,3,0.7368421052631579,427.92792610000015,None,None,427.92792610000015,None,,,,,,,,,,,,,,,,,,,,,,,,CBC_1111,002,3,3,2,16,0.95,2024-06-04_14h44.38.349,MSI_AV_v3,2022.1.1,59.931486324881014,
38,0,38,0,,,,,,,,,,2,0.0,3.0,b,9.0,1.0,4.72585056748869,1.36309078069689,None,429.73812,None,431.10776669999996,None,431.10776669999996,None,431.1062988299996,None,None,431.10776669999996,None,['b'],[0.40459439999904134],433.0891561999997,None,b,2.4045943999990413,1,1,0.7435897435897436,437.7973796999995,None,None,437.7973796999995,None,,,,,,,,,,,,,,,,,,,,,,,,CBC_1111,002,3,3,2,16,0.95,2024-06-04_14h44.38.349,MSI_AV_v3,2022.1.1,59.931486324881014,
39,0,39,0,,,,,,,,,,0,2.0,3.0,b,63.0,0.0,4.61004669244928,1.94858485820231,None,439.6057393000001,None,441.5771916999993,None,441.5771916999993,None,441.5889124399999,None,None,441.5771916999993,None,['r'],[3.5917256000002453],443.5558995000001,None,r,5.591725600000245,0,1,0.725,448.16262219999953,None,None,448.16262219999953,None,,,,,,,,,,,,,,,,,,,,,,,,CBC_1111,002,3,3,2,16,0.95,2024-06-04_14h44.38.349,MSI_AV_v3,2022.1.1,59.931486324881014,
40,0,40,0,,,,,,,,,,2,0.0,1.0,b,63.0,1.0,2.2759877950103027,0.952147612306987,None,449.9728465999997,None,450.94361200000003,None,450.94361200000003,None,450.95557274000004,None,['b'],450.94361200000003,None,None,,452.92460070000016,None,b,1.7366489999994883,1,1,0.7317073170731707,455.2135998999993,None,None,455.2135998999993,None,[1.7366489999994883],,,,,,,,,,,,,,,,,,,,,,,CBC_1111,002,3,3,2,16,0.95,2024-06-04_14h44.38.349,MSI_AV_v3,2022.1.1,59.931486324881014,
41,0,41,0,,,,,,,,,,1,2.0,3.0,r,63.0,1.0,2.7134565917469198,1.95130344756745,None,457.02272339999945,None,458.99542609999935,None,458.99542609999935,None,459.00570364000015,None,"['b', 'r']",458.99542609999935,None,None,,460.9919082999995,None,b,0.48867710000013176,0,0,0.7142857142857143,463.71229349999976,None,None,463.71229349999976,None,"[0.48867710000013176, 1.332681899999443]",,,,,,,,,,,,,,,,,,,,,,,CBC_1111,002,3,3,2,16,0.95,2024-06-04_14h44.38.349,MSI_AV_v3,2022.1.1,59.931486324881014,
42,0,42,0,,,,,,,,,,0,3.0,2.0,r,63.0,1.0,3.7500315165247198,1.38289892513751,None,465.52190770000016,None,466.92671019999943,None,466.92671019999943,None,466.9228539299998,None,None,466.92671019999943,None,['r'],[0.9773687000006248],468.90581119999933,None,r,2.977368700000625,1,1,0.7209302325581395,472.6433471,None,None,472.6433471,None,,,,,,,,,,,,,,,,,,,,,,,,CBC_1111,002,3,3,2,16,0.95,2024-06-04_14h44.38.349,MSI_AV_v3,2022.1.1,59.931486324881014,
43,0,43,0,,,,,,,,,,1,3.0,1.0,b,27.0,1.0,2.82320408183943,3.33124983260532,None,474.4565944999995,None,477.8072431999999,None,477.8072431999999,None,477.8054956299998,None,None,477.8072431999999,None,['b'],[1.0244339999999283],479.7895473999997,None,b,3.0244339999999283,1,1,0.7272727272727273,482.60052670000005,None,None,482.60052670000005,None,,,,,,,,,,,,,,,,,,,,,,,,CBC_1111,002,3,3,2,16,0.95,2024-06-04_14h44.38.349,MSI_AV_v3,2022.1.1,59.931486324881014,
,,,,,,,,,,,,,,,,,,,,,,,,,,,,,,,,,,,,,,,,,,,,,,,,,r,3.9299019000000044,484.4061592999997,None,,,,,,,,,,,,,,,,,,CBC_1111,002,3,3,2,16,0.95,2024-06-04_14h44.38.349,MSI_AV_v3,2022.1.1,59.931486324881014,
,,,,,,,,,,,,,,,,,,,,,,,,,,,,,,,,,,,,,,,,,,,,,,,,,,,,,489.4060138999994,None,None,489.4060138999994,None,,,,,,,,,,,,,CBC_1111,002,3,3,2,16,0.95,2024-06-04_14h44.38.349,MSI_AV_v3,2022.1.1,59.931486324881014,
,,,,,,,,,,,,,,,,,,,,,,,,,,,,,,,,,,,,,,,,,,,,,,,,,,,,,,,,,,r,b,easy,"[0, 1, 2, 3]","[2, 3, 0, 1]",0.8181818181818182,0.8181818181818182,0.8181818181818182,0.45454545454545453,32,2,10,,,,,,,,,,,,
