trials_runs.thisRepN,trials_runs.thisTrialN,trials_runs.thisN,trials_runs.thisIndex,standbild_start.started,standbild_start.stopped,trigger.keys,trigger.rt,trigger.started,trigger.stopped,keys_2.keys,keys_2.started,keys_2.stopped,trials_runs.tactile_stim,trials_runs.visual_stim_left,trials_runs.visual_stim_right,trials_runs.correctKey,trials_runs.presentationFrequncy,trials_runs.FBaccuracy,trials_runs.ISI_s,trials_runs.ITI_s,keys_3.keys,keys_3.started,keys_3.stopped,image_stim_left.started,image_stim_right.started,tactile.started,response_4.keys,allKeys.keys,response_5.keys,response_5.rt,response_5.started,response_5.stopped,response_runs.keys,response_runs.rt,trials_runs.correct_answer,trials_runs.feedback_given,trials_runs.running_mean,feedback_6.stopped,feedback_6.started,keys_6.keys,keys_6.started,keys_6.stopped,keys_6.rt,keys_3.rt,response_4.rt,allKeys.rt,keys_7.keys,keys_7.started,keys_7.stopped,standbild_end.started,standbild_end.stopped,Stop_exp.keys,Stop_exp.started,Stop_exp.stopped,trials_runs.rightKey,trials_runs.leftKey,ts_difficulty,visualPair,tactilePair,trials_runs.mean_acc_1stFourth,trials_runs.mean_acc_2ndFourth,trials_runs.mean_acc_3rdFourth,trials_runs.mean_acc_4thFourth,nbCorrect,nbOmissions,nbIncorrect,participant,session,visual set [1-6],tactile set [1-3],trial structure [0-3 / 4-7],pairing [0-23],prob Feedback,date,expName,psychopyVersion,frameRate,
,,,,180.4287572000003,None,t,73.81567149999955,180.4287572000003,None,,,,,,,,,,,,,,,,,,,,,,,,,,,,,,,,,,,,,,,,,,,,,,,,,,,,,,,,,,CBC_1115,003,2,2,3,20,0.95,2024-08-06_16h02.16.693,MSI_TV_v3,2022.1.1,60.01684072546641,
,,,,,,,,,,None,254.27198510000017,None,,,,,,,,,,,,,,,,,,,,,,,,,,,,,,,,,,,,,,,,,,,,,,,,,,,,,,,CBC_1115,003,2,2,3,20,0.95,2024-08-06_16h02.16.693,MSI_TV_v3,2022.1.1,60.01684072546641,
0,0,0,0,,,,,,,,,,1,1.0,0.0,b,63.0,1.0,4.77723667052879,1.12425433982333,None,254.47257160000026,None,255.57254473999984,255.57254473999984,255.58924843999995,None,[],['b'],[0.5809717999991335],257.5850360000004,None,b,2.5809717999991335,1,1,1.0,None,262.3739187000001,None,262.3739187000001,None,,,,,,,,,,,,,,,,,,,,,,,,,CBC_1115,003,2,2,3,20,0.95,2024-08-06_16h02.16.693,MSI_TV_v3,2022.1.1,60.01684072546641,
1,0,1,0,,,,,,,,,,3,0.0,1.0,b,63.0,1.0,2.82320408183943,3.33124983260532,None,264.1721816999998,None,267.4891200400005,267.4891200400005,267.5057882400004,None,[],['b'],[0.8846686999995654],269.4925680000006,None,b,2.8846686999995654,1,1,1.0,None,272.3202739999997,None,272.3202739999997,None,,,,,,,,,,,,,,,,,,,,,,,,,CBC_1115,003,2,2,3,20,0.95,2024-08-06_16h02.16.693,MSI_TV_v3,2022.1.1,60.01684072546641,
2,0,2,0,,,,,,,,,,0,1.0,2.0,z,9.0,1.0,4.11514536789087,1.78643585472448,None,274.1211613000005,None,275.8894697399999,275.8894697399999,275.90619274000056,None,[],['z'],[1.0569973999990907],277.89462660000027,None,z,3.0569973999990907,1,1,1.0,None,282.00909200000024,None,282.00909200000024,None,,,,,,,,,,,,,,,,,,,,,,,,,CBC_1115,003,2,2,3,20,0.95,2024-08-06_16h02.16.693,MSI_TV_v3,2022.1.1,60.01684072546641,
3,0,3,0,,,,,,,,,,3,1.0,0.0,z,63.0,1.0,3.26539063535182,2.40378712856304,None,283.82272139999986,None,286.2057949400003,286.2057949400003,286.2222281399998,None,[],['z'],[0.8490037000001394],288.2122384000004,None,z,2.8490037000001394,1,1,1.0,None,291.4776207999994,None,291.4776207999994,None,,,,,,,,,,,,,,,,,,,,,,,,,CBC_1115,003,2,2,3,20,0.95,2024-08-06_16h02.16.693,MSI_TV_v3,2022.1.1,60.01684072546641,
4,0,4,0,,,,,,,,,,2,3.0,1.0,b,27.0,1.0,2.792365600763554,1.95130344756745,None,293.28919270000097,None,295.22224374000035,295.22224374000035,295.2390582399992,None,[],['b'],[1.255539000000681],297.2229515000008,None,b,3.255539000000681,1,1,1.0,None,300.02666489999956,None,300.02666489999956,None,,,,,,,,,,,,,,,,,,,,,,,,,CBC_1115,003,2,2,3,20,0.95,2024-08-06_16h02.16.693,MSI_TV_v3,2022.1.1,60.01684072546641,
5,0,5,0,,,,,,,,,,1,0.0,1.0,z,63.0,1.0,2.7134565917469198,1.27538462653558,None,301.83946729999934,None,303.0888508399992,303.0888508399992,303.1056598399999,None,[],['z'],[1.727998800000023],305.0951044000003,None,z,3.727998800000023,1,1,1.0,None,307.81906439999966,None,307.81906439999966,None,,,,,,,,,,,,,,,,,,,,,,,,,CBC_1115,003,2,2,3,20,0.95,2024-08-06_16h02.16.693,MSI_TV_v3,2022.1.1,60.01684072546641,
6,0,6,0,,,,,,,,,,0,2.0,3.0,b,63.0,1.0,3.73326136168326,2.78346932462847,None,309.62129860000005,None,312.38909653999946,312.38909653999946,312.40564003999935,None,[],['z'],[0.7785293999995702],314.3947216000006,None,z,2.77852939999957,0,0,0.8571428571428571,None,318.12710199999947,None,318.12710199999947,None,,,,,,,,,,,,,,,,,,,,,,,,,CBC_1115,003,2,2,3,20,0.95,2024-08-06_16h02.16.693,MSI_TV_v3,2022.1.1,60.01684072546641,
7,0,7,0,,,,,,,,,,3,2.0,0.0,z,27.0,1.0,3.7500315165247198,2.10421507306074,None,319.9393743999999,None,322.02247314000016,322.02247314000016,322.03901303999993,None,[],['z'],[1.4549464000001535],324.0292892000007,None,z,3.4549464000001535,1,1,0.875,None,327.7954990999997,None,327.7954990999997,None,,,,,,,,,,,,,,,,,,,,,,,,,CBC_1115,003,2,2,3,20,0.95,2024-08-06_16h02.16.693,MSI_TV_v3,2022.1.1,60.01684072546641,
8,0,8,0,,,,,,,,,,2,3.0,2.0,b,63.0,1.0,4.46924002178158,1.36309078069689,None,329.60586520000015,None,330.9397188400006,330.9397188400006,330.95597204000006,None,[],None,,332.9451400000007,None,None,[],0,3,0.7777777777777778,None,337.41761619999943,None,337.41761619999943,None,,,,,,,,,,,,,,,,,,,,,,,,,CBC_1115,003,2,2,3,20,0.95,2024-08-06_16h02.16.693,MSI_TV_v3,2022.1.1,60.01684072546641,
9,0,9,0,,,,,,,,,,1,3.0,1.0,z,27.0,1.0,2.91303524001082,1.53243550275999,None,339.22248839999975,None,340.73977473999986,340.73977473999986,340.7561966399997,None,[],None,,342.74217840000074,None,None,[],0,3,0.7,None,345.6443812999996,"['z', 'z']",345.6443812999996,None,"[0.15392189999965922, 1.2347505999996429]",,,,,,,,,,,,,,,,,,,,,,,,CBC_1115,003,2,2,3,20,0.95,2024-08-06_16h02.16.693,MSI_TV_v3,2022.1.1,60.01684072546641,
10,0,10,0,,,,,,,,,,0,3.0,2.0,z,63.0,1.0,2.592312596923728,3.1424449555106,"['z', 'z', 'z']",347.45565290000104,None,350.5725139400009,350.5725139400009,350.5887986400001,z,"['z', 'z', 'z']",None,,352.61518569999953,None,z,0.36893359999976383,1,1,0.7272727272727273,None,355.20224710000093,None,355.20224710000093,None,,"[0.08898459999818442, 0.36441499999909865, 0.9397371999993993]",0.36893359999976383,"[0.36893359999976383, 1.2468357999996442, 1.9356830000006084]",,,,,,,,,,,,,,,,,,,,,CBC_1115,003,2,2,3,20,0.95,2024-08-06_16h02.16.693,MSI_TV_v3,2022.1.1,60.01684072546641,
11,0,11,0,,,,,,,,,,1,1.0,3.0,b,27.0,1.0,3.35133458220192,0.917519910446003,None,357.0058134000001,None,357.90655643999963,357.90655643999963,357.92304543999927,None,[],None,,359.90984300000036,None,None,[],0,3,0.6666666666666666,None,363.26530940000066,"['z', 'b']",363.26530940000066,None,"[0.8010268000007272, 1.047917900000357]",,,,,,,,,,,,,,,,,,,,,,,,CBC_1115,003,2,2,3,20,0.95,2024-08-06_16h02.16.693,MSI_TV_v3,2022.1.1,60.01684072546641,
12,0,12,0,,,,,,,,,,0,3.0,2.0,z,63.0,1.0,2.526044641065533,1.96568735158996,"['z', 'b', 'b', 'z']",365.0725900999996,None,367.0224894400006,367.0224894400006,367.0390948400007,z,"['z', 'b']",None,,369.06404759999987,None,z,0.027081899998847803,1,1,0.6923076923076923,None,371.5853309999993,None,371.5853309999993,None,,"[0.2505279999995764, 0.25539409999964846, 0.9893254000007801, 1.0774644000002809]",0.027081899998847803,"[0.027081899998847803, 0.3850281000004543]",,,,,,,,,,,,,,,,,,,,,CBC_1115,003,2,2,3,20,0.95,2024-08-06_16h02.16.693,MSI_TV_v3,2022.1.1,60.01684072546641,
13,0,13,0,,,,,,,,,,2,3.0,2.0,b,63.0,1.0,2.693348633324513,3.06992456303453,None,373.3892679999999,None,376.43943334000033,376.43943334000033,376.4560915400005,None,[],['z'],[0.6098728999995728],378.44426010000006,None,z,2.609872899999573,0,0,0.6428571428571429,None,381.14790020000055,None,381.14790020000055,None,,,,,,,,,,,,,,,,,,,,,,,,,CBC_1115,003,2,2,3,20,0.95,2024-08-06_16h02.16.693,MSI_TV_v3,2022.1.1,60.01684072546641,
14,0,14,0,,,,,,,,,,3,0.0,3.0,b,9.0,1.0,3.02234236141277,1.43470440954152,None,382.9562126999999,None,384.37255753999926,384.37255753999926,384.3893042400003,None,[],"['b', 'z']","[2.6378455999993093, 2.6819562999999107]",386.37920510000095,None,b,4.637845599999309,1,1,0.6666666666666666,None,389.40572859999975,None,389.40572859999975,None,,,,,,,,,,,,,,,,,,,,,,,,,CBC_1115,003,2,2,3,20,0.95,2024-08-06_16h02.16.693,MSI_TV_v3,2022.1.1,60.01684072546641,
15,0,15,0,,,,,,,,,,1,0.0,1.0,z,63.0,0.0,3.71372710086949,2.15533949826702,None,391.20598879999943,None,393.3393556399995,393.3393556399995,393.35613233999976,None,[],"['b', 'z']","[1.5273583999996845, 1.6327056000000084]",395.34471960000064,None,b,3.5273583999996845,0,1,0.625,None,399.0641332999994,None,399.0641332999994,None,,,,,,,,,,,,,,,,,,,,,,,,,CBC_1115,003,2,2,3,20,0.95,2024-08-06_16h02.16.693,MSI_TV_v3,2022.1.1,60.01684072546641,
16,0,16,0,,,,,,,,,,2,2.0,3.0,z,63.0,1.0,2.2759877950103027,0.979776149765883,None,400.8726539999998,None,401.8392681400008,401.8392681400008,401.8563787400006,None,[],['b'],[2.181444400000146],403.8461610000004,None,b,4.181444400000146,0,0,0.5882352941176471,None,406.1336007,None,406.1336007,None,,,,,,,,,,,,,,,,,,,,,,,,,CBC_1115,003,2,2,3,20,0.95,2024-08-06_16h02.16.693,MSI_TV_v3,2022.1.1,60.01684072546641,
17,0,17,0,,,,,,,,,,0,0.0,2.0,z,27.0,1.0,3.3728785608729996,0.761758675042088,None,407.93963189999977,None,408.68945004000017,408.68945004000017,408.7062141400009,None,[],['z'],[0.5847119999989445],410.69550249999975,None,z,2.5847119999989445,1,1,0.6111111111111112,None,414.0738044,None,414.0738044,None,,,,,,,,,,,,,,,,,,,,,,,,,CBC_1115,003,2,2,3,20,0.95,2024-08-06_16h02.16.693,MSI_TV_v3,2022.1.1,60.01684072546641,
18,0,18,0,,,,,,,,,,3,0.0,1.0,b,63.0,1.0,3.76873691643126,1.38289892513751,None,415.8728951000003,None,417.23933973999993,417.23933973999993,417.25625803999975,None,[],['b'],[3.6961180000007516],419.2449153999996,None,b,5.696118000000752,1,1,0.631578947368421,None,423.0522568000006,None,423.0522568000006,None,,,,,,,,,,,,,,,,,,,,,,,,,CBC_1115,003,2,2,3,20,0.95,2024-08-06_16h02.16.693,MSI_TV_v3,2022.1.1,60.01684072546641,
19,0,19,0,,,,,,,,,,1,1.0,0.0,b,63.0,1.0,4.01714354611405,3.4543169006169,None,424.8565367000001,None,428.2896552400005,428.2896552400005,428.3062893400009,None,[],['z'],[1.1346741999996084],430.2952532999998,None,z,3.1346741999996084,0,0,0.6,None,434.32529820000036,None,434.32529820000036,None,,,,,,,,,,,,,,,,,,,,,,,,,CBC_1115,003,2,2,3,20,0.95,2024-08-06_16h02.16.693,MSI_TV_v3,2022.1.1,60.01684072546641,
20,0,20,0,,,,,,,,,,2,1.0,3.0,z,27.0,1.0,2.517541937862754,1.1243895841892,None,436.1397286000001,None,437.2398112399995,437.2398112399995,437.25604043999994,None,[],None,,439.24289410000074,None,None,[],0,3,0.5714285714285714,None,441.76717349999944,None,441.76717349999944,None,,,,,,,,,,,,,,,,,,,,,,,,,CBC_1115,003,2,2,3,20,0.95,2024-08-06_16h02.16.693,MSI_TV_v3,2022.1.1,60.01684072546641,
21,0,21,0,,,,,,,,,,0,3.0,2.0,z,63.0,1.0,3.2062024266105302,3.1963008326951,None,443.57307610000043,None,446.7563239399995,446.7563239399995,446.7729629400008,None,[],['z'],[0.3412648999992598],448.76388139999926,None,z,2.34126489999926,1,1,0.5909090909090909,None,451.97327230000064,None,451.97327230000064,None,,,,,,,,,,,,,,,,,,,,,,,,,CBC_1115,003,2,2,3,20,0.95,2024-08-06_16h02.16.693,MSI_TV_v3,2022.1.1,60.01684072546641,
22,0,22,0,,,,,,,,,,3,0.0,1.0,b,63.0,1.0,3.6438386551209,3.24569326556923,None,453.7728125000003,None,457.0067138399998,457.0067138399998,457.0232763400007,None,[],['b'],[1.8555957999988095],459.0127075999999,None,b,3.8555957999988095,1,1,0.6086956521739131,None,462.65784559999975,None,462.65784559999975,None,,,,,,,,,,,,,,,,,,,,,,,,,CBC_1115,003,2,2,3,20,0.95,2024-08-06_16h02.16.693,MSI_TV_v3,2022.1.1,60.01684072546641,
23,0,23,0,,,,,,,,,,2,2.0,3.0,z,63.0,1.0,4.61004669244928,0.974903167432984,None,464.473012200001,None,465.42315063999996,465.42315063999996,465.439593240001,None,[],['z'],[2.7485736999997243],467.4282033999998,None,z,4.748573699999724,1,1,0.625,None,472.04000709999946,None,472.04000709999946,None,,,,,,,,,,,,,,,,,,,,,,,,,CBC_1115,003,2,2,3,20,0.95,2024-08-06_16h02.16.693,MSI_TV_v3,2022.1.1,60.01684072546641,
24,0,24,0,,,,,,,,,,0,2.0,0.0,b,27.0,1.0,4.77034425507967,1.94858485820231,None,473.83996240000033,None,475.7731963400009,475.7731963400009,475.7900002400009,None,[],['z'],[1.4473410000000513],477.77974950000043,None,z,3.4473410000000513,0,0,0.6,None,482.5613949000008,None,482.5613949000008,None,,,,,,,,,,,,,,,,,,,,,,,,,CBC_1115,003,2,2,3,20,0.95,2024-08-06_16h02.16.693,MSI_TV_v3,2022.1.1,60.01684072546641,
25,0,25,0,,,,,,,,,,3,0.0,1.0,b,63.0,1.0,2.496959177995529,3.40155979865722,None,484.3731099000006,None,487.7565147400008,487.7565147400008,487.7730683399994,None,[],['b'],[0.9764905999991242],489.7602484000008,None,b,2.9764905999991242,1,1,0.6153846153846154,None,492.2630228000007,None,492.2630228000007,None,,,,,,,,,,,,,,,,,,,,,,,,,CBC_1115,003,2,2,3,20,0.95,2024-08-06_16h02.16.693,MSI_TV_v3,2022.1.1,60.01684072546641,
26,0,26,0,,,,,,,,,,1,1.0,3.0,b,27.0,1.0,4.52047235037039,1.64421109900286,None,494.07330420000017,None,495.68982674,495.68982674,495.7063205399998,None,[],['b'],[0.544861100000162],497.69360900000083,None,b,2.544861100000162,1,1,0.6296296296296297,None,502.2195904000009,None,502.2195904000009,None,,,,,,,,,,,,,,,,,,,,,,,,,CBC_1115,003,2,2,3,20,0.95,2024-08-06_16h02.16.693,MSI_TV_v3,2022.1.1,60.01684072546641,
27,0,27,0,,,,,,,,,,0,3.0,2.0,z,63.0,1.0,2.433630701072358,2.22427187882546,None,504.0231902000005,None,506.22348633999974,506.22348633999974,506.2398226400008,None,[],['z'],[0.5321546000004673],508.23093470000003,None,z,2.5321546000004673,1,1,0.6428571428571429,None,510.6636953999996,None,510.6636953999996,None,,,,,,,,,,,,,,,,,,,,,,,,,CBC_1115,003,2,2,3,20,0.95,2024-08-06_16h02.16.693,MSI_TV_v3,2022.1.1,60.01684072546641,
28,0,28,0,,,,,,,,,,2,3.0,2.0,b,63.0,1.0,4.53337421950507,1.34668860557497,None,512.4732998000009,None,513.8068647400003,513.8068647400003,513.8236334399996,None,[],['b'],[1.152433199999905],515.8148171000003,None,b,3.152433199999905,1,1,0.6551724137931034,None,520.3557826000006,None,520.3557826000006,None,,,,,,,,,,,,,,,,,,,,,,,,,CBC_1115,003,2,2,3,20,0.95,2024-08-06_16h02.16.693,MSI_TV_v3,2022.1.1,60.01684072546641,
29,0,29,0,,,,,,,,,,1,0.0,1.0,z,63.0,1.0,2.92731383428727,1.25920145784721,None,522.1568968000001,None,523.3904976399997,523.3904976399997,523.4069481400008,None,[],['z'],[0.3480781999978717],525.3967614999992,None,z,2.3480781999978717,1,1,0.6666666666666666,None,528.3392171000005,None,528.3392171000005,None,,,,,,,,,,,,,,,,,,,,,,,,,CBC_1115,003,2,2,3,20,0.95,2024-08-06_16h02.16.693,MSI_TV_v3,2022.1.1,60.01684072546641,
30,0,30,0,,,,,,,,,,3,2.0,0.0,z,27.0,1.0,2.629554641171433,0.80788063606262,None,530.1404291000008,None,530.9234177400001,530.9234177400001,530.9400550399994,None,[],['z'],[0.4631638999990173],532.9295205999997,None,z,2.4631638999990173,1,1,0.6774193548387096,None,535.5674141999998,None,535.5674141999998,None,,,,,,,,,,,,,,,,,,,,,,,,,CBC_1115,003,2,2,3,20,0.95,2024-08-06_16h02.16.693,MSI_TV_v3,2022.1.1,60.01684072546641,
31,0,31,0,,,,,,,,,,2,3.0,0.0,b,9.0,1.0,3.31929419319838,1.52290599571961,None,537.3737764000007,None,538.8737006399995,538.8737006399995,538.8901700400008,None,[],['b'],[1.7780326999991303],540.8751717999994,None,b,3.7780326999991303,1,1,0.6875,None,544.199147100001,None,544.199147100001,None,,,,,,,,,,,,,,,,,,,,,,,,,CBC_1115,003,2,2,3,20,0.95,2024-08-06_16h02.16.693,MSI_TV_v3,2022.1.1,60.01684072546641,
32,0,32,0,,,,,,,,,,0,3.0,2.0,z,63.0,1.0,4.82531807167306,0.77703640172831,None,546.0067912999993,None,546.7568655399998,546.7568655399998,546.7735477400008,None,[],['z'],[1.6134494999996605],548.762559400001,None,z,3.6134494999996605,1,1,0.696969696969697,None,553.5871665999994,None,553.5871665999994,None,,,,,,,,,,,,,,,,,,,,,,,,,CBC_1115,003,2,2,3,20,0.95,2024-08-06_16h02.16.693,MSI_TV_v3,2022.1.1,60.01684072546641,
33,0,33,0,,,,,,,,,,1,0.0,1.0,z,63.0,1.0,4.40017271499661,2.09887870490381,None,555.390284600001,None,557.4739727399999,557.4739727399999,557.4906415400008,None,[],['z'],[1.4833158999999796],559.4790010999996,None,z,3.4833158999999796,1,1,0.7058823529411765,None,563.8923600000007,None,563.8923600000007,None,,,,,,,,,,,,,,,,,,,,,,,,,CBC_1115,003,2,2,3,20,0.95,2024-08-06_16h02.16.693,MSI_TV_v3,2022.1.1,60.01684072546641,
34,0,34,0,,,,,,,,,,3,0.0,1.0,b,63.0,0.0,4.12485271162806,1.21250262048173,None,565.7074908999994,None,566.8904647400002,566.8904647400002,566.90706484,None,[],['b'],[0.6431218000006993],568.8973379000008,None,b,2.6431218000006993,1,0,0.7142857142857143,None,573.0267472999994,None,573.0267472999994,None,,,,,,,,,,,,,,,,,,,,,,,,,CBC_1115,003,2,2,3,20,0.95,2024-08-06_16h02.16.693,MSI_TV_v3,2022.1.1,60.01684072546641,
35,0,35,0,,,,,,,,,,2,2.0,3.0,z,63.0,1.0,2.294664843639333,0.952147612306987,None,574.8402508000008,None,575.7734128399995,575.7734128399995,575.7904325400002,None,[],None,,577.7849761999996,None,None,[],0,3,0.6944444444444444,None,580.0676561999999,['z'],580.0676561999999,None,[0.9162787999985085],,,,,,,,,,,,,,,,,,,,,,,,CBC_1115,003,2,2,3,20,0.95,2024-08-06_16h02.16.693,MSI_TV_v3,2022.1.1,60.01684072546641,
36,0,36,0,,,,,,,,,,1,1.0,2.0,b,9.0,1.0,2.6391747348430608,2.96653053743745,None,581.8735475000003,None,584.8236558399992,584.8236558399992,584.840144640001,None,[],['z'],[1.5146164999996472],586.8286020999994,None,z,3.514616499999647,0,0,0.6756756756756757,None,589.4795648999998,None,589.4795648999998,None,,,,,,,,,,,,,,,,,,,,,,,,,CBC_1115,003,2,2,3,20,0.95,2024-08-06_16h02.16.693,MSI_TV_v3,2022.1.1,60.01684072546641,
37,0,37,0,,,,,,,,,,3,2.0,0.0,z,27.0,1.0,2.342239579230602,1.53122835510861,None,591.290748800001,None,592.80716714,592.80716714,592.8238636400008,z,['z'],['z'],[0.24958649999916815],594.8492049999995,None,z,1.4805963999979213,1,1,0.6842105263157895,None,597.1877364000002,None,597.1877364000002,None,,,1.4805963999979213,[1.4805963999979213],,,,,,,,,,,,,,,,,,,,,CBC_1115,003,2,2,3,20,0.95,2024-08-06_16h02.16.693,MSI_TV_v3,2022.1.1,60.01684072546641,
38,0,38,0,,,,,,,,,,0,2.0,3.0,b,63.0,1.0,2.678526077912375,2.6299100644723,None,598.9905439000004,None,601.6071645399995,601.6071645399995,601.6234339400005,None,[],None,,603.6114623000003,None,None,[],0,3,0.6666666666666666,None,606.3024223000002,['b'],606.3024223000002,None,[1.3266027999989092],,,,,,,,,,,,,,,,,,,,,,,,CBC_1115,003,2,2,3,20,0.95,2024-08-06_16h02.16.693,MSI_TV_v3,2022.1.1,60.01684072546641,
39,0,39,0,,,,,,,,,,2,1.0,3.0,z,27.0,1.0,4.7533305109883095,2.49839527409216,['z'],608.107366700001,None,610.5907536399998,610.5907536399998,610.6071902400006,None,[],['z'],[0.8378507999996145],612.5958619000003,None,z,2.8378507999996145,1,1,0.675,None,617.3645272000003,None,617.3645272000003,None,,[0.03735109999888664],,,,,,,,,,,,,,,,,,,,,,,CBC_1115,003,2,2,3,20,0.95,2024-08-06_16h02.16.693,MSI_TV_v3,2022.1.1,60.01684072546641,
40,0,40,0,,,,,,,,,,3,0.0,1.0,b,63.0,1.0,4.190022164497369,1.60731937853708,None,619.1738966000003,None,620.7572895399996,620.7572895399996,620.77403734,None,[],None,,622.7632719999992,None,None,[],0,3,0.6585365853658537,None,626.9510137999996,None,626.9510137999996,None,,,,,,,,,,,,,,,,,,,,,,,,,CBC_1115,003,2,2,3,20,0.95,2024-08-06_16h02.16.693,MSI_TV_v3,2022.1.1,60.01684072546641,
41,0,41,0,,,,,,,,,,0,0.0,2.0,z,27.0,1.0,3.68371079902891,1.90743690794447,None,628.7571070000004,None,630.6408023400006,630.6408023400006,630.6575585399994,None,[],['z'],[0.6721464999982345],632.6470949999994,None,z,2.6721464999982345,1,1,0.6666666666666666,None,636.3424729999997,None,636.3424729999997,None,,,,,,,,,,,,,,,,,,,,,,,,,CBC_1115,003,2,2,3,20,0.95,2024-08-06_16h02.16.693,MSI_TV_v3,2022.1.1,60.01684072546641,
42,0,42,0,,,,,,,,,,2,3.0,2.0,b,63.0,1.0,2.666404967794728,1.25817747924478,None,638.1575108999996,None,639.3905837400005,639.3905837400005,639.4074405399995,None,[],None,,641.3977521000006,None,None,[],0,3,0.6511627906976745,None,644.0687054,['z'],644.0687054,None,[0.20976039999823115],,,,,,,,,,,,,,,,,,,,,,,,CBC_1115,003,2,2,3,20,0.95,2024-08-06_16h02.16.693,MSI_TV_v3,2022.1.1,60.01684072546641,
43,0,43,0,,,,,,,,,,1,1.0,0.0,b,63.0,1.0,4.72585056748869,1.18065738546375,None,645.8737504999999,None,647.0408011400002,647.0408011400002,647.0573975400009,None,[],['b'],[0.32836330000009184],649.0478890000004,None,b,2.328363300000092,1,1,0.6590909090909091,None,653.7815717999993,None,653.7815717999993,None,,,,,,,,,,,,,,,,,,,,,,,,,CBC_1115,003,2,2,3,20,0.95,2024-08-06_16h02.16.693,MSI_TV_v3,2022.1.1,60.01684072546641,
,,,,,,,,,,,,,,,,,,,,,,,,,,,,,,,,,,,,,,,,,,,,,,,None,655.5907576,None,,,,,,,,,,,,,,,,,,CBC_1115,003,2,2,3,20,0.95,2024-08-06_16h02.16.693,MSI_TV_v3,2022.1.1,60.01684072546641,
,,,,,,,,,,,,,,,,,,,,,,,,,,,,,,,,,,,,,,,,,,,,,,,,,,660.5742053999993,None,None,660.5742053999993,665.5577254999998,,,,,,,,,,,,,CBC_1115,003,2,2,3,20,0.95,2024-08-06_16h02.16.693,MSI_TV_v3,2022.1.1,60.01684072546641,
,,,,,,,,,,,,,,,,,,,,,,,,,,,,,,,,,,,,,,,,,,,,,,,,,,,,,,,z,b,hard,"[0, 1, 2, 3]","[3, 1, 0, 2]",0.7272727272727273,0.45454545454545453,0.9090909090909091,0.5454545454545454,29,8,7,,,,,,,,,,,,
