trials_runs.thisRepN,trials_runs.thisTrialN,trials_runs.thisN,trials_runs.thisIndex,standbild_start.started,standbild_start.stopped,trigger.keys,trigger.rt,trigger.started,trigger.stopped,keys_2.keys,keys_2.started,keys_2.stopped,trials_runs.auditory_stim,trials_runs.visual_stim_left,trials_runs.visual_stim_right,trials_runs.correctKey,trials_runs.presentationFrequncy,trials_runs.FBaccuracy,trials_runs.ISI_s,trials_runs.ITI_s,keys_3.keys,keys_3.started,keys_3.stopped,ImageLeft_4.started,ImageLeft_4.stopped,ImageRight_4.started,ImageRight_4.stopped,sound_4.started,sound_4.stopped,response_4.keys,response_4.started,response_4.stopped,response_5.keys,response_5.rt,response_5.started,response_5.stopped,response_runs.keys,response_runs.rt,trials_runs.correct_answer,trials_runs.feedback_given,trials_runs.running_mean,feedback_6.started,feedback_6.stopped,keys_6.keys,keys_6.started,keys_6.stopped,response_4.rt,keys_6.rt,keys_7.keys,keys_7.started,keys_7.stopped,standbild_end.started,standbild_end.stopped,Stop_exp.keys,Stop_exp.started,Stop_exp.stopped,trials_runs.rightKey,trials_runs.leftKey,ts_difficulty,visualPair,audioPair,trials_runs.mean_acc_1stFourth,trials_runs.mean_acc_2ndFourth,trials_runs.mean_acc_3rdFourth,trials_runs.mean_acc_4thFourth,nbCorrect,nbOmissions,nbIncorrect,participant,session,visual set [1-6],audio set [1-3 / 4-6],trial structure [0-3 / 4-7],pairing [0-23],prob Feedback,date,expName,psychopyVersion,frameRate,
,,,,224.63606460000028,None,t,66.4046729999991,224.63606460000028,None,,,,,,,,,,,,,,,,,,,,,,,,,,,,,,,,,,,,,,,,,,,,,,,,,,,,,,,,,,,,CBC_1129,002,3,1,1,10,0.95,2024-09-25_15h04.08.990,MSI_AV_v3,2022.1.1,59.763182413380974,
,,,,,,,,,,None,291.0669429999998,None,,,,,,,,,,,,,,,,,,,,,,,,,,,,,,,,,,,,,,,,,,,,,,,,,,,,,,,,,CBC_1129,002,3,1,1,10,0.95,2024-09-25_15h04.08.990,MSI_AV_v3,2022.1.1,59.763182413380974,
0,0,0,0,,,,,,,,,,3,1,0,b,63,1,3.71372710086949,2.49839527409216,None,291.26687260000017,None,293.92648439999994,None,293.92648439999994,None,293.93340532000116,None,None,293.92648439999994,None,['b'],[2.6197339000000284],295.7672781000001,None,b,4.619733900000028,1,1,1.0,299.4936308000006,None,None,299.4936308000006,None,,,,,,,,,,,,,,,,,,,,,,,CBC_1129,002,3,1,1,10,0.95,2024-09-25_15h04.08.990,MSI_AV_v3,2022.1.1,59.763182413380974,
1,0,1,0,,,,,,,,,,2,3,2,b,63,1,2.294664843639333,1.18065738546375,None,301.30038090000016,None,302.5716233000003,None,302.5716233000003,None,302.5670391700007,None,None,302.5716233000003,None,['b'],[0.6062857999995686],304.4836731000005,None,b,2.6062857999995686,1,1,1.0,306.7679334000004,None,None,306.7679334000004,None,,,,,,,,,,,,,,,,,,,,,,,CBC_1129,002,3,1,1,10,0.95,2024-09-25_15h04.08.990,MSI_AV_v3,2022.1.1,59.763182413380974,
2,0,2,0,,,,,,,,,,3,3,1,z,27,1,3.3728785608729996,1.53122835510861,None,308.5830364000003,None,310.1206409000006,None,310.1206409000006,None,310.11666893000057,None,None,310.1206409000006,None,['z'],[0.5004070999993928],312.10012110000025,None,z,2.500407099999393,1,1,1.0,315.4692319000005,None,None,315.4692319000005,None,,,,,,,,,,,,,,,,,,,,,,,CBC_1129,002,3,1,1,10,0.95,2024-09-25_15h04.08.990,MSI_AV_v3,2022.1.1,59.763182413380974,
3,0,3,0,,,,,,,,,,0,2,3,b,63,1,4.77723667052879,0.974903167432984,None,317.28379060000043,None,318.29513450000013,None,318.29513450000013,None,318.30017235000014,None,None,318.29513450000013,None,['z'],[0.3490209000001414],320.2500458000004,None,z,2.3490209000001414,0,0,0.75,325.02496820000033,None,None,325.02496820000033,None,,,,,,,,,,,,,,,,,,,,,,,CBC_1129,002,3,1,1,10,0.95,2024-09-25_15h04.08.990,MSI_AV_v3,2022.1.1,59.763182413380974,
4,0,4,0,,,,,,,,,,0,0,2,z,27,1,2.678526077912375,2.09887870490381,None,326.83335570000054,None,328.94085540000015,None,328.94085540000015,None,328.9494728300004,None,['b'],328.94085540000015,None,None,,330.92433770000025,None,b,1.5399707999995371,0,0,0.6,333.6052567000006,None,None,333.6052567000006,None,[1.5399707999995371],,,,,,,,,,,,,,,,,,,,,,CBC_1129,002,3,1,1,10,0.95,2024-09-25_15h04.08.990,MSI_AV_v3,2022.1.1,59.763182413380974,
5,0,5,0,,,,,,,,,,1,0,3,b,9,1,3.73326136168326,1.94858485820231,None,335.4171210000004,None,337.40241140000035,None,337.40241140000035,None,337.40014814000045,None,None,337.40241140000035,None,['b'],[0.7294998999996096],339.36611580000044,None,b,2.7294998999996096,1,1,0.6666666666666666,343.0783007,None,None,343.0783007,None,,,,,,,,,,,,,,,,,,,,,,,CBC_1129,002,3,1,1,10,0.95,2024-09-25_15h04.08.990,MSI_AV_v3,2022.1.1,59.763182413380974,
6,0,6,0,,,,,,,,,,0,2,3,b,63,1,4.11514536789087,2.10421507306074,None,344.8840994000002,None,346.9852286000005,None,346.9852286000005,None,346.98238152,None,None,346.9852286000005,None,['z'],[0.4288563999989492],348.96664320000036,None,z,2.428856399998949,0,0,0.5714285714285714,353.06993630000034,None,None,353.06993630000034,None,,,,,,,,,,,,,,,,,,,,,,,CBC_1129,002,3,1,1,10,0.95,2024-09-25_15h04.08.990,MSI_AV_v3,2022.1.1,59.763182413380974,
7,0,7,0,,,,,,,,,,1,1,0,z,63,1,4.61004669244928,1.64421109900286,None,354.88304270000026,None,356.54144090000045,None,356.54144090000045,None,356.55046824000095,None,None,356.54144090000045,None,['z'],[0.015475799999876472],358.5171831000007,None,z,2.0154757999998765,1,1,0.625,363.1263723000002,None,None,363.1263723000002,None,,,,,,,,,,,,,,,,,,,,,,,CBC_1129,002,3,1,1,10,0.95,2024-09-25_15h04.08.990,MSI_AV_v3,2022.1.1,59.763182413380974,
8,0,8,0,,,,,,,,,,2,2,3,z,63,1,2.2759877950103027,1.53243550275999,None,364.9331651000002,None,366.4693120000002,None,366.4693120000002,None,366.4668496300008,None,None,366.4693120000002,None,['b'],[0.497358699999495],368.4501682,None,b,2.497358699999495,0,0,0.5555555555555556,370.7140530000006,None,None,370.7140530000006,None,,,,,,,,,,,,,,,,,,,,,,,CBC_1129,002,3,1,1,10,0.95,2024-09-25_15h04.08.990,MSI_AV_v3,2022.1.1,59.763182413380974,
9,0,9,0,,,,,,,,,,0,3,2,z,63,1,4.12485271162806,1.21250262048173,None,372.5161200000002,None,373.740237,None,373.740237,None,373.75061024000064,None,None,373.740237,None,['b'],[0.5479687999995804],375.7171201000001,None,b,2.5479687999995804,0,0,0.5,379.8299689000005,None,None,379.8299689000005,None,,,,,,,,,,,,,,,,,,,,,,,CBC_1129,002,3,1,1,10,0.95,2024-09-25_15h04.08.990,MSI_AV_v3,2022.1.1,59.763182413380974,
10,0,10,0,,,,,,,,,,2,3,1,b,27,1,4.53337421950507,1.95130344756745,None,381.63385610000023,None,383.6077267999999,None,383.6077267999999,None,383.6172083400001,None,None,383.6077267999999,None,['z'],[0.9332447999995566],385.5826366000001,None,z,2.9332447999995566,0,0,0.45454545454545453,390.1092462000006,None,None,390.1092462000006,None,,,,,,,,,,,,,,,,,,,,,,,CBC_1129,002,3,1,1,10,0.95,2024-09-25_15h04.08.990,MSI_AV_v3,2022.1.1,59.763182413380974,
11,0,11,0,,,,,,,,,,1,0,1,b,63,0,2.693348633324513,1.60731937853708,None,391.91726629999994,None,393.54010000000017,None,393.54010000000017,None,393.5504177400002,None,['b'],393.54010000000017,None,None,,395.52255760000025,None,b,1.559849999999642,1,0,0.5,398.19931350000024,None,None,398.19931350000024,None,[1.559849999999642],,,,,,,,,,,,,,,,,,,,,,CBC_1129,002,3,1,1,10,0.95,2024-09-25_15h04.08.990,MSI_AV_v3,2022.1.1,59.763182413380974,
12,0,12,0,,,,,,,,,,0,3,2,z,63,1,2.629554641171433,2.22427187882546,None,400.0003690000003,None,402.2396475000005,None,402.2396475000005,None,402.25028074000096,None,None,402.2396475000005,None,['b'],[0.6528801999993448],404.2171377000004,None,b,2.6528801999993448,0,0,0.46153846153846156,406.84713290000036,None,None,406.84713290000036,None,,,,,,,,,,,,,,,,,,,,,,,CBC_1129,002,3,1,1,10,0.95,2024-09-25_15h04.08.990,MSI_AV_v3,2022.1.1,59.763182413380974,
13,0,13,0,,,,,,,,,,1,2,0,z,27,1,3.02234236141277,1.38289892513751,None,408.6499837000001,None,410.0578108999998,None,410.0578108999998,None,410.0670664400008,None,None,410.0578108999998,None,['z'],[0.006167099999402126],412.0335248000001,None,z,2.006167099999402,1,1,0.5,415.0453756000006,None,None,415.0453756000006,None,,,,,,,,,,,,,,,,,,,,,,,CBC_1129,002,3,1,1,10,0.95,2024-09-25_15h04.08.990,MSI_AV_v3,2022.1.1,59.763182413380974,
14,0,14,0,,,,,,,,,,3,1,0,b,63,1,4.52047235037039,1.43470440954152,None,416.85072540000056,None,418.3061312,None,418.3061312,None,418.3004422300008,None,None,418.3061312,None,['b'],[0.001666299999669718],420.2838023000004,None,b,2.0016662999996697,1,1,0.5333333333333333,424.7932369,None,None,424.7932369,None,,,,,,,,,,,,,,,,,,,,,,,CBC_1129,002,3,1,1,10,0.95,2024-09-25_15h04.08.990,MSI_AV_v3,2022.1.1,59.763182413380974,
15,0,15,0,,,,,,,,,,2,2,3,z,63,1,2.592312596923728,1.34668860557497,None,426.59923440000057,None,427.9560799000001,None,427.9560799000001,None,427.95066343000036,None,None,427.9560799000001,None,['b'],[1.0143923999994513],429.9344329000005,None,b,3.0143923999994513,0,0,0.5,432.5235014,None,None,432.5235014,None,,,,,,,,,,,,,,,,,,,,,,,CBC_1129,002,3,1,1,10,0.95,2024-09-25_15h04.08.990,MSI_AV_v3,2022.1.1,59.763182413380974,
16,0,16,0,,,,,,,,,,3,2,1,z,9,1,3.6438386551209,0.917519910446003,None,434.3328076000007,None,435.26973350000026,None,435.26973350000026,None,435.2670253300001,None,['z'],435.26973350000026,None,None,,437.2666605000004,None,z,1.9424036999998862,1,1,0.5294117647058824,440.90922500000033,None,None,440.90922500000033,None,[1.9424036999998862],,,,,,,,,,,,,,,,,,,,,,CBC_1129,002,3,1,1,10,0.95,2024-09-25_15h04.08.990,MSI_AV_v3,2022.1.1,59.763182413380974,
17,0,17,0,,,,,,,,,,2,3,1,b,27,1,4.77034425507967,1.12425433982333,None,442.7172616000007,None,443.85356409999986,None,443.85356409999986,None,443.8507882300008,None,None,443.85356409999986,None,['b'],[0.675074400000085],445.8342947000001,None,b,2.675074400000085,1,1,0.5555555555555556,450.5955799000003,None,None,450.5955799000003,None,,,,,,,,,,,,,,,,,,,,,,,CBC_1129,002,3,1,1,10,0.95,2024-09-25_15h04.08.990,MSI_AV_v3,2022.1.1,59.763182413380974,
18,0,18,0,,,,,,,,,,1,1,0,z,63,1,2.92731383428727,3.1424449555106,None,452.4003510000002,None,455.5540522000001,None,455.5540522000001,None,455.55048793000043,None,None,455.5540522000001,None,['z'],[0.5252180999996199],457.5342347000005,None,z,2.52521809999962,1,1,0.5789473684210527,460.45204830000057,None,None,460.45204830000057,None,,,,,,,,,,,,,,,,,,,,,,,CBC_1129,002,3,1,1,10,0.95,2024-09-25_15h04.08.990,MSI_AV_v3,2022.1.1,59.763182413380974,
19,0,19,0,,,,,,,,,,1,0,1,b,63,1,2.342239579230602,0.979776149765883,None,462.2659328,None,463.2538957000006,None,463.2538957000006,None,463.25043633000024,None,None,463.2538957000006,None,['b'],[0.4757953999996971],465.233647,None,b,2.475795399999697,1,1,0.6,467.55889600000046,None,None,467.55889600000046,None,,,,,,,,,,,,,,,,,,,,,,,CBC_1129,002,3,1,1,10,0.95,2024-09-25_15h04.08.990,MSI_AV_v3,2022.1.1,59.763182413380974,
20,0,20,0,,,,,,,,,,0,0,2,z,27,1,4.82531807167306,2.78346932462847,None,469.36800780000067,None,472.1701339000001,None,472.1701339000001,None,472.16715903000005,None,['z'],472.1701339000001,None,None,,474.1662247000004,None,z,1.598946000000069,1,1,0.6190476190476191,478.9859118000004,None,None,478.9859118000004,None,[1.598946000000069],,,,,,,,,,,,,,,,,,,,,,CBC_1129,002,3,1,1,10,0.95,2024-09-25_15h04.08.990,MSI_AV_v3,2022.1.1,59.763182413380974,
21,0,21,0,,,,,,,,,,3,1,0,b,63,1,2.517541937862754,1.27538462653558,None,480.80090220000056,None,482.0834713000004,None,482.0834713000004,None,482.08338113000065,None,None,482.0834713000004,None,['b'],[0.049254499999733525],484.06714660000034,None,b,2.0492544999997335,1,1,0.6363636363636364,486.5834196000005,None,None,486.5834196000005,None,,,,,,,,,,,,,,,,,,,,,,,CBC_1129,002,3,1,1,10,0.95,2024-09-25_15h04.08.990,MSI_AV_v3,2022.1.1,59.763182413380974,
22,0,22,0,,,,,,,,,,0,0,2,z,27,1,2.433630701072358,3.24569326556923,None,488.38402080000014,None,491.6553893,None,491.6553893,None,491.6509318300003,None,None,491.6553893,None,['z'],[0.028207299999849056],493.63420360000055,None,z,2.028207299999849,1,1,0.6521739130434783,496.0483167000002,None,None,496.0483167000002,None,,,,,,,,,,,,,,,,,,,,,,,CBC_1129,002,3,1,1,10,0.95,2024-09-25_15h04.08.990,MSI_AV_v3,2022.1.1,59.763182413380974,
23,0,23,0,,,,,,,,,,2,2,3,z,63,1,3.76873691643126,1.25920145784721,None,497.85026560000006,None,499.1185196000006,None,499.1185196000006,None,499.11733733000057,None,None,499.1185196000006,None,['z'],[1.021570499999143],501.1005782000002,None,z,3.021570499999143,1,1,0.6666666666666666,504.86503859999993,None,None,504.86503859999993,None,,,,,,,,,,,,,,,,,,,,,,,CBC_1129,002,3,1,1,10,0.95,2024-09-25_15h04.08.990,MSI_AV_v3,2022.1.1,59.763182413380974,
24,0,24,0,,,,,,,,,,1,0,1,b,63,1,2.792365600763554,1.25817747924478,None,506.6676102000001,None,507.93953650000003,None,507.93953650000003,None,507.95107304000015,None,None,507.93953650000003,None,['z'],[0.4174007999990863],509.91770129999986,None,z,2.4174007999990863,0,0,0.64,512.6961945000003,None,None,512.6961945000003,None,,,,,,,,,,,,,,,,,,,,,,,CBC_1129,002,3,1,1,10,0.95,2024-09-25_15h04.08.990,MSI_AV_v3,2022.1.1,59.763182413380974,
25,0,25,0,,,,,,,,,,0,2,3,b,63,1,3.31929419319838,1.52290599571961,None,514.5012476000002,None,516.0208564000004,None,516.0208564000004,None,516.0332046300008,None,['z'],516.0208564000004,None,None,,518.0231557000006,None,z,1.7299821999995402,0,0,0.6153846153846154,521.3328563000005,None,None,521.3328563000005,None,[1.7299821999995402],,,,,,,,,,,,,,,,,,,,,,CBC_1129,002,3,1,1,10,0.95,2024-09-25_15h04.08.990,MSI_AV_v3,2022.1.1,59.763182413380974,
26,0,26,0,,,,,,,,,,1,0,2,b,27,1,4.46924002178158,3.1963008326951,None,523.1339562000003,None,526.3342886999999,None,526.3342886999999,None,526.3326621200006,None,None,526.3342886999999,None,['b'],[0.3226528999994116],528.3174180000005,None,b,2.3226528999994116,1,1,0.6296296296296297,532.7777235000003,None,None,532.7777235000003,None,,,,,,,,,,,,,,,,,,,,,,,CBC_1129,002,3,1,1,10,0.95,2024-09-25_15h04.08.990,MSI_AV_v3,2022.1.1,59.763182413380974,
27,0,27,0,,,,,,,,,,2,2,3,z,63,1,2.666404967794728,1.90743690794447,None,534.5841934999999,None,536.4880369000002,None,536.4880369000002,None,536.4999057300009,None,None,536.4880369000002,None,['b'],[0.20131539999965753],538.4674411000005,None,b,2.2013153999996575,0,0,0.6071428571428571,541.1194657000005,None,None,541.1194657000005,None,,,,,,,,,,,,,,,,,,,,,,,CBC_1129,002,3,1,1,10,0.95,2024-09-25_15h04.08.990,MSI_AV_v3,2022.1.1,59.763182413380974,
28,0,28,0,,,,,,,,,,2,2,3,z,63,1,2.526044641065533,3.33124983260532,None,542.9346484000007,None,546.2845483000001,None,546.2845483000001,None,546.2839745300006,None,None,546.2845483000001,None,['z'],[0.580975099999705],548.2673316999999,None,z,2.580975099999705,1,1,0.6206896551724138,550.7936138000005,None,None,550.7936138000005,None,,,,,,,,,,,,,,,,,,,,,,,CBC_1129,002,3,1,1,10,0.95,2024-09-25_15h04.08.990,MSI_AV_v3,2022.1.1,59.763182413380974,
29,0,29,0,,,,,,,,,,3,1,3,b,27,1,3.35133458220192,0.77703640172831,None,552.6010125000003,None,553.3865813000002,None,553.3865813000002,None,553.3840475300002,None,None,553.3865813000002,None,['b'],[0.23430740000003425],555.3676675000006,None,b,2.2343074000000342,1,1,0.6333333333333333,558.7158607000001,None,None,558.7158607000001,None,,,,,,,,,,,,,,,,,,,,,,,CBC_1129,002,3,1,1,10,0.95,2024-09-25_15h04.08.990,MSI_AV_v3,2022.1.1,59.763182413380974,
30,0,30,0,,,,,,,,,,2,3,0,b,9,1,4.40017271499661,1.1243895841892,None,560.5173252000004,None,561.6569053000003,None,561.6569053000003,None,561.6677727400005,None,None,561.6569053000003,None,['z'],[0.20043659999919328],563.6345228,None,z,2.2004365999991933,0,0,0.6129032258064516,568.0181030000003,None,None,568.0181030000003,None,,,,,,,,,,,,,,,,,,,,,,,CBC_1129,002,3,1,1,10,0.95,2024-09-25_15h04.08.990,MSI_AV_v3,2022.1.1,59.763182413380974,
31,0,31,0,,,,,,,,,,3,0,1,z,63,1,3.2062024266105302,3.06992456303453,None,569.8331601999998,None,572.9237860000003,None,572.9237860000003,None,572.9343638400009,None,None,572.9237860000003,None,['b'],[1.7244190000001254],574.8999515000005,None,b,3.7244190000001254,0,0,0.59375,578.0997373,None,None,578.0997373,None,,,,,,,,,,,,,,,,,,,,,,,CBC_1129,002,3,1,1,10,0.95,2024-09-25_15h04.08.990,MSI_AV_v3,2022.1.1,59.763182413380974,
32,0,32,0,,,,,,,,,,1,0,1,b,63,1,2.7134565917469198,2.6299100644723,None,579.9002885999998,None,582.5209592000001,None,582.5209592000001,None,582.5330777300004,None,None,582.5209592000001,None,['z'],[0.44026429999939865],584.5008877999999,None,z,2.4402642999993986,0,0,0.5757575757575758,587.2078204,None,None,587.2078204,None,,,,,,,,,,,,,,,,,,,,,,,CBC_1129,002,3,1,1,10,0.95,2024-09-25_15h04.08.990,MSI_AV_v3,2022.1.1,59.763182413380974,
33,0,33,0,,,,,,,,,,3,0,1,z,63,1,3.7500315165247198,2.40378712856304,None,589.0176121000004,None,591.4371934999999,None,591.4371934999999,None,591.4341836300008,None,['b'],591.4371934999999,None,None,,593.4384104000001,None,b,1.7013262999998915,0,0,0.5588235294117647,597.1882054000007,None,None,597.1882054000007,None,[1.7013262999998915],,,,,,,,,,,,,,,,,,,,,,CBC_1129,002,3,1,1,10,0.95,2024-09-25_15h04.08.990,MSI_AV_v3,2022.1.1,59.763182413380974,
34,0,34,0,,,,,,,,,,0,2,3,b,63,1,2.91303524001082,0.761758675042088,None,599.0010220000004,None,599.7763140000006,None,599.7763140000006,None,599.7846458400003,None,None,599.7763140000006,None,['z'],[0.3217533999995794],601.7512182,None,z,2.3217533999995794,0,0,0.5428571428571428,604.6604633000006,None,None,604.6604633000006,None,,,,,,,,,,,,,,,,,,,,,,,CBC_1129,002,3,1,1,10,0.95,2024-09-25_15h04.08.990,MSI_AV_v3,2022.1.1,59.763182413380974,
35,0,35,0,,,,,,,,,,1,2,0,z,27,1,4.190022164497369,1.36309078069689,None,606.4678917000001,None,607.8546692,None,607.8546692,None,607.8512091300007,None,None,607.8546692,None,['b'],[0.7716700000000856],609.8343009,None,b,2.7716700000000856,0,0,0.5277777777777778,614.0042248,None,None,614.0042248,None,,,,,,,,,,,,,,,,,,,,,,,CBC_1129,002,3,1,1,10,0.95,2024-09-25_15h04.08.990,MSI_AV_v3,2022.1.1,59.763182413380974,
36,0,36,0,,,,,,,,,,3,0,1,z,63,1,3.26539063535182,1.96568735158996,None,615.8169959000006,None,617.7880349000006,None,617.7880349000006,None,617.7844560300008,None,None,617.7880349000006,None,['z'],[0.10514919999968697],619.7680736000002,None,z,2.105149199999687,1,1,0.5405405405405406,623.0220629000005,None,None,623.0220629000005,None,,,,,,,,,,,,,,,,,,,,,,,CBC_1129,002,3,1,1,10,0.95,2024-09-25_15h04.08.990,MSI_AV_v3,2022.1.1,59.763182413380974,
37,0,37,0,,,,,,,,,,3,1,3,b,27,1,3.68371079902891,2.96653053743745,None,624.8343900999998,None,627.8207492000001,None,627.8207492000001,None,627.8179592300002,None,None,627.8207492000001,None,['b'],[0.3762364999993224],629.8015229000002,None,b,2.3762364999993224,1,1,0.5526315789473685,633.4795757000002,None,None,633.4795757000002,None,,,,,,,,,,,,,,,,,,,,,,,CBC_1129,002,3,1,1,10,0.95,2024-09-25_15h04.08.990,MSI_AV_v3,2022.1.1,59.763182413380974,
38,0,38,0,,,,,,,,,,0,2,3,b,63,1,4.01714354611405,0.952147612306987,None,635.2844430000005,None,636.2362561999998,None,636.2362561999998,None,636.2330851200006,None,None,636.2362561999998,None,['z'],[0.11380829999961861],638.2177380000003,None,z,2.1138082999996186,0,0,0.5384615384615384,642.2309412000004,None,None,642.2309412000004,None,,,,,,,,,,,,,,,,,,,,,,,CBC_1129,002,3,1,1,10,0.95,2024-09-25_15h04.08.990,MSI_AV_v3,2022.1.1,59.763182413380974,
39,0,39,0,,,,,,,,,,2,1,3,z,27,1,4.7533305109883095,2.15533949826702,None,644.0335328000001,None,646.2046137000007,None,646.2046137000007,None,646.2010226300007,None,None,646.2046137000007,None,['b'],[0.5677701999993587],648.1845039999998,None,b,2.5677701999993587,0,0,0.525,652.933317,None,None,652.933317,None,,,,,,,,,,,,,,,,,,,,,,,CBC_1129,002,3,1,1,10,0.95,2024-09-25_15h04.08.990,MSI_AV_v3,2022.1.1,59.763182413380974,
40,0,40,0,,,,,,,,,,0,2,1,b,9,1,2.6391747348430608,3.4543169006169,None,654.7347178999999,None,658.2043113,None,658.2043113,None,658.2011726300005,None,None,658.2043113,None,['b'],[0.6045784999996613],660.1842050000005,None,b,2.6045784999996613,1,1,0.5365853658536586,662.8138114000003,None,None,662.8138114000003,None,,,,,,,,,,,,,,,,,,,,,,,CBC_1129,002,3,1,1,10,0.95,2024-09-25_15h04.08.990,MSI_AV_v3,2022.1.1,59.763182413380974,
41,0,41,0,,,,,,,,,,3,1,0,b,63,0,2.496959177995529,0.80788063606262,None,664.6167922000004,None,665.4374076000004,None,665.4374076000004,None,665.4344663300006,None,None,665.4374076000004,None,['b'],[0.1594131000001653],667.4178585999998,None,b,2.1594131000001653,1,0,0.5476190476190477,669.9083568000005,None,None,669.9083568000005,None,,,,,,,,,,,,,,,,,,,,,,,CBC_1129,002,3,1,1,10,0.95,2024-09-25_15h04.08.990,MSI_AV_v3,2022.1.1,59.763182413380974,
42,0,42,0,,,,,,,,,,2,2,3,z,63,1,2.82320408183943,1.78643585472448,None,671.7180589999998,None,673.5235235,None,673.5235235,None,673.5345062400005,None,None,673.5235235,None,None,,675.5011308000003,None,[],[],0,3,0.5348837209302325,678.3074430000006,None,['z'],678.3074430000006,None,,[0.031908199999634235],,,,,,,,,,,,,,,,,,,,,CBC_1129,002,3,1,1,10,0.95,2024-09-25_15h04.08.990,MSI_AV_v3,2022.1.1,59.763182413380974,
43,0,43,0,,,,,,,,,,1,1,0,z,63,1,4.72585056748869,3.40155979865722,None,680.1178451000005,None,683.5416117000004,None,683.5416117000004,None,683.5511946400005,None,None,683.5416117000004,None,['z'],[1.0377458000002662],685.5178908000007,None,z,3.037745800000266,1,1,0.5454545454545454,690.2339876000005,None,None,690.2339876000005,None,,,,,,,,,,,,,,,,,,,,,,,CBC_1129,002,3,1,1,10,0.95,2024-09-25_15h04.08.990,MSI_AV_v3,2022.1.1,59.763182413380974,
,,,,,,,,,,,,,,,,,,,,,,,,,,,,,,,,,,,,,,,,,,,,,,,,,None,692.0347379000004,None,,,,,,,,,,,,,,,,,,CBC_1129,002,3,1,1,10,0.95,2024-09-25_15h04.08.990,MSI_AV_v3,2022.1.1,59.763182413380974,
,,,,,,,,,,,,,,,,,,,,,,,,,,,,,,,,,,,,,,,,,,,,,,,,,,,,697.0346742000002,None,None,697.0346742000002,None,,,,,,,,,,,,,CBC_1129,002,3,1,1,10,0.95,2024-09-25_15h04.08.990,MSI_AV_v3,2022.1.1,59.763182413380974,
,,,,,,,,,,,,,,,,,,,,,,,,,,,,,,,,,,,,,,,,,,,,,,,,,,,,,,,,,z,b,easy,"[0, 1, 2, 3]","[1, 3, 0, 2]",0.45454545454545453,0.8181818181818182,0.45454545454545453,0.45454545454545453,22,1,21,,,,,,,,,,,,
