trials_runs.thisRepN,trials_runs.thisTrialN,trials_runs.thisN,trials_runs.thisIndex,standbild_start.started,standbild_start.stopped,trigger.keys,trigger.rt,trigger.started,trigger.stopped,keys_2.keys,keys_2.started,keys_2.stopped,trials_runs.tactile_stim,trials_runs.visual_stim_left,trials_runs.visual_stim_right,trials_runs.correctKey,trials_runs.presentationFrequncy,trials_runs.FBaccuracy,trials_runs.ISI_s,trials_runs.ITI_s,keys_3.keys,keys_3.started,keys_3.stopped,image_stim_left.started,image_stim_right.started,tactile.started,response_4.keys,allKeys.keys,response_5.keys,response_5.rt,response_5.started,response_5.stopped,response_runs.keys,response_runs.rt,trials_runs.correct_answer,trials_runs.feedback_given,trials_runs.running_mean,feedback_6.stopped,feedback_6.started,keys_6.keys,keys_6.started,keys_6.stopped,response_4.rt,allKeys.rt,keys_7.keys,keys_7.rt,keys_7.started,keys_7.stopped,standbild_end.started,standbild_end.stopped,Stop_exp.keys,Stop_exp.started,Stop_exp.stopped,trials_runs.rightKey,trials_runs.leftKey,ts_difficulty,visualPair,tactilePair,trials_runs.mean_acc_1stFourth,trials_runs.mean_acc_2ndFourth,trials_runs.mean_acc_3rdFourth,trials_runs.mean_acc_4thFourth,participant,session,visual set [1-6],tactile set [1-3],trial structure [0-3 / 4-7],pairing [0-23],prob Feedback,date,expName,psychopyVersion,frameRate,
,,,,37.647067400001106,None,t,57.66249909999897,37.647067400001106,None,,,,,,,,,,,,,,,,,,,,,,,,,,,,,,,,,,,,,,,,,,,,,,,,,,,,,,CBC_1005,004,3,2,4,6,0.95,2023-06-03_14h23.46.710,MSI_TV_v3,2022.1.1,60.062296614248815,
,,,,,,,,,,None,95.33026210000025,None,,,,,,,,,,,,,,,,,,,,,,,,,,,,,,,,,,,,,,,,,,,,,,,,,,,CBC_1005,004,3,2,4,6,0.95,2023-06-03_14h23.46.710,MSI_TV_v3,2022.1.1,60.062296614248815,
0,0,0,0,,,,,,,,,,0,1.0,0.0,b,63.0,1.0,3.044827724,2.234398566,None,95.5327115,None,97.74634003999999,97.74634003999999,97.76297444000083,None,[],['z'],[0.42232589999912307],99.75078250000115,None,z,2.422325899999123,0,0,0.0,None,102.79995550000058,None,102.79995550000058,None,,,,,,,,,,,,,,,,,,,,,CBC_1005,004,3,2,4,6,0.95,2023-06-03_14h23.46.710,MSI_TV_v3,2022.1.1,60.062296614248815,
1,0,1,0,,,,,,,,,,1,1.0,0.0,z,63.0,1.0,1.899747326,0.789129603,None,104.79693589999988,None,105.56358474000153,105.56358474000153,105.58017804000046,None,[],['b'],[0.3712147999995068],107.56063590000122,None,b,2.371214799999507,0,0,0.0,None,109.46440170000096,None,109.46440170000096,None,,,,,,,,,,,,,,,,,,,,,CBC_1005,004,3,2,4,6,0.95,2023-06-03_14h23.46.710,MSI_TV_v3,2022.1.1,60.062296614248815,
2,0,2,0,,,,,,,,,,3,3.0,2.0,b,63.0,1.0,1.556335756,2.210349838,None,111.46361030000116,None,113.64772804000022,113.64772804000022,113.66359953999999,None,[],['z'],[1.081570099999226],115.6459360000008,None,z,3.081570099999226,0,0,0.0,None,117.21356900000137,None,117.21356900000137,None,,,,,,,,,,,,,,,,,,,,,CBC_1005,004,3,2,4,6,0.95,2023-06-03_14h23.46.710,MSI_TV_v3,2022.1.1,60.062296614248815,
3,0,3,0,,,,,,,,,,0,1.0,2.0,b,9.0,1.0,1.758742576,1.483424551,None,119.21403640000062,None,120.67949244000083,120.67949244000083,120.69636984000026,None,[],['b'],[1.1796794999991107],122.67453750000095,None,b,3.1796794999991107,1,1,0.25,None,124.44155110000065,None,124.44155110000065,None,,,,,,,,,,,,,,,,,,,,,CBC_1005,004,3,2,4,6,0.95,2023-06-03_14h23.46.710,MSI_TV_v3,2022.1.1,60.062296614248815,
4,0,4,0,,,,,,,,,,1,2.0,0.0,z,27.0,1.0,1.595506577,2.757001452,None,126.44696570000087,None,129.18043484000083,129.18043484000083,129.19701934000005,None,[],['z'],[0.24389179999889166],131.18398160000106,None,z,2.2438917999988917,1,1,0.4,None,132.77078930000062,None,132.77078930000062,None,,,,,,,,,,,,,,,,,,,,,CBC_1005,004,3,2,4,6,0.95,2023-06-03_14h23.46.710,MSI_TV_v3,2022.1.1,60.062296614248815,
5,0,5,0,,,,,,,,,,2,3.0,2.0,z,63.0,1.0,2.372527466,1.915207301,None,134.78040610000062,None,136.6803538400007,136.6803538400007,136.6970261400009,None,[],['z'],[0.39859529999739607],138.67927650000092,None,z,2.398595299997396,1,1,0.5,None,141.05852850000156,None,141.05852850000156,None,,,,,,,,,,,,,,,,,,,,,CBC_1005,004,3,2,4,6,0.95,2023-06-03_14h23.46.710,MSI_TV_v3,2022.1.1,60.062296614248815,
6,0,6,0,,,,,,,,,,3,3.0,1.0,b,27.0,1.0,2.917714675,1.883772966,None,143.06369770000128,None,144.93041264000095,144.93041264000095,144.94704014000018,None,[],['z'],[0.6404831999971066],146.93383170000016,None,z,2.6404831999971066,0,0,0.42857142857142855,None,149.86248140000134,None,149.86248140000134,None,,,,,,,,,,,,,,,,,,,,,CBC_1005,004,3,2,4,6,0.95,2023-06-03_14h23.46.710,MSI_TV_v3,2022.1.1,60.062296614248815,
7,0,7,0,,,,,,,,,,1,0.0,1.0,b,63.0,1.0,1.219965572,3.264468617,None,151.8638512000016,None,155.11370614000117,155.11370614000117,155.1304590400003,None,[],['z'],[0.4962934999985009],157.13709840000047,None,z,2.496293499998501,0,0,0.375,None,158.3569709000003,None,158.3569709000003,None,,,,,,,,,,,,,,,,,,,,,CBC_1005,004,3,2,4,6,0.95,2023-06-03_14h23.46.710,MSI_TV_v3,2022.1.1,60.062296614248815,
8,0,8,0,,,,,,,,,,2,0.0,2.0,z,27.0,1.0,2.0845750460000003,2.108332021,None,160.36395559999983,None,162.44713334000045,162.44713334000045,162.4637182400009,None,[],['z'],[0.7414912999993248],164.45020170000134,None,z,2.741491299999325,1,1,0.4444444444444444,None,166.54503000000113,None,166.54503000000113,None,,,,,,,,,,,,,,,,,,,,,CBC_1005,004,3,2,4,6,0.95,2023-06-03_14h23.46.710,MSI_TV_v3,2022.1.1,60.062296614248815,
9,0,9,0,,,,,,,,,,3,3.0,2.0,b,63.0,1.0,2.232488062,1.84422311,None,168.5471292000002,None,170.36377674000033,170.36377674000033,170.3806319399999,None,[],['b'],[0.581499599999006],172.36805749999985,None,b,2.581499599999006,1,1,0.5,None,174.58847740000056,None,174.58847740000056,None,,,,,,,,,,,,,,,,,,,,,CBC_1005,004,3,2,4,6,0.95,2023-06-03_14h23.46.710,MSI_TV_v3,2022.1.1,60.062296614248815,
10,0,10,0,,,,,,,,,,0,0.0,1.0,z,63.0,1.0,4.268032915,1.732943574,None,176.59703770000124,None,178.31392864000082,178.31392864000082,178.3304958400011,None,[],['z'],[1.1248164999997243],180.3171824000001,None,z,3.1248164999997243,1,1,0.5454545454545454,None,184.5827418000008,None,184.5827418000008,None,,,,,,,,,,,,,,,,,,,,,CBC_1005,004,3,2,4,6,0.95,2023-06-03_14h23.46.710,MSI_TV_v3,2022.1.1,60.062296614248815,
11,0,11,0,,,,,,,,,,1,1.0,0.0,z,63.0,1.0,4.309752164,3.274187802,None,186.59722880000118,None,189.84689494000014,189.84689494000014,189.86321983999989,z,['z'],None,,191.88041470000098,None,z,1.8903521999982331,1,1,0.5833333333333334,None,196.20942620000096,None,196.20942620000096,None,1.8903521999982331,[1.8903521999982331],,,,,,,,,,,,,,,,,,,CBC_1005,004,3,2,4,6,0.95,2023-06-03_14h23.46.710,MSI_TV_v3,2022.1.1,60.062296614248815,
12,0,12,0,,,,,,,,,,3,3.0,2.0,b,63.0,1.0,1.90573091,0.971483559,None,198.21427870000116,None,199.16400854000022,199.16400854000022,199.1804641400002,None,[],['z'],[0.8622384999980568],201.1821544000013,None,z,2.862238499998057,0,0,0.5384615384615384,None,203.09342450000076,None,203.09342450000076,None,,,,,,,,,,,,,,,,,,,,,CBC_1005,004,3,2,4,6,0.95,2023-06-03_14h23.46.710,MSI_TV_v3,2022.1.1,60.062296614248815,
13,0,13,0,,,,,,,,,,2,0.0,2.0,z,27.0,1.0,2.818459073,2.349749758,None,205.0965257000007,None,207.43020314000097,207.43020314000097,207.44647794000122,None,[],['b'],[0.5765367999993032],209.42334960000153,None,b,2.576536799999303,0,0,0.5,None,212.23208370000066,None,212.23208370000066,None,,,,,,,,,,,,,,,,,,,,,CBC_1005,004,3,2,4,6,0.95,2023-06-03_14h23.46.710,MSI_TV_v3,2022.1.1,60.062296614248815,
14,0,14,0,,,,,,,,,,1,1.0,0.0,z,63.0,1.0,2.208904638,1.086048241,None,214.2308993000006,None,215.29739024000156,215.29739024000156,215.3139426400001,None,[],['z'],[0.3779858999987482],217.30037410000114,None,z,2.377985899998748,1,1,0.5333333333333333,None,219.50179500000013,None,219.50179500000013,None,,,,,,,,,,,,,,,,,,,,,CBC_1005,004,3,2,4,6,0.95,2023-06-03_14h23.46.710,MSI_TV_v3,2022.1.1,60.062296614248815,
15,0,15,0,,,,,,,,,,0,3.0,1.0,z,27.0,1.0,3.589438522,2.935368129,None,221.51418710000144,None,224.43113714000066,224.43113714000066,224.44746664000087,None,[],['z'],[0.25372179999794753],226.43456920000062,None,z,2.2537217999979475,1,1,0.5625,None,230.02345590000004,None,230.02345590000004,None,,,,,,,,,,,,,,,,,,,,,CBC_1005,004,3,2,4,6,0.95,2023-06-03_14h23.46.710,MSI_TV_v3,2022.1.1,60.062296614248815,
16,0,16,0,,,,,,,,,,2,2.0,3.0,b,63.0,1.0,1.610581685,0.977134615,None,232.03127170000153,None,232.97999734000115,232.97999734000115,232.99669604000047,None,[],['b'],[0.7597338999985368],234.97582320000038,None,b,2.759733899998537,1,1,0.5882352941176471,None,236.59194560000105,None,236.59194560000105,None,,,,,,,,,,,,,,,,,,,,,CBC_1005,004,3,2,4,6,0.95,2023-06-03_14h23.46.710,MSI_TV_v3,2022.1.1,60.062296614248815,
17,0,17,0,,,,,,,,,,3,3.0,2.0,b,63.0,0.0,1.543156518,1.910349838,None,238.5974139000009,None,240.48082254000002,240.48082254000002,240.49747704000112,None,[],['b'],[0.3415452999997797],242.48539810000148,None,b,2.3415452999997797,1,0,0.6111111111111112,None,244.02460960000099,None,244.02460960000099,None,,,,,,,,,,,,,,,,,,,,,CBC_1005,004,3,2,4,6,0.95,2023-06-03_14h23.46.710,MSI_TV_v3,2022.1.1,60.062296614248815,
18,0,18,0,,,,,,,,,,0,0.0,1.0,z,63.0,1.0,2.278602942,2.297139377,None,246.0301995000009,None,248.29759024000015,248.29759024000015,248.31428604000104,None,[],['z'],[0.39185859999815875],250.30192570000145,None,z,2.3918585999981588,1,1,0.631578947368421,None,252.58149260000027,None,252.58149260000027,None,,,,,,,,,,,,,,,,,,,,,CBC_1005,004,3,2,4,6,0.95,2023-06-03_14h23.46.710,MSI_TV_v3,2022.1.1,60.062296614248815,
19,0,19,0,,,,,,,,,,1,0.0,2.0,b,27.0,1.0,1.6718976049999998,2.684881281,None,254.58099430000038,None,257.24759974000045,257.24759974000045,257.2640809400007,None,[],['b'],[1.019520799998645],259.25051300000086,None,b,3.019520799998645,1,1,0.65,None,260.932200700001,None,260.932200700001,None,,,,,,,,,,,,,,,,,,,,,CBC_1005,004,3,2,4,6,0.95,2023-06-03_14h23.46.710,MSI_TV_v3,2022.1.1,60.062296614248815,
20,0,20,0,,,,,,,,,,3,3.0,0.0,b,9.0,1.0,2.078483356,2.648704933,None,262.94743890000063,None,265.5809848400011,265.5809848400011,265.5975258400002,None,[],['b'],[0.6120318999983283],267.58483680000063,None,b,2.6120318999983283,1,1,0.6666666666666666,None,269.67031730000053,None,269.67031730000053,None,,,,,,,,,,,,,,,,,,,,,CBC_1005,004,3,2,4,6,0.95,2023-06-03_14h23.46.710,MSI_TV_v3,2022.1.1,60.062296614248815,
21,0,21,0,,,,,,,,,,2,3.0,2.0,z,63.0,1.0,2.518459073,2.7801224,None,271.6808916000009,None,274.43176053999997,274.43176053999997,274.4477010400013,None,[],['z'],[0.43700839999837626],276.43332610000107,None,z,2.4370083999983763,1,1,0.6818181818181818,None,278.9558906000002,None,278.9558906000002,None,,,,,,,,,,,,,,,,,,,,,CBC_1005,004,3,2,4,6,0.95,2023-06-03_14h23.46.710,MSI_TV_v3,2022.1.1,60.062296614248815,
22,0,22,0,,,,,,,,,,0,1.0,3.0,b,27.0,1.0,4.21669271,2.502774076,None,280.96430409999994,None,283.4477366400013,283.4477366400013,283.464274140001,None,[],['b'],[0.2125698999989254],285.4501713999998,None,b,2.2125698999989254,1,1,0.6956521739130435,None,289.6747454000015,None,289.6747454000015,None,,,,,,,,,,,,,,,,,,,,,CBC_1005,004,3,2,4,6,0.95,2023-06-03_14h23.46.710,MSI_TV_v3,2022.1.1,60.062296614248815,
23,0,23,0,,,,,,,,,,2,2.0,3.0,b,63.0,1.0,2.67601813,1.08099246,None,291.68106960000114,None,292.747725940001,292.747725940001,292.76429124000134,None,[],['b'],[0.2848565999993298],294.7707962000004,None,b,2.2848565999993298,1,1,0.7083333333333334,None,297.42221040000004,None,297.42221040000004,None,,,,,,,,,,,,,,,,,,,,,CBC_1005,004,3,2,4,6,0.95,2023-06-03_14h23.46.710,MSI_TV_v3,2022.1.1,60.062296614248815,
24,0,24,0,,,,,,,,,,3,3.0,2.0,b,63.0,1.0,1.109698721,2.071213329,None,299.4310837000012,None,301.4810058400006,301.4810058400006,301.4976888400004,None,[],['b'],[0.9177008999995451],303.48584480000136,None,b,2.917700899999545,1,1,0.72,None,304.5941290999999,None,304.5941290999999,None,,,,,,,,,,,,,,,,,,,,,CBC_1005,004,3,2,4,6,0.95,2023-06-03_14h23.46.710,MSI_TV_v3,2022.1.1,60.062296614248815,
25,0,25,0,,,,,,,,,,0,0.0,1.0,z,63.0,1.0,2.242058058,2.407383959,None,306.59790130000147,None,308.98120914000066,308.98120914000066,308.9979562400011,None,[],['z'],[0.9452590000000782],310.98454910000146,None,z,2.9452590000000782,1,1,0.7307692307692307,None,313.22064390000014,None,313.22064390000014,None,,,,,,,,,,,,,,,,,,,,,CBC_1005,004,3,2,4,6,0.95,2023-06-03_14h23.46.710,MSI_TV_v3,2022.1.1,60.062296614248815,
26,0,26,0,,,,,,,,,,1,3.0,0.0,z,9.0,1.0,2.088920167,1.75396268,None,315.2314741000009,None,316.96461624000113,316.96461624000113,316.9812432400002,None,[],['z'],[0.765831699998671],318.9678143000001,None,z,2.765831699998671,1,1,0.7407407407407407,None,321.0606067000008,None,321.0606067000008,None,,,,,,,,,,,,,,,,,,,,,CBC_1005,004,3,2,4,6,0.95,2023-06-03_14h23.46.710,MSI_TV_v3,2022.1.1,60.062296614248815,
27,0,27,0,,,,,,,,,,3,3.0,2.0,b,63.0,1.0,4.196249082,1.53162701,None,323.06458120000025,None,324.58106584000126,324.58106584000126,324.59769754000155,None,[],['b'],[0.3289201999978104],326.5801459000013,None,b,2.3289201999978104,1,1,0.75,None,330.78111660000104,None,330.78111660000104,None,,,,,,,,,,,,,,,,,,,,,CBC_1005,004,3,2,4,6,0.95,2023-06-03_14h23.46.710,MSI_TV_v3,2022.1.1,60.062296614248815,
28,0,28,0,,,,,,,,,,2,0.0,2.0,z,27.0,1.0,2.117809983,2.232990834,None,332.781646200001,None,334.99821564000086,334.99821564000086,335.0151166399999,None,[],['z'],[0.42537259999880916],337.0020215000004,None,z,2.425372599998809,1,1,0.7586206896551724,None,339.11666460000015,None,339.11666460000015,None,,,,,,,,,,,,,,,,,,,,,CBC_1005,004,3,2,4,6,0.95,2023-06-03_14h23.46.710,MSI_TV_v3,2022.1.1,60.062296614248815,
29,0,29,0,,,,,,,,,,1,0.0,1.0,b,63.0,1.0,3.869831913,3.388090306,None,341.13146510000115,None,344.49801564000046,344.49801564000046,344.5145794400003,None,[],['b'],[1.0006602999983443],346.5013106000006,None,b,3.0006602999983443,1,1,0.7666666666666667,None,350.35952050000014,None,350.35952050000014,None,,,,,,,,,,,,,,,,,,,,,CBC_1005,004,3,2,4,6,0.95,2023-06-03_14h23.46.710,MSI_TV_v3,2022.1.1,60.062296614248815,
30,0,30,0,,,,,,,,,,0,0.0,1.0,z,63.0,1.0,3.622505815,2.573610938,None,352.3645727000003,None,354.9145615400001,354.9145615400001,354.9312561400009,None,[],['z'],[0.3155211999983294],356.92123250000077,None,z,2.3155211999983294,1,1,0.7741935483870968,None,360.54465170000003,None,360.54465170000003,None,,,,,,,,,,,,,,,,,,,,,CBC_1005,004,3,2,4,6,0.95,2023-06-03_14h23.46.710,MSI_TV_v3,2022.1.1,60.062296614248815,
31,0,31,0,,,,,,,,,,3,1.0,3.0,z,27.0,1.0,4.334629553,1.411911144,None,362.54791490000025,None,363.94795724000033,363.94795724000033,363.96461944000004,z,['z'],None,,365.9722431000009,None,z,1.4768384999988484,1,1,0.78125,None,370.30676350000067,None,370.30676350000067,None,1.4768384999988484,[1.4768384999988484],,,,,,,,,,,,,,,,,,,CBC_1005,004,3,2,4,6,0.95,2023-06-03_14h23.46.710,MSI_TV_v3,2022.1.1,60.062296614248815,
32,0,32,0,,,,,,,,,,2,2.0,3.0,b,63.0,1.0,2.742099981,1.554037824,None,372.3146992000002,None,373.84812504000075,373.84812504000075,373.86448274000105,None,[],['z'],[1.2041405999989365],375.846247200001,None,z,3.2041405999989365,0,0,0.7575757575757576,None,378.58570150000014,None,378.58570150000014,None,,,,,,,,,,,,,,,,,,,,,CBC_1005,004,3,2,4,6,0.95,2023-06-03_14h23.46.710,MSI_TV_v3,2022.1.1,60.062296614248815,
33,0,33,0,,,,,,,,,,0,0.0,1.0,z,63.0,1.0,3.956662465,2.962224669,None,380.59849120000035,None,383.5309784400004,383.5309784400004,383.54769624000147,None,[],['z'],[0.23241149999921618],385.52560450000055,None,z,2.232411499999216,1,1,0.7647058823529411,None,389.4787429000007,None,389.4787429000007,None,,,,,,,,,,,,,,,,,,,,,CBC_1005,004,3,2,4,6,0.95,2023-06-03_14h23.46.710,MSI_TV_v3,2022.1.1,60.062296614248815,
34,0,34,0,,,,,,,,,,1,1.0,0.0,z,63.0,1.0,1.874984683,2.128027194,None,391.4813959000003,None,393.5812631400011,393.5812631400011,393.59790244000106,None,[],['z'],[0.6468292999998084],395.58010410000134,None,z,2.6468292999998084,1,1,0.7714285714285715,None,397.460567600001,None,397.460567600001,None,,,,,,,,,,,,,,,,,,,,,CBC_1005,004,3,2,4,6,0.95,2023-06-03_14h23.46.710,MSI_TV_v3,2022.1.1,60.062296614248815,
35,0,35,0,,,,,,,,,,2,2.0,1.0,b,9.0,1.0,3.278108735,1.448890429,None,399.4647377000001,None,400.8980728400009,400.8980728400009,400.9146311400007,None,[],['z'],[0.8671747999978834],402.89754260000154,None,z,2.8671747999978834,0,0,0.75,None,406.1807157000003,None,406.1807157000003,None,,,,,,,,,,,,,,,,,,,,,CBC_1005,004,3,2,4,6,0.95,2023-06-03_14h23.46.710,MSI_TV_v3,2022.1.1,60.062296614248815,
36,0,36,0,,,,,,,,,,1,0.0,1.0,b,63.0,1.0,2.949122761,1.293060736,None,408.1813628,None,409.4481211400005,409.4481211400005,409.4647488400013,None,[],['b'],[0.1429945999989286],411.44711740000093,None,b,2.1429945999989286,1,1,0.7567567567567568,None,414.3991569000009,None,414.3991569000009,None,,,,,,,,,,,,,,,,,,,,,CBC_1005,004,3,2,4,6,0.95,2023-06-03_14h23.46.710,MSI_TV_v3,2022.1.1,60.062296614248815,
37,0,37,0,,,,,,,,,,3,1.0,3.0,z,27.0,1.0,2.397501916,3.276660373,None,416.3982801000002,None,419.6482165400001,419.6482165400001,419.66476354000116,z,['z'],None,,421.6849333000009,None,z,1.283729199998561,1,1,0.7631578947368421,None,424.07381950000126,None,424.07381950000126,None,1.283729199998561,[1.283729199998561],,,,,,,,,,,,,,,,,,,CBC_1005,004,3,2,4,6,0.95,2023-06-03_14h23.46.710,MSI_TV_v3,2022.1.1,60.062296614248815,
38,0,38,0,,,,,,,,,,0,1.0,0.0,b,63.0,1.0,1.3262934849999999,1.142638656,None,426.0815394000001,None,427.19777374000006,427.19777374000006,427.2145735400016,None,[],['b'],[0.3131543999988935],429.19471760000124,None,b,2.3131543999988935,1,1,0.7692307692307693,None,430.5246380000008,None,430.5246380000008,None,,,,,,,,,,,,,,,,,,,,,CBC_1005,004,3,2,4,6,0.95,2023-06-03_14h23.46.710,MSI_TV_v3,2022.1.1,60.062296614248815,
39,0,39,0,,,,,,,,,,2,3.0,2.0,z,63.0,0.0,1.887650177,2.495793893,None,432.531324900001,None,434.99829414000016,434.99829414000016,435.0149293399998,None,[],['b'],[0.15238399999907415],436.99663540000074,None,b,2.152383999999074,0,1,0.75,None,438.89987360000123,None,438.89987360000123,None,,,,,,,,,,,,,,,,,,,,,CBC_1005,004,3,2,4,6,0.95,2023-06-03_14h23.46.710,MSI_TV_v3,2022.1.1,60.062296614248815,
40,0,40,0,,,,,,,,,,1,0.0,2.0,b,27.0,1.0,4.176609572,1.24796184,None,440.9150298000004,None,442.1483348400005,442.1483348400005,442.1649183400012,None,[],['z'],[0.3580246999972587],444.1461930000005,None,z,2.3580246999972587,0,0,0.7317073170731707,None,448.3237405,None,448.3237405,None,,,,,,,,,,,,,,,,,,,,,CBC_1005,004,3,2,4,6,0.95,2023-06-03_14h23.46.710,MSI_TV_v3,2022.1.1,60.062296614248815,
41,0,41,0,,,,,,,,,,3,2.0,3.0,z,63.0,1.0,3.884449499,1.313600181,None,450.331830000001,None,451.63140043999994,451.63140043999994,451.64849724000015,z,['z'],None,,453.6641123999998,None,z,1.8004180999996606,1,1,0.7380952380952381,None,457.5570587000002,None,457.5570587000002,None,1.8004180999996606,[1.8004180999996606],,,,,,,,,,,,,,,,,,,CBC_1005,004,3,2,4,6,0.95,2023-06-03_14h23.46.710,MSI_TV_v3,2022.1.1,60.062296614248815,
42,0,42,0,,,,,,,,,,0,1.0,3.0,b,27.0,1.0,3.501824497,1.378098418,None,459.5717525,None,460.9149795400015,460.9149795400015,460.93156444000016,None,[],['b'],[0.37010819999886735],462.9136167000015,None,b,2.3701081999988673,1,1,0.7441860465116279,None,466.41553400000157,None,466.41553400000157,None,,,,,,,,,,,,,,,,,,,,,CBC_1005,004,3,2,4,6,0.95,2023-06-03_14h23.46.710,MSI_TV_v3,2022.1.1,60.062296614248815,
43,0,43,0,,,,,,,,,,2,3.0,2.0,z,63.0,1.0,3.478547126,3.321420384,None,468.4161249000008,None,471.7152790400003,471.7152790400003,471.732011840001,None,[],['z'],[0.785013999999137],473.71970560000045,None,z,2.785013999999137,1,1,0.75,None,477.1955353000012,None,477.1955353000012,None,,,,,,,,,,,,,,,,,,,,,CBC_1005,004,3,2,4,6,0.95,2023-06-03_14h23.46.710,MSI_TV_v3,2022.1.1,60.062296614248815,
,,,,,,,,,,,,,,,,,,,,,,,,,,,,,,,,,,,,,,,,,,,,,b,1.7178572999982862,479.1987321000015,None,,,,,,,,,,,,,,,CBC_1005,004,3,2,4,6,0.95,2023-06-03_14h23.46.710,MSI_TV_v3,2022.1.1,60.062296614248815,
,,,,,,,,,,,,,,,,,,,,,,,,,,,,,,,,,,,,,,,,,,,,,,,,,484.1821084000003,None,None,484.1821084000003,489.16547940000055,,,,,,,,,,CBC_1005,004,3,2,4,6,0.95,2023-06-03_14h23.46.710,MSI_TV_v3,2022.1.1,60.062296614248815,
,,,,,,,,,,,,,,,,,,,,,,,,,,,,,,,,,,,,,,,,,,,,,,,,,,,,,,z,b,hard,"[0, 1, 2, 3]","[1, 0, 2, 3]",0.5454545454545454,0.8181818181818182,0.9090909090909091,0.7272727272727273,,,,,,,,,,,,
