trials_runs.thisRepN,trials_runs.thisTrialN,trials_runs.thisN,trials_runs.thisIndex,standbild_start.started,standbild_start.stopped,trigger.keys,trigger.rt,trigger.started,trigger.stopped,keys_2.keys,keys_2.started,keys_2.stopped,trials_runs.tactile_stim,trials_runs.visual_stim_left,trials_runs.visual_stim_right,trials_runs.correctKey,trials_runs.presentationFrequncy,trials_runs.FBaccuracy,trials_runs.ISI_s,trials_runs.ITI_s,keys_3.keys,keys_3.started,keys_3.stopped,image_stim_left.started,image_stim_right.started,tactile.started,response_4.keys,allKeys.keys,response_5.keys,response_5.rt,response_5.started,response_5.stopped,response_runs.keys,response_runs.rt,trials_runs.correct_answer,trials_runs.feedback_given,trials_runs.running_mean,feedback_6.stopped,feedback_6.started,keys_6.keys,keys_6.started,keys_6.stopped,keys_6.rt,keys_7.keys,keys_7.started,keys_7.stopped,standbild_end.started,standbild_end.stopped,Stop_exp.keys,Stop_exp.started,Stop_exp.stopped,trials_runs.rightKey,trials_runs.leftKey,ts_difficulty,visualPair,tactilePair,trials_runs.mean_acc_1stFourth,trials_runs.mean_acc_2ndFourth,trials_runs.mean_acc_3rdFourth,trials_runs.mean_acc_4thFourth,participant,session,visual set [1-6],tactile set [1-3],trial structure [0-3],pairing [0-23],prob Feedback,date,expName,psychopyVersion,frameRate,
,,,,29.471594300001016,None,t,73.42799000000014,29.471594300001016,None,,,,,,,,,,,,,,,,,,,,,,,,,,,,,,,,,,,,,,,,,,,,,,,,,,,,CBC_1002,001,1,3,0,1,0.95,2023-05-31_16h13.57.205,MSI_TV_v3,2022.1.1,60.133303507409174,
,,,,,,,,,,None,102.93111270000009,None,,,,,,,,,,,,,,,,,,,,,,,,,,,,,,,,,,,,,,,,,,,,,,,,,CBC_1002,001,1,3,0,1,0.95,2023-05-31_16h13.57.205,MSI_TV_v3,2022.1.1,60.133303507409174,
0,0,0,0,,,,,,,,,,1,0.0,1.0,z,63.0,1.0,2.818459073,3.388090306,None,103.13348730000143,None,106.49760200000055,106.49760200000055,106.51423060000089,None,[],['b'],[0.5815366000006179],108.49531610000122,None,b,2.581536600000618,0,0,0.0,None,111.33357760000035,None,111.33357760000035,None,,,,,,,,,,,,,,,,,,,CBC_1002,001,1,3,0,1,0.95,2023-05-31_16h13.57.205,MSI_TV_v3,2022.1.1,60.133303507409174,
1,0,1,0,,,,,,,,,,0,0.0,1.0,b,63.0,1.0,2.0845750460000003,2.7801224,None,113.3313100000014,None,116.09722560000155,116.09722560000155,116.11398260000097,None,[],['b'],[0.40994879999925615],118.09210030000031,None,b,2.409948799999256,1,1,0.5,None,120.17944440000065,None,120.17944440000065,None,,,,,,,,,,,,,,,,,,,CBC_1002,001,1,3,0,1,0.95,2023-05-31_16h13.57.205,MSI_TV_v3,2022.1.1,60.133303507409174,
2,0,2,0,,,,,,,,,,2,2.0,3.0,z,63.0,1.0,1.610581685,2.573610938,None,122.18113100000119,None,124.73121680000004,124.73121680000004,124.7478028000016,None,[],['b'],[0.4550122000000556],126.73469640000076,None,b,2.4550122000000556,0,0,0.3333333333333333,None,128.3570012,None,128.3570012,None,,,,,,,,,,,,,,,,,,,CBC_1002,001,1,3,0,1,0.95,2023-05-31_16h13.57.205,MSI_TV_v3,2022.1.1,60.133303507409174,
3,0,3,0,,,,,,,,,,1,2.0,1.0,z,9.0,1.0,4.21669271,2.648704933,None,130.3645765000001,None,132.99790310000134,132.99790310000134,133.01450760000006,None,[],['b'],[0.6531185999992886],135.00145910000174,None,b,2.6531185999992886,0,0,0.25,None,139.23259560000042,None,139.23259560000042,None,,,,,,,,,,,,,,,,,,,CBC_1002,001,1,3,0,1,0.95,2023-05-31_16h13.57.205,MSI_TV_v3,2022.1.1,60.133303507409174,
4,0,4,0,,,,,,,,,,0,0.0,2.0,b,27.0,1.0,2.742099981,1.84422311,None,141.24790960000064,None,143.0644810000005,143.0644810000005,143.0813682000018,None,[],['z'],[0.985287999999855],145.0679379000012,None,z,2.985287999999855,0,0,0.2,None,147.83102990000043,None,147.83102990000043,None,,,,,,,,,,,,,,,,,,,CBC_1002,001,1,3,0,1,0.95,2023-05-31_16h13.57.205,MSI_TV_v3,2022.1.1,60.133303507409174,
5,0,5,0,,,,,,,,,,3,2.0,3.0,b,63.0,1.0,4.309752164,2.349749758,None,149.83113670000057,None,152.1638145000008,152.1638145000008,152.1801315000004,None,[],['b'],[0.364203399998587],154.15846620000048,None,b,2.364203399998587,1,1,0.3333333333333333,None,158.46412260000034,None,158.46412260000034,None,,,,,,,,,,,,,,,,,,,CBC_1002,001,1,3,0,1,0.95,2023-05-31_16h13.57.205,MSI_TV_v3,2022.1.1,60.133303507409174,
6,0,6,0,,,,,,,,,,2,1.0,3.0,z,27.0,1.0,4.334629553,1.75396268,None,160.46507700000075,None,162.19732330000005,162.19732330000005,162.21370270000006,None,[],['z'],[0.609533899998496],164.1921695000001,None,z,2.609533899998496,1,1,0.42857142857142855,None,168.5344184000005,None,168.5344184000005,None,,,,,,,,,,,,,,,,,,,CBC_1002,001,1,3,0,1,0.95,2023-05-31_16h13.57.205,MSI_TV_v3,2022.1.1,60.133303507409174,
7,0,7,0,,,,,,,,,,0,1.0,0.0,z,63.0,1.0,1.595506577,2.232990834,None,170.54779390000112,None,172.7644183000004,172.7644183000004,172.78112470000013,None,[],['z'],[0.8013234999998531],174.7699207000005,None,z,2.801323499999853,1,1,0.5,None,176.35552730000018,None,176.35552730000018,None,,,,,,,,,,,,,,,,,,,CBC_1002,001,1,3,0,1,0.95,2023-05-31_16h13.57.205,MSI_TV_v3,2022.1.1,60.133303507409174,
8,0,8,0,,,,,,,,,,3,2.0,0.0,b,27.0,1.0,1.874984683,1.915207301,None,178.3646348000002,None,180.2639346000007,180.2639346000007,180.28058830000117,None,[],['b'],[0.9514533999990817],182.26584840000032,None,b,2.9514533999990817,1,1,0.5555555555555556,None,184.14200950000122,None,184.14200950000122,None,,,,,,,,,,,,,,,,,,,CBC_1002,001,1,3,0,1,0.95,2023-05-31_16h13.57.205,MSI_TV_v3,2022.1.1,60.133303507409174,
9,0,9,0,,,,,,,,,,2,2.0,3.0,z,63.0,1.0,4.268032915,1.53162701,None,186.14797080000062,None,187.66371980000002,187.66371980000002,187.68073320000002,None,[],['z'],[0.3939734999985376],189.6602991000018,None,z,2.3939734999985376,1,1,0.6,None,193.93265130000145,None,193.93265130000145,None,,,,,,,,,,,,,,,,,,,CBC_1002,001,1,3,0,1,0.95,2023-05-31_16h13.57.205,MSI_TV_v3,2022.1.1,60.133303507409174,
10,0,10,0,,,,,,,,,,1,1.0,0.0,b,63.0,1.0,3.869831913,2.071213329,None,195.94816270000047,None,197.99745440000078,197.99745440000078,198.0136585000011,None,[],['b'],[0.4729592000003322],199.99222830000144,None,b,2.472959200000332,1,1,0.6363636363636364,None,203.86381080000137,None,203.86381080000137,None,,,,,,,,,,,,,,,,,,,CBC_1002,001,1,3,0,1,0.95,2023-05-31_16h13.57.205,MSI_TV_v3,2022.1.1,60.133303507409174,
11,0,11,0,,,,,,,,,,0,0.0,1.0,b,63.0,1.0,1.6718976049999998,2.935368129,None,205.86432500000046,None,208.7813665000005,208.7813665000005,208.79803800000008,None,[],['b'],[0.47499040000002424],210.77875820000008,None,b,2.4749904000000242,1,1,0.6666666666666666,None,212.45553120000113,None,212.45553120000113,None,,,,,,,,,,,,,,,,,,,CBC_1002,001,1,3,0,1,0.95,2023-05-31_16h13.57.205,MSI_TV_v3,2022.1.1,60.133303507409174,
12,0,12,0,,,,,,,,,,2,2.0,3.0,z,63.0,1.0,2.67601813,2.495793893,None,214.46453530000144,None,216.9480944000017,216.9480944000017,216.96471180000043,None,[],['z'],[1.3859506999997393],218.9514635000014,None,z,3.3859506999997393,1,1,0.6923076923076923,None,221.64099380000152,None,221.64099380000152,None,,,,,,,,,,,,,,,,,,,CBC_1002,001,1,3,0,1,0.95,2023-05-31_16h13.57.205,MSI_TV_v3,2022.1.1,60.133303507409174,
13,0,13,0,,,,,,,,,,3,2.0,0.0,b,27.0,1.0,3.622505815,3.321420384,None,223.64745930000026,None,226.94803120000068,226.94803120000068,226.9646824000003,None,[],['z'],[0.9333563999989565],228.94573560000026,None,z,2.9333563999989565,0,0,0.6428571428571429,None,232.57204280000042,None,232.57204280000042,None,,,,,,,,,,,,,,,,,,,CBC_1002,001,1,3,0,1,0.95,2023-05-31_16h13.57.205,MSI_TV_v3,2022.1.1,60.133303507409174,
14,0,14,0,,,,,,,,,,0,0.0,1.0,b,63.0,1.0,1.887650177,1.086048241,None,234.58142810000027,None,235.64820380000054,235.64820380000054,235.66472560000074,None,[],['b'],[0.7070593999978882],237.65174540000044,None,b,2.7070593999978882,1,1,0.6666666666666666,None,239.5416427,None,239.5416427,None,,,,,,,,,,,,,,,,,,,CBC_1002,001,1,3,0,1,0.95,2023-05-31_16h13.57.205,MSI_TV_v3,2022.1.1,60.133303507409174,
15,0,15,0,,,,,,,,,,1,1.0,3.0,b,27.0,1.0,4.196249082,2.757001452,None,241.54709860000003,None,244.28110590000068,244.28110590000068,244.29733500000037,None,[],['b'],[0.7539303999983531],246.2763573000011,None,b,2.753930399998353,1,1,0.6875,None,250.47169610000128,None,250.47169610000128,None,,,,,,,,,,,,,,,,,,,CBC_1002,001,1,3,0,1,0.95,2023-05-31_16h13.57.205,MSI_TV_v3,2022.1.1,60.133303507409174,
16,0,16,0,,,,,,,,,,3,3.0,2.0,z,63.0,1.0,2.917714675,0.977134615,None,252.4812862000017,None,253.4319249000011,253.4319249000011,253.44832550000064,None,[],['b'],[0.6488326999988203],255.45748790000107,None,b,2.6488326999988203,0,0,0.6470588235294118,None,258.37220980000166,None,258.37220980000166,None,,,,,,,,,,,,,,,,,,,CBC_1002,001,1,3,0,1,0.95,2023-05-31_16h13.57.205,MSI_TV_v3,2022.1.1,60.133303507409174,
17,0,17,0,,,,,,,,,,2,2.0,3.0,z,63.0,0.0,2.232488062,1.24796184,None,260.3814751000009,None,261.6148713000013,261.6148713000013,261.63150350000177,None,[],['b'],[0.702633999999307],263.6175729000006,None,b,2.702633999999307,0,1,0.6111111111111112,None,265.85479250000026,None,265.85479250000026,None,,,,,,,,,,,,,,,,,,,CBC_1002,001,1,3,0,1,0.95,2023-05-31_16h13.57.205,MSI_TV_v3,2022.1.1,60.133303507409174,
18,0,18,0,,,,,,,,,,1,1.0,0.0,b,63.0,1.0,3.278108735,2.210349838,None,267.8655759000012,None,270.0476879000009,270.0476879000009,270.0639787000011,None,[],['z'],[0.9993808999988687],272.0466832000002,None,z,2.9993808999988687,0,0,0.5789473684210527,None,275.3314941000008,None,275.3314941000008,None,,,,,,,,,,,,,,,,,,,CBC_1002,001,1,3,0,1,0.95,2023-05-31_16h13.57.205,MSI_TV_v3,2022.1.1,60.133303507409174,
19,0,19,0,,,,,,,,,,0,2.0,0.0,z,27.0,1.0,1.109698721,1.142638656,None,277.3308607000017,None,278.44826480000046,278.44826480000046,278.46529050000134,None,[],None,,280.4515854000001,None,None,[],0,3,0.55,None,281.57260230000065,['b'],281.57260230000065,None,[0.0016818999993120087],,,,,,,,,,,,,,,,,,CBC_1002,001,1,3,0,1,0.95,2023-05-31_16h13.57.205,MSI_TV_v3,2022.1.1,60.133303507409174,
20,0,20,0,,,,,,,,,,2,0.0,3.0,z,9.0,1.0,3.478547126,1.293060736,None,283.5919102000007,None,284.84820730000064,284.84820730000064,284.8649971000006,None,[],['z'],[0.8750901999992493],286.85119470000063,None,z,2.8750901999992493,1,1,0.5714285714285714,None,290.3328592000016,None,290.3328592000016,None,,,,,,,,,,,,,,,,,,,CBC_1002,001,1,3,0,1,0.95,2023-05-31_16h13.57.205,MSI_TV_v3,2022.1.1,60.133303507409174,
21,0,21,0,,,,,,,,,,3,2.0,3.0,b,63.0,1.0,2.518459073,1.313600181,None,292.34823830000096,None,293.64826750000174,293.64826750000174,293.6647979000001,None,[],['b'],[0.668893099998968],295.6457865000011,None,b,2.668893099998968,1,1,0.5909090909090909,None,298.1684167000003,None,298.1684167000003,None,,,,,,,,,,,,,,,,,,,CBC_1002,001,1,3,0,1,0.95,2023-05-31_16h13.57.205,MSI_TV_v3,2022.1.1,60.133303507409174,
22,0,22,0,,,,,,,,,,1,3.0,1.0,z,27.0,1.0,2.397501916,3.264468617,None,300.1815434,None,303.43148930000024,303.43148930000024,303.44817790000087,None,[],['b'],[1.0152125999993586],305.4294836000008,None,b,3.0152125999993586,0,0,0.5652173913043478,None,307.8381698000012,None,307.8381698000012,None,,,,,,,,,,,,,,,,,,,CBC_1002,001,1,3,0,1,0.95,2023-05-31_16h13.57.205,MSI_TV_v3,2022.1.1,60.133303507409174,
23,0,23,0,,,,,,,,,,3,3.0,2.0,z,63.0,1.0,1.543156518,2.297139377,None,309.8482952000013,None,312.13185490000177,312.13185490000177,312.14869030000153,None,[],['z'],[0.656019699998069],314.13579050000044,None,z,2.656019699998069,1,1,0.5833333333333334,None,315.6819220000016,None,315.6819220000016,None,,,,,,,,,,,,,,,,,,,CBC_1002,001,1,3,0,1,0.95,2023-05-31_16h13.57.205,MSI_TV_v3,2022.1.1,60.133303507409174,
24,0,24,0,,,,,,,,,,2,2.0,3.0,z,63.0,1.0,2.242058058,0.789129603,None,317.68175770000016,None,318.4476357000014,318.4476357000014,318.4645086000011,None,[],['b'],[0.4763604999989184],320.4428334000004,None,b,2.4763604999989184,0,0,0.56,None,322.69074460000047,None,322.69074460000047,None,,,,,,,,,,,,,,,,,,,CBC_1002,001,1,3,0,1,0.95,2023-05-31_16h13.57.205,MSI_TV_v3,2022.1.1,60.133303507409174,
25,0,25,0,,,,,,,,,,1,1.0,0.0,b,63.0,1.0,1.556335756,1.483424551,None,324.69836270000087,None,326.16438840000154,326.16438840000154,326.18072520000095,None,[],['b'],[0.34670360000018263],328.15898580000066,None,b,2.3467036000001826,1,1,0.5769230769230769,None,329.71239160000005,None,329.71239160000005,None,,,,,,,,,,,,,,,,,,,CBC_1002,001,1,3,0,1,0.95,2023-05-31_16h13.57.205,MSI_TV_v3,2022.1.1,60.133303507409174,
26,0,26,0,,,,,,,,,,0,0.0,3.0,b,9.0,1.0,1.899747326,1.448890429,None,331.7153868000005,None,333.1488790000014,333.1488790000014,333.1650373000004,None,[],['b'],[0.4226241999986087],335.1504147000014,None,b,2.4226241999986087,1,1,0.5925925925925926,None,337.0571121000012,None,337.0571121000012,None,,,,,,,,,,,,,,,,,,,CBC_1002,001,1,3,0,1,0.95,2023-05-31_16h13.57.205,MSI_TV_v3,2022.1.1,60.133303507409174,
27,0,27,0,,,,,,,,,,2,2.0,3.0,z,63.0,1.0,1.219965572,1.08099246,None,339.0642209000016,None,340.11503960000044,340.11503960000044,340.13190910000156,None,[],['b'],[0.38984290000007604],342.1168351000015,None,b,2.389842900000076,0,0,0.5714285714285714,None,343.3431281000012,None,343.3431281000012,None,,,,,,,,,,,,,,,,,,,CBC_1002,001,1,3,0,1,0.95,2023-05-31_16h13.57.205,MSI_TV_v3,2022.1.1,60.133303507409174,
28,0,28,0,,,,,,,,,,3,2.0,0.0,b,27.0,1.0,2.208904638,2.108332021,None,345.3485246,None,347.4316917000007,347.4316917000007,347.44838570000064,None,[],['b'],[0.33685089999926277],349.45302320000155,None,b,2.3368508999992628,1,1,0.5862068965517241,None,351.6572524000003,None,351.6572524000003,None,,,,,,,,,,,,,,,,,,,CBC_1002,001,1,3,0,1,0.95,2023-05-31_16h13.57.205,MSI_TV_v3,2022.1.1,60.133303507409174,
29,0,29,0,,,,,,,,,,0,1.0,0.0,z,63.0,1.0,2.949122761,2.502774076,None,353.66502460000083,None,356.14869030000153,356.14869030000153,356.1654549000006,None,[],None,,358.15278990000115,None,None,[],0,3,0.5666666666666667,None,361.0901805000012,None,361.0901805000012,None,,,,,,,,,,,,,,,,,,,CBC_1002,001,1,3,0,1,0.95,2023-05-31_16h13.57.205,MSI_TV_v3,2022.1.1,60.133303507409174,
30,0,30,0,,,,,,,,,,1,1.0,0.0,b,63.0,1.0,1.90573091,2.684881281,None,363.0984059000002,None,365.7651441000009,365.7651441000009,365.7818403000012,None,[],['z'],[0.29007719999935944],367.7863866000007,None,z,2.2900771999993594,0,0,0.5483870967741935,None,369.68282890000046,None,369.68282890000046,None,,,,,,,,,,,,,,,,,,,CBC_1002,001,1,3,0,1,0.95,2023-05-31_16h13.57.205,MSI_TV_v3,2022.1.1,60.133303507409174,
31,0,31,0,,,,,,,,,,2,3.0,1.0,b,27.0,1.0,2.372527466,3.276660373,None,371.6984872000012,None,374.9472989000016,374.9472989000016,374.9644817,None,[],None,,376.94292980000137,None,None,[],0,3,0.53125,None,379.3071757000016,None,379.3071757000016,None,,,,,,,,,,,,,,,,,,,CBC_1002,001,1,3,0,1,0.95,2023-05-31_16h13.57.205,MSI_TV_v3,2022.1.1,60.133303507409174,
32,0,32,0,,,,,,,,,,3,3.0,2.0,z,63.0,1.0,1.3262934849999999,1.411911144,None,381.3150250000017,None,382.6983684000017,382.6983684000017,382.7150388000002,None,[],['z'],[0.4549342999998771],384.70085110000036,None,z,2.454934299999877,1,1,0.5454545454545454,None,386.0425808,None,386.0425808,None,,,,,,,,,,,,,,,,,,,CBC_1002,001,1,3,0,1,0.95,2023-05-31_16h13.57.205,MSI_TV_v3,2022.1.1,60.133303507409174,
33,0,33,0,,,,,,,,,,1,1.0,0.0,b,63.0,1.0,3.044827724,1.910349838,None,388.0485606000002,None,389.9318487000011,389.9318487000011,389.9486626000009,None,[],['b'],[0.30501509999885457],391.93423710000025,None,b,2.3050150999988546,1,1,0.5588235294117647,None,394.9815780000008,None,394.9815780000008,None,,,,,,,,,,,,,,,,,,,CBC_1002,001,1,3,0,1,0.95,2023-05-31_16h13.57.205,MSI_TV_v3,2022.1.1,60.133303507409174,
34,0,34,0,,,,,,,,,,0,0.0,1.0,b,63.0,1.0,2.117809983,1.378098418,None,396.98194910000166,None,398.3485506000008,398.3485506000008,398.3651290000009,None,[],['b'],[0.978024899999582],400.3515180000013,None,b,2.978024899999582,1,1,0.5714285714285714,None,402.4727533000005,None,402.4727533000005,None,,,,,,,,,,,,,,,,,,,CBC_1002,001,1,3,0,1,0.95,2023-05-31_16h13.57.205,MSI_TV_v3,2022.1.1,60.133303507409174,
35,0,35,0,,,,,,,,,,3,1.0,2.0,z,9.0,1.0,2.088920167,2.128027194,None,404.48203750000175,None,406.58186770000174,406.58186770000174,406.5985005000013,None,[],['z'],[0.2481936999993195],408.5833668000014,None,z,2.2481936999993195,1,1,0.5833333333333334,None,410.68157730000166,None,410.68157730000166,None,,,,,,,,,,,,,,,,,,,CBC_1002,001,1,3,0,1,0.95,2023-05-31_16h13.57.205,MSI_TV_v3,2022.1.1,60.133303507409174,
36,0,36,0,,,,,,,,,,0,1.0,0.0,z,63.0,1.0,3.956662465,2.407383959,None,412.6815241000004,None,415.0661002000008,415.0661002000008,415.08194180000027,None,[],['z'],[0.5897088000001531],417.0694912000017,None,z,2.589708800000153,1,1,0.5945945945945946,None,421.0142844000002,None,421.0142844000002,None,,,,,,,,,,,,,,,,,,,CBC_1002,001,1,3,0,1,0.95,2023-05-31_16h13.57.205,MSI_TV_v3,2022.1.1,60.133303507409174,
37,0,37,0,,,,,,,,,,2,3.0,1.0,b,27.0,1.0,2.278602942,1.554037824,None,423.01529800000026,None,424.54867120000125,424.54867120000125,424.5653801,None,[],['b'],[0.3616167999989557],426.5532114000016,None,b,2.3616167999989557,1,1,0.6052631578947368,None,428.8292704000014,None,428.8292704000014,None,,,,,,,,,,,,,,,,,,,CBC_1002,001,1,3,0,1,0.95,2023-05-31_16h13.57.205,MSI_TV_v3,2022.1.1,60.133303507409174,
38,0,38,0,,,,,,,,,,1,0.0,1.0,z,63.0,1.0,3.589438522,3.274187802,None,430.83217050000167,None,434.0827564000003,434.0827564000003,434.09860770000085,None,[],['z'],[0.5212001999989297],436.08422840000094,None,z,2.5212001999989297,1,1,0.6153846153846154,None,439.6791777000017,None,439.6791777000017,None,,,,,,,,,,,,,,,,,,,CBC_1002,001,1,3,0,1,0.95,2023-05-31_16h13.57.205,MSI_TV_v3,2022.1.1,60.133303507409174,
39,0,39,0,,,,,,,,,,3,2.0,3.0,b,63.0,0.0,2.078483356,1.732943574,None,441.6818893000018,None,443.3988314000009,443.3988314000009,443.41542340000086,None,[],['b'],[0.73736899999858],445.4015648000004,None,b,2.73736899999858,1,0,0.625,None,447.5006127000015,None,447.5006127000015,None,,,,,,,,,,,,,,,,,,,CBC_1002,001,1,3,0,1,0.95,2023-05-31_16h13.57.205,MSI_TV_v3,2022.1.1,60.133303507409174,
40,0,40,0,,,,,,,,,,0,2.0,0.0,z,27.0,1.0,3.884449499,2.962224669,None,449.5153988000002,None,452.44877840000044,452.44877840000044,452.46544830000056,None,[],['z'],[0.3529627999996592],454.4526741000009,None,z,2.352962799999659,1,1,0.6341463414634146,None,458.33737480000127,None,458.33737480000127,None,,,,,,,,,,,,,,,,,,,CBC_1002,001,1,3,0,1,0.95,2023-05-31_16h13.57.205,MSI_TV_v3,2022.1.1,60.133303507409174,
41,0,41,0,,,,,,,,,,2,3.0,2.0,b,63.0,1.0,4.176609572,2.234398566,None,460.3488204000005,None,462.56544460000003,462.56544460000003,462.5821024000008,None,[],['b'],[3.347194199999649],464.5677833000009,None,b,5.347194199999649,1,1,0.6428571428571429,None,468.74975600000107,None,468.74975600000107,None,,,,,,,,,,,,,,,,,,,CBC_1002,001,1,3,0,1,0.95,2023-05-31_16h13.57.205,MSI_TV_v3,2022.1.1,60.133303507409174,
42,0,42,0,,,,,,,,,,1,3.0,1.0,z,27.0,1.0,1.758742576,0.971483559,None,470.7486405000018,None,471.69877560000094,471.69877560000094,471.7153037000018,None,[],['z'],[0.3703892999983509],473.7008429000016,None,z,2.370389299998351,1,1,0.6511627906976745,None,475.4719948000002,None,475.4719948000002,None,,,,,,,,,,,,,,,,,,,CBC_1002,001,1,3,0,1,0.95,2023-05-31_16h13.57.205,MSI_TV_v3,2022.1.1,60.133303507409174,
43,0,43,0,,,,,,,,,,3,2.0,3.0,b,63.0,1.0,3.501824497,1.883772966,None,477.48244800000066,None,479.34886210000076,479.34886210000076,479.36564650000145,None,[],['z'],[0.29477289999886125],481.3537644000007,None,z,2.2947728999988612,0,0,0.6363636363636364,None,484.8461408000003,None,484.8461408000003,None,,,,,,,,,,,,,,,,,,,CBC_1002,001,1,3,0,1,0.95,2023-05-31_16h13.57.205,MSI_TV_v3,2022.1.1,60.133303507409174,
,,,,,,,,,,,,,,,,,,,,,,,,,,,,,,,,,,,,,,,,,,,,None,486.84891590000007,None,,,,,,,,,,,,,,,CBC_1002,001,1,3,0,1,0.95,2023-05-31_16h13.57.205,MSI_TV_v3,2022.1.1,60.133303507409174,
,,,,,,,,,,,,,,,,,,,,,,,,,,,,,,,,,,,,,,,,,,,,,,,491.8323623000015,None,None,491.8323623000015,496.81572720000077,,,,,,,,,,CBC_1002,001,1,3,0,1,0.95,2023-05-31_16h13.57.205,MSI_TV_v3,2022.1.1,60.133303507409174,
,,,,,,,,,,,,,,,,,,,,,,,,,,,,,,,,,,,,,,,,,,,,,,,,,,,,z,b,hard,"[0, 1, 2, 3]","[0, 1, 3, 2]",0.6363636363636364,0.5454545454545454,0.45454545454545453,0.9090909090909091,,,,,,,,,,,,
