trials_runs.thisRepN,trials_runs.thisTrialN,trials_runs.thisN,trials_runs.thisIndex,standbild_start.started,standbild_start.stopped,trigger.keys,trigger.rt,trigger.started,trigger.stopped,keys_2.keys,keys_2.started,keys_2.stopped,trials_runs.tactile_stim,trials_runs.visual_stim_left,trials_runs.visual_stim_right,trials_runs.correctKey,trials_runs.presentationFrequncy,trials_runs.FBaccuracy,trials_runs.ISI_s,trials_runs.ITI_s,keys_3.keys,keys_3.started,keys_3.stopped,image_stim_left.started,image_stim_right.started,tactile.started,response_4.keys,allKeys.keys,response_4.rt,allKeys.rt,response_5.keys,response_5.started,response_5.stopped,response_runs.keys,response_runs.rt,trials_runs.correct_answer,trials_runs.feedback_given,trials_runs.running_mean,feedback_6.stopped,feedback_6.started,keys_6.keys,keys_6.started,keys_6.stopped,response_5.rt,keys_6.rt,keys_7.keys,keys_7.started,keys_7.stopped,standbild_end.started,standbild_end.stopped,Stop_exp.keys,Stop_exp.started,Stop_exp.stopped,trials_runs.rightKey,trials_runs.leftKey,ts_difficulty,visualPair,tactilePair,trials_runs.mean_acc_1stFourth,trials_runs.mean_acc_2ndFourth,trials_runs.mean_acc_3rdFourth,trials_runs.mean_acc_4thFourth,participant,session,visual set [1-6],tactile set [1-3],trial structure [0-3 / 4-7],pairing [0-23],prob Feedback,date,expName,psychopyVersion,frameRate,
,,,,26.300386799999615,None,t,73.8484533000028,26.300386799999615,None,,,,,,,,,,,,,,,,,,,,,,,,,,,,,,,,,,,,,,,,,,,,,,,,,,,,,,CBC_1006,4,5,1,5,8,0.95,2023-06-03_13h42.16.778,MSI_TV_v3,2022.1.1,59.98983772180339,
,,,,,,,,,,None,100.17803779999849,None,,,,,,,,,,,,,,,,,,,,,,,,,,,,,,,,,,,,,,,,,,,,,,,,,,,CBC_1006,4,5,1,5,8,0.95,2023-06-03_13h42.16.778,MSI_TV_v3,2022.1.1,59.98983772180339,
0,0,0,0,,,,,,,,,,2,3,1,z,27,1,1.90573091,1.732943574,None,100.3781827999992,None,102.09473472999943,102.09473472999943,102.1113714299996,b,['b'],1.4975114000008034,[1.4975114000008034],None,104.14030349999848,None,b,1.4975114000008034,0,0,0.0,None,106.080380899999,None,106.080380899999,None,,,,,,,,,,,,,,,,,,,,CBC_1006,4,5,1,5,8,0.95,2023-06-03_13h42.16.778,MSI_TV_v3,2022.1.1,59.98983772180339,
1,0,1,0,,,,,,,,,,0,2,3,b,63,1,2.917714675,1.75396268,None,108.06144809999932,None,109.7946365299982,109.7946365299982,109.81122552999895,None,[],,,['b'],111.79698569999891,None,b,3.30253360000097,1,1,0.5,None,114.70925649999845,None,114.70925649999845,None,[1.3025336000009702],,,,,,,,,,,,,,,,,,,CBC_1006,4,5,1,5,8,0.95,2023-06-03_13h42.16.778,MSI_TV_v3,2022.1.1,59.98983772180339,
2,0,2,0,,,,,,,,,,3,2,3,z,63,1,3.478547126,2.234398566,None,116.71129849999852,None,118.92807172999946,118.92807172999946,118.9447011299986,z,['z'],1.855338200000915,[1.855338200000915],None,120.9889250999986,None,z,1.855338200000915,1,1,0.6666666666666666,None,124.47388890000002,None,124.47388890000002,None,,,,,,,,,,,,,,,,,,,,CBC_1006,4,5,1,5,8,0.95,2023-06-03_13h42.16.778,MSI_TV_v3,2022.1.1,59.98983772180339,
3,0,3,0,,,,,,,,,,2,1,0,b,63,1,2.397501916,1.313600181,None,126.47807869999997,None,127.77803652999918,127.77803652999918,127.79448252999882,None,[],,,['b'],129.78053309999996,None,b,2.9681710000022576,1,1,0.75,None,132.16715419999855,None,132.16715419999855,None,[0.9681710000022576],,,,,,,,,,,,,,,,,,,CBC_1006,4,5,1,5,8,0.95,2023-06-03_13h42.16.778,MSI_TV_v3,2022.1.1,59.98983772180339,
4,0,4,0,,,,,,,,,,1,3,0,z,9,1,1.887650177,2.495793893,None,134.17818469999838,None,136.66123442999978,136.66123442999978,136.67790542999919,None,[],,,['z'],138.66427179999846,None,z,3.0755084000011266,1,1,0.8,None,140.55167339999934,None,140.55167339999934,None,[1.0755084000011266],,,,,,,,,,,,,,,,,,,CBC_1006,4,5,1,5,8,0.95,2023-06-03_13h42.16.778,MSI_TV_v3,2022.1.1,59.98983772180339,
5,0,5,0,,,,,,,,,,3,2,3,z,63,1,1.874984683,1.378098418,None,142.56130869999834,None,143.91175332999828,143.91175332999828,143.92796062999932,None,[],,,['b'],145.9145830999987,None,b,3.022801500001151,0,0,0.6666666666666666,None,147.78991779999888,None,147.78991779999888,None,[1.022801500001151],,,,,,,,,,,,,,,,,,,CBC_1006,4,5,1,5,8,0.95,2023-06-03_13h42.16.778,MSI_TV_v3,2022.1.1,59.98983772180339,
6,0,6,0,,,,,,,,,,0,2,0,b,27,1,2.742099981,1.08099246,None,149.79472739999983,None,150.86127532999907,150.86127532999907,150.87797092999844,None,[],,,['b'],152.8632751999994,None,b,2.7466744000012113,1,1,0.7142857142857143,None,155.5919998999998,None,155.5919998999998,None,[0.7466744000012113],,,,,,,,,,,,,,,,,,,CBC_1006,4,5,1,5,8,0.95,2023-06-03_13h42.16.778,MSI_TV_v3,2022.1.1,59.98983772180339,
7,0,7,0,,,,,,,,,,1,1,0,z,63,1,1.3262934849999999,1.554037824,None,157.5948099999987,None,159.12821842999855,159.12821842999855,159.14484802999922,None,[],,,['b'],161.13044639999862,None,b,3.060012000001734,0,0,0.625,None,162.4541296999996,None,162.4541296999996,None,[1.0600120000017341],,,,,,,,,,,,,,,,,,,CBC_1006,4,5,1,5,8,0.95,2023-06-03_13h42.16.778,MSI_TV_v3,2022.1.1,59.98983772180339,
8,0,8,0,,,,,,,,,,2,0,1,z,63,1,2.949122761,1.883772966,None,164.46187549999922,None,166.32839402999943,166.32839402999943,166.34523902999953,None,[],,,['z'],168.33246149999832,None,z,3.0209842000003846,1,1,0.6666666666666666,None,171.27068299999883,None,171.27068299999883,None,[1.0209842000003846],,,,,,,,,,,,,,,,,,,CBC_1006,4,5,1,5,8,0.95,2023-06-03_13h42.16.778,MSI_TV_v3,2022.1.1,59.98983772180339,
9,0,9,0,,,,,,,,,,3,3,1,b,27,1,1.6718976049999998,1.411911144,None,173.2783750999988,None,174.66136932999925,174.66136932999925,174.67815622999896,None,[],,,['b'],176.66508019999856,None,b,2.7656707000005554,1,1,0.7,None,178.33665559999827,None,178.33665559999827,None,[0.7656707000005554],,,,,,,,,,,,,,,,,,,CBC_1006,4,5,1,5,8,0.95,2023-06-03_13h42.16.778,MSI_TV_v3,2022.1.1,59.98983772180339,
10,0,10,0,,,,,,,,,,0,2,3,b,63,1,2.078483356,2.648704933,None,180.3451083,None,182.97815192999823,182.97815192999823,182.9947946299986,None,[],,,['b'],184.98141679999935,None,b,3.8693676000020787,1,1,0.7272727272727273,None,187.0458598999994,None,187.0458598999994,None,[1.8693676000020787],,,,,,,,,,,,,,,,,,,CBC_1006,4,5,1,5,8,0.95,2023-06-03_13h42.16.778,MSI_TV_v3,2022.1.1,59.98983772180339,
11,0,11,0,,,,,,,,,,2,0,1,z,63,1,2.242058058,2.297139377,None,189.06161669999892,None,191.34507292999896,191.34507292999896,191.36193862999843,None,[],,,['b'],193.34718959999918,None,b,2.851414000000659,0,0,0.6666666666666666,None,195.5863276,None,195.5863276,None,[0.8514140000006591],,,,,,,,,,,,,,,,,,,CBC_1006,4,5,1,5,8,0.95,2023-06-03_13h42.16.778,MSI_TV_v3,2022.1.1,59.98983772180339,
12,0,12,0,,,,,,,,,,1,1,0,z,63,1,1.109698721,2.757001452,None,197.5951086999994,None,200.32874772999875,200.32874772999875,200.34485792999894,None,[],,,None,202.33212549999917,None,None,[],0,3,0.6153846153846154,None,203.43691219999891,None,203.43691219999891,None,,,,,,,,,,,,,,,,,,,,CBC_1006,4,5,1,5,8,0.95,2023-06-03_13h42.16.778,MSI_TV_v3,2022.1.1,59.98983772180339,
13,0,13,0,,,,,,,,,,0,2,1,b,9,1,2.518459073,1.84422311,None,205.4450498999995,None,207.2616777299996,207.2616777299996,207.27841242999838,b,['b'],1.8419380000013916,[1.8419380000013916],None,209.30355599999893,None,b,1.8419380000013916,1,1,0.6428571428571429,None,211.82216909999988,None,211.82216909999988,None,,,,,,,,,,,,,,,,,,,,CBC_1006,4,5,1,5,8,0.95,2023-06-03_13h42.16.778,MSI_TV_v3,2022.1.1,59.98983772180339,
14,0,14,0,,,,,,,,,,1,0,1,b,63,1,2.0845750460000003,1.483424551,None,213.82821589999912,None,215.29522692999907,215.29522692999907,215.31182202999898,None,[],,,['z'],217.29895549999856,None,z,2.633490800002619,0,0,0.6,None,219.37645339999835,None,219.37645339999835,None,[0.6334908000026189],,,,,,,,,,,,,,,,,,,CBC_1006,4,5,1,5,8,0.95,2023-06-03_13h42.16.778,MSI_TV_v3,2022.1.1,59.98983772180339,
15,0,15,0,,,,,,,,,,3,1,3,z,27,1,3.589438522,2.349749758,None,221.37881949999974,None,223.71162252999838,223.71162252999838,223.7289232299996,None,[],,,['z'],225.71546469999885,None,z,2.3085829000010563,1,1,0.625,None,229.2933581999987,None,229.2933581999987,None,[0.30858290000105626],,,,,,,,,,,,,,,,,,,CBC_1006,4,5,1,5,8,0.95,2023-06-03_13h42.16.778,MSI_TV_v3,2022.1.1,59.98983772180339,
16,0,16,0,,,,,,,,,,2,1,0,b,63,1,2.278602942,2.962224669,None,231.29565159999947,None,234.2451247299983,234.2451247299983,234.26186512999865,None,[],,,['b'],236.24855509999907,None,b,2.557181900001524,1,1,0.6470588235294118,None,238.52491379999992,None,238.52491379999992,None,[0.5571819000015239],,,,,,,,,,,,,,,,,,,CBC_1006,4,5,1,5,8,0.95,2023-06-03_13h42.16.778,MSI_TV_v3,2022.1.1,59.98983772180339,
17,0,17,0,,,,,,,,,,0,3,2,z,63,0,1.758742576,2.128027194,None,240.52820489999976,None,242.6284409299993,242.6284409299993,242.6449371299992,None,[],,,['z'],244.63138199999958,None,z,2.48217410000143,1,0,0.6666666666666666,None,246.39266869999847,None,246.39266869999847,None,[0.4821741000014299],,,,,,,,,,,,,,,,,,,CBC_1006,4,5,1,5,8,0.95,2023-06-03_13h42.16.778,MSI_TV_v3,2022.1.1,59.98983772180339,
18,0,18,0,,,,,,,,,,1,0,2,b,27,1,3.622505815,2.108332021,None,248.3954724999985,None,250.47867062999885,250.47867062999885,250.4954383299997,None,[],,,['b'],252.48251719999826,None,b,2.8402003000010154,1,1,0.6842105263157895,None,256.0985570999983,None,256.0985570999983,None,[0.8402003000010154],,,,,,,,,,,,,,,,,,,CBC_1006,4,5,1,5,8,0.95,2023-06-03_13h42.16.778,MSI_TV_v3,2022.1.1,59.98983772180339,
19,0,19,0,,,,,,,,,,3,2,3,z,63,1,3.501824497,2.684881281,None,258.1118030999987,None,260.7783903299993,260.7783903299993,260.7955975299998,None,[],,,['b'],262.7818480999995,None,b,3.7571537000021635,0,0,0.65,None,266.27407779999885,None,266.27407779999885,None,[1.7571537000021635],,,,,,,,,,,,,,,,,,,CBC_1006,4,5,1,5,8,0.95,2023-06-03_13h42.16.778,MSI_TV_v3,2022.1.1,59.98983772180339,
20,0,20,0,,,,,,,,,,2,1,3,b,27,1,2.372527466,1.53162701,None,268.27865179999935,None,269.79582492999964,269.79582492999964,269.8119532299994,None,[],,,['b'],271.7998932999999,None,b,2.457865500002299,1,1,0.6666666666666666,None,274.1614428999983,None,274.1614428999983,None,[0.4578655000022991],,,,,,,,,,,,,,,,,,,CBC_1006,4,5,1,5,8,0.95,2023-06-03_13h42.16.778,MSI_TV_v3,2022.1.1,59.98983772180339,
21,0,21,0,,,,,,,,,,0,2,3,b,63,1,3.956662465,1.910349838,None,276.1622202999988,None,278.0452254299986,278.0452254299986,278.0620166299983,z,['z'],1.9302837000013824,[1.9302837000013824],None,280.0865488999989,None,z,1.9302837000013824,0,0,0.6363636363636364,None,284.0554553999991,None,284.0554553999991,None,,,,,,,,,,,,,,,,,,,,CBC_1006,4,5,1,5,8,0.95,2023-06-03_13h42.16.778,MSI_TV_v3,2022.1.1,59.98983772180339,
22,0,22,0,,,,,,,,,,1,1,0,z,63,1,2.088920167,2.232990834,None,286.06200009999884,None,288.27863452999975,288.27863452999975,288.2952314299988,None,[],,,None,290.2821279999989,None,None,[],0,3,0.6086956521739131,None,292.3702967999998,['z'],292.3702967999998,None,,[0.8543534000000363],,,,,,,,,,,,,,,,,,CBC_1006,4,5,1,5,8,0.95,2023-06-03_13h42.16.778,MSI_TV_v3,2022.1.1,59.98983772180339,
23,0,23,0,,,,,,,,,,2,1,2,b,9,1,1.556335756,0.971483559,None,294.3787513999996,None,295.32855082999833,295.32855082999833,295.34557922999977,None,[],,,['b'],297.33305609999843,None,b,2.2797313000010035,1,1,0.625,None,298.88897259999976,None,298.88897259999976,None,[0.27973130000100355],,,,,,,,,,,,,,,,,,,CBC_1006,4,5,1,5,8,0.95,2023-06-03_13h42.16.778,MSI_TV_v3,2022.1.1,59.98983772180339,
24,0,24,0,,,,,,,,,,0,3,2,z,63,1,4.268032915,2.502774076,None,300.8954555,None,303.3788554299996,303.3788554299996,303.39528932999985,None,[],,,['b'],305.38018679999914,None,b,2.6819976000024326,0,0,0.6,None,309.63606139999865,None,309.63606139999865,None,[0.6819976000024326],,,,,,,,,,,,,,,,,,,CBC_1006,4,5,1,5,8,0.95,2023-06-03_13h42.16.778,MSI_TV_v3,2022.1.1,59.98983772180339,
25,0,25,0,,,,,,,,,,3,3,2,b,63,1,1.610581685,1.448890429,None,311.6456466999989,None,313.0787242299999,313.0787242299999,313.0957269299985,None,[],,,['z'],315.0822176999991,None,z,2.5103471000002173,0,0,0.5769230769230769,None,316.6960264999998,None,316.6960264999998,None,[0.5103471000002173],,,,,,,,,,,,,,,,,,,CBC_1006,4,5,1,5,8,0.95,2023-06-03_13h42.16.778,MSI_TV_v3,2022.1.1,59.98983772180339,
26,0,26,0,,,,,,,,,,2,1,0,b,63,1,3.278108735,1.142638656,None,318.6960354999992,None,319.81207072999916,319.81207072999916,319.8288352299993,None,[],,,['z'],321.8362195999998,None,z,2.712027699999453,0,0,0.5555555555555556,None,325.1298571999996,None,325.1298571999996,None,[0.712027699999453],,,,,,,,,,,,,,,,,,,CBC_1006,4,5,1,5,8,0.95,2023-06-03_13h42.16.778,MSI_TV_v3,2022.1.1,59.98983772180339,
27,0,27,0,,,,,,,,,,1,2,0,z,27,1,2.67601813,0.977134615,None,327.1454232999986,None,328.0954419299984,328.0954419299984,328.11241052999924,None,[],,,['b'],330.1003176999984,None,b,3.0721651000003476,0,0,0.5357142857142857,None,332.77242399999886,None,332.77242399999886,None,[1.0721651000003476],,,,,,,,,,,,,,,,,,,CBC_1006,4,5,1,5,8,0.95,2023-06-03_13h42.16.778,MSI_TV_v3,2022.1.1,59.98983772180339,
28,0,28,0,,,,,,,,,,3,3,1,b,27,1,2.208904638,2.7801224,None,334.7784557999985,None,337.5458669299993,337.5458669299993,337.5627181299993,None,[],,,['b'],339.54979339999954,None,b,2.5765898000008747,1,1,0.5517241379310345,None,341.75862459999917,None,341.75862459999917,None,[0.5765898000008747],,,,,,,,,,,,,,,,,,,CBC_1006,4,5,1,5,8,0.95,2023-06-03_13h42.16.778,MSI_TV_v3,2022.1.1,59.98983772180339,
29,0,29,0,,,,,,,,,,1,0,1,b,63,1,1.595506577,1.915207301,None,343.7623924999989,None,345.66256122999823,345.66256122999823,345.6792708299987,None,[],,,['z'],347.6636845999983,None,z,2.5747119000006933,0,0,0.5333333333333333,None,349.2448945999986,None,349.2448945999986,None,[0.5747119000006933],,,,,,,,,,,,,,,,,,,CBC_1006,4,5,1,5,8,0.95,2023-06-03_13h42.16.778,MSI_TV_v3,2022.1.1,59.98983772180339,
30,0,30,0,,,,,,,,,,0,0,2,z,27,1,1.899747326,3.264468617,None,351.24557989999994,None,354.4957003299993,354.4957003299993,354.51245792999964,None,[],,,['z'],356.4966723999987,None,z,2.9581450000005134,1,1,0.5483870967741935,None,358.38725539999905,None,358.38725539999905,None,[0.9581450000005134],,,,,,,,,,,,,,,,,,,CBC_1006,4,5,1,5,8,0.95,2023-06-03_13h42.16.778,MSI_TV_v3,2022.1.1,59.98983772180339,
31,0,31,0,,,,,,,,,,3,3,2,b,63,1,4.196249082,3.274187802,None,360.3958684999998,None,363.645697229999,363.645697229999,363.6624221299995,None,[],,,['b'],365.6506456999996,None,b,3.236824700001307,1,1,0.5625,None,369.8485050999989,None,369.8485050999989,None,[1.236824700001307],,,,,,,,,,,,,,,,,,,CBC_1006,4,5,1,5,8,0.95,2023-06-03_13h42.16.778,MSI_TV_v3,2022.1.1,59.98983772180339,
32,0,32,0,,,,,,,,,,2,0,1,z,63,1,3.869831913,2.935368129,None,371.8624399,None,374.77942142999984,374.77942142999984,374.7959317299998,None,[],,,['z'],376.7831738999994,None,z,2.2572218000022986,1,1,0.5757575757575758,None,380.65224149999995,None,380.65224149999995,None,[0.25722180000229855],,,,,,,,,,,,,,,,,,,CBC_1006,4,5,1,5,8,0.95,2023-06-03_13h42.16.778,MSI_TV_v3,2022.1.1,59.98983772180339,
33,0,33,0,,,,,,,,,,1,1,0,z,63,1,4.334629553,2.071213329,None,382.6626738999985,None,384.712432429999,384.712432429999,384.72902962999854,None,[],,,['b'],386.71112679999896,None,b,2.89667449999979,0,0,0.5588235294117647,None,391.0436359999985,None,391.0436359999985,None,[0.89667449999979],,,,,,,,,,,,,,,,,,,CBC_1006,4,5,1,5,8,0.95,2023-06-03_13h42.16.778,MSI_TV_v3,2022.1.1,59.98983772180339,
34,0,34,0,,,,,,,,,,3,3,2,b,63,0,2.232488062,2.573610938,None,393.0457631999998,None,395.5957421299996,395.5957421299996,395.61235892999923,None,[],,,['b'],397.59936129999915,None,b,2.3105211000020063,1,0,0.5714285714285714,None,399.8239117999983,None,399.8239117999983,None,[0.3105211000020063],,,,,,,,,,,,,,,,,,,CBC_1006,4,5,1,5,8,0.95,2023-06-03_13h42.16.778,MSI_TV_v3,2022.1.1,59.98983772180339,
35,0,35,0,,,,,,,,,,0,0,2,z,27,1,2.818459073,3.276660373,None,401.8293717999986,None,405.07885422999846,405.07885422999846,405.09517962999837,None,[],,,['b'],407.07811760000004,None,b,2.5766966999999568,0,0,0.5555555555555556,None,409.90704899999946,None,409.90704899999946,None,[0.5766966999999568],,,,,,,,,,,,,,,,,,,CBC_1006,4,5,1,5,8,0.95,2023-06-03_13h42.16.778,MSI_TV_v3,2022.1.1,59.98983772180339,
36,0,36,0,,,,,,,,,,1,1,0,z,63,1,4.176609572,2.407383959,None,411.91213759999846,None,414.29600642999924,414.29600642999924,414.31275453,None,[],,,['b'],416.30165009999837,None,b,2.4607320000013715,0,0,0.5405405405405406,None,420.4717628999988,None,420.4717628999988,None,[0.4607320000013715],,,,,,,,,,,,,,,,,,,CBC_1006,4,5,1,5,8,0.95,2023-06-03_13h42.16.778,MSI_TV_v3,2022.1.1,59.98983772180339,
37,0,37,0,,,,,,,,,,2,3,1,z,27,1,4.309752164,1.293060736,None,422.4795706999994,None,423.7461826299992,423.7461826299992,423.76289612999847,None,[],,,['z'],425.76817369999844,None,z,2.313002700002471,1,1,0.5526315789473685,None,430.07435970000006,None,430.07435970000006,None,[0.3130027000024711],,,,,,,,,,,,,,,,,,,CBC_1006,4,5,1,5,8,0.95,2023-06-03_13h42.16.778,MSI_TV_v3,2022.1.1,59.98983772180339,
38,0,38,0,,,,,,,,,,0,2,3,b,63,1,1.219965572,1.086048241,None,432.0792042999983,None,433.14557472999934,433.14557472999934,433.1614794299991,None,[],,,['b'],435.13848489999873,None,b,2.0394941000013205,1,1,0.5641025641025641,None,436.36137939999935,None,436.36137939999935,None,[0.039494100001320476],,,,,,,,,,,,,,,,,,,CBC_1006,4,5,1,5,8,0.95,2023-06-03_13h42.16.778,MSI_TV_v3,2022.1.1,59.98983772180339,
39,0,39,0,,,,,,,,,,3,2,3,z,63,1,3.884449499,3.321420384,None,438.3625792999992,None,441.66285522999954,441.66285522999954,441.6796074299988,None,[],,,['z'],443.66589380000005,None,z,2.563993300002039,1,1,0.575,None,447.551877599999,None,447.551877599999,None,[0.5639933000020392],,,,,,,,,,,,,,,,,,,CBC_1006,4,5,1,5,8,0.95,2023-06-03_13h42.16.778,MSI_TV_v3,2022.1.1,59.98983772180339,
40,0,40,0,,,,,,,,,,2,1,0,b,63,1,4.21669271,0.789129603,None,449.56275319999986,None,450.32922132999977,450.32922132999977,450.3458208299986,None,[],,,['b'],452.34973229999923,None,b,2.3253592000000936,1,1,0.5853658536585366,None,456.53296520000004,None,456.53296520000004,None,[0.32535920000009355],,,,,,,,,,,,,,,,,,,CBC_1006,4,5,1,5,8,0.95,2023-06-03_13h42.16.778,MSI_TV_v3,2022.1.1,59.98983772180339,
41,0,41,0,,,,,,,,,,1,0,2,b,27,1,2.117809983,1.24796184,None,458.5457031999995,None,459.76284432999876,459.76284432999876,459.7794333299995,None,[],,,['z'],461.76530789999924,None,z,2.8683450000007724,0,0,0.5714285714285714,None,463.87847859999965,None,463.87847859999965,None,[0.8683450000007724],,,,,,,,,,,,,,,,,,,CBC_1006,4,5,1,5,8,0.95,2023-06-03_13h42.16.778,MSI_TV_v3,2022.1.1,59.98983772180339,
42,0,42,0,,,,,,,,,,3,0,3,z,9,1,3.044827724,2.210349838,None,465.87964549999924,None,468.0622684299984,468.0622684299984,468.0792537299991,None,[],,,['b'],470.0660868999985,None,b,2.449635400000261,0,0,0.5581395348837209,None,473.09589949999827,None,473.09589949999827,None,[0.44963540000026114],,,,,,,,,,,,,,,,,,,CBC_1006,4,5,1,5,8,0.95,2023-06-03_13h42.16.778,MSI_TV_v3,2022.1.1,59.98983772180339,
43,0,43,0,,,,,,,,,,0,2,3,b,63,1,1.543156518,3.388090306,None,475.09617529999923,None,478.46286292999923,478.46286292999923,478.4798041299988,None,[],,,['b'],480.46650319999935,None,b,2.3350162000006094,1,1,0.5681818181818182,None,482.00443619999896,None,482.00443619999896,None,[0.3350162000006094],,,,,,,,,,,,,,,,,,,CBC_1006,4,5,1,5,8,0.95,2023-06-03_13h42.16.778,MSI_TV_v3,2022.1.1,59.98983772180339,
,,,,,,,,,,,,,,,,,,,,,,,,,,,,,,,,,,,,,,,,,,,,,,None,484.01195349999944,None,,,,,,,,,,,,,,,CBC_1006,4,5,1,5,8,0.95,2023-06-03_13h42.16.778,MSI_TV_v3,2022.1.1,59.98983772180339,
,,,,,,,,,,,,,,,,,,,,,,,,,,,,,,,,,,,,,,,,,,,,,,,,,488.9796505999984,None,None,488.9796505999984,493.9631240999988,,,,,,,,,,CBC_1006,4,5,1,5,8,0.95,2023-06-03_13h42.16.778,MSI_TV_v3,2022.1.1,59.98983772180339,
,,,,,,,,,,,,,,,,,,,,,,,,,,,,,,,,,,,,,,,,,,,,,,,,,,,,,,z,b,hard,"[0, 1, 2, 3]","[1, 2, 0, 3]",0.7272727272727273,0.5454545454545454,0.45454545454545453,0.5454545454545454,,,,,,,,,,,,
