trials_runs.thisRepN,trials_runs.thisTrialN,trials_runs.thisN,trials_runs.thisIndex,standbild_start.started,standbild_start.stopped,trigger.keys,trigger.rt,trigger.started,trigger.stopped,keys_2.keys,keys_2.started,keys_2.stopped,trials_runs.tactile_stim,trials_runs.visual_stim_left,trials_runs.visual_stim_right,trials_runs.correctKey,trials_runs.presentationFrequncy,trials_runs.FBaccuracy,trials_runs.ISI_s,trials_runs.ITI_s,keys_3.keys,keys_3.started,keys_3.stopped,image_stim_left.started,image_stim_right.started,tactile.started,response_4.keys,allKeys.keys,response_5.keys,response_5.rt,response_5.started,response_5.stopped,response_runs.keys,response_runs.rt,trials_runs.correct_answer,trials_runs.feedback_given,trials_runs.running_mean,feedback_6.stopped,feedback_6.started,keys_6.keys,keys_6.started,keys_6.stopped,response_4.rt,allKeys.rt,keys_7.keys,keys_7.started,keys_7.stopped,standbild_end.started,standbild_end.stopped,Stop_exp.keys,Stop_exp.started,Stop_exp.stopped,trials_runs.rightKey,trials_runs.leftKey,ts_difficulty,visualPair,tactilePair,trials_runs.mean_acc_1stFourth,trials_runs.mean_acc_2ndFourth,trials_runs.mean_acc_3rdFourth,trials_runs.mean_acc_4thFourth,participant,session,visual set [1-6],tactile set [1-3],trial structure [0-3 / 4-7],pairing [0-23],prob Feedback,date,expName,psychopyVersion,frameRate,
,,,,30.069870099999207,None,t,55.2703019999999,30.069870099999207,None,,,,,,,,,,,,,,,,,,,,,,,,,,,,,,,,,,,,,,,,,,,,,,,,,,,,,CBC_1013,6,6,2,6,16,0.8,2023-06-25_11h49.37.760,MSI_TV_v3,2022.1.1,59.99552433396283,
,,,,,,,,,,None,85.36396100000002,None,,,,,,,,,,,,,,,,,,,,,,,,,,,,,,,,,,,,,,,,,,,,,,,,,,CBC_1013,6,6,2,6,16,0.8,2023-06-25_11h49.37.760,MSI_TV_v3,2022.1.1,59.99552433396283,
0,0,0,0,,,,,,,,,,2,1,0,z,63,1,2.342239579230602,2.49839527409216,None,85.57865919999949,None,88.06225198000001,88.06225198000001,88.07892137999997,None,[],['z'],[0.6162411000004795],90.06480649999958,None,z,2.6162411000004795,1,1,1.0,None,92.43020389999947,None,92.43020389999947,None,,,,,,,,,,,,,,,,,,,,CBC_1013,6,6,2,6,16,0.8,2023-06-25_11h49.37.760,MSI_TV_v3,2022.1.1,59.99552433396283,
1,0,1,0,,,,,,,,,,1,3,2,b,63,1,4.46924002178158,0.979776149765883,None,94.22878949999995,None,95.19555597999997,95.19555597999997,95.21215227999991,None,[],['b'],[0.9437275999998747],97.21802479999951,None,b,2.9437275999998747,1,1,1.0,None,101.67793579999943,None,101.67793579999943,None,,,,,,,,,,,,,,,,,,,,CBC_1013,6,6,2,6,16,0.8,2023-06-25_11h49.37.760,MSI_TV_v3,2022.1.1,59.99552433396283,
2,0,2,0,,,,,,,,,,0,2,0,b,27,1,2.7134565917469198,1.96568735158996,None,103.47849769999993,None,105.42882677999941,105.42882677999941,105.44565457999951,None,[],['z'],[0.5116586000003736],107.43278529999952,None,z,2.5116586000003736,0,0,0.6666666666666666,None,110.16447100000005,None,110.16447100000005,None,,,,,,,,,,,,,,,,,,,,CBC_1013,6,6,2,6,16,0.8,2023-06-25_11h49.37.760,MSI_TV_v3,2022.1.1,59.99552433396283,
3,0,3,0,,,,,,,,,,2,1,0,z,63,1,4.190022164497369,2.22427187882546,None,111.97869790000004,None,114.1788491799999,114.1788491799999,114.19552697999924,None,[],['z'],[0.6604620000007344],116.18261939999957,None,z,2.6604620000007344,1,1,0.75,None,120.3891965999992,None,120.3891965999992,None,,,,,,,,,,,,,,,,,,,,CBC_1013,6,6,2,6,16,0.8,2023-06-25_11h49.37.760,MSI_TV_v3,2022.1.1,59.99552433396283,
4,0,4,0,,,,,,,,,,3,3,1,z,27,1,4.40017271499661,0.917519910446003,None,122.19514399999935,None,123.09518107999983,123.09518107999983,123.11205677999996,None,[],['z'],[0.3917382000008729],125.09701309999946,None,z,2.391738200000873,1,1,0.8,None,129.5036083999994,None,129.5036083999994,None,,,,,,,,,,,,,,,,,,,,CBC_1013,6,6,2,6,16,0.8,2023-06-25_11h49.37.760,MSI_TV_v3,2022.1.1,59.99552433396283,
5,0,5,0,,,,,,,,,,0,2,3,b,63,1,4.11514536789087,0.80788063606262,None,131.3122072999995,None,132.0955632799997,132.0955632799997,132.11227728000003,None,[],['z'],[0.3056672000002436],134.09870779999983,None,z,2.3056672000002436,0,0,0.6666666666666666,None,138.2213474,None,138.2213474,None,,,,,,,,,,,,,,,,,,,,CBC_1013,6,6,2,6,16,0.8,2023-06-25_11h49.37.760,MSI_TV_v3,2022.1.1,59.99552433396283,
6,0,6,0,,,,,,,,,,1,2,3,z,63,0,2.496959177995529,0.77703640172831,None,140.02876469999956,None,140.7787288799992,140.7787288799992,140.79537827999965,None,[],['z'],[1.130886200000532],142.78243919999932,None,z,3.130886200000532,1,0,0.7142857142857143,None,145.28925529999924,None,145.28925529999924,None,,,,,,,,,,,,,,,,,,,,CBC_1013,6,6,2,6,16,0.8,2023-06-25_11h49.37.760,MSI_TV_v3,2022.1.1,59.99552433396283,
7,0,7,0,,,,,,,,,,3,1,0,b,63,1,2.6391747348430608,2.40378712856304,None,147.09540039999956,None,149.4786155799994,149.4786155799994,149.49537447999964,None,[],['b'],[0.6950094000003446],151.4825779999992,None,b,2.6950094000003446,1,1,0.75,None,154.1224769999999,None,154.1224769999999,None,,,,,,,,,,,,,,,,,,,,CBC_1013,6,6,2,6,16,0.8,2023-06-25_11h49.37.760,MSI_TV_v3,2022.1.1,59.99552433396283,
8,0,8,0,,,,,,,,,,2,0,2,b,27,1,4.77034425507967,1.27538462653558,None,155.92888249999942,None,157.1789291799997,157.1789291799997,157.1956029799995,None,[],['z'],[0.8492200000000594],159.20280899999943,None,z,2.8492200000000594,0,0,0.6666666666666666,None,163.96739569999954,None,163.96739569999954,None,,,,,,,,,,,,,,,,,,,,CBC_1013,6,6,2,6,16,0.8,2023-06-25_11h49.37.760,MSI_TV_v3,2022.1.1,59.99552433396283,
9,0,9,0,,,,,,,,,,1,0,3,z,9,1,2.526044641065533,0.974903167432984,None,165.7788028999994,None,166.7287144799994,166.7287144799994,166.74525318000005,None,[],['z'],[0.9955474000007598],168.7306071999992,None,z,2.99554740000076,1,1,0.7,None,171.26630419999947,None,171.26630419999947,None,,,,,,,,,,,,,,,,,,,,CBC_1013,6,6,2,6,16,0.8,2023-06-25_11h49.37.760,MSI_TV_v3,2022.1.1,59.99552433396283,
10,0,10,0,,,,,,,,,,0,3,2,z,63,0,4.53337421950507,1.12425433982333,None,173.09022509999977,None,174.17907527999986,174.17907527999986,174.19561687999985,None,[],['z'],[0.23721569999997882],176.18603709999934,None,z,2.237215699999979,1,0,0.7272727272727273,None,180.7169258999993,None,180.7169258999993,None,,,,,,,,,,,,,,,,,,,,CBC_1013,6,6,2,6,16,0.8,2023-06-25_11h49.37.760,MSI_TV_v3,2022.1.1,59.99552433396283,
11,0,11,0,,,,,,,,,,3,1,0,b,63,1,4.72585056748869,1.64421109900286,None,182.52879200000007,None,184.1456421799995,184.1456421799995,184.16234207999977,None,[],"['b', 'z']","[1.8023520999995526, 1.8811611000000994]",186.17113869999957,None,b,3.8023520999995526,1,1,0.75,None,190.88455609999983,None,190.88455609999983,None,,,,,,,,,,,,,,,,,,,,CBC_1013,6,6,2,6,16,0.8,2023-06-25_11h49.37.760,MSI_TV_v3,2022.1.1,59.99552433396283,
12,0,12,0,,,,,,,,,,1,3,2,b,63,0,4.7533305109883095,1.94858485820231,None,192.6955042999998,None,194.62880827999933,194.62880827999933,194.64548247999946,None,[],['z'],[0.7588649000008445],196.6310125,None,z,2.7588649000008445,0,1,0.6923076923076923,None,201.38352069999928,None,201.38352069999928,None,,,,,,,,,,,,,,,,,,,,CBC_1013,6,6,2,6,16,0.8,2023-06-25_11h49.37.760,MSI_TV_v3,2022.1.1,59.99552433396283,
13,0,13,0,,,,,,,,,,0,3,2,z,63,1,2.82320408183943,1.34668860557497,None,203.19544679999944,None,204.52887587999984,204.52887587999984,204.54547448000002,None,[],['b'],[0.4998906999999235],206.53186239999923,None,b,2.4998906999999235,0,0,0.6428571428571429,None,209.36009159999958,None,209.36009159999958,None,,,,,,,,,,,,,,,,,,,,CBC_1013,6,6,2,6,16,0.8,2023-06-25_11h49.37.760,MSI_TV_v3,2022.1.1,59.99552433396283,
14,0,14,0,,,,,,,,,,3,1,3,b,27,1,2.678526077912375,0.952147612306987,None,211.1621212,None,212.09548748000006,212.09548748000006,212.11207737999948,None,[],['z'],[0.9081170999997994],214.09869139999955,None,z,2.9081170999997994,0,0,0.6,None,216.78620129999945,None,216.78620129999945,None,,,,,,,,,,,,,,,,,,,,CBC_1013,6,6,2,6,16,0.8,2023-06-25_11h49.37.760,MSI_TV_v3,2022.1.1,59.99552433396283,
15,0,15,0,,,,,,,,,,2,3,0,z,9,1,3.6438386551209,2.10421507306074,None,218.59558059999927,None,220.67959017999974,220.67959017999974,220.69544637999942,None,[],['b'],[1.6153182000007291],222.68121879999944,None,b,3.615318200000729,0,0,0.5625,None,226.3278511999997,None,226.3278511999997,None,,,,,,,,,,,,,,,,,,,,CBC_1013,6,6,2,6,16,0.8,2023-06-25_11h49.37.760,MSI_TV_v3,2022.1.1,59.99552433396283,
16,0,16,0,,,,,,,,,,1,3,2,b,63,1,4.01714354611405,2.09887870490381,None,228.12893079999958,None,230.2122761799993,230.2122761799993,230.22868607999962,None,[],['b'],[0.9972490000000107],232.2160527999995,None,b,2.9972490000000107,1,1,0.5882352941176471,None,236.25151969999933,None,236.25151969999933,None,,,,,,,,,,,,,,,,,,,,CBC_1013,6,6,2,6,16,0.8,2023-06-25_11h49.37.760,MSI_TV_v3,2022.1.1,59.99552433396283,
17,0,17,0,,,,,,,,,,0,2,0,b,27,1,3.68371079902891,3.1424449555106,None,238.06261209999957,None,241.17899767999924,241.17899767999924,241.19566697999934,None,[],['z'],[1.1733668000006219],243.18324889999985,None,z,3.173366800000622,0,0,0.5555555555555556,None,246.87849060000008,None,246.87849060000008,None,,,,,,,,,,,,,,,,,,,,CBC_1013,6,6,2,6,16,0.8,2023-06-25_11h49.37.760,MSI_TV_v3,2022.1.1,59.99552433396283,
18,0,18,0,,,,,,,,,,2,1,0,z,63,1,2.792365600763554,2.15533949826702,None,248.67964889999985,None,250.81227937999947,250.81227937999947,250.82896877999983,None,[],['z'],[1.9580131000002439],252.81707669999923,None,z,3.958013100000244,1,1,0.5789473684210527,None,255.6119181999993,None,255.6119181999993,None,,,,,,,,,,,,,,,,,,,,CBC_1013,6,6,2,6,16,0.8,2023-06-25_11h49.37.760,MSI_TV_v3,2022.1.1,59.99552433396283,
19,0,19,0,,,,,,,,,,3,0,1,z,63,0,4.82531807167306,1.38289892513751,None,257.4122093999995,None,258.77896127999986,258.77896127999986,258.79560927999967,None,[],['z'],[0.8415527000006477],260.7818557999999,None,z,2.8415527000006477,1,0,0.6,None,265.61501189999944,None,265.61501189999944,None,,,,,,,,,,,,,,,,,,,,CBC_1013,6,6,2,6,16,0.8,2023-06-25_11h49.37.760,MSI_TV_v3,2022.1.1,59.99552433396283,
20,0,20,0,,,,,,,,,,1,1,3,z,27,1,3.73326136168326,1.25920145784721,None,267.4291829999993,None,268.6623489799996,268.6623489799996,268.6789520799995,None,[],['b'],[2.0694090000006327],270.66643010000007,None,b,4.069409000000633,0,0,0.5714285714285714,None,274.4163910999996,None,274.4163910999996,None,,,,,,,,,,,,,,,,,,,,CBC_1013,6,6,2,6,16,0.8,2023-06-25_11h49.37.760,MSI_TV_v3,2022.1.1,59.99552433396283,
21,0,21,0,,,,,,,,,,0,2,3,b,63,1,3.02234236141277,2.78346932462847,None,276.2291365000001,None,278.99572117999935,278.99572117999935,279.01243027999965,None,[],['b'],[2.4550288000000364],280.9997889999995,None,b,4.455028800000036,1,1,0.5909090909090909,None,284.0362507,None,284.0362507,None,,,,,,,,,,,,,,,,,,,,CBC_1013,6,6,2,6,16,0.8,2023-06-25_11h49.37.760,MSI_TV_v3,2022.1.1,59.99552433396283,
22,0,22,0,,,,,,,,,,3,1,0,b,63,1,4.52047235037039,3.4543169006169,None,285.8458271999998,None,289.2795551800001,289.2795551800001,289.29583967999963,None,[],['b'],[2.226608799999667],291.2831161999993,None,b,4.226608799999667,1,1,0.6086956521739131,None,295.8103891999999,None,295.8103891999999,None,,,,,,,,,,,,,,,,,,,,CBC_1013,6,6,2,6,16,0.8,2023-06-25_11h49.37.760,MSI_TV_v3,2022.1.1,59.99552433396283,
23,0,23,0,,,,,,,,,,2,2,0,z,27,1,3.26539063535182,3.06992456303453,None,297.6124856999995,None,300.6625126800001,300.6625126800001,300.6791302799994,None,[],['b'],[1.1115680000002612],302.6641243999993,None,b,3.1115680000002612,0,0,0.5833333333333334,None,305.9350515999995,None,305.9350515999995,None,,,,,,,,,,,,,,,,,,,,CBC_1013,6,6,2,6,16,0.8,2023-06-25_11h49.37.760,MSI_TV_v3,2022.1.1,59.99552433396283,
24,0,24,0,,,,,,,,,,1,2,3,z,63,1,3.31929419319838,1.18065738546375,None,307.7458108999999,None,308.91254237999976,308.91254237999976,308.9290317799997,None,[],['b'],[0.6057614000001195],310.91616149999936,None,b,2.6057614000001195,0,0,0.56,None,314.2363335,None,314.2363335,None,,,,,,,,,,,,,,,,,,,,CBC_1013,6,6,2,6,16,0.8,2023-06-25_11h49.37.760,MSI_TV_v3,2022.1.1,59.99552433396283,
25,0,25,0,,,,,,,,,,0,2,0,b,27,1,3.71372710086949,1.43470440954152,None,316.0451414999998,None,317.4626852799994,317.4626852799994,317.4794719799994,None,[],['b'],[2.334861500000443],319.48872649999976,None,b,4.334861500000443,1,1,0.5769230769230769,None,323.1950840999998,None,323.1950840999998,None,,,,,,,,,,,,,,,,,,,,CBC_1013,6,6,2,6,16,0.8,2023-06-25_11h49.37.760,MSI_TV_v3,2022.1.1,59.99552433396283,
26,0,26,0,,,,,,,,,,3,1,0,b,63,1,3.2062024266105302,1.90743690794447,None,324.99572029999945,None,326.87921307999943,326.87921307999943,326.89644617999977,b,['b'],None,,328.8989969999993,None,b,1.5124249000009513,1,1,0.5925925925925926,None,332.1066672999996,None,332.1066672999996,None,1.5124249000009513,[1.5124249000009513],,,,,,,,,,,,,,,,,,CBC_1013,6,6,2,6,16,0.8,2023-06-25_11h49.37.760,MSI_TV_v3,2022.1.1,59.99552433396283,
27,0,27,0,,,,,,,,,,2,0,1,b,63,1,2.294664843639333,3.24569326556923,None,333.9120033999998,None,337.12917757999924,337.12917757999924,337.14585827999974,b,['b'],None,,339.1463825999999,None,b,1.8066478000000643,1,1,0.6071428571428571,None,341.4560873999999,None,341.4560873999999,None,1.8066478000000643,[1.8066478000000643],,,,,,,,,,,,,,,,,,CBC_1013,6,6,2,6,16,0.8,2023-06-25_11h49.37.760,MSI_TV_v3,2022.1.1,59.99552433396283,
28,0,28,0,,,,,,,,,,0,3,2,z,63,0,2.517541937862754,1.95130344756745,None,343.2630472999999,None,345.19597537999937,345.19597537999937,345.2126090799994,None,[],['z'],[0.32337900000038644],347.1974974999994,None,z,2.3233790000003864,1,0,0.6206896551724138,None,349.7255519999999,None,349.7255519999999,None,,,,,,,,,,,,,,,,,,,,CBC_1013,6,6,2,6,16,0.8,2023-06-25_11h49.37.760,MSI_TV_v3,2022.1.1,59.99552433396283,
29,0,29,0,,,,,,,,,,1,3,1,b,27,1,4.77723667052879,2.6299100644723,None,351.52932169999985,None,354.14597117999995,354.14597117999995,354.16259077999996,None,[],['b'],[2.8841652000000977],356.14931479999996,None,b,4.884165200000098,1,1,0.6333333333333333,None,360.9265164999997,None,360.9265164999997,None,,,,,,,,,,,,,,,,,,,,CBC_1013,6,6,2,6,16,0.8,2023-06-25_11h49.37.760,MSI_TV_v3,2022.1.1,59.99552433396283,
30,0,30,0,,,,,,,,,,2,1,0,z,63,0,2.666404967794728,1.1243895841892,None,362.72932259999925,None,363.8292486799993,363.8292486799993,363.8459495799999,None,[],['z'],[0.5043556000000535],365.8332362000001,None,z,2.5043556000000535,1,0,0.6451612903225806,None,368.5057683999994,None,368.5057683999994,None,,,,,,,,,,,,,,,,,,,,CBC_1013,6,6,2,6,16,0.8,2023-06-25_11h49.37.760,MSI_TV_v3,2022.1.1,59.99552433396283,
31,0,31,0,,,,,,,,,,1,3,2,b,63,1,2.693348633324513,2.96653053743745,None,370.3127900999998,None,373.26281067999946,373.26281067999946,373.2797783799998,None,[],['b'],[0.46445650000077876],375.26623440000003,None,b,2.4644565000007788,1,1,0.65625,None,377.9688288999996,None,377.9688288999996,None,,,,,,,,,,,,,,,,,,,,CBC_1013,6,6,2,6,16,0.8,2023-06-25_11h49.37.760,MSI_TV_v3,2022.1.1,59.99552433396283,
32,0,32,0,,,,,,,,,,3,2,1,z,9,1,2.433630701072358,3.40155979865722,None,379.7785047999996,None,383.16281438,383.16281438,383.1792401799995,None,[],['z'],[1.454199900000276],385.1684464,None,z,3.454199900000276,1,1,0.6666666666666666,None,387.5969159999995,None,387.5969159999995,None,,,,,,,,,,,,,,,,,,,,CBC_1013,6,6,2,6,16,0.8,2023-06-25_11h49.37.760,MSI_TV_v3,2022.1.1,59.99552433396283,
33,0,33,0,,,,,,,,,,2,1,0,z,63,1,2.92731383428727,1.52290599571961,None,389.39609010000004,None,390.8966742799995,390.8966742799995,390.91260927999986,None,[],['z'],[0.017315500000222528],392.90157629999976,None,z,2.0173155000002225,1,1,0.6764705882352942,None,395.8250189999999,None,395.8250189999999,None,,,,,,,,,,,,,,,,,,,,CBC_1013,6,6,2,6,16,0.8,2023-06-25_11h49.37.760,MSI_TV_v3,2022.1.1,59.99552433396283,
34,0,34,0,,,,,,,,,,0,2,1,b,9,1,2.592312596923728,0.761758675042088,None,397.6288694999994,None,398.36311037999997,398.36311037999997,398.3794970800001,None,[],['b'],[0.3044242000005397],400.3600569,None,b,2.3044242000005397,1,1,0.6857142857142857,None,402.9567113999992,None,402.9567113999992,None,,,,,,,,,,,,,,,,,,,,CBC_1013,6,6,2,6,16,0.8,2023-06-25_11h49.37.760,MSI_TV_v3,2022.1.1,59.99552433396283,
35,0,35,0,,,,,,,,,,3,1,0,b,63,1,3.3728785608729996,1.53122835510861,None,404.76278789999924,None,406.27936048000004,406.27936048000004,406.29620067999997,b,['b'],None,,408.2981325999999,None,b,1.7565566000002946,1,1,0.6944444444444444,None,411.6746108999996,None,411.6746108999996,None,1.7565566000002946,[1.7565566000002946],,,,,,,,,,,,,,,,,,CBC_1013,6,6,2,6,16,0.8,2023-06-25_11h49.37.760,MSI_TV_v3,2022.1.1,59.99552433396283,
36,0,36,0,,,,,,,,,,2,0,1,b,63,0,2.629554641171433,1.21250262048173,None,413.4786430999993,None,414.66284517999986,414.66284517999986,414.67937947999974,b,['b'],None,,416.70451389999926,None,b,1.8015851000000112,1,0,0.7027027027027027,None,419.3385638999998,None,419.3385638999998,None,1.8015851000000112,[1.8015851000000112],,,,,,,,,,,,,,,,,,CBC_1013,6,6,2,6,16,0.8,2023-06-25_11h49.37.760,MSI_TV_v3,2022.1.1,59.99552433396283,
37,0,37,0,,,,,,,,,,3,0,1,z,63,1,4.12485271162806,1.60731937853708,None,421.14509670000007,None,422.7294812799993,422.7294812799993,422.7461503799997,None,[],['z'],[0.8763037999997323],424.7334455,None,z,2.8763037999997323,1,1,0.7105263157894737,None,428.8704044999995,None,428.8704044999995,None,,,,,,,,,,,,,,,,,,,,CBC_1013,6,6,2,6,16,0.8,2023-06-25_11h49.37.760,MSI_TV_v3,2022.1.1,59.99552433396283,
38,0,38,0,,,,,,,,,,1,1,3,z,27,1,4.61004669244928,1.36309078069689,None,430.67944309999984,None,432.0294943800001,432.0294943800001,432.04608698000004,None,[],['z'],[1.619001300000491],434.03438899999946,None,z,3.619001300000491,1,1,0.717948717948718,None,438.64817369999946,None,438.64817369999946,None,,,,,,,,,,,,,,,,,,,,CBC_1013,6,6,2,6,16,0.8,2023-06-25_11h49.37.760,MSI_TV_v3,2022.1.1,59.99552433396283,
39,0,39,0,,,,,,,,,,0,3,2,z,63,1,3.7500315165247198,1.25817747924478,None,440.46305869999924,None,441.6965656799995,441.6965656799995,441.71260128000006,None,[],['z'],[0.5715468999997029],443.6973693,None,z,2.571546899999703,1,1,0.725,None,447.4562202999996,None,447.4562202999996,None,,,,,,,,,,,,,,,,,,,,CBC_1013,6,6,2,6,16,0.8,2023-06-25_11h49.37.760,MSI_TV_v3,2022.1.1,59.99552433396283,
40,0,40,0,,,,,,,,,,2,0,2,b,27,1,3.35133458220192,3.1963008326951,None,449.2619638999995,None,452.42974728,452.42974728,452.4463114799993,None,[],['b'],[0.5082507000006444],454.4273248999998,None,b,2.5082507000006444,1,1,0.7317073170731707,None,457.7925876999998,None,457.7925876999998,None,,,,,,,,,,,,,,,,,,,,CBC_1013,6,6,2,6,16,0.8,2023-06-25_11h49.37.760,MSI_TV_v3,2022.1.1,59.99552433396283,
41,0,41,0,,,,,,,,,,1,2,3,z,63,1,2.2759877950103027,1.53243550275999,None,459.5960937,None,461.1134253799993,461.1134253799993,461.1295236799998,None,[],['z'],[0.38407200000074226],463.1355283999992,None,z,2.3840720000007423,1,1,0.7380952380952381,None,465.4121978999992,None,465.4121978999992,None,,,,,,,,,,,,,,,,,,,,CBC_1013,6,6,2,6,16,0.8,2023-06-25_11h49.37.760,MSI_TV_v3,2022.1.1,59.99552433396283,
42,0,42,0,,,,,,,,,,3,1,3,b,27,0,3.76873691643126,1.78643585472448,None,467.2124954000001,None,468.9795878799997,468.9795878799997,468.9963283799999,b,['b'],None,,471.00729859999956,None,b,1.6284866000005422,1,0,0.7441860465116279,None,474.7625141999997,None,474.7625141999997,None,1.6284866000005422,[1.6284866000005422],,,,,,,,,,,,,,,,,,CBC_1013,6,6,2,6,16,0.8,2023-06-25_11h49.37.760,MSI_TV_v3,2022.1.1,59.99552433396283,
43,0,43,0,,,,,,,,,,0,3,2,z,63,1,2.91303524001082,3.33124983260532,None,476.5628737999996,None,479.87881768,479.87881768,479.8952504800001,z,['z'],None,,481.9126781999994,None,z,1.4112464000008913,1,1,0.75,None,484.82894229999965,None,484.82894229999965,None,1.4112464000008913,[1.4112464000008913],,,,,,,,,,,,,,,,,,CBC_1013,6,6,2,6,16,0.8,2023-06-25_11h49.37.760,MSI_TV_v3,2022.1.1,59.99552433396283,
,,,,,,,,,,,,,,,,,,,,,,,,,,,,,,,,,,,,,,,,,,,,,None,486.6297061999994,None,,,,,,,,,,,,,,,CBC_1013,6,6,2,6,16,0.8,2023-06-25_11h49.37.760,MSI_TV_v3,2022.1.1,59.99552433396283,
,,,,,,,,,,,,,,,,,,,,,,,,,,,,,,,,,,,,,,,,,,,,,,,,491.61314330000005,None,None,491.61314330000005,496.59643269999924,,,,,,,,,,CBC_1013,6,6,2,6,16,0.8,2023-06-25_11h49.37.760,MSI_TV_v3,2022.1.1,59.99552433396283,
,,,,,,,,,,,,,,,,,,,,,,,,,,,,,,,,,,,,,,,,,,,,,,,,,,,,,z,b,hard,"[0, 1, 2, 3]","[2, 3, 0, 1]",0.7272727272727273,0.45454545454545453,0.8181818181818182,1.0,,,,,,,,,,,,
