trials_runs.thisRepN,trials_runs.thisTrialN,trials_runs.thisN,trials_runs.thisIndex,standbild_start.started,standbild_start.stopped,trigger.keys,trigger.rt,trigger.started,trigger.stopped,keys_2.keys,keys_2.started,keys_2.stopped,trials_runs.auditory_stim,trials_runs.visual_stim_left,trials_runs.visual_stim_right,trials_runs.correctKey,trials_runs.presentationFrequncy,trials_runs.FBaccuracy,trials_runs.ISI_s,trials_runs.ITI_s,keys_3.keys,keys_3.started,keys_3.stopped,ImageLeft_4.started,ImageLeft_4.stopped,ImageRight_4.started,ImageRight_4.stopped,sound_4.started,sound_4.stopped,response_4.keys,response_4.started,response_4.stopped,response_5.keys,response_5.rt,response_5.started,response_5.stopped,response_runs.keys,response_runs.rt,trials_runs.correct_answer,trials_runs.feedback_given,trials_runs.running_mean,feedback_6.started,feedback_6.stopped,keys_6.keys,keys_6.started,keys_6.stopped,keys_6.rt,keys_3.rt,response_4.rt,keys_7.keys,keys_7.started,keys_7.stopped,standbild_end.started,standbild_end.stopped,Stop_exp.keys,Stop_exp.started,Stop_exp.stopped,trials_runs.rightKey,trials_runs.leftKey,ts_difficulty,visualPair,audioPair,trials_runs.mean_acc_1stFourth,trials_runs.mean_acc_2ndFourth,trials_runs.mean_acc_3rdFourth,trials_runs.mean_acc_4thFourth,nbCorrect,nbOmissions,nbIncorrect,participant,session,visual set [1-6],audio set [1-3 / 4-6],trial structure [0-3 / 4-7],pairing [0-23],prob Feedback,date,expName,psychopyVersion,frameRate,
,,,,34.437405300001046,None,t,39.61724259999937,34.437405300001046,None,,,,,,,,,,,,,,,,,,,,,,,,,,,,,,,,,,,,,,,,,,,,,,,,,,,,,,,,,,,,,CBC_1136,4,3,3,5,17,0.95,2024-09-11_17h04.04.997,MSI_AV_v3,2022.1.1,60.05295469537539,
,,,,,,,,,,None,74.08242140000038,None,,,,,,,,,,,,,,,,,,,,,,,,,,,,,,,,,,,,,,,,,,,,,,,,,,,,,,,,,,CBC_1136,4,3,3,5,17,0.95,2024-09-11_17h04.04.997,MSI_AV_v3,2022.1.1,60.05295469537539,
0,0,0,0,,,,,,,,,,3,0,1,z,63,1,2.82320408183943,0.761758675042088,None,74.28263169999991,None,75.24907040000107,None,75.24907040000107,None,75.2490074999987,None,None,75.24907040000107,None,['b'],[0.7116843999992852],77.03265590000046,None,b,2.7116843999992852,0,0,0.0,79.85059349999938,None,None,79.85059349999938,None,,,,,,,,,,,,,,,,,,,,,,,,CBC_1136,4,3,3,5,17,0.95,2024-09-11_17h04.04.997,MSI_AV_v3,2022.1.1,60.05295469537539,
1,0,1,0,,,,,,,,,,0,2,3,z,63,1,4.61004669244928,3.40155979865722,None,81.64932360000057,None,85.15841809999984,None,85.15841809999984,None,85.16567479999867,None,None,85.15841809999984,None,['b'],[0.6488748000010673],87.04934150000008,None,b,2.6488748000010673,0,0,0.0,91.64805089999936,None,None,91.64805089999936,None,,,,,,,,,,,,,,,,,,,,,,,,CBC_1136,4,3,3,5,17,0.95,2024-09-11_17h04.04.997,MSI_AV_v3,2022.1.1,60.05295469537539,
2,0,2,0,,,,,,,,,,3,1,3,b,27,1,4.01714354611405,0.979776149765883,None,93.44960060000085,None,94.45324509999955,None,94.45324509999955,None,94.44925929999954,None,None,94.45324509999955,None,['b'],[0.5022136999996292],96.43260770000052,None,b,2.502213699999629,1,1,0.3333333333333333,100.44308730000012,None,None,100.44308730000012,None,,,,,,,,,,,,,,,,,,,,,,,,CBC_1136,4,3,3,5,17,0.95,2024-09-11_17h04.04.997,MSI_AV_v3,2022.1.1,60.05295469537539,
3,0,3,0,,,,,,,,,,1,3,2,z,63,1,4.7533305109883095,3.1963008326951,None,102.24935379999988,None,105.5235477999995,None,105.5235477999995,None,105.51582219999909,None,None,105.5235477999995,None,['b'],[1.502622899999551],107.44917279999936,None,b,3.502622899999551,0,0,0.25,112.19447519999994,None,None,112.19447519999994,None,,,,,,,,,,,,,,,,,,,,,,,,CBC_1136,4,3,3,5,17,0.95,2024-09-11_17h04.04.997,MSI_AV_v3,2022.1.1,60.05295469537539,
4,0,4,0,,,,,,,,,,1,2,0,b,27,1,4.72585056748869,1.43470440954152,None,113.99927019999996,None,115.45497740000064,None,115.45497740000064,None,115.46594580000055,None,None,115.45497740000064,None,['z'],[1.2817785000006552],117.43240420000075,None,z,3.281778500000655,0,0,0.2,122.14662830000088,None,None,122.14662830000088,None,,,,,,,,,,,,,,,,,,,,,,,,CBC_1136,4,3,3,5,17,0.95,2024-09-11_17h04.04.997,MSI_AV_v3,2022.1.1,60.05295469537539,
5,0,5,0,,,,,,,,,,2,3,0,z,9,1,3.73326136168326,1.53243550275999,None,123.95017120000011,None,125.54267360000085,None,125.54267360000085,None,125.54949979999947,None,None,125.54267360000085,None,['z'],[0.5190082999997685],127.4825452999994,None,z,2.5190082999997685,1,1,0.3333333333333333,131.2101247999999,None,None,131.2101247999999,None,,,,,,,,,,,,,,,,,,,,,,,,CBC_1136,4,3,3,5,17,0.95,2024-09-11_17h04.04.997,MSI_AV_v3,2022.1.1,60.05295469537539,
6,0,6,0,,,,,,,,,,1,3,2,z,63,1,2.294664843639333,1.18065738546375,None,133.01580380000087,None,134.22045059999982,None,134.22045059999982,None,134.21660859999974,None,None,134.22045059999982,None,['z'],[0.5906587000008585],136.19899629999964,None,z,2.5906587000008585,1,1,0.42857142857142855,138.47956320000048,None,None,138.47956320000048,None,,,,,,,,,,,,,,,,,,,,,,,,CBC_1136,4,3,3,5,17,0.95,2024-09-11_17h04.04.997,MSI_AV_v3,2022.1.1,60.05295469537539,
7,0,7,0,,,,,,,,,,2,0,1,b,63,1,4.82531807167306,1.21250262048173,None,140.28274729999976,None,141.52215050000086,None,141.52215050000086,None,141.53261340000063,None,None,141.52215050000086,None,['z'],[0.8575717000003351],143.49948940000104,None,z,2.857571700000335,0,0,0.375,148.3152009000005,None,None,148.3152009000005,None,,,,,,,,,,,,,,,,,,,,,,,,CBC_1136,4,3,3,5,17,0.95,2024-09-11_17h04.04.997,MSI_AV_v3,2022.1.1,60.05295469537539,
8,0,8,0,,,,,,,,,,0,3,2,b,63,1,3.76873691643126,1.78643585472448,None,150.11610819999987,None,151.9224778000007,None,151.9224778000007,None,151.93281670000033,None,None,151.9224778000007,None,['z'],[1.2792635000005248],153.8994772999995,None,z,3.279263500000525,0,0,0.3333333333333333,157.65379530000064,None,None,157.65379530000064,None,,,,,,,,,,,,,,,,,,,,,,,,CBC_1136,4,3,3,5,17,0.95,2024-09-11_17h04.04.997,MSI_AV_v3,2022.1.1,60.05295469537539,
9,0,9,0,,,,,,,,,,1,2,3,b,63,1,3.3728785608729996,1.52290599571961,None,159.46608299999934,None,161.00440890000027,None,161.00440890000027,None,161.00024900000062,None,None,161.00440890000027,None,['b'],[0.4231214999999793],162.9826549999998,None,b,2.4231214999999793,1,1,0.4,166.33630559999983,None,None,166.33630559999983,None,,,,,,,,,,,,,,,,,,,,,,,,CBC_1136,4,3,3,5,17,0.95,2024-09-11_17h04.04.997,MSI_AV_v3,2022.1.1,60.05295469537539,
10,0,10,0,,,,,,,,,,0,1,3,z,27,1,4.52047235037039,1.34668860557497,None,168.15011690000028,None,169.52022439999928,None,169.52022439999928,None,169.51606680000077,None,None,169.52022439999928,None,['b'],[0.8098841999981232],171.49825050000072,None,b,2.809884199998123,0,0,0.36363636363636365,175.99952140000096,None,None,175.99952140000096,None,,,,,,,,,,,,,,,,,,,,,,,,CBC_1136,4,3,3,5,17,0.95,2024-09-11_17h04.04.997,MSI_AV_v3,2022.1.1,60.05295469537539,
11,0,11,0,,,,,,,,,,2,1,0,z,63,0,2.678526077912375,3.24569326556923,None,177.7995566999998,None,181.06911480000053,None,181.06911480000053,None,181.0659995999995,None,None,181.06911480000053,None,['b'],[1.2154537000005803],183.04963739999948,None,b,3.2154537000005803,0,1,0.3333333333333333,185.71761080000033,None,None,185.71761080000033,None,,,,,,,,,,,,,,,,,,,,,,,,CBC_1136,4,3,3,5,17,0.95,2024-09-11_17h04.04.997,MSI_AV_v3,2022.1.1,60.05295469537539,
12,0,12,0,,,,,,,,,,1,2,3,b,63,1,4.40017271499661,1.53122835510861,None,187.53338670000085,None,189.07158829999935,None,189.07158829999935,None,189.08161400000063,None,None,189.07158829999935,None,['z'],[0.9872118999992381],191.0497133000008,None,z,2.987211899999238,0,0,0.3076923076923077,195.43406739999955,None,None,195.43406739999955,None,,,,,,,,,,,,,,,,,,,,,,,,CBC_1136,4,3,3,5,17,0.95,2024-09-11_17h04.04.997,MSI_AV_v3,2022.1.1,60.05295469537539,
13,0,13,0,,,,,,,,,,2,0,2,b,27,1,2.792365600763554,0.952147612306987,None,197.24940090000018,None,198.22272580000026,None,198.22272580000026,None,198.2168256999994,None,None,198.22272580000026,None,"['b', 'z']","[1.2933917999998812, 2.066032199998517]",200.19953800000076,None,b,3.293391799999881,1,1,0.35714285714285715,202.98549959999946,None,None,202.98549959999946,None,,,,,,,,,,,,,,,,,,,,,,,,CBC_1136,4,3,3,5,17,0.95,2024-09-11_17h04.04.997,MSI_AV_v3,2022.1.1,60.05295469537539,
14,0,14,0,,,,,,,,,,3,0,1,z,63,1,4.77034425507967,2.6299100644723,None,204.799333500001,None,207.45257130000027,None,207.45257130000027,None,207.44965129999946,None,None,207.45257130000027,None,['z'],[1.2424890000002051],209.43276200000037,None,z,3.242489000000205,1,1,0.4,214.20023729999957,None,None,214.20023729999957,None,,,,,,,,,,,,,,,,,,,,,,,,CBC_1136,4,3,3,5,17,0.95,2024-09-11_17h04.04.997,MSI_AV_v3,2022.1.1,60.05295469537539,
15,0,15,0,,,,,,,,,,0,3,2,b,63,1,2.91303524001082,2.40378712856304,None,215.99969150000106,None,218.41766749999988,None,218.41766749999988,None,218.41610240000045,None,None,218.41766749999988,None,['z'],[0.8289389000001393],220.39953570000034,None,z,2.8289389000001393,0,0,0.375,223.29520890000094,None,None,223.29520890000094,None,,,,,,,,,,,,,,,,,,,,,,,,CBC_1136,4,3,3,5,17,0.95,2024-09-11_17h04.04.997,MSI_AV_v3,2022.1.1,60.05295469537539,
16,0,16,0,,,,,,,,,,3,1,2,b,9,1,2.7134565917469198,1.12425433982333,None,225.09843680000085,None,226.2398659999999,None,226.2398659999999,None,226.24959370000033,None,None,226.2398659999999,None,None,,228.21623910000017,None,[],[],0,3,0.35294117647058826,230.9214979999997,None,['z'],230.9214979999997,None,[1.643314000000828],,,,,,,,,,,,,,,,,,,,,,,CBC_1136,4,3,3,5,17,0.95,2024-09-11_17h04.04.997,MSI_AV_v3,2022.1.1,60.05295469537539,
17,0,17,0,,,,,,,,,,0,1,3,z,27,1,2.517541937862754,3.4543169006169,['b'],232.73330429999987,None,236.2030692999997,None,236.2030692999997,None,236.20011779999913,None,None,236.2030692999997,None,['z'],[0.5104510000001028],238.1829756999996,None,z,2.510451000000103,1,1,0.3888888888888889,240.68339930000002,None,None,240.68339930000002,None,,[0.1927823999994871],,,,,,,,,,,,,,,,,,,,,,CBC_1136,4,3,3,5,17,0.95,2024-09-11_17h04.04.997,MSI_AV_v3,2022.1.1,60.05295469537539,
18,0,18,0,,,,,,,,,,2,0,1,b,63,1,4.11514536789087,2.15533949826702,None,242.4828376000005,None,244.6460404999998,None,244.6460404999998,None,244.64986540000064,None,None,244.6460404999998,None,['b'],[1.4200734000005468],246.63298190000023,None,b,3.420073400000547,1,1,0.42105263157894735,250.74414590000015,None,None,250.74414590000015,None,,,,,,,,,,,,,,,,,,,,,,,,CBC_1136,4,3,3,5,17,0.95,2024-09-11_17h04.04.997,MSI_AV_v3,2022.1.1,60.05295469537539,
19,0,19,0,,,,,,,,,,2,1,0,z,63,1,2.693348633324513,1.64421109900286,None,252.54968929999995,None,254.2019280000004,None,254.2019280000004,None,254.2001495000004,None,None,254.2019280000004,None,['z'],[0.3472937999995338],256.18311110000104,None,z,2.347293799999534,1,1,0.45,258.8684876999996,None,None,258.8684876999996,None,,,,,,,,,,,,,,,,,,,,,,,,CBC_1136,4,3,3,5,17,0.95,2024-09-11_17h04.04.997,MSI_AV_v3,2022.1.1,60.05295469537539,
20,0,20,0,,,,,,,,,,1,2,0,b,27,1,2.629554641171433,1.60731937853708,None,260.68235280000044,None,262.3020944,None,262.3020944,None,262.2997298999999,None,None,262.3020944,None,['b'],[0.5324922999989212],264.2831335999999,None,b,2.5324922999989212,1,1,0.47619047619047616,266.9064651000008,None,None,266.9064651000008,None,,,,,,,,,,,,,,,,,,,,,,,,CBC_1136,4,3,3,5,17,0.95,2024-09-11_17h04.04.997,MSI_AV_v3,2022.1.1,60.05295469537539,
21,0,21,0,,,,,,,,,,3,0,1,z,63,1,3.7500315165247198,1.25920145784721,None,268.7154148999998,None,269.9878081000006,None,269.9878081000006,None,269.98309510000036,None,None,269.9878081000006,None,['z'],[0.7066778999997041],271.96607849999964,None,z,2.706677899999704,1,1,0.5,275.7140608000009,None,None,275.7140608000009,None,,,,,,,,,,,,,,,,,,,,,,,,CBC_1136,4,3,3,5,17,0.95,2024-09-11_17h04.04.997,MSI_AV_v3,2022.1.1,60.05295469537539,
22,0,22,0,,,,,,,,,,1,2,0,b,27,1,2.433630701072358,1.27538462653558,None,277.5163862999998,None,278.78553509999983,None,278.78553509999983,None,278.7820264000002,None,None,278.78553509999983,None,None,,280.7661322999993,None,[],[],0,3,0.4782608695652174,283.189088000001,None,['z'],283.189088000001,None,[0.21325989999968442],,,,,,,,,,,,,,,,,,,,,,,CBC_1136,4,3,3,5,17,0.95,2024-09-11_17h04.04.997,MSI_AV_v3,2022.1.1,60.05295469537539,
23,0,23,0,,,,,,,,,,0,3,2,b,63,1,3.02234236141277,3.1424449555106,None,284.99989149999965,None,288.15347549999933,None,288.15347549999933,None,288.1497493000006,None,None,288.15347549999933,None,['b'],[0.8201453999990918],290.13319950000005,None,b,2.8201453999990918,1,1,0.5,293.1370074999995,None,None,293.1370074999995,None,,,,,,,,,,,,,,,,,,,,,,,,CBC_1136,4,3,3,5,17,0.95,2024-09-11_17h04.04.997,MSI_AV_v3,2022.1.1,60.05295469537539,
24,0,24,0,,,,,,,,,,2,1,0,z,63,1,3.71372710086949,1.94858485820231,None,294.95051650000096,None,296.9006633000008,None,296.9006633000008,None,296.89852690000043,None,None,296.9006633000008,None,['b'],[0.7592003999998269],298.88321410000026,None,b,2.759200399999827,0,0,0.48,302.5879208000006,None,None,302.5879208000006,None,,,,,,,,,,,,,,,,,,,,,,,,CBC_1136,4,3,3,5,17,0.95,2024-09-11_17h04.04.997,MSI_AV_v3,2022.1.1,60.05295469537539,
25,0,25,0,,,,,,,,,,1,3,2,z,63,1,4.46924002178158,2.10421507306074,None,304.398855200001,None,306.5220327999996,None,306.5220327999996,None,306.53308599999946,None,None,306.5220327999996,None,['z'],[0.9643042999996396],308.50005880000026,None,z,2.9643042999996396,1,1,0.5,312.9581407000005,None,None,312.9581407000005,None,,,,,,,,,,,,,,,,,,,,,,,,CBC_1136,4,3,3,5,17,0.95,2024-09-11_17h04.04.997,MSI_AV_v3,2022.1.1,60.05295469537539,
26,0,26,0,,,,,,,,,,2,2,0,z,27,1,3.2062024266105302,2.49839527409216,None,314.76545199999964,None,317.25420510000004,None,317.25420510000004,None,317.26533930000005,None,None,317.25420510000004,None,['b'],[0.7700406000003568],319.2332408000002,None,b,2.770040600000357,0,0,0.48148148148148145,322.4357433999994,None,None,322.4357433999994,None,,,,,,,,,,,,,,,,,,,,,,,,CBC_1136,4,3,3,5,17,0.95,2024-09-11_17h04.04.997,MSI_AV_v3,2022.1.1,60.05295469537539,
27,0,27,0,,,,,,,,,,0,3,2,b,63,1,3.6438386551209,1.38289892513751,None,324.2497899000009,None,325.6569452999993,None,325.6569452999993,None,325.6666671999992,None,None,325.6569452999993,None,['b'],[0.5122933000002377],327.63245350000034,None,b,2.5122933000002377,1,1,0.5,331.2623633000003,None,None,331.2623633000003,None,,,,,,,,,,,,,,,,,,,,,,,,CBC_1136,4,3,3,5,17,0.95,2024-09-11_17h04.04.997,MSI_AV_v3,2022.1.1,60.05295469537539,
28,0,28,0,,,,,,,,,,0,3,2,b,63,1,2.496959177995529,0.77703640172831,None,333.0666889999993,None,333.85774950000086,None,333.85774950000086,None,333.8667408000001,None,['b'],333.85774950000086,None,None,,335.85395400000016,None,b,1.4769347999990714,1,1,0.5172413793103449,338.3566205999996,None,None,338.3566205999996,None,,,[1.4769347999990714],,,,,,,,,,,,,,,,,,,,,CBC_1136,4,3,3,5,17,0.95,2024-09-11_17h04.04.997,MSI_AV_v3,2022.1.1,60.05295469537539,
29,0,29,0,,,,,,,,,,3,3,1,z,27,1,3.26539063535182,1.1243895841892,None,340.1659347999994,None,341.3038123000006,None,341.3038123000006,None,341.29994350000015,None,['z'],341.3038123000006,None,None,,343.29828330000055,None,z,1.7354749999994965,1,1,0.5333333333333333,346.56813839999995,None,None,346.56813839999995,None,,,[1.7354749999994965],,,,,,,,,,,,,,,,,,,,,CBC_1136,4,3,3,5,17,0.95,2024-09-11_17h04.04.997,MSI_AV_v3,2022.1.1,60.05295469537539,
30,0,30,0,,,,,,,,,,0,0,3,z,9,1,3.35133458220192,1.25817747924478,None,348.3832762000002,None,349.6560186000006,None,349.6560186000006,None,349.66666859999896,None,None,349.6560186000006,None,['z'],[0.3863043999990623],351.6330510000007,None,z,2.3863043999990623,1,1,0.5483870967741935,354.97059459999946,None,None,354.97059459999946,None,,,,,,,,,,,,,,,,,,,,,,,,CBC_1136,4,3,3,5,17,0.95,2024-09-11_17h04.04.997,MSI_AV_v3,2022.1.1,60.05295469537539,
31,0,31,0,,,,,,,,,,3,1,0,b,63,1,3.31929419319838,1.95130344756745,None,356.78332090000004,None,358.75319760000093,None,358.75319760000093,None,358.7496979999996,None,None,358.75319760000093,None,['b'],[0.49526519999926677],360.7321425000009,None,b,2.4952651999992668,1,1,0.5625,364.0404703999993,None,None,364.0404703999993,None,,,,,,,,,,,,,,,,,,,,,,,,CBC_1136,4,3,3,5,17,0.95,2024-09-11_17h04.04.997,MSI_AV_v3,2022.1.1,60.05295469537539,
32,0,32,0,,,,,,,,,,2,1,0,z,63,1,2.342239579230602,1.90743690794447,None,365.84858519999943,None,367.7711641999995,None,367.7711641999995,None,367.7666907999992,None,None,367.7711641999995,None,['b'],[0.7058922999985953],369.7499845000002,None,b,2.7058922999985953,0,0,0.5454545454545454,372.0766504000003,None,None,372.0766504000003,None,,,,,,,,,,,,,,,,,,,,,,,,CBC_1136,4,3,3,5,17,0.95,2024-09-11_17h04.04.997,MSI_AV_v3,2022.1.1,60.05295469537539,
33,0,33,0,,,,,,,,,,3,1,0,b,63,1,2.666404967794728,0.80788063606262,None,373.8831298999994,None,374.70558060000076,None,374.70558060000076,None,374.7167611999994,None,None,374.70558060000076,None,['b'],[0.8889920000001439],376.6832166000004,None,b,2.888992000000144,1,1,0.5588235294117647,379.3421314999996,None,None,379.3421314999996,None,,,,,,,,,,,,,,,,,,,,,,,,CBC_1136,4,3,3,5,17,0.95,2024-09-11_17h04.04.997,MSI_AV_v3,2022.1.1,60.05295469537539,
34,0,34,0,,,,,,,,,,1,3,2,z,63,1,4.53337421950507,2.09887870490381,None,381.1495740999999,None,383.25180349999937,None,383.25180349999937,None,383.24968740000077,None,None,383.25180349999937,None,['z'],[0.11281140000028245],385.23323510000046,None,z,2.1128114000002824,1,1,0.5714285714285714,389.76019910000105,None,None,389.76019910000105,None,,,,,,,,,,,,,,,,,,,,,,,,CBC_1136,4,3,3,5,17,0.95,2024-09-11_17h04.04.997,MSI_AV_v3,2022.1.1,60.05295469537539,
35,0,35,0,,,,,,,,,,2,0,2,b,27,1,4.190022164497369,0.917519910446003,None,391.56586640000023,None,392.5098409000002,None,392.5098409000002,None,392.5167161999998,None,None,392.5098409000002,None,['b'],[1.8637452000002668],394.4836840000007,None,b,3.8637452000002668,1,1,0.5833333333333334,398.66032090000044,None,None,398.66032090000044,None,,,,,,,,,,,,,,,,,,,,,,,,CBC_1136,4,3,3,5,17,0.95,2024-09-11_17h04.04.997,MSI_AV_v3,2022.1.1,60.05295469537539,
36,0,36,0,,,,,,,,,,3,1,0,b,63,1,2.2759877950103027,3.33124983260532,None,400.4668156000007,None,403.8139807000007,None,403.8139807000007,None,403.81658570000036,None,None,403.8139807000007,None,['b'],[1.009640299998864],405.7998581000011,None,b,3.009640299998864,1,1,0.5945945945945946,408.06486760000007,None,None,408.06486760000007,None,,,,,,,,,,,,,,,,,,,,,,,,CBC_1136,4,3,3,5,17,0.95,2024-09-11_17h04.04.997,MSI_AV_v3,2022.1.1,60.05295469537539,
37,0,37,0,,,,,,,,,,3,3,1,z,27,1,2.92731383428727,2.22427187882546,None,409.8668419000005,None,412.0855692999994,None,412.0855692999994,None,412.0823208999991,None,None,412.0855692999994,None,['z'],[0.5151789999981702],414.06682940000064,None,z,2.51517899999817,1,1,0.6052631578947368,416.9766242000005,None,None,416.9766242000005,None,,,,,,,,,,,,,,,,,,,,,,,,CBC_1136,4,3,3,5,17,0.95,2024-09-11_17h04.04.997,MSI_AV_v3,2022.1.1,60.05295469537539,
38,0,38,0,,,,,,,,,,1,3,2,z,63,1,2.6391747348430608,2.96653053743745,['b'],418.7835389000011,None,421.77250169999934,None,421.77250169999934,None,421.78348019999976,None,None,421.77250169999934,None,['b'],[2.0571359999994456],423.74982289999934,None,b,4.057135999999446,0,0,0.5897435897435898,426.37456460000067,None,None,426.37456460000067,None,,[2.038379999999961],,,,,,,,,,,,,,,,,,,,,,CBC_1136,4,3,3,5,17,0.95,2024-09-11_17h04.04.997,MSI_AV_v3,2022.1.1,60.05295469537539,
39,0,39,0,,,,,,,,,,0,3,1,b,27,1,4.12485271162806,1.36309078069689,None,428.18363619999946,None,429.57202080000025,None,429.57202080000025,None,429.5834873999993,None,['b'],429.57202080000025,None,None,,431.56597650000003,None,b,1.4772210999999515,1,1,0.6,435.6881862000009,None,None,435.6881862000009,None,,,[1.4772210999999515],,,,,,,,,,,,,,,,,,,,,CBC_1136,4,3,3,5,17,0.95,2024-09-11_17h04.04.997,MSI_AV_v3,2022.1.1,60.05295469537539,
40,0,40,0,,,,,,,,,,1,1,2,z,9,1,2.526044641065533,2.78346932462847,None,437.4990772000001,None,440.2863935000005,None,440.2863935000005,None,440.2990821000003,None,['b'],440.2863935000005,None,None,,442.2871725999994,None,b,1.3337152999993123,0,0,0.5853658536585366,444.82247310000093,None,None,444.82247310000093,None,,,[1.3337152999993123],,,,,,,,,,,,,,,,,,,,,CBC_1136,4,3,3,5,17,0.95,2024-09-11_17h04.04.997,MSI_AV_v3,2022.1.1,60.05295469537539,
41,0,41,0,,,,,,,,,,3,0,1,z,63,0,3.68371079902891,1.96568735158996,None,446.63367199999993,None,448.6211899000009,None,448.6211899000009,None,448.6168579999994,None,None,448.6211899000009,None,['z'],[0.5162788999987242],450.5995144999997,None,z,2.5162788999987242,1,0,0.5952380952380952,454.2613130999998,None,None,454.2613130999998,None,,,,,,,,,,,,,,,,,,,,,,,,CBC_1136,4,3,3,5,17,0.95,2024-09-11_17h04.04.997,MSI_AV_v3,2022.1.1,60.05295469537539,
42,0,42,0,,,,,,,,,,0,3,2,b,63,1,2.592312596923728,3.06992456303453,"['b', 'b']",456.0669132000003,None,459.15329720000045,None,459.15329720000045,None,459.1503432999998,None,['b'],459.15329720000045,None,None,,461.1492027000004,None,b,1.5727793999994901,1,1,0.6046511627906976,463.74013019999984,None,None,463.74013019999984,None,,"[0.03137089999836462, 0.6441809999996622]",[1.5727793999994901],,,,,,,,,,,,,,,,,,,,,CBC_1136,4,3,3,5,17,0.95,2024-09-11_17h04.04.997,MSI_AV_v3,2022.1.1,60.05295469537539,
43,0,43,0,,,,,,,,,,2,0,1,b,63,1,4.77723667052879,0.974903167432984,None,465.5492436000004,None,466.53596000000107,None,466.53596000000107,None,466.53368000000046,None,None,466.53596000000107,None,['b'],[1.0038662000006298],468.51583159999973,None,b,3.0038662000006298,1,1,0.6136363636363636,473.28256639999927,None,None,473.28256639999927,None,,,,,,,,,,,,,,,,,,,,,,,,CBC_1136,4,3,3,5,17,0.95,2024-09-11_17h04.04.997,MSI_AV_v3,2022.1.1,60.05295469537539,
,,,,,,,,,,,,,,,,,,,,,,,,,,,,,,,,,,,,,,,,,,,,,,,,,,None,475.08364230000007,None,,,,,,,,,,,,,,,,,,CBC_1136,4,3,3,5,17,0.95,2024-09-11_17h04.04.997,MSI_AV_v3,2022.1.1,60.05295469537539,
,,,,,,,,,,,,,,,,,,,,,,,,,,,,,,,,,,,,,,,,,,,,,,,,,,,,,480.08372600000075,None,None,480.08372600000075,None,,,,,,,,,,,,,CBC_1136,4,3,3,5,17,0.95,2024-09-11_17h04.04.997,MSI_AV_v3,2022.1.1,60.05295469537539,
,,,,,,,,,,,,,,,,,,,,,,,,,,,,,,,,,,,,,,,,,,,,,,,,,,,,,,,,,,z,b,easy,"[0, 1, 2, 3]","[2, 3, 1, 0]",0.36363636363636365,0.6363636363636364,0.6363636363636364,0.8181818181818182,27,2,15,,,,,,,,,,,,
