trials_runs.thisRepN,trials_runs.thisTrialN,trials_runs.thisN,trials_runs.thisIndex,standbild_start.started,standbild_start.stopped,trigger.keys,trigger.rt,trigger.started,trigger.stopped,keys_2.keys,keys_2.started,keys_2.stopped,trials_runs.auditory_stim,trials_runs.visual_stim_left,trials_runs.visual_stim_right,trials_runs.correctKey,trials_runs.presentationFrequncy,trials_runs.FBaccuracy,trials_runs.ISI_s,trials_runs.ITI_s,keys_3.keys,keys_3.started,keys_3.stopped,ImageLeft_4.started,ImageLeft_4.stopped,ImageRight_4.started,ImageRight_4.stopped,sound_4.started,sound_4.stopped,response_4.keys,response_4.started,response_4.stopped,response_5.keys,response_5.started,response_5.stopped,response_runs.keys,response_runs.rt,trials_runs.correct_answer,trials_runs.feedback_given,trials_runs.running_mean,feedback_6.started,feedback_6.stopped,keys_6.keys,keys_6.started,keys_6.stopped,response_4.rt,response_5.rt,keys_3.rt,keys_7.keys,keys_7.started,keys_7.stopped,standbild_end.started,standbild_end.stopped,Stop_exp.keys,Stop_exp.started,Stop_exp.stopped,trials_runs.rightKey,trials_runs.leftKey,ts_difficulty,visualPair,audioPair,trials_runs.mean_acc_1stFourth,trials_runs.mean_acc_2ndFourth,trials_runs.mean_acc_3rdFourth,trials_runs.mean_acc_4thFourth,nbCorrect,nbOmissions,nbIncorrect,participant,session,visual set [1-6],audio set [1-3],trial structure [0-3 / 4-7],pairing [0-23],prob Feedback,date,expName,psychopyVersion,frameRate,
,,,,31.467394199999035,None,t,72.8296406999998,31.467394199999035,None,,,,,,,,,,,,,,,,,,,,,,,,,,,,,,,,,,,,,,,,,,,,,,,,,,,,,,,,,,,,CBC_1021,003,4,3,2,20,0.95,2023-07-18_16h15.57.561,MSI_AV_v3,2022.1.1,60.04606734347593,
,,,,,,,,,,None,104.32267209999918,None,,,,,,,,,,,,,,,,,,,,,,,,,,,,,,,,,,,,,,,,,,,,,,,,,,,,,,,,,CBC_1021,003,4,3,2,20,0.95,2023-07-18_16h15.57.561,MSI_AV_v3,2022.1.1,60.04606734347593,
0,0,0,0,,,,,,,,,,3,1.0,0.0,z,63.0,1.0,2.517541937862754,2.96653053743745,None,104.52319820000048,None,107.58961429999908,None,107.58961429999908,None,107.58955938000145,None,None,107.58961429999908,None,None,109.48966839999957,None,[],[],0,3,0.0,112.01214640000035,None,None,112.01214640000035,None,,,,,,,,,,,,,,,,,,,,,,,,CBC_1021,003,4,3,2,20,0.95,2023-07-18_16h15.57.561,MSI_AV_v3,2022.1.1,60.04606734347593,
1,0,1,0,,,,,,,,,,0,2.0,3.0,b,63.0,1.0,4.61004669244928,1.53122835510861,None,113.80665980000049,None,115.38922439999988,None,115.38922439999988,None,115.38958775000083,None,['b'],115.38922439999988,None,None,117.35583170000064,None,b,1.4811659999995754,1,1,0.5,121.97926469999948,None,None,121.97926469999948,None,[1.4811659999995754],,,,,,,,,,,,,,,,,,,,,,,CBC_1021,003,4,3,2,20,0.95,2023-07-18_16h15.57.561,MSI_AV_v3,2022.1.1,60.04606734347593,
2,0,2,0,,,,,,,,,,3,2.0,0.0,z,27.0,1.0,2.666404967794728,3.4543169006169,None,123.79003550000016,None,127.25554139999986,None,127.25554139999986,None,127.2563544300001,None,None,127.25554139999986,None,['z'],129.23972590000085,None,z,2.234918199999811,1,1,0.6666666666666666,131.89306679999936,None,None,131.89306679999936,None,,[0.2349181999998109],,,,,,,,,,,,,,,,,,,,,,CBC_1021,003,4,3,2,20,0.95,2023-07-18_16h15.57.561,MSI_AV_v3,2022.1.1,60.04606734347593,
3,0,3,0,,,,,,,,,,1,0.0,1.0,z,63.0,1.0,4.77723667052879,0.77703640172831,None,133.70629960000042,None,134.51143459999912,None,134.51143459999912,None,134.52300775000094,None,None,134.51143459999912,None,['b'],136.4729814000002,None,b,2.280462999999145,0,0,0.5,141.23025629999938,None,None,141.23025629999938,None,,[0.2804629999991448],,,,,,,,,,,,,,,,,,,,,,CBC_1021,003,4,3,2,20,0.95,2023-07-18_16h15.57.561,MSI_AV_v3,2022.1.1,60.04606734347593,
4,0,4,0,,,,,,,,,,1,1.0,0.0,b,63.0,1.0,2.2759877950103027,3.24569326556923,None,143.0399383999993,None,146.28699659999984,None,146.28699659999984,None,146.2897257300001,None,['b'],146.28699659999984,None,None,148.28890019999926,None,b,1.884190500000841,1,1,0.6,150.5792246000001,None,None,150.5792246000001,None,[1.884190500000841],,,,,,,,,,,,,,,,,,,,,,,CBC_1021,003,4,3,2,20,0.95,2023-07-18_16h15.57.561,MSI_AV_v3,2022.1.1,60.04606734347593,
5,0,5,0,,,,,,,,,,0,2.0,3.0,b,63.0,1.0,4.52047235037039,1.21250262048173,None,152.38978879999922,None,153.6223757000007,None,153.6223757000007,None,153.62338043,None,['z'],153.6223757000007,None,None,155.6225895000007,None,z,1.7990279999994527,0,0,0.5,160.14490020000085,None,None,160.14490020000085,None,[1.7990279999994527],,,,,,,,,,,,,,,,,,,,,,,CBC_1021,003,4,3,2,20,0.95,2023-07-18_16h15.57.561,MSI_AV_v3,2022.1.1,60.04606734347593,
6,0,6,0,,,,,,,,,,2,1.0,3.0,z,27.0,1.0,4.82531807167306,3.40155979865722,None,161.9566364000002,None,165.39269819999936,None,165.39269819999936,None,165.38962723999975,None,['b'],165.39269819999936,None,None,167.37372549999964,None,b,1.8739203000004636,0,0,0.42857142857142855,172.21075390000078,None,None,172.21075390000078,None,[1.8739203000004636],,,,,,,,,,,,,,,,,,,,,,,CBC_1021,003,4,3,2,20,0.95,2023-07-18_16h15.57.561,MSI_AV_v3,2022.1.1,60.04606734347593,
7,0,7,0,,,,,,,,,,0,2.0,1.0,b,9.0,1.0,2.91303524001082,2.49839527409216,None,174.02319569999963,None,176.5387611999995,None,176.5387611999995,None,176.5398556299997,None,None,176.5387611999995,None,['z'],178.52304689999983,None,z,2.6121839999996155,0,0,0.375,181.41803210000035,None,None,181.41803210000035,None,,[0.6121839999996155],,,,,,,,,,,,,,,,,,,,,,CBC_1021,003,4,3,2,20,0.95,2023-07-18_16h15.57.561,MSI_AV_v3,2022.1.1,60.04606734347593,
8,0,8,0,,,,,,,,,,1,1.0,3.0,b,27.0,1.0,3.76873691643126,2.22427187882546,None,183.22317359999943,None,185.45612889999938,None,185.45612889999938,None,185.45645462999983,None,None,185.45612889999938,None,['z'],187.4398089999995,None,z,2.389282899999671,0,0,0.3333333333333333,191.18937069999993,None,None,191.18937069999993,None,,[0.3892828999996709],,,,,,,,,,,,,,,,,,,,,,CBC_1021,003,4,3,2,20,0.95,2023-07-18_16h15.57.561,MSI_AV_v3,2022.1.1,60.04606734347593,
9,0,9,0,,,,,,,,,,2,2.0,3.0,z,63.0,1.0,3.7500315165247198,1.34668860557497,None,192.98991790000036,None,194.35745169999973,None,194.35745169999973,None,194.3564810300004,None,None,194.35745169999973,None,['b'],196.33975920000012,None,b,2.3460847999995167,0,0,0.3,200.07721239999955,None,None,200.07721239999955,None,,[0.3460847999995167],,,,,,,,,,,,,,,,,,,,,,CBC_1021,003,4,3,2,20,0.95,2023-07-18_16h15.57.561,MSI_AV_v3,2022.1.1,60.04606734347593,
10,0,10,0,,,,,,,,,,1,0.0,1.0,z,63.0,1.0,3.71372710086949,0.80788063606262,None,201.89006639999934,None,202.7072704000002,None,202.7072704000002,None,202.70650873000068,None,None,202.7072704000002,None,"['z', 'b']",204.68992020000042,None,z,2.555238200000531,1,1,0.36363636363636365,208.39165219999995,None,None,208.39165219999995,None,,"[0.5552382000005309, 0.6519656000000396]",,,,,,,,,,,,,,,,,,,,,,CBC_1021,003,4,3,2,20,0.95,2023-07-18_16h15.57.561,MSI_AV_v3,2022.1.1,60.04606734347593,
11,0,11,0,,,,,,,,,,0,2.0,0.0,b,27.0,1.0,3.31929419319838,3.1963008326951,None,210.20657120000033,None,213.42253150000033,None,213.42253150000033,None,213.42367733000083,None,['b'],213.42253150000033,None,None,215.4203092000007,None,b,1.682453199999145,1,1,0.4166666666666667,218.7455117999998,None,None,218.7455117999998,None,[1.682453199999145],,,,,,,,,,,,,,,,,,,,,,,CBC_1021,003,4,3,2,20,0.95,2023-07-18_16h15.57.561,MSI_AV_v3,2022.1.1,60.04606734347593,
12,0,12,0,,,,,,,,,,2,2.0,3.0,z,63.0,0.0,3.68371079902891,2.10421507306074,None,220.55671059999986,None,222.67408989999967,None,222.67408989999967,None,222.67310993000046,None,None,222.67408989999967,None,['z'],224.65654200000063,None,z,2.3410954999981186,1,0,0.46153846153846156,228.3301061000002,None,None,228.3301061000002,None,,[0.3410954999981186],,,,,,,,,,,,,,,,,,,,,,CBC_1021,003,4,3,2,20,0.95,2023-07-18_16h15.57.561,MSI_AV_v3,2022.1.1,60.04606734347593,
13,0,13,0,,,,,,,,,,3,0.0,1.0,b,63.0,1.0,4.190022164497369,1.38289892513751,None,230.1402094999994,None,231.53964649999944,None,231.53964649999944,None,231.53957533000084,None,None,231.53964649999944,None,['z'],233.52322599999934,None,z,3.0831254000004265,0,0,0.42857142857142855,237.7072919000002,None,None,237.7072919000002,None,,[1.0831254000004265],,,,,,,,,,,,,,,,,,,,,,CBC_1021,003,4,3,2,20,0.95,2023-07-18_16h15.57.561,MSI_AV_v3,2022.1.1,60.04606734347593,
14,0,14,0,,,,,,,,,,0,3.0,2.0,z,63.0,1.0,4.01714354611405,1.36309078069689,None,239.50672900000063,None,240.89094149999983,None,240.89094149999983,None,240.89003223000054,None,['b'],240.89094149999983,None,None,242.88995609999984,None,b,1.1370180999983859,0,0,0.4,246.91126939999958,None,None,246.91126939999958,None,[1.1370180999983859],,,,,,,,,,,,,,,,,,,,,,,CBC_1021,003,4,3,2,20,0.95,2023-07-18_16h15.57.561,MSI_AV_v3,2022.1.1,60.04606734347593,
15,0,15,0,,,,,,,,,,3,2.0,0.0,z,27.0,1.0,3.6438386551209,1.95130344756745,None,248.72336840000025,None,250.68942640000023,None,250.68942640000023,None,250.68996013000014,None,None,250.68942640000023,None,['z'],252.6733906999998,None,z,2.431408399999782,1,1,0.4375,256.3061596999996,None,None,256.3061596999996,None,,[0.431408399999782],,,,,,,,,,,,,,,,,,,,,,CBC_1021,003,4,3,2,20,0.95,2023-07-18_16h15.57.561,MSI_AV_v3,2022.1.1,60.04606734347593,
16,0,16,0,,,,,,,,,,2,3.0,2.0,b,63.0,1.0,2.629554641171433,2.40378712856304,None,258.1069480999995,None,260.52289290000044,None,260.52289290000044,None,260.5232448300003,None,None,260.52289290000044,None,['z'],262.50669820000076,None,z,3.101690299999973,0,0,0.4117647058823529,265.12224289999904,None,None,265.12224289999904,None,,[1.101690299999973],,,,,,,,,,,,,,,,,,,,,,CBC_1021,003,4,3,2,20,0.95,2023-07-18_16h15.57.561,MSI_AV_v3,2022.1.1,60.04606734347593,
17,0,17,0,,,,,,,,,,2,2.0,3.0,z,63.0,1.0,2.496959177995529,2.15533949826702,None,266.9235116,None,269.0917217999995,None,269.0917217999995,None,269.0901179300008,None,['b'],269.0917217999995,None,None,271.0907879999995,None,b,1.793169599999601,0,0,0.3888888888888889,273.59486130000005,None,None,273.59486130000005,None,[1.793169599999601],,,,,,,,,,,,,,,,,,,,,,,CBC_1021,003,4,3,2,20,0.95,2023-07-18_16h15.57.561,MSI_AV_v3,2022.1.1,60.04606734347593,
18,0,18,0,,,,,,,,,,1,1.0,3.0,b,27.0,1.0,3.3728785608729996,3.1424449555106,None,275.4068081000005,None,278.5570853999998,None,278.5570853999998,None,278.55671603000064,None,['z'],278.5570853999998,None,None,280.55662739999934,None,z,1.5638144000004104,0,0,0.3684210526315789,283.9281508999993,None,None,283.9281508999993,None,[1.5638144000004104],,,,,,,,,,,,,,,,,,,,,,,CBC_1021,003,4,3,2,20,0.95,2023-07-18_16h15.57.561,MSI_AV_v3,2022.1.1,60.04606734347593,
19,0,19,0,,,,,,,,,,2,3.0,0.0,b,9.0,1.0,3.2062024266105302,0.761758675042088,None,285.74019020000014,None,286.50786809999954,None,286.50786809999954,None,286.50673322999955,None,None,286.50786809999954,None,['b'],288.49005319999924,None,b,3.3838156999991043,1,1,0.4,291.67978029999904,None,None,291.67978029999904,None,,[1.3838156999991043],,,,,,,,,,,,,,,,,,,,,,CBC_1021,003,4,3,2,20,0.95,2023-07-18_16h15.57.561,MSI_AV_v3,2022.1.1,60.04606734347593,
20,0,20,0,,,,,,,,,,1,0.0,1.0,z,63.0,1.0,4.53337421950507,1.90743690794447,None,293.4901926000002,None,295.40658110000004,None,295.40658110000004,None,295.40680662999966,None,None,295.40658110000004,None,['z'],297.3902195999999,None,z,2.502351799999815,1,1,0.42857142857142855,301.9160379999994,None,None,301.9160379999994,None,,[0.5023517999998148],,,,,,,,,,,,,,,,,,,,,,CBC_1021,003,4,3,2,20,0.95,2023-07-18_16h15.57.561,MSI_AV_v3,2022.1.1,60.04606734347593,
21,0,21,0,,,,,,,,,,3,0.0,1.0,b,63.0,1.0,4.11514536789087,1.43470440954152,None,303.72354239999913,None,305.1751332999993,None,305.1751332999993,None,305.1737088300006,None,['z'],305.1751332999993,None,None,307.1711482999999,None,z,1.7531758999994054,0,0,0.4090909090909091,311.29475620000085,None,None,311.29475620000085,None,[1.7531758999994054],,,,,,,,,,,,,,,,,,,,,,,CBC_1021,003,4,3,2,20,0.95,2023-07-18_16h15.57.561,MSI_AV_v3,2022.1.1,60.04606734347593,
22,0,22,0,,,,,,,,,,0,3.0,2.0,z,63.0,1.0,2.792365600763554,3.06992456303453,None,313.10700759999963,None,316.1920831000007,None,316.1920831000007,None,316.1903477300011,None,['b'],316.1920831000007,None,None,318.19063149999965,None,b,1.5983704999998736,0,0,0.391304347826087,320.99121659999946,None,None,320.99121659999946,None,[1.5983704999998736],,,,,,,,,,,,,,,,,,,,,,,CBC_1021,003,4,3,2,20,0.95,2023-07-18_16h15.57.561,MSI_AV_v3,2022.1.1,60.04606734347593,
23,0,23,0,,,,,,,,,,3,2.0,0.0,z,27.0,1.0,4.7533305109883095,1.78643585472448,None,322.79020259999925,None,324.59215609999956,None,324.59215609999956,None,324.5902037300011,None,['z'],324.59215609999956,None,None,326.5901921000004,None,z,1.923038799999631,1,1,0.4166666666666667,331.34595380000064,None,None,331.34595380000064,None,[1.923038799999631],,,,,,,,,,,,,,,,,,,,,,,CBC_1021,003,4,3,2,20,0.95,2023-07-18_16h15.57.561,MSI_AV_v3,2022.1.1,60.04606734347593,
24,0,24,0,,,,,,,,,,1,0.0,1.0,z,63.0,1.0,2.6391747348430608,2.09887870490381,None,333.15726639999957,None,335.26716680000027,None,335.26716680000027,None,335.273359830001,None,['b'],335.26716680000027,None,None,337.2743382999997,None,b,1.5731163000000379,0,0,0.4,339.9102793000002,None,None,339.9102793000002,None,[1.5731163000000379],,,,,,,,,,,,,,,,,,,,,,,CBC_1021,003,4,3,2,20,0.95,2023-07-18_16h15.57.561,MSI_AV_v3,2022.1.1,60.04606734347593,
25,0,25,0,,,,,,,,,,2,3.0,2.0,b,63.0,1.0,2.92731383428727,1.94858485820231,None,341.7237129999994,None,343.6853030000002,None,343.6853030000002,None,343.69007373000113,None,['z'],343.6853030000002,None,None,345.68980530000044,None,z,1.4436496999987867,0,0,0.38461538461538464,348.61123729999963,None,None,348.61123729999963,None,[1.4436496999987867],,,,,,,,,,,,,,,,,,,,,,,CBC_1021,003,4,3,2,20,0.95,2023-07-18_16h15.57.561,MSI_AV_v3,2022.1.1,60.04606734347593,
26,0,26,0,,,,,,,,,,1,2.0,1.0,z,9.0,1.0,2.678526077912375,2.6299100644723,None,350.42367940000076,None,353.07448699999986,None,353.07448699999986,None,353.0737013299995,None,None,353.07448699999986,None,['z'],355.05726139999933,None,z,3.6787196999994194,1,1,0.4074074074074074,357.7238362999997,None,None,357.7238362999997,None,,[1.6787196999994194],,,,,,,,,,,,,,,,,,,,,,CBC_1021,003,4,3,2,20,0.95,2023-07-18_16h15.57.561,MSI_AV_v3,2022.1.1,60.04606734347593,
27,0,27,0,,,,,,,,,,2,3.0,1.0,b,27.0,1.0,4.40017271499661,1.96568735158996,None,359.53946019999967,None,361.5067990999996,None,361.5067990999996,None,361.5069398300011,None,['b'],361.5067990999996,None,None,363.5069509999994,None,b,1.7508458999982395,1,1,0.42857142857142855,367.91332089999923,None,None,367.91332089999923,None,[1.7508458999982395],,,,,,,,,,,,,,,,,,,,,,,CBC_1021,003,4,3,2,20,0.95,2023-07-18_16h15.57.561,MSI_AV_v3,2022.1.1,60.04606734347593,
28,0,28,0,,,,,,,,,,3,0.0,1.0,b,63.0,1.0,3.02234236141277,1.60731937853708,None,369.7228310999999,None,371.34173120000014,None,371.34173120000014,None,371.34031423000033,None,None,371.34173120000014,None,['z'],373.3237695000007,None,z,4.1620756999982405,0,0,0.41379310344827586,376.33462859999963,None,None,376.33462859999963,None,,[2.1620756999982405],,,,,,,,,,,,,,,,,,,,,,CBC_1021,003,4,3,2,20,0.95,2023-07-18_16h15.57.561,MSI_AV_v3,2022.1.1,60.04606734347593,
29,0,29,0,,,,,,,,,,3,1.0,0.0,z,63.0,1.0,4.12485271162806,1.25817747924478,None,378.14058079999995,None,379.4069254999995,None,379.4069254999995,None,379.4070997299996,None,['b'],379.4069254999995,None,None,381.4061536999998,None,b,1.3408634999996139,0,0,0.4,385.52791120000074,None,None,385.52791120000074,None,[1.3408634999996139],,,,,,,,,,,,,,,,,,,,,,,CBC_1021,003,4,3,2,20,0.95,2023-07-18_16h15.57.561,MSI_AV_v3,2022.1.1,60.04606734347593,
30,0,30,0,,,,,,,,,,0,2.0,0.0,b,27.0,1.0,2.342239579230602,0.974903167432984,None,387.34055400000034,None,388.3228600000002,None,388.3228600000002,None,388.32328743000016,None,['z'],388.3228600000002,None,None,390.3233455999998,None,z,1.089242899997771,0,0,0.3870967741935484,392.6563900000001,None,None,392.6563900000001,None,[1.089242899997771],,,,,,,,,,,,,,,,,,,,,,,CBC_1021,003,4,3,2,20,0.95,2023-07-18_16h15.57.561,MSI_AV_v3,2022.1.1,60.04606734347593,
31,0,31,0,,,,,,,,,,3,0.0,1.0,b,63.0,1.0,3.35133458220192,1.1243895841892,None,394.4571741,None,395.58227500000066,None,395.58227500000066,None,395.58962212999995,None,['z'],395.58227500000066,None,None,397.57552980000037,None,z,1.1810310000000754,0,0,0.375,400.9282554000001,None,None,400.9282554000001,None,[1.1810310000000754],,,,,,,,,,,,,,,,,,,,,,,CBC_1021,003,4,3,2,20,0.95,2023-07-18_16h15.57.561,MSI_AV_v3,2022.1.1,60.04606734347593,
32,0,32,0,,,,,,,,,,1,0.0,1.0,z,63.0,1.0,3.26539063535182,0.952147612306987,None,402.7405722000003,None,403.70903139999973,None,403.70903139999973,None,403.7073149300004,None,None,403.70903139999973,None,['b'],405.6897207000002,None,b,2.484015299998646,0,0,0.36363636363636365,408.94672999999966,None,None,408.94672999999966,None,,[0.4840152999986458],,,,,,,,,,,,,,,,,,,,,,CBC_1021,003,4,3,2,20,0.95,2023-07-18_16h15.57.561,MSI_AV_v3,2022.1.1,60.04606734347593,
33,0,33,0,,,,,,,,,,2,2.0,3.0,z,63.0,1.0,2.526044641065533,1.53243550275999,None,410.75635630000033,None,412.2878013999998,None,412.2878013999998,None,412.29050953000024,None,['z'],412.2878013999998,None,None,414.28992970000036,None,z,1.9290515999982745,1,1,0.38235294117647056,416.8294783000001,None,None,416.8294783000001,None,[1.9290515999982745],,,,,,,,,,,,,,,,,,,,,,,CBC_1021,003,4,3,2,20,0.95,2023-07-18_16h15.57.561,MSI_AV_v3,2022.1.1,60.04606734347593,
34,0,34,0,,,,,,,,,,1,1.0,3.0,b,27.0,1.0,4.77034425507967,3.33124983260532,None,418.6406559999996,None,421.9915768999999,None,421.9915768999999,None,421.9906296300005,None,None,421.9915768999999,None,['b'],423.9740535000001,None,b,2.4290333000008104,1,1,0.4,428.73542740000084,None,None,428.73542740000084,None,,[0.4290333000008104],,,,,,,,,,,,,,,,,,,,,,CBC_1021,003,4,3,2,20,0.95,2023-07-18_16h15.57.561,MSI_AV_v3,2022.1.1,60.04606734347593,
35,0,35,0,,,,,,,,,,0,2.0,3.0,b,63.0,1.0,4.72585056748869,2.78346932462847,['z'],430.54065470000023,None,433.34040409999943,None,433.34040409999943,None,433.34045412999967,None,None,433.34040409999943,None,['z'],435.3239279999998,None,z,2.5571575999983907,0,0,0.3888888888888889,440.03824390000045,None,None,440.03824390000045,None,,[0.5571575999983907],[2.7049931999990804],,,,,,,,,,,,,,,,,,,,,CBC_1021,003,4,3,2,20,0.95,2023-07-18_16h15.57.561,MSI_AV_v3,2022.1.1,60.04606734347593,
36,0,36,0,,,,,,,,,,0,0.0,2.0,z,27.0,1.0,4.46924002178158,1.25920145784721,['b'],441.84082750000016,None,443.1099178000004,None,443.1099178000004,None,443.10752563000005,None,None,443.1099178000004,None,['z'],445.09083219999957,None,z,2.4534719999992376,1,1,0.40540540540540543,449.55179080000016,None,None,449.55179080000016,None,,[0.4534719999992376],[0.960702799999126],,,,,,,,,,,,,,,,,,,,,CBC_1021,003,4,3,2,20,0.95,2023-07-18_16h15.57.561,MSI_AV_v3,2022.1.1,60.04606734347593,
37,0,37,0,,,,,,,,,,1,0.0,1.0,z,63.0,1.0,2.82320408183943,1.52290599571961,None,451.35639789999914,None,452.8909218000008,None,452.8909218000008,None,452.89059822999934,None,None,452.8909218000008,None,['b'],454.8739501,None,b,2.4166193999990355,0,0,0.39473684210526316,457.6921199999997,None,None,457.6921199999997,None,,[0.4166193999990355],,,,,,,,,,,,,,,,,,,,,,CBC_1021,003,4,3,2,20,0.95,2023-07-18_16h15.57.561,MSI_AV_v3,2022.1.1,60.04606734347593,
38,0,38,0,,,,,,,,,,3,0.0,3.0,b,9.0,1.0,3.73326136168326,1.18065738546375,None,459.50641429999996,None,460.69210380000004,None,460.69210380000004,None,460.6906377300011,None,None,460.69210380000004,None,['z'],462.6739333000005,None,z,2.3924737999986974,0,0,0.38461538461538464,466.38939290000053,None,None,466.38939290000053,None,,[0.39247379999869736],,,,,,,,,,,,,,,,,,,,,,CBC_1021,003,4,3,2,20,0.95,2023-07-18_16h15.57.561,MSI_AV_v3,2022.1.1,60.04606734347593,
39,0,39,0,,,,,,,,,,0,2.0,3.0,b,63.0,0.0,2.592312596923728,0.917519910446003,None,468.1905946000006,None,469.1250787000008,None,469.1250787000008,None,469.1242834300001,None,['z'],469.1250787000008,None,None,471.1242308000001,None,z,1.897459699999672,0,1,0.375,473.7303862000008,None,None,473.7303862000008,None,[1.897459699999672],,,,,,,,,,,,,,,,,,,,,,,CBC_1021,003,4,3,2,20,0.95,2023-07-18_16h15.57.561,MSI_AV_v3,2022.1.1,60.04606734347593,
40,0,40,0,,,,,,,,,,3,0.0,1.0,b,63.0,1.0,2.294664843639333,1.64421109900286,None,475.5407673999998,None,477.17351880000024,None,477.17351880000024,None,477.17314502000045,None,None,477.17351880000024,None,['b'],479.1577543000003,None,b,2.7068770000005316,1,1,0.3902439024390244,481.4468648999991,None,None,481.4468648999991,None,,[0.7068770000005316],,,,,,,,,,,,,,,,,,,,,,CBC_1021,003,4,3,2,20,0.95,2023-07-18_16h15.57.561,MSI_AV_v3,2022.1.1,60.04606734347593,
41,0,41,0,,,,,,,,,,2,2.0,3.0,z,63.0,1.0,2.433630701072358,1.27538462653558,None,483.2574504999993,None,484.53933789999974,None,484.53933789999974,None,484.5406487299997,None,['z'],484.53933789999974,None,None,486.54164219999984,None,z,1.8992992999992566,1,1,0.40476190476190477,488.98023680000006,None,None,488.98023680000006,None,[1.8992992999992566],,,,,,,,,,,,,,,,,,,,,,,CBC_1021,003,4,3,2,20,0.95,2023-07-18_16h15.57.561,MSI_AV_v3,2022.1.1,60.04606734347593,
42,0,42,0,,,,,,,,,,0,3.0,2.0,z,63.0,1.0,2.693348633324513,1.12425433982333,None,490.79095190000044,None,491.92408780000005,None,491.92408780000005,None,491.9241425299997,None,None,491.92408780000005,None,['b'],493.90755809999973,None,b,2.3835545999991155,0,0,0.3953488372093023,496.59421119999934,None,None,496.59421119999934,None,,[0.38355459999911545],,,,,,,,,,,,,,,,,,,,,,CBC_1021,003,4,3,2,20,0.95,2023-07-18_16h15.57.561,MSI_AV_v3,2022.1.1,60.04606734347593,
43,0,43,0,,,,,,,,,,2,3.0,1.0,b,27.0,1.0,2.7134565917469198,0.979776149765883,None,498.4075150999997,None,499.40612689999944,None,499.40612689999944,None,499.40741892999995,None,None,499.40612689999944,None,['z'],501.3907493000006,None,z,2.1592044999997597,0,0,0.38636363636363635,504.09766019999915,None,None,504.09766019999915,None,,[0.15920449999975972],,,,,,,,,,,,,,,,,,,,,,CBC_1021,003,4,3,2,20,0.95,2023-07-18_16h15.57.561,MSI_AV_v3,2022.1.1,60.04606734347593,
,,,,,,,,,,,,,,,,,,,,,,,,,,,,,,,,,,,,,,,,,,,,,,,,,None,505.90768519999983,None,,,,,,,,,,,,,,,,,,CBC_1021,003,4,3,2,20,0.95,2023-07-18_16h15.57.561,MSI_AV_v3,2022.1.1,60.04606734347593,
,,,,,,,,,,,,,,,,,,,,,,,,,,,,,,,,,,,,,,,,,,,,,,,,,,,,510.9077070000003,None,None,510.9077070000003,None,,,,,,,,,,,,,CBC_1021,003,4,3,2,20,0.95,2023-07-18_16h15.57.561,MSI_AV_v3,2022.1.1,60.04606734347593,
,,,,,,,,,,,,,,,,,,,,,,,,,,,,,,,,,,,,,,,,,,,,,,,,,,,,,,,,,z,b,easy,"[0, 1, 2, 3]","[3, 1, 0, 2]",0.36363636363636365,0.45454545454545453,0.2727272727272727,0.45454545454545453,17,1,26,,,,,,,,,,,,
