trials_runs.thisRepN,trials_runs.thisTrialN,trials_runs.thisN,trials_runs.thisIndex,standbild_start.started,standbild_start.stopped,trigger.keys,trigger.rt,trigger.started,trigger.stopped,keys_2.keys,keys_2.started,keys_2.stopped,trials_runs.tactile_stim,trials_runs.visual_stim_left,trials_runs.visual_stim_right,trials_runs.correctKey,trials_runs.presentationFrequncy,trials_runs.FBaccuracy,trials_runs.ISI_s,trials_runs.ITI_s,keys_3.keys,keys_3.started,keys_3.stopped,image_stim_left.started,image_stim_right.started,tactile.started,response_4.keys,allKeys.keys,response_4.rt,allKeys.rt,response_5.keys,response_5.started,response_5.stopped,response_runs.keys,response_runs.rt,trials_runs.correct_answer,trials_runs.feedback_given,trials_runs.running_mean,feedback_6.stopped,feedback_6.started,keys_6.keys,keys_6.started,keys_6.stopped,response_5.rt,keys_6.rt,keys_3.rt,keys_7.keys,keys_7.started,keys_7.stopped,standbild_end.started,standbild_end.stopped,Stop_exp.keys,Stop_exp.started,Stop_exp.stopped,trials_runs.rightKey,trials_runs.leftKey,ts_difficulty,visualPair,tactilePair,trials_runs.mean_acc_1stFourth,trials_runs.mean_acc_2ndFourth,trials_runs.mean_acc_3rdFourth,trials_runs.mean_acc_4thFourth,nbCorrect,nbOmissions,nbIncorrect,participant,session,visual set [1-6],tactile set [1-3],trial structure [0-3 / 4-7],pairing [0-23],prob Feedback,date,expName,psychopyVersion,frameRate,
,,,,101.39314830000149,None,t,73.67951059999905,101.39314830000149,None,,,,,,,,,,,,,,,,,,,,,,,,,,,,,,,,,,,,,,,,,,,,,,,,,,,,,,,,,,CBC_1087,003,2,3,6,16,0.95,2024-03-23_11h27.59.968,MSI_TV_v3,2022.1.1,60.347116615266756,
,,,,,,,,,,None,175.10491020000154,None,,,,,,,,,,,,,,,,,,,,,,,,,,,,,,,,,,,,,,,,,,,,,,,,,,,,,,,CBC_1087,003,2,3,6,16,0.95,2024-03-23_11h27.59.968,MSI_TV_v3,2022.1.1,60.347116615266756,
0,0,0,0,,,,,,,,,,2,1,0,z,63,1,3.02234236141277,1.25920145784721,None,175.30478340000082,None,176.53766252000042,176.53766252000042,176.55448752000103,z,['z'],1.2749251999994158,[1.2749251999994158],None,178.57933840000078,None,z,1.2749251999994158,1,1,1.0,None,181.6403560000017,None,181.6403560000017,None,,,,,,,,,,,,,,,,,,,,,,,,CBC_1087,003,2,3,6,16,0.95,2024-03-23_11h27.59.968,MSI_TV_v3,2022.1.1,60.347116615266756,
1,0,1,0,,,,,,,,,,1,3,2,b,63,1,4.77723667052879,0.917519910446003,None,183.42151040000135,None,184.3215973200002,184.3215973200002,184.33841242000182,None,[],,,['z'],186.32755580000048,None,z,2.4157508999978745,0,0,0.5,None,191.10543710000093,['b'],191.10543710000093,None,[0.4157508999978745],[1.3174695999987307],,,,,,,,,,,,,,,,,,,,,,CBC_1087,003,2,3,6,16,0.95,2024-03-23_11h27.59.968,MSI_TV_v3,2022.1.1,60.347116615266756,
2,0,2,0,,,,,,,,,,0,2,0,b,27,1,4.40017271499661,3.1963008326951,None,192.90472450000016,None,196.08814502000115,196.08814502000115,196.10477042000076,None,[],,,None,198.09194920000118,None,None,[],0,3,0.3333333333333333,None,202.49727190000158,['z'],202.49727190000158,None,,[1.4950663999989047],,,,,,,,,,,,,,,,,,,,,,CBC_1087,003,2,3,6,16,0.95,2024-03-23_11h27.59.968,MSI_TV_v3,2022.1.1,60.347116615266756,
3,0,3,0,,,,,,,,,,2,1,0,z,63,1,2.433630701072358,3.40155979865722,None,204.30498630000147,None,207.68854302000165,207.68854302000165,207.7044397200005,b,['b'],0.997775099998762,[0.997775099998762],None,209.72997230000146,None,b,0.997775099998762,0,0,0.25,None,212.1660937000015,['z'],212.1660937000015,None,,[1.3674341999994795],,,,,,,,,,,,,,,,,,,,,,CBC_1087,003,2,3,6,16,0.95,2024-03-23_11h27.59.968,MSI_TV_v3,2022.1.1,60.347116615266756,
4,0,4,0,,,,,,,,,,3,3,1,z,27,1,3.35133458220192,1.53243550275999,['z'],213.97131100000115,None,215.4880127200011,215.4880127200011,215.50459202000076,None,[],,,['z'],217.49612620000153,None,z,3.9083198999996966,1,1,0.4,None,220.86095240000031,None,220.86095240000031,None,[1.9083198999996966],,[0.31912869999905524],,,,,,,,,,,,,,,,,,,,,CBC_1087,003,2,3,6,16,0.95,2024-03-23_11h27.59.968,MSI_TV_v3,2022.1.1,60.347116615266756,
5,0,5,0,,,,,,,,,,0,2,3,b,63,1,4.46924002178158,1.53122835510861,None,222.6721602000016,None,224.18828492000085,224.18828492000085,224.20496212000018,z,['z'],1.3053664999988541,[1.3053664999988541],None,226.2322976000014,None,z,1.3053664999988541,0,0,0.3333333333333333,None,230.69887300000119,None,230.69887300000119,None,,,,,,,,,,,,,,,,,,,,,,,,CBC_1087,003,2,3,6,16,0.95,2024-03-23_11h27.59.968,MSI_TV_v3,2022.1.1,60.347116615266756,
6,0,6,0,,,,,,,,,,1,2,3,z,63,1,2.792365600763554,1.96568735158996,None,232.50470440000026,None,234.45516912000113,234.45516912000113,234.47171952000082,None,[],,,['z'],236.4590911000014,None,z,2.2579330999997183,1,1,0.42857142857142855,None,239.26480710000033,None,239.26480710000033,None,[0.25793309999971825],,,,,,,,,,,,,,,,,,,,,,,CBC_1087,003,2,3,6,16,0.95,2024-03-23_11h27.59.968,MSI_TV_v3,2022.1.1,60.347116615266756,
7,0,7,0,,,,,,,,,,3,1,0,b,63,1,2.82320408183943,1.27538462653558,None,241.05514870000115,None,242.30491412000066,242.30491412000066,242.32174172000106,None,[],,,['b'],244.30945880000036,None,b,2.0608902999993006,1,1,0.5,None,247.13691240000117,None,247.13691240000117,None,[0.06089029999930062],,,,,,,,,,,,,,,,,,,,,,,CBC_1087,003,2,3,6,16,0.95,2024-03-23_11h27.59.968,MSI_TV_v3,2022.1.1,60.347116615266756,
8,0,8,0,,,,,,,,,,2,0,2,b,27,1,2.342239579230602,2.6299100644723,None,248.93822630000068,None,251.55469882000017,251.55469882000017,251.57139372000148,z,['z'],1.0616066999991745,[1.0616066999991745],None,253.59966120000172,None,z,1.0616066999991745,0,0,0.4444444444444444,None,255.93194980000044,None,255.93194980000044,None,,,,,,,,,,,,,,,,,,,,,,,,CBC_1087,003,2,3,6,16,0.95,2024-03-23_11h27.59.968,MSI_TV_v3,2022.1.1,60.347116615266756,
9,0,9,0,,,,,,,,,,1,0,3,z,9,1,2.592312596923728,3.33124983260532,None,257.7380331000004,None,261.0549686200009,261.0549686200009,261.07165462000177,z,['z'],1.4873505999985355,[1.4873505999985355],None,263.09623530000135,None,z,1.4873505999985355,1,1,0.5,None,265.683949100001,None,265.683949100001,None,,,,,,,,,,,,,,,,,,,,,,,,CBC_1087,003,2,3,6,16,0.95,2024-03-23_11h27.59.968,MSI_TV_v3,2022.1.1,60.347116615266756,
10,0,10,0,,,,,,,,,,0,3,2,z,63,1,2.526044641065533,2.49839527409216,None,267.48802440000145,None,269.97136652000137,269.97136652000137,269.9882088200009,b,['b'],1.273702599999524,[1.273702599999524],None,272.0143136000006,None,b,1.273702599999524,0,0,0.45454545454545453,None,274.53174260000014,None,274.53174260000014,None,,,,,,,,,,,,,,,,,,,,,,,,CBC_1087,003,2,3,6,16,0.95,2024-03-23_11h27.59.968,MSI_TV_v3,2022.1.1,60.347116615266756,
11,0,11,0,,,,,,,,,,3,1,0,b,63,1,2.6391747348430608,1.21250262048173,None,276.3383373000015,None,277.53810442000014,277.53810442000014,277.55469052000063,z,['z'],1.7000661000001855,[1.7000661000001855],None,279.5802160000003,None,z,1.7000661000001855,0,0,0.4166666666666667,None,282.2150773000012,None,282.2150773000012,None,,,,,,,,,,,,,,,,,,,,,,,,CBC_1087,003,2,3,6,16,0.95,2024-03-23_11h27.59.968,MSI_TV_v3,2022.1.1,60.347116615266756,
12,0,12,0,,,,,,,,,,1,3,2,b,63,1,4.53337421950507,1.90743690794447,None,284.02101480000056,None,285.90471772000075,285.90471772000075,285.9214286200002,b,['b'],1.8789917999984027,[1.8789917999984027],None,287.94356250000055,None,b,1.8789917999984027,1,1,0.46153846153846156,None,292.4847105000008,None,292.4847105000008,None,,,,,,,,,,,,,,,,,,,,,,,,CBC_1087,003,2,3,6,16,0.95,2024-03-23_11h27.59.968,MSI_TV_v3,2022.1.1,60.347116615266756,
13,0,13,0,,,,,,,,,,0,3,2,z,63,1,2.294664843639333,2.10421507306074,None,294.2884214000005,None,296.37161162000103,296.37161162000103,296.38824882000137,b,['b'],1.6331647999995766,[1.6331647999995766],None,298.4094087000012,None,b,1.6331647999995766,0,0,0.42857142857142855,None,300.71197570000004,None,300.71197570000004,None,,,,,,,,,,,,,,,,,,,,,,,,CBC_1087,003,2,3,6,16,0.95,2024-03-23_11h27.59.968,MSI_TV_v3,2022.1.1,60.347116615266756,
14,0,14,0,,,,,,,,,,3,1,3,b,27,1,3.26539063535182,2.40378712856304,None,302.52149510000163,None,304.9047146200008,304.9047146200008,304.9214744200015,None,[],,,['z'],306.9075147000003,None,z,2.5012365999991744,0,0,0.4,None,310.17700740000146,None,310.17700740000146,None,[0.5012365999991744],,,,,,,,,,,,,,,,,,,,,,,CBC_1087,003,2,3,6,16,0.95,2024-03-23_11h27.59.968,MSI_TV_v3,2022.1.1,60.347116615266756,
15,0,15,0,,,,,,,,,,2,3,0,z,9,1,2.92731383428727,1.34668860557497,None,311.9880776000009,None,313.32193222000006,313.32193222000006,313.33857512000014,b,['b'],1.5510345999991841,[1.5510345999991841],None,315.3634634000009,None,b,1.5510345999991841,0,0,0.375,None,318.299629000001,None,318.299629000001,None,,,,,,,,,,,,,,,,,,,,,,,,CBC_1087,003,2,3,6,16,0.95,2024-03-23_11h27.59.968,MSI_TV_v3,2022.1.1,60.347116615266756,
16,0,16,0,,,,,,,,,,1,3,2,b,63,1,2.517541937862754,1.94858485820231,None,320.1049494000017,None,322.0383565200007,322.0383565200007,322.05503782000034,None,[],,,['z'],324.04285620000155,None,z,2.5526835000000574,0,0,0.35294117647058826,None,326.5588179000006,None,326.5588179000006,None,[0.5526835000000574],,,,,,,,,,,,,,,,,,,,,,,CBC_1087,003,2,3,6,16,0.95,2024-03-23_11h27.59.968,MSI_TV_v3,2022.1.1,60.347116615266756,
17,0,17,0,,,,,,,,,,0,2,0,b,27,1,4.52047235037039,3.06992456303453,None,328.3718789000013,None,331.4220619200003,331.4220619200003,331.4386248200006,z,['z'],1.9851576000000932,[1.9851576000000932],None,333.46438710000075,None,z,1.9851576000000932,0,0,0.3333333333333333,None,337.9822415000017,None,337.9822415000017,None,,,,,,,,,,,,,,,,,,,,,,,,CBC_1087,003,2,3,6,16,0.95,2024-03-23_11h27.59.968,MSI_TV_v3,2022.1.1,60.347116615266756,
18,0,18,0,,,,,,,,,,2,1,0,z,63,1,3.6438386551209,3.24569326556923,None,339.788225100001,None,343.0215703200009,343.0215703200009,343.0381675200004,b,['b'],1.436202900000353,[1.436202900000353],None,345.0655751000013,None,b,1.436202900000353,0,0,0.3157894736842105,None,348.71640580000167,None,348.71640580000167,None,,,,,,,,,,,,,,,,,,,,,,,,CBC_1087,003,2,3,6,16,0.95,2024-03-23_11h27.59.968,MSI_TV_v3,2022.1.1,60.347116615266756,
19,0,19,0,,,,,,,,,,3,0,1,z,63,0,4.01714354611405,2.09887870490381,None,350.5219108000001,None,352.6049525200013,352.6049525200013,352.62162042000074,z,['z'],1.2719521999988501,[1.2719521999988501],None,354.6481222000002,None,z,1.2719521999988501,1,0,0.35,None,358.66560520000166,None,358.66560520000166,None,,,,,,,,,,,,,,,,,,,,,,,,CBC_1087,003,2,3,6,16,0.95,2024-03-23_11h27.59.968,MSI_TV_v3,2022.1.1,60.347116615266756,
20,0,20,0,,,,,,,,,,1,1,3,z,27,1,3.76873691643126,1.52290599571961,None,360.4720034000002,None,361.97212932000167,361.97212932000167,361.98846722000036,None,[],,,['b'],363.9768305000016,None,b,2.4045188999989477,0,0,0.3333333333333333,None,367.74345430000176,None,367.74345430000176,None,[0.40451889999894775],,,,,,,,,,,,,,,,,,,,,,,CBC_1087,003,2,3,6,16,0.95,2024-03-23_11h27.59.968,MSI_TV_v3,2022.1.1,60.347116615266756,
21,0,21,0,,,,,,,,,,0,2,3,b,63,1,2.629554641171433,2.78346932462847,None,369.5552103000009,None,372.32186602000166,372.32186602000166,372.3385619200015,None,[],,,['z'],374.32681590000175,None,z,2.8275240999992093,0,0,0.3181818181818182,None,376.9588695000002,None,376.9588695000002,None,[0.8275240999992093],,,,,,,,,,,,,,,,,,,,,,,CBC_1087,003,2,3,6,16,0.95,2024-03-23_11h27.59.968,MSI_TV_v3,2022.1.1,60.347116615266756,
22,0,22,0,,,,,,,,,,3,1,0,b,63,1,4.7533305109883095,2.15533949826702,['b'],378.7717181000007,None,380.90502912000176,380.90502912000176,380.9217075200011,z,['z'],1.1970530999988114,[1.1970530999988114],None,382.9473186000014,None,z,1.1970530999988114,0,0,0.30434782608695654,None,387.69907690000036,['b'],387.69907690000036,None,,[1.0734907999976713],[0.21645770000031916],,,,,,,,,,,,,,,,,,,,,CBC_1087,003,2,3,6,16,0.95,2024-03-23_11h27.59.968,MSI_TV_v3,2022.1.1,60.347116615266756,
23,0,23,0,,,,,,,,,,2,2,0,z,27,1,3.71372710086949,0.979776149765883,None,389.5052829000015,None,390.47193812000097,390.47193812000097,390.48893242000105,b,['b'],1.250335199998517,[1.250335199998517],None,392.5147233000007,None,b,1.250335199998517,0,0,0.2916666666666667,None,396.23048650000055,['z'],396.23048650000055,None,,[1.2608017000002292],,,,,,,,,,,,,,,,,,,,,,CBC_1087,003,2,3,6,16,0.95,2024-03-23_11h27.59.968,MSI_TV_v3,2022.1.1,60.347116615266756,
24,0,24,0,,,,,,,,,,1,2,3,z,63,1,2.2759877950103027,0.80788063606262,None,398.0386176000011,None,398.8220737200007,398.8220737200007,398.83856562000057,None,[],,,['z'],400.825920700001,None,z,2.31154449999849,1,1,0.32,None,403.1122415000009,None,403.1122415000009,None,[0.3115444999984902],,,,,,,,,,,,,,,,,,,,,,,CBC_1087,003,2,3,6,16,0.95,2024-03-23_11h27.59.968,MSI_TV_v3,2022.1.1,60.347116615266756,
25,0,25,0,,,,,,,,,,0,2,0,b,27,1,4.77034425507967,1.95130344756745,None,404.92196850000073,None,406.85512122000165,406.85512122000165,406.8717388200001,b,['b'],1.0615823999978602,[1.0615823999978602],None,408.90213080000103,None,b,1.0615823999978602,1,1,0.34615384615384615,None,413.6679066000015,None,413.6679066000015,None,,,,,,,,,,,,,,,,,,,,,,,,CBC_1087,003,2,3,6,16,0.95,2024-03-23_11h27.59.968,MSI_TV_v3,2022.1.1,60.347116615266756,
26,0,26,0,,,,,,,,,,3,1,0,b,63,1,2.693348633324513,2.22427187882546,None,415.4722262000014,None,417.6717529200012,417.6717529200012,417.68830792000136,None,[],,,['b'],419.6765314000004,None,b,2.294057299999622,1,1,0.37037037037037035,None,422.3658873000004,None,422.3658873000004,None,[0.29405729999962205],,,,,,,,,,,,,,,,,,,,,,,CBC_1087,003,2,3,6,16,0.95,2024-03-23_11h27.59.968,MSI_TV_v3,2022.1.1,60.347116615266756,
27,0,27,0,,,,,,,,,,2,0,1,b,63,1,3.31929419319838,1.64421109900286,None,424.1717991000005,None,425.78872422000114,425.78872422000114,425.80533022000037,None,[],,,['z'],427.79382070000065,None,z,2.526522999998633,0,0,0.35714285714285715,None,431.11689900000056,None,431.11689900000056,None,[0.5265229999986332],,,,,,,,,,,,,,,,,,,,,,,CBC_1087,003,2,3,6,16,0.95,2024-03-23_11h27.59.968,MSI_TV_v3,2022.1.1,60.347116615266756,
28,0,28,0,,,,,,,,,,0,3,2,z,63,1,4.11514536789087,1.36309078069689,None,432.9218954000007,None,434.2721726200014,434.2721726200014,434.2886910200012,b,['b'],1.5998189999991155,[1.5998189999991155],None,436.3131142000002,None,b,1.5998189999991155,0,0,0.3448275862068966,None,440.4322568000007,None,440.4322568000007,None,,,,,,,,,,,,,,,,,,,,,,,,CBC_1087,003,2,3,6,16,0.95,2024-03-23_11h27.59.968,MSI_TV_v3,2022.1.1,60.347116615266756,
29,0,29,0,,,,,,,,,,1,3,1,b,27,1,4.190022164497369,1.12425433982333,None,442.23854420000134,None,443.33872332000084,443.33872332000084,443.3554222200017,b,['b'],1.4608853999980056,[1.4608853999980056],None,445.3781103000001,None,b,1.4608853999980056,1,1,0.36666666666666664,None,449.5850014000007,None,449.5850014000007,None,,,,,,,,,,,,,,,,,,,,,,,,CBC_1087,003,2,3,6,16,0.95,2024-03-23_11h27.59.968,MSI_TV_v3,2022.1.1,60.347116615266756,
30,0,30,0,,,,,,,,,,2,1,0,z,63,1,2.678526077912375,1.78643585472448,None,451.3887586000001,None,453.1553367200011,453.1553367200011,453.1719807200005,None,[],,,['z'],455.16017830000055,None,z,2.293123799998284,1,1,0.3870967741935484,None,457.8500350000013,None,457.8500350000013,None,[0.2931237999982841],,,,,,,,,,,,,,,,,,,,,,,CBC_1087,003,2,3,6,16,0.95,2024-03-23_11h27.59.968,MSI_TV_v3,2022.1.1,60.347116615266756,
31,0,31,0,,,,,,,,,,1,3,2,b,63,1,3.7500315165247198,1.60731937853708,None,459.65575480000007,None,461.23862812000135,461.23862812000135,461.2552663200002,b,['b'],1.9072476000001188,[1.9072476000001188],None,463.2816158000005,None,b,1.9072476000001188,1,1,0.40625,None,467.0334533000005,None,467.0334533000005,None,,,,,,,,,,,,,,,,,,,,,,,,CBC_1087,003,2,3,6,16,0.95,2024-03-23_11h27.59.968,MSI_TV_v3,2022.1.1,60.347116615266756,
32,0,32,0,,,,,,,,,,3,2,1,z,9,1,4.12485271162806,1.25817747924478,None,468.83881940000174,None,470.071787820001,470.071787820001,470.08870782000105,b,['b'],1.7778662000000622,[1.7778662000000622],None,472.11523770000167,None,b,1.7778662000000622,0,0,0.3939393939393939,None,476.2269303000012,None,476.2269303000012,None,,,,,,,,,,,,,,,,,,,,,,,,CBC_1087,003,2,3,6,16,0.95,2024-03-23_11h27.59.968,MSI_TV_v3,2022.1.1,60.347116615266756,
33,0,33,0,,,,,,,,,,2,1,0,z,63,1,3.2062024266105302,1.1243895841892,None,478.0386159000009,None,479.13893722000086,479.13893722000086,479.15536142000184,None,[],,,['b'],481.1430666000015,None,b,2.5629753999983222,0,0,0.38235294117647056,None,484.35539470000003,None,484.35539470000003,None,[0.5629753999983222],,,,,,,,,,,,,,,,,,,,,,,CBC_1087,003,2,3,6,16,0.95,2024-03-23_11h27.59.968,MSI_TV_v3,2022.1.1,60.347116615266756,
34,0,34,0,,,,,,,,,,0,2,1,b,9,1,2.7134565917469198,0.974903167432984,None,486.15524390000064,None,487.10541042000096,487.10541042000096,487.1219456200013,z,['z'],1.5636548999991646,[1.5636548999991646],None,489.15109400000074,None,z,1.5636548999991646,0,0,0.37142857142857144,None,491.8647886000017,None,491.8647886000017,None,,,,,,,,,,,,,,,,,,,,,,,,CBC_1087,003,2,3,6,16,0.95,2024-03-23_11h27.59.968,MSI_TV_v3,2022.1.1,60.347116615266756,
35,0,35,0,,,,,,,,,,3,1,0,b,63,1,2.496959177995529,2.96653053743745,None,493.6723772000005,None,496.6222379200006,496.6222379200006,496.6390588200009,b,['b'],1.6656371999979456,[1.6656371999979456],None,498.6661808000008,None,b,1.6656371999979456,1,1,0.3888888888888889,None,501.1504388000012,None,501.1504388000012,None,,,,,,,,,,,,,,,,,,,,,,,,CBC_1087,003,2,3,6,16,0.95,2024-03-23_11h27.59.968,MSI_TV_v3,2022.1.1,60.347116615266756,
36,0,36,0,,,,,,,,,,2,0,1,b,63,0,3.3728785608729996,0.77703640172831,None,502.95532040000035,None,503.7059229200002,503.7059229200002,503.72234332000136,None,[],,,['z'],505.7114388000009,None,z,2.9943767999993725,0,1,0.3783783783783784,None,509.09608050000134,None,509.09608050000134,None,[0.9943767999993725],,,,,,,,,,,,,,,,,,,,,,,CBC_1087,003,2,3,6,16,0.95,2024-03-23_11h27.59.968,MSI_TV_v3,2022.1.1,60.347116615266756,
37,0,37,0,,,,,,,,,,3,0,1,z,63,1,2.666404967794728,3.4543169006169,None,510.90515120000055,None,514.3389391200014,514.3389391200014,514.3553799200015,b,['b'],1.259475899998506,[1.259475899998506],None,516.3810211,None,b,1.259475899998506,0,0,0.3684210526315789,None,519.0488912000001,None,519.0488912000001,None,,,,,,,,,,,,,,,,,,,,,,,,CBC_1087,003,2,3,6,16,0.95,2024-03-23_11h27.59.968,MSI_TV_v3,2022.1.1,60.347116615266756,
38,0,38,0,,,,,,,,,,1,1,3,z,27,1,3.73326136168326,3.1424449555106,None,520.855774900001,None,523.9719607200002,523.9719607200002,523.9889559200017,None,[],,,['b'],525.9757265000007,None,b,2.3535406999999395,0,0,0.358974358974359,None,529.7061769000011,None,529.7061769000011,None,[0.35354069999993953],,,,,,,,,,,,,,,,,,,,,,,CBC_1087,003,2,3,6,16,0.95,2024-03-23_11h27.59.968,MSI_TV_v3,2022.1.1,60.347116615266756,
39,0,39,0,,,,,,,,,,0,3,2,z,63,1,3.68371079902891,1.18065738546375,None,531.5055920000013,None,532.6722785200016,532.6722785200016,532.6890050200016,b,['b'],1.4160546000002796,[1.4160546000002796],None,534.7154874000007,None,b,1.4160546000002796,0,0,0.35,None,538.3983034000012,None,538.3983034000012,None,,,,,,,,,,,,,,,,,,,,,,,,CBC_1087,003,2,3,6,16,0.95,2024-03-23_11h27.59.968,MSI_TV_v3,2022.1.1,60.347116615266756,
40,0,40,0,,,,,,,,,,2,0,2,b,27,1,4.82531807167306,0.952147612306987,None,540.2054608000017,None,541.1390484200017,541.1390484200017,541.1557013200015,z,['z'],1.4698493999985658,[1.4698493999985658],None,543.1816193000013,None,z,1.4698493999985658,0,0,0.34146341463414637,None,548.0006036000013,None,548.0006036000013,None,,,,,,,,,,,,,,,,,,,,,,,,CBC_1087,003,2,3,6,16,0.95,2024-03-23_11h27.59.968,MSI_TV_v3,2022.1.1,60.347116615266756,
41,0,41,0,,,,,,,,,,1,2,3,z,63,1,4.61004669244928,1.43470440954152,None,549.8057196000009,None,551.2223053200012,551.2223053200012,551.2395396200006,None,[],,,['b'],553.2264632000006,None,b,3.9660270999993372,0,0,0.3333333333333333,None,557.8377415000014,None,557.8377415000014,None,[1.9660270999993372],,,,,,,,,,,,,,,,,,,,,,,CBC_1087,003,2,3,6,16,0.95,2024-03-23_11h27.59.968,MSI_TV_v3,2022.1.1,60.347116615266756,
42,0,42,0,,,,,,,,,,3,1,3,b,27,1,4.72585056748869,1.38289892513751,None,559.6394304000005,None,561.0062718200004,561.0062718200004,561.0225131200002,b,['b'],1.7137796000006347,[1.7137796000006347],None,563.049555900001,None,b,1.7137796000006347,1,1,0.3488372093023256,None,567.7686547000012,None,567.7686547000012,None,,,,,,,,,,,,,,,,,,,,,,,,CBC_1087,003,2,3,6,16,0.95,2024-03-23_11h27.59.968,MSI_TV_v3,2022.1.1,60.347116615266756,
43,0,43,0,,,,,,,,,,0,3,2,z,63,1,2.91303524001082,0.761758675042088,None,569.5723885000007,None,570.3058520200009,570.3058520200009,570.322378820001,z,['z'],1.9850775999984762,[1.9850775999984762],None,572.3479012000007,None,z,1.9850775999984762,1,1,0.36363636363636365,None,575.2528866000011,None,575.2528866000011,None,,,,,,,,,,,,,,,,,,,,,,,,CBC_1087,003,2,3,6,16,0.95,2024-03-23_11h27.59.968,MSI_TV_v3,2022.1.1,60.347116615266756,
,,,,,,,,,,,,,,,,,,,,,,,,,,,,,,,,,,,,,,,,,,,,,,,None,577.0556757000013,None,,,,,,,,,,,,,,,,,,CBC_1087,003,2,3,6,16,0.95,2024-03-23_11h27.59.968,MSI_TV_v3,2022.1.1,60.347116615266756,
,,,,,,,,,,,,,,,,,,,,,,,,,,,,,,,,,,,,,,,,,,,,,,,,,,582.0381340000004,None,None,582.0381340000004,587.0061022000009,,,,,,,,,,,,,CBC_1087,003,2,3,6,16,0.95,2024-03-23_11h27.59.968,MSI_TV_v3,2022.1.1,60.347116615266756,
,,,,,,,,,,,,,,,,,,,,,,,,,,,,,,,,,,,,,,,,,,,,,,,,,,,,,,,z,b,hard,"[0, 1, 2, 3]","[2, 3, 0, 1]",0.45454545454545453,0.18181818181818182,0.5454545454545454,0.2727272727272727,16,1,27,,,,,,,,,,,,
