trials_runs.thisRepN,trials_runs.thisTrialN,trials_runs.thisN,trials_runs.thisIndex,standbild_start.started,standbild_start.stopped,trigger.keys,trigger.rt,trigger.started,trigger.stopped,keys_2.keys,keys_2.started,keys_2.stopped,trials_runs.auditory_stim,trials_runs.visual_stim_left,trials_runs.visual_stim_right,trials_runs.correctKey,trials_runs.presentationFrequncy,trials_runs.FBaccuracy,trials_runs.ISI_s,trials_runs.ITI_s,keys_3.keys,keys_3.started,keys_3.stopped,ImageLeft_4.started,ImageLeft_4.stopped,ImageRight_4.started,ImageRight_4.stopped,sound_4.started,sound_4.stopped,response_4.keys,response_4.rt,response_4.started,response_4.stopped,response_5.keys,response_5.started,response_5.stopped,response_runs.keys,response_runs.rt,trials_runs.correct_answer,trials_runs.feedback_given,trials_runs.running_mean,feedback_6.started,feedback_6.stopped,keys_6.keys,keys_6.started,keys_6.stopped,response_5.rt,keys_7.keys,keys_7.started,keys_7.stopped,standbild_end.started,standbild_end.stopped,Stop_exp.keys,Stop_exp.started,Stop_exp.stopped,trials_runs.rightKey,trials_runs.leftKey,ts_difficulty,visualPair,audioPair,trials_runs.mean_acc_1stFourth,trials_runs.mean_acc_2ndFourth,trials_runs.mean_acc_3rdFourth,trials_runs.mean_acc_4thFourth,participant,session,visual set [1-6],audio set [1-3],trial structure [0-3 / 4-7],pairing [0-23],prob Feedback,date,expName,psychopyVersion,frameRate,
,,,,165.16737860000103,None,t,75.44473239999934,165.16737860000103,None,,,,,,,,,,,,,,,,,,,,,,,,,,,,,,,,,,,,,,,,,,,,,,,,,,,,,,,,CBC_1006,3,2,2,4,8,0.95,2023-06-03_13h33.59.045,MSI_AV_v3,2022.1.1,59.856046208693954,
,,,,,,,,,,None,240.63755220000166,None,,,,,,,,,,,,,,,,,,,,,,,,,,,,,,,,,,,,,,,,,,,,,,,,,,,,,CBC_1006,3,2,2,4,8,0.95,2023-06-03_13h33.59.045,MSI_AV_v3,2022.1.1,59.856046208693954,
0,0,0,0,,,,,,,,,,2,1.0,0.0,b,63.0,1.0,3.956662465,3.276660373,None,240.83775870000136,None,244.18996760000118,None,244.18996760000118,None,244.18790337000155,None,['z'],[1.6499921999984508],244.18996760000118,None,None,246.12102960000084,None,z,1.6499921999984508,0,0,0.0,250.07608940000136,None,None,250.07608940000136,None,,,,,,,,,,,,,,,,,,,CBC_1006,3,2,2,4,8,0.95,2023-06-03_13h33.59.045,MSI_AV_v3,2022.1.1,59.856046208693954,
1,0,1,0,,,,,,,,,,1,1.0,0.0,z,63.0,1.0,2.117809983,2.108332021,None,252.07136970000101,None,254.2059061,None,254.2059061,None,254.20457484000144,None,None,,254.2059061,None,['b'],256.1714466000012,None,b,2.29349000000002,0,0,0.0,258.2807872000012,None,None,258.2807872000012,None,[0.2934900000000198],,,,,,,,,,,,,,,,,,CBC_1006,3,2,2,4,8,0.95,2023-06-03_13h33.59.045,MSI_AV_v3,2022.1.1,59.856046208693954,
2,0,2,0,,,,,,,,,,3,3.0,2.0,b,63.0,1.0,1.3262934849999999,1.883772966,None,260.2866076999999,None,262.20353670000077,None,262.20353670000077,None,262.2047588400019,None,['z'],[1.5488351000003604],262.20353670000077,None,None,264.18997950000085,None,z,1.5488351000003604,0,0,0.0,265.5205113000011,None,None,265.5205113000011,None,,,,,,,,,,,,,,,,,,,CBC_1006,3,2,2,4,8,0.95,2023-06-03_13h33.59.045,MSI_AV_v3,2022.1.1,59.856046208693954,
3,0,3,0,,,,,,,,,,2,1.0,2.0,b,9.0,1.0,1.887650177,3.321420384,None,267.52486920000047,None,270.8400440000005,None,270.8400440000005,None,270.8369820200005,None,['b'],[1.485325699999521],270.8400440000005,None,None,272.8373105999999,None,b,1.485325699999521,1,1,0.25,274.72909320000144,None,None,274.72909320000144,None,,,,,,,,,,,,,,,,,,,CBC_1006,3,2,2,4,8,0.95,2023-06-03_13h33.59.045,MSI_AV_v3,2022.1.1,59.856046208693954,
4,0,4,0,,,,,,,,,,1,2.0,0.0,z,27.0,1.0,1.610581685,2.128027194,None,276.73777080000036,None,278.87749900000017,None,278.87749900000017,None,278.8877622400014,None,None,,278.87749900000017,None,['z'],280.8540259000001,None,z,2.366160300000047,1,1,0.4,282.4431925000008,None,None,282.4431925000008,None,[0.36616030000004685],,,,,,,,,,,,,,,,,,CBC_1006,3,2,2,4,8,0.95,2023-06-03_13h33.59.045,MSI_AV_v3,2022.1.1,59.856046208693954,
5,0,5,0,,,,,,,,,,0,3.0,2.0,z,63.0,1.0,3.478547126,1.378098418,None,284.45426450000014,None,285.8313340000004,None,285.8313340000004,None,285.83666883000024,None,None,,285.8313340000004,None,['b'],287.80481540000073,None,b,3.5978300999995554,0,0,0.3333333333333333,291.2640642000006,None,None,291.2640642000006,None,[1.5978300999995554],,,,,,,,,,,,,,,,,,CBC_1006,3,2,2,4,8,0.95,2023-06-03_13h33.59.045,MSI_AV_v3,2022.1.1,59.856046208693954,
6,0,6,0,,,,,,,,,,3,3.0,1.0,b,27.0,1.0,2.242058058,3.388090306,None,293.27113830000053,None,296.67478370000026,None,296.67478370000026,None,296.67115943000044,None,None,,296.67478370000026,None,['z'],298.6542474000016,None,z,2.1282578999998805,0,0,0.2857142857142857,300.88911160000134,None,None,300.88911160000134,None,[0.12825789999988046],,,,,,,,,,,,,,,,,,CBC_1006,3,2,2,4,8,0.95,2023-06-03_13h33.59.045,MSI_AV_v3,2022.1.1,59.856046208693954,
7,0,7,0,,,,,,,,,,1,0.0,1.0,b,63.0,1.0,2.278602942,2.573610938,None,302.9045750000005,None,305.4856574000005,None,305.4856574000005,None,305.487407130001,None,None,,305.4856574000005,None,['b'],307.4711535000006,None,b,2.5742771000004723,1,1,0.375,309.7456170000005,None,None,309.7456170000005,None,[0.5742771000004723],,,,,,,,,,,,,,,,,,CBC_1006,3,2,2,4,8,0.95,2023-06-03_13h33.59.045,MSI_AV_v3,2022.1.1,59.856046208693954,
8,0,8,0,,,,,,,,,,0,0.0,2.0,z,27.0,1.0,2.078483356,2.962224669,None,311.75359840000056,None,314.72462070000074,None,314.72462070000074,None,314.7210898300009,None,None,,314.72462070000074,None,['b'],316.70422360000157,None,b,2.4049142000003485,0,0,0.3333333333333333,318.77402190000066,None,None,318.77402190000066,None,[0.4049142000003485],,,,,,,,,,,,,,,,,,CBC_1006,3,2,2,4,8,0.95,2023-06-03_13h33.59.045,MSI_AV_v3,2022.1.1,59.856046208693954,
9,0,9,0,,,,,,,,,,3,3.0,2.0,b,63.0,1.0,4.334629553,3.264468617,None,320.78806710000026,None,324.0760306000011,None,324.0760306000011,None,324.0879973400006,None,None,,324.0760306000011,None,['z'],326.0546456000011,None,z,2.2401840000002267,0,0,0.3,330.37574620000123,None,None,330.37574620000123,None,[0.24018400000022666],,,,,,,,,,,,,,,,,,CBC_1006,3,2,2,4,8,0.95,2023-06-03_13h33.59.045,MSI_AV_v3,2022.1.1,59.856046208693954,
10,0,10,0,,,,,,,,,,2,0.0,1.0,z,63.0,1.0,2.232488062,0.789129603,None,332.3877510000002,None,333.19434790000014,None,333.19434790000014,None,333.2048727400015,None,['b'],[1.7305804999978136],333.19434790000014,None,None,335.18720850000136,None,b,1.7305804999978136,0,0,0.2727272727272727,337.4287520000016,None,None,337.4287520000016,None,,,,,,,,,,,,,,,,,,,CBC_1006,3,2,2,4,8,0.95,2023-06-03_13h33.59.045,MSI_AV_v3,2022.1.1,59.856046208693954,
11,0,11,0,,,,,,,,,,1,1.0,0.0,z,63.0,1.0,2.67601813,2.349749758,None,339.4380374000011,None,341.8099904999999,None,341.8099904999999,None,341.8212547400017,None,None,,341.8099904999999,None,['b'],343.7880365000001,None,b,2.7085155000004306,0,0,0.25,346.4543371,None,None,346.4543371,None,[0.7085155000004306],,,,,,,,,,,,,,,,,,CBC_1006,3,2,2,4,8,0.95,2023-06-03_13h33.59.045,MSI_AV_v3,2022.1.1,59.856046208693954,
12,0,12,0,,,,,,,,,,3,3.0,2.0,b,63.0,1.0,2.949122761,1.411911144,None,348.4545396000012,None,349.8744338000015,None,349.8744338000015,None,349.88712293000117,None,None,,349.8744338000015,None,['z'],351.8547187000004,None,z,2.5463274999983696,0,0,0.23076923076923078,354.7932417000011,None,None,354.7932417000011,None,[0.5463274999983696],,,,,,,,,,,,,,,,,,CBC_1006,3,2,2,4,8,0.95,2023-06-03_13h33.59.045,MSI_AV_v3,2022.1.1,59.856046208693954,
13,0,13,0,,,,,,,,,,0,0.0,2.0,z,27.0,1.0,3.622505815,2.757001452,None,356.8049740000006,None,359.5735093000003,None,359.5735093000003,None,359.5712280300004,None,None,,359.5735093000003,None,['b'],361.55472400000144,None,b,2.432763900000282,0,0,0.21428571428571427,365.15753360000053,None,None,365.15753360000053,None,[0.43276390000028186],,,,,,,,,,,,,,,,,,CBC_1006,3,2,2,4,8,0.95,2023-06-03_13h33.59.045,MSI_AV_v3,2022.1.1,59.856046208693954,
14,0,14,0,,,,,,,,,,1,1.0,0.0,z,63.0,1.0,1.899747326,2.502774076,None,367.1717021000004,None,369.69121200000154,None,369.69121200000154,None,369.6879929300003,None,None,,369.69121200000154,None,['b'],371.6712639000016,None,b,3.0758832999999868,0,0,0.2,373.55800270000145,None,None,373.55800270000145,None,[1.0758832999999868],,,,,,,,,,,,,,,,,,CBC_1006,3,2,2,4,8,0.95,2023-06-03_13h33.59.045,MSI_AV_v3,2022.1.1,59.856046208693954,
15,0,15,0,,,,,,,,,,2,3.0,1.0,z,27.0,1.0,1.758742576,1.142638656,None,375.57072530000005,None,376.7259941000011,None,376.7259941000011,None,376.73791814000106,None,None,,376.7259941000011,None,['b'],378.7048330000016,None,b,2.632524699998612,0,0,0.1875,380.4420996000008,None,None,380.4420996000008,None,[0.632524699998612],,,,,,,,,,,,,,,,,,CBC_1006,3,2,2,4,8,0.95,2023-06-03_13h33.59.045,MSI_AV_v3,2022.1.1,59.856046208693954,
16,0,16,0,,,,,,,,,,0,2.0,3.0,b,63.0,1.0,3.278108735,1.554037824,None,382.4548896000015,None,384.02579980000155,None,384.02579980000155,None,384.0214902300004,None,None,,384.02579980000155,None,['z'],386.00494940000135,None,z,2.560873599999468,0,0,0.17647058823529413,389.2740412000003,None,None,389.2740412000003,None,[0.5608735999994678],,,,,,,,,,,,,,,,,,CBC_1006,3,2,2,4,8,0.95,2023-06-03_13h33.59.045,MSI_AV_v3,2022.1.1,59.856046208693954,
17,0,17,0,,,,,,,,,,3,3.0,2.0,b,63.0,0.0,4.21669271,2.297139377,None,391.2880513,None,393.5916803,None,393.5916803,None,393.6042591300002,None,None,,393.5916803,None,['z'],395.5880436000007,None,z,3.059781199999634,0,1,0.16666666666666666,399.7920458000008,None,None,399.7920458000008,None,[1.0597811999996338],,,,,,,,,,,,,,,,,,CBC_1006,3,2,2,4,8,0.95,2023-06-03_13h33.59.045,MSI_AV_v3,2022.1.1,59.856046208693954,
18,0,18,0,,,,,,,,,,2,0.0,1.0,z,63.0,1.0,3.501824497,2.234398566,None,401.8048940000008,None,404.06307630000083,None,404.06307630000083,None,404.07185654000205,None,['b'],[1.719290600000022],404.06307630000083,None,None,406.04176160000134,None,b,1.719290600000022,0,0,0.15789473684210525,409.54393770000024,None,None,409.54393770000024,None,,,,,,,,,,,,,,,,,,,CBC_1006,3,2,2,4,8,0.95,2023-06-03_13h33.59.045,MSI_AV_v3,2022.1.1,59.856046208693954,
19,0,19,0,,,,,,,,,,1,0.0,2.0,b,27.0,1.0,1.595506577,1.53162701,None,411.5542738000004,None,413.0934347000002,None,413.0934347000002,None,413.10486844000116,None,None,,413.0934347000002,None,['z'],415.0716714000009,None,z,2.175308399999267,0,0,0.15,416.6522316999999,None,None,416.6522316999999,None,[0.17530839999926684],,,,,,,,,,,,,,,,,,CBC_1006,3,2,2,4,8,0.95,2023-06-03_13h33.59.045,MSI_AV_v3,2022.1.1,59.856046208693954,
20,0,20,0,,,,,,,,,,3,3.0,0.0,b,9.0,1.0,2.917714675,1.75396268,None,418.65499230000023,None,420.42605530000037,None,420.42605530000037,None,420.43809414000134,None,None,,420.42605530000037,None,['b'],422.4048403000015,None,b,2.5401055999991513,1,1,0.19047619047619047,425.31281750000016,None,None,425.31281750000016,None,[0.5401055999991513],,,,,,,,,,,,,,,,,,CBC_1006,3,2,2,4,8,0.95,2023-06-03_13h33.59.045,MSI_AV_v3,2022.1.1,59.856046208693954,
21,0,21,0,,,,,,,,,,0,3.0,2.0,z,63.0,1.0,3.884449499,2.7801224,None,427.3216633000011,None,430.12610160000077,None,430.12610160000077,None,430.1217651300003,None,None,,430.12610160000077,None,['z'],432.10448890000043,None,z,2.6387932999987243,1,1,0.22727272727272727,435.9649590000008,None,None,435.9649590000008,None,[0.6387932999987243],,,,,,,,,,,,,,,,,,CBC_1006,3,2,2,4,8,0.95,2023-06-03_13h33.59.045,MSI_AV_v3,2022.1.1,59.856046208693954,
22,0,22,0,,,,,,,,,,2,1.0,3.0,b,27.0,1.0,1.6718976049999998,1.448890429,None,437.97171620000154,None,439.42642720000003,None,439.42642720000003,None,439.43730533000144,None,['b'],[1.68570550000004],439.42642720000003,None,None,441.42225450000115,None,b,1.68570550000004,1,1,0.2608695652173913,443.09584330000143,None,None,443.09584330000143,None,,,,,,,,,,,,,,,,,,,CBC_1006,3,2,2,4,8,0.95,2023-06-03_13h33.59.045,MSI_AV_v3,2022.1.1,59.856046208693954,
23,0,23,0,,,,,,,,,,0,2.0,3.0,b,63.0,1.0,2.088920167,2.935368129,None,445.10513490000085,None,448.05754590000106,None,448.05754590000106,None,448.0551155300009,None,None,,448.05754590000106,None,['b'],450.0382845000004,None,b,3.927321099998153,1,1,0.2916666666666667,452.10718070000075,None,None,452.10718070000075,None,[1.927321099998153],,,,,,,,,,,,,,,,,,CBC_1006,3,2,2,4,8,0.95,2023-06-03_13h33.59.045,MSI_AV_v3,2022.1.1,59.856046208693954,
24,0,24,0,,,,,,,,,,3,3.0,2.0,b,63.0,1.0,3.589438522,0.977134615,None,454.1219009000015,None,455.0913438000007,None,455.0913438000007,None,455.10415213000033,None,None,,455.0913438000007,None,['b'],457.07169200000135,None,b,3.0595272999998997,1,1,0.32,460.65312240000094,None,None,460.65312240000094,None,[1.0595272999998997],,,,,,,,,,,,,,,,,,CBC_1006,3,2,2,4,8,0.95,2023-06-03_13h33.59.045,MSI_AV_v3,2022.1.1,59.856046208693954,
25,0,25,0,,,,,,,,,,2,0.0,1.0,z,63.0,1.0,2.397501916,2.232990834,None,462.6544341000008,None,464.90889920000154,None,464.90889920000154,None,464.904997730001,None,None,,464.90889920000154,None,['z'],466.88841550000143,None,z,2.101436200000535,1,1,0.34615384615384615,469.26766150000003,None,None,469.26766150000003,None,[0.10143620000053488],,,,,,,,,,,,,,,,,,CBC_1006,3,2,2,4,8,0.95,2023-06-03_13h33.59.045,MSI_AV_v3,2022.1.1,59.856046208693954,
26,0,26,0,,,,,,,,,,1,3.0,0.0,z,9.0,1.0,3.044827724,1.732943574,None,471.27168970000093,None,473.00806620000003,None,473.00806620000003,None,473.02124283000103,None,None,,473.00806620000003,None,['z'],475.00573890000123,None,z,2.4963165999979537,1,1,0.37037037037037035,478.0649892000001,None,None,478.0649892000001,None,[0.49631659999795374],,,,,,,,,,,,,,,,,,CBC_1006,3,2,2,4,8,0.95,2023-06-03_13h33.59.045,MSI_AV_v3,2022.1.1,59.856046208693954,
27,0,27,0,,,,,,,,,,3,3.0,2.0,b,63.0,1.0,1.109698721,1.915207301,None,480.07173970000076,None,482.00867890000154,None,482.00867890000154,None,482.0049441300007,None,None,,482.00867890000154,None,['b'],483.9890114000009,None,b,2.9578309999978956,1,1,0.39285714285714285,485.08979870000076,None,None,485.08979870000076,None,[0.9578309999978956],,,,,,,,,,,,,,,,,,CBC_1006,3,2,2,4,8,0.95,2023-06-03_13h33.59.045,MSI_AV_v3,2022.1.1,59.856046208693954,
28,0,28,0,,,,,,,,,,0,0.0,2.0,z,27.0,1.0,2.518459073,2.071213329,None,487.10529450000104,None,489.19348920000084,None,489.19348920000084,None,489.2051790400019,None,None,,489.19348920000084,None,['z'],491.1719595000013,None,z,2.487058899998374,1,1,0.41379310344827586,493.68785370000114,None,None,493.68785370000114,None,[0.4870588999983738],,,,,,,,,,,,,,,,,,CBC_1006,3,2,2,4,8,0.95,2023-06-03_13h33.59.045,MSI_AV_v3,2022.1.1,59.856046208693954,
29,0,29,0,,,,,,,,,,1,0.0,1.0,b,63.0,1.0,1.543156518,2.684881281,None,495.68820140000025,None,498.37358380000114,None,498.37358380000114,None,498.3708628200002,None,None,,498.37358380000114,None,['b'],500.3552582000011,None,b,2.348110099999758,1,1,0.43333333333333335,501.88451560000067,None,None,501.88451560000067,None,[0.34811009999975795],,,,,,,,,,,,,,,,,,CBC_1006,3,2,2,4,8,0.95,2023-06-03_13h33.59.045,MSI_AV_v3,2022.1.1,59.856046208693954,
30,0,30,0,,,,,,,,,,2,0.0,1.0,z,63.0,1.0,4.176609572,1.483424551,None,503.88866980000057,None,505.3934074000008,None,505.3934074000008,None,505.40510624000126,None,['z'],[1.4974027999996906],505.3934074000008,None,None,507.3912831000016,None,z,1.4974027999996906,1,1,0.45161290322580644,511.5797233000012,None,None,511.5797233000012,None,,,,,,,,,,,,,,,,,,,CBC_1006,3,2,2,4,8,0.95,2023-06-03_13h33.59.045,MSI_AV_v3,2022.1.1,59.856046208693954,
31,0,31,0,,,,,,,,,,3,1.0,3.0,z,27.0,1.0,2.818459073,1.910349838,None,513.5878377000008,None,515.5008194000002,None,515.5008194000002,None,515.5101841300011,None,None,,515.5008194000002,None,['z'],517.488563500001,None,z,2.1915951000009954,1,1,0.46875,520.2990626999999,None,None,520.2990626999999,None,[0.19159510000099544],,,,,,,,,,,,,,,,,,CBC_1006,3,2,2,4,8,0.95,2023-06-03_13h33.59.045,MSI_AV_v3,2022.1.1,59.856046208693954,
32,0,32,0,,,,,,,,,,0,2.0,3.0,b,63.0,1.0,4.196249082,2.648704933,None,522.3052490999999,None,524.9767852000004,None,524.9767852000004,None,524.9885708400016,None,None,,524.9767852000004,None,['b'],526.9552282000004,None,b,2.760854099999051,1,1,0.48484848484848486,531.1467915000012,None,None,531.1467915000012,None,[0.760854099999051],,,,,,,,,,,,,,,,,,CBC_1006,3,2,2,4,8,0.95,2023-06-03_13h33.59.045,MSI_AV_v3,2022.1.1,59.856046208693954,
33,0,33,0,,,,,,,,,,2,0.0,1.0,z,63.0,1.0,2.0845750460000003,1.086048241,None,533.1556272000016,None,534.2382091,None,534.2382091,None,534.2375859200001,None,None,,534.2382091,None,['b'],536.2218016000006,None,b,2.5895311000003858,0,0,0.47058823529411764,538.2906815000006,None,None,538.2906815000006,None,[0.5895311000003858],,,,,,,,,,,,,,,,,,CBC_1006,3,2,2,4,8,0.95,2023-06-03_13h33.59.045,MSI_AV_v3,2022.1.1,59.856046208693954,
34,0,34,0,,,,,,,,,,1,1.0,0.0,z,63.0,1.0,3.869831913,1.24796184,None,540.3099846000005,None,541.5774873000009,None,541.5774873000009,None,541.5886224400019,None,None,,541.5774873000009,None,['z'],543.5555892000011,None,z,2.343829099998402,1,1,0.4857142857142857,547.4206420999999,None,None,547.4206420999999,None,[0.34382909999840194],,,,,,,,,,,,,,,,,,CBC_1006,3,2,2,4,8,0.95,2023-06-03_13h33.59.045,MSI_AV_v3,2022.1.1,59.856046208693954,
35,0,35,0,,,,,,,,,,0,2.0,1.0,b,9.0,1.0,2.742099981,1.293060736,None,549.4218755000002,None,550.7272154000002,None,550.7272154000002,None,550.7386618400014,None,None,,550.7272154000002,None,['b'],552.7054185000015,None,b,2.3478875999990123,1,1,0.5,555.4381260999999,None,None,555.4381260999999,None,[0.3478875999990123],,,,,,,,,,,,,,,,,,CBC_1006,3,2,2,4,8,0.95,2023-06-03_13h33.59.045,MSI_AV_v3,2022.1.1,59.856046208693954,
36,0,36,0,,,,,,,,,,1,0.0,1.0,b,63.0,1.0,2.372527466,1.08099246,None,557.4382787000013,None,558.5261437000008,None,558.5261437000008,None,558.5220023300017,None,None,,558.5261437000008,None,['b'],560.5053641000013,None,b,2.584646999999677,1,1,0.5135135135135135,562.8603389,None,None,562.8603389,None,[0.5846469999996771],,,,,,,,,,,,,,,,,,CBC_1006,3,2,2,4,8,0.95,2023-06-03_13h33.59.045,MSI_AV_v3,2022.1.1,59.856046208693954,
37,0,37,0,,,,,,,,,,3,1.0,3.0,z,27.0,1.0,1.90573091,2.495793893,None,564.8712887000002,None,567.3622031000014,None,567.3622031000014,None,567.3716730300011,None,None,,567.3622031000014,None,['z'],569.3554981000016,None,z,2.018983099998877,1,1,0.5263157894736842,571.2441777000004,None,None,571.2441777000004,None,[0.01898309999887715],,,,,,,,,,,,,,,,,,CBC_1006,3,2,2,4,8,0.95,2023-06-03_13h33.59.045,MSI_AV_v3,2022.1.1,59.856046208693954,
38,0,38,0,,,,,,,,,,2,1.0,0.0,b,63.0,1.0,1.874984683,0.971483559,None,573.2553863000012,None,574.2421084000016,None,574.2421084000016,None,574.2391993300016,None,None,,574.2421084000016,None,['b'],576.2219452000008,None,b,2.044365199999447,1,1,0.5384615384615384,578.0792218000006,None,None,578.0792218000006,None,[0.044365199999447213],,,,,,,,,,,,,,,,,,CBC_1006,3,2,2,4,8,0.95,2023-06-03_13h33.59.045,MSI_AV_v3,2022.1.1,59.856046208693954,
39,0,39,0,,,,,,,,,,0,3.0,2.0,z,63.0,0.0,1.219965572,1.313600181,None,580.0884955000001,None,581.4287462000011,None,581.4287462000011,None,581.438814340001,None,None,,581.4287462000011,None,None,583.4055455000016,None,[],[],0,3,0.525,584.6114538000002,None,None,584.6114538000002,None,,,,,,,,,,,,,,,,,,,CBC_1006,3,2,2,4,8,0.95,2023-06-03_13h33.59.045,MSI_AV_v3,2022.1.1,59.856046208693954,
40,0,40,0,,,,,,,,,,1,0.0,2.0,b,27.0,1.0,2.208904638,1.84422311,None,586.6228234999999,None,588.4797337,None,588.4797337,None,588.488918340001,None,['b'],[1.2475477000007231],588.4797337,None,None,590.4583694000012,None,b,1.2475477000007231,1,1,0.5365853658536586,592.6610688000001,None,None,592.6610688000001,None,,,,,,,,,,,,,,,,,,,CBC_1006,3,2,2,4,8,0.95,2023-06-03_13h33.59.045,MSI_AV_v3,2022.1.1,59.856046208693954,
41,0,41,0,,,,,,,,,,3,2.0,3.0,z,63.0,1.0,4.309752164,3.274187802,None,594.6722625000002,None,597.9604253000016,None,597.9604253000016,None,597.9722454400016,None,['z'],[1.6744278999995004],597.9604253000016,None,None,599.9585953000005,None,z,1.6744278999995004,1,1,0.5476190476190477,604.2796939,None,None,604.2796939,None,,,,,,,,,,,,,,,,,,,CBC_1006,3,2,2,4,8,0.95,2023-06-03_13h33.59.045,MSI_AV_v3,2022.1.1,59.856046208693954,
42,0,42,0,,,,,,,,,,2,1.0,3.0,b,27.0,1.0,1.556335756,2.210349838,None,606.2888735000015,None,608.4924545000013,None,608.4924545000013,None,608.504623830001,None,['b'],[1.8840321999996377],608.4924545000013,None,None,610.4906398000003,None,b,1.8840321999996377,1,1,0.5581395348837209,612.0625727000006,None,None,612.0625727000006,None,,,,,,,,,,,,,,,,,,,CBC_1006,3,2,2,4,8,0.95,2023-06-03_13h33.59.045,MSI_AV_v3,2022.1.1,59.856046208693954,
43,0,43,0,,,,,,,,,,0,3.0,2.0,z,63.0,1.0,4.268032915,2.407383959,None,614.0721959000002,None,616.4925313000003,None,616.4925313000003,None,616.4889538300004,None,None,,616.4925313000003,None,['z'],618.4723531,None,z,2.465937799999665,1,1,0.5681818181818182,622.7268819000001,None,None,622.7268819000001,None,[0.465937799999665],,,,,,,,,,,,,,,,,,CBC_1006,3,2,2,4,8,0.95,2023-06-03_13h33.59.045,MSI_AV_v3,2022.1.1,59.856046208693954,
,,,,,,,,,,,,,,,,,,,,,,,,,,,,,,,,,,,,,,,,,,,,,,,,None,624.7390811000005,None,,,,,,,,,,,,,,,CBC_1006,3,2,2,4,8,0.95,2023-06-03_13h33.59.045,MSI_AV_v3,2022.1.1,59.856046208693954,
,,,,,,,,,,,,,,,,,,,,,,,,,,,,,,,,,,,,,,,,,,,,,,,,,,,629.7390488000001,None,None,629.7390488000001,None,,,,,,,,,,CBC_1006,3,2,2,4,8,0.95,2023-06-03_13h33.59.045,MSI_AV_v3,2022.1.1,59.856046208693954,
,,,,,,,,,,,,,,,,,,,,,,,,,,,,,,,,,,,,,,,,,,,,,,,,,,,,,,,,z,b,hard,"[0, 1, 2, 3]","[1, 2, 0, 3]",0.2727272727272727,0.18181818181818182,1.0,0.8181818181818182,,,,,,,,,,,,
