trials_runs.thisRepN,trials_runs.thisTrialN,trials_runs.thisN,trials_runs.thisIndex,standbild_start.started,standbild_start.stopped,trigger.keys,trigger.rt,trigger.started,trigger.stopped,keys_2.keys,keys_2.started,keys_2.stopped,trials_runs.tactile_stim,trials_runs.visual_stim_left,trials_runs.visual_stim_right,trials_runs.correctKey,trials_runs.presentationFrequncy,trials_runs.FBaccuracy,trials_runs.ISI_s,trials_runs.ITI_s,keys_3.keys,keys_3.started,keys_3.stopped,image_stim_left.started,image_stim_right.started,tactile.started,response_4.keys,allKeys.keys,response_5.keys,response_5.rt,response_5.started,response_5.stopped,response_runs.keys,response_runs.rt,trials_runs.correct_answer,trials_runs.feedback_given,trials_runs.running_mean,feedback_6.stopped,feedback_6.started,keys_6.keys,keys_6.started,keys_6.stopped,keys_6.rt,response_4.rt,allKeys.rt,keys_3.rt,keys_7.keys,keys_7.started,keys_7.stopped,standbild_end.started,standbild_end.stopped,Stop_exp.keys,Stop_exp.started,Stop_exp.stopped,trials_runs.rightKey,trials_runs.leftKey,ts_difficulty,visualPair,tactilePair,trials_runs.mean_acc_1stFourth,trials_runs.mean_acc_2ndFourth,trials_runs.mean_acc_3rdFourth,trials_runs.mean_acc_4thFourth,nbCorrect,nbOmissions,nbIncorrect,participant,session,visual set [1-6],tactile set [1-3],trial structure [0-3 / 4-7],pairing [0-23],prob Feedback,date,expName,psychopyVersion,frameRate,
,,,,39.59178179999981,None,t,73.4583091000004,39.59178179999981,None,,,,,,,,,,,,,,,,,,,,,,,,,,,,,,,,,,,,,,,,,,,,,,,,,,,,,,,,,,CBC_1037,3,1,3,3,14,0.9,2024-01-04_13h52.51.148,MSI_TV_v3,2022.1.1,59.93597639028103,
,,,,,,,,,,None,113.08196419999967,None,,,,,,,,,,,,,,,,,,,,,,,,,,,,,,,,,,,,,,,,,,,,,,,,,,,,,,,CBC_1037,3,1,3,3,14,0.9,2024-01-04_13h52.51.148,MSI_TV_v3,2022.1.1,59.93597639028103,
0,0,0,0,,,,,,,,,,1,1.0,0.0,b,63.0,1.0,2.433630701072358,1.78643585472448,None,113.28200889999971,None,115.0483228299995,115.0483228299995,115.06480503000012,None,[],['z'],[1.1448527000002287],117.05623819999983,None,z,3.1448527000002287,0,0,0.0,None,119.50200439999935,None,119.50200439999935,None,,,,,,,,,,,,,,,,,,,,,,,,,CBC_1037,3,1,3,3,14,0.9,2024-01-04_13h52.51.148,MSI_TV_v3,2022.1.1,59.93597639028103,
1,0,1,0,,,,,,,,,,2,0.0,1.0,b,63.0,1.0,2.678526077912375,3.40155979865722,None,121.29810899999939,None,124.68055032999973,124.68055032999973,124.6975687299996,None,[],['b'],[1.2350008000003072],126.6770206000001,None,b,3.235000800000307,1,1,0.5,None,129.36027039999954,None,129.36027039999954,None,,,,,,,,,,,,,,,,,,,,,,,,,CBC_1037,3,1,3,3,14,0.9,2024-01-04_13h52.51.148,MSI_TV_v3,2022.1.1,59.93597639028103,
2,0,2,0,,,,,,,,,,0,1.0,2.0,z,9.0,1.0,2.666404967794728,2.22427187882546,None,131.1650837999996,None,133.3648480299994,133.3648480299994,133.38141652999957,None,[],['z'],[1.6966871000004176],135.36919039999975,None,z,3.6966871000004176,1,1,0.6666666666666666,None,138.03181719999975,None,138.03181719999975,None,,,,,,,,,,,,,,,,,,,,,,,,,CBC_1037,3,1,3,3,14,0.9,2024-01-04_13h52.51.148,MSI_TV_v3,2022.1.1,59.93597639028103,
3,0,3,0,,,,,,,,,,2,1.0,0.0,z,63.0,1.0,2.792365600763554,2.40378712856304,None,139.84778480000023,None,142.23184502999948,142.23184502999948,142.24846673000002,None,[],['b'],[0.8860666999999012],144.23791319999964,None,b,2.886066699999901,0,0,0.5,None,147.03872520000004,"['b', 'z']",147.03872520000004,None,"[0.8405394000001252, 1.2727846000007048]",,,,,,,,,,,,,,,,,,,,,,,,CBC_1037,3,1,3,3,14,0.9,2024-01-04_13h52.51.148,MSI_TV_v3,2022.1.1,59.93597639028103,
4,0,4,0,,,,,,,,,,3,3.0,1.0,b,27.0,1.0,4.72585056748869,1.53243550275999,None,148.84826470000007,None,150.36428862999992,150.36428862999992,150.38044092999962,None,[],['b'],[1.3457134000000224],152.35992499999975,None,b,3.3457134000000224,1,1,0.6,None,157.09843980000005,None,157.09843980000005,None,,,,,,,,,,,,,,,,,,,,,,,,,CBC_1037,3,1,3,3,14,0.9,2024-01-04_13h52.51.148,MSI_TV_v3,2022.1.1,59.93597639028103,
5,0,5,0,,,,,,,,,,1,0.0,1.0,z,63.0,1.0,4.77723667052879,2.49839527409216,None,158.89865459999965,None,161.3815203299996,161.3815203299996,161.39816982999992,None,[],['z'],[0.5590440000005401],163.38668739999957,None,z,2.55904400000054,1,1,0.6666666666666666,None,168.15639849999934,None,168.15639849999934,None,,,,,,,,,,,,,,,,,,,,,,,,,CBC_1037,3,1,3,3,14,0.9,2024-01-04_13h52.51.148,MSI_TV_v3,2022.1.1,59.93597639028103,
6,0,6,0,,,,,,,,,,0,2.0,3.0,b,63.0,1.0,2.294664843639333,0.761758675042088,None,169.96484400000008,None,170.69746222999993,170.69746222999993,170.7141447299996,None,[],['b'],[1.6624424000001454],172.69432009999946,None,b,3.6624424000001454,1,1,0.7142857142857143,None,174.99587119999978,None,174.99587119999978,None,,,,,,,,,,,,,,,,,,,,,,,,,CBC_1037,3,1,3,3,14,0.9,2024-01-04_13h52.51.148,MSI_TV_v3,2022.1.1,59.93597639028103,
7,0,7,0,,,,,,,,,,2,2.0,0.0,z,27.0,1.0,2.517541937862754,3.06992456303453,None,176.79828649999945,None,179.84828292999964,179.84828292999964,179.86488472999963,None,[],['b'],[0.0326018000005206],181.85341449999942,None,b,2.0326018000005206,0,0,0.625,None,184.36105140000018,None,184.36105140000018,None,,,,,,,,,,,,,,,,,,,,,,,,,CBC_1037,3,1,3,3,14,0.9,2024-01-04_13h52.51.148,MSI_TV_v3,2022.1.1,59.93597639028103,
8,0,8,0,,,,,,,,,,3,3.0,2.0,b,63.0,1.0,3.73326136168326,3.1963008326951,None,186.16412149999996,None,189.33159062999994,189.33159062999994,189.34821842999963,z,['z'],None,,191.35095420000016,None,z,1.8830035000000862,0,0,0.5555555555555556,None,195.09290079999937,None,195.09290079999937,None,,1.8830035000000862,[1.8830035000000862],,,,,,,,,,,,,,,,,,,,,,CBC_1037,3,1,3,3,14,0.9,2024-01-04_13h52.51.148,MSI_TV_v3,2022.1.1,59.93597639028103,
9,0,9,0,,,,,,,,,,1,3.0,1.0,z,27.0,1.0,3.31929419319838,1.53122835510861,None,196.89836060000016,None,198.41501382999968,198.41501382999968,198.43161392999946,None,[],['b'],[1.2580653000004531],200.41764869999952,None,b,3.258065300000453,0,0,0.5,None,203.73208859999977,None,203.73208859999977,None,,,,,,,,,,,,,,,,,,,,,,,,,CBC_1037,3,1,3,3,14,0.9,2024-01-04_13h52.51.148,MSI_TV_v3,2022.1.1,59.93597639028103,
10,0,10,0,,,,,,,,,,0,3.0,2.0,z,63.0,0.0,2.7134565917469198,0.974903167432984,None,205.5315369,None,206.48070063000023,206.48070063000023,206.49741812999991,None,[],['z'],[0.6114031000006435],208.47706459999972,None,z,2.6114031000006435,1,0,0.5454545454545454,None,211.19827910000004,None,211.19827910000004,None,,,,,,,,,,,,,,,,,,,,,,,,,CBC_1037,3,1,3,3,14,0.9,2024-01-04_13h52.51.148,MSI_TV_v3,2022.1.1,59.93597639028103,
11,0,11,0,,,,,,,,,,1,1.0,3.0,b,27.0,1.0,4.12485271162806,1.94858485820231,None,212.9985812999994,None,214.93187242999966,214.93187242999966,214.9480332299995,None,[],['b'],[0.721318799999608],216.92731509999976,None,b,2.721318799999608,1,1,0.5833333333333334,None,221.04067459999987,None,221.04067459999987,None,,,,,,,,,,,,,,,,,,,,,,,,,CBC_1037,3,1,3,3,14,0.9,2024-01-04_13h52.51.148,MSI_TV_v3,2022.1.1,59.93597639028103,
12,0,12,0,,,,,,,,,,0,3.0,2.0,z,63.0,1.0,2.342239579230602,3.24569326556923,None,222.84846560000005,None,226.08196602999988,226.08196602999988,226.09828912999956,None,[],['b'],[0.9855085999997755],228.08564339999975,None,b,2.9855085999997755,0,0,0.5384615384615384,None,230.42335860000003,"['z', 'z', 'b']",230.42335860000003,None,"[0.7014024999998583, 1.0634030000001076, 1.0652421000004324]",,,,,,,,,,,,,,,,,,,,,,,,CBC_1037,3,1,3,3,14,0.9,2024-01-04_13h52.51.148,MSI_TV_v3,2022.1.1,59.93597639028103,
13,0,13,0,,,,,,,,,,3,3.0,2.0,b,63.0,1.0,4.46924002178158,3.4543169006169,None,232.23089749999963,None,235.66507613000022,235.66507613000022,235.6817420299999,None,[],['z'],[0.7464804000001095],237.67044279999936,None,z,2.7464804000001095,0,0,0.5,None,242.12795659999938,None,242.12795659999938,None,,,,,,,,,,,,,,,,,,,,,,,,,CBC_1037,3,1,3,3,14,0.9,2024-01-04_13h52.51.148,MSI_TV_v3,2022.1.1,59.93597639028103,
14,0,14,0,,,,,,,,,,2,0.0,3.0,b,9.0,1.0,3.7500315165247198,1.43470440954152,None,243.93220179999935,None,245.3485172300002,245.3485172300002,245.36499292999952,None,[],['z'],[2.6139735000006112],247.34646909999992,None,z,4.613973500000611,0,0,0.4666666666666667,None,251.0923015999997,['b'],251.0923015999997,None,[1.2026007000004029],,,,,,,,,,,,,,,,,,,,,,,,CBC_1037,3,1,3,3,14,0.9,2024-01-04_13h52.51.148,MSI_TV_v3,2022.1.1,59.93597639028103,
15,0,15,0,,,,,,,,,,1,0.0,1.0,z,63.0,0.0,3.71372710086949,1.36309078069689,"['b', 'b', 'b']",252.89855230000012,None,254.2487717299996,254.2487717299996,254.26539682999964,None,[],['z'],[0.16315300000042043],256.2514824,None,z,2.1631530000004204,1,0,0.5,None,259.96673809999993,None,259.96673809999993,None,,,,"[0.015349700000115263, 0.442188800000622, 0.8523844000001191]",,,,,,,,,,,,,,,,,,,,,CBC_1037,3,1,3,3,14,0.9,2024-01-04_13h52.51.148,MSI_TV_v3,2022.1.1,59.93597639028103,
16,0,16,0,,,,,,,,,,3,2.0,3.0,z,63.0,1.0,2.629554641171433,0.917519910446003,None,261.7821438000001,None,262.68074772999944,262.68074772999944,262.69749572999945,None,[],None,,264.67730479999955,None,None,[],0,3,0.47058823529411764,None,267.35572429999957,None,267.35572429999957,None,,,,,,,,,,,,,,,,,,,,,,,,,CBC_1037,3,1,3,3,14,0.9,2024-01-04_13h52.51.148,MSI_TV_v3,2022.1.1,59.93597639028103,
17,0,17,0,,,,,,,,,,0,0.0,2.0,z,27.0,1.0,3.26539063535182,2.96653053743745,None,269.11539559999983,None,272.0652526299996,272.0652526299996,272.08198332999973,None,[],['z'],[1.0537342000006902],274.0717479999994,None,z,3.05373420000069,1,1,0.5,None,277.3441965000002,None,277.3441965000002,None,,,,,,,,,,,,,,,,,,,,,,,,,CBC_1037,3,1,3,3,14,0.9,2024-01-04_13h52.51.148,MSI_TV_v3,2022.1.1,59.93597639028103,
18,0,18,0,,,,,,,,,,2,0.0,1.0,b,63.0,1.0,3.68371079902891,2.10421507306074,None,279.14885419999973,None,281.23188013000026,281.23188013000026,281.24853032999954,None,[],['b'],[1.1864362000005713],283.2304113,None,b,3.1864362000005713,1,1,0.5263157894736842,None,286.9036089000001,None,286.9036089000001,None,,,,,,,,,,,,,,,,,,,,,,,,,CBC_1037,3,1,3,3,14,0.9,2024-01-04_13h52.51.148,MSI_TV_v3,2022.1.1,59.93597639028103,
19,0,19,0,,,,,,,,,,1,1.0,0.0,b,63.0,1.0,2.526044641065533,1.90743690794447,None,288.71530299999995,None,290.5984654299996,290.5984654299996,290.6152521299996,None,[],['z'],[0.5295556000000943],292.6031246000002,None,z,2.5295556000000943,0,0,0.5,None,295.13363839999965,None,295.13363839999965,None,,,,,,,,,,,,,,,,,,,,,,,,,CBC_1037,3,1,3,3,14,0.9,2024-01-04_13h52.51.148,MSI_TV_v3,2022.1.1,59.93597639028103,
20,0,20,0,,,,,,,,,,3,1.0,3.0,z,27.0,1.0,4.190022164497369,2.09887870490381,None,296.94914289999997,None,299.0319729299995,299.0319729299995,299.04859583000007,None,[],['b'],[0.7195617999996102],301.0285404999995,None,b,2.7195617999996102,0,0,0.47619047619047616,None,305.21101569999973,None,305.21101569999973,None,,,,,,,,,,,,,,,,,,,,,,,,,CBC_1037,3,1,3,3,14,0.9,2024-01-04_13h52.51.148,MSI_TV_v3,2022.1.1,59.93597639028103,
21,0,21,0,,,,,,,,,,0,3.0,2.0,z,63.0,1.0,2.2759877950103027,1.60731937853708,None,307.0154107999997,None,308.59860742999945,308.59860742999945,308.61544572999946,None,[],['z'],[1.6889955000006012],310.6057450999997,None,z,3.688995500000601,1,1,0.5,None,312.8899929999998,None,312.8899929999998,None,,,,,,,,,,,,,,,,,,,,,,,,,CBC_1037,3,1,3,3,14,0.9,2024-01-04_13h52.51.148,MSI_TV_v3,2022.1.1,59.93597639028103,
22,0,22,0,,,,,,,,,,2,0.0,1.0,b,63.0,1.0,4.52047235037039,1.64421109900286,None,314.6988530999997,None,316.3155272299996,316.3155272299996,316.33224672999995,z,['z'],None,,318.3574192999995,None,z,1.7697354000001724,0,0,0.4782608695652174,None,322.87602049999987,None,322.87602049999987,None,,1.7697354000001724,[1.7697354000001724],,,,,,,,,,,,,,,,,,,,,,CBC_1037,3,1,3,3,14,0.9,2024-01-04_13h52.51.148,MSI_TV_v3,2022.1.1,59.93597639028103,
23,0,23,0,,,,,,,,,,3,2.0,3.0,z,63.0,1.0,4.77034425507967,1.27538462653558,None,324.6819581,None,325.93209153,325.93209153,325.94870253,None,[],['z'],[1.522376400000212],327.9359876999997,None,z,3.522376400000212,1,1,0.5,None,332.69427039999937,None,332.69427039999937,None,,,,,,,,,,,,,,,,,,,,,,,,,CBC_1037,3,1,3,3,14,0.9,2024-01-04_13h52.51.148,MSI_TV_v3,2022.1.1,59.93597639028103,
24,0,24,0,,,,,,,,,,0,2.0,0.0,b,27.0,1.0,3.2062024266105302,1.38289892513751,None,334.49797489999946,None,335.8494180299999,335.8494180299999,335.86543992999987,None,[],['z'],[1.3217990000002828],337.85366259999955,None,z,3.321799000000283,0,0,0.48,None,341.0609324999996,"['b', 'b', 'b']",341.0609324999996,None,"[1.005135600000358, 1.3727062000007209, 1.7057708000002094]",,,,,,,,,,,,,,,,,,,,,,,,CBC_1037,3,1,3,3,14,0.9,2024-01-04_13h52.51.148,MSI_TV_v3,2022.1.1,59.93597639028103,
25,0,25,0,,,,,,,,,,2,0.0,1.0,b,63.0,1.0,4.40017271499661,1.21250262048173,None,342.86559099999977,None,344.06578313,344.06578313,344.08216632999984,None,[],['b'],[0.3179276999999274],346.0709913999999,None,b,2.3179276999999274,1,1,0.5,None,350.457504,None,350.457504,None,,,,,,,,,,,,,,,,,,,,,,,,,CBC_1037,3,1,3,3,14,0.9,2024-01-04_13h52.51.148,MSI_TV_v3,2022.1.1,59.93597639028103,
26,0,26,0,,,,,,,,,,1,1.0,3.0,b,27.0,1.0,2.592312596923728,1.96568735158996,None,352.26467409999987,None,354.19892192999987,354.19892192999987,354.2156714299995,None,[],['b'],[1.3032890000004045],356.20512939999935,None,b,3.3032890000004045,1,1,0.5185185185185185,None,358.78851249999934,None,358.78851249999934,None,,,,,,,,,,,,,,,,,,,,,,,,,CBC_1037,3,1,3,3,14,0.9,2024-01-04_13h52.51.148,MSI_TV_v3,2022.1.1,59.93597639028103,
27,0,27,0,,,,,,,,,,0,3.0,2.0,z,63.0,1.0,4.82531807167306,2.15533949826702,None,360.598978,None,362.73159372999953,362.73159372999953,362.74823373000027,None,[],None,,364.7282060999996,None,None,[],0,3,0.5,None,369.55515359999936,['z'],369.55515359999936,None,[0.9398734000005788],,,,,,,,,,,,,,,,,,,,,,,,CBC_1037,3,1,3,3,14,0.9,2024-01-04_13h52.51.148,MSI_TV_v3,2022.1.1,59.93597639028103,
28,0,28,0,,,,,,,,,,3,3.0,2.0,b,63.0,0.0,2.91303524001082,0.80788063606262,None,371.3658869000001,None,372.14902553,372.14902553,372.1658450299997,None,[],['z'],[1.6297772999996596],374.15778989999944,None,z,3.6297772999996596,0,1,0.4827586206896552,None,377.0768840999999,None,377.0768840999999,None,,,,,,,,,,,,,,,,,,,,,,,,,CBC_1037,3,1,3,3,14,0.9,2024-01-04_13h52.51.148,MSI_TV_v3,2022.1.1,59.93597639028103,
29,0,29,0,,,,,,,,,,1,0.0,1.0,z,63.0,1.0,3.3728785608729996,3.33124983260532,None,378.8829949000001,None,382.1990163300002,382.1990163300002,382.2156866299997,None,[],['b'],[0.9803602000001774],384.2044175000001,None,b,2.9803602000001774,0,0,0.4666666666666667,None,387.57021299999997,None,387.57021299999997,None,,,,,,,,,,,,,,,,,,,,,,,,,CBC_1037,3,1,3,3,14,0.9,2024-01-04_13h52.51.148,MSI_TV_v3,2022.1.1,59.93597639028103,
30,0,30,0,,,,,,,,,,2,2.0,0.0,z,27.0,1.0,2.496959177995529,3.1424449555106,None,389.3825347000002,None,392.49905773,392.49905773,392.51561422999976,z,['z'],None,,394.5417043999996,None,z,1.9945041999999376,1,1,0.4838709677419355,None,397.0447666,None,397.0447666,None,,1.9945041999999376,[1.9945041999999376],,,,,,,,,,,,,,,,,,,,,,CBC_1037,3,1,3,3,14,0.9,2024-01-04_13h52.51.148,MSI_TV_v3,2022.1.1,59.93597639028103,
31,0,31,0,,,,,,,,,,3,3.0,0.0,b,9.0,1.0,3.76873691643126,1.34668860557497,None,398.84911049999937,None,400.1823665299994,400.1823665299994,400.1990896299999,None,[],['z'],[1.9273792000003596],402.1876569999995,None,z,3.9273792000003596,0,0,0.46875,None,405.94413429999986,None,405.94413429999986,None,,,,,,,,,,,,,,,,,,,,,,,,,CBC_1037,3,1,3,3,14,0.9,2024-01-04_13h52.51.148,MSI_TV_v3,2022.1.1,59.93597639028103,
32,0,32,0,,,,,,,,,,0,3.0,2.0,z,63.0,1.0,4.7533305109883095,1.12425433982333,None,407.7492451999997,None,408.8484380300001,408.8484380300001,408.86473912999963,None,[],['z'],[0.6481889000006049],410.8435663,None,z,2.648188900000605,1,1,0.48484848484848486,None,415.6044452999995,None,415.6044452999995,None,,,,,,,,,,,,,,,,,,,,,,,,,CBC_1037,3,1,3,3,14,0.9,2024-01-04_13h52.51.148,MSI_TV_v3,2022.1.1,59.93597639028103,
33,0,33,0,,,,,,,,,,1,0.0,1.0,z,63.0,1.0,4.11514536789087,1.18065738546375,None,417.4160357999999,None,418.58246173,418.58246173,418.5992170300001,None,[],['b'],[1.8319965999999113],420.5883367999995,None,b,3.8319965999999113,0,0,0.47058823529411764,None,424.6909819000002,None,424.6909819000002,None,,,,,,,,,,,,,,,,,,,,,,,,,CBC_1037,3,1,3,3,14,0.9,2024-01-04_13h52.51.148,MSI_TV_v3,2022.1.1,59.93597639028103,
34,0,34,0,,,,,,,,,,2,0.0,1.0,b,63.0,0.0,2.92731383428727,2.6299100644723,['z'],426.4981444999994,None,429.09860073000027,429.09860073000027,429.1153929299994,b,['b'],None,,431.1329367999997,None,b,0.11797509999996691,1,0,0.4857142857142857,None,434.0586591000001,None,434.0586591000001,None,,0.11797509999996691,[0.11797509999996691],[1.388419700000668],,,,,,,,,,,,,,,,,,,,,CBC_1037,3,1,3,3,14,0.9,2024-01-04_13h52.51.148,MSI_TV_v3,2022.1.1,59.93597639028103,
35,0,35,0,,,,,,,,,,3,2.0,3.0,z,63.0,1.0,4.53337421950507,1.1243895841892,None,435.86603509999986,None,436.9646765299999,436.9646765299999,436.9815075299998,None,[],['z'],[0.3888142000005246],438.96094339999945,None,z,2.3888142000005246,1,1,0.5,None,443.4999699,None,443.4999699,None,,,,,,,,,,,,,,,,,,,,,,,,,CBC_1037,3,1,3,3,14,0.9,2024-01-04_13h52.51.148,MSI_TV_v3,2022.1.1,59.93597639028103,
36,0,36,0,,,,,,,,,,1,1.0,2.0,b,9.0,1.0,4.01714354611405,1.52290599571961,None,445.2997599,None,446.7993119299995,446.7993119299995,446.81589783000027,None,[],['z'],[1.3144811000011032],448.80347559999973,None,z,3.314481100001103,0,0,0.4864864864864865,None,452.8092827999999,None,452.8092827999999,None,,,,,,,,,,,,,,,,,,,,,,,,,CBC_1037,3,1,3,3,14,0.9,2024-01-04_13h52.51.148,MSI_TV_v3,2022.1.1,59.93597639028103,
37,0,37,0,,,,,,,,,,2,2.0,0.0,z,27.0,1.0,3.6438386551209,0.979776149765883,None,454.6149862000002,None,455.56605872999944,455.56605872999944,455.58212503000004,None,[],['b'],[2.728914000000259],457.5619164,None,b,4.728914000000259,0,0,0.47368421052631576,None,461.1928098999997,['z'],461.1928098999997,None,[0.9946855999996842],,,,,,,,,,,,,,,,,,,,,,,,CBC_1037,3,1,3,3,14,0.9,2024-01-04_13h52.51.148,MSI_TV_v3,2022.1.1,59.93597639028103,
38,0,38,0,,,,,,,,,,0,2.0,3.0,b,63.0,1.0,3.35133458220192,0.77703640172831,None,462.9992261999996,None,463.7492855300002,463.7492855300002,463.7659012299996,None,[],['z'],[0.5933741999997437],465.75361449999946,None,z,2.5933741999997437,0,0,0.46153846153846156,None,469.0982124000002,None,469.0982124000002,None,,,,,,,,,,,,,,,,,,,,,,,,,CBC_1037,3,1,3,3,14,0.9,2024-01-04_13h52.51.148,MSI_TV_v3,2022.1.1,59.93597639028103,
39,0,39,0,,,,,,,,,,3,1.0,3.0,z,27.0,1.0,2.693348633324513,1.25920145784721,None,470.8994389999998,None,472.13265252999963,472.13265252999963,472.14950632999944,None,[],['z'],[1.1338363000004392],474.13783429999967,None,z,3.1338363000004392,1,1,0.475,None,476.8320698999996,None,476.8320698999996,None,,,,,,,,,,,,,,,,,,,,,,,,,CBC_1037,3,1,3,3,14,0.9,2024-01-04_13h52.51.148,MSI_TV_v3,2022.1.1,59.93597639028103,
40,0,40,0,,,,,,,,,,2,0.0,1.0,b,63.0,1.0,2.82320408183943,2.78346932462847,None,478.6324571999994,None,481.3998859299995,481.3998859299995,481.4161004299999,None,[],['b'],[0.2806107000005795],483.40345519999937,None,b,2.2806107000005795,1,1,0.4878048780487805,None,486.22967789999984,None,486.22967789999984,None,,,,,,,,,,,,,,,,,,,,,,,,,CBC_1037,3,1,3,3,14,0.9,2024-01-04_13h52.51.148,MSI_TV_v3,2022.1.1,59.93597639028103,
41,0,41,0,,,,,,,,,,0,0.0,2.0,z,27.0,1.0,3.02234236141277,1.25817747924478,None,488.0326366999998,None,489.2664294299998,489.2664294299998,489.28291472999945,None,[],None,,491.27189589999944,None,None,[],0,3,0.47619047619047616,None,494.2925863999999,None,494.2925863999999,None,,,,,,,,,,,,,,,,,,,,,,,,,CBC_1037,3,1,3,3,14,0.9,2024-01-04_13h52.51.148,MSI_TV_v3,2022.1.1,59.93597639028103,
42,0,42,0,,,,,,,,,,3,3.0,2.0,b,63.0,1.0,4.61004669244928,1.95130344756745,None,496.09953789999963,None,498.0329410299996,498.0329410299996,498.0494985299997,None,[],['z'],[0.6531181000000288],500.0385656999997,None,z,2.653118100000029,0,0,0.46511627906976744,None,504.65190900000016,None,504.65190900000016,None,,,,,,,,,,,,,,,,,,,,,,,,,CBC_1037,3,1,3,3,14,0.9,2024-01-04_13h52.51.148,MSI_TV_v3,2022.1.1,59.93597639028103,
43,0,43,0,,,,,,,,,,1,1.0,0.0,b,63.0,1.0,2.6391747348430608,0.952147612306987,None,506.46686859999954,None,507.39956072999985,507.39956072999985,507.41616742999986,None,[],['b'],[0.7812837999999829],509.4055155999995,None,b,2.781283799999983,1,1,0.4772727272727273,None,512.0344685999999,None,512.0344685999999,None,,,,,,,,,,,,,,,,,,,,,,,,,CBC_1037,3,1,3,3,14,0.9,2024-01-04_13h52.51.148,MSI_TV_v3,2022.1.1,59.93597639028103,
,,,,,,,,,,,,,,,,,,,,,,,,,,,,,,,,,,,,,,,,,,,,,,,None,513.8491272000001,None,,,,,,,,,,,,,,,,,,CBC_1037,3,1,3,3,14,0.9,2024-01-04_13h52.51.148,MSI_TV_v3,2022.1.1,59.93597639028103,
,,,,,,,,,,,,,,,,,,,,,,,,,,,,,,,,,,,,,,,,,,,,,,,,,,518.8321968,None,None,518.8321968,523.8155998000002,,,,,,,,,,,,,CBC_1037,3,1,3,3,14,0.9,2024-01-04_13h52.51.148,MSI_TV_v3,2022.1.1,59.93597639028103,
,,,,,,,,,,,,,,,,,,,,,,,,,,,,,,,,,,,,,,,,,,,,,,,,,,,,,,,z,b,hard,"[0, 1, 2, 3]","[2, 1, 0, 3]",0.5454545454545454,0.45454545454545453,0.45454545454545453,0.45454545454545453,19,3,22,,,,,,,,,,,,
