trials_runs.thisRepN,trials_runs.thisTrialN,trials_runs.thisN,trials_runs.thisIndex,standbild_start.started,standbild_start.stopped,trigger.keys,trigger.rt,trigger.started,trigger.stopped,keys_2.keys,keys_2.started,keys_2.stopped,trials_runs.auditory_stim,trials_runs.visual_stim_left,trials_runs.visual_stim_right,trials_runs.correctKey,trials_runs.presentationFrequncy,trials_runs.FBaccuracy,trials_runs.ISI_s,trials_runs.ITI_s,keys_3.keys,keys_3.started,keys_3.stopped,ImageLeft_4.started,ImageLeft_4.stopped,ImageRight_4.started,ImageRight_4.stopped,sound_4.started,sound_4.stopped,response_4.keys,response_4.rt,response_4.started,response_4.stopped,response_5.keys,response_5.started,response_5.stopped,response_runs.keys,response_runs.rt,trials_runs.correct_answer,trials_runs.feedback_given,trials_runs.running_mean,feedback_6.started,feedback_6.stopped,keys_6.keys,keys_6.started,keys_6.stopped,response_5.rt,keys_3.rt,keys_6.rt,keys_7.keys,keys_7.started,keys_7.stopped,standbild_end.started,standbild_end.stopped,Stop_exp.keys,Stop_exp.started,Stop_exp.stopped,trials_runs.rightKey,trials_runs.leftKey,ts_difficulty,visualPair,audioPair,trials_runs.mean_acc_1stFourth,trials_runs.mean_acc_2ndFourth,trials_runs.mean_acc_3rdFourth,trials_runs.mean_acc_4thFourth,nbCorrect,nbOmissions,nbIncorrect,participant,session,visual set [1-6],audio set [1-3 / 4-6],trial structure [0-3 / 4-7],pairing [0-23],prob Feedback,date,expName,psychopyVersion,frameRate,
,,,,155.26289150000048,None,t,89.38540410000041,155.26289150000048,None,,,,,,,,,,,,,,,,,,,,,,,,,,,,,,,,,,,,,,,,,,,,,,,,,,,,,,,,,,,,,CBC_1122,001,4,2,5,3,0.95,2024-08-25_13h40.21.283,MSI_AV_v3,2022.1.1,59.86880350384423,
,,,,,,,,,,None,244.66654160000053,None,,,,,,,,,,,,,,,,,,,,,,,,,,,,,,,,,,,,,,,,,,,,,,,,,,,,,,,,,,CBC_1122,001,4,2,5,3,0.95,2024-08-25_13h40.21.283,MSI_AV_v3,2022.1.1,59.86880350384423,
0,0,0,0,,,,,,,,,,2,0,1,z,63,1,2.666404967794728,0.979776149765883,None,244.8665058000006,None,245.9929843,None,245.9929843,None,245.9989322100003,None,['z'],[1.7637328000000707],245.9929843,None,None,247.8538023000001,None,z,1.7637328000000707,1,1,1.0,250.52493030000005,None,None,250.52493030000005,None,,,,,,,,,,,,,,,,,,,,,,,,CBC_1122,001,4,2,5,3,0.95,2024-08-25_13h40.21.283,MSI_AV_v3,2022.1.1,59.86880350384423,
1,0,1,0,,,,,,,,,,1,2,3,z,63,1,3.26539063535182,3.4543169006169,None,252.31631890000062,None,255.8267435000007,None,255.8267435000007,None,255.83273575999993,None,['b'],[1.6945826000001034],255.8267435000007,None,None,257.76705370000036,None,b,1.6945826000001034,0,0,0.5,261.0321958000004,None,None,261.0321958000004,None,,,,,,,,,,,,,,,,,,,,,,,,CBC_1122,001,4,2,5,3,0.95,2024-08-25_13h40.21.283,MSI_AV_v3,2022.1.1,59.86880350384423,
2,0,2,0,,,,,,,,,,2,1,3,b,27,1,3.76873691643126,1.94858485820231,None,262.8333467000002,None,264.80741579999994,None,264.80741579999994,None,264.8168704400006,None,['z'],[1.6007564999999886],264.80741579999994,None,None,266.80335900000046,None,z,1.6007564999999886,0,0,0.3333333333333333,270.5707078000005,None,None,270.5707078000005,None,,,,,,,,,,,,,,,,,,,,,,,,CBC_1122,001,4,2,5,3,0.95,2024-08-25_13h40.21.283,MSI_AV_v3,2022.1.1,59.86880350384423,
3,0,3,0,,,,,,,,,,3,3,2,z,63,1,2.2759877950103027,2.15533949826702,None,272.38286080000034,None,274.5817138000002,None,274.5817138000002,None,274.58373045000053,None,None,,274.5817138000002,None,['b'],276.5319618000003,None,b,2.8385935999995127,0,0,0.25,278.7931804,None,None,278.7931804,None,[0.8385935999995127],,,,,,,,,,,,,,,,,,,,,,,CBC_1122,001,4,2,5,3,0.95,2024-08-25_13h40.21.283,MSI_AV_v3,2022.1.1,59.86880350384423,
4,0,4,0,,,,,,,,,,3,2,0,b,27,1,3.02234236141277,1.18065738546375,None,280.59973790000004,None,281.79256609999993,None,281.79256609999993,None,281.7994467300004,None,None,,281.79256609999993,None,['b'],283.7821025000003,None,b,2.366277699999955,1,1,0.4,286.78866480000033,None,None,286.78866480000033,None,[0.3662776999999551],,,,,,,,,,,,,,,,,,,,,,,CBC_1122,001,4,2,5,3,0.95,2024-08-25_13h40.21.283,MSI_AV_v3,2022.1.1,59.86880350384423,
5,0,5,0,,,,,,,,,,0,3,0,z,9,1,3.7500315165247198,2.09887870490381,None,288.5998147999999,None,290.7480278000003,None,290.7480278000003,None,290.7499848500006,None,None,,290.7480278000003,None,['z'],292.6999297000002,None,z,2.044855699999971,1,1,0.5,296.432194,None,None,296.432194,None,[0.044855699999970966],,,,,,,,,,,,,,,,,,,,,,,CBC_1122,001,4,2,5,3,0.95,2024-08-25_13h40.21.283,MSI_AV_v3,2022.1.1,59.86880350384423,
6,0,6,0,,,,,,,,,,3,3,2,z,63,1,3.6438386551209,1.36309078069689,None,298.2330359000007,None,299.6042360000001,None,299.6042360000001,None,299.61601023,None,None,,299.6042360000001,None,None,301.5996846000007,None,[],[],0,3,0.42857142857142855,305.22261609999987,None,None,305.22261609999987,None,,,,,,,,,,,,,,,,,,,,,,,,CBC_1122,001,4,2,5,3,0.95,2024-08-25_13h40.21.283,MSI_AV_v3,2022.1.1,59.86880350384423,
7,0,7,0,,,,,,,,,,0,0,1,b,63,1,4.190022164497369,2.49839527409216,['z'],307.0324005000002,None,309.52347929999996,None,309.52347929999996,None,309.53260703000063,None,None,,309.52347929999996,None,['z'],311.51631460000044,None,z,2.2193807999992714,0,0,0.375,315.6874514000001,None,None,315.6874514000001,None,[0.2193807999992714],[1.122496900000442],,,,,,,,,,,,,,,,,,,,,,CBC_1122,001,4,2,5,3,0.95,2024-08-25_13h40.21.283,MSI_AV_v3,2022.1.1,59.86880350384423,
8,0,8,0,,,,,,,,,,1,3,2,b,63,1,4.01714354611405,0.77703640172831,None,317.49920380000003,None,318.2909219000003,None,318.2909219000003,None,318.2997941400001,None,None,,318.2909219000003,None,['z'],320.2665530000004,None,z,3.9249823000000106,0,0,0.3333333333333333,324.28949809999995,None,None,324.28949809999995,None,[1.9249823000000106],,,,,,,,,,,,,,,,,,,,,,,CBC_1122,001,4,2,5,3,0.95,2024-08-25_13h40.21.283,MSI_AV_v3,2022.1.1,59.86880350384423,
9,0,9,0,,,,,,,,,,3,2,3,b,63,1,4.61004669244928,1.38289892513751,None,326.0996992999999,None,327.4909382000005,None,327.4909382000005,None,327.4987970299998,None,['b'],[1.739789700000074],327.4909382000005,None,None,329.4807905000007,None,b,1.739789700000074,1,1,0.4,334.0904926000003,None,None,334.0904926000003,None,,,,,,,,,,,,,,,,,,,,,,,,CBC_1122,001,4,2,5,3,0.95,2024-08-25_13h40.21.283,MSI_AV_v3,2022.1.1,59.86880350384423,
10,0,10,0,,,,,,,,,,1,1,3,z,27,1,2.517541937862754,1.96568735158996,None,335.8999647999999,None,337.8690824000005,None,337.8690824000005,None,337.8660401200001,None,None,,337.8690824000005,None,['b'],339.8666662000005,None,b,2.4615727000000334,0,0,0.36363636363636365,342.37381040000037,None,None,342.37381040000037,None,[0.46157270000003336],,,,,,,,,,,,,,,,,,,,,,,CBC_1122,001,4,2,5,3,0.95,2024-08-25_13h40.21.283,MSI_AV_v3,2022.1.1,59.86880350384423,
11,0,11,0,,,,,,,,,,0,1,0,z,63,0,4.53337421950507,2.10421507306074,None,344.1833847000007,None,346.3034518000004,None,346.3034518000004,None,346.29983803000044,None,None,,346.3034518000004,None,['z'],348.2823292000003,None,z,2.4822485000004235,1,0,0.4166666666666667,352.80059430000074,None,None,352.80059430000074,None,[0.4822485000004235],,,,,,,,,,,,,,,,,,,,,,,CBC_1122,001,4,2,5,3,0.95,2024-08-25_13h40.21.283,MSI_AV_v3,2022.1.1,59.86880350384423,
12,0,12,0,,,,,,,,,,3,2,3,b,63,1,2.294664843639333,1.12425433982333,None,354.5998173000007,None,355.72128410000005,None,355.72128410000005,None,355.7324929300002,None,None,,355.72128410000005,None,['b'],357.699885,None,b,2.5699752000000444,1,1,0.46153846153846156,359.9862419000001,None,None,359.9862419000001,None,[0.5699752000000444],,,,,,,,,,,,,,,,,,,,,,,CBC_1122,001,4,2,5,3,0.95,2024-08-25_13h40.21.283,MSI_AV_v3,2022.1.1,59.86880350384423,
13,0,13,0,,,,,,,,,,0,0,2,b,27,1,3.3728785608729996,1.25920145784721,None,361.79988330000015,None,363.07203610000033,None,363.07203610000033,None,363.08356234,None,None,,363.07203610000033,None,['z'],365.0500302999999,None,z,3.772544899999957,0,0,0.42857142857142855,368.4125774000004,None,None,368.4125774000004,None,[1.7725448999999571],,,,,,,,,,,,,,,,,,,,,,,CBC_1122,001,4,2,5,3,0.95,2024-08-25_13h40.21.283,MSI_AV_v3,2022.1.1,59.86880350384423,
14,0,14,0,,,,,,,,,,2,0,1,z,63,1,3.31929419319838,1.90743690794447,None,370.21641700000055,None,372.1375102000002,None,372.1375102000002,None,372.1337524300006,None,None,,372.1375102000002,None,['z'],374.11605750000035,None,z,2.675984000000426,1,1,0.4666666666666667,377.42370440000013,None,None,377.42370440000013,None,[0.675984000000426],,,,,,,,,,,,,,,,,,,,,,,CBC_1122,001,4,2,5,3,0.95,2024-08-25_13h40.21.283,MSI_AV_v3,2022.1.1,59.86880350384423,
15,0,15,0,,,,,,,,,,1,3,2,b,63,1,2.629554641171433,1.27538462653558,None,379.2332399000006,None,380.52064990000054,None,380.52064990000054,None,380.51659963000014,None,['z'],[1.4961304000007658],380.52064990000054,None,None,382.5133842000005,None,z,1.4961304000007658,0,0,0.4375,385.1345973000007,None,None,385.1345973000007,None,,,,,,,,,,,,,,,,,,,,,,,,CBC_1122,001,4,2,5,3,0.95,2024-08-25_13h40.21.283,MSI_AV_v3,2022.1.1,59.86880350384423,
16,0,16,0,,,,,,,,,,2,1,2,b,9,1,4.77034425507967,1.25817747924478,None,386.9500779,None,388.2220156000003,None,388.2220156000003,None,388.2331446400005,None,None,,388.2220156000003,None,['z'],390.1996213000002,None,z,2.0309735999999248,0,0,0.4117647058823529,394.95567850000043,None,None,394.95567850000043,None,[0.030973599999924772],,,,,,,,,,,,,,,,,,,,,,,CBC_1122,001,4,2,5,3,0.95,2024-08-25_13h40.21.283,MSI_AV_v3,2022.1.1,59.86880350384423,
17,0,17,0,,,,,,,,,,1,1,3,z,27,1,2.342239579230602,1.78643585472448,None,396.76582529999996,None,398.56793480000033,None,398.56793480000033,None,398.5664362300003,None,None,,398.56793480000033,None,['b'],400.54991659999996,None,b,3.5900480999998763,0,0,0.3888888888888889,402.8784546000006,None,None,402.8784546000006,None,[1.5900480999998763],,,,,,,,,,,,,,,,,,,,,,,CBC_1122,001,4,2,5,3,0.95,2024-08-25_13h40.21.283,MSI_AV_v3,2022.1.1,59.86880350384423,
18,0,18,0,,,,,,,,,,0,0,1,b,63,1,2.7134565917469198,2.40378712856304,None,404.6834908000001,None,407.0873141000002,None,407.0873141000002,None,407.09957622999985,None,None,,407.0873141000002,None,['z'],409.0668374000006,None,z,2.4668642000006002,0,0,0.3684210526315789,411.7634489000002,None,None,411.7634489000002,None,[0.46686420000060025],,,,,,,,,,,,,,,,,,,,,,,CBC_1122,001,4,2,5,3,0.95,2024-08-25_13h40.21.283,MSI_AV_v3,2022.1.1,59.86880350384423,
19,0,19,0,,,,,,,,,,0,1,0,z,63,1,3.35133458220192,3.33124983260532,None,413.56659110000055,None,416.9223225000005,None,416.9223225000005,None,416.9336336400003,None,None,,416.9223225000005,None,['z'],418.90053590000025,None,z,2.301621200000227,1,1,0.4,422.2353853000004,None,None,422.2353853000004,None,[0.30162120000022696],,,,,,,,,,,,,,,,,,,,,,,CBC_1122,001,4,2,5,3,0.95,2024-08-25_13h40.21.283,MSI_AV_v3,2022.1.1,59.86880350384423,
20,0,20,0,,,,,,,,,,3,2,0,b,27,1,2.91303524001082,2.6299100644723,None,424.05036819999987,None,426.7047783000007,None,426.7047783000007,None,426.69998153000046,None,None,,426.7047783000007,None,['b'],428.6833665000004,None,b,3.716394400000354,1,1,0.42857142857142855,431.5953468000007,None,None,431.5953468000007,None,[1.716394400000354],,,,,,,,,,,,,,,,,,,,,,,CBC_1122,001,4,2,5,3,0.95,2024-08-25_13h40.21.283,MSI_AV_v3,2022.1.1,59.86880350384423,
21,0,21,0,,,,,,,,,,2,0,1,z,63,1,4.11514536789087,0.80788063606262,None,433.3998003000006,None,434.22313720000056,None,434.22313720000056,None,434.2334259400006,None,None,,434.22313720000056,None,['z'],436.2000269,None,z,2.7335284000000684,1,1,0.45454545454545453,440.30459599999995,None,None,440.30459599999995,None,[0.7335284000000684],,,,,,,,,,,,,,,,,,,,,,,CBC_1122,001,4,2,5,3,0.95,2024-08-25_13h40.21.283,MSI_AV_v3,2022.1.1,59.86880350384423,
22,0,22,0,,,,,,,,,,3,2,0,b,27,1,2.792365600763554,2.78346932462847,None,442.1163864,None,444.92181960000016,None,444.92181960000016,None,444.93371203999976,None,None,,444.92181960000016,None,None,446.9001237000002,None,[],[],0,3,0.43478260869565216,449.6711208000006,None,['z'],449.6711208000006,None,,,[1.4310246000004554],,,,,,,,,,,,,,,,,,,,,CBC_1122,001,4,2,5,3,0.95,2024-08-25_13h40.21.283,MSI_AV_v3,2022.1.1,59.86880350384423,
23,0,23,0,,,,,,,,,,1,3,2,b,63,1,2.693348633324513,1.64421109900286,None,451.4832636000001,None,453.1365798000006,None,453.1365798000006,None,453.14909463,None,None,,453.1365798000006,None,['z'],455.1163393000006,None,z,2.348048299999391,0,0,0.4166666666666667,457.80271450000055,None,None,457.80271450000055,None,[0.348048299999391],,,,,,,,,,,,,,,,,,,,,,,CBC_1122,001,4,2,5,3,0.95,2024-08-25_13h40.21.283,MSI_AV_v3,2022.1.1,59.86880350384423,
24,0,24,0,,,,,,,,,,0,1,0,z,63,1,4.72585056748869,1.53122835510861,None,459.61678420000044,None,461.1663746000004,None,461.1663746000004,None,461.1665193300004,None,None,,461.1663746000004,None,['b'],463.14893440000014,None,b,2.723846799999592,0,0,0.4,467.8695011,None,None,467.8695011,None,[0.7238467999995919],,,,,,,,,,,,,,,,,,,,,,,CBC_1122,001,4,2,5,3,0.95,2024-08-25_13h40.21.283,MSI_AV_v3,2022.1.1,59.86880350384423,
25,0,25,0,,,,,,,,,,3,3,2,z,63,1,2.526044641065533,0.952147612306987,None,469.68372309999995,None,470.6564877999999,None,470.6564877999999,None,470.66686834000046,None,None,,470.6564877999999,None,['z'],472.63337219999994,None,z,2.9045399999995425,1,1,0.4230769230769231,475.14555440000004,None,None,475.14555440000004,None,[0.9045399999995425],,,,,,,,,,,,,,,,,,,,,,,CBC_1122,001,4,2,5,3,0.95,2024-08-25_13h40.21.283,MSI_AV_v3,2022.1.1,59.86880350384423,
26,0,26,0,,,,,,,,,,0,2,0,z,27,1,3.73326136168326,2.22427187882546,None,476.9504020000004,None,479.1817252000001,None,479.1817252000001,None,479.1832889300003,None,None,,479.1817252000001,None,None,481.16571060000024,None,[],[],0,3,0.4074074074074074,484.8897491000007,None,['z'],484.8897491000007,None,,,[1.4345811000002868],,,,,,,,,,,,,,,,,,,,,CBC_1122,001,4,2,5,3,0.95,2024-08-25_13h40.21.283,MSI_AV_v3,2022.1.1,59.86880350384423,
27,0,27,0,,,,,,,,,,1,3,2,b,63,1,2.592312596923728,3.1963008326951,['z'],486.7002435000004,None,489.9222410000002,None,489.9222410000002,None,489.9338111400004,None,None,,489.9222410000002,None,['z'],491.90084970000044,None,z,2.791164799999933,0,0,0.39285714285714285,494.4899759,None,None,494.4899759,None,[0.7911647999999332],[0.5693415000005189],,,,,,,,,,,,,,,,,,,,,,CBC_1122,001,4,2,5,3,0.95,2024-08-25_13h40.21.283,MSI_AV_v3,2022.1.1,59.86880350384423,
28,0,28,0,,,,,,,,,,1,3,2,b,63,1,3.71372710086949,1.43470440954152,None,496.2991428000005,None,497.75511260000076,None,497.75511260000076,None,497.75058953,None,None,,497.75511260000076,None,['b'],499.7333500000004,None,b,2.8028417999994417,1,1,0.41379310344827586,503.4400738000004,None,None,503.4400738000004,None,[0.8028417999994417],,,,,,,,,,,,,,,,,,,,,,,CBC_1122,001,4,2,5,3,0.95,2024-08-25_13h40.21.283,MSI_AV_v3,2022.1.1,59.86880350384423,
29,0,29,0,,,,,,,,,,2,3,1,z,27,1,2.6391747348430608,3.24569326556923,None,505.2501140000004,None,508.52176229999986,None,508.52176229999986,None,508.5336512400001,None,None,,508.52176229999986,None,['z'],510.50016510000023,None,z,2.922572200000104,1,1,0.43333333333333335,513.1382645000003,None,None,513.1382645000003,None,[0.9225722000001042],,,,,,,,,,,,,,,,,,,,,,,CBC_1122,001,4,2,5,3,0.95,2024-08-25_13h40.21.283,MSI_AV_v3,2022.1.1,59.86880350384423,
30,0,30,0,,,,,,,,,,1,0,3,z,9,1,2.433630701072358,0.917519910446003,None,514.9504425000005,None,515.8894288000001,None,515.8894288000001,None,515.9006127399999,None,None,,515.8894288000001,None,['z'],517.8670628,None,z,2.976972000000387,1,1,0.45161290322580644,520.2973308,None,None,520.2973308,None,[0.9769720000003872],,,,,,,,,,,,,,,,,,,,,,,CBC_1122,001,4,2,5,3,0.95,2024-08-25_13h40.21.283,MSI_AV_v3,2022.1.1,59.86880350384423,
31,0,31,0,,,,,,,,,,2,1,0,b,63,1,4.40017271499661,3.40155979865722,None,522.0992784999999,None,525.5212091000003,None,525.5212091000003,None,525.5169591299999,None,['z'],[1.3254550999999992],525.5212091000003,None,None,527.5080785,None,z,1.3254550999999992,0,0,0.4375,531.9062092000004,None,None,531.9062092000004,None,,,,,,,,,,,,,,,,,,,,,,,,CBC_1122,001,4,2,5,3,0.95,2024-08-25_13h40.21.283,MSI_AV_v3,2022.1.1,59.86880350384423,
32,0,32,0,,,,,,,,,,0,1,0,z,63,1,2.496959177995529,2.96653053743745,None,533.7172409000004,None,536.7066545000007,None,536.7066545000007,None,536.7170583400003,None,None,,536.7066545000007,None,['z'],538.6833968999999,None,z,2.3592859000000317,1,1,0.45454545454545453,541.1782205,None,None,541.1782205,None,[0.3592859000000317],,,,,,,,,,,,,,,,,,,,,,,CBC_1122,001,4,2,5,3,0.95,2024-08-25_13h40.21.283,MSI_AV_v3,2022.1.1,59.86880350384423,
33,0,33,0,,,,,,,,,,2,1,0,b,63,1,3.68371079902891,1.34668860557497,None,542.9836187999999,None,544.3516798999999,None,544.3516798999999,None,544.3503098300006,None,None,,544.3516798999999,None,['z'],546.3337301000001,None,z,2.4308955999995305,0,0,0.4411764705882353,550.0053112000005,None,None,550.0053112000005,None,[0.43089559999953053],,,,,,,,,,,,,,,,,,,,,,,CBC_1122,001,4,2,5,3,0.95,2024-08-25_13h40.21.283,MSI_AV_v3,2022.1.1,59.86880350384423,
34,0,34,0,,,,,,,,,,3,3,2,z,63,1,4.46924002178158,3.1424449555106,['b'],551.8170534999999,None,554.9713307000002,None,554.9713307000002,None,554.9672460300006,None,None,,554.9713307000002,None,"['b', 'z']",556.9501772000003,None,b,2.3389264000006733,0,0,0.42857142857142855,561.4038221999999,None,None,561.4038221999999,None,"[0.3389264000006733, 0.3617479000004096]",[0.5853966999993645],,,,,,,,,,,,,,,,,,,,,,CBC_1122,001,4,2,5,3,0.95,2024-08-25_13h40.21.283,MSI_AV_v3,2022.1.1,59.86880350384423,
35,0,35,0,,,,,,,,,,0,0,2,b,27,1,2.92731383428727,1.53243550275999,None,563.2161368000006,None,564.7565766000007,None,564.7565766000007,None,564.7510552299999,None,None,,564.7565766000007,None,['b'],566.7333957999999,None,b,2.5952246999995623,1,1,0.4444444444444444,569.6454561,None,None,569.6454561,None,[0.5952246999995623],,,,,,,,,,,,,,,,,,,,,,,CBC_1122,001,4,2,5,3,0.95,2024-08-25_13h40.21.283,MSI_AV_v3,2022.1.1,59.86880350384423,
36,0,36,0,,,,,,,,,,2,1,0,b,63,1,4.7533305109883095,1.21250262048173,None,571.4503568,None,572.6854389999999,None,572.6854389999999,None,572.6836977299998,None,['b'],[1.312845900000866],572.6854389999999,None,None,574.6830892000007,None,b,1.312845900000866,1,1,0.4594594594594595,579.4419211000004,None,None,579.4419211000004,None,,,,,,,,,,,,,,,,,,,,,,,,CBC_1122,001,4,2,5,3,0.95,2024-08-25_13h40.21.283,MSI_AV_v3,2022.1.1,59.86880350384423,
37,0,37,0,,,,,,,,,,2,3,1,z,27,1,4.82531807167306,1.1243895841892,None,581.2503201,None,582.3857662999999,None,582.3857662999999,None,582.3837519300004,None,['b'],[1.8416151000001264],582.3857662999999,None,None,584.3854045000007,None,b,1.8416151000001264,0,0,0.4473684210526316,589.2242856000003,None,None,589.2242856000003,None,,,,,,,,,,,,,,,,,,,,,,,,CBC_1122,001,4,2,5,3,0.95,2024-08-25_13h40.21.283,MSI_AV_v3,2022.1.1,59.86880350384423,
38,0,38,0,,,,,,,,,,3,3,2,z,63,1,4.52047235037039,1.60731937853708,None,591.0335972000003,None,592.6546582000001,None,592.6546582000001,None,592.6504986300005,None,None,,592.6546582000001,None,['z'],594.6338844000002,None,z,2.453052399999251,1,1,0.46153846153846156,599.1452168000005,None,None,599.1452168000005,None,[0.45305239999925107],,,,,,,,,,,,,,,,,,,,,,,CBC_1122,001,4,2,5,3,0.95,2024-08-25_13h40.21.283,MSI_AV_v3,2022.1.1,59.86880350384423,
39,0,39,0,,,,,,,,,,1,3,1,b,27,1,3.2062024266105302,0.761758675042088,None,600.9506000000001,None,601.7183787000004,None,601.7183787000004,None,601.7165896199999,None,None,,601.7183787000004,None,['b'],603.7175242000003,None,b,2.4673468000000867,1,1,0.475,606.9035896000005,None,None,606.9035896000005,None,[0.46734680000008666],,,,,,,,,,,,,,,,,,,,,,,CBC_1122,001,4,2,5,3,0.95,2024-08-25_13h40.21.283,MSI_AV_v3,2022.1.1,59.86880350384423,
40,0,40,0,,,,,,,,,,3,1,2,z,9,1,2.678526077912375,1.95130344756745,None,608.7176509999999,None,610.6877998,None,610.6877998,None,610.6838416300005,None,None,,610.6877998,None,['z'],612.6671096999999,None,z,2.725063599999885,1,1,0.4878048780487805,615.3392763000002,None,None,615.3392763000002,None,[0.7250635999998849],,,,,,,,,,,,,,,,,,,,,,,CBC_1122,001,4,2,5,3,0.95,2024-08-25_13h40.21.283,MSI_AV_v3,2022.1.1,59.86880350384423,
41,0,41,0,,,,,,,,,,2,0,1,z,63,0,4.12485271162806,3.06992456303453,None,617.1505542000004,None,620.2394131000001,None,620.2394131000001,None,620.2507159400003,None,None,,620.2394131000001,None,['z'],622.2171809000001,None,z,2.037520500000028,1,0,0.5,626.3307702000002,None,None,626.3307702000002,None,[0.03752050000002782],,,,,,,,,,,,,,,,,,,,,,,CBC_1122,001,4,2,5,3,0.95,2024-08-25_13h40.21.283,MSI_AV_v3,2022.1.1,59.86880350384423,
42,0,42,0,,,,,,,,,,1,3,2,b,63,1,4.77723667052879,0.974903167432984,None,628.1336568000006,None,629.1226000000006,None,629.1226000000006,None,629.1343086400003,None,None,,629.1226000000006,None,['b'],631.1009231000007,None,b,2.056934399999591,1,1,0.5116279069767442,635.8747878000004,None,None,635.8747878000004,None,[0.05693439999959082],,,,,,,,,,,,,,,,,,,,,,,CBC_1122,001,4,2,5,3,0.95,2024-08-25_13h40.21.283,MSI_AV_v3,2022.1.1,59.86880350384423,
43,0,43,0,,,,,,,,,,0,0,1,b,63,1,2.82320408183943,1.52290599571961,None,637.6839872,None,639.2205770999999,None,639.2205770999999,None,639.2172795300002,None,None,,639.2205770999999,None,['z'],641.2007215000003,None,z,2.501933200000167,0,0,0.5,644.0102983000006,None,None,644.0102983000006,None,[0.5019332000001668],,,,,,,,,,,,,,,,,,,,,,,CBC_1122,001,4,2,5,3,0.95,2024-08-25_13h40.21.283,MSI_AV_v3,2022.1.1,59.86880350384423,
,,,,,,,,,,,,,,,,,,,,,,,,,,,,,,,,,,,,,,,,,,,,,,,,,,None,645.8172433,None,,,,,,,,,,,,,,,,,,CBC_1122,001,4,2,5,3,0.95,2024-08-25_13h40.21.283,MSI_AV_v3,2022.1.1,59.86880350384423,
,,,,,,,,,,,,,,,,,,,,,,,,,,,,,,,,,,,,,,,,,,,,,,,,,,,,,650.8173702000004,None,None,650.8173702000004,None,,,,,,,,,,,,,CBC_1122,001,4,2,5,3,0.95,2024-08-25_13h40.21.283,MSI_AV_v3,2022.1.1,59.86880350384423,
,,,,,,,,,,,,,,,,,,,,,,,,,,,,,,,,,,,,,,,,,,,,,,,,,,,,,,,,,,z,b,easy,"[0, 1, 2, 3]","[0, 2, 3, 1]",0.36363636363636365,0.5454545454545454,0.45454545454545453,0.6363636363636364,20,3,21,,,,,,,,,,,,
