trials_runs.thisRepN,trials_runs.thisTrialN,trials_runs.thisN,trials_runs.thisIndex,standbild_start.started,standbild_start.stopped,trigger.keys,trigger.rt,trigger.started,trigger.stopped,keys_2.keys,keys_2.started,keys_2.stopped,trials_runs.auditory_stim,trials_runs.visual_stim_left,trials_runs.visual_stim_right,trials_runs.correctKey,trials_runs.presentationFrequncy,trials_runs.FBaccuracy,trials_runs.ISI_s,trials_runs.ITI_s,keys_3.keys,keys_3.started,keys_3.stopped,ImageLeft_4.started,ImageLeft_4.stopped,ImageRight_4.started,ImageRight_4.stopped,sound_4.started,sound_4.stopped,response_4.keys,response_4.rt,response_4.started,response_4.stopped,response_5.keys,response_5.started,response_5.stopped,response_runs.keys,response_runs.rt,trials_runs.correct_answer,trials_runs.feedback_given,trials_runs.running_mean,feedback_6.started,feedback_6.stopped,keys_6.keys,keys_6.started,keys_6.stopped,response_5.rt,keys_3.rt,keys_7.keys,keys_7.started,keys_7.stopped,standbild_end.started,standbild_end.stopped,Stop_exp.keys,Stop_exp.started,Stop_exp.stopped,trials_runs.rightKey,trials_runs.leftKey,ts_difficulty,visualPair,audioPair,trials_runs.mean_acc_1stFourth,trials_runs.mean_acc_2ndFourth,trials_runs.mean_acc_3rdFourth,trials_runs.mean_acc_4thFourth,participant,session,visual set [1-6],audio set [1-3],trial structure [0-3 / 4-7],pairing [0-23],prob Feedback,date,expName,psychopyVersion,frameRate,
,,,,43.01084479999918,None,t,69.25673910000114,43.01084479999918,None,,,,,,,,,,,,,,,,,,,,,,,,,,,,,,,,,,,,,,,,,,,,,,,,,,,,,,,,,CBC_1005,001,5,2,7,6,0.95,2023-06-03_12h46.50.942,MSI_AV_v3,2022.1.1,60.00564052971802,
,,,,,,,,,,None,112.28466440000011,None,,,,,,,,,,,,,,,,,,,,,,,,,,,,,,,,,,,,,,,,,,,,,,,,,,,,,,CBC_1005,001,5,2,7,6,0.95,2023-06-03_12h46.50.942,MSI_AV_v3,2022.1.1,60.00564052971802,
0,0,0,0,,,,,,,,,,2,2.0,0.0,b,27.0,1.0,3.956662465,0.977134615,None,112.48456649999935,None,113.56991879999987,None,113.56991879999987,None,113.5675814999995,None,['z'],[1.677395599999727],113.56991879999987,None,None,115.46805999999924,None,z,1.677395599999727,0,0,0.0,119.45713409999917,None,None,119.45713409999917,None,,,,,,,,,,,,,,,,,,,,CBC_1005,001,5,2,7,6,0.95,2023-06-03_12h46.50.942,MSI_AV_v3,2022.1.1,60.00564052971802,
1,0,1,0,,,,,,,,,,3,3.0,2.0,b,63.0,1.0,2.232488062,1.378098418,None,121.43474260000039,None,122.86079860000063,None,122.86079860000063,None,122.86782539999876,None,None,,122.86079860000063,None,['b'],124.80147419999957,None,b,2.501236300000528,1,1,0.5,127.0293371000007,None,None,127.0293371000007,None,[0.501236300000528],,,,,,,,,,,,,,,,,,,CBC_1005,001,5,2,7,6,0.95,2023-06-03_12h46.50.942,MSI_AV_v3,2022.1.1,60.00564052971802,
2,0,2,0,,,,,,,,,,1,1.0,0.0,z,63.0,1.0,3.869831913,1.411911144,None,129.0344342999997,None,130.48388030000024,None,130.48388030000024,None,130.48436629999924,None,None,,130.48388030000024,None,['b'],132.43471169999975,None,b,2.5393402999998216,0,0,0.3333333333333333,136.28974820000076,None,None,136.28974820000076,None,[0.5393402999998216],,,,,,,,,,,,,,,,,,,CBC_1005,001,5,2,7,6,0.95,2023-06-03_12h46.50.942,MSI_AV_v3,2022.1.1,60.00564052971802,
3,0,3,0,,,,,,,,,,2,2.0,3.0,b,63.0,1.0,3.589438522,1.84422311,None,138.30133620000015,None,140.15639620000002,None,140.15639620000002,None,140.1676996999995,None,None,,140.15639620000002,None,['z'],142.1338126999999,None,z,5.273259800000233,0,0,0.25,145.70507390000057,None,None,145.70507390000057,None,[3.2732598000002326],,,,,,,,,,,,,,,,,,,CBC_1005,001,5,2,7,6,0.95,2023-06-03_12h46.50.942,MSI_AV_v3,2022.1.1,60.00564052971802,
4,0,4,0,,,,,,,,,,1,0.0,2.0,b,27.0,1.0,2.949122761,1.313600181,None,147.71807549999903,None,149.05565190000016,None,149.05565190000016,None,149.06765149999956,None,None,,149.05565190000016,None,['b'],151.03462170000057,None,b,3.0670968999984325,1,1,0.4,153.97719139999936,None,None,153.97719139999936,None,[1.0670968999984325],,,,,,,,,,,,,,,,,,,CBC_1005,001,5,2,7,6,0.95,2023-06-03_12h46.50.942,MSI_AV_v3,2022.1.1,60.00564052971802,
5,0,5,0,,,,,,,,,,3,2.0,3.0,z,63.0,1.0,4.176609572,1.75396268,None,155.98422910000045,None,157.73725770000055,None,157.73725770000055,None,157.75039780000043,None,None,,157.73725770000055,None,['z'],159.71804100000008,None,z,3.241232000000309,1,1,0.5,163.87641729999996,None,None,163.87641729999996,None,[1.2412320000003092],,,,,,,,,,,,,,,,,,,CBC_1005,001,5,2,7,6,0.95,2023-06-03_12h46.50.942,MSI_AV_v3,2022.1.1,60.00564052971802,
6,0,6,0,,,,,,,,,,3,3.0,2.0,b,63.0,1.0,1.899747326,2.234398566,None,165.8846981000006,None,168.1192074999999,None,168.1192074999999,None,168.1171080999993,None,None,,168.1192074999999,None,['b'],170.10201059999963,None,b,2.8087976000006165,1,1,0.5714285714285714,171.9874048999991,None,None,171.9874048999991,None,[0.8087976000006165],,,,,,,,,,,,,,,,,,,CBC_1005,001,5,2,7,6,0.95,2023-06-03_12h46.50.942,MSI_AV_v3,2022.1.1,60.00564052971802,
7,0,7,0,,,,,,,,,,0,3.0,1.0,z,27.0,1.0,2.818459073,2.7801224,None,174.00130530000024,None,176.82288990000052,None,176.82288990000052,None,176.83459989999938,None,None,,176.82288990000052,None,['z'],178.7851455,None,z,2.2763021999999182,1,1,0.625,181.59679630000028,None,None,181.59679630000028,None,[0.27630219999991823],,,,,,,,,,,,,,,,,,,CBC_1005,001,5,2,7,6,0.95,2023-06-03_12h46.50.942,MSI_AV_v3,2022.1.1,60.00564052971802,
8,0,8,0,,,,,,,,,,3,0.0,3.0,z,9.0,1.0,2.208904638,2.684881281,None,183.60140839999985,None,186.29750219999914,None,186.29750219999914,None,186.30093750000015,None,None,,186.29750219999914,None,['z'],188.28404199999932,None,z,2.4888977999999042,1,1,0.6666666666666666,190.47770689999925,None,None,190.47770689999925,None,[0.48889779999990424],,,,,,,,,,,,,,,,,,,CBC_1005,001,5,2,7,6,0.95,2023-06-03_12h46.50.942,MSI_AV_v3,2022.1.1,60.00564052971802,
9,0,9,0,,,,,,,,,,0,1.0,0.0,b,63.0,1.0,3.478547126,1.53162701,None,192.48507339999924,None,194.03781510000044,None,194.03781510000044,None,194.03443969999898,None,None,,194.03781510000044,None,['z'],196.01737420000063,None,z,3.218896099999256,0,0,0.6,199.4740270000002,None,None,199.4740270000002,None,[1.218896099999256],,,,,,,,,,,,,,,,,,,CBC_1005,001,5,2,7,6,0.95,2023-06-03_12h46.50.942,MSI_AV_v3,2022.1.1,60.00564052971802,
10,0,10,0,,,,,,,,,,1,1.0,0.0,z,63.0,1.0,1.595506577,2.935368129,None,201.48481299999912,None,204.44018180000057,None,204.44018180000057,None,204.45126179999897,None,None,,204.44018180000057,None,['b'],206.4176193000003,None,b,2.9020243999984814,0,0,0.5454545454545454,207.99469900000076,None,None,207.99469900000076,None,[0.9020243999984814],,,,,,,,,,,,,,,,,,,CBC_1005,001,5,2,7,6,0.95,2023-06-03_12h46.50.942,MSI_AV_v3,2022.1.1,60.00564052971802,
11,0,11,0,,,,,,,,,,0,0.0,1.0,z,63.0,1.0,1.90573091,2.232990834,None,210.00134029999936,None,212.2562727000004,None,212.2562727000004,None,212.2678477999998,None,None,,212.2562727000004,None,['z'],214.23462440000003,None,z,2.255993499999022,1,1,0.5833333333333334,216.12092590000066,None,None,216.12092590000066,None,[0.2559934999990219],,,,,,,,,,,,,,,,,,,CBC_1005,001,5,2,7,6,0.95,2023-06-03_12h46.50.942,MSI_AV_v3,2022.1.1,60.00564052971802,
12,0,12,0,,,,,,,,,,3,2.0,3.0,z,63.0,1.0,1.874984683,1.293060736,None,218.13465890000043,None,219.41811120000057,None,219.41811120000057,None,219.41684239999995,None,None,,219.41811120000057,None,['z'],221.40136019999954,None,z,3.2358646000011504,1,1,0.6153846153846154,223.26183429999946,None,None,223.26183429999946,None,[1.2358646000011504],,,,,,,,,,,,,,,,,,,CBC_1005,001,5,2,7,6,0.95,2023-06-03_12h46.50.942,MSI_AV_v3,2022.1.1,60.00564052971802,
13,0,13,0,,,,,,,,,,0,1.0,3.0,b,27.0,1.0,2.742099981,3.276660373,None,225.26810119999936,None,228.55711019999944,None,228.55711019999944,None,228.5682127,None,None,,228.55711019999944,None,['b'],230.53493139999955,None,b,2.4555056000008335,1,1,0.6428571428571429,233.2684119000005,None,None,233.2684119000005,None,[0.4555056000008335],,,,,,,,,,,,,,,,,,,CBC_1005,001,5,2,7,6,0.95,2023-06-03_12h46.50.942,MSI_AV_v3,2022.1.1,60.00564052971802,
14,0,14,0,,,,,,,,,,2,3.0,2.0,z,63.0,1.0,1.758742576,2.502774076,None,235.26817169999958,None,237.79009399999995,None,237.79009399999995,None,237.80131470000015,None,['z'],[1.7442819999996573],237.79009399999995,None,None,239.7704364000001,None,z,1.7442819999996573,1,1,0.6666666666666666,241.52516560000004,None,None,241.52516560000004,None,,,,,,,,,,,,,,,,,,,,CBC_1005,001,5,2,7,6,0.95,2023-06-03_12h46.50.942,MSI_AV_v3,2022.1.1,60.00564052971802,
15,0,15,0,,,,,,,,,,2,2.0,0.0,b,27.0,1.0,2.242058058,0.789129603,None,243.53488180000022,None,244.3392187999998,None,244.3392187999998,None,244.351410199999,None,['z'],[1.8413407999996707],244.3392187999998,None,None,246.33724149999944,None,z,1.8413407999996707,0,0,0.625,248.5907057000004,None,None,248.5907057000004,None,,,,,,,,,,,,,,,,,,,,CBC_1005,001,5,2,7,6,0.95,2023-06-03_12h46.50.942,MSI_AV_v3,2022.1.1,60.00564052971802,
16,0,16,0,,,,,,,,,,1,0.0,3.0,b,9.0,1.0,4.268032915,2.407383959,None,250.60159380000005,None,253.02239820000068,None,253.02239820000068,None,253.01796309999918,None,None,,253.02239820000068,None,['b'],255.00072650000038,None,b,3.0116474000005837,1,1,0.6470588235294118,259.2613493000008,None,None,259.2613493000008,None,[1.0116474000005837],,,,,,,,,,,,,,,,,,,CBC_1005,001,5,2,7,6,0.95,2023-06-03_12h46.50.942,MSI_AV_v3,2022.1.1,60.00564052971802,
17,0,17,0,,,,,,,,,,2,2.0,3.0,b,63.0,0.0,1.109698721,1.910349838,None,261.2682143000002,None,263.1881665000001,None,263.1881665000001,None,263.1846941999993,None,None,,263.1881665000001,None,['z'],265.16775570000027,None,z,2.329522799998813,0,1,0.6111111111111112,266.2605886000001,None,None,266.2605886000001,None,[0.32952279999881284],,,,,,,,,,,,,,,,,,,CBC_1005,001,5,2,7,6,0.95,2023-06-03_12h46.50.942,MSI_AV_v3,2022.1.1,60.00564052971802,
18,0,18,0,,,,,,,,,,1,1.0,0.0,z,63.0,1.0,4.21669271,1.732943574,None,268.26830039999913,None,270.0219099999995,None,270.0219099999995,None,270.03470240000024,None,None,,270.0219099999995,None,['b'],272.0016685999999,None,b,2.7083184000002802,0,0,0.5789473684210527,276.21245810000073,None,None,276.21245810000073,None,[0.7083184000002802],,,,,,,,,,,,,,,,,,,CBC_1005,001,5,2,7,6,0.95,2023-06-03_12h46.50.942,MSI_AV_v3,2022.1.1,60.00564052971802,
19,0,19,0,,,,,,,,,,3,3.0,2.0,b,63.0,1.0,4.196249082,3.274187802,['b'],278.2174529999993,None,281.50723800000014,None,281.50723800000014,None,281.5181455999991,None,None,,281.50723800000014,None,['z'],283.4850838000002,None,z,2.689721799999461,0,0,0.55,287.67345580000074,None,None,287.67345580000074,None,[0.6897217999994609],[2.160157500000423],,,,,,,,,,,,,,,,,,CBC_1005,001,5,2,7,6,0.95,2023-06-03_12h46.50.942,MSI_AV_v3,2022.1.1,60.00564052971802,
20,0,20,0,,,,,,,,,,2,3.0,2.0,z,63.0,1.0,1.543156518,1.08099246,None,289.68535800000063,None,290.7745525999999,None,290.7745525999999,None,290.7841351999996,None,None,,290.7745525999999,None,['z'],292.75187709999955,None,z,2.761605099998633,1,1,0.5714285714285714,294.2873460999999,None,None,294.2873460999999,None,[0.7616050999986328],,,,,,,,,,,,,,,,,,,CBC_1005,001,5,2,7,6,0.95,2023-06-03_12h46.50.942,MSI_AV_v3,2022.1.1,60.00564052971802,
21,0,21,0,,,,,,,,,,3,3.0,1.0,b,27.0,1.0,2.372527466,3.264468617,None,296.3016112999994,None,299.58813849999933,None,299.58813849999933,None,299.58482729999923,None,['z'],[1.8748809000007896],299.58813849999933,None,None,301.58339929999966,None,z,1.8748809000007896,0,0,0.5454545454545454,303.95652960000007,None,None,303.95652960000007,None,,,,,,,,,,,,,,,,,,,,CBC_1005,001,5,2,7,6,0.95,2023-06-03_12h46.50.942,MSI_AV_v3,2022.1.1,60.00564052971802,
22,0,22,0,,,,,,,,,,1,0.0,1.0,b,63.0,1.0,3.622505815,1.483424551,None,305.9674792000005,None,307.4723850999999,None,307.4723850999999,None,307.46827089999897,None,None,,307.4723850999999,None,['z'],309.45194789999914,None,z,2.6624797000004037,0,0,0.5217391304347826,313.0538438000003,None,None,313.0538438000003,None,[0.6624797000004037],,,,,,,,,,,,,,,,,,,CBC_1005,001,5,2,7,6,0.95,2023-06-03_12h46.50.942,MSI_AV_v3,2022.1.1,60.00564052971802,
23,0,23,0,,,,,,,,,,2,3.0,2.0,z,63.0,1.0,1.556335756,2.108332021,None,315.06847369999923,None,317.1886744000003,None,317.1886744000003,None,317.2014564000001,None,None,,317.1886744000003,None,['b'],319.16779680000036,None,b,2.0961545999998634,0,0,0.5,320.70789689999947,None,None,320.70789689999947,None,[0.09615459999986342],,,,,,,,,,,,,,,,,,,CBC_1005,001,5,2,7,6,0.95,2023-06-03_12h46.50.942,MSI_AV_v3,2022.1.1,60.00564052971802,
24,0,24,0,,,,,,,,,,1,0.0,2.0,b,27.0,1.0,1.219965572,3.388090306,None,322.7186294000003,None,326.12350719999995,None,326.12350719999995,None,326.13493649999873,None,None,,326.12350719999995,None,['z'],328.10249769999973,None,z,2.6287984999999026,0,0,0.48,329.3102323999992,None,None,329.3102323999992,None,[0.6287984999999026],,,,,,,,,,,,,,,,,,,CBC_1005,001,5,2,7,6,0.95,2023-06-03_12h46.50.942,MSI_AV_v3,2022.1.1,60.00564052971802,
25,0,25,0,,,,,,,,,,0,1.0,0.0,b,63.0,1.0,2.917714675,1.915207301,None,331.3183848999997,None,333.25594009999986,None,333.25594009999986,None,333.26832269999977,None,None,,333.25594009999986,None,['z'],335.2349200999997,None,z,2.2694143999997323,0,0,0.46153846153846156,338.1438978999995,None,None,338.1438978999995,None,[0.26941439999973227],,,,,,,,,,,,,,,,,,,CBC_1005,001,5,2,7,6,0.95,2023-06-03_12h46.50.942,MSI_AV_v3,2022.1.1,60.00564052971802,
26,0,26,0,,,,,,,,,,0,0.0,1.0,z,63.0,1.0,1.6718976049999998,1.086048241,None,340.1518510999995,None,341.2562913999991,None,341.2562913999991,None,341.2682759999989,None,None,,341.2562913999991,None,['b'],343.2352202999991,None,b,2.324899199998981,0,0,0.4444444444444444,344.8976053000006,None,None,344.8976053000006,None,[0.3248991999989812],,,,,,,,,,,,,,,,,,,CBC_1005,001,5,2,7,6,0.95,2023-06-03_12h46.50.942,MSI_AV_v3,2022.1.1,60.00564052971802,
27,0,27,0,,,,,,,,,,2,3.0,2.0,z,63.0,1.0,3.884449499,1.448890429,None,346.9010053999991,None,348.3562825000008,None,348.3562825000008,None,348.3689101,None,None,,348.3562825000008,None,['b'],350.3352453000007,None,b,2.418562299999394,0,0,0.42857142857142855,354.206979999999,None,None,354.206979999999,None,[0.41856229999939387],,,,,,,,,,,,,,,,,,,CBC_1005,001,5,2,7,6,0.95,2023-06-03_12h46.50.942,MSI_AV_v3,2022.1.1,60.00564052971802,
28,0,28,0,,,,,,,,,,3,3.0,1.0,b,27.0,1.0,1.887650177,2.071213329,None,356.2186731999991,None,358.3060119999991,None,358.3060119999991,None,358.3184786999991,None,None,,358.3060119999991,None,['z'],360.28540880000037,None,z,2.535211899999922,0,0,0.41379310344827586,362.15336989999923,None,None,362.15336989999923,None,[0.535211899999922],,,,,,,,,,,,,,,,,,,CBC_1005,001,5,2,7,6,0.95,2023-06-03_12h46.50.942,MSI_AV_v3,2022.1.1,60.00564052971802,
29,0,29,0,,,,,,,,,,2,1.0,2.0,z,9.0,1.0,2.518459073,2.495793893,None,364.1687187999996,None,366.6803017000002,None,366.6803017000002,None,366.6850728999998,None,None,,366.6803017000002,None,None,368.6521954,None,[],[],0,3,0.4,371.17479189999904,None,None,371.17479189999904,None,,,,,,,,,,,,,,,,,,,,CBC_1005,001,5,2,7,6,0.95,2023-06-03_12h46.50.942,MSI_AV_v3,2022.1.1,60.00564052971802,
30,0,30,0,,,,,,,,,,0,3.0,1.0,z,27.0,1.0,2.278602942,2.648704933,None,373.1686140999991,None,375.8397784000008,None,375.8397784000008,None,375.8519974999999,None,None,,375.8397784000008,None,['b'],377.81777599999987,None,b,2.0753041000007215,0,0,0.3870967741935484,380.0737405,None,None,380.0737405,None,[0.07530410000072152],,,,,,,,,,,,,,,,,,,CBC_1005,001,5,2,7,6,0.95,2023-06-03_12h46.50.942,MSI_AV_v3,2022.1.1,60.00564052971802,
31,0,31,0,,,,,,,,,,3,3.0,2.0,b,63.0,1.0,3.044827724,3.321420384,None,382.0853435000008,None,385.40482229999907,None,385.40482229999907,None,385.40108619999955,None,None,,385.40482229999907,None,['b'],387.3853708000006,None,b,3.035990299998957,1,1,0.40625,390.4287227999994,None,None,390.4287227999994,None,[1.0359902999989572],,,,,,,,,,,,,,,,,,,CBC_1005,001,5,2,7,6,0.95,2023-06-03_12h46.50.942,MSI_AV_v3,2022.1.1,60.00564052971802,
32,0,32,0,,,,,,,,,,0,0.0,1.0,z,63.0,1.0,2.078483356,2.962224669,None,392.43530929999906,None,395.40752369999973,None,395.40752369999973,None,395.4185159999997,None,None,,395.40752369999973,None,['z'],397.3853080000008,None,z,2.4376448999992135,1,1,0.42424242424242425,399.4578445999996,None,None,399.4578445999996,None,[0.4376448999992135],,,,,,,,,,,,,,,,,,,CBC_1005,001,5,2,7,6,0.95,2023-06-03_12h46.50.942,MSI_AV_v3,2022.1.1,60.00564052971802,
33,0,33,0,,,,,,,,,,1,1.0,0.0,z,63.0,0.0,2.397501916,0.971483559,None,401.46904429999995,None,402.45712789999925,None,402.45712789999925,None,402.4685559999998,None,None,,402.45712789999925,None,['b'],404.43543839999984,None,b,3.1622126000002027,0,1,0.4117647058823529,406.8184600000004,None,None,406.8184600000004,None,[1.1622126000002027],,,,,,,,,,,,,,,,,,,CBC_1005,001,5,2,7,6,0.95,2023-06-03_12h46.50.942,MSI_AV_v3,2022.1.1,60.00564052971802,
34,0,34,0,,,,,,,,,,2,2.0,3.0,b,63.0,1.0,2.0845750460000003,2.757001452,None,408.81889520000004,None,411.5981558000003,None,411.5981558000003,None,411.6020807999994,None,None,,411.5981558000003,None,['z'],413.5679744000008,None,z,2.3713389999993524,0,0,0.4,415.6405422000007,None,None,415.6405422000007,None,[0.3713389999993524],,,,,,,,,,,,,,,,,,,CBC_1005,001,5,2,7,6,0.95,2023-06-03_12h46.50.942,MSI_AV_v3,2022.1.1,60.00564052971802,
35,0,35,0,,,,,,,,,,1,0.0,2.0,b,27.0,1.0,3.278108735,1.554037824,None,417.6524836999997,None,419.2254135000003,None,419.2254135000003,None,419.23530539999956,None,None,,419.2254135000003,None,['b'],421.20166620000055,None,b,2.947351799999524,1,1,0.4166666666666667,424.48021379999955,None,None,424.48021379999955,None,[0.9473517999995238],,,,,,,,,,,,,,,,,,,CBC_1005,001,5,2,7,6,0.95,2023-06-03_12h46.50.942,MSI_AV_v3,2022.1.1,60.00564052971802,
36,0,36,0,,,,,,,,,,0,0.0,1.0,z,63.0,1.0,3.501824497,2.210349838,None,426.4849756000003,None,428.7063398999999,None,428.7063398999999,None,428.70214999999916,None,None,,428.7063398999999,None,['z'],430.68621279999934,None,z,2.2331739000001107,1,1,0.43243243243243246,434.1743612999999,None,None,434.1743612999999,None,[0.23317390000011073],,,,,,,,,,,,,,,,,,,CBC_1005,001,5,2,7,6,0.95,2023-06-03_12h46.50.942,MSI_AV_v3,2022.1.1,60.00564052971802,
37,0,37,0,,,,,,,,,,3,2.0,3.0,z,63.0,1.0,2.67601813,1.142638656,None,436.1855369999994,None,437.3404358000007,None,437.3404358000007,None,437.3359937999994,None,None,,437.3404358000007,None,['z'],439.3185942,None,z,2.434248800000205,1,1,0.4473684210526316,441.9709084999995,None,None,441.9709084999995,None,[0.43424880000020494],,,,,,,,,,,,,,,,,,,CBC_1005,001,5,2,7,6,0.95,2023-06-03_12h46.50.942,MSI_AV_v3,2022.1.1,60.00564052971802,
38,0,38,0,,,,,,,,,,0,1.0,2.0,b,9.0,1.0,2.088920167,1.24796184,None,443.98571169999923,None,445.25720270000056,None,445.25720270000056,None,445.2688263,None,None,,445.25720270000056,None,['z'],447.2355028000002,None,z,3.482009900000776,0,0,0.4358974358974359,449.3159309999992,None,None,449.3159309999992,None,[1.4820099000007758],,,,,,,,,,,,,,,,,,,CBC_1005,001,5,2,7,6,0.95,2023-06-03_12h46.50.942,MSI_AV_v3,2022.1.1,60.00564052971802,
39,0,39,0,,,,,,,,,,3,1.0,3.0,z,27.0,1.0,2.117809983,2.349749758,None,451.31906639999943,None,453.6888146000001,None,453.6888146000001,None,453.68567189999885,None,None,,453.6888146000001,None,['b'],455.66966479999974,None,b,2.925671200000579,0,0,0.425,457.7746755999997,None,None,457.7746755999997,None,[0.9256712000005791],,,,,,,,,,,,,,,,,,,CBC_1005,001,5,2,7,6,0.95,2023-06-03_12h46.50.942,MSI_AV_v3,2022.1.1,60.00564052971802,
40,0,40,0,,,,,,,,,,1,1.0,0.0,z,63.0,1.0,4.309752164,1.883772966,None,459.7849480999994,None,461.6914285999992,None,461.6914285999992,None,461.70228809999935,None,None,,461.6914285999992,None,['b'],463.6692437999991,None,b,2.5132115999986127,0,0,0.4146341463414634,467.96179999999913,None,None,467.96179999999913,None,[0.5132115999986127],,,,,,,,,,,,,,,,,,,CBC_1005,001,5,2,7,6,0.95,2023-06-03_12h46.50.942,MSI_AV_v3,2022.1.1,60.00564052971802,
41,0,41,0,,,,,,,,,,1,0.0,1.0,b,63.0,1.0,4.334629553,2.573610938,None,469.9685917000006,None,472.5376981999998,None,472.5376981999998,None,472.53499100000045,None,None,,472.5376981999998,None,['z'],474.53586709999945,None,z,2.696454299999459,0,0,0.40476190476190477,478.8566174000007,None,None,478.8566174000007,None,[0.6964542999994592],,,,,,,,,,,,,,,,,,,CBC_1005,001,5,2,7,6,0.95,2023-06-03_12h46.50.942,MSI_AV_v3,2022.1.1,60.00564052971802,
42,0,42,0,,,,,,,,,,2,2.0,0.0,b,27.0,1.0,1.3262934849999999,2.297139377,None,480.8694601999996,None,483.1912407,None,483.1912407,None,483.2022528999987,None,None,,483.1912407,None,['z'],485.168637499999,None,z,2.4130710999997973,0,0,0.3953488372093023,486.4867997000001,None,None,486.4867997000001,None,[0.4130710999997973],,,,,,,,,,,,,,,,,,,CBC_1005,001,5,2,7,6,0.95,2023-06-03_12h46.50.942,MSI_AV_v3,2022.1.1,60.00564052971802,
43,0,43,0,,,,,,,,,,0,0.0,1.0,z,63.0,1.0,1.610581685,2.128027194,None,488.48626329999934,None,490.6223608,None,490.6223608,None,490.6186453999999,None,None,,490.6223608,None,['b'],492.61908799999946,None,b,2.5182406999992963,0,0,0.38636363636363635,494.2210562,None,None,494.2210562,None,[0.5182406999992963],,,,,,,,,,,,,,,,,,,CBC_1005,001,5,2,7,6,0.95,2023-06-03_12h46.50.942,MSI_AV_v3,2022.1.1,60.00564052971802,
,,,,,,,,,,,,,,,,,,,,,,,,,,,,,,,,,,,,,,,,,,,,,,,,,None,496.23592520000057,None,,,,,,,,,,,,,,,CBC_1005,001,5,2,7,6,0.95,2023-06-03_12h46.50.942,MSI_AV_v3,2022.1.1,60.00564052971802,
,,,,,,,,,,,,,,,,,,,,,,,,,,,,,,,,,,,,,,,,,,,,,,,,,,,,501.2360109000001,None,None,501.2360109000001,None,,,,,,,,,,CBC_1005,001,5,2,7,6,0.95,2023-06-03_12h46.50.942,MSI_AV_v3,2022.1.1,60.00564052971802,
,,,,,,,,,,,,,,,,,,,,,,,,,,,,,,,,,,,,,,,,,,,,,,,,,,,,,,,,,z,b,easy,"[0, 1, 2, 3]","[1, 0, 2, 3]",0.5454545454545454,0.5454545454545454,0.18181818181818182,0.2727272727272727,,,,,,,,,,,,
