trials_runs.thisRepN,trials_runs.thisTrialN,trials_runs.thisN,trials_runs.thisIndex,standbild_start.started,standbild_start.stopped,trigger.keys,trigger.rt,trigger.started,trigger.stopped,keys_2.keys,keys_2.started,keys_2.stopped,trials_runs.tactile_stim,trials_runs.visual_stim_left,trials_runs.visual_stim_right,trials_runs.correctKey,trials_runs.presentationFrequncy,trials_runs.FBaccuracy,trials_runs.ISI_s,trials_runs.ITI_s,keys_3.keys,keys_3.started,keys_3.stopped,image_stim_left.started,image_stim_right.started,tactile.started,response_4.keys,allKeys.keys,response_5.keys,response_5.rt,response_5.started,response_5.stopped,response_runs.keys,response_runs.rt,trials_runs.correct_answer,trials_runs.feedback_given,trials_runs.running_mean,feedback_6.stopped,feedback_6.started,keys_6.keys,keys_6.started,keys_6.stopped,keys_7.keys,keys_7.started,keys_7.stopped,standbild_end.started,standbild_end.stopped,Stop_exp.keys,Stop_exp.started,Stop_exp.stopped,trials_runs.rightKey,trials_runs.leftKey,ts_difficulty,visualPair,tactilePair,trials_runs.mean_acc_1stFourth,trials_runs.mean_acc_2ndFourth,trials_runs.mean_acc_3rdFourth,trials_runs.mean_acc_4thFourth,participant,session,visual set [1-6],tactile set [1-3],trial structure [0-3 / 4-7],pairing [0-23],prob Feedback,date,expName,psychopyVersion,frameRate,
,,,,101.12365390000014,None,t,67.36821869999949,101.12365390000014,None,,,,,,,,,,,,,,,,,,,,,,,,,,,,,,,,,,,,,,,,,,,,,,,,,,,CBC_1014,003,3,1,6,13,0.95,2023-06-25_12h29.13.889,MSI_TV_v3,2022.1.1,60.01622838836633,
,,,,,,,,,,None,168.52057660000173,None,,,,,,,,,,,,,,,,,,,,,,,,,,,,,,,,,,,,,,,,,,,,,,,,CBC_1014,003,3,1,6,13,0.95,2023-06-25_12h29.13.889,MSI_TV_v3,2022.1.1,60.01622838836633,
0,0,0,0,,,,,,,,,,2,0.0,1.0,b,63.0,1.0,2.7134565917469198,1.25920145784721,None,168.72076970000126,None,169.95374273000124,169.95374273000124,169.97115023000077,None,[],['z'],[0.34106189999874914],171.95778830000017,None,z,2.341061899998749,0,0,0.0,None,174.69918560000042,None,174.69918560000042,None,,,,,,,,,,,,,,,,,,CBC_1014,003,3,1,6,13,0.95,2023-06-25_12h29.13.889,MSI_TV_v3,2022.1.1,60.01622838836633,
1,0,1,0,,,,,,,,,,3,3.0,2.0,z,63.0,1.0,2.629554641171433,1.27538462653558,None,176.50397630000043,None,177.75433653,177.75433653,177.77202643000163,None,[],['b'],[1.1392212999980984],179.75867760000074,None,b,3.1392212999980984,0,0,0.0,None,182.3954470000008,None,182.3954470000008,None,,,,,,,,,,,,,,,,,,CBC_1014,003,3,1,6,13,0.95,2023-06-25_12h29.13.889,MSI_TV_v3,2022.1.1,60.01622838836633,
2,0,2,0,,,,,,,,,,2,0.0,2.0,b,27.0,1.0,2.678526077912375,2.40378712856304,None,184.20381010000165,None,186.58737863000096,186.58737863000096,186.6041386300014,None,[],['z'],[0.37169449999782955],188.59133570000085,None,z,2.3716944999978296,0,0,0.0,None,191.26771120000012,None,191.26771120000012,None,,,,,,,,,,,,,,,,,,CBC_1014,003,3,1,6,13,0.95,2023-06-25_12h29.13.889,MSI_TV_v3,2022.1.1,60.01622838836633,
3,0,3,0,,,,,,,,,,0,1.0,0.0,b,63.0,1.0,4.190022164497369,1.18065738546375,None,193.07055670000045,None,194.23727593000075,194.23727593000075,194.25386583000108,None,[],['b'],[0.7488872999983869],196.23940140000013,None,b,2.748887299998387,1,1,0.25,None,200.43421220000164,None,200.43421220000164,None,,,,,,,,,,,,,,,,,,CBC_1014,003,3,1,6,13,0.95,2023-06-25_12h29.13.889,MSI_TV_v3,2022.1.1,60.01622838836633,
4,0,4,0,,,,,,,,,,0,0.0,1.0,z,63.0,1.0,2.82320408183943,3.24569326556923,None,202.2364402000003,None,205.4540071300009,205.4540071300009,205.47080473000022,None,[],['z'],[0.6389145999983157],207.45253450000018,None,z,2.6389145999983157,1,1,0.4,None,210.28550630000063,None,210.28550630000063,None,,,,,,,,,,,,,,,,,,CBC_1014,003,3,1,6,13,0.95,2023-06-25_12h29.13.889,MSI_TV_v3,2022.1.1,60.01622838836633,
5,0,5,0,,,,,,,,,,3,3.0,2.0,z,63.0,1.0,4.7533305109883095,1.52290599571961,None,212.08732810000038,None,213.58742743000147,213.58742743000147,213.60411313000003,None,[],['b'],[0.38882509999893955],215.59008360000007,None,b,2.3888250999989395,0,0,0.3333333333333333,None,220.3447356000015,None,220.3447356000015,None,,,,,,,,,,,,,,,,,,CBC_1014,003,3,1,6,13,0.95,2023-06-25_12h29.13.889,MSI_TV_v3,2022.1.1,60.01622838836633,
6,0,6,0,,,,,,,,,,1,3.0,1.0,b,27.0,1.0,4.40017271499661,1.38289892513751,None,222.15437210000164,None,223.52073413000033,223.52073413000033,223.53766423000087,None,[],['z'],[0.5403966999983822],225.51822270000048,None,z,2.5403966999983822,0,0,0.2857142857142857,None,229.9208387000017,None,229.9208387000017,None,,,,,,,,,,,,,,,,,,CBC_1014,003,3,1,6,13,0.95,2023-06-25_12h29.13.889,MSI_TV_v3,2022.1.1,60.01622838836633,
7,0,7,0,,,,,,,,,,3,1.0,2.0,z,9.0,1.0,2.294664843639333,0.974903167432984,None,231.72052690000055,None,232.67092963000067,232.67092963000067,232.68759493000033,None,[],['z'],[0.5475926999988587],234.67433410000012,None,z,2.5475926999988587,1,1,0.375,None,236.9712320000017,None,236.9712320000017,None,,,,,,,,,,,,,,,,,,CBC_1014,003,3,1,6,13,0.95,2023-06-25_12h29.13.889,MSI_TV_v3,2022.1.1,60.01622838836633,
8,0,8,0,,,,,,,,,,0,3.0,1.0,z,27.0,1.0,4.77723667052879,3.1963008326951,None,238.7704317000007,None,241.95390353000147,241.95390353000147,241.97120883000133,None,[],['z'],[0.713592999998582],243.9570046000008,None,z,2.713592999998582,1,1,0.4444444444444444,None,248.73399980000067,None,248.73399980000067,None,,,,,,,,,,,,,,,,,,CBC_1014,003,3,1,6,13,0.95,2023-06-25_12h29.13.889,MSI_TV_v3,2022.1.1,60.01622838836633,
9,0,9,0,,,,,,,,,,1,3.0,2.0,b,63.0,1.0,3.73326136168326,3.40155979865722,None,250.53769000000102,None,253.9205315300016,253.9205315300016,253.93721273000045,None,[],['b'],[0.47679779999816674],255.91736480000145,None,b,2.4767977999981667,1,1,0.5,None,259.65757180000037,None,259.65757180000037,None,,,,,,,,,,,,,,,,,,CBC_1014,003,3,1,6,13,0.95,2023-06-25_12h29.13.889,MSI_TV_v3,2022.1.1,60.01622838836633,
10,0,10,0,,,,,,,,,,0,1.0,0.0,b,63.0,1.0,3.68371079902891,3.1424449555106,None,261.46964480000133,None,264.5872602300016,264.5872602300016,264.6041080300012,None,[],['b'],[0.5190253999990091],266.5856786000004,None,b,2.519025399999009,1,1,0.5454545454545454,None,270.2723472000016,None,270.2723472000016,None,,,,,,,,,,,,,,,,,,CBC_1014,003,3,1,6,13,0.95,2023-06-25_12h29.13.889,MSI_TV_v3,2022.1.1,60.01622838836633,
11,0,11,0,,,,,,,,,,3,0.0,2.0,z,27.0,1.0,4.12485271162806,2.6299100644723,None,272.08732020000025,None,274.70414163000095,274.70414163000095,274.7208594300002,None,[],['b'],[0.7021156999981031],276.7023674000011,None,b,2.702115699998103,0,0,0.5,None,280.83406490000016,None,280.83406490000016,None,,,,,,,,,,,,,,,,,,CBC_1014,003,3,1,6,13,0.95,2023-06-25_12h29.13.889,MSI_TV_v3,2022.1.1,60.01622838836633,
12,0,12,0,,,,,,,,,,1,3.0,2.0,b,63.0,0.0,2.792365600763554,1.90743690794447,None,282.63741050000135,None,284.5198636300003,284.5198636300003,284.53654853000006,None,[],['z'],[1.3667307999985496],286.52180970000154,None,z,3.3667307999985496,0,1,0.46153846153846156,None,289.3081877000004,None,289.3081877000004,None,,,,,,,,,,,,,,,,,,CBC_1014,003,3,1,6,13,0.95,2023-06-25_12h29.13.889,MSI_TV_v3,2022.1.1,60.01622838836633,
13,0,13,0,,,,,,,,,,2,1.0,0.0,z,63.0,1.0,3.71372710086949,0.761758675042088,None,291.12063470000066,None,291.85292833000057,291.85292833000057,291.86980022999995,None,[],['b'],[0.8257477999995899],293.8489249000013,None,b,2.82574779999959,0,0,0.42857142857142855,None,297.56474510000044,None,297.56474510000044,None,,,,,,,,,,,,,,,,,,CBC_1014,003,3,1,6,13,0.95,2023-06-25_12h29.13.889,MSI_TV_v3,2022.1.1,60.01622838836633,
14,0,14,0,,,,,,,,,,3,2.0,3.0,b,63.0,1.0,4.01714354611405,3.06992456303453,None,299.37067190000016,None,302.4198725300004,302.4198725300004,302.4365670300005,None,[],['b'],[0.6926166999983252],304.41515510000136,None,b,2.692616699998325,1,1,0.4666666666666667,None,308.4267767000001,None,308.4267767000001,None,,,,,,,,,,,,,,,,,,CBC_1014,003,3,1,6,13,0.95,2023-06-25_12h29.13.889,MSI_TV_v3,2022.1.1,60.01622838836633,
15,0,15,0,,,,,,,,,,2,0.0,2.0,b,27.0,1.0,2.666404967794728,0.77703640172831,None,310.2373296000005,None,310.987934330001,310.987934330001,311.00394133000117,None,[],['z'],[0.2984989999986283],312.9903273,None,z,2.2984989999986283,0,0,0.4375,None,315.6655083000005,None,315.6655083000005,None,,,,,,,,,,,,,,,,,,CBC_1014,003,3,1,6,13,0.95,2023-06-25_12h29.13.889,MSI_TV_v3,2022.1.1,60.01622838836633,
16,0,16,0,,,,,,,,,,1,2.0,3.0,z,63.0,1.0,3.6438386551209,1.64421109900286,None,317.46986910000123,None,319.0872761300008,319.0872761300008,319.10412683000067,None,[],['z'],[0.772978899998634],321.09176950000074,None,z,2.772978899998634,1,1,0.47058823529411764,None,324.7444196000015,None,324.7444196000015,None,,,,,,,,,,,,,,,,,,CBC_1014,003,3,1,6,13,0.95,2023-06-25_12h29.13.889,MSI_TV_v3,2022.1.1,60.01622838836633,
17,0,17,0,,,,,,,,,,1,3.0,2.0,b,63.0,1.0,3.31929419319838,0.80788063606262,None,326.55451790000006,None,327.3374293300014,327.3374293300014,327.35408003000083,None,[],['z'],[0.3610259999986738],329.3409832000016,None,z,2.361025999998674,0,0,0.4444444444444444,None,332.6691232000012,None,332.6691232000012,None,,,,,,,,,,,,,,,,,,CBC_1014,003,3,1,6,13,0.95,2023-06-25_12h29.13.889,MSI_TV_v3,2022.1.1,60.01622838836633,
18,0,18,0,,,,,,,,,,0,3.0,1.0,z,27.0,1.0,3.3728785608729996,2.09887870490381,None,334.4706591000013,None,336.5541834300013,336.5541834300013,336.57122093000106,None,[],['b'],[1.0019579999989219],338.55796030000056,None,b,3.001957999998922,0,0,0.42105263157894735,None,341.92453710000154,None,341.92453710000154,None,,,,,,,,,,,,,,,,,,CBC_1014,003,3,1,6,13,0.95,2023-06-25_12h29.13.889,MSI_TV_v3,2022.1.1,60.01622838836633,
19,0,19,0,,,,,,,,,,1,0.0,3.0,z,9.0,1.0,2.693348633324513,3.4543169006169,None,343.73754929999996,None,347.17074323000014,347.17074323000014,347.1878105300013,None,[],['z'],[0.34731149999788613],349.1740254000015,None,z,2.347311499997886,1,1,0.45,None,351.8732353000014,None,351.8732353000014,None,,,,,,,,,,,,,,,,,,CBC_1014,003,3,1,6,13,0.95,2023-06-25_12h29.13.889,MSI_TV_v3,2022.1.1,60.01622838836633,
20,0,20,0,,,,,,,,,,0,1.0,0.0,b,63.0,1.0,3.35133458220192,1.43470440954152,None,353.6862308,None,355.1040306300012,355.1040306300012,355.12064603000107,None,[],['z'],[0.9786681999976281],357.1082952000015,None,z,2.978668199997628,0,0,0.42857142857142855,None,360.4701511000003,None,360.4701511000003,None,,,,,,,,,,,,,,,,,,CBC_1014,003,3,1,6,13,0.95,2023-06-25_12h29.13.889,MSI_TV_v3,2022.1.1,60.01622838836633,
21,0,21,0,,,,,,,,,,2,1.0,0.0,z,63.0,1.0,4.72585056748869,0.917519910446003,None,362.2706752000013,None,363.1707573300002,363.1707573300002,363.18741493000124,None,[],['z'],[0.34039209999900777],365.1733935000011,None,z,2.3403920999990078,1,1,0.45454545454545453,None,369.89234600000054,None,369.89234600000054,None,,,,,,,,,,,,,,,,,,CBC_1014,003,3,1,6,13,0.95,2023-06-25_12h29.13.889,MSI_TV_v3,2022.1.1,60.01622838836633,
22,0,22,0,,,,,,,,,,3,2.0,3.0,b,63.0,1.0,4.53337421950507,1.36309078069689,None,371.7041416000011,None,373.05408172999995,373.05408172999995,373.0713434300007,None,[],['b'],[0.7238220999988698],375.05804810000154,None,b,2.72382209999887,1,1,0.4782608695652174,None,379.6057980000005,None,379.6057980000005,None,,,,,,,,,,,,,,,,,,CBC_1014,003,3,1,6,13,0.95,2023-06-25_12h29.13.889,MSI_TV_v3,2022.1.1,60.01622838836633,
23,0,23,0,,,,,,,,,,2,0.0,2.0,b,27.0,1.0,3.7500315165247198,1.95130344756745,None,381.41971250000097,None,383.3540456300008,383.3540456300008,383.37085313000097,None,[],['z'],[0.6499891999992542],385.3560812000014,None,z,2.649989199999254,0,0,0.4583333333333333,None,389.09775420000005,None,389.09775420000005,None,,,,,,,,,,,,,,,,,,CBC_1014,003,3,1,6,13,0.95,2023-06-25_12h29.13.889,MSI_TV_v3,2022.1.1,60.01622838836633,
24,0,24,0,,,,,,,,,,0,1.0,0.0,b,63.0,1.0,2.496959177995529,0.979776149765883,None,390.9039135000003,None,391.8698064300017,391.8698064300017,391.88622413000047,None,[],['b'],[0.5929154999994353],393.8625851000015,None,b,2.5929154999994353,1,1,0.48,None,396.3452302000005,None,396.3452302000005,None,,,,,,,,,,,,,,,,,,CBC_1014,003,3,1,6,13,0.95,2023-06-25_12h29.13.889,MSI_TV_v3,2022.1.1,60.01622838836633,
25,0,25,0,,,,,,,,,,1,2.0,3.0,z,63.0,1.0,2.517541937862754,1.96568735158996,None,398.15402090000134,None,400.1041495300007,400.1041495300007,400.1207687300004,None,[],['b'],[0.4607282999986637],402.1096709000012,None,b,2.4607282999986637,0,0,0.46153846153846156,None,404.6236241000006,None,404.6236241000006,None,,,,,,,,,,,,,,,,,,CBC_1014,003,3,1,6,13,0.95,2023-06-25_12h29.13.889,MSI_TV_v3,2022.1.1,60.01622838836633,
26,0,26,0,,,,,,,,,,0,1.0,2.0,b,9.0,1.0,4.52047235037039,3.33124983260532,None,406.43743070000164,None,409.7536129300017,409.7536129300017,409.77017533,None,[],['z'],[0.828882199997679],411.7681599000007,None,z,2.828882199997679,0,0,0.4444444444444444,None,416.28322880000087,None,416.28322880000087,None,,,,,,,,,,,,,,,,,,CBC_1014,003,3,1,6,13,0.95,2023-06-25_12h29.13.889,MSI_TV_v3,2022.1.1,60.01622838836633,
27,0,27,0,,,,,,,,,,1,1.0,3.0,z,27.0,1.0,2.2759877950103027,2.15533949826702,None,418.08731140000054,None,420.22035483000144,420.22035483000144,420.23666133000114,None,[],['z'],[1.0148239999998623],422.2151493000001,None,z,3.0148239999998623,1,1,0.4642857142857143,None,424.4924820000015,None,424.4924820000015,None,,,,,,,,,,,,,,,,,,CBC_1014,003,3,1,6,13,0.95,2023-06-25_12h29.13.889,MSI_TV_v3,2022.1.1,60.01622838836633,
28,0,28,0,,,,,,,,,,2,1.0,0.0,z,63.0,1.0,4.61004669244928,2.96653053743745,None,426.30404830000043,None,429.25421303,429.25421303,429.2709645300012,None,[],['b'],[0.8406344999984867],431.256500200001,None,b,2.8406344999984867,0,0,0.4482758620689655,None,435.8763949000004,None,435.8763949000004,None,,,,,,,,,,,,,,,,,,CBC_1014,003,3,1,6,13,0.95,2023-06-25_12h29.13.889,MSI_TV_v3,2022.1.1,60.01622838836633,
29,0,29,0,,,,,,,,,,2,0.0,1.0,b,63.0,1.0,4.46924002178158,1.34668860557497,None,437.6864561000002,None,439.00424333000154,439.00424333000154,439.0207086300008,None,[],['z'],[0.2538650999995298],441.0036084000003,None,z,2.2538650999995298,0,0,0.43333333333333335,None,445.4776281000013,None,445.4776281000013,None,,,,,,,,,,,,,,,,,,CBC_1014,003,3,1,6,13,0.95,2023-06-25_12h29.13.889,MSI_TV_v3,2022.1.1,60.01622838836633,
30,0,30,0,,,,,,,,,,3,0.0,2.0,z,27.0,1.0,2.91303524001082,2.10421507306074,None,447.2875232000006,None,449.37091613000047,449.37091613000047,449.3874671300011,None,[],['z'],[1.309217500000159],451.3922240000011,None,z,3.309217500000159,1,1,0.45161290322580644,None,454.3059903000012,None,454.3059903000012,None,,,,,,,,,,,,,,,,,,CBC_1014,003,3,1,6,13,0.95,2023-06-25_12h29.13.889,MSI_TV_v3,2022.1.1,60.01622838836633,
31,0,31,0,,,,,,,,,,2,1.0,0.0,z,63.0,1.0,4.77034425507967,1.60731937853708,None,456.1206579000009,None,457.7043525300007,457.7043525300007,457.7209959300009,None,[],['b'],[0.8937821999988955],459.7065567000009,None,b,2.8937821999988955,0,0,0.4375,None,464.4769116000007,None,464.4769116000007,None,,,,,,,,,,,,,,,,,,CBC_1014,003,3,1,6,13,0.95,2023-06-25_12h29.13.889,MSI_TV_v3,2022.1.1,60.01622838836633,
32,0,32,0,,,,,,,,,,0,1.0,0.0,b,63.0,1.0,2.526044641065533,1.53243550275999,None,466.2867365000002,None,467.78772123000016,467.78772123000016,467.80442303000126,None,[],['z'],[0.8694818999993004],469.78972310000063,None,z,2.8694818999993004,0,0,0.42424242424242425,None,472.3076555000007,None,472.3076555000007,None,,,,,,,,,,,,,,,,,,CBC_1014,003,3,1,6,13,0.95,2023-06-25_12h29.13.889,MSI_TV_v3,2022.1.1,60.01622838836633,
33,0,33,0,,,,,,,,,,1,3.0,2.0,b,63.0,1.0,4.11514536789087,1.94858485820231,None,474.1205654000005,None,476.0545021300015,476.0545021300015,476.07020223000035,None,[],['b'],[2.2118011999973533],478.04965210000046,None,b,4.211801199997353,1,1,0.4411764705882353,None,482.15215910000006,None,482.15215910000006,None,,,,,,,,,,,,,,,,,,CBC_1014,003,3,1,6,13,0.95,2023-06-25_12h29.13.889,MSI_TV_v3,2022.1.1,60.01622838836633,
34,0,34,0,,,,,,,,,,0,3.0,1.0,z,27.0,1.0,4.82531807167306,1.25817747924478,None,483.9535061000006,None,485.18748653000074,485.18748653000074,485.20429153000003,None,[],['z'],[1.1232494999985647],487.19409240000095,None,z,3.1232494999985647,1,1,0.45714285714285713,None,492.0271636000016,None,492.0271636000016,None,,,,,,,,,,,,,,,,,,CBC_1014,003,3,1,6,13,0.95,2023-06-25_12h29.13.889,MSI_TV_v3,2022.1.1,60.01622838836633,
35,0,35,0,,,,,,,,,,3,3.0,2.0,z,63.0,1.0,2.6391747348430608,1.78643585472448,None,493.83774640000047,None,495.6044351299999,495.6044351299999,495.6209578300015,None,[],['z'],[0.5635763999998744],497.6264308000009,None,z,2.5635763999998744,1,1,0.4722222222222222,None,500.26820990000124,None,500.26820990000124,None,,,,,,,,,,,,,,,,,,CBC_1014,003,3,1,6,13,0.95,2023-06-25_12h29.13.889,MSI_TV_v3,2022.1.1,60.01622838836633,
36,0,36,0,,,,,,,,,,3,2.0,0.0,b,27.0,1.0,3.02234236141277,2.22427187882546,None,502.0700134000017,None,504.2705447300006,504.2705447300006,504.28659913000155,None,[],['z'],[0.6248632999995607],506.2848362000004,None,z,2.6248632999995607,0,0,0.4594594594594595,None,509.3076912000015,None,509.3076912000015,None,,,,,,,,,,,,,,,,,,CBC_1014,003,3,1,6,13,0.95,2023-06-25_12h29.13.889,MSI_TV_v3,2022.1.1,60.01622838836633,
37,0,37,0,,,,,,,,,,0,1.0,0.0,b,63.0,1.0,2.433630701072358,1.1243895841892,None,511.1213232000009,None,512.2200554300009,512.2200554300009,512.2365989300008,None,[],['b'],[0.36023779999959515],514.2146162000008,None,b,2.360237799999595,1,1,0.47368421052631576,None,516.6395631000014,None,516.6395631000014,None,,,,,,,,,,,,,,,,,,CBC_1014,003,3,1,6,13,0.95,2023-06-25_12h29.13.889,MSI_TV_v3,2022.1.1,60.01622838836633,
38,0,38,0,,,,,,,,,,2,3.0,0.0,z,9.0,1.0,3.2062024266105302,2.49839527409216,None,518.4543213000015,None,520.9382343300015,520.9382343300015,520.9542971300009,None,[],['b'],[0.6185680999988108],522.9408294000004,None,b,2.618568099998811,0,0,0.46153846153846156,None,526.1436127000015,None,526.1436127000015,None,,,,,,,,,,,,,,,,,,CBC_1014,003,3,1,6,13,0.95,2023-06-25_12h29.13.889,MSI_TV_v3,2022.1.1,60.01622838836633,
39,0,39,0,,,,,,,,,,3,3.0,2.0,z,63.0,0.0,3.26539063535182,1.53122835510861,None,527.9547146000004,None,529.4710709300009,529.4710709300009,529.4877493300003,None,[],['b'],[0.8007781999986037],531.4750002000001,None,b,2.8007781999986037,0,1,0.45,None,534.7468250000002,None,534.7468250000002,None,,,,,,,,,,,,,,,,,,CBC_1014,003,3,1,6,13,0.95,2023-06-25_12h29.13.889,MSI_TV_v3,2022.1.1,60.01622838836633,
40,0,40,0,,,,,,,,,,2,1.0,0.0,z,63.0,1.0,2.92731383428727,1.21250262048173,None,536.5545771000016,None,537.7541033300015,537.7541033300015,537.7703294300002,None,[],['z'],[1.026003099997979],539.7582060000004,None,z,3.026003099997979,1,1,0.4634146341463415,None,542.6810126,None,542.6810126,None,,,,,,,,,,,,,,,,,,CBC_1014,003,3,1,6,13,0.95,2023-06-25_12h29.13.889,MSI_TV_v3,2022.1.1,60.01622838836633,
41,0,41,0,,,,,,,,,,1,3.0,2.0,b,63.0,1.0,3.76873691643126,2.78346932462847,None,544.4877577000007,None,547.2539583300015,547.2539583300015,547.2705542300002,None,[],['b'],[1.1270934999993187],549.2550538000014,None,b,3.1270934999993187,1,1,0.47619047619047616,None,553.0279147000001,None,553.0279147000001,None,,,,,,,,,,,,,,,,,,CBC_1014,003,3,1,6,13,0.95,2023-06-25_12h29.13.889,MSI_TV_v3,2022.1.1,60.01622838836633,
42,0,42,0,,,,,,,,,,3,2.0,3.0,b,63.0,1.0,2.592312596923728,0.952147612306987,None,554.8380792000007,None,555.7704945300004,555.7704945300004,555.7868894300002,None,[],['z'],[0.9698095999974612],557.7645398000004,None,z,2.969809599997461,0,0,0.46511627906976744,None,560.3417589000001,None,560.3417589000001,None,,,,,,,,,,,,,,,,,,CBC_1014,003,3,1,6,13,0.95,2023-06-25_12h29.13.889,MSI_TV_v3,2022.1.1,60.01622838836633,
43,0,43,0,,,,,,,,,,1,1.0,3.0,z,27.0,1.0,2.342239579230602,1.12425433982333,None,562.1544843000011,None,563.2535716300001,563.2535716300001,563.26997633,None,[],None,,565.2469411000002,None,None,[],0,3,0.45454545454545453,None,567.5794246000005,None,567.5794246000005,None,,,,,,,,,,,,,,,,,,CBC_1014,003,3,1,6,13,0.95,2023-06-25_12h29.13.889,MSI_TV_v3,2022.1.1,60.01622838836633,
,,,,,,,,,,,,,,,,,,,,,,,,,,,,,,,,,,,,,,,,,,,None,569.3968723000016,None,,,,,,,,,,,,,,,CBC_1014,003,3,1,6,13,0.95,2023-06-25_12h29.13.889,MSI_TV_v3,2022.1.1,60.01622838836633,
,,,,,,,,,,,,,,,,,,,,,,,,,,,,,,,,,,,,,,,,,,,,,,574.3712713000004,None,None,574.3712713000004,579.3545189000015,,,,,,,,,,CBC_1014,003,3,1,6,13,0.95,2023-06-25_12h29.13.889,MSI_TV_v3,2022.1.1,60.01622838836633,
,,,,,,,,,,,,,,,,,,,,,,,,,,,,,,,,,,,,,,,,,,,,,,,,,,,z,b,easy,"[0, 1, 2, 3]","[2, 0, 3, 1]",0.5454545454545454,0.36363636363636365,0.36363636363636365,0.5454545454545454,,,,,,,,,,,,
