trials_runs.thisRepN,trials_runs.thisTrialN,trials_runs.thisN,trials_runs.thisIndex,standbild_start.started,standbild_start.stopped,trigger.keys,trigger.rt,trigger.started,trigger.stopped,keys_2.keys,keys_2.started,keys_2.stopped,trials_runs.auditory_stim,trials_runs.visual_stim_left,trials_runs.visual_stim_right,trials_runs.correctKey,trials_runs.presentationFrequncy,trials_runs.FBaccuracy,trials_runs.ISI_s,trials_runs.ITI_s,keys_3.keys,keys_3.started,keys_3.stopped,ImageLeft_4.started,ImageLeft_4.stopped,ImageRight_4.started,ImageRight_4.stopped,sound_4.started,sound_4.stopped,response_4.keys,response_4.rt,response_4.started,response_4.stopped,response_5.keys,response_5.started,response_5.stopped,response_runs.keys,response_runs.rt,trials_runs.correct_answer,trials_runs.feedback_given,trials_runs.running_mean,feedback_6.started,feedback_6.stopped,keys_6.keys,keys_6.started,keys_6.stopped,response_5.rt,keys_7.keys,keys_7.started,keys_7.stopped,standbild_end.started,standbild_end.stopped,Stop_exp.keys,Stop_exp.started,Stop_exp.stopped,trials_runs.rightKey,trials_runs.leftKey,ts_difficulty,visualPair,audioPair,trials_runs.mean_acc_1stFourth,trials_runs.mean_acc_2ndFourth,trials_runs.mean_acc_3rdFourth,trials_runs.mean_acc_4thFourth,nbCorrect,nbOmissions,nbIncorrect,participant,session,visual set [1-6],audio set [1-3],trial structure [0-3 / 4-7],pairing [0-23],prob Feedback,date,expName,psychopyVersion,frameRate,
,,,,54.11136220000026,None,t,69.47376180000083,54.11136220000026,None,,,,,,,,,,,,,,,,,,,,,,,,,,,,,,,,,,,,,,,,,,,,,,,,,,,,,,,,,,,CBC_1021,001,5,2,1,20,0.95,2023-07-18_14h40.56.369,MSI_AV_v3,2022.1.1,60.01766920185575,
,,,,,,,,,,None,123.60541980000016,None,,,,,,,,,,,,,,,,,,,,,,,,,,,,,,,,,,,,,,,,,,,,,,,,,,,,,,,,CBC_1021,001,5,2,1,20,0.95,2023-07-18_14h40.56.369,MSI_AV_v3,2022.1.1,60.01766920185575,
0,0,0,0,,,,,,,,,,1,1,0,b,63,1,2.91303524001082,0.952147612306987,None,123.80549859999974,None,124.91505419999976,None,124.91505419999976,None,124.92276592000016,None,['z'],[1.4229511000003185],124.91505419999976,None,None,126.77634020000005,None,z,1.4229511000003185,0,0,0.0,129.71174400000018,None,None,129.71174400000018,None,,,,,,,,,,,,,,,,,,,,,,CBC_1021,001,5,2,1,20,0.95,2023-07-18_14h40.56.369,MSI_AV_v3,2022.1.1,60.01766920185575,
1,0,1,0,,,,,,,,,,2,3,2,b,63,1,3.35133458220192,3.1963008326951,None,131.5060870999996,None,134.76274410000042,None,134.76274410000042,None,134.77286457000002,None,None,,134.76274410000042,None,['b'],136.6893517999997,None,b,2.1793077000002086,1,1,0.5,140.02758929999982,None,None,140.02758929999982,None,[0.17930770000020857],,,,,,,,,,,,,,,,,,,,,CBC_1021,001,5,2,1,20,0.95,2023-07-18_14h40.56.369,MSI_AV_v3,2022.1.1,60.01766920185575,
2,0,2,0,,,,,,,,,,1,3,1,z,27,1,3.7500315165247198,0.979776149765883,None,141.8399204999996,None,142.82206179999957,None,142.82206179999957,None,142.82309162999982,None,None,,142.82206179999957,None,['b'],144.80646890000025,None,b,2.5933810000005906,0,0,0.3333333333333333,148.53819610000028,None,None,148.53819610000028,None,[0.5933810000005906],,,,,,,,,,,,,,,,,,,,,CBC_1021,001,5,2,1,20,0.95,2023-07-18_14h40.56.369,MSI_AV_v3,2022.1.1,60.01766920185575,
3,0,3,0,,,,,,,,,,0,2,3,b,63,1,3.26539063535182,2.40378712856304,None,150.34010560000024,None,152.79810139999972,None,152.79810139999972,None,152.8063129600003,None,None,,152.79810139999972,None,['b'],154.7400716000002,None,b,2.7353900000007343,1,1,0.5,158.00290229999973,None,None,158.00290229999973,None,[0.7353900000007343],,,,,,,,,,,,,,,,,,,,,CBC_1021,001,5,2,1,20,0.95,2023-07-18_14h40.56.369,MSI_AV_v3,2022.1.1,60.01766920185575,
4,0,4,0,,,,,,,,,,0,0,2,z,27,1,4.72585056748869,2.10421507306074,None,159.80654159999995,None,161.90509180000026,None,161.90509180000026,None,161.9054426199997,None,None,,161.90509180000026,None,['b'],163.88968529999966,None,b,2.245441199999732,0,0,0.4,168.59444879999955,None,None,168.59444879999955,None,[0.2454411999997319],,,,,,,,,,,,,,,,,,,,,CBC_1021,001,5,2,1,20,0.95,2023-07-18_14h40.56.369,MSI_AV_v3,2022.1.1,60.01766920185575,
5,0,5,0,,,,,,,,,,3,0,3,b,9,1,3.6438386551209,3.1424449555106,None,170.4067157999998,None,173.57438180000008,None,173.57438180000008,None,173.57318633999986,None,['b'],[1.8027225999994698],173.57438180000008,None,None,175.55708200000026,None,b,1.8027225999994698,1,1,0.5,179.21320170000035,None,None,179.21320170000035,None,,,,,,,,,,,,,,,,,,,,,,CBC_1021,001,5,2,1,20,0.95,2023-07-18_14h40.56.369,MSI_AV_v3,2022.1.1,60.01766920185575,
6,0,6,0,,,,,,,,,,0,2,3,b,63,1,2.792365600763554,1.43470440954152,None,181.02322100000038,None,182.45524850000038,None,182.45524850000038,None,182.45559391999961,None,None,,182.45524850000038,None,['b'],184.4399254,None,b,2.422278400000323,1,1,0.5714285714285714,187.2229116999997,None,None,187.2229116999997,None,[0.422278400000323],,,,,,,,,,,,,,,,,,,,,CBC_1021,001,5,2,1,20,0.95,2023-07-18_14h40.56.369,MSI_AV_v3,2022.1.1,60.01766920185575,
7,0,7,0,,,,,,,,,,3,1,0,z,63,1,2.82320408183943,1.53243550275999,None,189.02323309999974,None,190.57544990000042,None,190.57544990000042,None,190.57332923000004,None,None,,190.57544990000042,None,['z'],192.55552999999964,None,z,2.4022212999998374,1,1,0.625,195.37633189999997,None,None,195.37633189999997,None,[0.40222129999983736],,,,,,,,,,,,,,,,,,,,,CBC_1021,001,5,2,1,20,0.95,2023-07-18_14h40.56.369,MSI_AV_v3,2022.1.1,60.01766920185575,
8,0,8,0,,,,,,,,,,2,2,3,z,63,1,4.53337421950507,2.15533949826702,None,197.19008060000033,None,199.35646350000025,None,199.35646350000025,None,199.35665272999987,None,['z'],[1.8032187999997404],199.35646350000025,None,None,201.35441679999985,None,z,1.8032187999997404,1,1,0.6666666666666666,205.89650340000026,None,None,205.89650340000026,None,,,,,,,,,,,,,,,,,,,,,,CBC_1021,001,5,2,1,20,0.95,2023-07-18_14h40.56.369,MSI_AV_v3,2022.1.1,60.01766920185575,
9,0,9,0,,,,,,,,,,0,3,2,z,63,1,4.01714354611405,3.40155979865722,None,207.70663539999987,None,211.12436530000014,None,211.12436530000014,None,211.12323502999962,None,None,,211.12436530000014,None,['z'],213.10564710000017,None,z,3.148466300000109,1,1,0.7,217.11513879999984,None,None,217.11513879999984,None,[1.1484663000001092],,,,,,,,,,,,,,,,,,,,,CBC_1021,001,5,2,1,20,0.95,2023-07-18_14h40.56.369,MSI_AV_v3,2022.1.1,60.01766920185575,
10,0,10,0,,,,,,,,,,2,3,1,b,27,1,2.592312596923728,1.78643585472448,None,218.92330930000026,None,220.7041435000001,None,220.7041435000001,None,220.70549231999996,None,['z'],[1.8488083000002007],220.7041435000001,None,None,222.7042508000004,None,z,1.8488083000002007,0,0,0.6363636363636364,225.29429119999986,None,None,225.29429119999986,None,,,,,,,,,,,,,,,,,,,,,,CBC_1021,001,5,2,1,20,0.95,2023-07-18_14h40.56.369,MSI_AV_v3,2022.1.1,60.01766920185575,
11,0,11,0,,,,,,,,,,3,0,1,b,63,0,2.526044641065533,3.33124983260532,None,227.1066555999996,None,230.4530850000001,None,230.4530850000001,None,230.4565491299999,None,None,,230.4530850000001,None,['b'],232.4399738000002,None,b,3.1785282000000734,1,0,0.6666666666666666,234.9485906,None,None,234.9485906,None,[1.1785282000000734],,,,,,,,,,,,,,,,,,,,,CBC_1021,001,5,2,1,20,0.95,2023-07-18_14h40.56.369,MSI_AV_v3,2022.1.1,60.01766920185575,
12,0,12,0,,,,,,,,,,0,3,2,z,63,1,4.77034425507967,1.90743690794447,None,236.75718940000024,None,238.65479609999966,None,238.65479609999966,None,238.65566381999963,None,None,,238.65479609999966,None,['z'],240.6398753000003,None,z,2.3938638000008723,1,1,0.6923076923076923,245.39810699999998,None,None,245.39810699999998,None,[0.3938638000008723],,,,,,,,,,,,,,,,,,,,,CBC_1021,001,5,2,1,20,0.95,2023-07-18_14h40.56.369,MSI_AV_v3,2022.1.1,60.01766920185575,
13,0,13,0,,,,,,,,,,3,2,0,z,27,1,3.3728785608729996,2.78346932462847,None,247.2067893000003,None,249.9973726999997,None,249.9973726999997,None,250.00654682999985,None,None,,249.9973726999997,None,['z'],251.98986570000034,None,z,2.4862370000000737,1,1,0.7142857142857143,255.3440982000002,None,None,255.3440982000002,None,[0.48623700000007375],,,,,,,,,,,,,,,,,,,,,CBC_1021,001,5,2,1,20,0.95,2023-07-18_14h40.56.369,MSI_AV_v3,2022.1.1,60.01766920185575,
14,0,14,0,,,,,,,,,,1,1,0,b,63,1,2.496959177995529,1.18065738546375,None,257.1566745,None,258.3567327999999,None,258.3567327999999,None,258.35673683,None,None,,258.3567327999999,None,['b'],260.3401494999998,None,b,2.038086700000349,1,1,0.7333333333333333,262.82200379999995,None,None,262.82200379999995,None,[0.03808670000034908],,,,,,,,,,,,,,,,,,,,,CBC_1021,001,5,2,1,20,0.95,2023-07-18_14h40.56.369,MSI_AV_v3,2022.1.1,60.01766920185575,
15,0,15,0,,,,,,,,,,2,2,3,z,63,1,3.71372710086949,0.77703640172831,None,264.6224009999996,None,265.40695010000036,None,265.40695010000036,None,265.40684853000033,None,['b'],[1.8570274000003337],265.40695010000036,None,None,267.4050846,None,b,1.8570274000003337,0,0,0.6875,271.12498440000036,None,None,271.12498440000036,None,,,,,,,,,,,,,,,,,,,,,,CBC_1021,001,5,2,1,20,0.95,2023-07-18_14h40.56.369,MSI_AV_v3,2022.1.1,60.01766920185575,
16,0,16,0,,,,,,,,,,1,2,1,z,9,1,2.517541937862754,1.60731937853708,None,272.94012920000023,None,274.5391443999997,None,274.5391443999997,None,274.5391224199999,None,['z'],[1.3314387000009447],274.5391443999997,None,None,276.5420173000002,None,z,1.3314387000009447,1,1,0.7058823529411765,279.0628591000004,None,None,279.0628591000004,None,,,,,,,,,,,,,,,,,,,,,,CBC_1021,001,5,2,1,20,0.95,2023-07-18_14h40.56.369,MSI_AV_v3,2022.1.1,60.01766920185575,
17,0,17,0,,,,,,,,,,2,3,1,b,27,1,4.46924002178158,3.06992456303453,None,280.8732597999997,None,283.95568060000005,None,283.95568060000005,None,283.9566251300002,None,['z'],[1.4210486000001765],283.95568060000005,None,None,285.95752429999993,None,z,1.4210486000001765,0,0,0.6666666666666666,290.42797410000003,None,None,290.42797410000003,None,,,,,,,,,,,,,,,,,,,,,,CBC_1021,001,5,2,1,20,0.95,2023-07-18_14h40.56.369,MSI_AV_v3,2022.1.1,60.01766920185575,
18,0,18,0,,,,,,,,,,3,1,0,z,63,1,3.02234236141277,1.52290599571961,None,292.23999710000044,None,293.7732573000003,None,293.7732573000003,None,293.77330803000035,None,None,,293.7732573000003,None,['b'],295.75719240000035,None,b,3.0897924000000785,0,0,0.631578947368421,298.76241240000036,None,None,298.76241240000036,None,[1.0897924000000785],,,,,,,,,,,,,,,,,,,,,CBC_1021,001,5,2,1,20,0.95,2023-07-18_14h40.56.369,MSI_AV_v3,2022.1.1,60.01766920185575,
19,0,19,0,,,,,,,,,,3,0,1,b,63,1,2.693348633324513,1.25920145784721,None,300.57890769999995,None,301.84011910000027,None,301.84011910000027,None,301.84001362999965,None,None,,301.84011910000027,None,['z'],303.82327520000035,None,z,2.6108318000005966,0,0,0.6,306.51483629999984,None,None,306.51483629999984,None,[0.6108318000005966],,,,,,,,,,,,,,,,,,,,,CBC_1021,001,5,2,1,20,0.95,2023-07-18_14h40.56.369,MSI_AV_v3,2022.1.1,60.01766920185575,
20,0,20,0,,,,,,,,,,0,0,2,z,27,1,3.2062024266105302,1.95130344756745,None,308.32350979999956,None,310.2722858999996,None,310.2722858999996,None,310.2724537199998,None,None,,310.2722858999996,None,['b'],312.2567144000004,None,b,2.5038155000002007,0,0,0.5714285714285714,315.45350549999966,None,None,315.45350549999966,None,[0.5038155000002007],,,,,,,,,,,,,,,,,,,,,CBC_1021,001,5,2,1,20,0.95,2023-07-18_14h40.56.369,MSI_AV_v3,2022.1.1,60.01766920185575,
21,0,21,0,,,,,,,,,,1,1,0,b,63,1,4.11514536789087,2.6299100644723,None,317.2569196000004,None,319.90780859999995,None,319.90780859999995,None,319.90665993000033,None,None,,319.90780859999995,None,['b'],321.8900365999998,None,b,3.2429962000005617,1,1,0.5909090909090909,325.99554420000004,None,None,325.99554420000004,None,[1.2429962000005617],,,,,,,,,,,,,,,,,,,,,CBC_1021,001,5,2,1,20,0.95,2023-07-18_14h40.56.369,MSI_AV_v3,2022.1.1,60.01766920185575,
22,0,22,0,,,,,,,,,,0,0,2,z,27,1,2.666404967794728,0.917519910446003,None,327.80670100000043,None,328.7431360999999,None,328.7431360999999,None,328.7400026300001,None,None,,328.7431360999999,None,['z'],330.7226291999996,None,z,2.142398900000444,1,1,0.6086956521739131,333.37632360000043,None,None,333.37632360000043,None,[0.14239890000044397],,,,,,,,,,,,,,,,,,,,,CBC_1021,001,5,2,1,20,0.95,2023-07-18_14h40.56.369,MSI_AV_v3,2022.1.1,60.01766920185575,
23,0,23,0,,,,,,,,,,2,2,3,z,63,1,2.678526077912375,2.09887870490381,None,335.1902917999996,None,337.3066044999996,None,337.3066044999996,None,337.30694343000044,None,None,,337.3066044999996,None,['z'],339.29024990000016,None,z,2.2712227000001803,1,1,0.625,341.9886927999996,None,None,341.9886927999996,None,[0.27122270000018034],,,,,,,,,,,,,,,,,,,,,CBC_1021,001,5,2,1,20,0.95,2023-07-18_14h40.56.369,MSI_AV_v3,2022.1.1,60.01766920185575,
24,0,24,0,,,,,,,,,,3,0,1,b,63,1,2.342239579230602,1.38289892513751,None,343.7893125999999,None,345.1744424999997,None,345.1744424999997,None,345.1736080299997,None,['z'],[1.6521060000004582],345.1744424999997,None,None,347.18157429999974,None,z,1.6521060000004582,0,0,0.6,349.52800339999976,None,None,349.52800339999976,None,,,,,,,,,,,,,,,,,,,,,,CBC_1021,001,5,2,1,20,0.95,2023-07-18_14h40.56.369,MSI_AV_v3,2022.1.1,60.01766920185575,
25,0,25,0,,,,,,,,,,0,2,3,b,63,1,4.77723667052879,1.36309078069689,None,351.33962470000006,None,352.70715199999995,None,352.70715199999995,None,352.70695772999983,None,None,,352.70715199999995,None,['b'],354.6902203999998,None,b,2.5770855999999185,1,1,0.6153846153846154,359.45616059999975,None,None,359.45616059999975,None,[0.5770855999999185],,,,,,,,,,,,,,,,,,,,,CBC_1021,001,5,2,1,20,0.95,2023-07-18_14h40.56.369,MSI_AV_v3,2022.1.1,60.01766920185575,
26,0,26,0,,,,,,,,,,3,0,2,b,27,1,2.6391747348430608,0.974903167432984,None,361.2570882,None,362.2612769999996,None,362.2612769999996,None,362.27356805000045,None,['z'],[1.7717108000006192],362.2612769999996,None,None,364.22328469999957,None,z,1.7717108000006192,0,0,0.5925925925925926,366.8726961000002,None,None,366.8726961000002,None,,,,,,,,,,,,,,,,,,,,,,CBC_1021,001,5,2,1,20,0.95,2023-07-18_14h40.56.369,MSI_AV_v3,2022.1.1,60.01766920185575,
27,0,27,0,,,,,,,,,,2,2,3,z,63,1,4.12485271162806,1.64421109900286,None,368.6736959,None,370.32421220000015,None,370.32421220000015,None,370.3237410299998,None,['z'],[1.8064944999996442],370.32421220000015,None,None,372.3241035000001,None,z,1.8064944999996442,1,1,0.6071428571428571,376.4623902000003,None,None,376.4623902000003,None,,,,,,,,,,,,,,,,,,,,,,CBC_1021,001,5,2,1,20,0.95,2023-07-18_14h40.56.369,MSI_AV_v3,2022.1.1,60.01766920185575,
28,0,28,0,,,,,,,,,,2,2,3,z,63,1,4.61004669244928,1.94858485820231,None,378.27386600000045,None,380.24057559999983,None,380.24057559999983,None,380.2404250300005,None,None,,380.24057559999983,None,['b'],382.2227874,None,b,2.0734197000001586,0,0,0.5862068965517241,386.81201239999973,None,None,386.81201239999973,None,[0.07341970000015863],,,,,,,,,,,,,,,,,,,,,CBC_1021,001,5,2,1,20,0.95,2023-07-18_14h40.56.369,MSI_AV_v3,2022.1.1,60.01766920185575,
29,0,29,0,,,,,,,,,,1,1,3,b,27,1,3.76873691643126,0.80788063606262,None,388.6236439000004,None,389.44093799999973,None,389.44093799999973,None,389.4404956300004,None,None,,389.44093799999973,None,['z'],391.4232345999999,None,z,2.463457699999708,0,0,0.5666666666666667,395.18214720000014,None,None,395.18214720000014,None,[0.463457699999708],,,,,,,,,,,,,,,,,,,,,CBC_1021,001,5,2,1,20,0.95,2023-07-18_14h40.56.369,MSI_AV_v3,2022.1.1,60.01766920185575,
30,0,30,0,,,,,,,,,,2,3,0,b,9,1,4.40017271499661,1.96568735158996,None,396.9903519999998,None,398.97311009999976,None,398.97311009999976,None,398.9737542299999,None,None,,398.97311009999976,None,['z'],400.95729289999963,None,z,2.1044332000001305,0,0,0.5483870967741935,405.3505548000003,None,None,405.3505548000003,None,[0.10443320000013046],,,,,,,,,,,,,,,,,,,,,CBC_1021,001,5,2,1,20,0.95,2023-07-18_14h40.56.369,MSI_AV_v3,2022.1.1,60.01766920185575,
31,0,31,0,,,,,,,,,,1,0,1,z,63,1,4.190022164497369,1.53122835510861,None,407.15697480000017,None,408.7032403000003,None,408.7032403000003,None,408.7068494300001,None,None,,408.7032403000003,None,['b'],410.69048120000025,None,b,2.055072199999813,0,0,0.53125,414.8720099000002,None,None,414.8720099000002,None,[0.055072199999813165],,,,,,,,,,,,,,,,,,,,,CBC_1021,001,5,2,1,20,0.95,2023-07-18_14h40.56.369,MSI_AV_v3,2022.1.1,60.01766920185575,
32,0,32,0,,,,,,,,,,3,0,1,b,63,1,2.92731383428727,0.761758675042088,None,416.67386780000015,None,417.44077579999976,None,417.44077579999976,None,417.44050363000036,None,None,,417.44077579999976,None,['z'],419.42380049999974,None,z,2.1698259000004327,0,0,0.5151515151515151,422.3385834999999,None,None,422.3385834999999,None,[0.16982590000043274],,,,,,,,,,,,,,,,,,,,,CBC_1021,001,5,2,1,20,0.95,2023-07-18_14h40.56.369,MSI_AV_v3,2022.1.1,60.01766920185575,
33,0,33,0,,,,,,,,,,1,0,1,z,63,1,2.629554641171433,2.22427187882546,None,424.14068190000035,None,426.37333450000006,None,426.37333450000006,None,426.37389613000045,None,['z'],[1.896343600000364],426.37333450000006,None,None,428.356941,None,z,1.896343600000364,1,1,0.5294117647058824,430.98946350000006,None,None,430.98946350000006,None,,,,,,,,,,,,,,,,,,,,,,CBC_1021,001,5,2,1,20,0.95,2023-07-18_14h40.56.369,MSI_AV_v3,2022.1.1,60.01766920185575,
34,0,34,0,,,,,,,,,,0,2,3,b,63,1,3.31929419319838,2.49839527409216,None,432.79049060000034,None,435.31296099999963,None,435.31296099999963,None,435.30716243,None,None,,435.31296099999963,None,['b'],437.29039470000043,None,b,2.23327640000025,1,1,0.5428571428571428,440.60103359999994,None,None,440.60103359999994,None,[0.23327640000024985],,,,,,,,,,,,,,,,,,,,,CBC_1021,001,5,2,1,20,0.95,2023-07-18_14h40.56.369,MSI_AV_v3,2022.1.1,60.01766920185575,
35,0,35,0,,,,,,,,,,3,2,0,z,27,1,2.294664843639333,1.25817747924478,None,442.4072772999998,None,443.65533099999993,None,443.65533099999993,None,443.6562445200003,None,None,,443.65533099999993,None,['b'],445.64057409999987,None,b,2.1865852000000814,0,0,0.5277777777777778,447.91571850000037,None,None,447.91571850000037,None,[0.18658520000008139],,,,,,,,,,,,,,,,,,,,,CBC_1021,001,5,2,1,20,0.95,2023-07-18_14h40.56.369,MSI_AV_v3,2022.1.1,60.01766920185575,
36,0,36,0,,,,,,,,,,1,0,1,z,63,1,3.68371079902891,1.27538462653558,None,449.72376689999965,None,450.9971916000004,None,450.9971916000004,None,451.0071990300002,None,None,,450.9971916000004,None,['z'],452.99040440000044,None,z,3.1733695000002626,1,1,0.5405405405405406,456.67549979999967,None,None,456.67549979999967,None,[1.1733695000002626],,,,,,,,,,,,,,,,,,,,,CBC_1021,001,5,2,1,20,0.95,2023-07-18_14h40.56.369,MSI_AV_v3,2022.1.1,60.01766920185575,
37,0,37,0,,,,,,,,,,1,1,3,b,27,1,4.82531807167306,3.4543169006169,None,458.4906486,None,461.9573472999991,None,461.9573472999991,None,461.9571103300004,None,['z'],[1.596231200001057],461.9573472999991,None,None,463.94044289999965,None,z,1.596231200001057,0,0,0.5263157894736842,468.7788541,None,None,468.7788541,None,,,,,,,,,,,,,,,,,,,,,,CBC_1021,001,5,2,1,20,0.95,2023-07-18_14h40.56.369,MSI_AV_v3,2022.1.1,60.01766920185575,
38,0,38,0,,,,,,,,,,0,2,3,b,63,1,3.73326136168326,1.12425433982333,None,470.5905131999998,None,471.70584560000043,None,471.70584560000043,None,471.7061909199998,None,None,,471.70584560000043,None,['z'],473.6904633999993,None,z,2.3450217000008706,0,0,0.5128205128205128,477.4124204999998,None,None,477.4124204999998,None,[0.3450217000008706],,,,,,,,,,,,,,,,,,,,,CBC_1021,001,5,2,1,20,0.95,2023-07-18_14h40.56.369,MSI_AV_v3,2022.1.1,60.01766920185575,
39,0,39,0,,,,,,,,,,2,1,3,z,27,1,2.2759877950103027,1.34668860557497,None,479.22302070000023,None,480.57659949999925,None,480.57659949999925,None,480.57402942999937,None,['b'],[1.9250427000006312],480.57659949999925,None,None,482.5733630000004,None,b,1.9250427000006312,0,0,0.5,484.86029250000047,None,None,484.86029250000047,None,,,,,,,,,,,,,,,,,,,,,,CBC_1021,001,5,2,1,20,0.95,2023-07-18_14h40.56.369,MSI_AV_v3,2022.1.1,60.01766920185575,
40,0,40,0,,,,,,,,,,0,2,1,b,9,1,2.7134565917469198,2.96653053743745,None,486.6738464,None,489.6395318999994,None,489.6395318999994,None,489.63983571999927,None,None,,489.6395318999994,None,['z'],491.62400649999927,None,z,2.426528700001654,0,0,0.4878048780487805,494.3297298999996,None,None,494.3297298999996,None,[0.4265287000016542],,,,,,,,,,,,,,,,,,,,,CBC_1021,001,5,2,1,20,0.95,2023-07-18_14h40.56.369,MSI_AV_v3,2022.1.1,60.01766920185575,
41,0,41,0,,,,,,,,,,1,1,0,b,63,0,2.433630701072358,3.24569326556923,None,496.1409360000007,None,499.39147890000004,None,499.39147890000004,None,499.3908804300008,None,None,,499.39147890000004,None,['b'],501.37406549999923,None,b,2.591447300001164,1,0,0.5,503.7935752000003,None,None,503.7935752000003,None,[0.591447300001164],,,,,,,,,,,,,,,,,,,,,CBC_1021,001,5,2,1,20,0.95,2023-07-18_14h40.56.369,MSI_AV_v3,2022.1.1,60.01766920185575,
42,0,42,0,,,,,,,,,,2,2,3,z,63,1,4.7533305109883095,1.1243895841892,None,505.60733209999944,None,506.7405795000004,None,506.7405795000004,None,506.7406087300005,None,['b'],[1.4112423999995372],506.7405795000004,None,None,508.7349712000005,None,b,1.4112423999995372,0,0,0.4883720930232558,513.4963930000004,None,None,513.4963930000004,None,,,,,,,,,,,,,,,,,,,,,,CBC_1021,001,5,2,1,20,0.95,2023-07-18_14h40.56.369,MSI_AV_v3,2022.1.1,60.01766920185575,
43,0,43,0,,,,,,,,,,3,1,0,z,63,1,4.52047235037039,1.21250262048173,None,515.3065185999994,None,516.5238619000002,None,516.5238619000002,None,516.5241415300005,None,None,,516.5238619000002,None,['z'],518.5075320999995,None,z,2.327916100000948,1,1,0.5,523.0126881000006,None,None,523.0126881000006,None,[0.32791610000094806],,,,,,,,,,,,,,,,,,,,,CBC_1021,001,5,2,1,20,0.95,2023-07-18_14h40.56.369,MSI_AV_v3,2022.1.1,60.01766920185575,
,,,,,,,,,,,,,,,,,,,,,,,,,,,,,,,,,,,,,,,,,,,,,,,,None,524.8240692999998,None,,,,,,,,,,,,,,,,,,CBC_1021,001,5,2,1,20,0.95,2023-07-18_14h40.56.369,MSI_AV_v3,2022.1.1,60.01766920185575,
,,,,,,,,,,,,,,,,,,,,,,,,,,,,,,,,,,,,,,,,,,,,,,,,,,,529.8235911000002,None,None,529.8235911000002,None,,,,,,,,,,,,,CBC_1021,001,5,2,1,20,0.95,2023-07-18_14h40.56.369,MSI_AV_v3,2022.1.1,60.01766920185575,
,,,,,,,,,,,,,,,,,,,,,,,,,,,,,,,,,,,,,,,,,,,,,,,,,,,,,,,,z,b,easy,"[0, 1, 2, 3]","[3, 1, 0, 2]",0.6363636363636364,0.5454545454545454,0.36363636363636365,0.45454545454545453,20,0,24,,,,,,,,,,,,
