trials_runs.thisRepN,trials_runs.thisTrialN,trials_runs.thisN,trials_runs.thisIndex,standbild_start.started,standbild_start.stopped,trigger.keys,trigger.rt,trigger.started,trigger.stopped,keys_2.keys,keys_2.started,keys_2.stopped,trials_runs.tactile_stim,trials_runs.visual_stim_left,trials_runs.visual_stim_right,trials_runs.correctKey,trials_runs.presentationFrequncy,trials_runs.FBaccuracy,trials_runs.ISI_s,trials_runs.ITI_s,keys_3.keys,keys_3.started,keys_3.stopped,image_stim_left.started,image_stim_right.started,tactile.started,response_4.keys,allKeys.keys,response_5.keys,response_5.rt,response_5.started,response_5.stopped,response_runs.keys,response_runs.rt,trials_runs.correct_answer,trials_runs.feedback_given,trials_runs.running_mean,feedback_6.stopped,feedback_6.started,keys_6.keys,keys_6.started,keys_6.stopped,response_4.rt,allKeys.rt,keys_7.keys,keys_7.started,keys_7.stopped,standbild_end.started,standbild_end.stopped,Stop_exp.keys,Stop_exp.started,Stop_exp.stopped,trials_runs.rightKey,trials_runs.leftKey,ts_difficulty,visualPair,tactilePair,trials_runs.mean_acc_1stFourth,trials_runs.mean_acc_2ndFourth,trials_runs.mean_acc_3rdFourth,trials_runs.mean_acc_4thFourth,nbCorrect,nbOmissions,nbIncorrect,participant,session,visual set [1-6],tactile set [1-3],trial structure [0-3 / 4-7],pairing [0-23],prob Feedback,date,expName,psychopyVersion,frameRate,
,,,,38.50263189999987,None,t,31.930545399999573,38.50263189999987,None,,,,,,,,,,,,,,,,,,,,,,,,,,,,,,,,,,,,,,,,,,,,,,,,,,,,,,,,CBC_1146,2,6,1,0,3,0.95,2024-09-11_14h45.07.369,MSI_TV_v3,2022.1.1,60.053856298558514,
,,,,,,,,,,None,70.46367490000011,None,,,,,,,,,,,,,,,,,,,,,,,,,,,,,,,,,,,,,,,,,,,,,,,,,,,,,CBC_1146,2,6,1,0,3,0.95,2024-09-11_14h45.07.369,MSI_TV_v3,2022.1.1,60.053856298558514,
0,0,0,0,,,,,,,,,,2,0.0,1.0,z,63.0,1.0,4.46924002178158,0.979776149765883,None,70.66338689999975,None,71.63000841000012,71.63000841000012,71.64662700999979,None,[],['z'],[0.4870549999996001],73.63693280000007,None,z,2.4870549999996,1,1,1.0,None,78.10165990000041,None,78.10165990000041,None,,,,,,,,,,,,,,,,,,,,,,,CBC_1146,2,6,1,0,3,0.95,2024-09-11_14h45.07.369,MSI_TV_v3,2022.1.1,60.053856298558514,
1,0,1,0,,,,,,,,,,0,0.0,1.0,b,63.0,1.0,2.693348633324513,1.38289892513751,None,79.89690549999978,None,81.26365871000034,81.26365871000034,81.28047631000008,None,[],['b'],[0.59410250000019],83.26857430000018,None,b,2.59410250000019,1,1,1.0,None,85.97400949999974,None,85.97400949999974,None,,,,,,,,,,,,,,,,,,,,,,,CBC_1146,2,6,1,0,3,0.95,2024-09-11_14h45.07.369,MSI_TV_v3,2022.1.1,60.053856298558514,
2,0,2,0,,,,,,,,,,1,2.0,3.0,z,63.0,1.0,2.294664843639333,1.36309078069689,None,87.77989350000007,None,89.13033540999986,89.13033540999986,89.14682691000034,None,[],['z'],[0.634976800000004],91.1336597999998,None,z,2.634976800000004,1,1,1.0,None,93.42675620000045,None,93.42675620000045,None,,,,,,,,,,,,,,,,,,,,,,,CBC_1146,2,6,1,0,3,0.95,2024-09-11_14h45.07.369,MSI_TV_v3,2022.1.1,60.053856298558514,
3,0,3,0,,,,,,,,,,2,2.0,1.0,z,9.0,1.0,2.91303524001082,1.60731937853708,None,95.23060979999991,None,96.8139609099997,96.8139609099997,96.83012950999982,None,[],['z'],[0.6200693000000683],98.81913520000035,None,z,2.6200693000000683,1,1,1.0,None,101.71641590000036,None,101.71641590000036,None,,,,,,,,,,,,,,,,,,,,,,,CBC_1146,2,6,1,0,3,0.95,2024-09-11_14h45.07.369,MSI_TV_v3,2022.1.1,60.053856298558514,
4,0,4,0,,,,,,,,,,0,0.0,2.0,b,27.0,1.0,2.666404967794728,1.34668860557497,None,103.53047400000014,None,104.86362141000045,104.86362141000045,104.88009911000044,None,[],['b'],[0.6679659999999785],106.87455180000052,None,b,2.6679659999999785,1,1,1.0,None,109.5449564999999,None,109.5449564999999,None,,,,,,,,,,,,,,,,,,,,,,,CBC_1146,2,6,1,0,3,0.95,2024-09-11_14h45.07.369,MSI_TV_v3,2022.1.1,60.053856298558514,
5,0,5,0,,,,,,,,,,3,2.0,3.0,b,63.0,1.0,3.31929419319838,3.33124983260532,None,111.34711190000053,None,114.66336890999973,114.66336890999973,114.68004941000054,None,[],['z'],[1.0974754999997458],116.66990859999987,None,z,3.097475499999746,0,0,0.8333333333333334,None,119.97416890000022,None,119.97416890000022,None,,,,,,,,,,,,,,,,,,,,,,,CBC_1146,2,6,1,0,3,0.95,2024-09-11_14h45.07.369,MSI_TV_v3,2022.1.1,60.053856298558514,
6,0,6,0,,,,,,,,,,1,1.0,3.0,z,27.0,1.0,2.678526077912375,2.10421507306074,None,121.78002800000013,None,123.86357491000017,123.86357491000017,123.88012311000038,None,[],['b'],[0.8078990999993039],125.8678832000005,None,b,2.807899099999304,0,0,0.7142857142857143,None,128.5628329000001,None,128.5628329000001,None,,,,,,,,,,,,,,,,,,,,,,,CBC_1146,2,6,1,0,3,0.95,2024-09-11_14h45.07.369,MSI_TV_v3,2022.1.1,60.053856298558514,
7,0,7,0,,,,,,,,,,0,1.0,0.0,z,63.0,1.0,2.592312596923728,3.40155979865722,None,130.36371520000012,None,133.74688121000037,133.74688121000037,133.76358581000005,None,[],['b'],[0.6873424999994313],135.75124500000038,None,b,2.6873424999994313,0,0,0.625,None,138.35318110000026,None,138.35318110000026,None,,,,,,,,,,,,,,,,,,,,,,,CBC_1146,2,6,1,0,3,0.95,2024-09-11_14h45.07.369,MSI_TV_v3,2022.1.1,60.053856298558514,
8,0,8,0,,,,,,,,,,3,2.0,0.0,b,27.0,1.0,2.433630701072358,2.15533949826702,None,140.16384600000038,None,142.2970596100002,142.2970596100002,142.31365300999988,None,[],['b'],[1.0028062999999747],144.30304679999972,None,b,3.0028062999999747,1,1,0.6666666666666666,None,146.72450990000016,None,146.72450990000016,None,,,,,,,,,,,,,,,,,,,,,,,CBC_1146,2,6,1,0,3,0.95,2024-09-11_14h45.07.369,MSI_TV_v3,2022.1.1,60.053856298558514,
9,0,9,0,,,,,,,,,,1,2.0,3.0,z,63.0,1.0,4.77723667052879,0.761758675042088,None,148.53056209999977,None,149.28050521000006,149.28050521000006,149.2971888099999,None,[],['b'],[0.7466658000003008],151.28501940000024,None,b,2.746665800000301,0,0,0.6,None,156.07276379999985,None,156.07276379999985,None,,,,,,,,,,,,,,,,,,,,,,,CBC_1146,2,6,1,0,3,0.95,2024-09-11_14h45.07.369,MSI_TV_v3,2022.1.1,60.053856298558514,
10,0,10,0,,,,,,,,,,2,1.0,0.0,b,63.0,1.0,4.12485271162806,3.24569326556923,None,157.88025560000005,None,161.11358041000022,161.11358041000022,161.1306588100004,None,[],['z'],[1.3428697999997894],163.1169318000002,None,z,3.3428697999997894,0,0,0.5454545454545454,None,167.2409601999998,None,167.2409601999998,None,,,,,,,,,,,,,,,,,,,,,,,CBC_1146,2,6,1,0,3,0.95,2024-09-11_14h45.07.369,MSI_TV_v3,2022.1.1,60.053856298558514,
11,0,11,0,,,,,,,,,,0,0.0,1.0,b,63.0,1.0,3.02234236141277,2.22427187882546,None,169.04655830000047,None,171.24655141000022,171.24655141000022,171.26301851000045,None,[],['z'],[1.1991881999992984],173.24526440000045,None,z,3.1991881999992984,0,0,0.5,None,176.26339840000037,None,176.26339840000037,None,,,,,,,,,,,,,,,,,,,,,,,CBC_1146,2,6,1,0,3,0.95,2024-09-11_14h45.07.369,MSI_TV_v3,2022.1.1,60.053856298558514,
12,0,12,0,,,,,,,,,,1,2.0,3.0,z,63.0,1.0,2.2759877950103027,2.6299100644723,None,178.06355200000053,None,180.6804994100001,180.6804994100001,180.6970874100005,None,[],['z'],[0.7762795999997252],182.68195770000057,None,z,2.776279599999725,1,1,0.5384615384615384,None,184.9646784000006,None,184.9646784000006,None,,,,,,,,,,,,,,,,,,,,,,,CBC_1146,2,6,1,0,3,0.95,2024-09-11_14h45.07.369,MSI_TV_v3,2022.1.1,60.053856298558514,
13,0,13,0,,,,,,,,,,3,2.0,0.0,b,27.0,1.0,4.7533305109883095,1.95130344756745,None,186.76360699999987,None,188.6968313100004,188.6968313100004,188.71330200999984,None,[],['z'],[1.1434049999998024],190.69661890000043,None,z,3.1434049999998024,0,0,0.5,None,195.46219930000007,None,195.46219930000007,None,,,,,,,,,,,,,,,,,,,,,,,CBC_1146,2,6,1,0,3,0.95,2024-09-11_14h45.07.369,MSI_TV_v3,2022.1.1,60.053856298558514,
14,0,14,0,,,,,,,,,,0,0.0,1.0,b,63.0,1.0,3.73326136168326,3.1424449555106,None,197.26331970000047,None,200.3802644100004,200.3802644100004,200.39666521000055,None,[],['z'],[0.5482816999992792],202.3795710000004,None,z,2.5482816999992792,0,0,0.4666666666666667,None,206.11281469999994,None,206.11281469999994,None,,,,,,,,,,,,,,,,,,,,,,,CBC_1146,2,6,1,0,3,0.95,2024-09-11_14h45.07.369,MSI_TV_v3,2022.1.1,60.053856298558514,
15,0,15,0,,,,,,,,,,2,1.0,3.0,b,27.0,1.0,3.2062024266105302,3.06992456303453,None,207.91360450000047,None,210.9634019100002,210.9634019100002,210.98047171000036,None,[],['z'],[1.0096020999999382],212.9644973000004,None,z,3.009602099999938,0,0,0.4375,None,216.18211059999976,None,216.18211059999976,None,,,,,,,,,,,,,,,,,,,,,,,CBC_1146,2,6,1,0,3,0.95,2024-09-11_14h45.07.369,MSI_TV_v3,2022.1.1,60.053856298558514,
16,0,16,0,,,,,,,,,,3,3.0,2.0,z,63.0,1.0,4.61004669244928,2.40378712856304,None,217.9968632,None,220.38080091000012,220.38080091000012,220.3970158099999,None,[],['z'],[1.0708493999991333],222.38531860000057,None,z,3.0708493999991333,1,1,0.47058823529411764,None,226.9954604000004,None,226.9954604000004,None,,,,,,,,,,,,,,,,,,,,,,,CBC_1146,2,6,1,0,3,0.95,2024-09-11_14h45.07.369,MSI_TV_v3,2022.1.1,60.053856298558514,
17,0,17,0,,,,,,,,,,1,2.0,3.0,z,63.0,0.0,3.7500315165247198,1.25920145784721,None,228.79637640000055,None,230.02979961000057,230.02979961000057,230.04674811000024,None,[],['z'],[0.883264600000075],232.03431780000028,None,z,2.883264600000075,1,0,0.5,None,235.7873982000001,None,235.7873982000001,None,,,,,,,,,,,,,,,,,,,,,,,CBC_1146,2,6,1,0,3,0.95,2024-09-11_14h45.07.369,MSI_TV_v3,2022.1.1,60.053856298558514,
18,0,18,0,,,,,,,,,,2,1.0,0.0,b,63.0,1.0,4.40017271499661,0.974903167432984,None,237.59700109999994,None,238.54720081000033,238.54720081000033,238.5639164100001,None,[],['z'],[2.1763694999999643],240.5518646999999,None,z,4.176369499999964,0,0,0.47368421052631576,None,244.96107370000027,None,244.96107370000027,None,,,,,,,,,,,,,,,,,,,,,,,CBC_1146,2,6,1,0,3,0.95,2024-09-11_14h45.07.369,MSI_TV_v3,2022.1.1,60.053856298558514,
19,0,19,0,,,,,,,,,,0,2.0,0.0,z,27.0,1.0,4.77034425507967,0.77703640172831,None,246.76388529999986,None,247.53062851000033,247.53062851000033,247.5472226099999,None,[],['b'],[0.2512997000003452],249.5360070000006,None,b,2.251299700000345,0,0,0.45,None,254.3083256,None,254.3083256,None,,,,,,,,,,,,,,,,,,,,,,,CBC_1146,2,6,1,0,3,0.95,2024-09-11_14h45.07.369,MSI_TV_v3,2022.1.1,60.053856298558514,
20,0,20,0,,,,,,,,,,1,0.0,3.0,z,9.0,1.0,3.76873691643126,1.27538462653558,None,256.113875,None,257.3638174100004,257.3638174100004,257.38055871000034,None,[],['z'],[0.4136484999989989],259.3690535000005,None,z,2.413648499998999,1,1,0.47619047619047616,None,263.14012230000026,None,263.14012230000026,None,,,,,,,,,,,,,,,,,,,,,,,CBC_1146,2,6,1,0,3,0.95,2024-09-11_14h45.07.369,MSI_TV_v3,2022.1.1,60.053856298558514,
21,0,21,0,,,,,,,,,,3,2.0,3.0,b,63.0,1.0,2.6391747348430608,1.43470440954152,None,264.9467058,None,266.3638632099999,266.3638632099999,266.3808513100001,None,[],['z'],[0.42089729999952397],268.37047919999986,None,z,2.420897299999524,0,0,0.45454545454545453,None,271.01080869999987,None,271.01080869999987,None,,,,,,,,,,,,,,,,,,,,,,,CBC_1146,2,6,1,0,3,0.95,2024-09-11_14h45.07.369,MSI_TV_v3,2022.1.1,60.053856298558514,
22,0,22,0,,,,,,,,,,2,3.0,1.0,z,27.0,1.0,3.26539063535182,1.53122835510861,None,272.8138226000001,None,274.3303804100004,274.3303804100004,274.3472172099999,None,[],None,,276.3362810999997,None,None,[],0,3,0.43478260869565216,None,279.59200770000007,None,279.59200770000007,None,,,,,,,,,,,,,,,,,,,,,,,CBC_1146,2,6,1,0,3,0.95,2024-09-11_14h45.07.369,MSI_TV_v3,2022.1.1,60.053856298558514,
23,0,23,0,,,,,,,,,,3,3.0,2.0,z,63.0,1.0,4.82531807167306,3.1963008326951,None,281.3973106000003,None,284.56416651,284.56416651,284.5809074100005,None,[],['b'],[0.4259887999996863],286.56972080000014,None,b,2.4259887999996863,0,0,0.4166666666666667,None,291.3816544000001,None,291.3816544000001,None,,,,,,,,,,,,,,,,,,,,,,,CBC_1146,2,6,1,0,3,0.95,2024-09-11_14h45.07.369,MSI_TV_v3,2022.1.1,60.053856298558514,
24,0,24,0,,,,,,,,,,1,2.0,3.0,z,63.0,1.0,4.53337421950507,1.90743690794447,None,293.1814873000003,None,295.0641756100002,295.0641756100002,295.0807515100003,None,[],['z'],[0.48318360000030225],297.0721629999998,None,z,2.4831836000003022,1,1,0.44,None,301.5995051,None,301.5995051,None,,,,,,,,,,,,,,,,,,,,,,,CBC_1146,2,6,1,0,3,0.95,2024-09-11_14h45.07.369,MSI_TV_v3,2022.1.1,60.053856298558514,
25,0,25,0,,,,,,,,,,2,1.0,0.0,b,63.0,1.0,2.82320408183943,3.4543169006169,None,303.4141163000004,None,306.84714350999985,306.84714350999985,306.86388701000016,None,[],['b'],[0.6916611999995439],308.85144990000026,None,b,2.691661199999544,1,1,0.46153846153846156,None,311.6771797000001,None,311.6771797000001,None,,,,,,,,,,,,,,,,,,,,,,,CBC_1146,2,6,1,0,3,0.95,2024-09-11_14h45.07.369,MSI_TV_v3,2022.1.1,60.053856298558514,
26,0,26,0,,,,,,,,,,0,0.0,3.0,b,9.0,1.0,4.72585056748869,2.49839527409216,None,313.4807472000002,None,315.9640092100006,315.9640092100006,315.9807322100003,None,[],['b'],[1.9919522999998662],317.9702183999998,None,b,3.9919522999998662,1,1,0.48148148148148145,None,322.69516699999986,None,322.69516699999986,None,,,,,,,,,,,,,,,,,,,,,,,CBC_1146,2,6,1,0,3,0.95,2024-09-11_14h45.07.369,MSI_TV_v3,2022.1.1,60.053856298558514,
27,0,27,0,,,,,,,,,,1,2.0,3.0,z,63.0,1.0,2.517541937862754,1.12425433982333,None,324.4972469000004,None,325.5979337100005,325.5979337100005,325.61421150999996,None,[],['z'],[0.8451969999996436],327.6038165,None,z,2.8451969999996436,1,1,0.5,None,330.1151682999998,None,330.1151682999998,None,,,,,,,,,,,,,,,,,,,,,,,CBC_1146,2,6,1,0,3,0.95,2024-09-11_14h45.07.369,MSI_TV_v3,2022.1.1,60.053856298558514,
28,0,28,0,,,,,,,,,,3,2.0,0.0,b,27.0,1.0,2.7134565917469198,1.21250262048173,None,331.93074220000017,None,333.1306661100005,333.1306661100005,333.14729590999997,None,[],None,,335.1367478000002,None,None,[],0,3,0.4827586206896552,None,337.8398358000004,None,337.8398358000004,None,,,,,,,,,,,,,,,,,,,,,,,CBC_1146,2,6,1,0,3,0.95,2024-09-11_14h45.07.369,MSI_TV_v3,2022.1.1,60.053856298558514,
29,0,29,0,,,,,,,,,,0,1.0,0.0,z,63.0,1.0,4.11514536789087,1.94858485820231,None,339.64705049999975,None,341.5797162100005,341.5797162100005,341.59670221000016,None,[],['z'],[0.4825804000001881],343.57742899999994,None,z,2.482580400000188,1,1,0.5,None,347.6940245000005,None,347.6940245000005,None,,,,,,,,,,,,,,,,,,,,,,,CBC_1146,2,6,1,0,3,0.95,2024-09-11_14h45.07.369,MSI_TV_v3,2022.1.1,60.053856298558514,
30,0,30,0,,,,,,,,,,2,1.0,0.0,b,63.0,1.0,2.792365600763554,0.952147612306987,None,349.4960738,None,350.43083391000056,350.43083391000056,350.44736281000024,None,[],['b'],[0.8009417000002941],352.4371110000002,None,b,2.800941700000294,1,1,0.5161290322580645,None,355.21983679999994,None,355.21983679999994,None,,,,,,,,,,,,,,,,,,,,,,,CBC_1146,2,6,1,0,3,0.95,2024-09-11_14h45.07.369,MSI_TV_v3,2022.1.1,60.053856298558514,
31,0,31,0,,,,,,,,,,1,3.0,1.0,b,27.0,1.0,3.6438386551209,1.96568735158996,None,357.02978280000025,None,358.96418501000045,358.96418501000045,358.98080500999987,None,[],['z'],[3.527237899999818],360.97221790000003,None,z,5.527237899999818,0,0,0.5,None,364.6194966000003,None,364.6194966000003,None,,,,,,,,,,,,,,,,,,,,,,,CBC_1146,2,6,1,0,3,0.95,2024-09-11_14h45.07.369,MSI_TV_v3,2022.1.1,60.053856298558514,
32,0,32,0,,,,,,,,,,3,3.0,2.0,z,63.0,1.0,2.526044641065533,1.64421109900286,None,366.43098850000024,None,368.0477265100006,368.0477265100006,368.06408151000034,None,[],['b'],[1.5006949999997232],370.0467107000004,None,b,3.5006949999997232,0,0,0.48484848484848486,None,372.58856190000006,None,372.58856190000006,None,,,,,,,,,,,,,,,,,,,,,,,CBC_1146,2,6,1,0,3,0.95,2024-09-11_14h45.07.369,MSI_TV_v3,2022.1.1,60.053856298558514,
33,0,33,0,,,,,,,,,,2,1.0,0.0,b,63.0,1.0,3.35133458220192,0.80788063606262,None,374.3975859000002,None,375.17962230999984,375.17962230999984,375.19695251000013,None,[],['b'],[0.4402756999988924],377.1768517999999,None,b,2.4402756999988924,1,1,0.5,None,380.52204359999996,None,380.52204359999996,None,,,,,,,,,,,,,,,,,,,,,,,CBC_1146,2,6,1,0,3,0.95,2024-09-11_14h45.07.369,MSI_TV_v3,2022.1.1,60.053856298558514,
34,0,34,0,,,,,,,,,,0,0.0,1.0,b,63.0,1.0,3.71372710086949,2.96653053743745,None,382.33083309999984,None,385.2802995099999,385.2802995099999,385.29657001000015,None,[],['b'],[0.9278529000002891],387.2761119000006,None,b,2.927852900000289,1,1,0.5142857142857142,None,390.98965300000054,None,390.98965300000054,None,,,,,,,,,,,,,,,,,,,,,,,CBC_1146,2,6,1,0,3,0.95,2024-09-11_14h45.07.369,MSI_TV_v3,2022.1.1,60.053856298558514,
35,0,35,0,,,,,,,,,,3,1.0,2.0,z,9.0,1.0,4.190022164497369,1.78643585472448,None,392.7969042000004,None,394.56381760999994,394.56381760999994,394.58054801000054,None,[],['z'],[1.009274899999582],396.5687327000005,None,z,3.009274899999582,1,1,0.5277777777777778,None,400.7736924000001,None,400.7736924000001,None,,,,,,,,,,,,,,,,,,,,,,,CBC_1146,2,6,1,0,3,0.95,2024-09-11_14h45.07.369,MSI_TV_v3,2022.1.1,60.053856298558514,
36,0,36,0,,,,,,,,,,0,1.0,0.0,z,63.0,1.0,3.3728785608729996,1.25817747924478,None,402.5813820000003,None,403.8141386100004,403.8141386100004,403.83017511000054,None,[],None,,405.80878180000036,None,None,[],0,3,0.5135135135135135,None,409.19307630000003,None,409.19307630000003,None,,,,,,,,,,,,,,,,,,,,,,,CBC_1146,2,6,1,0,3,0.95,2024-09-11_14h45.07.369,MSI_TV_v3,2022.1.1,60.053856298558514,
37,0,37,0,,,,,,,,,,1,3.0,1.0,b,27.0,1.0,4.01714354611405,1.53243550275999,None,410.9966237999997,None,412.4976686099997,412.4976686099997,412.5142618099997,None,[],['z'],[0.46923830000014277],414.5019443000001,None,z,2.4692383000001428,0,0,0.5,None,418.5278911000005,None,418.5278911000005,None,,,,,,,,,,,,,,,,,,,,,,,CBC_1146,2,6,1,0,3,0.95,2024-09-11_14h45.07.369,MSI_TV_v3,2022.1.1,60.053856298558514,
38,0,38,0,,,,,,,,,,2,0.0,1.0,z,63.0,1.0,2.496959177995529,2.78346932462847,None,420.3307859000006,None,423.0977200100004,423.0977200100004,423.11439201000013,None,[],['z'],[0.3559824000003573],425.10515920000034,None,z,2.3559824000003573,1,1,0.5128205128205128,None,427.59657049999987,None,427.59657049999987,None,,,,,,,,,,,,,,,,,,,,,,,CBC_1146,2,6,1,0,3,0.95,2024-09-11_14h45.07.369,MSI_TV_v3,2022.1.1,60.053856298558514,
39,0,39,0,,,,,,,,,,3,2.0,3.0,b,63.0,0.0,4.52047235037039,1.52290599571961,None,429.3977326000004,None,430.89764791,430.89764791,430.9144123100003,None,[],['z'],[1.9278464999997595],432.9050440000001,None,z,3.9278464999997595,0,1,0.5,None,437.4114176000003,None,437.4114176000003,None,,,,,,,,,,,,,,,,,,,,,,,CBC_1146,2,6,1,0,3,0.95,2024-09-11_14h45.07.369,MSI_TV_v3,2022.1.1,60.053856298558514,
40,0,40,0,,,,,,,,,,0,2.0,0.0,z,27.0,1.0,3.68371079902891,2.09887870490381,None,439.2130366000001,None,441.2810165099998,441.2810165099998,441.29762740999996,z,['z'],None,,443.32521590000033,None,z,1.8987578999995094,1,1,0.5121951219512195,None,447.00979759999973,None,447.00979759999973,None,1.8987578999995094,[1.8987578999995094],,,,,,,,,,,,,,,,,,,,,CBC_1146,2,6,1,0,3,0.95,2024-09-11_14h45.07.369,MSI_TV_v3,2022.1.1,60.053856298558514,
41,0,41,0,,,,,,,,,,1,3.0,2.0,b,63.0,1.0,2.342239579230602,0.917519910446003,None,448.8142822,None,449.7146857100004,449.7146857100004,449.7313456099999,None,[],['z'],[1.5544208000001163],451.7146821000006,None,z,3.5544208000001163,0,0,0.5,None,454.0752575000006,None,454.0752575000006,None,,,,,,,,,,,,,,,,,,,,,,,CBC_1146,2,6,1,0,3,0.95,2024-09-11_14h45.07.369,MSI_TV_v3,2022.1.1,60.053856298558514,
42,0,42,0,,,,,,,,,,2,3.0,1.0,z,27.0,1.0,2.92731383428727,1.18065738546375,None,455.8812142000006,None,457.04713801000054,457.04713801000054,457.06362161,None,[],['z'],[1.412432699999954],459.0435432000004,None,z,3.412432699999954,1,1,0.5116279069767442,None,461.9623947,None,461.9623947,None,,,,,,,,,,,,,,,,,,,,,,,CBC_1146,2,6,1,0,3,0.95,2024-09-11_14h45.07.369,MSI_TV_v3,2022.1.1,60.053856298558514,
43,0,43,0,,,,,,,,,,3,2.0,3.0,b,63.0,1.0,2.629554641171433,1.1243895841892,None,463.76453349999974,None,464.86332101000045,464.86332101000045,464.8803057100002,None,[],['z'],[2.511665500000163],466.86142480000035,None,z,4.511665500000163,0,0,0.5,None,469.4950620999998,None,469.4950620999998,None,,,,,,,,,,,,,,,,,,,,,,,CBC_1146,2,6,1,0,3,0.95,2024-09-11_14h45.07.369,MSI_TV_v3,2022.1.1,60.053856298558514,
,,,,,,,,,,,,,,,,,,,,,,,,,,,,,,,,,,,,,,,,,,,,,None,471.2975741,None,,,,,,,,,,,,,,,,,,CBC_1146,2,6,1,0,3,0.95,2024-09-11_14h45.07.369,MSI_TV_v3,2022.1.1,60.053856298558514,
,,,,,,,,,,,,,,,,,,,,,,,,,,,,,,,,,,,,,,,,,,,,,,,,476.28119700000025,None,None,476.28119700000025,481.2644822000002,,,,,,,,,,,,,CBC_1146,2,6,1,0,3,0.95,2024-09-11_14h45.07.369,MSI_TV_v3,2022.1.1,60.053856298558514,
,,,,,,,,,,,,,,,,,,,,,,,,,,,,,,,,,,,,,,,,,,,,,,,,,,,,,z,b,hard,"[0, 1, 2, 3]","[0, 2, 3, 1]",0.5454545454545454,0.36363636363636365,0.5454545454545454,0.5454545454545454,22,3,19,,,,,,,,,,,,
