trials_runs.thisRepN,trials_runs.thisTrialN,trials_runs.thisN,trials_runs.thisIndex,standbild_start.started,standbild_start.stopped,trigger.keys,trigger.rt,trigger.started,trigger.stopped,keys_2.keys,keys_2.started,keys_2.stopped,trials_runs.auditory_stim,trials_runs.visual_stim_left,trials_runs.visual_stim_right,trials_runs.correctKey,trials_runs.presentationFrequncy,trials_runs.FBaccuracy,trials_runs.ISI_s,trials_runs.ITI_s,keys_3.keys,keys_3.started,keys_3.stopped,ImageLeft_4.started,ImageLeft_4.stopped,ImageRight_4.started,ImageRight_4.stopped,sound_4.started,sound_4.stopped,response_4.keys,response_4.started,response_4.stopped,response_5.keys,response_5.rt,response_5.started,response_5.stopped,response_runs.keys,response_runs.rt,trials_runs.correct_answer,trials_runs.feedback_given,trials_runs.running_mean,feedback_6.started,feedback_6.stopped,keys_6.keys,keys_6.started,keys_6.stopped,response_4.rt,keys_7.keys,keys_7.started,keys_7.stopped,standbild_end.started,standbild_end.stopped,Stop_exp.keys,Stop_exp.started,Stop_exp.stopped,trials_runs.rightKey,trials_runs.leftKey,ts_difficulty,visualPair,audioPair,trials_runs.mean_acc_1stFourth,trials_runs.mean_acc_2ndFourth,trials_runs.mean_acc_3rdFourth,trials_runs.mean_acc_4thFourth,participant,session,visual set [1-6],audio set [1-3],trial structure [0-3],pairing [0-23],prob Feedback,date,expName,psychopyVersion,frameRate,
,,,,26.352942399998938,None,t,57.43971229999988,26.352942399998938,None,,,,,,,,,,,,,,,,,,,,,,,,,,,,,,,,,,,,,,,,,,,,,,,,,,,,,,,,CBC_1002,4,3,1,1,1,0.95,2023-05-31_17h20.54.856,MSI_AV_v3,2022.1.1,59.95315260687711,
,,,,,,,,,,None,83.82271519999995,None,,,,,,,,,,,,,,,,,,,,,,,,,,,,,,,,,,,,,,,,,,,,,,,,,,,,,CBC_1002,4,3,1,1,1,0.95,2023-05-31_17h20.54.856,MSI_AV_v3,2022.1.1,59.95315260687711,
0,0,0,0,,,,,,,,,,1,1.0,0.0,b,63.0,1.0,2.117809983,0.977134615,None,84.02237590000004,None,85.10691939999924,None,85.10691939999924,None,85.1056037999997,None,None,85.10691939999924,None,['b'],[0.06224270000166143],86.98941919999925,None,b,2.0622427000016614,1,1,1.0,89.11593269999867,None,None,89.11593269999867,None,,,,,,,,,,,,,,,,,,,CBC_1002,4,3,1,1,1,0.95,2023-05-31_17h20.54.856,MSI_AV_v3,2022.1.1,59.95315260687711,
1,0,1,0,,,,,,,,,,2,3.0,2.0,b,63.0,1.0,1.556335756,2.349749758,None,91.10489589999997,None,93.49976359999891,None,93.49976359999891,None,93.50576780000029,None,None,93.49976359999891,None,['z'],[0.26929200000267883],95.45570679999946,None,z,2.269292000002679,0,0,0.5,97.01240809999945,None,None,97.01240809999945,None,,,,,,,,,,,,,,,,,,,CBC_1002,4,3,1,1,1,0.95,2023-05-31_17h20.54.856,MSI_AV_v3,2022.1.1,59.95315260687711,
2,0,2,0,,,,,,,,,,1,3.0,1.0,z,27.0,1.0,4.176609572,2.684881281,None,99.02231729999949,None,101.72875790000035,None,101.72875790000035,None,101.73891550000008,None,None,101.72875790000035,None,['z'],[0.39370660000167845],103.7050177000001,None,z,2.3937066000016785,1,1,0.6666666666666666,107.86512969999967,None,None,107.86512969999967,None,,,,,,,,,,,,,,,,,,,CBC_1002,4,3,1,1,1,0.95,2023-05-31_17h20.54.856,MSI_AV_v3,2022.1.1,59.95315260687711,
3,0,3,0,,,,,,,,,,3,2.0,3.0,b,63.0,1.0,2.67601813,2.962224669,None,109.8725390999989,None,112.858099699999,None,112.858099699999,None,112.8558508999995,None,['b'],112.858099699999,None,None,,114.83919869999954,None,b,1.9294055000027583,1,1,0.75,117.52943919999962,None,None,117.52943919999962,None,[1.9294055000027583],,,,,,,,,,,,,,,,,,CBC_1002,4,3,1,1,1,0.95,2023-05-31_17h20.54.856,MSI_AV_v3,2022.1.1,59.95315260687711,
4,0,4,0,,,,,,,,,,3,0.0,2.0,z,27.0,1.0,4.334629553,2.407383959,None,119.53881639999963,None,121.94116810000014,None,121.94116810000014,None,121.93814369999927,None,['z'],121.94116810000014,None,None,,123.94034850000025,None,z,1.5257414000006975,1,1,0.8,128.27726110000003,None,None,128.27726110000003,None,[1.5257414000006975],,,,,,,,,,,,,,,,,,CBC_1002,4,3,1,1,1,0.95,2023-05-31_17h20.54.856,MSI_AV_v3,2022.1.1,59.95315260687711,
5,0,5,0,,,,,,,,,,0,0.0,3.0,b,9.0,1.0,2.242058058,1.08099246,None,130.289240099999,None,131.41499929999918,None,131.41499929999918,None,131.42251829999896,None,None,131.41499929999918,None,['b'],[0.049264000001130626],133.3726343999988,None,b,2.0492640000011306,1,1,0.8333333333333334,135.6025785999991,None,None,135.6025785999991,None,,,,,,,,,,,,,,,,,,,CBC_1002,4,3,1,1,1,0.95,2023-05-31_17h20.54.856,MSI_AV_v3,2022.1.1,59.95315260687711,
6,0,6,0,,,,,,,,,,3,2.0,3.0,b,63.0,1.0,3.869831913,1.378098418,None,137.6059497999995,None,138.99411859999964,None,138.99411859999964,None,139.00596330000008,None,['b'],138.99411859999964,None,None,,140.99011509999946,None,b,1.7898509000006015,1,1,0.8571428571428571,144.85518140000022,None,None,144.85518140000022,None,[1.7898509000006015],,,,,,,,,,,,,,,,,,CBC_1002,4,3,1,1,1,0.95,2023-05-31_17h20.54.856,MSI_AV_v3,2022.1.1,59.95315260687711,
7,0,7,0,,,,,,,,,,0,1.0,0.0,z,63.0,1.0,2.917714675,2.108332021,None,146.8558524,None,148.97852389999935,None,148.97852389999935,None,148.9892588999992,None,['z'],148.97852389999935,None,None,,150.97329059999902,None,z,1.2123788000008062,1,1,0.875,153.89558599999873,None,None,153.89558599999873,None,[1.2123788000008062],,,,,,,,,,,,,,,,,,CBC_1002,4,3,1,1,1,0.95,2023-05-31_17h20.54.856,MSI_AV_v3,2022.1.1,59.95315260687711,
8,0,8,0,,,,,,,,,,2,2.0,3.0,z,63.0,1.0,2.397501916,3.264468617,None,155.90589969999928,None,159.19398550000005,None,159.19398550000005,None,159.18928349999896,None,['z'],159.19398550000005,None,None,,161.1931618999988,None,z,1.647720400000253,1,1,0.8888888888888888,163.59686169999986,None,None,163.59686169999986,None,[1.647720400000253],,,,,,,,,,,,,,,,,,CBC_1002,4,3,1,1,1,0.95,2023-05-31_17h20.54.856,MSI_AV_v3,2022.1.1,59.95315260687711,
9,0,9,0,,,,,,,,,,3,3.0,2.0,z,63.0,1.0,3.044827724,2.128027194,None,165.6053295999991,None,167.73286149999876,None,167.73286149999876,None,167.73927540000022,None,['z'],167.73286149999876,None,None,,169.74264699999912,None,z,1.5207918000014615,1,1,0.9,172.7963235999996,None,None,172.7963235999996,None,[1.5207918000014615],,,,,,,,,,,,,,,,,,CBC_1002,4,3,1,1,1,0.95,2023-05-31_17h20.54.856,MSI_AV_v3,2022.1.1,59.95315260687711,
10,0,10,0,,,,,,,,,,2,3.0,1.0,b,27.0,1.0,2.078483356,2.071213329,None,174.80607400000008,None,176.90044899999884,None,176.90044899999884,None,176.8898065000003,None,None,176.90044899999884,None,['b'],[0.8414303000008658],178.8726984999994,None,b,2.841430300000866,1,1,0.9090909090909091,180.93997619999936,None,None,180.93997619999936,None,,,,,,,,,,,,,,,,,,,CBC_1002,4,3,1,1,1,0.95,2023-05-31_17h20.54.856,MSI_AV_v3,2022.1.1,59.95315260687711,
11,0,11,0,,,,,,,,,,0,0.0,1.0,b,63.0,0.0,3.589438522,1.75396268,None,182.9393973999995,None,184.70880260000013,None,184.70880260000013,None,184.70595690000027,None,['b'],184.70880260000013,None,None,,186.70903120000003,None,b,0.966707800002041,1,0,0.9166666666666666,190.31216889999996,None,None,190.31216889999996,None,[0.966707800002041],,,,,,,,,,,,,,,,,,CBC_1002,4,3,1,1,1,0.95,2023-05-31_17h20.54.856,MSI_AV_v3,2022.1.1,59.95315260687711,
12,0,12,0,,,,,,,,,,3,3.0,2.0,z,63.0,1.0,4.268032915,0.789129603,None,192.3227840999989,None,193.12963669999954,None,193.12963669999954,None,193.13950750000004,None,['z'],193.12963669999954,None,None,,195.12372479999976,None,z,1.4679847000006703,1,1,0.9230769230769231,199.3962578999999,None,None,199.3962578999999,None,[1.4679847000006703],,,,,,,,,,,,,,,,,,CBC_1002,4,3,1,1,1,0.95,2023-05-31_17h20.54.856,MSI_AV_v3,2022.1.1,59.95315260687711,
13,0,13,0,,,,,,,,,,0,2.0,0.0,z,27.0,1.0,4.21669271,2.648704933,None,201.40564970000014,None,204.04100870000002,None,204.04100870000002,None,204.03867019999961,None,['z'],204.04100870000002,None,None,,206.0418013999988,None,z,1.3950066000015795,1,1,0.9285714285714286,210.26130960000046,None,None,210.26130960000046,None,[1.3950066000015795],,,,,,,,,,,,,,,,,,CBC_1002,4,3,1,1,1,0.95,2023-05-31_17h20.54.856,MSI_AV_v3,2022.1.1,59.95315260687711,
14,0,14,0,,,,,,,,,,1,1.0,0.0,b,63.0,1.0,1.3262934849999999,1.554037824,None,212.27273979999882,None,213.82957979999992,None,213.82957979999992,None,213.8390047999992,None,['b'],213.82957979999992,None,None,,215.84458859999904,None,b,1.7449811000005866,1,1,0.9333333333333333,217.16326619999927,None,None,217.16326619999927,None,[1.7449811000005866],,,,,,,,,,,,,,,,,,CBC_1002,4,3,1,1,1,0.95,2023-05-31_17h20.54.856,MSI_AV_v3,2022.1.1,59.95315260687711,
15,0,15,0,,,,,,,,,,2,2.0,3.0,z,63.0,1.0,1.758742576,1.086048241,None,219.17291789999945,None,220.27837240000008,None,220.27837240000008,None,220.28983809999954,None,['z'],220.27837240000008,None,None,,222.27058020000004,None,z,1.7775313000020105,1,1,0.9375,224.03903589999936,None,None,224.03903589999936,None,[1.7775313000020105],,,,,,,,,,,,,,,,,,CBC_1002,4,3,1,1,1,0.95,2023-05-31_17h20.54.856,MSI_AV_v3,2022.1.1,59.95315260687711,
16,0,16,0,,,,,,,,,,1,2.0,1.0,z,9.0,1.0,3.278108735,1.411911144,None,226.0395381999988,None,227.47640789999969,None,227.47640789999969,None,227.472951499999,None,['z'],227.47640789999969,None,['z'],[0.04043260000071314],229.4749467999991,None,z,0.9653153000017483,1,1,0.9411764705882353,232.76357639999878,None,None,232.76357639999878,None,[0.9653153000017483],,,,,,,,,,,,,,,,,,CBC_1002,4,3,1,1,1,0.95,2023-05-31_17h20.54.856,MSI_AV_v3,2022.1.1,59.95315260687711,
17,0,17,0,,,,,,,,,,2,3.0,1.0,b,27.0,1.0,2.0845750460000003,2.232990834,None,234.7729677999996,None,237.02877379999882,None,237.02877379999882,None,237.03966690000016,None,['b'],237.02877379999882,None,None,,239.02372699999978,None,b,1.3966204000007565,1,1,0.9444444444444444,241.11335179999878,None,None,241.11335179999878,None,[1.3966204000007565],,,,,,,,,,,,,,,,,,CBC_1002,4,3,1,1,1,0.95,2023-05-31_17h20.54.856,MSI_AV_v3,2022.1.1,59.95315260687711,
18,0,18,0,,,,,,,,,,0,1.0,0.0,z,63.0,1.0,3.956662465,2.757001452,None,243.12298249999913,None,245.89434090000032,None,245.89434090000032,None,245.89008059999924,None,['z'],245.89434090000032,None,None,,247.89226939999935,None,z,1.492319300001327,1,1,0.9473684210526315,251.86209859999872,None,None,251.86209859999872,None,[1.492319300001327],,,,,,,,,,,,,,,,,,CBC_1002,4,3,1,1,1,0.95,2023-05-31_17h20.54.856,MSI_AV_v3,2022.1.1,59.95315260687711,
19,0,19,0,,,,,,,,,,0,0.0,1.0,b,63.0,1.0,2.088920167,3.388090306,None,253.87308909999956,None,257.27708899999925,None,257.27708899999925,None,257.27364729999954,None,['b'],257.27708899999925,None,None,,259.26891760000035,None,b,1.4182951000020694,1,1,0.95,261.3630121999995,None,None,261.3630121999995,None,[1.4182951000020694],,,,,,,,,,,,,,,,,,CBC_1002,4,3,1,1,1,0.95,2023-05-31_17h20.54.856,MSI_AV_v3,2022.1.1,59.95315260687711,
20,0,20,0,,,,,,,,,,3,0.0,2.0,z,27.0,1.0,4.196249082,0.971483559,None,263.37312629999906,None,264.36195659999976,None,264.36195659999976,None,264.37301379999917,None,['z'],264.36195659999976,None,None,,266.359663199999,None,z,1.0679799000008643,1,1,0.9523809523809523,270.5639708999988,None,None,270.5639708999988,None,[1.0679799000008643],,,,,,,,,,,,,,,,,,CBC_1002,4,3,1,1,1,0.95,2023-05-31_17h20.54.856,MSI_AV_v3,2022.1.1,59.95315260687711,
21,0,21,0,,,,,,,,,,1,1.0,0.0,b,63.0,1.0,1.543156518,2.495793893,None,272.57321579999916,None,275.0795344999988,None,275.0795344999988,None,275.0902951999997,None,['b'],275.0795344999988,None,None,,277.0726505999992,None,b,1.2620821000018623,1,1,0.9545454545454546,278.6128388999987,None,None,278.6128388999987,None,[1.2620821000018623],,,,,,,,,,,,,,,,,,CBC_1002,4,3,1,1,1,0.95,2023-05-31_17h20.54.856,MSI_AV_v3,2022.1.1,59.95315260687711,
22,0,22,0,,,,,,,,,,3,0.0,2.0,z,27.0,1.0,2.518459073,1.732943574,None,280.62318779999987,None,282.3793390999999,None,282.3793390999999,None,282.3898647999995,None,None,282.3793390999999,None,['z'],[0.0010054000013042241],284.35633359999883,None,z,2.0010054000013042,1,1,0.9565217391304348,286.8655512999994,None,None,286.8655512999994,None,,,,,,,,,,,,,,,,,,,CBC_1002,4,3,1,1,1,0.95,2023-05-31_17h20.54.856,MSI_AV_v3,2022.1.1,59.95315260687711,
23,0,23,0,,,,,,,,,,2,2.0,3.0,z,63.0,1.0,2.232488062,1.313600181,None,288.87322440000025,None,290.21249910000006,None,290.21249910000006,None,290.22328729999936,None,['z'],290.21249910000006,None,None,,292.2080718999987,None,z,1.6068393000023207,1,1,0.9583333333333334,294.44755090000035,None,None,294.44755090000035,None,[1.6068393000023207],,,,,,,,,,,,,,,,,,CBC_1002,4,3,1,1,1,0.95,2023-05-31_17h20.54.856,MSI_AV_v3,2022.1.1,59.95315260687711,
24,0,24,0,,,,,,,,,,0,0.0,1.0,b,63.0,1.0,1.6718976049999998,1.483424551,None,296.45663349999995,None,297.96177159999934,None,297.96177159999934,None,297.9732611999989,None,['b'],297.96177159999934,None,None,,299.9598444000003,None,b,1.2760574000021734,1,1,0.96,301.64763499999935,None,None,301.64763499999935,None,[1.2760574000021734],,,,,,,,,,,,,,,,,,CBC_1002,4,3,1,1,1,0.95,2023-05-31_17h20.54.856,MSI_AV_v3,2022.1.1,59.95315260687711,
25,0,25,0,,,,,,,,,,3,2.0,3.0,b,63.0,1.0,1.874984683,1.84422311,None,303.65643089999867,None,305.50970469999993,None,305.50970469999993,None,305.5065993999988,None,None,305.50970469999993,None,['z'],[0.19240080000236048],307.48983000000044,None,z,2.1924008000023605,0,0,0.9230769230769231,309.34876429999895,None,None,309.34876429999895,None,,,,,,,,,,,,,,,,,,,CBC_1002,4,3,1,1,1,0.95,2023-05-31_17h20.54.856,MSI_AV_v3,2022.1.1,59.95315260687711,
26,0,26,0,,,,,,,,,,0,0.0,2.0,b,27.0,1.0,1.90573091,2.573610938,None,311.35677790000045,None,313.94518439999956,None,313.94518439999956,None,313.9565509999993,None,None,313.94518439999956,None,None,,315.92337299999963,None,[],[],0,3,0.8888888888888888,317.8355866999991,None,None,317.8355866999991,None,,,,,,,,,,,,,,,,,,,CBC_1002,4,3,1,1,1,0.95,2023-05-31_17h20.54.856,MSI_AV_v3,2022.1.1,59.95315260687711,
27,0,27,0,,,,,,,,,,2,2.0,3.0,z,63.0,1.0,3.501824497,2.935368129,None,319.8236834999989,None,322.77961959999993,None,322.77961959999993,None,322.78997270000036,None,['b'],322.77961959999993,None,None,,324.7755321000004,None,b,1.5725055000020802,0,0,0.8571428571428571,328.27674449999904,None,None,328.27674449999904,None,[1.5725055000020802],,,,,,,,,,,,,,,,,,CBC_1002,4,3,1,1,1,0.95,2023-05-31_17h20.54.856,MSI_AV_v3,2022.1.1,59.95315260687711,
28,0,28,0,,,,,,,,,,2,2.0,3.0,z,63.0,1.0,1.109698721,2.297139377,None,330.2900917999996,None,332.61358370000016,None,332.61358370000016,None,332.62349989999893,None,['z'],332.61358370000016,None,None,,334.60727469999983,None,z,1.4584046000018134,1,1,0.8620689655172413,335.7299562999997,None,None,335.7299562999997,None,[1.4584046000018134],,,,,,,,,,,,,,,,,,CBC_1002,4,3,1,1,1,0.95,2023-05-31_17h20.54.856,MSI_AV_v3,2022.1.1,59.95315260687711,
29,0,29,0,,,,,,,,,,1,1.0,3.0,b,27.0,1.0,3.478547126,1.24796184,None,337.7402533000004,None,339.0124692999998,None,339.0124692999998,None,339.02341049999995,None,['b'],339.0124692999998,None,None,,341.0102033000003,None,b,1.0843441000015446,1,1,0.8666666666666667,344.4960205999996,None,None,344.4960205999996,None,[1.0843441000015446],,,,,,,,,,,,,,,,,,CBC_1002,4,3,1,1,1,0.95,2023-05-31_17h20.54.856,MSI_AV_v3,2022.1.1,59.95315260687711,
30,0,30,0,,,,,,,,,,2,3.0,0.0,b,9.0,1.0,2.818459073,1.293060736,None,346.5068468999998,None,347.8122010999996,None,347.8122010999996,None,347.8233094999996,None,['b'],347.8122010999996,None,None,,349.8100145999997,None,b,1.4767285000016273,1,1,0.8709677419354839,352.63160640000024,None,None,352.63160640000024,None,[1.4767285000016273],,,,,,,,,,,,,,,,,,CBC_1002,4,3,1,1,1,0.95,2023-05-31_17h20.54.856,MSI_AV_v3,2022.1.1,59.95315260687711,
31,0,31,0,,,,,,,,,,1,0.0,1.0,z,63.0,1.0,2.949122761,1.53162701,None,354.6408546999992,None,356.1962284000001,None,356.1962284000001,None,356.2068277999988,None,['z'],356.1962284000001,None,None,,358.1909814999999,None,z,0.9116378000016994,1,1,0.875,361.14723819999926,None,None,361.14723819999926,None,[0.9116378000016994],,,,,,,,,,,,,,,,,,CBC_1002,4,3,1,1,1,0.95,2023-05-31_17h20.54.856,MSI_AV_v3,2022.1.1,59.95315260687711,
32,0,32,0,,,,,,,,,,0,0.0,1.0,b,63.0,1.0,1.887650177,2.210349838,None,363.15710129999934,None,365.3789335999991,None,365.3789335999991,None,365.3901292999999,None,['b'],365.3789335999991,None,None,,367.37574609999865,None,b,1.719290799999726,1,1,0.8787878787878788,369.2611844000003,None,None,369.2611844000003,None,[1.719290799999726],,,,,,,,,,,,,,,,,,CBC_1002,4,3,1,1,1,0.95,2023-05-31_17h20.54.856,MSI_AV_v3,2022.1.1,59.95315260687711,
33,0,33,0,,,,,,,,,,0,1.0,0.0,z,63.0,1.0,2.278602942,1.883772966,None,371.27347499999996,None,373.1831353999987,None,373.1831353999987,None,373.19024009999885,None,"['b', 'z']",373.1831353999987,None,None,,375.17452799999955,None,b,1.1511745000007068,0,0,0.8529411764705882,377.4633190000004,None,None,377.4633190000004,None,"[1.1511745000007068, 1.7547498000003543]",,,,,,,,,,,,,,,,,,CBC_1002,4,3,1,1,1,0.95,2023-05-31_17h20.54.856,MSI_AV_v3,2022.1.1,59.95315260687711,
34,0,34,0,,,,,,,,,,3,2.0,3.0,b,63.0,1.0,1.595506577,2.234398566,None,379.47355119999884,None,381.7267174999997,None,381.7267174999997,None,381.7235656999992,None,None,381.7267174999997,None,['b'],[0.5890627000007953],383.70699439999953,None,b,2.5890627000007953,1,1,0.8571428571428571,385.28429309999956,None,None,385.28429309999956,None,,,,,,,,,,,,,,,,,,,CBC_1002,4,3,1,1,1,0.95,2023-05-31_17h20.54.856,MSI_AV_v3,2022.1.1,59.95315260687711,
35,0,35,0,,,,,,,,,,0,2.0,0.0,z,27.0,1.0,3.884449499,1.915207301,None,387.29039100000045,None,389.2327871999987,None,389.2327871999987,None,389.2402775999999,None,['b'],389.2327871999987,None,None,,391.22763979999945,None,b,1.7620700000006764,0,0,0.8333333333333334,395.1132942000004,None,None,395.1132942000004,None,[1.7620700000006764],,,,,,,,,,,,,,,,,,CBC_1002,4,3,1,1,1,0.95,2023-05-31_17h20.54.856,MSI_AV_v3,2022.1.1,59.95315260687711,
36,0,36,0,,,,,,,,,,1,0.0,1.0,z,63.0,1.0,2.742099981,1.910349838,None,397.1246031999999,None,399.05203979999897,None,399.05203979999897,None,399.0403054999997,None,['z'],399.05203979999897,None,None,,401.0438226999995,None,z,0.8761482999998407,1,1,0.8378378378378378,403.79739919999884,None,None,403.79739919999884,None,[0.8761482999998407],,,,,,,,,,,,,,,,,,CBC_1002,4,3,1,1,1,0.95,2023-05-31_17h20.54.856,MSI_AV_v3,2022.1.1,59.95315260687711,
37,0,37,0,,,,,,,,,,1,1.0,3.0,b,27.0,1.0,2.372527466,2.502774076,None,405.80666949999977,None,408.3284965999992,None,408.3284965999992,None,408.3402303999992,None,['b'],408.3284965999992,None,None,,410.3252343000004,None,b,0.8533025000015186,1,1,0.8421052631578947,412.6979993999994,None,None,412.6979993999994,None,[0.8533025000015186],,,,,,,,,,,,,,,,,,CBC_1002,4,3,1,1,1,0.95,2023-05-31_17h20.54.856,MSI_AV_v3,2022.1.1,59.95315260687711,
38,0,38,0,,,,,,,,,,3,2.0,3.0,b,63.0,1.0,1.610581685,3.274187802,None,414.70678860000044,None,417.9946369999998,None,417.9946369999998,None,418.0070096999989,None,None,417.9946369999998,None,['b'],[1.081471400000737],419.9737699999987,None,b,3.081471400000737,1,1,0.8461538461538461,421.56716249999954,None,None,421.56716249999954,None,,,,,,,,,,,,,,,,,,,CBC_1002,4,3,1,1,1,0.95,2023-05-31_17h20.54.856,MSI_AV_v3,2022.1.1,59.95315260687711,
39,0,39,0,,,,,,,,,,2,1.0,3.0,z,27.0,1.0,4.309752164,3.276660373,None,423.57384830000046,None,426.86177849999876,None,426.86177849999876,None,426.8735987,None,['z'],426.86177849999876,None,None,,428.8601964999998,None,z,1.6719363000011072,1,1,0.85,433.17983639999875,None,None,433.17983639999875,None,[1.6719363000011072],,,,,,,,,,,,,,,,,,CBC_1002,4,3,1,1,1,0.95,2023-05-31_17h20.54.856,MSI_AV_v3,2022.1.1,59.95315260687711,
40,0,40,0,,,,,,,,,,3,2.0,1.0,b,9.0,1.0,1.899747326,3.321420384,None,435.19049300000006,None,438.52898300000015,None,438.52898300000015,None,438.5405054999992,None,None,438.52898300000015,None,['b'],[0.20464370000081544],440.5068876999994,None,b,2.2046437000008154,1,1,0.8536585365853658,442.38927539999895,None,None,442.38927539999895,None,,,,,,,,,,,,,,,,,,,CBC_1002,4,3,1,1,1,0.95,2023-05-31_17h20.54.856,MSI_AV_v3,2022.1.1,59.95315260687711,
41,0,41,0,,,,,,,,,,1,1.0,0.0,b,63.0,0.0,1.219965572,1.448890429,None,444.3904318999994,None,445.86048259999916,None,445.86048259999916,None,445.8572766999996,None,None,445.86048259999916,None,['b'],[1.1012565000019094],447.84061680000013,None,b,3.1012565000019094,1,0,0.8571428571428571,449.0562348000003,None,None,449.0562348000003,None,,,,,,,,,,,,,,,,,,,CBC_1002,4,3,1,1,1,0.95,2023-05-31_17h20.54.856,MSI_AV_v3,2022.1.1,59.95315260687711,
42,0,42,0,,,,,,,,,,2,2.0,3.0,z,63.0,1.0,2.208904638,2.7801224,None,451.0570647000004,None,453.8614318,None,453.8614318,None,453.8739311999998,None,['z'],453.8614318,None,None,,455.85863739999877,None,z,1.8047775000013644,1,1,0.8604651162790697,458.07956449999983,None,None,458.07956449999983,None,[1.8047775000013644],,,,,,,,,,,,,,,,,,CBC_1002,4,3,1,1,1,0.95,2023-05-31_17h20.54.856,MSI_AV_v3,2022.1.1,59.95315260687711,
43,0,43,0,,,,,,,,,,1,0.0,1.0,z,63.0,1.0,3.622505815,1.142638656,None,460.09041330000036,None,461.2456646999999,None,461.2456646999999,None,461.2570715999991,None,['z'],461.2456646999999,None,None,,463.2453095000001,None,z,1.1261036000014428,1,1,0.8636363636363636,466.87956250000025,None,None,466.87956250000025,None,[1.1261036000014428],,,,,,,,,,,,,,,,,,CBC_1002,4,3,1,1,1,0.95,2023-05-31_17h20.54.856,MSI_AV_v3,2022.1.1,59.95315260687711,
,,,,,,,,,,,,,,,,,,,,,,,,,,,,,,,,,,,,,,,,,,,,,,,,None,468.89067129999967,None,,,,,,,,,,,,,,,CBC_1002,4,3,1,1,1,0.95,2023-05-31_17h20.54.856,MSI_AV_v3,2022.1.1,59.95315260687711,
,,,,,,,,,,,,,,,,,,,,,,,,,,,,,,,,,,,,,,,,,,,,,,,,,,,473.8905414000001,None,None,473.8905414000001,None,,,,,,,,,,CBC_1002,4,3,1,1,1,0.95,2023-05-31_17h20.54.856,MSI_AV_v3,2022.1.1,59.95315260687711,
,,,,,,,,,,,,,,,,,,,,,,,,,,,,,,,,,,,,,,,,,,,,,,,,,,,,,,,,z,b,hard,"[0, 1, 2, 3]","[0, 1, 3, 2]",0.9090909090909091,1.0,0.7272727272727273,0.8181818181818182,,,,,,,,,,,,
