trials_runs.thisRepN,trials_runs.thisTrialN,trials_runs.thisN,trials_runs.thisIndex,standbild_start.started,standbild_start.stopped,trigger.keys,trigger.rt,trigger.started,trigger.stopped,keys_2.keys,keys_2.started,keys_2.stopped,trials_runs.tactile_stim,trials_runs.visual_stim_left,trials_runs.visual_stim_right,trials_runs.correctKey,trials_runs.presentationFrequncy,trials_runs.FBaccuracy,trials_runs.ISI_s,trials_runs.ITI_s,keys_3.keys,keys_3.started,keys_3.stopped,image_stim_left.started,image_stim_right.started,tactile.started,response_4.keys,allKeys.keys,response_5.keys,response_5.started,response_5.stopped,response_runs.keys,response_runs.rt,trials_runs.correct_answer,trials_runs.feedback_given,trials_runs.running_mean,feedback_6.stopped,feedback_6.started,keys_6.keys,keys_6.started,keys_6.stopped,keys_6.rt,response_4.rt,allKeys.rt,response_5.rt,keys_7.keys,keys_7.started,keys_7.stopped,standbild_end.started,standbild_end.stopped,Stop_exp.keys,Stop_exp.started,Stop_exp.stopped,trials_runs.rightKey,trials_runs.leftKey,ts_difficulty,visualPair,tactilePair,trials_runs.mean_acc_1stFourth,trials_runs.mean_acc_2ndFourth,trials_runs.mean_acc_3rdFourth,trials_runs.mean_acc_4thFourth,nbCorrect,nbOmissions,nbIncorrect,participant,session,visual set [1-6],tactile set [1-3],trial structure [0-3 / 4-7],pairing [0-23],prob Feedback,date,expName,psychopyVersion,frameRate,
,,,,281.84690020000016,None,t,71.96602810000013,281.84690020000016,None,,,,,,,,,,,,,,,,,,,,,,,,,,,,,,,,,,,,,,,,,,,,,,,,,,,,,,,,,CBC_1112,001,6,1,2,17,0.95,2024-09-06_16h58.36.381,MSI_TV_v3,2022.1.1,59.86554199262929,
,,,,,,,,,,None,353.8310656999997,None,,,,,,,,,,,,,,,,,,,,,,,,,,,,,,,,,,,,,,,,,,,,,,,,,,,,,,CBC_1112,001,6,1,2,17,0.95,2024-09-06_16h58.36.381,MSI_TV_v3,2022.1.1,59.86554199262929,
0,0,0,0,,,,,,,,,,2,1.0,0.0,z,63.0,1.0,2.342239579230602,2.10421507306074,None,354.0309709999997,None,356.1145561900002,356.1145561900002,356.13131639000034,None,[],None,358.1253529999999,None,None,[],0,3,0.0,None,360.48487199999954,None,360.48487199999954,None,,,,,,,,,,,,,,,,,,,,,,,,,CBC_1112,001,6,1,2,17,0.95,2024-09-06_16h58.36.381,MSI_TV_v3,2022.1.1,59.86554199262929,
1,0,1,0,,,,,,,,,,1,2.0,3.0,b,63.0,1.0,2.678526077912375,1.36309078069689,None,362.2644987999997,None,363.61415948999996,363.61415948999996,363.63076599000027,None,[],None,365.61716560000013,None,None,[],0,3,0.0,None,368.3098394000003,['z'],368.3098394000003,None,[1.5709226000003582],,,,,,,,,,,,,,,,,,,,,,,,CBC_1112,001,6,1,2,17,0.95,2024-09-06_16h58.36.381,MSI_TV_v3,2022.1.1,59.86554199262929,
2,0,2,0,,,,,,,,,,2,2.0,0.0,z,27.0,1.0,4.11514536789087,1.60731937853708,None,370.11430659999996,None,371.69830969000026,371.69830969000026,371.7144395900004,z,['z'],None,373.74259200000006,None,z,1.109026399999948,1,1,0.3333333333333333,None,377.8606326000004,None,377.8606326000004,None,,1.109026399999948,[1.109026399999948],,,,,,,,,,,,,,,,,,,,,,CBC_1112,001,6,1,2,17,0.95,2024-09-06_16h58.36.381,MSI_TV_v3,2022.1.1,59.86554199262929,
3,0,3,0,,,,,,,,,,3,0.0,1.0,z,63.0,1.0,3.3728785608729996,1.53122835510861,None,379.66419629999973,None,381.18141948999977,381.18141948999977,381.19789118999955,None,[],['z'],383.18676769999956,None,z,2.629400999999689,1,1,0.5,None,386.57257270000036,None,386.57257270000036,None,,,,[0.6294009999996888],,,,,,,,,,,,,,,,,,,,,CBC_1112,001,6,1,2,17,0.95,2024-09-06_16h58.36.381,MSI_TV_v3,2022.1.1,59.86554199262929,
4,0,4,0,,,,,,,,,,3,1.0,0.0,b,63.0,1.0,2.496959177995529,3.1963008326951,None,388.3810134999999,None,391.5644097900003,391.5644097900003,391.5809136899997,None,[],['z'],393.56909829999995,None,z,3.2065113000003294,0,0,0.4,None,396.0783478999997,None,396.0783478999997,None,,,,[1.2065113000003294],,,,,,,,,,,,,,,,,,,,,CBC_1112,001,6,1,2,17,0.95,2024-09-06_16h58.36.381,MSI_TV_v3,2022.1.1,59.86554199262929,
5,0,5,0,,,,,,,,,,1,2.0,3.0,b,63.0,1.0,4.46924002178158,2.49839527409216,None,397.8809219,None,400.3646679900002,400.3646679900002,400.38130599000027,None,[],['z'],402.37009799999987,None,z,2.466205799999898,0,0,0.3333333333333333,None,406.8464909999998,None,406.8464909999998,None,,,,[0.46620579999989786],,,,,,,,,,,,,,,,,,,,,CBC_1112,001,6,1,2,17,0.95,2024-09-06_16h58.36.381,MSI_TV_v3,2022.1.1,59.86554199262929,
6,0,6,0,,,,,,,,,,0,1.0,3.0,z,27.0,1.0,4.01714354611405,2.6299100644723,None,408.64788420000014,None,411.26494309000003,411.26494309000003,411.2814534899998,None,[],['b'],413.27006930000016,None,b,2.0505113000003803,0,0,0.2857142857142857,None,417.2863209000002,None,417.2863209000002,None,,,,[0.05051130000038029],,,,,,,,,,,,,,,,,,,,,CBC_1112,001,6,1,2,17,0.95,2024-09-06_16h58.36.381,MSI_TV_v3,2022.1.1,59.86554199262929,
7,0,7,0,,,,,,,,,,1,2.0,1.0,b,9.0,1.0,4.77723667052879,1.1243895841892,None,419.09795280000026,None,420.1980529900001,420.1980529900001,420.21437188999965,None,[],['b'],422.1994380000001,None,b,2.7428576000006615,1,1,0.375,None,426.97500590000027,None,426.97500590000027,None,,,,[0.7428576000006615],,,,,,,,,,,,,,,,,,,,,CBC_1112,001,6,1,2,17,0.95,2024-09-06_16h58.36.381,MSI_TV_v3,2022.1.1,59.86554199262929,
8,0,8,0,,,,,,,,,,3,1.0,3.0,b,27.0,1.0,3.6438386551209,0.77703640172831,None,428.7810926999996,None,429.53106958999973,429.53106958999973,429.5478883900004,None,[],['b'],431.5365035,None,b,3.1578700000004574,1,1,0.4444444444444444,None,435.18838650000043,None,435.18838650000043,None,,,,[1.1578700000004574],,,,,,,,,,,,,,,,,,,,,CBC_1112,001,6,1,2,17,0.95,2024-09-06_16h58.36.381,MSI_TV_v3,2022.1.1,59.86554199262929,
9,0,9,0,,,,,,,,,,0,2.0,3.0,z,63.0,1.0,2.6391747348430608,3.33124983260532,None,436.99805510000033,None,440.3146637899999,440.3146637899999,440.3314022900003,None,[],['z'],442.31265399999984,None,z,3.0782522000004064,1,1,0.5,None,444.9599124000001,None,444.9599124000001,None,,,,[1.0782522000004064],,,,,,,,,,,,,,,,,,,,,CBC_1112,001,6,1,2,17,0.95,2024-09-06_16h58.36.381,MSI_TV_v3,2022.1.1,59.86554199262929,
10,0,10,0,,,,,,,,,,3,0.0,1.0,z,63.0,1.0,2.433630701072358,2.09887870490381,None,446.76467209999964,None,448.8476449899999,448.8476449899999,448.86423648999966,None,[],['b'],450.8490327000004,None,b,3.0183388000000377,0,0,0.45454545454545453,None,453.28322290000006,None,453.28322290000006,None,,,,[1.0183388000000377],,,,,,,,,,,,,,,,,,,,,CBC_1112,001,6,1,2,17,0.95,2024-09-06_16h58.36.381,MSI_TV_v3,2022.1.1,59.86554199262929,
11,0,11,0,,,,,,,,,,1,2.0,0.0,b,27.0,1.0,3.35133458220192,0.80788063606262,None,455.0966497000004,None,455.8811619899997,455.8811619899997,455.89782689,None,[],['z'],457.88443059999963,None,z,2.784558800000468,0,0,0.4166666666666667,None,461.2520075999996,None,461.2520075999996,None,,,,[0.7845588000004682],,,,,,,,,,,,,,,,,,,,,CBC_1112,001,6,1,2,17,0.95,2024-09-06_16h58.36.381,MSI_TV_v3,2022.1.1,59.86554199262929,
12,0,12,0,,,,,,,,,,0,2.0,3.0,z,63.0,0.0,4.12485271162806,1.18065738546375,None,463.06314020000036,None,464.21466118999973,464.21466118999973,464.23122139000037,None,[],['z'],466.2164109999999,None,z,3.617869700000938,1,0,0.46153846153846156,None,470.34501320000027,None,470.34501320000027,None,,,,[1.6178697000009379],,,,,,,,,,,,,,,,,,,,,CBC_1112,001,6,1,2,17,0.95,2024-09-06_16h58.36.381,MSI_TV_v3,2022.1.1,59.86554199262929,
13,0,13,0,,,,,,,,,,2,0.0,1.0,b,63.0,1.0,3.02234236141277,2.78346932462847,None,472.1481614999998,None,474.91439258999975,474.91439258999975,474.93083119000033,b,['b'],None,476.9591740000001,None,b,1.3359300999995867,1,1,0.5,None,479.99431930000037,None,479.99431930000037,None,,1.3359300999995867,[1.3359300999995867],,,,,,,,,,,,,,,,,,,,,,CBC_1112,001,6,1,2,17,0.95,2024-09-06_16h58.36.381,MSI_TV_v3,2022.1.1,59.86554199262929,
14,0,14,0,,,,,,,,,,1,3.0,2.0,z,63.0,1.0,2.517541937862754,3.1424449555106,None,481.7978399999997,None,484.91448439000027,484.91448439000027,484.93114378999957,None,[],['z'],486.9246367999999,None,z,2.7367088000005424,1,1,0.5333333333333333,None,489.44526089999954,None,489.44526089999954,None,,,,[0.7367088000005424],,,,,,,,,,,,,,,,,,,,,CBC_1112,001,6,1,2,17,0.95,2024-09-06_16h58.36.381,MSI_TV_v3,2022.1.1,59.86554199262929,
15,0,15,0,,,,,,,,,,2,2.0,0.0,z,27.0,1.0,2.2759877950103027,0.761758675042088,None,491.2473433,None,491.9815600900001,491.9815600900001,491.9977972899996,None,[],['z'],493.98579459999974,None,z,2.93911960000014,1,1,0.5625,None,496.2757238999998,None,496.2757238999998,None,,,,[0.93911960000014],,,,,,,,,,,,,,,,,,,,,CBC_1112,001,6,1,2,17,0.95,2024-09-06_16h58.36.381,MSI_TV_v3,2022.1.1,59.86554199262929,
16,0,16,0,,,,,,,,,,0,3.0,2.0,b,63.0,1.0,3.31929419319838,1.90743690794447,None,498.0812917999997,None,499.9645556900004,499.9645556900004,499.98130519,None,[],['b'],501.9700508000001,None,b,2.3541108000003987,1,1,0.5882352941176471,None,505.3043163999996,None,505.3043163999996,None,,,,[0.35411080000039874],,,,,,,,,,,,,,,,,,,,,CBC_1112,001,6,1,2,17,0.95,2024-09-06_16h58.36.381,MSI_TV_v3,2022.1.1,59.86554199262929,
17,0,17,0,,,,,,,,,,0,2.0,3.0,z,63.0,1.0,4.82531807167306,1.43470440954152,None,507.1143810999997,None,508.53172659000023,508.53172659000023,508.5482499899999,None,[],['z'],510.5381921000003,None,z,2.0690407000006417,1,1,0.6111111111111112,None,515.3552781000003,None,515.3552781000003,None,,,,[0.06904070000064166],,,,,,,,,,,,,,,,,,,,,CBC_1112,001,6,1,2,17,0.95,2024-09-06_16h58.36.381,MSI_TV_v3,2022.1.1,59.86554199262929,
18,0,18,0,,,,,,,,,,3,1.0,3.0,b,27.0,1.0,2.666404967794728,1.96568735158996,None,517.1646253000004,None,519.11392239,519.11392239,519.1301097900005,None,[],['b'],521.1106358000002,None,b,3.1098840999998174,1,1,0.631578947368421,None,523.7802210000004,None,523.7802210000004,None,,,,[1.1098840999998174],,,,,,,,,,,,,,,,,,,,,CBC_1112,001,6,1,2,17,0.95,2024-09-06_16h58.36.381,MSI_TV_v3,2022.1.1,59.86554199262929,
19,0,19,0,,,,,,,,,,0,3.0,0.0,b,9.0,1.0,2.526044641065533,1.27538462653558,None,525.5816178,None,526.8299736899999,526.8299736899999,526.8465928900005,None,[],['b'],528.8265986000001,None,b,2.9735568999999487,1,1,0.65,None,531.3507440999997,None,531.3507440999997,None,,,,[0.9735568999999487],,,,,,,,,,,,,,,,,,,,,CBC_1112,001,6,1,2,17,0.95,2024-09-06_16h58.36.381,MSI_TV_v3,2022.1.1,59.86554199262929,
20,0,20,0,,,,,,,,,,3,0.0,1.0,z,63.0,1.0,3.26539063535182,0.974903167432984,None,533.1648573999996,None,534.1151526900003,534.1151526900003,534.1312924900003,None,[],['z'],536.1189133000003,None,z,2.5674402999998165,1,1,0.6666666666666666,None,539.3956863999997,None,539.3956863999997,None,,,,[0.5674402999998165],,,,,,,,,,,,,,,,,,,,,CBC_1112,001,6,1,2,17,0.95,2024-09-06_16h58.36.381,MSI_TV_v3,2022.1.1,59.86554199262929,
21,0,21,0,,,,,,,,,,2,0.0,1.0,b,63.0,1.0,2.7134565917469198,0.952147612306987,None,541.1978069000002,None,542.1306276900004,542.1306276900004,542.1469848899997,None,[],['b'],544.1270226000001,None,b,4.108586700000615,1,1,0.6818181818181818,None,546.8373484999997,None,546.8373484999997,None,,,,[2.1085867000006147],,,,,,,,,,,,,,,,,,,,,CBC_1112,001,6,1,2,17,0.95,2024-09-06_16h58.36.381,MSI_TV_v3,2022.1.1,59.86554199262929,
22,0,22,0,,,,,,,,,,1,3.0,2.0,z,63.0,1.0,4.52047235037039,3.06992456303453,None,548.6484769000003,None,551.6986878899997,551.6986878899997,551.7148863900002,None,[],['z'],553.7066888000004,None,z,4.836364400000548,1,1,0.6956521739130435,None,558.2224584999999,None,558.2224584999999,None,,,,[2.836364400000548],,,,,,,,,,,,,,,,,,,,,CBC_1112,001,6,1,2,17,0.95,2024-09-06_16h58.36.381,MSI_TV_v3,2022.1.1,59.86554199262929,
23,0,23,0,,,,,,,,,,2,2.0,0.0,z,27.0,1.0,4.53337421950507,1.12425433982333,None,560.0302462000004,None,561.1321573900004,561.1321573900004,561.1481262899997,None,[],['z'],563.1385913999998,None,z,5.047821399999975,1,1,0.7083333333333334,None,567.6708307000004,None,567.6708307000004,None,,,,[3.0478213999999753],,,,,,,,,,,,,,,,,,,,,CBC_1112,001,6,1,2,17,0.95,2024-09-06_16h58.36.381,MSI_TV_v3,2022.1.1,59.86554199262929,
24,0,24,0,,,,,,,,,,3,0.0,1.0,z,63.0,1.0,4.40017271499661,3.4543169006169,None,569.4818087999997,None,572.9137936899997,572.9137936899997,572.9301658900004,None,[],['z'],574.9088432000003,None,z,2.5004690000000664,1,1,0.72,None,579.3140466,None,579.3140466,None,,,,[0.5004690000000664],,,,,,,,,,,,,,,,,,,,,CBC_1112,001,6,1,2,17,0.95,2024-09-06_16h58.36.381,MSI_TV_v3,2022.1.1,59.86554199262929,
25,0,25,0,,,,,,,,,,0,3.0,2.0,b,63.0,1.0,2.693348633324513,3.40155979865722,None,581.1147851000001,None,584.4983175899997,584.4983175899997,584.5149979899998,None,[],['b'],586.5015275999999,None,b,2.6181428000004416,1,1,0.7307692307692307,None,589.1972945000002,None,589.1972945000002,None,,,,[0.6181428000004416],,,,,,,,,,,,,,,,,,,,,CBC_1112,001,6,1,2,17,0.95,2024-09-06_16h58.36.381,MSI_TV_v3,2022.1.1,59.86554199262929,
26,0,26,0,,,,,,,,,,3,2.0,1.0,z,9.0,1.0,3.71372710086949,1.25920145784721,None,590.9968174,None,592.2314812900004,592.2314812900004,592.2479688900003,None,[],['z'],594.2369901999996,None,z,3.7910781000005045,1,1,0.7407407407407407,None,597.9575063999996,None,597.9575063999996,None,,,,[1.7910781000005045],,,,,,,,,,,,,,,,,,,,,CBC_1112,001,6,1,2,17,0.95,2024-09-06_16h58.36.381,MSI_TV_v3,2022.1.1,59.86554199262929,
27,0,27,0,,,,,,,,,,0,3.0,1.0,b,27.0,1.0,3.7500315165247198,0.979776149765883,None,599.7654324,None,600.7318257899997,600.7318257899997,600.7482901900003,None,[],['b'],602.7362184999997,None,b,2.3141261000005215,1,1,0.75,None,606.5004978000002,None,606.5004978000002,None,,,,[0.31412610000052155],,,,,,,,,,,,,,,,,,,,,CBC_1112,001,6,1,2,17,0.95,2024-09-06_16h58.36.381,MSI_TV_v3,2022.1.1,59.86554199262929,
28,0,28,0,,,,,,,,,,2,0.0,1.0,b,63.0,1.0,4.61004669244928,2.40378712856304,None,608.3149233999998,None,610.6984637900005,610.6984637900005,610.7151600899997,None,[],['b'],612.7027893999998,None,b,3.680832999999893,1,1,0.7586206896551724,None,617.31385,None,617.31385,None,,,,[1.6808329999998932],,,,,,,,,,,,,,,,,,,,,CBC_1112,001,6,1,2,17,0.95,2024-09-06_16h58.36.381,MSI_TV_v3,2022.1.1,59.86554199262929,
29,0,29,0,,,,,,,,,,2,1.0,0.0,z,63.0,1.0,2.92731383428727,1.64421109900286,None,619.1139504999996,None,620.7318161900002,620.7318161900002,620.74842549,None,[],['z'],622.7367324000002,None,z,2.948350900000605,1,1,0.7666666666666667,None,625.6809959999996,None,625.6809959999996,None,,,,[0.9483509000006052],,,,,,,,,,,,,,,,,,,,,CBC_1112,001,6,1,2,17,0.95,2024-09-06_16h58.36.381,MSI_TV_v3,2022.1.1,59.86554199262929,
30,0,30,0,,,,,,,,,,1,2.0,0.0,b,27.0,1.0,2.91303524001082,3.24569326556923,None,627.4817166999997,None,630.7152751900003,630.7152751900003,630.7320573899997,None,[],['z'],632.7202945000004,None,z,3.1966494000002967,0,0,0.7419354838709677,None,635.6395365000003,None,635.6395365000003,None,,,,[1.1966494000002967],,,,,,,,,,,,,,,,,,,,,CBC_1112,001,6,1,2,17,0.95,2024-09-06_16h58.36.381,MSI_TV_v3,2022.1.1,59.86554199262929,
31,0,31,0,,,,,,,,,,2,0.0,1.0,b,63.0,1.0,4.72585056748869,2.96653053743745,None,637.448707,None,640.3984250900003,640.3984250900003,640.4150407899997,None,[],['z'],642.3970318999995,None,z,2.9753330000007736,0,0,0.71875,None,647.130866,None,647.130866,None,,,,[0.9753330000007736],,,,,,,,,,,,,,,,,,,,,CBC_1112,001,6,1,2,17,0.95,2024-09-06_16h58.36.381,MSI_TV_v3,2022.1.1,59.86554199262929,
32,0,32,0,,,,,,,,,,3,0.0,1.0,z,63.0,1.0,4.77034425507967,1.53243550275999,None,648.9317339000004,None,650.4482784900001,650.4482784900001,650.4648079899998,None,[],['z'],652.446934,None,z,3.5252717999997003,1,1,0.7272727272727273,None,657.2293563999997,None,657.2293563999997,None,,,,[1.5252717999997003],,,,,,,,,,,,,,,,,,,,,CBC_1112,001,6,1,2,17,0.95,2024-09-06_16h58.36.381,MSI_TV_v3,2022.1.1,59.86554199262929,
33,0,33,0,,,,,,,,,,0,2.0,3.0,z,63.0,1.0,2.629554641171433,2.15533949826702,None,659.0317473,None,661.1649628900004,661.1649628900004,661.18175849,None,[],['z'],663.1703382000001,None,z,2.4376289999995606,1,1,0.7352941176470589,None,665.8001331,None,665.8001331,None,,,,[0.4376289999995606],,,,,,,,,,,,,,,,,,,,,CBC_1112,001,6,1,2,17,0.95,2024-09-06_16h58.36.381,MSI_TV_v3,2022.1.1,59.86554199262929,
34,0,34,0,,,,,,,,,,3,1.0,3.0,b,27.0,1.0,2.82320408183943,1.21250262048173,None,667.6142708000002,None,668.7986380900002,668.7986380900002,668.8151528899998,None,[],['b'],670.8021826999998,None,b,3.154838999999356,1,1,0.7428571428571429,None,673.6211781999996,None,673.6211781999996,None,,,,[1.154838999999356],,,,,,,,,,,,,,,,,,,,,CBC_1112,001,6,1,2,17,0.95,2024-09-06_16h58.36.381,MSI_TV_v3,2022.1.1,59.86554199262929,
35,0,35,0,,,,,,,,,,1,2.0,3.0,b,63.0,1.0,4.190022164497369,1.38289892513751,None,675.4309451000004,None,676.7819550900003,676.7819550900003,676.79924029,None,[],['z'],678.7884271999997,None,z,3.0010173000005125,0,0,0.7222222222222222,None,682.9739483999997,None,682.9739483999997,None,,,,[1.0010173000005125],,,,,,,,,,,,,,,,,,,,,CBC_1112,001,6,1,2,17,0.95,2024-09-06_16h58.36.381,MSI_TV_v3,2022.1.1,59.86554199262929,
36,0,36,0,,,,,,,,,,1,0.0,2.0,z,27.0,1.0,3.68371079902891,1.34668860557497,None,684.7824437000004,None,686.0985726899999,686.0985726899999,686.1149967900001,None,[],['z'],688.0994595999996,None,z,3.6773610000004737,1,1,0.7297297297297297,None,691.8031483,None,691.8031483,None,,,,[1.6773610000004737],,,,,,,,,,,,,,,,,,,,,CBC_1112,001,6,1,2,17,0.95,2024-09-06_16h58.36.381,MSI_TV_v3,2022.1.1,59.86554199262929,
37,0,37,0,,,,,,,,,,3,0.0,1.0,z,63.0,1.0,2.294664843639333,1.52290599571961,None,693.6151521999996,None,695.1151143899997,695.1151143899997,695.1318563900004,None,[],['z'],697.1211876000002,None,z,2.5054724999995415,1,1,0.7368421052631579,None,699.4225020999997,None,699.4225020999997,None,,,,[0.5054724999995415],,,,,,,,,,,,,,,,,,,,,CBC_1112,001,6,1,2,17,0.95,2024-09-06_16h58.36.381,MSI_TV_v3,2022.1.1,59.86554199262929,
38,0,38,0,,,,,,,,,,2,0.0,3.0,b,9.0,1.0,2.592312596923728,1.78643585472448,None,701.2308774999997,None,702.99920269,702.99920269,703.0154007900001,None,[],['b'],705.0033142999996,None,b,3.2837281999995866,1,1,0.7435897435897436,None,707.6060954,None,707.6060954,None,,,,[1.2837281999995866],,,,,,,,,,,,,,,,,,,,,CBC_1112,001,6,1,2,17,0.95,2024-09-06_16h58.36.381,MSI_TV_v3,2022.1.1,59.86554199262929,
39,0,39,0,,,,,,,,,,1,2.0,3.0,b,63.0,0.0,3.76873691643126,1.25817747924478,None,709.4148848,None,710.6484841900001,710.6484841900001,710.6653892900003,None,[],['z'],712.6541904000001,None,z,3.0999151999999413,0,1,0.725,None,716.4393228000004,None,716.4393228000004,None,,,,[1.0999151999999413],,,,,,,,,,,,,,,,,,,,,CBC_1112,001,6,1,2,17,0.95,2024-09-06_16h58.36.381,MSI_TV_v3,2022.1.1,59.86554199262929,
40,0,40,0,,,,,,,,,,2,0.0,1.0,b,63.0,1.0,3.73326136168326,1.94858485820231,None,718.2484596999998,None,720.1819879900004,720.1819879900004,720.1991929900005,None,[],['z'],722.1893813000002,None,z,2.8237911000001077,0,0,0.7073170731707317,None,725.9170361000001,None,725.9170361000001,None,,,,[0.8237911000001077],,,,,,,,,,,,,,,,,,,,,CBC_1112,001,6,1,2,17,0.95,2024-09-06_16h58.36.381,MSI_TV_v3,2022.1.1,59.86554199262929,
41,0,41,0,,,,,,,,,,0,2.0,3.0,z,63.0,1.0,4.7533305109883095,0.917519910446003,None,727.7321495000001,None,728.6324419900002,728.6324419900002,728.6492101900003,None,[],['z'],730.6388835000002,None,z,3.0391943000008723,1,1,0.7142857142857143,None,735.3779317000003,None,735.3779317000003,None,,,,[1.0391943000008723],,,,,,,,,,,,,,,,,,,,,CBC_1112,001,6,1,2,17,0.95,2024-09-06_16h58.36.381,MSI_TV_v3,2022.1.1,59.86554199262929,
42,0,42,0,,,,,,,,,,1,3.0,2.0,z,63.0,1.0,3.2062024266105302,1.95130344756745,None,737.1824438999997,None,739.1153767900005,739.1153767900005,739.13216629,None,[],['z'],741.1214285000001,None,z,3.228398499999912,1,1,0.7209302325581395,None,744.3177106999997,None,744.3177106999997,None,,,,[1.228398499999912],,,,,,,,,,,,,,,,,,,,,CBC_1112,001,6,1,2,17,0.95,2024-09-06_16h58.36.381,MSI_TV_v3,2022.1.1,59.86554199262929,
43,0,43,0,,,,,,,,,,0,3.0,1.0,b,27.0,1.0,2.792365600763554,2.22427187882546,None,746.1322396,None,748.3321423899997,748.3321423899997,748.3490376899999,None,[],['b'],750.3406133000003,None,b,2.1226364999997713,1,1,0.7272727272727273,None,753.1291579000003,None,753.1291579000003,None,,,,[0.12263649999977133],,,,,,,,,,,,,,,,,,,,,CBC_1112,001,6,1,2,17,0.95,2024-09-06_16h58.36.381,MSI_TV_v3,2022.1.1,59.86554199262929,
,,,,,,,,,,,,,,,,,,,,,,,,,,,,,,,,,,,,,,,,,,,,,,None,754.9312526999997,None,,,,,,,,,,,,,,,,,,CBC_1112,001,6,1,2,17,0.95,2024-09-06_16h58.36.381,MSI_TV_v3,2022.1.1,59.86554199262929,
,,,,,,,,,,,,,,,,,,,,,,,,,,,,,,,,,,,,,,,,,,,,,,,,,759.9149781000001,None,None,759.9149781000001,764.8980464000001,,,,,,,,,,,,,CBC_1112,001,6,1,2,17,0.95,2024-09-06_16h58.36.381,MSI_TV_v3,2022.1.1,59.86554199262929,
,,,,,,,,,,,,,,,,,,,,,,,,,,,,,,,,,,,,,,,,,,,,,,,,,,,,,,z,b,easy,"[0, 1, 2, 3]","[2, 3, 1, 0]",0.45454545454545453,0.9090909090909091,0.8181818181818182,0.7272727272727273,32,2,10,,,,,,,,,,,,
