trials_runs.thisRepN,trials_runs.thisTrialN,trials_runs.thisN,trials_runs.thisIndex,standbild_start.started,standbild_start.stopped,trigger.keys,trigger.rt,trigger.started,trigger.stopped,keys_2.keys,keys_2.started,keys_2.stopped,trials_runs.auditory_stim,trials_runs.visual_stim_left,trials_runs.visual_stim_right,trials_runs.correctKey,trials_runs.presentationFrequncy,trials_runs.FBaccuracy,trials_runs.ISI_s,trials_runs.ITI_s,keys_3.keys,keys_3.started,keys_3.stopped,ImageLeft_4.started,ImageLeft_4.stopped,ImageRight_4.started,ImageRight_4.stopped,sound_4.started,sound_4.stopped,response_4.keys,response_4.started,response_4.stopped,response_5.keys,response_5.rt,response_5.started,response_5.stopped,response_runs.keys,response_runs.rt,trials_runs.correct_answer,trials_runs.feedback_given,trials_runs.running_mean,feedback_6.started,feedback_6.stopped,keys_6.keys,keys_6.started,keys_6.stopped,response_4.rt,keys_6.rt,keys_3.rt,keys_7.keys,keys_7.started,keys_7.stopped,standbild_end.started,standbild_end.stopped,Stop_exp.keys,Stop_exp.started,Stop_exp.stopped,trials_runs.rightKey,trials_runs.leftKey,ts_difficulty,visualPair,audioPair,trials_runs.mean_acc_1stFourth,trials_runs.mean_acc_2ndFourth,trials_runs.mean_acc_3rdFourth,trials_runs.mean_acc_4thFourth,nbCorrect,nbOmissions,nbIncorrect,participant,session,visual set [1-6],audio set [1-3 / 4-6],trial structure [0-3 / 4-7],pairing [0-23],prob Feedback,date,expName,psychopyVersion,frameRate,
,,,,181.8745858000002,None,t,73.03421409999919,181.8745858000002,None,,,,,,,,,,,,,,,,,,,,,,,,,,,,,,,,,,,,,,,,,,,,,,,,,,,,,,,,,,,,,CBC_1115,001,3,2,2,20,0.90,2024-08-06_15h06.49.385,MSI_AV_v3,2022.1.1,59.89777845129298,
,,,,,,,,,,None,254.9409308000004,None,,,,,,,,,,,,,,,,,,,,,,,,,,,,,,,,,,,,,,,,,,,,,,,,,,,,,,,,,,CBC_1115,001,3,2,2,20,0.90,2024-08-06_15h06.49.385,MSI_AV_v3,2022.1.1,59.89777845129298,
0,0,0,0,,,,,,,,,,3,0,1,b,63,1,4.82531807167306,1.21250262048173,None,255.14063310000074,None,256.53731980000066,None,256.53731980000066,None,256.5405054000007,None,None,256.53731980000066,None,['z'],[0.5982490999995207],258.35781340000085,None,z,2.5982490999995207,0,0,0.0,263.22526390000075,None,None,263.22526390000075,None,,,,,,,,,,,,,,,,,,,,,,,,CBC_1115,001,3,2,2,20,0.90,2024-08-06_15h06.49.385,MSI_AV_v3,2022.1.1,59.89777845129298,
1,0,1,0,,,,,,,,,,2,2,3,z,63,1,2.526044641065533,1.53243550275999,None,264.9908697000001,None,266.6449186,None,266.6449186,None,266.64093130000083,None,None,266.6449186,None,['b'],[0.6315061999994214],268.52424560000054,None,b,2.6315061999994214,0,0,0.0,271.0352077000007,None,None,271.0352077000007,None,,,,,,,,,,,,,,,,,,,,,,,,CBC_1115,001,3,2,2,20,0.90,2024-08-06_15h06.49.385,MSI_AV_v3,2022.1.1,59.89777845129298,
2,0,2,0,,,,,,,,,,0,0,2,z,27,1,3.3728785608729996,1.64421109900286,None,272.84070210000027,None,274.52860520000013,None,274.52860520000013,None,274.5240695000007,None,None,274.52860520000013,None,['z'],[0.7000486999986606],276.47418730000027,None,z,2.7000486999986606,1,1,0.3333333333333333,279.8772437000007,None,None,279.8772437000007,None,,,,,,,,,,,,,,,,,,,,,,,,CBC_1115,001,3,2,2,20,0.90,2024-08-06_15h06.49.385,MSI_AV_v3,2022.1.1,59.89777845129298,
3,0,3,0,,,,,,,,,,3,0,1,b,63,1,3.7500315165247198,2.49839527409216,None,281.6578870000003,None,284.1793548000005,None,284.1793548000005,None,284.19081000000006,None,None,284.1793548000005,None,['b'],[0.47709279999980936],286.15741790000084,None,b,2.4770927999998094,1,1,0.5,289.8992080000007,None,None,289.8992080000007,None,,,,,,,,,,,,,,,,,,,,,,,,CBC_1115,001,3,2,2,20,0.90,2024-08-06_15h06.49.385,MSI_AV_v3,2022.1.1,59.89777845129298,
4,0,4,0,,,,,,,,,,1,1,3,b,27,1,3.71372710086949,1.1243895841892,None,291.70761760000005,None,292.8608331000005,None,292.8608331000005,None,292.85728890000064,None,None,292.8608331000005,None,['z'],[0.7117352999994182],294.8243725000002,None,z,2.711735299999418,0,0,0.4,298.5285683000002,None,None,298.5285683000002,None,,,,,,,,,,,,,,,,,,,,,,,,CBC_1115,001,3,2,2,20,0.90,2024-08-06_15h06.49.385,MSI_AV_v3,2022.1.1,59.89777845129298,
5,0,5,0,,,,,,,,,,0,3,2,z,63,1,3.2062024266105302,0.974903167432984,None,300.34074190000047,None,301.3299341000002,None,301.3299341000002,None,301.3409564000003,None,None,301.3299341000002,None,['z'],[0.6189590999993015],303.3077632000004,None,z,2.6189590999993015,1,1,0.5,306.49504220000017,None,None,306.49504220000017,None,,,,,,,,,,,,,,,,,,,,,,,,CBC_1115,001,3,2,2,20,0.90,2024-08-06_15h06.49.385,MSI_AV_v3,2022.1.1,59.89777845129298,
6,0,6,0,,,,,,,,,,2,3,2,b,63,0,2.629554641171433,1.34668860557497,None,308.3077426,None,309.6766428000001,None,309.6766428000001,None,309.67420190000075,None,['z'],309.6766428000001,None,None,,311.6772667000005,None,z,1.8648906999987958,0,1,0.42857142857142855,314.31130360000043,None,None,314.31130360000043,None,[1.8648906999987958],,,,,,,,,,,,,,,,,,,,,,,CBC_1115,001,3,2,2,20,0.90,2024-08-06_15h06.49.385,MSI_AV_v3,2022.1.1,59.89777845129298,
7,0,7,0,,,,,,,,,,1,0,1,z,63,1,2.592312596923728,3.4543169006169,None,316.1245783000004,None,319.59536520000074,None,319.59536520000074,None,319.59109520000084,None,None,319.59536520000074,None,['z'],[0.6069365999992442],321.5745215000006,None,z,2.606936599999244,1,1,0.5,324.1613575000001,None,None,324.1613575000001,None,,,,,,,,,,,,,,,,,,,,,,,,CBC_1115,001,3,2,2,20,0.90,2024-08-06_15h06.49.385,MSI_AV_v3,2022.1.1,59.89777845129298,
8,0,8,0,,,,,,,,,,3,2,0,z,27,1,2.6391747348430608,3.1424449555106,None,325.97495340000023,None,329.1305447000004,None,329.1305447000004,None,329.14120900000034,None,None,329.1305447000004,None,['z'],[2.1027464999988297],331.1076845000007,None,z,4.10274649999883,1,1,0.5555555555555556,333.7295601000005,None,None,333.7295601000005,None,,,,,,,,,,,,,,,,,,,,,,,,CBC_1115,001,3,2,2,20,0.90,2024-08-06_15h06.49.385,MSI_AV_v3,2022.1.1,59.89777845129298,
9,0,9,0,,,,,,,,,,2,3,0,b,9,1,2.496959177995529,0.77703640172831,None,335.54131470000084,None,336.33065110000007,None,336.33065110000007,None,336.34103380000033,None,None,336.33065110000007,None,None,,338.30766870000025,None,[],[],0,3,0.5,340.83649870000045,None,None,340.83649870000045,None,,,,,,,,,,,,,,,,,,,,,,,,CBC_1115,001,3,2,2,20,0.90,2024-08-06_15h06.49.385,MSI_AV_v3,2022.1.1,59.89777845129298,
10,0,10,0,,,,,,,,,,0,2,3,b,63,1,3.73326136168326,2.10421507306074,None,342.60788460000003,None,344.72690650000004,None,344.72690650000004,None,344.7246127000003,None,None,344.72690650000004,None,['z'],[0.18884439999965252],346.70774000000074,None,z,2.1888443999996525,0,0,0.45454545454545453,350.4315802000001,None,None,350.4315802000001,None,,,,,,,,,,,,,,,,,,,,,,,,CBC_1115,001,3,2,2,20,0.90,2024-08-06_15h06.49.385,MSI_AV_v3,2022.1.1,59.89777845129298,
11,0,11,0,,,,,,,,,,1,0,1,z,63,1,3.26539063535182,0.979776149765883,None,352.24083640000026,None,353.24259130000064,None,353.24259130000064,None,353.2409543000008,None,['z'],353.24259130000064,None,None,,355.2442278000008,None,z,1.7869441999991977,1,1,0.5,358.5121788000006,None,None,358.5121788000006,None,[1.7869441999991977],,,,,,,,,,,,,,,,,,,,,,,CBC_1115,001,3,2,2,20,0.90,2024-08-06_15h06.49.385,MSI_AV_v3,2022.1.1,59.89777845129298,
12,0,12,0,,,,,,,,,,2,2,3,z,63,1,4.77034425507967,1.94858485820231,None,360.32461990000047,None,362.29281640000045,None,362.29281640000045,None,362.2910050000005,None,None,362.29281640000045,None,['z'],[1.864381699999285],364.27458020000086,None,z,3.864381699999285,1,1,0.5384615384615384,369.0293741000005,None,None,369.0293741000005,None,,,,,,,,,,,,,,,,,,,,,,,,CBC_1115,001,3,2,2,20,0.90,2024-08-06_15h06.49.385,MSI_AV_v3,2022.1.1,59.89777845129298,
13,0,13,0,,,,,,,,,,0,2,3,b,63,1,4.12485271162806,1.95130344756745,None,370.84117120000064,None,372.80886680000003,None,372.80886680000003,None,372.8079274000006,None,['z'],372.80886680000003,None,None,,374.80370960000073,None,z,1.4983010999994804,0,0,0.5,378.92703690000053,None,None,378.92703690000053,None,[1.4983010999994804],,,,,,,,,,,,,,,,,,,,,,,CBC_1115,001,3,2,2,20,0.90,2024-08-06_15h06.49.385,MSI_AV_v3,2022.1.1,59.89777845129298,
14,0,14,0,,,,,,,,,,1,3,1,z,27,1,2.91303524001082,2.09887870490381,None,380.74142030000075,None,382.86562720000074,None,382.86562720000074,None,382.8744996000005,None,None,382.86562720000074,None,None,,384.84082150000086,None,[],[],0,3,0.4666666666666667,387.7311343000001,None,None,387.7311343000001,None,,,,,,,,,,,,,,,,,,,,,,,,CBC_1115,001,3,2,2,20,0.90,2024-08-06_15h06.49.385,MSI_AV_v3,2022.1.1,59.89777845129298,
15,0,15,0,,,,,,,,,,3,0,3,b,9,1,2.342239579230602,1.27538462653558,None,389.5415272,None,390.8233289,None,390.8233289,None,390.82443230000035,None,None,390.8233289,None,['z'],[1.5654698999987886],392.80777390000003,None,z,3.5654698999987886,0,0,0.4375,395.1339044000006,None,None,395.1339044000006,None,,,,,,,,,,,,,,,,,,,,,,,,CBC_1115,001,3,2,2,20,0.90,2024-08-06_15h06.49.385,MSI_AV_v3,2022.1.1,59.89777845129298,
16,0,16,0,,,,,,,,,,2,2,3,z,63,1,2.2759877950103027,1.90743690794447,None,396.94139730000006,None,398.8644505000002,None,398.8644505000002,None,398.87441800000033,None,None,398.8644505000002,None,None,,400.8413399000001,None,[],[],0,3,0.4117647058823529,403.09648200000083,None,['z'],403.09648200000083,None,,[0.3521210999997493],,,,,,,,,,,,,,,,,,,,,,CBC_1115,001,3,2,2,20,0.90,2024-08-06_15h06.49.385,MSI_AV_v3,2022.1.1,59.89777845129298,
17,0,17,0,,,,,,,,,,0,0,2,z,27,1,3.02234236141277,1.36309078069689,None,404.90803230000074,None,406.2933352,None,406.2933352,None,406.2912785000003,None,None,406.2933352,None,['b'],[0.1391751999990447],408.27436540000053,None,b,2.1391751999990447,0,0,0.3888888888888889,411.2791694000007,None,None,411.2791694000007,None,,,,,,,,,,,,,,,,,,,,,,,,CBC_1115,001,3,2,2,20,0.90,2024-08-06_15h06.49.385,MSI_AV_v3,2022.1.1,59.89777845129298,
18,0,18,0,,,,,,,,,,3,0,1,b,63,1,3.31929419319838,3.40155979865722,None,413.09147010000015,None,416.51535610000064,None,416.51535610000064,None,416.5246685000002,None,['b'],416.51535610000064,None,"['b', 'z', 'z', 'z', 'z']","[0.005634699999063741, 0.49415679999947315, 1.0817732999994405, 1.4350171999994927, 2.4875578999990466]",418.5119140000006,None,b,0.9844948999989356,1,1,0.42105263157894735,421.84910630000013,None,['z'],421.84910630000013,None,[0.9844948999989356],[0.013519999999516585],,,,,,,,,,,,,,,,,,,,,,CBC_1115,001,3,2,2,20,0.90,2024-08-06_15h06.49.385,MSI_AV_v3,2022.1.1,59.89777845129298,
19,0,19,0,,,,,,,,,,1,1,0,b,63,0,2.678526077912375,3.06992456303453,None,423.65805010000076,None,426.74424330000056,None,426.74424330000056,None,426.7415568000001,None,None,426.74424330000056,None,['b'],[0.7043843999999808],428.7249803000004,None,b,2.704384399999981,1,0,0.45,431.39535440000054,None,None,431.39535440000054,None,,,,,,,,,,,,,,,,,,,,,,,,CBC_1115,001,3,2,2,20,0.90,2024-08-06_15h06.49.385,MSI_AV_v3,2022.1.1,59.89777845129298,
20,0,20,0,,,,,,,,,,2,3,1,b,27,1,3.76873691643126,0.80788063606262,None,433.2079025000003,None,434.0267997000001,None,434.0267997000001,None,434.0245441000002,None,None,434.0267997000001,None,['z'],[0.2630887999994229],436.0080166000007,None,z,2.263088799999423,0,0,0.42857142857142855,439.7721874000008,None,None,439.7721874000008,None,,,,,,,,,,,,,,,,,,,,,,,,CBC_1115,001,3,2,2,20,0.90,2024-08-06_15h06.49.385,MSI_AV_v3,2022.1.1,59.89777845129298,
21,0,21,0,,,,,,,,,,0,3,2,z,63,1,4.77723667052879,2.40378712856304,None,441.57508830000006,None,443.9920869000007,None,443.9920869000007,None,443.99144320000005,None,['z'],443.9920869000007,None,None,,445.9962133000008,None,z,1.5613649999995687,1,1,0.45454545454545453,450.7642605000001,None,None,450.7642605000001,None,[1.5613649999995687],,,,,,,,,,,,,,,,,,,,,,,CBC_1115,001,3,2,2,20,0.90,2024-08-06_15h06.49.385,MSI_AV_v3,2022.1.1,59.89777845129298,
22,0,22,0,,,,,,,,,,1,0,1,z,63,1,4.01714354611405,2.78346932462847,None,452.57504040000003,None,455.3781944000002,None,455.3781944000002,None,455.3747862000005,None,None,455.3781944000002,None,['z'],[1.1493702999996458],457.35821620000024,None,z,3.149370299999646,1,1,0.4782608695652174,461.3584208000002,None,None,461.3584208000002,None,,,,,,,,,,,,,,,,,,,,,,,,CBC_1115,001,3,2,2,20,0.90,2024-08-06_15h06.49.385,MSI_AV_v3,2022.1.1,59.89777845129298,
23,0,23,0,,,,,,,,,,3,0,2,b,27,1,4.40017271499661,1.25817747924478,None,463.1580423000005,None,464.4313301000002,None,464.4313301000002,None,464.4422005000006,None,['b'],464.4313301000002,None,None,,466.42667530000017,None,b,1.5401432999988174,1,1,0.5,470.8338461000003,None,None,470.8338461000003,None,[1.5401432999988174],,,,,,,,,,,,,,,,,,,,,,,CBC_1115,001,3,2,2,20,0.90,2024-08-06_15h06.49.385,MSI_AV_v3,2022.1.1,59.89777845129298,
24,0,24,0,,,,,,,,,,2,3,2,b,63,1,4.46924002178158,1.60731937853708,None,472.6418560000002,None,474.2580504000007,None,474.2580504000007,None,474.2580124000001,None,None,474.2580504000007,None,['b'],[1.1723757999989175],476.2417421,None,b,3.1723757999989175,1,1,0.52,480.70642399999997,None,None,480.70642399999997,None,,,,,,,,,,,,,,,,,,,,,,,,CBC_1115,001,3,2,2,20,0.90,2024-08-06_15h06.49.385,MSI_AV_v3,2022.1.1,59.89777845129298,
25,0,25,0,,,,,,,,,,0,0,2,z,27,1,4.72585056748869,1.18065738546375,None,482.50839390000056,None,483.71424860000025,None,483.71424860000025,None,483.7249358000008,None,None,483.71424860000025,None,['z'],[1.545331599999372],485.69175840000025,None,z,3.545331599999372,1,1,0.5384615384615384,490.4125019000003,None,None,490.4125019000003,None,,,,,,,,,,,,,,,,,,,,,,,,CBC_1115,001,3,2,2,20,0.90,2024-08-06_15h06.49.385,MSI_AV_v3,2022.1.1,59.89777845129298,
26,0,26,0,,,,,,,,,,1,0,1,z,63,1,2.792365600763554,2.22427187882546,None,492.2248122000001,None,494.46214750000036,None,494.46214750000036,None,494.4584316000005,None,None,494.46214750000036,None,['z'],[1.4225599999999758],496.44101070000033,None,z,3.422559999999976,1,1,0.5555555555555556,499.22418630000084,None,None,499.22418630000084,None,,,,,,,,,,,,,,,,,,,,,,,,CBC_1115,001,3,2,2,20,0.90,2024-08-06_15h06.49.385,MSI_AV_v3,2022.1.1,59.89777845129298,
27,0,27,0,,,,,,,,,,3,1,0,z,63,1,2.92731383428727,1.52290599571961,None,501.0250737000006,None,502.5630009000006,None,502.5630009000006,None,502.5751592000006,None,None,502.5630009000006,None,None,,504.54195360000085,None,[],[],0,3,0.5357142857142857,507.44660870000007,None,None,507.44660870000007,None,,,,,,,,,,,,,,,,,,,,,,,,CBC_1115,001,3,2,2,20,0.90,2024-08-06_15h06.49.385,MSI_AV_v3,2022.1.1,59.89777845129298,
28,0,28,0,,,,,,,,,,0,2,3,b,63,0,3.6438386551209,3.1963008326951,['z'],509.2580310000003,None,512.4624832000009,None,512.4624832000009,None,512.4583432000004,None,['b'],512.4624832000009,None,None,,514.4630942000003,None,b,1.9302536999994118,1,0,0.5517241379310345,518.0974448000006,None,None,518.0974448000006,None,[1.9302536999994118],,[3.019314499999382],,,,,,,,,,,,,,,,,,,,,CBC_1115,001,3,2,2,20,0.90,2024-08-06_15h06.49.385,MSI_AV_v3,2022.1.1,59.89777845129298,
29,0,29,0,,,,,,,,,,2,1,3,z,27,1,4.7533305109883095,0.917519910446003,None,519.9087362,None,520.8409167,None,520.8409167,None,520.8416001,None,None,520.8409167,None,['z'],[1.3111287999990964],522.8246861000007,None,z,3.3111287999990964,1,1,0.5666666666666667,527.5611266000005,None,None,527.5611266000005,None,,,,,,,,,,,,,,,,,,,,,,,,CBC_1115,001,3,2,2,20,0.90,2024-08-06_15h06.49.385,MSI_AV_v3,2022.1.1,59.89777845129298,
30,0,30,0,,,,,,,,,,3,0,1,b,63,1,2.666404967794728,1.43470440954152,None,529.3753449000005,None,530.8270152000005,None,530.8270152000005,None,530.8254926000004,None,None,530.8270152000005,None,['z'],[1.6456743999997343],532.8083078,None,z,3.6456743999997343,0,0,0.5483870967741935,535.4626122,None,None,535.4626122,None,,,,,,,,,,,,,,,,,,,,,,,,CBC_1115,001,3,2,2,20,0.90,2024-08-06_15h06.49.385,MSI_AV_v3,2022.1.1,59.89777845129298,
31,0,31,0,,,,,,,,,,2,2,3,z,63,1,2.517541937862754,2.15533949826702,None,537.2746079000008,None,539.4429723000003,None,539.4429723000003,None,539.4418442000001,None,None,539.4429723000003,None,['z'],[0.08571739999933925],541.4252329000001,None,z,2.0857173999993392,1,1,0.5625,543.9400208000006,None,None,543.9400208000006,None,,,,,,,,,,,,,,,,,,,,,,,,CBC_1115,001,3,2,2,20,0.90,2024-08-06_15h06.49.385,MSI_AV_v3,2022.1.1,59.89777845129298,
32,0,32,0,,,,,,,,,,1,1,2,b,9,1,4.52047235037039,2.96653053743745,None,545.7421953000003,None,548.7285922000001,None,548.7285922000001,None,548.7253416000008,None,None,548.7285922000001,None,['b'],[0.4638457999999446],550.7087570000003,None,b,2.4638457999999446,1,1,0.5757575757575758,555.2201250000007,None,None,555.2201250000007,None,,,,,,,,,,,,,,,,,,,,,,,,CBC_1115,001,3,2,2,20,0.90,2024-08-06_15h06.49.385,MSI_AV_v3,2022.1.1,59.89777845129298,
33,0,33,0,,,,,,,,,,3,0,1,b,63,1,2.82320408183943,1.96568735158996,None,557.0250302000004,None,559.0145658000001,None,559.0145658000001,None,559.0253851000007,None,None,559.0145658000001,None,['b'],[2.398893799999314],560.9926724000006,None,b,4.398893799999314,1,1,0.5882352941176471,563.8055587000008,None,None,563.8055587000008,None,,,,,,,,,,,,,,,,,,,,,,,,CBC_1115,001,3,2,2,20,0.90,2024-08-06_15h06.49.385,MSI_AV_v3,2022.1.1,59.89777845129298,
34,0,34,0,,,,,,,,,,0,1,2,z,9,1,2.294664843639333,0.952147612306987,None,565.6078925000002,None,566.5807843000002,None,566.5807843000002,None,566.5920696000003,None,None,566.5807843000002,None,['z'],[1.6868669999985286],568.5596817000005,None,z,3.6868669999985286,1,1,0.6,570.8466783000003,None,None,570.8466783000003,None,,,,,,,,,,,,,,,,,,,,,,,,CBC_1115,001,3,2,2,20,0.90,2024-08-06_15h06.49.385,MSI_AV_v3,2022.1.1,59.89777845129298,
35,0,35,0,,,,,,,,,,1,0,1,z,63,1,2.433630701072358,1.38289892513751,None,572.6587565,None,574.0609771000009,None,574.0609771000009,None,574.0587321000007,None,None,574.0609771000009,None,['z'],[0.6183722999994643],576.0418097000002,None,z,2.6183722999994643,1,1,0.6111111111111112,578.4690523000008,None,None,578.4690523000008,None,,,,,,,,,,,,,,,,,,,,,,,,CBC_1115,001,3,2,2,20,0.90,2024-08-06_15h06.49.385,MSI_AV_v3,2022.1.1,59.89777845129298,
36,0,36,0,,,,,,,,,,3,1,0,z,63,0,4.53337421950507,2.6299100644723,None,580.2754267,None,582.9263563000004,None,582.9263563000004,None,582.9253148000003,None,['z'],582.9263563000004,None,None,,584.9235754000001,None,z,1.3180170999994516,1,0,0.6216216216216216,589.4648473000007,None,None,589.4648473000007,None,[1.3180170999994516],,,,,,,,,,,,,,,,,,,,,,,CBC_1115,001,3,2,2,20,0.90,2024-08-06_15h06.49.385,MSI_AV_v3,2022.1.1,59.89777845129298,
37,0,37,0,,,,,,,,,,1,1,0,b,63,1,3.35133458220192,3.33124983260532,None,591.2755210000005,None,594.6290105000007,None,594.6290105000007,None,594.6257551000003,None,None,594.6290105000007,None,['b'],[1.7790667999988727],596.6090217000001,None,b,3.7790667999988727,1,1,0.631578947368421,599.9568032000006,None,None,599.9568032000006,None,,,,,,,,,,,,,,,,,,,,,,,,CBC_1115,001,3,2,2,20,0.90,2024-08-06_15h06.49.385,MSI_AV_v3,2022.1.1,59.89777845129298,
38,0,38,0,,,,,,,,,,2,3,1,b,27,1,4.11514536789087,0.761758675042088,None,601.7587667000007,None,602.5299112000002,None,602.5299112000002,None,602.5257338000006,None,None,602.5299112000002,None,['b'],[0.567392199999631],604.5088828000007,None,b,2.567392199999631,1,1,0.6410256410256411,608.6291134000003,None,None,608.6291134000003,None,,,,,,,,,,,,,,,,,,,,,,,,CBC_1115,001,3,2,2,20,0.90,2024-08-06_15h06.49.385,MSI_AV_v3,2022.1.1,59.89777845129298,
39,0,39,0,,,,,,,,,,0,2,3,b,63,1,2.7134565917469198,1.25920145784721,None,610.4424086000008,None,611.6942565000008,None,611.6942565000008,None,611.6912578000001,None,None,611.6942565000008,None,['z'],[0.1861345999986952],613.6755851000007,None,z,2.186134599998695,0,0,0.625,616.3760234000001,None,None,616.3760234000001,None,,,,,,,,,,,,,,,,,,,,,,,,CBC_1115,001,3,2,2,20,0.90,2024-08-06_15h06.49.385,MSI_AV_v3,2022.1.1,59.89777845129298,
40,0,40,0,,,,,,,,,,3,2,0,z,27,1,4.190022164497369,3.24569326556923,None,618.1755781000002,None,621.4450197000006,None,621.4450197000006,None,621.4423840000004,None,None,621.4450197000006,None,['z'],[0.2902115999995658],623.4254878000002,None,z,2.290211599999566,1,1,0.6341463414634146,627.6115901000003,None,None,627.6115901000003,None,,,,,,,,,,,,,,,,,,,,,,,,CBC_1115,001,3,2,2,20,0.90,2024-08-06_15h06.49.385,MSI_AV_v3,2022.1.1,59.89777845129298,
41,0,41,0,,,,,,,,,,2,3,2,b,63,1,4.61004669244928,1.78643585472448,None,629.4248682000007,None,631.2317317000006,None,631.2317317000006,None,631.2424199000006,None,None,631.2317317000006,None,None,,633.2091249000005,None,[],[],0,3,0.6190476190476191,637.7984000000006,None,None,637.7984000000006,None,,,,,,,,,,,,,,,,,,,,,,,,CBC_1115,001,3,2,2,20,0.90,2024-08-06_15h06.49.385,MSI_AV_v3,2022.1.1,59.89777845129298,
42,0,42,0,,,,,,,,,,1,3,1,z,27,1,2.693348633324513,1.53122835510861,None,639.6089471000005,None,641.1475786000001,None,641.1475786000001,None,641.1590742000008,None,None,641.1475786000001,None,None,,643.1258015000003,None,[],[],0,3,0.6046511627906976,645.7993115000008,None,None,645.7993115000008,None,,,,,,,,,,,,,,,,,,,,,,,,CBC_1115,001,3,2,2,20,0.90,2024-08-06_15h06.49.385,MSI_AV_v3,2022.1.1,59.89777845129298,
43,0,43,0,,,,,,,,,,0,2,3,b,63,1,3.68371079902891,1.12425433982333,None,647.6095603000003,None,648.7478469000007,None,648.7478469000007,None,648.7590187000005,None,None,648.7478469000007,None,['z'],[2.1463764999989507],650.7258374000003,None,z,4.146376499998951,0,0,0.5909090909090909,654.3972101000008,None,None,654.3972101000008,None,,,,,,,,,,,,,,,,,,,,,,,,CBC_1115,001,3,2,2,20,0.90,2024-08-06_15h06.49.385,MSI_AV_v3,2022.1.1,59.89777845129298,
,,,,,,,,,,,,,,,,,,,,,,,,,,,,,,,,,,,,,,,,,,,,,,,,,,None,656.2093738000003,None,,,,,,,,,,,,,,,,,,CBC_1115,001,3,2,2,20,0.90,2024-08-06_15h06.49.385,MSI_AV_v3,2022.1.1,59.89777845129298,
,,,,,,,,,,,,,,,,,,,,,,,,,,,,,,,,,,,,,,,,,,,,,,,,,,,,,661.2092161,None,None,661.2092161,None,,,,,,,,,,,,,CBC_1115,001,3,2,2,20,0.90,2024-08-06_15h06.49.385,MSI_AV_v3,2022.1.1,59.89777845129298,
,,,,,,,,,,,,,,,,,,,,,,,,,,,,,,,,,,,,,,,,,,,,,,,,,,,,,,,,,,z,b,hard,"[0, 1, 2, 3]","[3, 1, 0, 2]",0.45454545454545453,0.45454545454545453,0.8181818181818182,0.6363636363636364,24,6,14,,,,,,,,,,,,
