trials_runs.thisRepN,trials_runs.thisTrialN,trials_runs.thisN,trials_runs.thisIndex,standbild_start.started,standbild_start.stopped,trigger.keys,trigger.rt,trigger.started,trigger.stopped,keys_2.keys,keys_2.started,keys_2.stopped,trials_runs.auditory_stim,trials_runs.visual_stim_left,trials_runs.visual_stim_right,trials_runs.correctKey,trials_runs.presentationFrequncy,trials_runs.FBaccuracy,trials_runs.ISI_s,trials_runs.ITI_s,keys_3.keys,keys_3.started,keys_3.stopped,ImageLeft_4.started,ImageLeft_4.stopped,ImageRight_4.started,ImageRight_4.stopped,sound_4.started,sound_4.stopped,response_4.keys,response_4.started,response_4.stopped,response_5.keys,response_5.rt,response_5.started,response_5.stopped,response_runs.keys,response_runs.rt,trials_runs.correct_answer,trials_runs.feedback_given,trials_runs.running_mean,feedback_6.started,feedback_6.stopped,keys_6.keys,keys_6.started,keys_6.stopped,response_4.rt,keys_6.rt,keys_7.keys,keys_7.started,keys_7.stopped,standbild_end.started,standbild_end.stopped,Stop_exp.keys,Stop_exp.started,Stop_exp.stopped,trials_runs.rightKey,trials_runs.leftKey,ts_difficulty,visualPair,audioPair,trials_runs.mean_acc_1stFourth,trials_runs.mean_acc_2ndFourth,trials_runs.mean_acc_3rdFourth,trials_runs.mean_acc_4thFourth,participant,session,visual set [1-6],audio set [1-3],trial structure [0-3 / 4-7],pairing [0-23],prob Feedback,date,expName,psychopyVersion,frameRate,
,,,,27.605341599999974,None,t,63.07147400000031,27.605341599999974,None,,,,,,,,,,,,,,,,,,,,,,,,,,,,,,,,,,,,,,,,,,,,,,,,,,,,,,,,,CBC_1003,001,4,3,0,2,0.8,2023-06-14_14h56.33.053,MSI_AV_v3,2022.1.1,59.94909123168829,
,,,,,,,,,,None,90.69620239999995,None,,,,,,,,,,,,,,,,,,,,,,,,,,,,,,,,,,,,,,,,,,,,,,,,,,,,,,CBC_1003,001,4,3,0,2,0.8,2023-06-14_14h56.33.053,MSI_AV_v3,2022.1.1,59.94909123168829,
0,0,0,0,,,,,,,,,,2,0.0,1.0,z,63.0,1.0,1.887650177,2.684881281,None,90.89631569999983,None,93.75801209999963,None,93.75801209999963,None,93.76279584000027,None,None,93.75801209999963,None,['z'],[0.385354300000472],95.57952290000003,None,z,2.385354300000472,1,1,1.0,97.4837236999997,None,None,97.4837236999997,None,,,,,,,,,,,,,,,,,,,,CBC_1003,001,4,3,0,2,0.8,2023-06-14_14h56.33.053,MSI_AV_v3,2022.1.1,59.94909123168829,
1,0,1,0,,,,,,,,,,0,0.0,1.0,b,63.0,1.0,1.90573091,2.108332021,None,99.46279989999994,None,101.61422379999976,None,101.61422379999976,None,101.6128897000001,None,['b'],101.61422379999976,None,None,,103.58117519999996,None,b,1.4175564000001941,1,1,1.0,105.5031084999996,None,None,105.5031084999996,None,[1.4175564000001941],,,,,,,,,,,,,,,,,,,CBC_1003,001,4,3,0,2,0.8,2023-06-14_14h56.33.053,MSI_AV_v3,2022.1.1,59.94909123168829,
2,0,2,0,,,,,,,,,,3,2.0,3.0,z,63.0,1.0,4.21669271,1.910349838,None,107.51323579999962,None,109.50541029999977,None,109.50541029999977,None,109.51279884000014,None,None,109.50541029999977,None,['b'],[0.7281180000004497],111.41286999999966,None,b,2.7281180000004497,0,0,0.6666666666666666,115.64341960000002,None,None,115.64341960000002,None,,,,,,,,,,,,,,,,,,,,CBC_1003,001,4,3,0,2,0.8,2023-06-14_14h56.33.053,MSI_AV_v3,2022.1.1,59.94909123168829,
3,0,3,0,,,,,,,,,,2,2.0,1.0,z,9.0,1.0,2.088920167,2.7801224,None,117.6296070999997,None,120.43360089999987,None,120.43360089999987,None,120.42960334000004,None,['b'],120.43360089999987,None,None,,122.4320800999999,None,b,1.1004040000002533,0,0,0.5,124.53508569999985,None,None,124.53508569999985,None,[1.1004040000002533],,,,,,,,,,,,,,,,,,,CBC_1003,001,4,3,0,2,0.8,2023-06-14_14h56.33.053,MSI_AV_v3,2022.1.1,59.94909123168829,
4,0,4,0,,,,,,,,,,0,0.0,2.0,b,27.0,1.0,2.208904638,2.407383959,None,126.54623129999982,None,128.96863229999963,None,128.96863229999963,None,128.9803316200001,None,['b'],128.96863229999963,None,None,,130.96497379999983,None,b,1.6520531999999548,1,1,0.6,133.1866402999999,None,None,133.1866402999999,None,[1.6520531999999548],,,,,,,,,,,,,,,,,,,CBC_1003,001,4,3,0,2,0.8,2023-06-14_14h56.33.053,MSI_AV_v3,2022.1.1,59.94909123168829,
5,0,5,0,,,,,,,,,,1,2.0,3.0,b,63.0,1.0,4.334629553,1.53162701,None,135.19625029999997,None,136.78513199999998,None,136.78513199999998,None,136.77964570000017,None,['z'],136.78513199999998,None,None,,138.74255379999977,None,z,1.5853820000002088,0,0,0.5,143.0854503999999,None,None,143.0854503999999,None,[1.5853820000002088],,,,,,,,,,,,,,,,,,,CBC_1003,001,4,3,0,2,0.8,2023-06-14_14h56.33.053,MSI_AV_v3,2022.1.1,59.94909123168829,
6,0,6,0,,,,,,,,,,3,1.0,3.0,z,27.0,1.0,2.372527466,1.915207301,None,145.0963152999998,None,147.03500659999963,None,147.03500659999963,None,147.0462559200001,None,None,147.03500659999963,None,['b'],[0.6122761999999966],149.0127448999997,None,b,2.6122761999999966,0,0,0.42857142857142855,151.38263459999962,None,None,151.38263459999962,None,,,,,,,,,,,,,,,,,,,,CBC_1003,001,4,3,0,2,0.8,2023-06-14_14h56.33.053,MSI_AV_v3,2022.1.1,59.94909123168829,
7,0,7,0,,,,,,,,,,0,1.0,0.0,z,63.0,0.0,1.109698721,2.648704933,None,153.3962677999998,None,156.06803839999975,None,156.06803839999975,None,156.07961011999996,None,['z'],156.06803839999975,None,None,,158.0641615999998,None,z,1.7103885000001355,1,0,0.5,159.1857025999998,None,None,159.1857025999998,None,[1.7103885000001355],,,,,,,,,,,,,,,,,,,CBC_1003,001,4,3,0,2,0.8,2023-06-14_14h56.33.053,MSI_AV_v3,2022.1.1,59.94909123168829,
8,0,8,0,,,,,,,,,,1,2.0,0.0,b,27.0,1.0,2.278602942,1.142638656,None,161.19626629999993,None,162.3517579999998,None,162.3517579999998,None,162.36289431999975,None,None,162.3517579999998,None,['z'],[1.0862756999999874],164.32980959999986,None,z,3.0862756999999874,0,0,0.4444444444444444,166.5881872,None,None,166.5881872,None,,,,,,,,,,,,,,,,,,,,CBC_1003,001,4,3,0,2,0.8,2023-06-14_14h56.33.053,MSI_AV_v3,2022.1.1,59.94909123168829,
9,0,9,0,,,,,,,,,,3,2.0,3.0,z,63.0,1.0,2.818459073,0.977134615,None,168.5963001,None,169.5840263,None,169.5840263,None,169.59632261999977,None,['b'],169.5840263,None,None,,171.5796145999998,None,b,1.235711000000265,0,0,0.4,174.40267129999984,None,None,174.40267129999984,None,[1.235711000000265],,,,,,,,,,,,,,,,,,,CBC_1003,001,4,3,0,2,0.8,2023-06-14_14h56.33.053,MSI_AV_v3,2022.1.1,59.94909123168829,
10,0,10,0,,,,,,,,,,2,1.0,0.0,b,63.0,0.0,2.518459073,1.313600181,None,176.41283989999965,None,177.7525671999997,None,177.7525671999997,None,177.76293921999977,None,None,177.7525671999997,None,['b'],[0.07027520000019649],179.7297226999999,None,b,2.0702752000001965,1,0,0.45454545454545453,182.23260289999962,None,None,182.23260289999962,None,,,,,,,,,,,,,,,,,,,,CBC_1003,001,4,3,0,2,0.8,2023-06-14_14h56.33.053,MSI_AV_v3,2022.1.1,59.94909123168829,
11,0,11,0,,,,,,,,,,0,0.0,1.0,b,63.0,1.0,3.884449499,1.448890429,None,184.24629749999986,None,185.71565089999967,None,185.71565089999967,None,185.7128976399999,None,None,185.71565089999967,None,['z'],[1.8623602000002393],187.69637049999983,None,z,3.8623602000002393,0,0,0.4166666666666667,191.56787469999972,None,None,191.56787469999972,None,,,,,,,,,,,,,,,,,,,,CBC_1003,001,4,3,0,2,0.8,2023-06-14_14h56.33.053,MSI_AV_v3,2022.1.1,59.94909123168829,
12,0,12,0,,,,,,,,,,3,2.0,3.0,z,63.0,1.0,2.242058058,1.883772966,None,193.5797447,None,195.48545809999996,None,195.48545809999996,None,195.49625141999977,None,None,195.48545809999996,None,['z'],[0.6591439000003447],197.46290819999967,None,z,2.6591439000003447,1,1,0.46153846153846156,199.69214469999997,None,None,199.69214469999997,None,,,,,,,,,,,,,,,,,,,,CBC_1003,001,4,3,0,2,0.8,2023-06-14_14h56.33.053,MSI_AV_v3,2022.1.1,59.94909123168829,
13,0,13,0,,,,,,,,,,1,2.0,0.0,b,27.0,0.0,1.610581685,1.732943574,None,201.6962728999997,None,203.4502321,None,203.4502321,None,203.46298502,None,None,203.4502321,None,None,,205.4294215,None,[],[],0,3,0.42857142857142855,207.03413079999973,None,['b'],207.03413079999973,None,,[1.3278067000001101],,,,,,,,,,,,,,,,,,CBC_1003,001,4,3,0,2,0.8,2023-06-14_14h56.33.053,MSI_AV_v3,2022.1.1,59.94909123168829,
14,0,14,0,,,,,,,,,,0,0.0,1.0,b,63.0,1.0,3.622505815,2.502774076,None,209.02950280000005,None,211.5495732999998,None,211.5495732999998,None,211.54636114000002,None,"['z', 'b']",211.5495732999998,None,None,,213.54650619999984,None,z,0.7825772999999572,0,0,0.4,217.16908399999966,None,None,217.16908399999966,None,"[0.7825772999999572, 1.8744267000001855]",,,,,,,,,,,,,,,,,,,CBC_1003,001,4,3,0,2,0.8,2023-06-14_14h56.33.053,MSI_AV_v3,2022.1.1,59.94909123168829,
15,0,15,0,,,,,,,,,,2,1.0,3.0,b,27.0,1.0,2.078483356,2.495793893,None,219.17969259999973,None,221.69191769999998,None,221.69191769999998,None,221.69635531999992,None,None,221.69191769999998,None,['b'],[0.046302100000048085],223.6630401999996,None,b,2.046302100000048,1,1,0.4375,225.72548959999995,None,None,225.72548959999995,None,,,,,,,,,,,,,,,,,,,,CBC_1003,001,4,3,0,2,0.8,2023-06-14_14h56.33.053,MSI_AV_v3,2022.1.1,59.94909123168829,
16,0,16,0,,,,,,,,,,1,3.0,2.0,z,63.0,1.0,3.278108735,2.935368129,None,227.73020259999976,None,230.68400249999968,None,230.68400249999968,None,230.6799306399998,None,None,230.68400249999968,None,['b'],[0.8754444999999578],232.6695990999997,None,b,2.8754444999999578,0,0,0.4117647058823529,235.92449249999981,None,None,235.92449249999981,None,,,,,,,,,,,,,,,,,,,,CBC_1003,001,4,3,0,2,0.8,2023-06-14_14h56.33.053,MSI_AV_v3,2022.1.1,59.94909123168829,
17,0,17,0,,,,,,,,,,3,2.0,3.0,z,63.0,0.0,3.044827724,1.08099246,None,237.92970679999962,None,239.0327453,None,239.0327453,None,239.02958343999987,None,None,239.0327453,None,['z'],[0.1288430999998127],241.01308359999985,None,z,2.1288430999998127,1,0,0.4444444444444444,244.05229669999972,None,None,244.05229669999972,None,,,,,,,,,,,,,,,,,,,,CBC_1003,001,4,3,0,2,0.8,2023-06-14_14h56.33.053,MSI_AV_v3,2022.1.1,59.94909123168829,
18,0,18,0,,,,,,,,,,2,1.0,0.0,b,63.0,1.0,1.6718976049999998,2.071213329,None,246.06309109999984,None,248.15819650000003,None,248.15819650000003,None,248.16300151999994,None,None,248.15819650000003,None,['z'],[1.0650195000002896],250.12974729999996,None,z,3.0650195000002896,0,0,0.42105263157894735,251.79546219999975,None,None,251.79546219999975,None,,,,,,,,,,,,,,,,,,,,CBC_1003,001,4,3,0,2,0.8,2023-06-14_14h56.33.053,MSI_AV_v3,2022.1.1,59.94909123168829,
19,0,19,0,,,,,,,,,,0,2.0,0.0,z,27.0,1.0,3.501824497,3.388090306,None,253.79643910000004,None,257.20061899999973,None,257.20061899999973,None,257.19698504,None,None,257.20061899999973,None,['z'],[0.3410295000003316],259.1796215999998,None,z,2.3410295000003316,1,1,0.45,262.67276909999964,None,None,262.67276909999964,None,,,,,,,,,,,,,,,,,,,,CBC_1003,001,4,3,0,2,0.8,2023-06-14_14h56.33.053,MSI_AV_v3,2022.1.1,59.94909123168829,
20,0,20,0,,,,,,,,,,3,0.0,3.0,z,9.0,1.0,3.869831913,2.232990834,None,264.67983019999974,None,266.9333284999998,None,266.9333284999998,None,266.9298075400001,None,None,266.9333284999998,None,['z'],[1.2357020999997985],268.9130519,None,z,3.2357020999997985,1,1,0.47619047619047616,272.7784975999998,None,None,272.7784975999998,None,,,,,,,,,,,,,,,,,,,,CBC_1003,001,4,3,0,2,0.8,2023-06-14_14h56.33.053,MSI_AV_v3,2022.1.1,59.94909123168829,
21,0,21,0,,,,,,,,,,1,2.0,3.0,b,63.0,1.0,3.589438522,3.274187802,None,274.7795417999996,None,278.06468529999984,None,278.06468529999984,None,278.06297584,None,None,278.06468529999984,None,['z'],[1.2657719000003453],280.0464453999998,None,z,3.2657719000003453,0,0,0.45454545454545453,283.62304270000004,None,None,283.62304270000004,None,,,,,,,,,,,,,,,,,,,,CBC_1003,001,4,3,0,2,0.8,2023-06-14_14h56.33.053,MSI_AV_v3,2022.1.1,59.94909123168829,
22,0,22,0,,,,,,,,,,2,3.0,1.0,z,27.0,1.0,2.232488062,1.75396268,None,285.6298348,None,287.4019739999999,None,287.4019739999999,None,287.41343311999987,None,['b'],287.4019739999999,None,None,,289.39531149999993,None,b,1.530639400000382,0,0,0.43478260869565216,291.63586719999967,None,None,291.63586719999967,None,[1.530639400000382],,,,,,,,,,,,,,,,,,,CBC_1003,001,4,3,0,2,0.8,2023-06-14_14h56.33.053,MSI_AV_v3,2022.1.1,59.94909123168829,
23,0,23,0,,,,,,,,,,1,3.0,2.0,z,63.0,1.0,2.67601813,2.757001452,None,293.6463976,None,296.4184309999996,None,296.4184309999996,None,296.42978692,None,None,296.4184309999996,None,['b'],[1.251916500000334],298.3966220999996,None,b,3.251916500000334,0,0,0.4166666666666667,301.05879779999987,None,None,301.05879779999987,None,,,,,,,,,,,,,,,,,,,,CBC_1003,001,4,3,0,2,0.8,2023-06-14_14h56.33.053,MSI_AV_v3,2022.1.1,59.94909123168829,
24,0,24,0,,,,,,,,,,3,2.0,3.0,z,63.0,1.0,3.478547126,2.128027194,None,303.0631920999999,None,305.20138899999984,None,305.20138899999984,None,305.21376642,None,['z'],305.20138899999984,None,None,,307.1970188,None,z,1.8431836999998268,1,1,0.44,310.68558399999984,None,None,310.68558399999984,None,[1.8431836999998268],,,,,,,,,,,,,,,,,,,CBC_1003,001,4,3,0,2,0.8,2023-06-14_14h56.33.053,MSI_AV_v3,2022.1.1,59.94909123168829,
25,0,25,0,,,,,,,,,,2,1.0,0.0,b,63.0,1.0,4.268032915,2.349749758,None,312.70357369999965,None,315.04704909999964,None,315.04704909999964,None,315.04582505999974,None,None,315.04704909999964,None,['z'],[2.2411863000002086],317.0298531999997,None,z,4.241186300000209,0,0,0.4230769230769231,321.2872629999997,None,None,321.2872629999997,None,,,,,,,,,,,,,,,,,,,,CBC_1003,001,4,3,0,2,0.8,2023-06-14_14h56.33.053,MSI_AV_v3,2022.1.1,59.94909123168829,
26,0,26,0,,,,,,,,,,0,0.0,3.0,b,9.0,1.0,1.556335756,1.554037824,None,323.308446,None,324.86715879999974,None,324.86715879999974,None,324.86310543999974,None,None,324.86715879999974,None,None,,326.8462929999996,None,[],[],0,3,0.4074074074074074,328.3842958,None,['b'],328.3842958,None,,[0.7691604000001462],,,,,,,,,,,,,,,,,,CBC_1003,001,4,3,0,2,0.8,2023-06-14_14h56.33.053,MSI_AV_v3,2022.1.1,59.94909123168829,
27,0,27,0,,,,,,,,,,3,2.0,3.0,z,63.0,0.0,2.117809983,2.962224669,None,330.39649089999966,None,333.3678576999996,None,333.3678576999996,None,333.36356003999975,None,"['z', 'b']",333.3678576999996,None,None,,335.3483884999996,None,z,1.0633914000004552,1,0,0.42857142857142855,337.4685621999997,None,None,337.4685621999997,None,"[1.0633914000004552, 1.8717297000002873]",,,,,,,,,,,,,,,,,,,CBC_1003,001,4,3,0,2,0.8,2023-06-14_14h56.33.053,MSI_AV_v3,2022.1.1,59.94909123168829,
28,0,28,0,,,,,,,,,,1,2.0,0.0,b,27.0,1.0,1.899747326,1.84422311,None,339.4797983999997,None,341.3349555,None,341.3349555,None,341.3466067199998,None,None,341.3349555,None,['b'],[0.9229654000000664],343.31264599999986,None,b,2.9229654000000664,1,1,0.4482758620689655,345.1895632999999,None,None,345.1895632999999,None,,,,,,,,,,,,,,,,,,,,CBC_1003,001,4,3,0,2,0.8,2023-06-14_14h56.33.053,MSI_AV_v3,2022.1.1,59.94909123168829,
29,0,29,0,,,,,,,,,,0,1.0,0.0,z,63.0,0.0,1.543156518,0.971483559,None,347.1964877999999,None,348.18523909999976,None,348.18523909999976,None,348.19653762000013,None,None,348.18523909999976,None,None,,350.1631126999996,None,[],[],0,3,0.43333333333333335,351.68528739999965,None,['b'],351.68528739999965,None,,[0.690349999999853],,,,,,,,,,,,,,,,,,CBC_1003,001,4,3,0,2,0.8,2023-06-14_14h56.33.053,MSI_AV_v3,2022.1.1,59.94909123168829,
30,0,30,0,,,,,,,,,,2,1.0,0.0,b,63.0,1.0,4.176609572,2.234398566,None,353.6964785,None,355.9296863999998,None,355.9296863999998,None,355.92888665999976,None,None,355.9296863999998,None,['b'],[0.015722099999948114],357.9131431999999,None,b,2.015722099999948,1,1,0.45161290322580644,362.0797413999999,None,None,362.0797413999999,None,,,,,,,,,,,,,,,,,,,,CBC_1003,001,4,3,0,2,0.8,2023-06-14_14h56.33.053,MSI_AV_v3,2022.1.1,59.94909123168829,
31,0,31,0,,,,,,,,,,3,3.0,1.0,b,27.0,1.0,1.758742576,0.789129603,None,364.0799823999996,None,364.88425469999993,None,364.88425469999993,None,364.8799983399999,None,['b'],364.88425469999993,None,None,,366.8796312999998,None,b,1.6059392000001935,1,1,0.46875,368.6294549999998,None,None,368.6294549999998,None,[1.6059392000001935],,,,,,,,,,,,,,,,,,,CBC_1003,001,4,3,0,2,0.8,2023-06-14_14h56.33.053,MSI_AV_v3,2022.1.1,59.94909123168829,
32,0,32,0,,,,,,,,,,1,3.0,2.0,z,63.0,1.0,4.196249082,2.210349838,None,370.6298704999999,None,372.8501521999997,None,372.8501521999997,None,372.8465247399999,None,None,372.8501521999997,None,['b'],[1.0656763000001774],374.82990299999983,None,b,3.0656763000001774,0,0,0.45454545454545453,379.0211583999999,None,None,379.0211583999999,None,,,,,,,,,,,,,,,,,,,,CBC_1003,001,4,3,0,2,0.8,2023-06-14_14h56.33.053,MSI_AV_v3,2022.1.1,59.94909123168829,
33,0,33,0,,,,,,,,,,2,1.0,0.0,b,63.0,0.0,1.3262934849999999,1.293060736,None,381.0300957999998,None,382.3342189,None,382.3342189,None,382.34662141999985,None,['z'],382.3342189,None,None,,384.31643659999963,None,z,1.3399365000000216,0,1,0.4411764705882353,385.6374232999997,None,None,385.6374232999997,None,[1.3399365000000216],,,,,,,,,,,,,,,,,,,CBC_1003,001,4,3,0,2,0.8,2023-06-14_14h56.33.053,MSI_AV_v3,2022.1.1,59.94909123168829,
34,0,34,0,,,,,,,,,,0,0.0,1.0,b,63.0,1.0,2.0845750460000003,1.483424551,None,387.64659059999985,None,389.1337005999999,None,389.1337005999999,None,389.14578174,None,None,389.1337005999999,None,['b'],[1.1695009000000027],391.1131972999997,None,b,3.1695009000000027,1,1,0.45714285714285713,393.1869597,None,None,393.1869597,None,,,,,,,,,,,,,,,,,,,,CBC_1003,001,4,3,0,2,0.8,2023-06-14_14h56.33.053,MSI_AV_v3,2022.1.1,59.94909123168829,
35,0,35,0,,,,,,,,,,1,1.0,2.0,z,9.0,1.0,2.917714675,3.276660373,None,395.19654279999986,None,398.48354689999996,None,398.48354689999996,None,398.4801002399999,None,['b'],398.48354689999996,None,None,,400.48788620000005,None,b,1.8543527000001632,0,0,0.4444444444444444,403.4022157999998,None,None,403.4022157999998,None,[1.8543527000001632],,,,,,,,,,,,,,,,,,,CBC_1003,001,4,3,0,2,0.8,2023-06-14_14h56.33.053,MSI_AV_v3,2022.1.1,59.94909123168829,
36,0,36,0,,,,,,,,,,0,1.0,0.0,z,63.0,1.0,2.949122761,3.264468617,None,405.4133981,None,408.7001903999999,None,408.7001903999999,None,408.69666374,None,None,408.7001903999999,None,['z'],[0.5183445000002393],410.6800423999998,None,z,2.5183445000002393,1,1,0.4594594594594595,413.61155549999967,None,None,413.61155549999967,None,,,,,,,,,,,,,,,,,,,,CBC_1003,001,4,3,0,2,0.8,2023-06-14_14h56.33.053,MSI_AV_v3,2022.1.1,59.94909123168829,
37,0,37,0,,,,,,,,,,3,3.0,1.0,b,27.0,1.0,1.874984683,1.378098418,None,415.61334309999984,None,417.0188868,None,417.0188868,None,417.0308651199999,None,['z'],417.0188868,None,None,,419.01558469999964,None,z,0.892384900000252,0,0,0.4473684210526316,420.9021462999999,None,None,420.9021462999999,None,[0.892384900000252],,,,,,,,,,,,,,,,,,,CBC_1003,001,4,3,0,2,0.8,2023-06-14_14h56.33.053,MSI_AV_v3,2022.1.1,59.94909123168829,
38,0,38,0,,,,,,,,,,2,0.0,1.0,z,63.0,1.0,1.595506577,3.321420384,None,422.9134104,None,426.2488295999997,None,426.2488295999997,None,426.24680914000004,None,None,426.2488295999997,None,['b'],[0.2940153000004102],428.2299386999998,None,b,2.29401530000041,0,0,0.4358974358974359,429.81049319999966,None,None,429.81049319999966,None,,,,,,,,,,,,,,,,,,,,CBC_1003,001,4,3,0,2,0.8,2023-06-14_14h56.33.053,MSI_AV_v3,2022.1.1,59.94909123168829,
39,0,39,0,,,,,,,,,,1,2.0,3.0,b,63.0,0.0,2.742099981,1.411911144,None,431.8133792999997,None,433.2484836999997,None,433.2484836999997,None,433.24674894000003,None,['b'],433.2484836999997,None,['z'],[0.18082540000023073],435.23199939999995,None,b,1.3535592000002907,1,0,0.45,437.97941479999963,None,None,437.97941479999963,None,[1.3535592000002907],,,,,,,,,,,,,,,,,,,CBC_1003,001,4,3,0,2,0.8,2023-06-14_14h56.33.053,MSI_AV_v3,2022.1.1,59.94909123168829,
40,0,40,0,,,,,,,,,,0,2.0,0.0,z,27.0,1.0,3.956662465,2.573610938,None,439.97999779999964,None,442.5671517999999,None,442.5671517999999,None,442.5634078399998,None,['z'],442.5671517999999,None,None,,444.56297399999994,None,z,1.2336989000000358,1,1,0.4634146341463415,448.52121929999976,None,None,448.52121929999976,None,[1.2336989000000358],,,,,,,,,,,,,,,,,,,CBC_1003,001,4,3,0,2,0.8,2023-06-14_14h56.33.053,MSI_AV_v3,2022.1.1,59.94909123168829,
41,0,41,0,,,,,,,,,,3,3.0,2.0,b,63.0,1.0,2.397501916,1.24796184,None,450.52993119999974,None,451.78214339999977,None,451.78214339999977,None,451.77994334,None,None,451.78214339999977,None,None,,453.763273,None,[],[],0,3,0.4523809523809524,456.15225539999983,None,None,456.15225539999983,None,,,,,,,,,,,,,,,,,,,,CBC_1003,001,4,3,0,2,0.8,2023-06-14_14h56.33.053,MSI_AV_v3,2022.1.1,59.94909123168829,
42,0,42,0,,,,,,,,,,2,3.0,1.0,z,27.0,1.0,4.309752164,2.297139377,None,458.1630694999999,None,460.46801159999995,None,460.46801159999995,None,460.48016411999976,None,['z'],460.46801159999995,None,None,,462.4676373999996,None,z,0.5991048999999293,1,1,0.46511627906976744,466.7839428999996,None,None,466.7839428999996,None,[0.5991048999999293],,,,,,,,,,,,,,,,,,,CBC_1003,001,4,3,0,2,0.8,2023-06-14_14h56.33.053,MSI_AV_v3,2022.1.1,59.94909123168829,
43,0,43,0,,,,,,,,,,1,2.0,3.0,b,63.0,1.0,1.219965572,1.086048241,None,468.79667119999976,None,469.90200319999985,None,469.90200319999985,None,469.91338921999983,None,None,469.90200319999985,None,['z'],[0.5320955000001959],471.8801140999999,None,z,2.532095500000196,0,0,0.45454545454545453,473.0855311,None,None,473.0855311,None,,,,,,,,,,,,,,,,,,,,CBC_1003,001,4,3,0,2,0.8,2023-06-14_14h56.33.053,MSI_AV_v3,2022.1.1,59.94909123168829,
,,,,,,,,,,,,,,,,,,,,,,,,,,,,,,,,,,,,,,,,,,,,,,,,,None,475.09691939999993,None,,,,,,,,,,,,,,,CBC_1003,001,4,3,0,2,0.8,2023-06-14_14h56.33.053,MSI_AV_v3,2022.1.1,59.94909123168829,
,,,,,,,,,,,,,,,,,,,,,,,,,,,,,,,,,,,,,,,,,,,,,,,,,,,,480.0969762999998,None,None,480.0969762999998,None,,,,,,,,,,CBC_1003,001,4,3,0,2,0.8,2023-06-14_14h56.33.053,MSI_AV_v3,2022.1.1,59.94909123168829,
,,,,,,,,,,,,,,,,,,,,,,,,,,,,,,,,,,,,,,,,,,,,,,,,,,,,,,,,,z,b,hard,"[0, 1, 2, 3]","[0, 2, 1, 3]",0.45454545454545453,0.45454545454545453,0.45454545454545453,0.45454545454545453,,,,,,,,,,,,
