trials_runs.thisRepN,trials_runs.thisTrialN,trials_runs.thisN,trials_runs.thisIndex,standbild_start.started,standbild_start.stopped,trigger.keys,trigger.rt,trigger.started,trigger.stopped,keys_2.keys,keys_2.started,keys_2.stopped,trials_runs.auditory_stim,trials_runs.visual_stim_left,trials_runs.visual_stim_right,trials_runs.correctKey,trials_runs.presentationFrequncy,trials_runs.FBaccuracy,trials_runs.ISI_s,trials_runs.ITI_s,keys_3.keys,keys_3.started,keys_3.stopped,ImageLeft_4.started,ImageLeft_4.stopped,ImageRight_4.started,ImageRight_4.stopped,sound_4.started,sound_4.stopped,response_4.keys,response_4.rt,response_4.started,response_4.stopped,response_5.keys,response_5.started,response_5.stopped,response_runs.keys,response_runs.rt,trials_runs.correct_answer,trials_runs.feedback_given,trials_runs.running_mean,feedback_6.started,feedback_6.stopped,keys_6.keys,keys_6.started,keys_6.stopped,response_5.rt,keys_7.keys,keys_7.started,keys_7.stopped,standbild_end.started,standbild_end.stopped,Stop_exp.keys,Stop_exp.started,Stop_exp.stopped,trials_runs.rightKey,trials_runs.leftKey,ts_difficulty,visualPair,audioPair,trials_runs.mean_acc_1stFourth,trials_runs.mean_acc_2ndFourth,trials_runs.mean_acc_3rdFourth,trials_runs.mean_acc_4thFourth,nbCorrect,nbOmissions,nbIncorrect,participant,session,visual set [1-6],audio set [1-3 / 4-6],trial structure [0-3 / 4-7],pairing [0-23],prob Feedback,date,expName,psychopyVersion,frameRate,
,,,,36.79421530000036,None,t,70.42033289999927,36.79421530000036,None,,,,,,,,,,,,,,,,,,,,,,,,,,,,,,,,,,,,,,,,,,,,,,,,,,,,,,,,,,,CBC_1031,4,6,2,4,4,0.95,2023-10-20_12h20.15.905,MSI_AV_v3,2022.1.1,60.087523486655,
,,,,,,,,,,None,107.24044700000013,None,,,,,,,,,,,,,,,,,,,,,,,,,,,,,,,,,,,,,,,,,,,,,,,,,,,,,,,,CBC_1031,4,6,2,4,4,0.95,2023-10-20_12h20.15.905,MSI_AV_v3,2022.1.1,60.087523486655,
0,0,0,0,,,,,,,,,,0,1,0,z,63,1,2.693348633324513,1.25817747924478,None,107.44068800000059,None,108.79575889999978,None,108.79575889999978,None,108.80713660000129,None,['b'],[1.4523142999987613],108.79575889999978,None,None,110.71191519999957,None,b,1.4523142999987613,0,0,0.0,113.40774930000043,None,None,113.40774930000043,None,,,,,,,,,,,,,,,,,,,,,,CBC_1031,4,6,2,4,4,0.95,2023-10-20_12h20.15.905,MSI_AV_v3,2022.1.1,60.087523486655,
1,0,1,0,,,,,,,,,,1,3,2,z,63,1,2.517541937862754,1.78643585472448,None,115.20727240000087,None,117.04147250000096,None,117.04147250000096,None,117.04077020000022,None,['z'],[1.1379996999985451],117.04147250000096,None,None,119.00652330000048,None,z,1.1379996999985451,1,1,0.5,121.53256839999995,None,None,121.53256839999995,None,,,,,,,,,,,,,,,,,,,,,,CBC_1031,4,6,2,4,4,0.95,2023-10-20_12h20.15.905,MSI_AV_v3,2022.1.1,60.087523486655,
2,0,2,0,,,,,,,,,,0,0,2,b,27,1,2.496959177995529,3.4543169006169,None,123.34070109999993,None,126.80909729999985,None,126.80909729999985,None,126.80746890000137,None,None,,126.80909729999985,None,['b'],128.79063690000112,None,b,2.274131499998475,1,1,0.6666666666666666,131.2782341000002,None,None,131.2782341000002,None,[0.2741314999984752],,,,,,,,,,,,,,,,,,,,,CBC_1031,4,6,2,4,4,0.95,2023-10-20_12h20.15.905,MSI_AV_v3,2022.1.1,60.087523486655,
3,0,3,0,,,,,,,,,,3,1,0,b,63,1,2.6391747348430608,2.10421507306074,None,133.0905483000006,None,135.2198344999997,None,135.2198344999997,None,135.22375740000098,None,['b'],[1.5847015999988798],135.2198344999997,None,None,137.2091178999999,None,b,1.5847015999988798,1,1,0.75,139.86851969999952,None,None,139.86851969999952,None,,,,,,,,,,,,,,,,,,,,,,CBC_1031,4,6,2,4,4,0.95,2023-10-20_12h20.15.905,MSI_AV_v3,2022.1.1,60.087523486655,
4,0,4,0,,,,,,,,,,2,2,3,z,63,1,4.77034425507967,3.1424449555106,None,141.65763760000118,None,144.82295720000002,None,144.82295720000002,None,144.82431870000073,None,None,,144.82295720000002,None,['z'],146.7907052999999,None,z,2.1283200999987457,1,1,0.8,151.541158,None,None,151.541158,None,[0.12832009999874572],,,,,,,,,,,,,,,,,,,,,CBC_1031,4,6,2,4,4,0.95,2023-10-20_12h20.15.905,MSI_AV_v3,2022.1.1,60.087523486655,
5,0,5,0,,,,,,,,,,3,1,2,b,9,1,4.53337421950507,1.27538462653558,None,153.34074920000057,None,154.63016880000032,None,154.63016880000032,None,154.64077429999998,None,['b'],[1.4643081999984133],154.63016880000032,None,None,156.62190480000027,None,b,1.4643081999984133,1,1,0.8333333333333334,161.16505289999986,None,None,161.16505289999986,None,,,,,,,,,,,,,,,,,,,,,,CBC_1031,4,6,2,4,4,0.95,2023-10-20_12h20.15.905,MSI_AV_v3,2022.1.1,60.087523486655,
6,0,6,0,,,,,,,,,,2,1,3,z,27,1,2.592312596923728,3.40155979865722,None,162.97433380000075,None,166.39505579999968,None,166.39505579999968,None,166.39067700000032,None,['z'],[1.2382757999985188],166.39505579999968,None,None,168.3894102000013,None,z,1.2382757999985188,1,1,0.8571428571428571,170.98097919999964,None,None,170.98097919999964,None,,,,,,,,,,,,,,,,,,,,,,CBC_1031,4,6,2,4,4,0.95,2023-10-20_12h20.15.905,MSI_AV_v3,2022.1.1,60.087523486655,
7,0,7,0,,,,,,,,,,0,1,0,z,63,1,3.76873691643126,0.952147612306987,None,172.79093160000048,None,173.7667091000003,None,173.7667091000003,None,173.77427549999993,None,None,,173.7667091000003,None,['z'],175.74080970000068,None,z,3.22375159999865,1,1,0.875,179.4909117999996,None,None,179.4909117999996,None,[1.22375159999865],,,,,,,,,,,,,,,,,,,,,CBC_1031,4,6,2,4,4,0.95,2023-10-20_12h20.15.905,MSI_AV_v3,2022.1.1,60.087523486655,
8,0,8,0,,,,,,,,,,0,0,1,b,63,1,4.01714354611405,1.18065738546375,None,181.29070440000032,None,182.49368920000052,None,182.49368920000052,None,182.49072720000095,None,None,,182.49368920000052,None,['z'],184.474323800001,None,z,2.324484599997959,0,0,0.7777777777777778,188.47765040000013,None,None,188.47765040000013,None,[0.32448459999795887],,,,,,,,,,,,,,,,,,,,,CBC_1031,4,6,2,4,4,0.95,2023-10-20_12h20.15.905,MSI_AV_v3,2022.1.1,60.087523486655,
9,0,9,0,,,,,,,,,,1,2,0,b,27,1,3.02234236141277,1.43470440954152,None,190.29078760000084,None,191.74588100000074,None,191.74588100000074,None,191.75745260000076,None,['b'],[1.635724299998401],191.74588100000074,None,None,193.75090120000095,None,b,1.635724299998401,1,1,0.8,196.76541150000048,None,None,196.76541150000048,None,,,,,,,,,,,,,,,,,,,,,,CBC_1031,4,6,2,4,4,0.95,2023-10-20_12h20.15.905,MSI_AV_v3,2022.1.1,60.087523486655,
10,0,10,0,,,,,,,,,,3,0,1,z,63,1,4.52047235037039,2.78346932462847,None,198.57456850000017,None,201.37857020000047,None,201.37857020000047,None,201.39079830000082,None,None,,201.37857020000047,None,['b'],203.35759440000038,None,b,2.6520274999984395,0,0,0.7272727272727273,207.8600892000013,None,None,207.8600892000013,None,[0.6520274999984395],,,,,,,,,,,,,,,,,,,,,CBC_1031,4,6,2,4,4,0.95,2023-10-20_12h20.15.905,MSI_AV_v3,2022.1.1,60.087523486655,
11,0,11,0,,,,,,,,,,0,0,1,b,63,1,2.342239579230602,1.36309078069689,None,209.67441320000034,None,211.06173669999953,None,211.06173669999953,None,211.07395760000145,None,None,,211.06173669999953,None,['z'],213.0405955999995,None,z,3.4339050999988103,0,0,0.6666666666666666,215.37433750000127,None,None,215.37433750000127,None,[1.4339050999988103],,,,,,,,,,,,,,,,,,,,,CBC_1031,4,6,2,4,4,0.95,2023-10-20_12h20.15.905,MSI_AV_v3,2022.1.1,60.087523486655,
12,0,12,0,,,,,,,,,,1,3,2,z,63,1,2.666404967794728,1.25920145784721,None,217.17465100000118,None,218.44725610000023,None,218.44725610000023,None,218.4578720999998,None,None,,218.44725610000023,None,['b'],220.42447999999968,None,b,2.5456264999993437,0,0,0.6153846153846154,223.07208250000076,None,None,223.07208250000076,None,[0.5456264999993437],,,,,,,,,,,,,,,,,,,,,CBC_1031,4,6,2,4,4,0.95,2023-10-20_12h20.15.905,MSI_AV_v3,2022.1.1,60.087523486655,
13,0,13,0,,,,,,,,,,0,0,2,b,27,1,2.91303524001082,0.761758675042088,None,224.8743355000006,None,225.6467131999998,None,225.6467131999998,None,225.6576978000012,None,None,,225.6467131999998,None,['z'],227.62456220000058,None,z,2.4067406999984087,0,0,0.5714285714285714,230.5259076000002,None,None,230.5259076000002,None,[0.4067406999984087],,,,,,,,,,,,,,,,,,,,,CBC_1031,4,6,2,4,4,0.95,2023-10-20_12h20.15.905,MSI_AV_v3,2022.1.1,60.087523486655,
14,0,14,0,,,,,,,,,,3,1,0,b,63,1,4.46924002178158,1.90743690794447,None,232.34104110000044,None,234.26023270000042,None,234.26023270000042,None,234.25736810000035,None,['b'],[1.6057346999987203],234.26023270000042,None,None,236.26021310000033,None,b,1.6057346999987203,1,1,0.6,240.73193770000034,None,None,240.73193770000034,None,,,,,,,,,,,,,,,,,,,,,,CBC_1031,4,6,2,4,4,0.95,2023-10-20_12h20.15.905,MSI_AV_v3,2022.1.1,60.087523486655,
15,0,15,0,,,,,,,,,,3,0,1,z,63,1,2.294664843639333,3.06992456303453,None,242.54125290000047,None,245.63082680000116,None,245.63082680000116,None,245.6413248000008,None,['z'],[1.6089204999989306],245.63082680000116,None,None,247.62322070000118,None,z,1.6089204999989306,1,1,0.625,249.9158595000008,None,None,249.9158595000008,None,,,,,,,,,,,,,,,,,,,,,,CBC_1031,4,6,2,4,4,0.95,2023-10-20_12h20.15.905,MSI_AV_v3,2022.1.1,60.087523486655,
16,0,16,0,,,,,,,,,,1,3,2,z,63,1,3.68371079902891,1.60731937853708,None,251.72481979999975,None,253.3449868000007,None,253.3449868000007,None,253.3411266000012,None,None,,253.3449868000007,None,['z'],255.3245880000013,None,z,3.4069387999988976,1,1,0.6470588235294118,259.00032120000105,None,None,259.00032120000105,None,[1.4069387999988976],,,,,,,,,,,,,,,,,,,,,CBC_1031,4,6,2,4,4,0.95,2023-10-20_12h20.15.905,MSI_AV_v3,2022.1.1,60.087523486655,
17,0,17,0,,,,,,,,,,2,3,1,b,27,1,4.7533305109883095,2.22427187882546,None,260.8081671,None,263.0426793000006,None,263.0426793000006,None,263.0409641000015,None,['b'],[1.870651799998086],263.0426793000006,None,None,265.04297790000055,None,b,1.870651799998086,1,1,0.6666666666666666,269.79782840000007,None,None,269.79782840000007,None,,,,,,,,,,,,,,,,,,,,,,CBC_1031,4,6,2,4,4,0.95,2023-10-20_12h20.15.905,MSI_AV_v3,2022.1.1,60.087523486655,
18,0,18,0,,,,,,,,,,1,1,2,z,9,1,2.526044641065533,0.917519910446003,None,271.60766590000094,None,272.54412220000086,None,272.54412220000086,None,272.5413070000004,None,['z'],[1.0560267999990174],272.54412220000086,None,None,274.5422982,None,z,1.0560267999990174,1,1,0.6842105263157895,277.08070810000027,None,None,277.08070810000027,None,,,,,,,,,,,,,,,,,,,,,,CBC_1031,4,6,2,4,4,0.95,2023-10-20_12h20.15.905,MSI_AV_v3,2022.1.1,60.087523486655,
19,0,19,0,,,,,,,,,,3,3,1,z,27,1,3.2062024266105302,1.21250262048173,None,278.8914323000008,None,280.1112045000009,None,280.1112045000009,None,280.107567,None,None,,280.1112045000009,None,['z'],282.0909588000013,None,z,4.788910399998713,1,1,0.7,285.28920260000086,None,None,285.28920260000086,None,[2.788910399998713],,,,,,,,,,,,,,,,,,,,,CBC_1031,4,6,2,4,4,0.95,2023-10-20_12h20.15.905,MSI_AV_v3,2022.1.1,60.087523486655,
20,0,20,0,,,,,,,,,,2,3,2,b,63,1,3.3728785608729996,1.53243550275999,None,287.0911842000005,None,288.64797929999986,None,288.64797929999986,None,288.6581029000008,None,['b'],[1.549278199998298],288.64797929999986,None,None,290.64171929999975,None,b,1.549278199998298,1,1,0.7142857142857143,294.01367050000044,None,None,294.01367050000044,None,,,,,,,,,,,,,,,,,,,,,,CBC_1031,4,6,2,4,4,0.95,2023-10-20_12h20.15.905,MSI_AV_v3,2022.1.1,60.087523486655,
21,0,21,0,,,,,,,,,,3,1,0,b,63,0,3.71372710086949,2.09887870490381,None,295.8248056000011,None,297.9435153000013,None,297.9435153000013,None,297.9414142000014,None,['z'],[1.7723042999987229],297.9435153000013,None,None,299.93850460000067,None,z,1.7723042999987229,0,1,0.6818181818181818,303.6472023999995,None,None,303.6472023999995,None,,,,,,,,,,,,,,,,,,,,,,CBC_1031,4,6,2,4,4,0.95,2023-10-20_12h20.15.905,MSI_AV_v3,2022.1.1,60.087523486655,
22,0,22,0,,,,,,,,,,0,3,0,z,9,1,2.2759877950103027,1.38289892513751,None,305.4577011000001,None,306.8630193000008,None,306.8630193000008,None,306.87477580000086,None,None,,306.8630193000008,None,['b'],308.8415765000009,None,b,2.634854299998551,0,0,0.6521739130434783,311.1018991000001,None,None,311.1018991000001,None,[0.6348542999985511],,,,,,,,,,,,,,,,,,,,,CBC_1031,4,6,2,4,4,0.95,2023-10-20_12h20.15.905,MSI_AV_v3,2022.1.1,60.087523486655,
23,0,23,0,,,,,,,,,,2,2,3,z,63,1,3.26539063535182,1.95130344756745,None,312.90811120000035,None,314.87953410000046,None,314.87953410000046,None,314.8750141999999,None,['z'],[1.2965054999986023],314.87953410000046,None,None,316.87327110000115,None,z,1.2965054999986023,1,1,0.6666666666666666,320.14889910000056,None,None,320.14889910000056,None,,,,,,,,,,,,,,,,,,,,,,CBC_1031,4,6,2,4,4,0.95,2023-10-20_12h20.15.905,MSI_AV_v3,2022.1.1,60.087523486655,
24,0,24,0,,,,,,,,,,3,1,3,b,27,1,4.77723667052879,3.33124983260532,None,321.95824320000065,None,325.31215619999966,None,325.31215619999966,None,325.30815710000115,None,['z'],[1.300604399999429],325.31215619999966,None,None,327.3084761000009,None,z,1.300604399999429,0,0,0.64,332.0973704000007,None,None,332.0973704000007,None,,,,,,,,,,,,,,,,,,,,,,CBC_1031,4,6,2,4,4,0.95,2023-10-20_12h20.15.905,MSI_AV_v3,2022.1.1,60.087523486655,
25,0,25,0,,,,,,,,,,1,2,3,b,63,1,2.92731383428727,1.64421109900286,None,333.9084657000003,None,335.56043339999997,None,335.56043339999997,None,335.5582462000011,None,['b'],[1.9404589999976452],335.56043339999997,None,None,337.56121669999993,None,b,1.9404589999976452,1,1,0.6538461538461539,340.4982479999999,None,None,340.4982479999999,None,,,,,,,,,,,,,,,,,,,,,,CBC_1031,4,6,2,4,4,0.95,2023-10-20_12h20.15.905,MSI_AV_v3,2022.1.1,60.087523486655,
26,0,26,0,,,,,,,,,,1,2,0,b,27,1,4.40017271499661,1.96568735158996,None,342.30818309999995,None,344.2948462000004,None,344.2948462000004,None,344.2913004000011,None,None,,344.2948462000004,None,['b'],346.2747376999996,None,b,2.2259261999988667,1,1,0.6666666666666666,350.66740670000036,None,None,350.66740670000036,None,[0.22592619999886665],,,,,,,,,,,,,,,,,,,,,CBC_1031,4,6,2,4,4,0.95,2023-10-20_12h20.15.905,MSI_AV_v3,2022.1.1,60.087523486655,
27,0,27,0,,,,,,,,,,3,0,1,z,63,1,2.82320408183943,0.80788063606262,None,352.47500000000036,None,353.29688780000106,None,353.29688780000106,None,353.3080065000013,None,None,,353.29688780000106,None,['b'],355.27492060000077,None,b,2.6324678999990283,0,0,0.6428571428571429,358.0951060999996,None,None,358.0951060999996,None,[0.6324678999990283],,,,,,,,,,,,,,,,,,,,,CBC_1031,4,6,2,4,4,0.95,2023-10-20_12h20.15.905,MSI_AV_v3,2022.1.1,60.087523486655,
28,0,28,0,,,,,,,,,,1,2,3,b,63,1,3.7500315165247198,3.1963008326951,None,359.9085646000003,None,363.13033879999966,None,363.13033879999966,None,363.14135030000034,None,None,,363.13033879999966,None,['z'],365.10818130000007,None,z,2.2026360999989265,0,0,0.6206896551724138,368.8491604999999,None,None,368.8491604999999,None,[0.2026360999989265],,,,,,,,,,,,,,,,,,,,,CBC_1031,4,6,2,4,4,0.95,2023-10-20_12h20.15.905,MSI_AV_v3,2022.1.1,60.087523486655,
29,0,29,0,,,,,,,,,,0,1,0,z,63,1,2.7134565917469198,1.94858485820231,None,370.6586208000008,None,372.62877579999986,None,372.62877579999986,None,372.625254900001,None,None,,372.62877579999986,None,['z'],374.6082243000001,None,z,2.0975180999994336,1,1,0.6333333333333333,377.3035166000009,None,None,377.3035166000009,None,[0.09751809999943362],,,,,,,,,,,,,,,,,,,,,CBC_1031,4,6,2,4,4,0.95,2023-10-20_12h20.15.905,MSI_AV_v3,2022.1.1,60.087523486655,
30,0,30,0,,,,,,,,,,2,2,3,z,63,1,2.433630701072358,0.974903167432984,None,379.10823340000024,None,380.0974846000008,None,380.0974846000008,None,380.10815809999986,None,['z'],[1.045181199999206],380.0974846000008,None,None,382.09329570000045,None,z,1.045181199999206,1,1,0.6451612903225806,384.53110639999977,None,None,384.53110639999977,None,,,,,,,,,,,,,,,,,,,,,,CBC_1031,4,6,2,4,4,0.95,2023-10-20_12h20.15.905,MSI_AV_v3,2022.1.1,60.087523486655,
31,0,31,0,,,,,,,,,,1,2,3,b,63,1,3.35133458220192,1.12425433982333,None,386.34174689999963,None,387.48112840000067,None,387.48112840000067,None,387.491624100001,None,['z'],[1.1214963000002172],387.48112840000067,None,['b'],389.4747889999999,None,z,1.1214963000002172,0,0,0.625,392.83210959999997,None,None,392.83210959999997,None,[0.06828689999929338],,,,,,,,,,,,,,,,,,,,,CBC_1031,4,6,2,4,4,0.95,2023-10-20_12h20.15.905,MSI_AV_v3,2022.1.1,60.087523486655,
32,0,32,0,,,,,,,,,,2,3,1,b,27,1,3.31929419319838,3.24569326556923,None,394.6420278000005,None,397.897313200001,None,397.897313200001,None,397.90855550000015,None,['b'],[1.064406899999085],397.897313200001,None,None,399.8939736000011,None,b,1.064406899999085,1,1,0.6363636363636364,403.21494370000073,None,None,403.21494370000073,None,,,,,,,,,,,,,,,,,,,,,,CBC_1031,4,6,2,4,4,0.95,2023-10-20_12h20.15.905,MSI_AV_v3,2022.1.1,60.087523486655,
33,0,33,0,,,,,,,,,,1,0,2,z,27,1,4.82531807167306,2.96653053743745,None,405.02480490000016,None,408.01050140000007,None,408.01050140000007,None,408.00852209999994,None,None,,408.01050140000007,None,['z'],409.99219919999996,None,z,2.4319616999982827,1,1,0.6470588235294118,414.8159759000009,None,None,414.8159759000009,None,[0.4319616999982827],,,,,,,,,,,,,,,,,,,,,CBC_1031,4,6,2,4,4,0.95,2023-10-20_12h20.15.905,MSI_AV_v3,2022.1.1,60.087523486655,
34,0,34,0,,,,,,,,,,2,2,3,z,63,0,4.61004669244928,1.34668860557497,None,416.6252424000013,None,417.9946075000007,None,417.9946075000007,None,417.99194140000054,None,None,,417.9946075000007,None,['z'],419.97514969999975,None,z,3.200592699997287,1,0,0.6571428571428571,424.5789703999999,None,None,424.5789703999999,None,[1.2005926999972871],,,,,,,,,,,,,,,,,,,,,CBC_1031,4,6,2,4,4,0.95,2023-10-20_12h20.15.905,MSI_AV_v3,2022.1.1,60.087523486655,
35,0,35,0,,,,,,,,,,0,1,0,z,63,1,4.190022164497369,2.40378712856304,None,426.39218729999993,None,428.8117428000005,None,428.8117428000005,None,428.808680000001,None,['z'],[1.9160111999990477],428.8117428000005,None,None,430.812348200001,None,z,1.9160111999990477,1,1,0.6666666666666666,435.01452860000063,None,None,435.01452860000063,None,,,,,,,,,,,,,,,,,,,,,,CBC_1031,4,6,2,4,4,0.95,2023-10-20_12h20.15.905,MSI_AV_v3,2022.1.1,60.087523486655,
36,0,36,0,,,,,,,,,,1,2,3,b,63,1,4.72585056748869,1.1243895841892,None,436.82561970000097,None,437.96485180000127,None,437.96485180000127,None,437.975541400001,None,None,,437.96485180000127,None,['b'],439.9419822,None,b,2.5004372999992484,1,1,0.6756756756756757,444.64333500000066,None,None,444.64333500000066,None,[0.5004372999992484],,,,,,,,,,,,,,,,,,,,,CBC_1031,4,6,2,4,4,0.95,2023-10-20_12h20.15.905,MSI_AV_v3,2022.1.1,60.087523486655,
37,0,37,0,,,,,,,,,,0,0,2,b,27,1,2.678526077912375,2.6299100644723,None,446.45875669999987,None,449.1095968999998,None,449.1095968999998,None,449.10833600000024,None,None,,449.1095968999998,None,['b'],451.0919673999997,None,b,2.9111650999984704,1,1,0.6842105263157895,453.75397780000094,None,None,453.75397780000094,None,[0.9111650999984704],,,,,,,,,,,,,,,,,,,,,CBC_1031,4,6,2,4,4,0.95,2023-10-20_12h20.15.905,MSI_AV_v3,2022.1.1,60.087523486655,
38,0,38,0,,,,,,,,,,2,2,3,z,63,1,2.792365600763554,2.15533949826702,None,455.5586927000004,None,457.7132992000006,None,457.7132992000006,None,457.72461270000076,None,['z'],[1.5498469999984081],457.7132992000006,None,None,459.7110134000013,None,z,1.5498469999984081,1,1,0.6923076923076923,462.50780250000025,None,None,462.50780250000025,None,,,,,,,,,,,,,,,,,,,,,,CBC_1031,4,6,2,4,4,0.95,2023-10-20_12h20.15.905,MSI_AV_v3,2022.1.1,60.087523486655,
39,0,39,0,,,,,,,,,,2,3,2,b,63,1,2.629554641171433,0.979776149765883,None,464.3087993000008,None,465.2950082999996,None,465.2950082999996,None,465.3076673000005,None,"['z', 'b']","[1.035932499999035, 1.320914999998422]",465.2950082999996,None,None,467.2953765000002,None,z,1.035932499999035,0,0,0.675,469.932544700001,None,None,469.932544700001,None,,,,,,,,,,,,,,,,,,,,,,CBC_1031,4,6,2,4,4,0.95,2023-10-20_12h20.15.905,MSI_AV_v3,2022.1.1,60.087523486655,
40,0,40,0,,,,,,,,,,3,3,1,z,27,1,3.73326136168326,1.53122835510861,None,471.7423192999995,None,473.29849079999985,None,473.29849079999985,None,473.30854180000097,None,None,,473.29849079999985,None,['z'],475.2743351000008,None,z,2.770389699999214,1,1,0.6829268292682927,478.9890264000005,None,None,478.9890264000005,None,[0.7703896999992139],,,,,,,,,,,,,,,,,,,,,CBC_1031,4,6,2,4,4,0.95,2023-10-20_12h20.15.905,MSI_AV_v3,2022.1.1,60.087523486655,
41,0,41,0,,,,,,,,,,2,3,0,b,9,1,4.12485271162806,1.52290599571961,None,480.7916518000002,None,482.3304602999997,None,482.3304602999997,None,482.34195120000004,None,None,,482.3304602999997,None,['b'],484.30853580000075,None,b,4.705987499999537,1,1,0.6904761904761905,488.42343410000103,None,None,488.42343410000103,None,[2.7059874999995372],,,,,,,,,,,,,,,,,,,,,CBC_1031,4,6,2,4,4,0.95,2023-10-20_12h20.15.905,MSI_AV_v3,2022.1.1,60.087523486655,
42,0,42,0,,,,,,,,,,3,0,1,z,63,1,4.11514536789087,2.49839527409216,None,490.2252561000005,None,492.74798999999985,None,492.74798999999985,None,492.7590342000003,None,['b'],[1.609741499998563],492.74798999999985,None,None,494.74433080000017,None,b,1.609741499998563,0,0,0.6744186046511628,498.8645661999999,None,None,498.8645661999999,None,,,,,,,,,,,,,,,,,,,,,,CBC_1031,4,6,2,4,4,0.95,2023-10-20_12h20.15.905,MSI_AV_v3,2022.1.1,60.087523486655,
43,0,43,0,,,,,,,,,,0,0,1,b,63,1,3.6438386551209,0.77703640172831,None,500.67519510000056,None,501.4465818000008,None,501.4465818000008,None,501.4576425000005,None,None,,501.4465818000008,None,['b'],503.44115729999976,None,b,2.090406899998925,1,1,0.6818181818181818,507.07376900000054,None,None,507.07376900000054,None,[0.09040689999892493],,,,,,,,,,,,,,,,,,,,,CBC_1031,4,6,2,4,4,0.95,2023-10-20_12h20.15.905,MSI_AV_v3,2022.1.1,60.087523486655,
,,,,,,,,,,,,,,,,,,,,,,,,,,,,,,,,,,,,,,,,,,,,,,,,None,508.87443220000023,None,,,,,,,,,,,,,,,,,,CBC_1031,4,6,2,4,4,0.95,2023-10-20_12h20.15.905,MSI_AV_v3,2022.1.1,60.087523486655,
,,,,,,,,,,,,,,,,,,,,,,,,,,,,,,,,,,,,,,,,,,,,,,,,,,,513.8745424000008,None,None,513.8745424000008,None,,,,,,,,,,,,,CBC_1031,4,6,2,4,4,0.95,2023-10-20_12h20.15.905,MSI_AV_v3,2022.1.1,60.087523486655,
,,,,,,,,,,,,,,,,,,,,,,,,,,,,,,,,,,,,,,,,,,,,,,,,,,,,,,,,z,b,easy,"[0, 1, 2, 3]","[0, 3, 1, 2]",0.7272727272727273,0.6363636363636364,0.5454545454545454,0.8181818181818182,30,0,14,,,,,,,,,,,,
