trials_runs.thisRepN,trials_runs.thisTrialN,trials_runs.thisN,trials_runs.thisIndex,standbild_start.started,standbild_start.stopped,trigger.keys,trigger.rt,trigger.started,trigger.stopped,keys_2.keys,keys_2.started,keys_2.stopped,trials_runs.tactile_stim,trials_runs.visual_stim_left,trials_runs.visual_stim_right,trials_runs.correctKey,trials_runs.presentationFrequncy,trials_runs.FBaccuracy,trials_runs.ISI_s,trials_runs.ITI_s,keys_3.keys,keys_3.started,keys_3.stopped,image_stim_left.started,image_stim_right.started,tactile.started,response_4.keys,allKeys.keys,response_5.keys,response_5.started,response_5.stopped,response_runs.keys,response_runs.rt,trials_runs.correct_answer,trials_runs.feedback_given,trials_runs.running_mean,feedback_6.stopped,feedback_6.started,keys_6.keys,keys_6.started,keys_6.stopped,response_5.rt,response_4.rt,allKeys.rt,keys_7.keys,keys_7.started,keys_7.stopped,standbild_end.started,standbild_end.stopped,Stop_exp.keys,Stop_exp.started,Stop_exp.stopped,trials_runs.rightKey,trials_runs.leftKey,ts_difficulty,visualPair,tactilePair,trials_runs.mean_acc_1stFourth,trials_runs.mean_acc_2ndFourth,trials_runs.mean_acc_3rdFourth,trials_runs.mean_acc_4thFourth,participant,session,visual set [1-6],tactile set [1-3],trial structure [0-3 / 4-7],pairing [0-23],prob Feedback,date,expName,psychopyVersion,frameRate,
,,,,25.21286599999985,None,t,56.14206860000013,25.21286599999985,None,,,,,,,,,,,,,,,,,,,,,,,,,,,,,,,,,,,,,,,,,,,,,,,,,,,,,CBC_1006,2,4,3,6,8,0.9,2023-06-03_12h08.01.236,MSI_TV_v3,2022.1.1,60.07304882740825,
,,,,,,,,,,None,81.3815627999993,None,,,,,,,,,,,,,,,,,,,,,,,,,,,,,,,,,,,,,,,,,,,,,,,,,,CBC_1006,2,4,3,6,8,0.9,2023-06-03_12h08.01.236,MSI_TV_v3,2022.1.1,60.07304882740825,
0,0,0,0,,,,,,,,,,1,1,0,z,63,1,2.232488062,2.935368129,None,81.59726779999983,None,84.51365798999996,84.51365798999996,84.53015748999951,None,[],None,86.50829649999923,None,None,[],0,3,0.0,None,88.76622450000013,None,88.76622450000013,None,,,,,,,,,,,,,,,,,,,,,CBC_1006,2,4,3,6,8,0.9,2023-06-03_12h08.01.236,MSI_TV_v3,2022.1.1,60.07304882740825,
1,0,1,0,,,,,,,,,,3,3,2,b,63,1,1.758742576,1.915207301,None,90.74802060000002,None,92.64791848999994,92.64791848999994,92.66447468999922,None,[],['z'],94.64537329999985,None,z,2.594248900000821,0,0,0.0,None,96.4154955999993,None,96.4154955999993,None,[0.5942489000008209],,,,,,,,,,,,,,,,,,,,CBC_1006,2,4,3,6,8,0.9,2023-06-03_12h08.01.236,MSI_TV_v3,2022.1.1,60.07304882740825,
2,0,2,0,,,,,,,,,,0,2,0,b,27,1,3.622505815,0.789129603,None,98.41499500000009,None,99.18176648999997,99.18176648999997,99.19832878999932,None,[],['b'],101.18554589999985,None,b,3.271903400001065,1,1,0.3333333333333333,None,104.81347180000012,None,104.81347180000012,None,[1.2719034000010652],,,,,,,,,,,,,,,,,,,,CBC_1006,2,4,3,6,8,0.9,2023-06-03_12h08.01.236,MSI_TV_v3,2022.1.1,60.07304882740825,
3,0,3,0,,,,,,,,,,1,1,0,z,63,1,2.208904638,3.388090306,None,106.8150012999995,None,110.18043118999958,110.18043118999958,110.19723909000004,None,[],['z'],112.19426459999977,None,z,2.7217343000002074,1,1,0.5,None,114.3851552999995,None,114.3851552999995,None,[0.7217343000002074],,,,,,,,,,,,,,,,,,,,CBC_1006,2,4,3,6,8,0.9,2023-06-03_12h08.01.236,MSI_TV_v3,2022.1.1,60.07304882740825,
4,0,4,0,,,,,,,,,,2,3,1,z,27,1,3.044827724,2.7801224,None,116.39843849999943,None,119.16512568999951,119.16512568999951,119.18183498999952,None,[],['b'],121.16903269999966,None,b,2.3563859000005323,0,0,0.4,None,124.2068792,None,124.2068792,None,[0.3563859000005323],,,,,,,,,,,,,,,,,,,,CBC_1006,2,4,3,6,8,0.9,2023-06-03_12h08.01.236,MSI_TV_v3,2022.1.1,60.07304882740825,
5,0,5,0,,,,,,,,,,0,2,3,b,63,1,3.956662465,3.321420384,None,126.21512910000001,None,129.51460998999937,129.51460998999937,129.53137928999968,None,[],['b'],131.51886229999945,None,b,3.018574599999738,1,1,0.5,None,135.48541699999987,None,135.48541699999987,None,[1.018574599999738],,,,,,,,,,,,,,,,,,,,CBC_1006,2,4,3,6,8,0.9,2023-06-03_12h08.01.236,MSI_TV_v3,2022.1.1,60.07304882740825,
6,0,6,0,,,,,,,,,,3,2,3,z,63,0,2.742099981,2.573610938,None,137.49808179999945,None,140.0483616900001,140.0483616900001,140.06507298999986,None,[],['b'],142.0523194999996,None,b,3.066190900000038,0,1,0.42857142857142855,None,144.7907265999993,None,144.7907265999993,None,[1.0661909000000378],,,,,,,,,,,,,,,,,,,,CBC_1006,2,4,3,6,8,0.9,2023-06-03_12h08.01.236,MSI_TV_v3,2022.1.1,60.07304882740825,
7,0,7,0,,,,,,,,,,2,1,0,b,63,1,2.0845750460000003,1.411911144,None,146.79816419999952,None,148.18073929000002,148.18073929000002,148.1973804899999,None,[],['z'],150.17648000000008,None,z,2.345491300001413,0,0,0.375,None,152.2650780999993,None,152.2650780999993,None,[0.34549130000141304],,,,,,,,,,,,,,,,,,,,CBC_1006,2,4,3,6,8,0.9,2023-06-03_12h08.01.236,MSI_TV_v3,2022.1.1,60.07304882740825,
8,0,8,0,,,,,,,,,,1,0,2,b,27,1,2.278602942,1.313600181,None,154.26521969999976,None,155.5650408900001,155.5650408900001,155.58161678999932,None,[],['b'],157.58640709999963,None,b,2.85200260000056,1,1,0.4444444444444444,None,159.86166629999934,None,159.86166629999934,None,[0.85200260000056],,,,,,,,,,,,,,,,,,,,CBC_1006,2,4,3,6,8,0.9,2023-06-03_12h08.01.236,MSI_TV_v3,2022.1.1,60.07304882740825,
9,0,9,0,,,,,,,,,,3,0,3,z,9,1,3.589438522,1.378098418,None,161.86505269999998,None,163.21514269,163.21514269,163.23192458999984,z,['z'],None,165.25738649999948,None,z,1.7859630000002653,1,1,0.5,None,168.84744939999928,None,168.84744939999928,None,,1.7859630000002653,[1.7859630000002653],,,,,,,,,,,,,,,,,,CBC_1006,2,4,3,6,8,0.9,2023-06-03_12h08.01.236,MSI_TV_v3,2022.1.1,60.07304882740825,
10,0,10,0,,,,,,,,,,0,3,2,z,63,1,4.21669271,1.086048241,None,170.8483852999998,None,171.91497248999985,171.91497248999985,171.93162868999934,None,[],['b'],173.91411929999958,None,b,2.482550500000798,0,0,0.45454545454545453,None,178.14565309999944,None,178.14565309999944,None,[0.4825505000007979],,,,,,,,,,,,,,,,,,,,CBC_1006,2,4,3,6,8,0.9,2023-06-03_12h08.01.236,MSI_TV_v3,2022.1.1,60.07304882740825,
11,0,11,0,,,,,,,,,,2,1,0,b,63,1,1.90573091,0.971483559,None,180.1602527999994,None,181.09846838999965,181.09846838999965,181.11527578999994,None,[],['b'],183.10167699999965,None,b,2.7512067000006937,1,1,0.5,None,185.0150840999995,None,185.0150840999995,None,[0.7512067000006937],,,,,,,,,,,,,,,,,,,,CBC_1006,2,4,3,6,8,0.9,2023-06-03_12h08.01.236,MSI_TV_v3,2022.1.1,60.07304882740825,
12,0,12,0,,,,,,,,,,3,3,2,b,63,1,2.397501916,1.554037824,None,187.0143780999997,None,188.54835658999946,188.54835658999946,188.5651457899994,None,[],['z'],190.55166370000006,None,z,2.4052609000000302,0,0,0.46153846153846156,None,192.95434059999934,None,192.95434059999934,None,[0.40526090000003023],,,,,,,,,,,,,,,,,,,,CBC_1006,2,4,3,6,8,0.9,2023-06-03_12h08.01.236,MSI_TV_v3,2022.1.1,60.07304882740825,
13,0,13,0,,,,,,,,,,0,3,2,z,63,1,1.887650177,1.08099246,None,194.96500809999998,None,196.03180898999926,196.03180898999926,196.0484687899998,None,[],['b'],198.03482409999924,None,b,2.391054000000622,0,0,0.42857142857142855,None,199.93522159999975,None,199.93522159999975,None,[0.3910540000006222],,,,,,,,,,,,,,,,,,,,CBC_1006,2,4,3,6,8,0.9,2023-06-03_12h08.01.236,MSI_TV_v3,2022.1.1,60.07304882740825,
14,0,14,0,,,,,,,,,,2,1,3,b,27,1,1.543156518,1.883772966,None,201.94800909999958,None,203.81518738999966,203.81518738999966,203.83178159,None,[],['z'],205.81759069999953,None,z,2.324367799999891,0,0,0.4,None,207.3596033999993,None,207.3596033999993,None,[0.32436779999989085],,,,,,,,,,,,,,,,,,,,CBC_1006,2,4,3,6,8,0.9,2023-06-03_12h08.01.236,MSI_TV_v3,2022.1.1,60.07304882740825,
15,0,15,0,,,,,,,,,,1,3,0,z,9,1,1.6718976049999998,2.071213329,None,209.36538139999993,None,211.41553358999954,211.41553358999954,211.43218998999964,None,[],['b'],213.41713269999946,None,b,2.799828200000775,0,0,0.375,None,215.1004757999999,None,215.1004757999999,None,[0.7998282000007748],,,,,,,,,,,,,,,,,,,,CBC_1006,2,4,3,6,8,0.9,2023-06-03_12h08.01.236,MSI_TV_v3,2022.1.1,60.07304882740825,
16,0,16,0,,,,,,,,,,3,3,2,b,63,1,1.109698721,1.448890429,None,217.1154145999999,None,218.54839248999997,218.54839248999997,218.56512079000004,None,[],None,220.56852979999985,None,None,[],0,3,0.35294117647058826,None,221.6906737999998,None,221.6906737999998,None,,,,,,,,,,,,,,,,,,,,,CBC_1006,2,4,3,6,8,0.9,2023-06-03_12h08.01.236,MSI_TV_v3,2022.1.1,60.07304882740825,
17,0,17,0,,,,,,,,,,0,2,0,b,27,1,1.899747326,3.274187802,None,223.69921019999947,None,226.94851288999962,226.94851288999962,226.96515739000006,b,['b'],None,228.9892037999998,None,b,1.9314087000002473,1,1,0.3888888888888889,None,230.89375689999997,None,230.89375689999997,None,,1.9314087000002473,[1.9314087000002473],,,,,,,,,,,,,,,,,,CBC_1006,2,4,3,6,8,0.9,2023-06-03_12h08.01.236,MSI_TV_v3,2022.1.1,60.07304882740825,
18,0,18,0,,,,,,,,,,1,1,0,z,63,1,3.278108735,1.483424551,None,232.8980744999999,None,234.3657405899994,234.3657405899994,234.3821999899992,None,[],['b'],236.36835410000003,None,b,2.3574643000001743,0,0,0.3684210526315789,None,239.67080739999983,None,239.67080739999983,None,[0.35746430000017426],,,,,,,,,,,,,,,,,,,,CBC_1006,2,4,3,6,8,0.9,2023-06-03_12h08.01.236,MSI_TV_v3,2022.1.1,60.07304882740825,
19,0,19,0,,,,,,,,,,2,0,1,z,63,0,3.478547126,2.108332021,None,241.68207899999925,None,243.7651978899994,243.7651978899994,243.78193288999955,None,[],['z'],245.76284429999941,None,z,2.4407830000000104,1,0,0.4,None,249.2553100999994,None,249.2553100999994,None,[0.44078300000001036],,,,,,,,,,,,,,,,,,,,CBC_1006,2,4,3,6,8,0.9,2023-06-03_12h08.01.236,MSI_TV_v3,2022.1.1,60.07304882740825,
20,0,20,0,,,,,,,,,,3,1,3,z,27,1,2.949122761,1.142638656,None,251.26558440000008,None,252.38249578999967,252.38249578999967,252.39911608999955,None,[],['b'],254.40614789999927,None,b,2.3439390000003186,0,0,0.38095238095238093,None,257.3422805,None,257.3422805,None,[0.34393900000031863],,,,,,,,,,,,,,,,,,,,CBC_1006,2,4,3,6,8,0.9,2023-06-03_12h08.01.236,MSI_TV_v3,2022.1.1,60.07304882740825,
21,0,21,0,,,,,,,,,,0,2,3,b,63,1,4.176609572,2.962224669,None,259.3490928000001,None,262.2992934899994,262.2992934899994,262.31574588999956,None,[],['z'],264.30286889999934,None,z,2.7080541000004814,0,0,0.36363636363636365,None,268.4849448999994,None,268.4849448999994,None,[0.7080541000004814],,,,,,,,,,,,,,,,,,,,CBC_1006,2,4,3,6,8,0.9,2023-06-03_12h08.01.236,MSI_TV_v3,2022.1.1,60.07304882740825,
22,0,22,0,,,,,,,,,,2,1,0,b,63,1,4.196249082,2.648704933,None,270.4987216999998,None,273.13229298999977,273.13229298999977,273.1489350899992,b,['b'],None,275.17356689999997,None,b,1.2663234999999986,1,1,0.391304347826087,None,279.3777044999997,None,279.3777044999997,None,,1.2663234999999986,[1.2663234999999986],,,,,,,,,,,,,,,,,,CBC_1006,2,4,3,6,8,0.9,2023-06-03_12h08.01.236,MSI_TV_v3,2022.1.1,60.07304882740825,
23,0,23,0,,,,,,,,,,1,2,0,z,27,1,2.818459073,1.75396268,None,281.3825630000001,None,283.1156867899999,283.1156867899999,283.13221878999957,None,[],['z'],285.1180945999995,None,z,2.818695900000421,1,1,0.4166666666666667,None,287.94323540000005,None,287.94323540000005,None,[0.8186959000004208],,,,,,,,,,,,,,,,,,,,CBC_1006,2,4,3,6,8,0.9,2023-06-03_12h08.01.236,MSI_TV_v3,2022.1.1,60.07304882740825,
24,0,24,0,,,,,,,,,,3,2,3,z,63,1,1.556335756,1.84422311,None,289.9489481999999,None,291.76539128999957,291.76539128999957,291.7820749899993,None,[],['z'],293.7690157999996,None,z,2.8942706000007092,1,1,0.44,None,295.33053479999944,None,295.33053479999944,None,[0.8942706000007092],,,,,,,,,,,,,,,,,,,,CBC_1006,2,4,3,6,8,0.9,2023-06-03_12h08.01.236,MSI_TV_v3,2022.1.1,60.07304882740825,
25,0,25,0,,,,,,,,,,0,2,0,b,27,1,1.3262934849999999,0.977134615,None,297.33257159999994,None,298.2826570899997,298.2826570899997,298.2991188899996,None,[],['b'],300.28368259999934,None,b,2.927503300000353,1,1,0.46153846153846156,None,301.6157411999993,None,301.6157411999993,None,[0.9275033000003532],,,,,,,,,,,,,,,,,,,,CBC_1006,2,4,3,6,8,0.9,2023-06-03_12h08.01.236,MSI_TV_v3,2022.1.1,60.07304882740825,
26,0,26,0,,,,,,,,,,2,1,0,b,63,1,1.595506577,2.232990834,None,303.6155190999998,None,305.83225008999943,305.83225008999943,305.8488151900001,None,[],['z'],307.83423739999944,None,z,2.3532580000010057,0,0,0.4444444444444444,None,309.44631729999946,None,309.44631729999946,None,[0.3532580000010057],,,,,,,,,,,,,,,,,,,,CBC_1006,2,4,3,6,8,0.9,2023-06-03_12h08.01.236,MSI_TV_v3,2022.1.1,60.07304882740825,
27,0,27,0,,,,,,,,,,1,0,1,b,63,1,3.869831913,2.757001452,None,311.44941649999964,None,314.1824302899995,314.1824302899995,314.1991786899998,None,[],['z'],316.1852650999999,None,z,3.2267929000008735,0,0,0.42857142857142855,None,320.05925559999923,None,320.05925559999923,None,[1.2267929000008735],,,,,,,,,,,,,,,,,,,,CBC_1006,2,4,3,6,8,0.9,2023-06-03_12h08.01.236,MSI_TV_v3,2022.1.1,60.07304882740825,
28,0,28,0,,,,,,,,,,0,3,2,z,63,0,2.917714675,3.264468617,None,322.0656933999999,None,325.31606199,325.31606199,325.33270938999976,None,[],['z'],327.31923109999934,None,z,2.4308889000003546,1,0,0.4482758620689655,None,330.23941939999986,None,330.23941939999986,None,[0.4308889000003546],,,,,,,,,,,,,,,,,,,,CBC_1006,2,4,3,6,8,0.9,2023-06-03_12h08.01.236,MSI_TV_v3,2022.1.1,60.07304882740825,
29,0,29,0,,,,,,,,,,3,3,1,b,27,1,2.67601813,1.293060736,None,332.2492853999993,None,333.51568118999967,333.51568118999967,333.5322110899997,b,['b'],None,335.5626595999993,None,b,1.141107500000544,1,1,0.4666666666666667,None,338.2269744999994,None,338.2269744999994,None,,1.141107500000544,[1.141107500000544],,,,,,,,,,,,,,,,,,CBC_1006,2,4,3,6,8,0.9,2023-06-03_12h08.01.236,MSI_TV_v3,2022.1.1,60.07304882740825,
30,0,30,0,,,,,,,,,,1,1,0,z,63,1,4.334629553,1.24796184,None,340.2323458000001,None,341.4661819899993,341.4661819899993,341.4827530899993,None,[],['z'],343.46837679999953,None,z,2.7104407000006177,1,1,0.4838709677419355,None,347.8095161000001,None,347.8095161000001,None,[0.7104407000006177],,,,,,,,,,,,,,,,,,,,CBC_1006,2,4,3,6,8,0.9,2023-06-03_12h08.01.236,MSI_TV_v3,2022.1.1,60.07304882740825,
31,0,31,0,,,,,,,,,,3,3,2,b,63,1,2.078483356,2.128027194,None,349.8157640999998,None,351.9164190900001,351.9164190900001,351.9324751899994,b,['b'],None,353.9573246,None,b,1.5504483000004257,1,1,0.5,None,356.04339869999967,None,356.04339869999967,None,,1.5504483000004257,[1.5504483000004257],,,,,,,,,,,,,,,,,,CBC_1006,2,4,3,6,8,0.9,2023-06-03_12h08.01.236,MSI_TV_v3,2022.1.1,60.07304882740825,
32,0,32,0,,,,,,,,,,2,2,1,z,9,1,1.219965572,3.276660373,None,358.04921119999926,None,361.29973419,361.29973419,361.31619529,None,[],['b'],363.30392179999944,None,b,2.594978300000548,0,0,0.48484848484848486,None,364.5187513000001,None,364.5187513000001,None,[0.5949783000005482],,,,,,,,,,,,,,,,,,,,CBC_1006,2,4,3,6,8,0.9,2023-06-03_12h08.01.236,MSI_TV_v3,2022.1.1,60.07304882740825,
33,0,33,0,,,,,,,,,,1,1,0,z,63,1,2.518459073,1.53162701,None,366.5325026999999,None,368.04926789,368.04926789,368.06586418999996,None,[],['z'],370.05292089999966,None,z,2.605366800000411,1,1,0.5,None,372.5643927000001,None,372.5643927000001,None,[0.6053668000004109],,,,,,,,,,,,,,,,,,,,CBC_1006,2,4,3,6,8,0.9,2023-06-03_12h08.01.236,MSI_TV_v3,2022.1.1,60.07304882740825,
34,0,34,0,,,,,,,,,,0,2,1,b,9,1,3.501824497,2.407383959,None,374.5658905999999,None,376.94921849,376.94921849,376.96595158999935,None,[],['z'],378.95253689999936,None,z,2.934876900000745,0,0,0.4857142857142857,None,382.45831049999924,None,382.45831049999924,None,[0.9348769000007451],,,,,,,,,,,,,,,,,,,,CBC_1006,2,4,3,6,8,0.9,2023-06-03_12h08.01.236,MSI_TV_v3,2022.1.1,60.07304882740825,
35,0,35,0,,,,,,,,,,2,1,0,b,63,1,2.088920167,1.910349838,None,384.4662982,None,386.34959618999983,386.34959618999983,386.36633729000005,None,[],['b'],388.35346819999995,None,b,2.3444524000005913,1,1,0.5,None,390.44470249999995,None,390.44470249999995,None,[0.3444524000005913],,,,,,,,,,,,,,,,,,,,CBC_1006,2,4,3,6,8,0.9,2023-06-03_12h08.01.236,MSI_TV_v3,2022.1.1,60.07304882740825,
36,0,36,0,,,,,,,,,,1,0,1,b,63,0,4.309752164,2.349749758,None,392.4496702999995,None,394.78263438999966,394.78263438999966,394.7993642900001,None,[],['z'],396.78687549999995,None,z,2.4121225000008053,0,1,0.4864864864864865,None,401.0845322999994,None,401.0845322999994,None,[0.4121225000008053],,,,,,,,,,,,,,,,,,,,CBC_1006,2,4,3,6,8,0.9,2023-06-03_12h08.01.236,MSI_TV_v3,2022.1.1,60.07304882740825,
37,0,37,0,,,,,,,,,,2,0,1,z,63,1,2.372527466,2.210349838,None,403.0997545,None,405.2829667899996,405.2829667899996,405.2998928899997,b,['b'],None,407.3253827999997,None,b,1.075953300000947,0,0,0.47368421052631576,None,409.6929474999997,None,409.6929474999997,None,,1.075953300000947,[1.075953300000947],,,,,,,,,,,,,,,,,,CBC_1006,2,4,3,6,8,0.9,2023-06-03_12h08.01.236,MSI_TV_v3,2022.1.1,60.07304882740825,
38,0,38,0,,,,,,,,,,3,1,3,z,27,1,2.117809983,2.495793893,None,411.7000868999994,None,414.1826984899999,414.1826984899999,414.19947108999986,None,[],['z'],416.1869945999997,None,z,2.717061700001068,1,1,0.48717948717948717,None,418.30875149999974,None,418.30875149999974,None,[0.717061700001068],,,,,,,,,,,,,,,,,,,,CBC_1006,2,4,3,6,8,0.9,2023-06-03_12h08.01.236,MSI_TV_v3,2022.1.1,60.07304882740825,
39,0,39,0,,,,,,,,,,0,3,2,z,63,1,1.874984683,2.502774076,None,420.3162367999994,None,422.7994797900001,422.7994797900001,422.8160765899993,None,[],['z'],424.8038329000001,None,z,2.205609000001459,1,1,0.5,None,426.66471920000004,None,426.66471920000004,None,[0.2056090000014592],,,,,,,,,,,,,,,,,,,,CBC_1006,2,4,3,6,8,0.9,2023-06-03_12h08.01.236,MSI_TV_v3,2022.1.1,60.07304882740825,
40,0,40,0,,,,,,,,,,1,0,2,b,27,1,4.268032915,1.732943574,None,428.6786253999999,None,430.3830492899997,430.3830492899997,430.39969268999994,None,[],['b'],432.3861632999997,None,b,2.6377436000011585,1,1,0.5121951219512195,None,436.66042649999963,None,436.66042649999963,None,[0.6377436000011585],,,,,,,,,,,,,,,,,,,,CBC_1006,2,4,3,6,8,0.9,2023-06-03_12h08.01.236,MSI_TV_v3,2022.1.1,60.07304882740825,
41,0,41,0,,,,,,,,,,3,2,3,z,63,1,1.610581685,2.234398566,None,438.6661863999998,None,440.8829015900001,440.8829015900001,440.8996370899995,None,[],['z'],442.8865778999998,None,z,2.283336400000735,1,1,0.5238095238095238,None,444.4967603999994,None,444.4967603999994,None,[0.283336400000735],,,,,,,,,,,,,,,,,,,,CBC_1006,2,4,3,6,8,0.9,2023-06-03_12h08.01.236,MSI_TV_v3,2022.1.1,60.07304882740825,
42,0,42,0,,,,,,,,,,2,1,3,b,27,1,2.242058058,2.684881281,None,446.4997149999999,None,449.1663624899993,449.1663624899993,449.1829693899999,None,[],['b'],451.1693246999994,None,b,2.336151000001337,1,1,0.5348837209302325,None,453.4265840999997,None,453.4265840999997,None,[0.3361510000013368],,,,,,,,,,,,,,,,,,,,CBC_1006,2,4,3,6,8,0.9,2023-06-03_12h08.01.236,MSI_TV_v3,2022.1.1,60.07304882740825,
43,0,43,0,,,,,,,,,,0,3,2,z,63,1,3.884449499,2.297139377,None,455.4332164999996,None,457.71704128999954,457.71704128999954,457.73300348999965,None,[],['z'],459.71944899999926,None,z,2.0801442000010866,1,1,0.5454545454545454,None,463.6115581999993,None,463.6115581999993,None,[0.08014420000108657],,,,,,,,,,,,,,,,,,,,CBC_1006,2,4,3,6,8,0.9,2023-06-03_12h08.01.236,MSI_TV_v3,2022.1.1,60.07304882740825,
,,,,,,,,,,,,,,,,,,,,,,,,,,,,,,,,,,,,,,,,,,,,,None,465.61612519999926,None,,,,,,,,,,,,,,,CBC_1006,2,4,3,6,8,0.9,2023-06-03_12h08.01.236,MSI_TV_v3,2022.1.1,60.07304882740825,
,,,,,,,,,,,,,,,,,,,,,,,,,,,,,,,,,,,,,,,,,,,,,,,,470.5997680999999,None,None,470.5997680999999,475.5831275999999,,,,,,,,,,CBC_1006,2,4,3,6,8,0.9,2023-06-03_12h08.01.236,MSI_TV_v3,2022.1.1,60.07304882740825,
,,,,,,,,,,,,,,,,,,,,,,,,,,,,,,,,,,,,,,,,,,,,,,,,,,,,,z,b,hard,"[0, 1, 2, 3]","[1, 2, 0, 3]",0.45454545454545453,0.2727272727272727,0.7272727272727273,0.7272727272727273,,,,,,,,,,,,
