trials_runs.thisRepN,trials_runs.thisTrialN,trials_runs.thisN,trials_runs.thisIndex,standbild_start.started,standbild_start.stopped,trigger.keys,trigger.rt,trigger.started,trigger.stopped,keys_2.keys,keys_2.started,keys_2.stopped,trials_runs.auditory_stim,trials_runs.visual_stim_left,trials_runs.visual_stim_right,trials_runs.correctKey,trials_runs.presentationFrequncy,trials_runs.FBaccuracy,trials_runs.ISI_s,trials_runs.ITI_s,keys_3.keys,keys_3.started,keys_3.stopped,ImageLeft_4.started,ImageLeft_4.stopped,ImageRight_4.started,ImageRight_4.stopped,sound_4.started,sound_4.stopped,response_4.keys,response_4.started,response_4.stopped,response_5.keys,response_5.rt,response_5.started,response_5.stopped,response_runs.keys,response_runs.rt,trials_runs.correct_answer,trials_runs.feedback_given,trials_runs.running_mean,feedback_6.started,feedback_6.stopped,keys_6.keys,keys_6.started,keys_6.stopped,response_4.rt,keys_7.keys,keys_7.started,keys_7.stopped,standbild_end.started,standbild_end.stopped,Stop_exp.keys,Stop_exp.started,Stop_exp.stopped,trials_runs.rightKey,trials_runs.leftKey,ts_difficulty,visualPair,audioPair,trials_runs.mean_acc_1stFourth,trials_runs.mean_acc_2ndFourth,trials_runs.mean_acc_3rdFourth,trials_runs.mean_acc_4thFourth,participant,session,visual set [1-6],audio set [1-3],trial structure [0-3 / 4-7],pairing [0-23],prob Feedback,date,expName,psychopyVersion,frameRate,
,,,,60.41951879999988,None,t,54.5691440999999,60.41951879999988,None,,,,,,,,,,,,,,,,,,,,,,,,,,,,,,,,,,,,,,,,,,,,,,,,,,,,,,,,CBC_1017,003,3,3,5,16,0.95,2023-06-25_10h04.01.692,MSI_AV_v3,2022.1.1,59.74632903613553,
,,,,,,,,,,None,115.00761799999987,None,,,,,,,,,,,,,,,,,,,,,,,,,,,,,,,,,,,,,,,,,,,,,,,,,,,,,CBC_1017,003,3,3,5,16,0.95,2023-06-25_10h04.01.692,MSI_AV_v3,2022.1.1,59.74632903613553,
0,0,0,0,,,,,,,,,,3,3,1,z,27,1,2.342239579230602,0.77703640172831,None,115.20756519999986,None,116.15023330000008,None,116.15023330000008,None,116.15699227999976,None,None,116.15023330000008,None,['z'],[0.01955879999991339],117.97362900000007,None,z,2.0195587999999134,1,1,1.0,120.32060339999998,None,None,120.32060339999998,None,,,,,,,,,,,,,,,,,,,CBC_1017,003,3,3,5,16,0.95,2023-06-25_10h04.01.692,MSI_AV_v3,2022.1.1,59.74632903613553,
1,0,1,0,,,,,,,,,,0,2,3,b,63,1,2.693348633324513,1.53122835510861,None,122.12449709999987,None,123.77224920000003,None,123.77224920000003,None,123.77405393999983,None,None,123.77224920000003,None,['b'],[0.2991967000000386],125.65772399999992,None,b,2.2991967000000386,1,1,1.0,128.3363569999999,None,None,128.3363569999999,None,,,,,,,,,,,,,,,,,,,CBC_1017,003,3,3,5,16,0.95,2023-06-25_10h04.01.692,MSI_AV_v3,2022.1.1,59.74632903613553,
2,0,2,0,,,,,,,,,,1,2,3,z,63,1,4.46924002178158,0.917519910446003,None,130.1411109999999,None,131.1031814999999,None,131.1031814999999,None,131.10759050000001,None,None,131.1031814999999,None,['z'],[0.8814813000001323],133.0576251,None,z,2.8814813000001323,1,1,1.0,137.51103280000007,None,None,137.51103280000007,None,,,,,,,,,,,,,,,,,,,CBC_1017,003,3,3,5,16,0.95,2023-06-25_10h04.01.692,MSI_AV_v3,2022.1.1,59.74632903613553,
3,0,3,0,,,,,,,,,,3,1,0,b,63,1,2.82320408183943,1.94858485820231,None,139.32496620000006,None,141.3289046,None,141.3289046,None,141.3408839599998,None,['b'],141.3289046,None,None,,143.2938870999999,None,b,1.4182415999998739,1,1,1.0,146.13202009999986,None,None,146.13202009999986,None,[1.4182415999998739],,,,,,,,,,,,,,,,,,CBC_1017,003,3,3,5,16,0.95,2023-06-25_10h04.01.692,MSI_AV_v3,2022.1.1,59.74632903613553,
4,0,4,0,,,,,,,,,,2,3,0,z,9,1,3.02234236141277,1.34668860557497,None,147.94092929999988,None,149.33144760000005,None,149.33144760000005,None,149.34093229999985,None,['z'],149.33144760000005,None,None,,151.29678539999986,None,z,1.91637639999999,1,1,1.0,154.31451479999987,None,None,154.31451479999987,None,[1.91637639999999],,,,,,,,,,,,,,,,,,CBC_1017,003,3,3,5,16,0.95,2023-06-25_10h04.01.692,MSI_AV_v3,2022.1.1,59.74632903613553,
5,0,5,0,,,,,,,,,,1,2,3,z,63,1,2.91303524001082,1.27538462653558,None,156.1240527,None,157.40813400000002,None,157.40813400000002,None,157.4077382799999,None,None,157.40813400000002,None,['b'],[0.3261934000001929],159.39124100000004,None,b,2.326193400000193,0,0,0.8333333333333334,162.28259439999988,None,None,162.28259439999988,None,,,,,,,,,,,,,,,,,,,CBC_1017,003,3,3,5,16,0.95,2023-06-25_10h04.01.692,MSI_AV_v3,2022.1.1,59.74632903613553,
6,0,6,0,,,,,,,,,,0,2,0,b,27,1,4.53337421950507,1.12425433982333,None,164.09123,None,165.23035989999994,None,165.23035989999994,None,165.24104123999987,None,None,165.23035989999994,None,['b'],[0.5721045999998751],167.20765970000002,None,b,2.572104599999875,1,1,0.8571428571428571,171.73058079999987,None,None,171.73058079999987,None,,,,,,,,,,,,,,,,,,,CBC_1017,003,3,3,5,16,0.95,2023-06-25_10h04.01.692,MSI_AV_v3,2022.1.1,59.74632903613553,
7,0,7,0,,,,,,,,,,2,1,0,z,63,1,2.2759877950103027,0.761758675042088,None,173.54123979999986,None,174.3111437,None,174.3111437,None,174.30766647999988,None,None,174.3111437,None,['z'],[0.24483099999997648],176.29107129999989,None,z,2.2448309999999765,1,1,0.875,178.55069890000004,None,None,178.55069890000004,None,,,,,,,,,,,,,,,,,,,CBC_1017,003,3,3,5,16,0.95,2023-06-25_10h04.01.692,MSI_AV_v3,2022.1.1,59.74632903613553,
8,0,8,0,,,,,,,,,,3,0,1,z,63,1,4.61004669244928,1.64421109900286,None,180.357661,None,182.0144797999999,None,182.0144797999999,None,182.02409323999987,None,None,182.0144797999999,None,['z'],[0.08273110000004635],183.99088789999996,None,z,2.0827311000000464,1,1,0.8888888888888888,188.58822910000004,None,None,188.58822910000004,None,,,,,,,,,,,,,,,,,,,CBC_1017,003,3,3,5,16,0.95,2023-06-25_10h04.01.692,MSI_AV_v3,2022.1.1,59.74632903613553,
9,0,9,0,,,,,,,,,,1,3,1,b,27,1,2.294664843639333,1.1243895841892,None,190.39054179999994,None,191.52273250000007,None,191.52273250000007,None,191.52436187999982,None,None,191.52273250000007,None,['z'],[0.9828118000000359],193.50691460000007,None,z,2.982811800000036,0,0,0.8,195.79950050000002,None,None,195.79950050000002,None,,,,,,,,,,,,,,,,,,,CBC_1017,003,3,3,5,16,0.95,2023-06-25_10h04.01.692,MSI_AV_v3,2022.1.1,59.74632903613553,
10,0,10,0,,,,,,,,,,0,2,3,b,63,1,4.7533305109883095,1.60731937853708,None,197.60759729999995,None,199.21617059999994,None,199.21617059999994,None,199.22431048,None,None,199.21617059999994,None,['z'],[0.5203922999999122],201.20760859999996,None,z,2.520392299999912,0,0,0.7272727272727273,205.9550956999999,None,None,205.9550956999999,None,,,,,,,,,,,,,,,,,,,CBC_1017,003,3,3,5,16,0.95,2023-06-25_10h04.01.692,MSI_AV_v3,2022.1.1,59.74632903613553,
11,0,11,0,,,,,,,,,,3,0,1,z,63,1,3.68371079902891,0.80788063606262,None,207.75811810000005,None,208.57930299999998,None,208.57930299999998,None,208.57462897999997,None,None,208.57930299999998,None,['z'],[1.2906897999998819],210.55780750000008,None,z,3.290689799999882,1,1,0.75,214.2244215999999,None,None,214.2244215999999,None,,,,,,,,,,,,,,,,,,,CBC_1017,003,3,3,5,16,0.95,2023-06-25_10h04.01.692,MSI_AV_v3,2022.1.1,59.74632903613553,
12,0,12,0,,,,,,,,,,2,1,0,z,63,1,3.76873691643126,3.4543169006169,None,216.02421529999992,None,219.47801230000005,None,219.47801230000005,None,219.47402861999984,None,['z'],219.47801230000005,None,None,,221.49145109999995,None,z,1.2218548000000737,1,1,0.7692307692307693,225.26287129999992,None,None,225.26287129999992,None,[1.2218548000000737],,,,,,,,,,,,,,,,,,CBC_1017,003,3,3,5,16,0.95,2023-06-25_10h04.01.692,MSI_AV_v3,2022.1.1,59.74632903613553,
13,0,13,0,,,,,,,,,,0,2,1,b,9,1,2.678526077912375,1.25920145784721,None,227.07444220000002,None,228.3424387,None,228.3424387,None,228.34113057999983,None,None,228.3424387,None,['b'],[0.04741140000010091],230.3243184999999,None,b,2.047411400000101,1,1,0.7857142857142857,232.98571070000003,None,None,232.98571070000003,None,,,,,,,,,,,,,,,,,,,CBC_1017,003,3,3,5,16,0.95,2023-06-25_10h04.01.692,MSI_AV_v3,2022.1.1,59.74632903613553,
14,0,14,0,,,,,,,,,,2,0,1,b,63,1,3.35133458220192,3.24569326556923,None,234.79129209999996,None,238.05672030000005,None,238.05672030000005,None,238.05767677999987,None,['b'],238.05672030000005,None,None,,240.0588740999999,None,b,1.4186334999999417,1,1,0.8,243.41266589999987,None,None,243.41266589999987,None,[1.4186334999999417],,,,,,,,,,,,,,,,,,CBC_1017,003,3,3,5,16,0.95,2023-06-25_10h04.01.692,MSI_AV_v3,2022.1.1,59.74632903613553,
15,0,15,0,,,,,,,,,,1,1,3,z,27,1,4.52047235037039,2.6299100644723,None,245.22446560000003,None,247.85956859999988,None,247.85956859999988,None,247.85788817999995,None,None,247.85956859999988,None,['z'],[0.38709300000004987],249.8412108,None,z,2.38709300000005,1,1,0.8125,254.35492750000003,None,None,254.35492750000003,None,,,,,,,,,,,,,,,,,,,CBC_1017,003,3,3,5,16,0.95,2023-06-25_10h04.01.692,MSI_AV_v3,2022.1.1,59.74632903613553,
16,0,16,0,,,,,,,,,,3,1,0,b,63,1,2.592312596923728,1.90743690794447,None,256.1577993000001,None,258.0725067000001,None,258.0725067000001,None,258.07438257999985,None,['b'],258.0725067000001,None,None,,260.07234730000005,None,b,1.6427298999999493,1,1,0.8235294117647058,262.66445909999993,None,None,262.66445909999993,None,[1.6427298999999493],,,,,,,,,,,,,,,,,,CBC_1017,003,3,3,5,16,0.95,2023-06-25_10h04.01.692,MSI_AV_v3,2022.1.1,59.74632903613553,
17,0,17,0,,,,,,,,,,0,3,2,z,63,0,4.12485271162806,3.06992456303453,None,264.4746072999999,None,267.55720829999996,None,267.55720829999996,None,267.55760717999993,None,None,267.55720829999996,None,['z'],[0.7716166000000158],269.5414768999999,None,z,2.7716166000000158,1,0,0.8333333333333334,273.6486517999999,None,None,273.6486517999999,None,,,,,,,,,,,,,,,,,,,CBC_1017,003,3,3,5,16,0.95,2023-06-25_10h04.01.692,MSI_AV_v3,2022.1.1,59.74632903613553,
18,0,18,0,,,,,,,,,,2,0,2,b,27,1,3.73326136168326,2.22427187882546,None,275.4580696999999,None,277.6929851,None,277.6929851,None,277.69134528,None,['b'],277.6929851,None,None,,279.6883129999999,None,b,1.4469050000000152,1,1,0.8421052631578947,283.4300476000001,None,None,283.4300476000001,None,[1.4469050000000152],,,,,,,,,,,,,,,,,,CBC_1017,003,3,3,5,16,0.95,2023-06-25_10h04.01.692,MSI_AV_v3,2022.1.1,59.74632903613553,
19,0,19,0,,,,,,,,,,1,2,3,z,63,1,4.11514536789087,1.96568735158996,None,285.2412245999999,None,287.2251394,None,287.2251394,None,287.22447847999985,None,None,287.2251394,None,['b'],[0.822232299999996],289.2077658999999,None,b,2.822232299999996,0,0,0.8,293.31623519999994,None,None,293.31623519999994,None,,,,,,,,,,,,,,,,,,,CBC_1017,003,3,3,5,16,0.95,2023-06-25_10h04.01.692,MSI_AV_v3,2022.1.1,59.74632903613553,
20,0,20,0,,,,,,,,,,3,1,3,b,27,1,2.666404967794728,2.49839527409216,None,295.1245265,None,297.64046919999987,None,297.64046919999987,None,297.64122937999997,None,None,297.64046919999987,None,['b'],[0.14219539999999142],299.6244855,None,b,2.1421953999999914,1,1,0.8095238095238095,302.28734659999986,None,None,302.28734659999986,None,,,,,,,,,,,,,,,,,,,CBC_1017,003,3,3,5,16,0.95,2023-06-25_10h04.01.692,MSI_AV_v3,2022.1.1,59.74632903613553,
21,0,21,0,,,,,,,,,,0,2,3,b,63,1,2.629554641171433,0.974903167432984,None,304.0911549,None,305.0744691,None,305.0744691,None,305.07435307999987,None,['b'],305.0744691,None,None,,307.07340139999997,None,b,1.6682382000001326,1,1,0.8181818181818182,309.71168710000006,None,None,309.71168710000006,None,[1.6682382000001326],,,,,,,,,,,,,,,,,,CBC_1017,003,3,3,5,16,0.95,2023-06-25_10h04.01.692,MSI_AV_v3,2022.1.1,59.74632903613553,
22,0,22,0,,,,,,,,,,2,1,0,z,63,1,3.7500315165247198,3.40155979865722,None,311.5247081,None,314.9409106999999,None,314.9409106999999,None,314.94126697999997,None,['z'],314.9409106999999,None,None,,316.9432752,None,z,1.2449072999997952,1,1,0.8260869565217391,320.69667019999997,None,None,320.69667019999997,None,[1.2449072999997952],,,,,,,,,,,,,,,,,,CBC_1017,003,3,3,5,16,0.95,2023-06-25_10h04.01.692,MSI_AV_v3,2022.1.1,59.74632903613553,
23,0,23,0,,,,,,,,,,3,1,2,b,9,1,4.01714354611405,1.95130344756745,None,322.50764789999994,None,324.4752229999999,None,324.4752229999999,None,324.47458508000005,None,None,324.4752229999999,None,['b'],[0.08357839999985117],326.45784460000004,None,b,2.083578399999851,1,1,0.8333333333333334,330.4597136,None,None,330.4597136,None,,,,,,,,,,,,,,,,,,,CBC_1017,003,3,3,5,16,0.95,2023-06-25_10h04.01.692,MSI_AV_v3,2022.1.1,59.74632903613553,
24,0,24,0,,,,,,,,,,0,3,2,z,63,1,2.496959177995529,2.15533949826702,None,332.27477369999997,None,334.4408598,None,334.4408598,None,334.44130007999985,None,None,334.4408598,None,['z'],[0.8398531000000276],336.4245748999999,None,z,2.8398531000000276,1,1,0.84,338.91491500000006,None,None,338.91491500000006,None,,,,,,,,,,,,,,,,,,,CBC_1017,003,3,3,5,16,0.95,2023-06-25_10h04.01.692,MSI_AV_v3,2022.1.1,59.74632903613553,
25,0,25,0,,,,,,,,,,1,3,2,b,63,1,2.792365600763554,3.1963008326951,None,340.7246961000001,None,343.94215869999994,None,343.94215869999994,None,343.94128368,None,['b'],343.94215869999994,None,None,,345.93976580000003,None,b,1.5155893999999535,1,1,0.8461538461538461,348.7315615,None,None,348.7315615,None,[1.5155893999999535],,,,,,,,,,,,,,,,,,CBC_1017,003,3,3,5,16,0.95,2023-06-25_10h04.01.692,MSI_AV_v3,2022.1.1,59.74632903613553,
26,0,26,0,,,,,,,,,,3,1,0,b,63,1,4.190022164497369,1.25817747924478,None,350.54135440000005,None,351.80600030000005,None,351.80600030000005,None,351.8075870799999,None,['b'],351.80600030000005,None,None,,353.80519149999986,None,b,1.411302599999999,1,1,0.8518518518518519,358.00655430000006,None,None,358.00655430000006,None,[1.411302599999999],,,,,,,,,,,,,,,,,,CBC_1017,003,3,3,5,16,0.95,2023-06-25_10h04.01.692,MSI_AV_v3,2022.1.1,59.74632903613553,
27,0,27,0,,,,,,,,,,2,2,0,z,27,1,2.92731383428727,1.36309078069689,None,359.80812689999993,None,361.1946519999999,None,361.1946519999999,None,361.19140858,None,['z'],361.1946519999999,None,None,,363.1904889,None,z,1.4873846999998932,1,1,0.8571428571428571,366.13287620000006,None,None,366.13287620000006,None,[1.4873846999998932],,,,,,,,,,,,,,,,,,CBC_1017,003,3,3,5,16,0.95,2023-06-25_10h04.01.692,MSI_AV_v3,2022.1.1,59.74632903613553,
28,0,28,0,,,,,,,,,,1,3,1,b,27,1,3.6438386551209,3.1424449555106,None,367.9413468,None,371.0950783999999,None,371.0950783999999,None,371.10804344,None,['b'],371.0950783999999,None,None,,373.094151,None,b,1.8804949000000306,1,1,0.8620689655172413,376.74899989999994,None,None,376.74899989999994,None,[1.8804949000000306],,,,,,,,,,,,,,,,,,CBC_1017,003,3,3,5,16,0.95,2023-06-25_10h04.01.692,MSI_AV_v3,2022.1.1,59.74632903613553,
29,0,29,0,,,,,,,,,,2,0,1,b,63,1,2.6391747348430608,2.10421507306074,None,378.5580708,None,380.68038690000003,None,380.68038690000003,None,380.69137283999993,None,['b'],380.68038690000003,None,None,,382.6774912000001,None,b,1.4881857999998829,1,1,0.8666666666666667,385.33003770000005,None,None,385.33003770000005,None,[1.4881857999998829],,,,,,,,,,,,,,,,,,CBC_1017,003,3,3,5,16,0.95,2023-06-25_10h04.01.692,MSI_AV_v3,2022.1.1,59.74632903613553,
30,0,30,0,,,,,,,,,,0,0,2,z,27,1,4.77723667052879,1.21250262048173,None,387.14235800000006,None,388.3803713,None,388.3803713,None,388.39141753999996,None,['z'],388.3803713,None,None,,390.37747149999996,None,z,1.3980317000000468,1,1,0.8709677419354839,395.16542849999996,None,None,395.16542849999996,None,[1.3980317000000468],,,,,,,,,,,,,,,,,,CBC_1017,003,3,3,5,16,0.95,2023-06-25_10h04.01.692,MSI_AV_v3,2022.1.1,59.74632903613553,
31,0,31,0,,,,,,,,,,1,3,2,b,63,1,2.433630701072358,1.53243550275999,None,396.9748568,None,398.52932510000005,None,398.52932510000005,None,398.54136293999994,None,['b'],398.52932510000005,None,None,,400.5276028999999,None,b,1.5784661000000142,1,1,0.875,402.96341830000006,None,None,402.96341830000006,None,[1.5784661000000142],,,,,,,,,,,,,,,,,,CBC_1017,003,3,3,5,16,0.95,2023-06-25_10h04.01.692,MSI_AV_v3,2022.1.1,59.74632903613553,
32,0,32,0,,,,,,,,,,3,0,1,z,63,1,3.26539063535182,2.96653053743745,None,404.77484589999995,None,407.76089509999997,None,407.76089509999997,None,407.7582321799999,None,None,407.76089509999997,None,['z'],[0.34444860000007793],409.74167009999996,None,z,2.344448600000078,1,1,0.8787878787878788,412.99803599999996,None,None,412.99803599999996,None,,,,,,,,,,,,,,,,,,,CBC_1017,003,3,3,5,16,0.95,2023-06-25_10h04.01.692,MSI_AV_v3,2022.1.1,59.74632903613553,
33,0,33,0,,,,,,,,,,2,1,0,z,63,1,4.40017271499661,1.52290599571961,None,414.8083257999999,None,416.34648949999996,None,416.34648949999996,None,416.35815113999996,None,['z'],416.34648949999996,None,None,,418.3435135,None,z,1.2163101000001006,1,1,0.8823529411764706,422.7486888000001,None,None,422.7486888000001,None,[1.2163101000001006],,,,,,,,,,,,,,,,,,CBC_1017,003,3,3,5,16,0.95,2023-06-25_10h04.01.692,MSI_AV_v3,2022.1.1,59.74632903613553,
34,0,34,0,,,,,,,,,,1,3,2,b,63,0,3.2062024266105302,0.979776149765883,None,424.5582778999999,None,425.5616064999999,None,425.5616064999999,None,425.55809187999995,None,['b'],425.5616064999999,None,None,,427.55933359999995,None,b,1.8980784999998832,1,0,0.8857142857142857,430.7627147999999,None,None,430.7627147999999,None,[1.8980784999998832],,,,,,,,,,,,,,,,,,CBC_1017,003,3,3,5,16,0.95,2023-06-25_10h04.01.692,MSI_AV_v3,2022.1.1,59.74632903613553,
35,0,35,0,,,,,,,,,,0,0,2,z,27,1,2.7134565917469198,2.09887870490381,None,432.5749940999999,None,434.6971836,None,434.6971836,None,434.7082314399999,None,None,434.6971836,None,['z'],[1.1062197999999626],436.6748671999999,None,z,3.1062197999999626,1,1,0.8888888888888888,439.3708253,None,None,439.3708253,None,,,,,,,,,,,,,,,,,,,CBC_1017,003,3,3,5,16,0.95,2023-06-25_10h04.01.692,MSI_AV_v3,2022.1.1,59.74632903613553,
36,0,36,0,,,,,,,,,,2,1,0,z,63,1,4.77034425507967,1.38289892513751,None,441.1750241,None,442.5680778000001,None,442.5680778000001,None,442.55764632,None,['z'],442.5680778000001,None,None,,444.5586234,None,z,1.6072741999998925,1,1,0.8918918918918919,449.33210639999993,None,None,449.33210639999993,None,[1.6072741999998925],,,,,,,,,,,,,,,,,,CBC_1017,003,3,3,5,16,0.95,2023-06-25_10h04.01.692,MSI_AV_v3,2022.1.1,59.74632903613553,
37,0,37,0,,,,,,,,,,3,3,1,z,27,1,3.71372710086949,2.78346932462847,None,451.1424164,None,453.9466752999999,None,453.9466752999999,None,453.9582483399999,None,None,453.9466752999999,None,['z'],[0.7838323999999375],455.9257405999999,None,z,2.7838323999999375,1,1,0.8947368421052632,459.6191775,None,None,459.6191775,None,,,,,,,,,,,,,,,,,,,CBC_1017,003,3,3,5,16,0.95,2023-06-25_10h04.01.692,MSI_AV_v3,2022.1.1,59.74632903613553,
38,0,38,0,,,,,,,,,,0,2,3,b,63,1,4.72585056748869,1.43470440954152,None,461.4249683999999,None,462.88096999999993,None,462.88096999999993,None,462.8916576399999,None,['b'],462.88096999999993,None,None,,464.8838776,None,b,1.5182927999999265,1,1,0.8974358974358975,469.6152347,None,None,469.6152347,None,[1.5182927999999265],,,,,,,,,,,,,,,,,,CBC_1017,003,3,3,5,16,0.95,2023-06-25_10h04.01.692,MSI_AV_v3,2022.1.1,59.74632903613553,
39,0,39,0,,,,,,,,,,1,2,3,z,63,1,2.517541937862754,1.78643585472448,None,471.42506449999996,None,473.23047559999986,None,473.23047559999986,None,473.24168493999986,None,None,473.23047559999986,None,['z'],[0.15980839999997443],475.2083726000001,None,z,2.1598083999999744,1,1,0.9,477.71807409999997,None,None,477.71807409999997,None,,,,,,,,,,,,,,,,,,,CBC_1017,003,3,3,5,16,0.95,2023-06-25_10h04.01.692,MSI_AV_v3,2022.1.1,59.74632903613553,
40,0,40,0,,,,,,,,,,3,1,0,b,63,1,3.31929419319838,3.33124983260532,None,479.52522780000004,None,482.8794877,None,482.8794877,None,482.89167133999985,None,None,482.8794877,None,['b'],[0.20147079999992457],484.85847190000004,None,b,2.2014707999999246,1,1,0.9024390243902439,488.16063029999987,None,None,488.16063029999987,None,,,,,,,,,,,,,,,,,,,CBC_1017,003,3,3,5,16,0.95,2023-06-25_10h04.01.692,MSI_AV_v3,2022.1.1,59.74632903613553,
41,0,41,0,,,,,,,,,,2,0,2,b,27,1,2.526044641065533,1.18065738546375,None,489.97507789999986,None,491.1621622,None,491.1621622,None,491.17495574000003,None,['b'],491.1621622,None,['b'],[0.06303030000003673],493.1588348,None,b,1.1333482000000004,1,1,0.9047619047619048,495.6980335999999,None,None,495.6980335999999,None,[1.1333482000000004],,,,,,,,,,,,,,,,,,CBC_1017,003,3,3,5,16,0.95,2023-06-25_10h04.01.692,MSI_AV_v3,2022.1.1,59.74632903613553,
42,0,42,0,,,,,,,,,,1,0,3,z,9,1,4.82531807167306,2.40378712856304,None,497.5083468,None,499.93113930000004,None,499.93113930000004,None,499.9416648399999,None,['z'],499.93113930000004,None,None,,501.90918880000004,None,z,1.4430523999999423,1,1,0.9069767441860465,506.7410359999999,None,None,506.7410359999999,None,[1.4430523999999423],,,,,,,,,,,,,,,,,,CBC_1017,003,3,3,5,16,0.95,2023-06-25_10h04.01.692,MSI_AV_v3,2022.1.1,59.74632903613553,
43,0,43,0,,,,,,,,,,0,2,3,b,63,1,3.3728785608729996,0.952147612306987,None,508.54234470000006,None,509.49151329999995,None,509.49151329999995,None,509.4910669200001,None,['b'],509.49151329999995,None,None,,511.49690310000005,None,b,1.3095041999999921,1,1,0.9090909090909091,514.8577594000001,None,None,514.8577594000001,None,[1.3095041999999921],,,,,,,,,,,,,,,,,,CBC_1017,003,3,3,5,16,0.95,2023-06-25_10h04.01.692,MSI_AV_v3,2022.1.1,59.74632903613553,
,,,,,,,,,,,,,,,,,,,,,,,,,,,,,,,,,,,,,,,,,,,,,,,,None,516.6585069999999,None,,,,,,,,,,,,,,,CBC_1017,003,3,3,5,16,0.95,2023-06-25_10h04.01.692,MSI_AV_v3,2022.1.1,59.74632903613553,
,,,,,,,,,,,,,,,,,,,,,,,,,,,,,,,,,,,,,,,,,,,,,,,,,,,521.6585646999999,None,None,521.6585646999999,None,,,,,,,,,,CBC_1017,003,3,3,5,16,0.95,2023-06-25_10h04.01.692,MSI_AV_v3,2022.1.1,59.74632903613553,
,,,,,,,,,,,,,,,,,,,,,,,,,,,,,,,,,,,,,,,,,,,,,,,,,,,,,,,,z,b,hard,"[0, 1, 2, 3]","[2, 3, 0, 1]",0.7272727272727273,0.9090909090909091,1.0,1.0,,,,,,,,,,,,
