trials_runs.thisRepN,trials_runs.thisTrialN,trials_runs.thisN,trials_runs.thisIndex,standbild_start.started,standbild_start.stopped,trigger.keys,trigger.rt,trigger.started,trigger.stopped,keys_2.keys,keys_2.started,keys_2.stopped,trials_runs.tactile_stim,trials_runs.visual_stim_left,trials_runs.visual_stim_right,trials_runs.correctKey,trials_runs.presentationFrequncy,trials_runs.FBaccuracy,trials_runs.ISI_s,trials_runs.ITI_s,keys_3.keys,keys_3.started,keys_3.stopped,image_stim_left.started,image_stim_right.started,tactile.started,response_4.keys,allKeys.keys,response_4.rt,allKeys.rt,response_5.keys,response_5.started,response_5.stopped,response_runs.keys,response_runs.rt,trials_runs.correct_answer,trials_runs.feedback_given,trials_runs.running_mean,feedback_6.stopped,feedback_6.started,keys_6.keys,keys_6.started,keys_6.stopped,response_5.rt,keys_7.keys,keys_7.started,keys_7.stopped,standbild_end.started,standbild_end.stopped,Stop_exp.keys,Stop_exp.started,Stop_exp.stopped,trials_runs.rightKey,trials_runs.leftKey,ts_difficulty,visualPair,tactilePair,trials_runs.mean_acc_1stFourth,trials_runs.mean_acc_2ndFourth,trials_runs.mean_acc_3rdFourth,trials_runs.mean_acc_4thFourth,nbCorrect,nbOmissions,nbIncorrect,participant,session,visual set [1-6],tactile set [1-3],trial structure [0-3 / 4-7],pairing [0-23],prob Feedback,date,expName,psychopyVersion,frameRate,
,,,,258.3438973000011,None,t,55.18311490000269,258.3438973000011,None,,,,,,,,,,,,,,,,,,,,,,,,,,,,,,,,,,,,,,,,,,,,,,,,,,,,,,,,CBC_1051,003,2,1,7,6,0.95,2024-05-03_17h13.22.033,MSI_TV_v3,2022.1.1,60.03709091456827,
,,,,,,,,,,None,313.5483702999991,None,,,,,,,,,,,,,,,,,,,,,,,,,,,,,,,,,,,,,,,,,,,,,,,,,,,,,CBC_1051,003,2,1,7,6,0.95,2024-05-03_17h13.22.033,MSI_TV_v3,2022.1.1,60.03709091456827,
0,0,0,0,,,,,,,,,,0,0.0,1.0,z,63.0,1.0,3.68371079902891,0.952147612306987,None,313.7484774000004,None,314.6817791900019,314.6817791900019,314.6982616900012,b,['b'],1.4511149999998452,[1.4511149999998452],None,316.72621770000114,None,b,1.4511149999998452,0,0,0.0,None,320.4287559000004,None,320.4287559000004,None,,,,,,,,,,,,,,,,,,,,,,CBC_1051,003,2,1,7,6,0.95,2024-05-03_17h13.22.033,MSI_TV_v3,2022.1.1,60.03709091456827,
1,0,1,0,,,,,,,,,,1,1.0,0.0,z,63.0,1.0,4.190022164497369,1.1243895841892,None,322.1985276000014,None,323.29858938999934,323.29858938999934,323.3154895899996,None,[],,,['z'],325.30435450000004,None,z,2.7080678999991505,1,1,0.5,None,329.48852009999973,None,329.48852009999973,None,[0.7080678999991505],,,,,,,,,,,,,,,,,,,,,CBC_1051,003,2,1,7,6,0.95,2024-05-03_17h13.22.033,MSI_TV_v3,2022.1.1,60.03709091456827,
2,0,2,0,,,,,,,,,,2,2.0,1.0,b,9.0,1.0,2.526044641065533,1.64421109900286,None,331.2986583999991,None,332.9151066900002,332.9151066900002,332.931768690002,None,[],,,['b'],334.9216852999998,None,b,2.622592799998529,1,1,0.6666666666666666,None,337.44036680000136,None,337.44036680000136,None,[0.6225927999985288],,,,,,,,,,,,,,,,,,,,,CBC_1051,003,2,1,7,6,0.95,2024-05-03_17h13.22.033,MSI_TV_v3,2022.1.1,60.03709091456827,
3,0,3,0,,,,,,,,,,1,0.0,1.0,b,63.0,1.0,2.678526077912375,1.36309078069689,None,339.24843930000134,None,340.58184089000025,340.58184089000025,340.59923678999877,None,[],,,['b'],342.58866540000236,None,b,2.3687339999996766,1,1,0.75,None,345.25738869999986,None,345.25738869999986,None,[0.3687339999996766],,,,,,,,,,,,,,,,,,,,,CBC_1051,003,2,1,7,6,0.95,2024-05-03_17h13.22.033,MSI_TV_v3,2022.1.1,60.03709091456827,
4,0,4,0,,,,,,,,,,3,1.0,3.0,z,27.0,1.0,4.46924002178158,3.24569326556923,None,347.06525460000194,None,350.2820147900009,350.2820147900009,350.29856849000026,None,[],,,['z'],352.2854444000004,None,z,2.5193155000015395,1,1,0.8,None,356.7618392000004,None,356.7618392000004,None,[0.5193155000015395],,,,,,,,,,,,,,,,,,,,,CBC_1051,003,2,1,7,6,0.95,2024-05-03_17h13.22.033,MSI_TV_v3,2022.1.1,60.03709091456827,
5,0,5,0,,,,,,,,,,0,1.0,0.0,b,63.0,1.0,4.52047235037039,3.1424449555106,None,358.5658024000004,None,361.68180259000184,361.68180259000184,361.69845438999874,None,[],,,['b'],363.6869297000012,None,b,2.903565200002049,1,1,0.8333333333333334,None,368.2004087000023,None,368.2004087000023,None,[0.9035652000020491],,,,,,,,,,,,,,,,,,,,,CBC_1051,003,2,1,7,6,0.95,2024-05-03_17h13.22.033,MSI_TV_v3,2022.1.1,60.03709091456827,
6,0,6,0,,,,,,,,,,2,3.0,2.0,z,63.0,1.0,2.496959177995529,1.18065738546375,None,370.0151919000018,None,371.18244189000217,371.18244189000217,371.1983561900004,None,[],,,['z'],373.1852503000009,None,z,3.3392161000010674,1,1,0.8571428571428571,None,375.6987773000001,None,375.6987773000001,None,[1.3392161000010674],,,,,,,,,,,,,,,,,,,,,CBC_1051,003,2,1,7,6,0.95,2024-05-03_17h13.22.033,MSI_TV_v3,2022.1.1,60.03709091456827,
7,0,7,0,,,,,,,,,,1,0.0,2.0,b,27.0,1.0,3.31929419319838,3.06992456303453,None,377.49846190000244,None,380.5483778900005,380.5483778900005,380.5651976899997,None,[],,,['b'],382.55359560000215,None,b,2.9412957999993523,1,1,0.875,None,385.8671580000009,None,385.8671580000009,None,[0.9412957999993523],,,,,,,,,,,,,,,,,,,,,CBC_1051,003,2,1,7,6,0.95,2024-05-03_17h13.22.033,MSI_TV_v3,2022.1.1,60.03709091456827,
8,0,8,0,,,,,,,,,,3,2.0,3.0,z,63.0,1.0,4.01714354611405,1.27538462653558,None,387.6819269000007,None,388.93187479000227,388.93187479000227,388.94842578999925,None,[],,,['z'],390.9383353000012,None,z,3.590579699997761,1,1,0.8888888888888888,None,394.9481880000021,None,394.9481880000021,None,[1.590579699997761],,,,,,,,,,,,,,,,,,,,,CBC_1051,003,2,1,7,6,0.95,2024-05-03_17h13.22.033,MSI_TV_v3,2022.1.1,60.03709091456827,
9,0,9,0,,,,,,,,,,0,1.0,3.0,b,27.0,1.0,2.91303524001082,1.53243550275999,None,396.748475299999,None,398.26512239000186,398.26512239000186,398.28180889000106,None,[],,,['z'],400.2704450000019,None,z,2.709797899999103,0,0,0.8,None,403.1794986999994,None,403.1794986999994,None,[0.7097978999991028],,,,,,,,,,,,,,,,,,,,,CBC_1051,003,2,1,7,6,0.95,2024-05-03_17h13.22.033,MSI_TV_v3,2022.1.1,60.03709091456827,
10,0,10,0,,,,,,,,,,2,2.0,3.0,b,63.0,1.0,4.40017271499661,0.761758675042088,None,404.98239340000146,None,405.7153637899999,405.7153637899999,405.7320231900001,None,[],,,"['z', 'b']",407.72164189999967,None,z,2.2516531000001123,0,0,0.7272727272727273,None,412.1099219000025,None,412.1099219000025,None,"[0.2516531000001123, 2.457617600000958]",,,,,,,,,,,,,,,,,,,,,CBC_1051,003,2,1,7,6,0.95,2024-05-03_17h13.22.033,MSI_TV_v3,2022.1.1,60.03709091456827,
11,0,11,0,,,,,,,,,,0,3.0,1.0,z,27.0,1.0,3.35133458220192,2.40378712856304,None,413.91523400000005,None,416.2984156900009,416.2984156900009,416.3149461900019,z,['z'],1.8139749000001757,[1.8139749000001757],None,418.33993100000225,None,z,1.8139749000001757,1,1,0.75,None,421.69581520000065,None,421.69581520000065,None,,,,,,,,,,,,,,,,,,,,,,CBC_1051,003,2,1,7,6,0.95,2024-05-03_17h13.22.033,MSI_TV_v3,2022.1.1,60.03709091456827,
12,0,12,0,,,,,,,,,,2,2.0,3.0,b,63.0,1.0,3.76873691643126,1.25920145784721,None,423.49876140000197,None,424.7319550900018,424.7319550900018,424.74860019000226,None,[],,,['b'],426.7357529000001,None,b,2.3707158000033814,1,1,0.7692307692307693,None,430.5072208999991,None,430.5072208999991,None,[0.37071580000338145],,,,,,,,,,,,,,,,,,,,,CBC_1051,003,2,1,7,6,0.95,2024-05-03_17h13.22.033,MSI_TV_v3,2022.1.1,60.03709091456827,
13,0,13,0,,,,,,,,,,3,2.0,3.0,z,63.0,1.0,2.629554641171433,0.979776149765883,None,432.31517090000125,None,433.2655860900002,433.2655860900002,433.2822289900021,None,[],,,['z'],435.2692997000013,None,z,2.462857800001075,1,1,0.7857142857142857,None,437.89942190000147,None,437.89942190000147,None,[0.4628578000010748],,,,,,,,,,,,,,,,,,,,,CBC_1051,003,2,1,7,6,0.95,2024-05-03_17h13.22.033,MSI_TV_v3,2022.1.1,60.03709091456827,
14,0,14,0,,,,,,,,,,1,3.0,0.0,z,9.0,1.0,4.12485271162806,3.4543169006169,None,439.6988014000017,None,443.13210429000065,443.13210429000065,443.1488073899989,None,[],,,['z'],445.1373338000012,None,z,2.5266719999999623,1,1,0.8,None,449.2626278000025,None,449.2626278000025,None,[0.5266719999999623],,,,,,,,,,,,,,,,,,,,,CBC_1051,003,2,1,7,6,0.95,2024-05-03_17h13.22.033,MSI_TV_v3,2022.1.1,60.03709091456827,
15,0,15,0,,,,,,,,,,0,1.0,0.0,b,63.0,0.0,2.517541937862754,1.38289892513751,None,451.0654805000013,None,452.43219099000163,452.43219099000163,452.448721890002,None,[],,,['z'],454.4395420000001,None,z,2.745629800003371,0,1,0.75,None,456.95149110000057,None,456.95149110000057,None,[0.7456298000033712],,,,,,,,,,,,,,,,,,,,,CBC_1051,003,2,1,7,6,0.95,2024-05-03_17h13.22.033,MSI_TV_v3,2022.1.1,60.03709091456827,
16,0,16,0,,,,,,,,,,3,3.0,2.0,b,63.0,1.0,3.02234236141277,1.43470440954152,None,458.76556730000084,None,460.1821372900002,460.1821372900002,460.198708990002,None,[],,,['b'],462.1864902000016,None,b,2.5090092999998888,1,1,0.7647058823529411,None,465.1990418000023,None,465.1990418000023,None,[0.5090092999998888],,,,,,,,,,,,,,,,,,,,,CBC_1051,003,2,1,7,6,0.95,2024-05-03_17h13.22.033,MSI_TV_v3,2022.1.1,60.03709091456827,
17,0,17,0,,,,,,,,,,2,2.0,0.0,b,27.0,1.0,2.592312596923728,1.95130344756745,None,466.99886250000054,None,468.93193289000084,468.93193289000084,468.9484983899991,z,['z'],1.9253559000026144,[1.9253559000026144],['b'],470.9744580000006,None,z,1.9253559000026144,0,0,0.7222222222222222,None,473.5771703999999,None,473.5771703999999,None,[1.369852500003617],,,,,,,,,,,,,,,,,,,,,CBC_1051,003,2,1,7,6,0.95,2024-05-03_17h13.22.033,MSI_TV_v3,2022.1.1,60.03709091456827,
18,0,18,0,,,,,,,,,,1,1.0,0.0,z,63.0,1.0,2.2759877950103027,2.6299100644723,None,475.3816446000019,None,477.98230029000007,477.98230029000007,477.99870239000194,None,[],,,['z'],479.98601079999935,None,z,2.4743849000042246,1,1,0.7368421052631579,None,482.26165369999944,None,482.26165369999944,None,[0.4743849000042246],,,,,,,,,,,,,,,,,,,,,CBC_1051,003,2,1,7,6,0.95,2024-05-03_17h13.22.033,MSI_TV_v3,2022.1.1,60.03709091456827,
19,0,19,0,,,,,,,,,,0,0.0,1.0,z,63.0,1.0,4.61004669244928,1.94858485820231,None,484.06592060000185,None,485.99928939000057,485.99928939000057,486.01589249000136,None,[],,,['b'],488.00360830000136,None,b,3.801182000002882,0,0,0.7,None,492.6116116000012,None,492.6116116000012,None,[1.801182000002882],,,,,,,,,,,,,,,,,,,,,CBC_1051,003,2,1,7,6,0.95,2024-05-03_17h13.22.033,MSI_TV_v3,2022.1.1,60.03709091456827,
20,0,20,0,,,,,,,,,,3,3.0,1.0,b,27.0,1.0,2.693348633324513,2.96653053743745,None,494.4154382000015,None,497.36585708999957,497.36585708999957,497.38237158999874,None,[],,,['b'],499.3719708000026,None,b,4.18418820000079,1,1,0.7142857142857143,None,502.0587336000026,None,502.0587336000026,None,[2.18418820000079],,,,,,,,,,,,,,,,,,,,,CBC_1051,003,2,1,7,6,0.95,2024-05-03_17h13.22.033,MSI_TV_v3,2022.1.1,60.03709091456827,
21,0,21,0,,,,,,,,,,2,2.0,3.0,b,63.0,1.0,4.82531807167306,1.12425433982333,None,503.86574499999915,None,504.9656556899998,504.9656556899998,504.98263479000053,None,[],,,['b'],506.9699103000021,None,b,2.0253048999984458,1,1,0.7272727272727273,None,511.79268840000077,None,511.79268840000077,None,[0.025304899998445762],,,,,,,,,,,,,,,,,,,,,CBC_1051,003,2,1,7,6,0.95,2024-05-03_17h13.22.033,MSI_TV_v3,2022.1.1,60.03709091456827,
22,0,22,0,,,,,,,,,,1,1.0,0.0,z,63.0,1.0,4.77723667052879,1.96568735158996,None,513.5988355000009,None,515.5491328900014,515.5491328900014,515.5659081900001,None,[],,,['z'],517.5577875000017,None,z,2.4622610000005807,1,1,0.7391304347826086,None,522.3229114999995,None,522.3229114999995,None,[0.4622610000005807],,,,,,,,,,,,,,,,,,,,,CBC_1051,003,2,1,7,6,0.95,2024-05-03_17h13.22.033,MSI_TV_v3,2022.1.1,60.03709091456827,
23,0,23,0,,,,,,,,,,3,3.0,2.0,b,63.0,1.0,2.82320408183943,2.49839527409216,None,524.1312586999993,None,526.5983557899988,526.5983557899988,526.61508699,None,[],,,['b'],528.6023346000002,None,b,2.350337699997908,1,1,0.75,None,531.4302753000011,None,531.4302753000011,None,[0.3503376999979082],,,,,,,,,,,,,,,,,,,,,CBC_1051,003,2,1,7,6,0.95,2024-05-03_17h13.22.033,MSI_TV_v3,2022.1.1,60.03709091456827,
24,0,24,0,,,,,,,,,,2,0.0,2.0,z,27.0,1.0,4.7533305109883095,3.33124983260532,None,533.2322372000017,None,536.5494277900023,536.5494277900023,536.5658867900008,None,[],,,['z'],538.5475298000019,None,z,2.475037500000326,1,1,0.76,None,543.3148527000012,None,543.3148527000012,None,[0.47503750000032596],,,,,,,,,,,,,,,,,,,,,CBC_1051,003,2,1,7,6,0.95,2024-05-03_17h13.22.033,MSI_TV_v3,2022.1.1,60.03709091456827,
25,0,25,0,,,,,,,,,,1,1.0,0.0,z,63.0,1.0,4.11514536789087,2.10421507306074,None,545.1157034000025,None,547.1991390899991,547.1991390899991,547.2162371900001,None,[],,,['z'],549.2040051000004,None,z,3.0292711000001873,1,1,0.7692307692307693,None,553.3168296000003,None,553.3168296000003,None,[1.0292711000001873],,,,,,,,,,,,,,,,,,,,,CBC_1051,003,2,1,7,6,0.95,2024-05-03_17h13.22.033,MSI_TV_v3,2022.1.1,60.03709091456827,
26,0,26,0,,,,,,,,,,0,3.0,1.0,z,27.0,1.0,2.342239579230602,1.52290599571961,None,555.1322789000005,None,556.6329197900002,556.6329197900002,556.6495366900006,None,[],,,['z'],558.6397517000005,None,z,2.758454200004053,1,1,0.7777777777777778,None,560.9753158999993,None,560.9753158999993,None,[0.7584542000040528],,,,,,,,,,,,,,,,,,,,,CBC_1051,003,2,1,7,6,0.95,2024-05-03_17h13.22.033,MSI_TV_v3,2022.1.1,60.03709091456827,
27,0,27,0,,,,,,,,,,2,2.0,3.0,b,63.0,1.0,4.77034425507967,1.34668860557497,None,562.7826129000023,None,564.1146979899993,564.1146979899993,564.1315396900015,b,['b'],1.6349598000015249,[1.6349598000015249],None,566.1512618000015,None,b,1.6349598000015249,1,1,0.7857142857142857,None,570.9295663000012,None,570.9295663000012,None,,,,,,,,,,,,,,,,,,,,,,CBC_1051,003,2,1,7,6,0.95,2024-05-03_17h13.22.033,MSI_TV_v3,2022.1.1,60.03709091456827,
28,0,28,0,,,,,,,,,,3,2.0,3.0,z,63.0,1.0,3.73326136168326,1.53122835510861,None,572.7320355000011,None,574.2481436900005,574.2481436900005,574.2647536899992,None,[],,,['z'],576.246526400002,None,z,2.5785947000003944,1,1,0.7931034482758621,None,579.9893787000001,None,579.9893787000001,None,[0.5785947000003944],,,,,,,,,,,,,,,,,,,,,CBC_1051,003,2,1,7,6,0.95,2024-05-03_17h13.22.033,MSI_TV_v3,2022.1.1,60.03709091456827,
29,0,29,0,,,,,,,,,,0,1.0,0.0,b,63.0,1.0,2.294664843639333,2.78346932462847,None,581.7992061000004,None,584.5657659900014,584.5657659900014,584.582581190002,None,[],,,['b'],586.5718902000008,None,b,2.6878963000017393,1,1,0.8,None,588.8678103999991,None,588.8678103999991,None,[0.6878963000017393],,,,,,,,,,,,,,,,,,,,,CBC_1051,003,2,1,7,6,0.95,2024-05-03_17h13.22.033,MSI_TV_v3,2022.1.1,60.03709091456827,
30,0,30,0,,,,,,,,,,1,0.0,2.0,b,27.0,1.0,2.792365600763554,1.25817747924478,None,590.6828962,None,591.9160653899987,591.9160653899987,591.932570390002,None,[],,,['b'],593.9224423000014,None,b,2.341525499999989,1,1,0.8064516129032258,None,596.7020890999993,None,596.7020890999993,None,[0.3415254999999888],,,,,,,,,,,,,,,,,,,,,CBC_1051,003,2,1,7,6,0.95,2024-05-03_17h13.22.033,MSI_TV_v3,2022.1.1,60.03709091456827,
31,0,31,0,,,,,,,,,,3,0.0,3.0,z,9.0,1.0,3.2062024266105302,2.22427187882546,None,598.5159910000002,None,600.7163252900016,600.7163252900016,600.7331418900019,None,[],,,['z'],602.7209141999992,None,z,2.844193000000814,1,1,0.8125,None,605.9311175000003,None,605.9311175000003,None,[0.8441930000008142],,,,,,,,,,,,,,,,,,,,,CBC_1051,003,2,1,7,6,0.95,2024-05-03_17h13.22.033,MSI_TV_v3,2022.1.1,60.03709091456827,
32,0,32,0,,,,,,,,,,2,2.0,3.0,b,63.0,1.0,2.7134565917469198,0.80788063606262,None,607.7328892000005,None,608.5163504899999,608.5163504899999,608.5330233900011,b,['b'],1.9206960999981675,[1.9206960999981675],None,610.5621947,None,b,1.9206960999981675,1,1,0.8181818181818182,None,613.2784384000006,None,613.2784384000006,None,,,,,,,,,,,,,,,,,,,,,,CBC_1051,003,2,1,7,6,0.95,2024-05-03_17h13.22.033,MSI_TV_v3,2022.1.1,60.03709091456827,
33,0,33,0,,,,,,,,,,0,1.0,0.0,b,63.0,1.0,3.3728785608729996,0.974903167432984,None,615.0814907000022,None,616.032654190002,616.032654190002,616.0494647900002,None,[],,,None,618.0383942000008,None,None,[],0,3,0.7941176470588235,None,621.4074043,None,621.4074043,None,,,,,,,,,,,,,,,,,,,,,,CBC_1051,003,2,1,7,6,0.95,2024-05-03_17h13.22.033,MSI_TV_v3,2022.1.1,60.03709091456827,
34,0,34,0,,,,,,,,,,1,1.0,0.0,z,63.0,0.0,2.6391747348430608,1.60731937853708,None,623.2159348000023,None,624.7994339900022,624.7994339900022,624.8158084900012,None,[],,,['z'],626.8041479000021,None,z,2.2771695999981603,1,0,0.8,None,629.439609699999,None,629.439609699999,None,[0.27716959999816027],,,,,,,,,,,,,,,,,,,,,CBC_1051,003,2,1,7,6,0.95,2024-05-03_17h13.22.033,MSI_TV_v3,2022.1.1,60.03709091456827,
35,0,35,0,,,,,,,,,,3,3.0,2.0,b,63.0,1.0,2.433630701072358,2.09887870490381,None,631.2492973000008,None,633.332595390001,633.332595390001,633.3493345900013,None,[],,,['b'],635.335959,None,b,2.772135700000945,1,1,0.8055555555555556,None,637.7808431000012,None,637.7808431000012,None,[0.7721357000009448],,,,,,,,,,,,,,,,,,,,,CBC_1051,003,2,1,7,6,0.95,2024-05-03_17h13.22.033,MSI_TV_v3,2022.1.1,60.03709091456827,
36,0,36,0,,,,,,,,,,0,2.0,1.0,z,9.0,1.0,3.6438386551209,1.90743690794447,None,639.5831072000001,None,641.4660122900011,641.4660122900011,641.4828150900018,None,[],,,['z'],643.4650599000015,None,z,3.484036300000298,1,1,0.8108108108108109,None,647.1214911999996,None,647.1214911999996,None,[1.484036300000298],,,,,,,,,,,,,,,,,,,,,CBC_1051,003,2,1,7,6,0.95,2024-05-03_17h13.22.033,MSI_TV_v3,2022.1.1,60.03709091456827,
37,0,37,0,,,,,,,,,,1,0.0,2.0,b,27.0,1.0,3.71372710086949,1.78643585472448,None,648.9328485000005,None,650.6996363900023,650.6996363900023,650.7164603900007,None,[],,,['b'],652.7055536000007,None,b,2.6488612000030116,1,1,0.8157894736842105,None,656.4146376999997,None,656.4146376999997,None,[0.6488612000030116],,,,,,,,,,,,,,,,,,,,,CBC_1051,003,2,1,7,6,0.95,2024-05-03_17h13.22.033,MSI_TV_v3,2022.1.1,60.03709091456827,
38,0,38,0,,,,,,,,,,2,3.0,2.0,z,63.0,1.0,3.26539063535182,0.77703640172831,None,658.2159291999997,None,658.9660069900008,658.9660069900008,658.9828074900022,z,['z'],1.7053772000035679,[1.7053772000035679],None,660.9876433999998,None,z,1.7053772000035679,1,1,0.8205128205128205,None,664.2638869000002,None,664.2638869000002,None,,,,,,,,,,,,,,,,,,,,,,CBC_1051,003,2,1,7,6,0.95,2024-05-03_17h13.22.033,MSI_TV_v3,2022.1.1,60.03709091456827,
39,0,39,0,,,,,,,,,,3,3.0,1.0,b,27.0,1.0,4.72585056748869,3.40155979865722,None,666.0660281000019,None,669.450050189999,669.450050189999,669.4660732899999,None,[],,,['z'],671.4498319000013,None,z,3.1098716000014974,0,0,0.8,None,676.1791722000016,None,676.1791722000016,None,[1.1098716000014974],,,,,,,,,,,,,,,,,,,,,CBC_1051,003,2,1,7,6,0.95,2024-05-03_17h13.22.033,MSI_TV_v3,2022.1.1,60.03709091456827,
40,0,40,0,,,,,,,,,,1,1.0,0.0,z,63.0,1.0,2.666404967794728,3.1963008326951,None,677.9828233000007,None,681.1495338900011,681.1495338900011,681.1665587900013,None,[],,,['b'],683.1553404000006,None,b,2.979074999999284,0,0,0.7804878048780488,None,685.8166263000021,None,685.8166263000021,None,[0.979074999999284],,,,,,,,,,,,,,,,,,,,,CBC_1051,003,2,1,7,6,0.95,2024-05-03_17h13.22.033,MSI_TV_v3,2022.1.1,60.03709091456827,
41,0,41,0,,,,,,,,,,2,2.0,0.0,b,27.0,1.0,4.53337421950507,0.917519910446003,None,687.6171275000015,None,688.5161386899988,688.5161386899988,688.5328652900014,None,[],,,['b'],690.5228420000021,None,b,2.1618097000027774,1,1,0.7857142857142857,None,695.0508453000002,None,695.0508453000002,None,[0.1618097000027774],,,,,,,,,,,,,,,,,,,,,CBC_1051,003,2,1,7,6,0.95,2024-05-03_17h13.22.033,MSI_TV_v3,2022.1.1,60.03709091456827,
42,0,42,0,,,,,,,,,,3,2.0,3.0,z,63.0,1.0,3.7500315165247198,1.21250262048173,None,696.8651793999998,None,698.0499358900004,698.0499358900004,698.0662115900002,None,[],,,['z'],700.056881200002,None,z,2.361696600000869,1,1,0.7906976744186046,None,703.798623300001,None,703.798623300001,None,[0.3616966000008688],,,,,,,,,,,,,,,,,,,,,CBC_1051,003,2,1,7,6,0.95,2024-05-03_17h13.22.033,MSI_TV_v3,2022.1.1,60.03709091456827,
43,0,43,0,,,,,,,,,,0,0.0,1.0,z,63.0,1.0,2.92731383428727,2.15533949826702,None,705.5997750999995,None,707.7332378900016,707.7332378900016,707.7498754899996,None,[],,,['z'],709.7337133000001,None,z,3.1510011999998824,1,1,0.7954545454545454,None,712.6588517000018,None,712.6588517000018,None,[1.1510011999998824],,,,,,,,,,,,,,,,,,,,,CBC_1051,003,2,1,7,6,0.95,2024-05-03_17h13.22.033,MSI_TV_v3,2022.1.1,60.03709091456827,
,,,,,,,,,,,,,,,,,,,,,,,,,,,,,,,,,,,,,,,,,,,,,None,714.4663814000014,None,,,,,,,,,,,,,,,,,,CBC_1051,003,2,1,7,6,0.95,2024-05-03_17h13.22.033,MSI_TV_v3,2022.1.1,60.03709091456827,
,,,,,,,,,,,,,,,,,,,,,,,,,,,,,,,,,,,,,,,,,,,,,,,,719.4502882000015,None,None,719.4502882000015,724.4337756000023,,,,,,,,,,,,,CBC_1051,003,2,1,7,6,0.95,2024-05-03_17h13.22.033,MSI_TV_v3,2022.1.1,60.03709091456827,
,,,,,,,,,,,,,,,,,,,,,,,,,,,,,,,,,,,,,,,,,,,,,,,,,,,,,z,b,hard,"[0, 1, 2, 3]","[1, 0, 2, 3]",0.7272727272727273,0.7272727272727273,1.0,0.7272727272727273,35,1,8,,,,,,,,,,,,
