trials_runs.thisRepN,trials_runs.thisTrialN,trials_runs.thisN,trials_runs.thisIndex,standbild_start.started,standbild_start.stopped,trigger.keys,trigger.rt,trigger.started,trigger.stopped,keys_2.keys,keys_2.started,keys_2.stopped,trials_runs.auditory_stim,trials_runs.visual_stim_left,trials_runs.visual_stim_right,trials_runs.correctKey,trials_runs.presentationFrequncy,trials_runs.FBaccuracy,trials_runs.ISI_s,trials_runs.ITI_s,keys_3.keys,keys_3.rt,keys_3.started,keys_3.stopped,ImageLeft_4.started,ImageLeft_4.stopped,ImageRight_4.started,ImageRight_4.stopped,sound_4.started,sound_4.stopped,response_4.keys,response_4.started,response_4.stopped,response_5.keys,response_5.rt,response_5.started,response_5.stopped,response_runs.keys,response_runs.rt,trials_runs.correct_answer,trials_runs.feedback_given,trials_runs.running_mean,feedback_6.started,feedback_6.stopped,keys_6.keys,keys_6.started,keys_6.stopped,response_4.rt,keys_6.rt,keys_7.keys,keys_7.started,keys_7.stopped,standbild_end.started,standbild_end.stopped,Stop_exp.keys,Stop_exp.started,Stop_exp.stopped,trials_runs.rightKey,trials_runs.leftKey,ts_difficulty,visualPair,audioPair,trials_runs.mean_acc_1stFourth,trials_runs.mean_acc_2ndFourth,trials_runs.mean_acc_3rdFourth,trials_runs.mean_acc_4thFourth,participant,session,visual set [1-6],audio set [1-3],trial structure [0-3 / 4-7],pairing [0-23],prob Feedback,date,expName,psychopyVersion,frameRate,
,,,,24.106408999999985,None,t,65.8262149000002,24.106408999999985,None,,,,,,,,,,,,,,,,,,,,,,,,,,,,,,,,,,,,,,,,,,,,,,,,,,,,,,,,,,CBC_1015,1,1,2,7,14,0.95,2023-06-25_14h04.10.751,MSI_AV_v3,2022.1.1,60.0034081931238,
,,,,,,,,,,None,89.9596066999984,None,,,,,,,,,,,,,,,,,,,,,,,,,,,,,,,,,,,,,,,,,,,,,,,,,,,,,,,CBC_1015,1,1,2,7,14,0.95,2023-06-25_14h04.10.751,MSI_AV_v3,2022.1.1,60.0034081931238,
0,0,0,0,,,,,,,,,,1,0.0,1.0,z,63.0,1.0,4.46924002178158,2.15533949826702,['b'],[1.7500988000010693],90.15967009999986,None,92.38129839999965,None,92.38129839999965,None,92.39306981999962,None,None,92.38129839999965,None,['b'],[0.5243262000021787],94.30970029999844,None,b,2.5243262000021787,0,0,0.0,98.7798774999992,None,None,98.7798774999992,None,,,,,,,,,,,,,,,,,,,,CBC_1015,1,1,2,7,14,0.95,2023-06-25_14h04.10.751,MSI_AV_v3,2022.1.1,60.0034081931238,
1,0,1,0,,,,,,,,,,2,1.0,0.0,z,63.0,1.0,2.92731383428727,2.96653053743745,None,,100.57632469999953,None,103.54274639999858,None,103.54274639999858,None,103.54214891999837,None,['z'],103.54274639999858,None,None,,105.54536779999944,None,z,1.4639270000006945,1,1,0.5,108.48297889999958,None,None,108.48297889999958,None,[1.4639270000006945],,,,,,,,,,,,,,,,,,,CBC_1015,1,1,2,7,14,0.95,2023-06-25_14h04.10.751,MSI_AV_v3,2022.1.1,60.0034081931238,
2,0,2,0,,,,,,,,,,0,2.0,1.0,b,9.0,1.0,4.7533305109883095,0.952147612306987,None,,110.29315319999841,None,111.2486259999987,None,111.2486259999987,None,111.25907517999859,None,None,111.2486259999987,None,['z'],[0.7369607000018732],113.22646769999847,None,z,2.736960700001873,0,0,0.3333333333333333,117.96945719999894,None,None,117.96945719999894,None,,,,,,,,,,,,,,,,,,,,CBC_1015,1,1,2,7,14,0.95,2023-06-25_14h04.10.751,MSI_AV_v3,2022.1.1,60.0034081931238,
3,0,3,0,,,,,,,,,,2,0.0,1.0,b,63.0,1.0,2.6391747348430608,1.43470440954152,None,,119.77631990000009,None,121.23006669999995,None,121.23006669999995,None,121.2261038799994,None,None,121.23006669999995,None,['b'],[0.26682199999959266],123.21013159999893,None,b,2.2668219999995927,1,1,0.5,125.83285179999984,None,None,125.83285179999984,None,,,,,,,,,,,,,,,,,,,,CBC_1015,1,1,2,7,14,0.95,2023-06-25_14h04.10.751,MSI_AV_v3,2022.1.1,60.0034081931238,
4,0,4,0,,,,,,,,,,3,1.0,3.0,z,27.0,1.0,3.26539063535182,1.36309078069689,None,,127.64289189999909,None,129.03158239999902,None,129.03158239999902,None,129.04295373999847,None,None,129.03158239999902,None,None,,131.00991889999932,None,[],[],0,3,0.4,134.2625511999995,None,['z'],134.2625511999995,None,,[1.4117453000017122],,,,,,,,,,,,,,,,,,CBC_1015,1,1,2,7,14,0.95,2023-06-25_14h04.10.751,MSI_AV_v3,2022.1.1,60.0034081931238,
5,0,5,0,,,,,,,,,,1,1.0,0.0,b,63.0,1.0,3.71372710086949,2.10421507306074,None,,136.07662529999834,None,138.20383009999932,None,138.20383009999932,None,138.19305517999837,None,['b'],138.20383009999932,None,None,,140.1960642999984,None,b,1.689165800002229,1,1,0.5,143.91469139999936,None,None,143.91469139999936,None,[1.689165800002229],,,,,,,,,,,,,,,,,,,CBC_1015,1,1,2,7,14,0.95,2023-06-25_14h04.10.751,MSI_AV_v3,2022.1.1,60.0034081931238,
6,0,6,0,,,,,,,,,,0,3.0,2.0,z,63.0,1.0,2.294664843639333,1.60731937853708,None,,145.72625459999836,None,147.34705029999895,None,147.34705029999895,None,147.35968993999884,None,['z'],147.34705029999895,None,None,,149.34383539999908,None,z,1.402347400002327,1,1,0.5714285714285714,151.65019669999856,None,None,151.65019669999856,None,[1.402347400002327],,,,,,,,,,,,,,,,,,,CBC_1015,1,1,2,7,14,0.95,2023-06-25_14h04.10.751,MSI_AV_v3,2022.1.1,60.0034081931238,
7,0,7,0,,,,,,,,,,2,0.0,2.0,b,27.0,1.0,3.68371079902891,1.21250262048173,None,,153.4597243999997,None,154.68043089999992,None,154.68043089999992,None,154.67640897999863,None,['b'],154.68043089999992,None,None,,156.67887259999952,None,b,1.6631818000005296,1,1,0.625,160.36652959999992,None,None,160.36652959999992,None,[1.6631818000005296],,,,,,,,,,,,,,,,,,,CBC_1015,1,1,2,7,14,0.95,2023-06-25_14h04.10.751,MSI_AV_v3,2022.1.1,60.0034081931238,
8,0,8,0,,,,,,,,,,3,2.0,3.0,z,63.0,1.0,4.12485271162806,2.49839527409216,None,,162.1763882999985,None,164.69458049999957,None,164.69458049999957,None,164.69319117999893,None,['z'],164.69458049999957,None,None,,166.69437279999875,None,z,1.028311100000792,1,1,0.6666666666666666,170.8344563999999,None,None,170.8344563999999,None,[1.028311100000792],,,,,,,,,,,,,,,,,,,CBC_1015,1,1,2,7,14,0.95,2023-06-25_14h04.10.751,MSI_AV_v3,2022.1.1,60.0034081931238,
9,0,9,0,,,,,,,,,,1,1.0,3.0,b,27.0,1.0,4.11514536789087,0.77703640172831,None,,172.64300019999973,None,173.43142139999873,None,173.43142139999873,None,173.4432888399995,None,['b'],173.43142139999873,None,None,,175.42739230000007,None,b,1.5724212000004627,1,1,0.7,179.54991689999952,None,None,179.54991689999952,None,[1.5724212000004627],,,,,,,,,,,,,,,,,,,CBC_1015,1,1,2,7,14,0.95,2023-06-25_14h04.10.751,MSI_AV_v3,2022.1.1,60.0034081931238,
10,0,10,0,,,,,,,,,,0,2.0,3.0,b,63.0,1.0,2.91303524001082,1.64421109900286,None,,181.35976409999967,None,183.01468589999968,None,183.01468589999968,None,183.0264097399984,None,['b'],183.01468589999968,None,None,,185.01299479999943,None,b,1.4570776000018668,1,1,0.7272727272727273,187.93165529999897,None,None,187.93165529999897,None,[1.4570776000018668],,,,,,,,,,,,,,,,,,,CBC_1015,1,1,2,7,14,0.95,2023-06-25_14h04.10.751,MSI_AV_v3,2022.1.1,60.0034081931238,
11,0,11,0,,,,,,,,,,1,3.0,1.0,z,27.0,1.0,2.666404967794728,1.78643585472448,None,,189.74319239999932,None,191.54797229999895,None,191.54797229999895,None,191.5596408399986,None,['b'],191.54797229999895,None,['z'],[2.2118894000013825],193.5427908999991,None,b,1.691396000000168,0,0,0.6666666666666666,196.21726769999987,None,None,196.21726769999987,None,[1.691396000000168],,,,,,,,,,,,,,,,,,,CBC_1015,1,1,2,7,14,0.95,2023-06-25_14h04.10.751,MSI_AV_v3,2022.1.1,60.0034081931238,
12,0,12,0,,,,,,,,,,0,2.0,3.0,b,63.0,1.0,4.61004669244928,1.90743690794447,None,,198.02652209999906,None,199.94827540000006,None,199.94827540000006,None,199.95980173999922,None,['b'],199.94827540000006,None,None,,201.94479359999968,None,b,1.4968902000000526,1,1,0.6923076923076923,206.5671628,None,None,206.5671628,None,[1.4968902000000526],,,,,,,,,,,,,,,,,,,CBC_1015,1,1,2,7,14,0.95,2023-06-25_14h04.10.751,MSI_AV_v3,2022.1.1,60.0034081931238,
13,0,13,0,,,,,,,,,,3,2.0,3.0,z,63.0,1.0,3.35133458220192,1.34668860557497,None,,208.37665249999918,None,209.74700439999833,None,209.74700439999833,None,209.75970523999857,None,['z'],209.74700439999833,None,None,,211.7437906999985,None,z,1.2614028999996663,1,1,0.7142857142857143,215.09969679999995,None,None,215.09969679999995,None,[1.2614028999996663],,,,,,,,,,,,,,,,,,,CBC_1015,1,1,2,7,14,0.95,2023-06-25_14h04.10.751,MSI_AV_v3,2022.1.1,60.0034081931238,
14,0,14,0,,,,,,,,,,2,3.0,0.0,z,9.0,1.0,2.693348633324513,1.52290599571961,None,,216.90985909999836,None,218.4493251999993,None,218.4493251999993,None,218.45990573999987,None,['z'],218.4493251999993,None,None,,220.44821689999844,None,z,1.633434600000328,1,1,0.7333333333333333,223.1498150999996,None,None,223.1498150999996,None,[1.633434600000328],,,,,,,,,,,,,,,,,,,CBC_1015,1,1,2,7,14,0.95,2023-06-25_14h04.10.751,MSI_AV_v3,2022.1.1,60.0034081931238,
15,0,15,0,,,,,,,,,,1,1.0,0.0,b,63.0,0.0,2.629554641171433,0.80788063606262,None,,224.9598247999984,None,225.78109929999846,None,225.78109929999846,None,225.79320083999917,None,['b'],225.78109929999846,None,None,,227.76784939999925,None,b,1.4950697000003856,1,0,0.75,230.39969549999842,None,None,230.39969549999842,None,[1.4950697000003856],,,,,,,,,,,,,,,,,,,CBC_1015,1,1,2,7,14,0.95,2023-06-25_14h04.10.751,MSI_AV_v3,2022.1.1,60.0034081931238,
16,0,16,0,,,,,,,,,,3,3.0,2.0,b,63.0,1.0,2.342239579230602,1.25817747924478,None,,232.2102802999998,None,233.47814209999888,None,233.47814209999888,None,233.47652847999834,None,['b'],233.47814209999888,None,None,,235.4740688999991,None,b,1.7913743999997678,1,1,0.7647058823529411,237.81828369999857,None,None,237.81828369999857,None,[1.7913743999997678],,,,,,,,,,,,,,,,,,,CBC_1015,1,1,2,7,14,0.95,2023-06-25_14h04.10.751,MSI_AV_v3,2022.1.1,60.0034081931238,
17,0,17,0,,,,,,,,,,0,2.0,0.0,b,27.0,1.0,3.76873691643126,1.12425433982333,None,,239.62695949999943,None,240.7536001999997,None,240.7536001999997,None,240.75938817999904,None,['b'],240.7536001999997,None,None,,242.7597036999996,None,b,1.7305109999997512,1,1,0.7777777777777778,246.53387529999964,None,None,246.53387529999964,None,[1.7305109999997512],,,,,,,,,,,,,,,,,,,CBC_1015,1,1,2,7,14,0.95,2023-06-25_14h04.10.751,MSI_AV_v3,2022.1.1,60.0034081931238,
18,0,18,0,,,,,,,,,,2,1.0,0.0,z,63.0,1.0,4.72585056748869,0.761758675042088,None,,248.34336959999928,None,249.11505099999886,None,249.11505099999886,None,249.12672703999922,None,['z'],249.11505099999886,None,None,,251.10899939999945,None,z,1.613639900000635,1,1,0.7894736842105263,255.83456389999992,None,None,255.83456389999992,None,[1.613639900000635],,,,,,,,,,,,,,,,,,,CBC_1015,1,1,2,7,14,0.95,2023-06-25_14h04.10.751,MSI_AV_v3,2022.1.1,60.0034081931238,
19,0,19,0,,,,,,,,,,1,0.0,1.0,z,63.0,1.0,3.6438386551209,0.974903167432984,None,,257.64332579999973,None,258.63014979999934,None,258.63014979999934,None,258.6264044799996,None,['z'],258.63014979999934,None,None,,260.62894659999984,None,z,1.702367800000502,1,1,0.8,264.2820431,None,None,264.2820431,None,[1.702367800000502],,,,,,,,,,,,,,,,,,,CBC_1015,1,1,2,7,14,0.95,2023-06-25_14h04.10.751,MSI_AV_v3,2022.1.1,60.0034081931238,
20,0,20,0,,,,,,,,,,3,3.0,1.0,b,27.0,1.0,2.7134565917469198,2.78346932462847,None,,266.09314279999853,None,268.89665459999924,None,268.89665459999924,None,268.8933694799985,None,['b'],268.89665459999924,None,None,,270.89448269999957,None,b,0.9809425000003102,1,1,0.8095238095238095,273.61646049999945,None,None,273.61646049999945,None,[0.9809425000003102],,,,,,,,,,,,,,,,,,,CBC_1015,1,1,2,7,14,0.95,2023-06-25_14h04.10.751,MSI_AV_v3,2022.1.1,60.0034081931238,
21,0,21,0,,,,,,,,,,0,2.0,3.0,b,63.0,1.0,4.40017271499661,3.1424449555106,None,,275.42661959999896,None,278.5821232999988,None,278.5821232999988,None,278.5932891399996,None,['b'],278.5821232999988,None,None,,280.57731049999893,None,b,1.5560270000005403,1,1,0.8181818181818182,284.9836114999998,None,None,284.9836114999998,None,[1.5560270000005403],,,,,,,,,,,,,,,,,,,CBC_1015,1,1,2,7,14,0.95,2023-06-25_14h04.10.751,MSI_AV_v3,2022.1.1,60.0034081931238,
22,0,22,0,,,,,,,,,,2,1.0,0.0,z,63.0,1.0,3.3728785608729996,3.33124983260532,None,,286.7933912999997,None,290.1304010999993,None,290.1304010999993,None,290.1426995799998,None,['z'],290.1304010999993,None,None,,292.12965729999996,None,z,1.0041895000013028,1,1,0.8260869565217391,295.5169475999992,None,None,295.5169475999992,None,[1.0041895000013028],,,,,,,,,,,,,,,,,,,CBC_1015,1,1,2,7,14,0.95,2023-06-25_14h04.10.751,MSI_AV_v3,2022.1.1,60.0034081931238,
23,0,23,0,,,,,,,,,,3,3.0,2.0,b,63.0,1.0,4.52047235037039,3.4543169006169,None,,297.32679429999916,None,300.798136899999,None,300.798136899999,None,300.81006853999935,None,['b'],300.798136899999,None,None,,302.79713139999876,None,b,0.9156000999992102,1,1,0.8333333333333334,307.3329174999999,None,None,307.3329174999999,None,[0.9156000999992102],,,,,,,,,,,,,,,,,,,CBC_1015,1,1,2,7,14,0.95,2023-06-25_14h04.10.751,MSI_AV_v3,2022.1.1,60.0034081931238,
24,0,24,0,,,,,,,,,,0,0.0,2.0,z,27.0,1.0,4.190022164497369,1.53122835510861,None,,309.14359739999963,None,310.6944475,None,310.6944475,None,310.69323907999984,None,['z'],310.6944475,None,None,,312.6922679999989,None,z,1.3936548000001494,1,1,0.84,316.8834816999988,None,None,316.8834816999988,None,[1.3936548000001494],,,,,,,,,,,,,,,,,,,CBC_1015,1,1,2,7,14,0.95,2023-06-25_14h04.10.751,MSI_AV_v3,2022.1.1,60.0034081931238,
25,0,25,0,,,,,,,,,,2,1.0,0.0,z,63.0,1.0,2.496959177995529,2.22427187882546,None,,318.6933638999999,None,320.93622929999947,None,320.93622929999947,None,320.9434000399986,None,['z'],320.93622929999947,None,None,,322.9286971999991,None,z,1.1562966000001325,1,1,0.8461538461538461,325.43414139999913,None,None,325.43414139999913,None,[1.1562966000001325],,,,,,,,,,,,,,,,,,,CBC_1015,1,1,2,7,14,0.95,2023-06-25_14h04.10.751,MSI_AV_v3,2022.1.1,60.0034081931238,
26,0,26,0,,,,,,,,,,1,3.0,1.0,z,27.0,1.0,2.517541937862754,0.979776149765883,None,,327.2434001999991,None,328.2316766999993,None,328.2316766999993,None,328.2434995399988,None,None,328.2316766999993,None,['z'],[0.3109234000021388],330.2106401000001,None,z,2.310923400002139,1,1,0.8518518518518519,332.7176120999993,None,None,332.7176120999993,None,,,,,,,,,,,,,,,,,,,,CBC_1015,1,1,2,7,14,0.95,2023-06-25_14h04.10.751,MSI_AV_v3,2022.1.1,60.0034081931238,
27,0,27,0,,,,,,,,,,0,2.0,3.0,b,63.0,1.0,4.77034425507967,3.06992456303453,None,,334.52665889999844,None,337.6140886999983,None,337.6140886999983,None,337.62675483999993,None,['b'],337.6140886999983,None,None,,339.60984929999904,None,b,1.2910446000005322,1,1,0.8571428571428571,344.3841713999991,None,None,344.3841713999991,None,[1.2910446000005322],,,,,,,,,,,,,,,,,,,CBC_1015,1,1,2,7,14,0.95,2023-06-25_14h04.10.751,MSI_AV_v3,2022.1.1,60.0034081931238,
28,0,28,0,,,,,,,,,,3,2.0,3.0,z,63.0,1.0,2.82320408183943,2.6299100644723,None,,346.19357469999886,None,348.84777679999934,None,348.84777679999934,None,348.8601378399988,None,['z'],348.84777679999934,None,None,,350.8648009999997,None,z,1.8419367999995302,1,1,0.8620689655172413,353.6835897000001,None,None,353.6835897000001,None,[1.8419367999995302],,,,,,,,,,,,,,,,,,,CBC_1015,1,1,2,7,14,0.95,2023-06-25_14h04.10.751,MSI_AV_v3,2022.1.1,60.0034081931238,
29,0,29,0,,,,,,,,,,1,1.0,0.0,b,63.0,1.0,3.2062024266105302,1.1243895841892,None,,355.49342239999896,None,356.6303887999984,None,356.6303887999984,None,356.62667727999957,None,['b'],356.6303887999984,None,None,,358.6273062,None,b,0.9867164000006596,1,1,0.8666666666666667,361.8335544999991,None,None,361.8335544999991,None,[0.9867164000006596],,,,,,,,,,,,,,,,,,,CBC_1015,1,1,2,7,14,0.95,2023-06-25_14h04.10.751,MSI_AV_v3,2022.1.1,60.0034081931238,
30,0,30,0,,,,,,,,,,2,0.0,2.0,b,27.0,1.0,3.7500315165247198,1.27538462653558,None,,363.6441939999986,None,364.9305053999997,None,364.9305053999997,None,364.92683387999983,None,['b'],364.9305053999997,None,None,,366.9281135000001,None,b,1.0789282000005187,1,1,0.8709677419354839,370.68121169999904,None,None,370.68121169999904,None,[1.0789282000005187],,,,,,,,,,,,,,,,,,,CBC_1015,1,1,2,7,14,0.95,2023-06-25_14h04.10.751,MSI_AV_v3,2022.1.1,60.0034081931238,
31,0,31,0,,,,,,,,,,3,0.0,3.0,z,9.0,1.0,4.77723667052879,1.38289892513751,None,,372.49350889999914,None,373.8971658999999,None,373.8971658999999,None,373.8935625799991,None,['z'],373.8971658999999,None,None,,375.89161799999965,None,z,1.2128924000007828,1,1,0.875,380.6673904999989,None,None,380.6673904999989,None,[1.2128924000007828],,,,,,,,,,,,,,,,,,,CBC_1015,1,1,2,7,14,0.95,2023-06-25_14h04.10.751,MSI_AV_v3,2022.1.1,60.0034081931238,
32,0,32,0,,,,,,,,,,0,2.0,3.0,b,63.0,1.0,2.2759877950103027,0.917519910446003,None,,382.4768123999984,None,383.41683869999906,None,383.41683869999906,None,383.427199139999,None,['b'],383.41683869999906,None,None,,385.41182709999885,None,b,1.2987521000013658,1,1,0.8787878787878788,387.69782549999945,None,None,387.69782549999945,None,[1.2987521000013658],,,,,,,,,,,,,,,,,,,CBC_1015,1,1,2,7,14,0.95,2023-06-25_14h04.10.751,MSI_AV_v3,2022.1.1,60.0034081931238,
33,0,33,0,,,,,,,,,,1,1.0,0.0,b,63.0,1.0,4.53337421950507,2.40378712856304,None,,389.51015599999846,None,391.9304169999996,None,391.9304169999996,None,391.926780979999,None,['b'],391.9304169999996,None,None,,393.93010909999975,None,b,1.4076998000000458,1,1,0.8823529411764706,398.4643941999984,None,None,398.4643941999984,None,[1.4076998000000458],,,,,,,,,,,,,,,,,,,CBC_1015,1,1,2,7,14,0.95,2023-06-25_14h04.10.751,MSI_AV_v3,2022.1.1,60.0034081931238,
34,0,34,0,,,,,,,,,,2,1.0,0.0,z,63.0,0.0,4.82531807167306,1.25920145784721,None,,400.27689309999914,None,401.5492207999996,None,401.5492207999996,None,401.5603045399992,None,['z'],401.5492207999996,None,None,,403.5469390999988,None,z,0.9568670000007842,1,0,0.8857142857142857,408.382638699999,None,None,408.382638699999,None,[0.9568670000007842],,,,,,,,,,,,,,,,,,,CBC_1015,1,1,2,7,14,0.95,2023-06-25_14h04.10.751,MSI_AV_v3,2022.1.1,60.0034081931238,
35,0,35,0,,,,,,,,,,3,3.0,2.0,b,63.0,1.0,3.02234236141277,1.53243550275999,None,,410.1936408999991,None,411.74680219999937,None,411.74680219999937,None,411.74349967999893,None,['b'],411.74680219999937,None,None,,413.7398252999992,None,b,1.0052780000005441,1,1,0.8888888888888888,416.76602589999857,None,None,416.76602589999857,None,[1.0052780000005441],,,,,,,,,,,,,,,,,,,CBC_1015,1,1,2,7,14,0.95,2023-06-25_14h04.10.751,MSI_AV_v3,2022.1.1,60.0034081931238,
36,0,36,0,,,,,,,,,,1,2.0,1.0,z,9.0,1.0,2.433630701072358,1.95130344756745,None,,418.57685219999985,None,420.5486519999995,None,420.5486519999995,None,420.5602376399991,None,None,420.5486519999995,None,['z'],[0.9276387000008981],422.5269099999987,None,z,2.927638700000898,1,1,0.8918918918918919,424.94819629999984,None,None,424.94819629999984,None,,,,,,,,,,,,,,,,,,,,CBC_1015,1,1,2,7,14,0.95,2023-06-25_14h04.10.751,MSI_AV_v3,2022.1.1,60.0034081931238,
37,0,37,0,,,,,,,,,,2,0.0,2.0,b,27.0,1.0,4.01714354611405,3.40155979865722,None,,426.7602114000001,None,430.18260649999866,None,430.18260649999866,None,430.19367974000016,None,['b'],430.18260649999866,None,None,,432.1769315999991,None,b,0.9594708000022365,1,1,0.8947368421052632,436.20029409999916,None,None,436.20029409999916,None,[0.9594708000022365],,,,,,,,,,,,,,,,,,,CBC_1015,1,1,2,7,14,0.95,2023-06-25_14h04.10.751,MSI_AV_v3,2022.1.1,60.0034081931238,
38,0,38,0,,,,,,,,,,0,3.0,2.0,z,63.0,1.0,3.31929419319838,1.94858485820231,None,,438.0102852,None,439.98155769999903,None,439.98155769999903,None,439.9936768399992,None,None,439.98155769999903,None,['z'],[0.24434070000097563],441.9603283999986,None,z,2.2443407000009756,1,1,0.8974358974358975,445.26068849999865,None,None,445.26068849999865,None,,,,,,,,,,,,,,,,,,,,CBC_1015,1,1,2,7,14,0.95,2023-06-25_14h04.10.751,MSI_AV_v3,2022.1.1,60.0034081931238,
39,0,39,0,,,,,,,,,,3,3.0,1.0,b,27.0,1.0,2.526044641065533,1.96568735158996,None,,447.06028159999914,None,449.04789829999936,None,449.04789829999936,None,449.0438302799999,None,['b'],449.04789829999936,None,None,,451.04531189999943,None,b,0.7940651999997499,1,1,0.9,453.5828358999988,None,None,453.5828358999988,None,[0.7940651999997499],,,,,,,,,,,,,,,,,,,CBC_1015,1,1,2,7,14,0.95,2023-06-25_14h04.10.751,MSI_AV_v3,2022.1.1,60.0034081931238,
40,0,40,0,,,,,,,,,,2,1.0,0.0,z,63.0,1.0,2.792365600763554,3.24569326556923,None,,455.39368039999863,None,458.64803779999966,None,458.64803779999966,None,458.6437638799985,None,['z'],458.64803779999966,None,None,,460.64606139999887,None,z,1.4567624000010255,1,1,0.9024390243902439,463.4503511999992,None,None,463.4503511999992,None,[1.4567624000010255],,,,,,,,,,,,,,,,,,,CBC_1015,1,1,2,7,14,0.95,2023-06-25_14h04.10.751,MSI_AV_v3,2022.1.1,60.0034081931238,
41,0,41,0,,,,,,,,,,0,2.0,0.0,b,27.0,1.0,2.592312596923728,3.1963008326951,None,,465.26037579999866,None,468.47985009999866,None,468.47985009999866,None,468.47769917999955,None,['b'],468.47985009999866,None,None,,470.4754464999987,None,b,1.215186100002029,1,1,0.9047619047619048,473.06716179999967,None,None,473.06716179999967,None,[1.215186100002029],,,,,,,,,,,,,,,,,,,CBC_1015,1,1,2,7,14,0.95,2023-06-25_14h04.10.751,MSI_AV_v3,2022.1.1,60.0034081931238,
42,0,42,0,,,,,,,,,,3,2.0,3.0,z,63.0,1.0,3.73326136168326,2.09887870490381,None,,474.8769274999995,None,476.9982551999983,None,476.9982551999983,None,477.0103925399988,None,['z'],476.9982551999983,None,None,,479.0119165999986,None,z,1.629705000001195,1,1,0.9069767441860465,482.73228239999844,None,None,482.73228239999844,None,[1.629705000001195],,,,,,,,,,,,,,,,,,,CBC_1015,1,1,2,7,14,0.95,2023-06-25_14h04.10.751,MSI_AV_v3,2022.1.1,60.0034081931238,
43,0,43,0,,,,,,,,,,1,0.0,1.0,z,63.0,1.0,2.678526077912375,1.18065738546375,None,,484.543760999999,None,485.7493655999988,None,485.7493655999988,None,485.76041633999995,None,['z'],485.7493655999988,None,None,,487.7456255999987,None,z,1.36525150000125,1,1,0.9090909090909091,490.4353930999987,None,None,490.4353930999987,None,[1.36525150000125],,,,,,,,,,,,,,,,,,,CBC_1015,1,1,2,7,14,0.95,2023-06-25_14h04.10.751,MSI_AV_v3,2022.1.1,60.0034081931238,
,,,,,,,,,,,,,,,,,,,,,,,,,,,,,,,,,,,,,,,,,,,,,,,,,,None,492.24382539999897,None,,,,,,,,,,,,,,,CBC_1015,1,1,2,7,14,0.95,2023-06-25_14h04.10.751,MSI_AV_v3,2022.1.1,60.0034081931238,
,,,,,,,,,,,,,,,,,,,,,,,,,,,,,,,,,,,,,,,,,,,,,,,,,,,,,497.24411340000006,None,None,497.24411340000006,None,,,,,,,,,,CBC_1015,1,1,2,7,14,0.95,2023-06-25_14h04.10.751,MSI_AV_v3,2022.1.1,60.0034081931238,
,,,,,,,,,,,,,,,,,,,,,,,,,,,,,,,,,,,,,,,,,,,,,,,,,,,,,,,,,,z,b,hard,"[0, 1, 2, 3]","[2, 1, 0, 3]",0.7272727272727273,0.9090909090909091,1.0,1.0,,,,,,,,,,,,
