trials_runs.thisRepN,trials_runs.thisTrialN,trials_runs.thisN,trials_runs.thisIndex,standbild_start.started,standbild_start.stopped,trigger.keys,trigger.rt,trigger.started,trigger.stopped,keys_2.keys,keys_2.started,keys_2.stopped,trials_runs.tactile_stim,trials_runs.visual_stim_left,trials_runs.visual_stim_right,trials_runs.correctKey,trials_runs.presentationFrequncy,trials_runs.FBaccuracy,trials_runs.ISI_s,trials_runs.ITI_s,keys_3.keys,keys_3.started,keys_3.stopped,image_stim_left.started,image_stim_right.started,tactile.started,response_4.keys,allKeys.keys,response_5.keys,response_5.rt,response_5.started,response_5.stopped,response_runs.keys,response_runs.rt,trials_runs.correct_answer,trials_runs.feedback_given,trials_runs.running_mean,feedback_6.stopped,feedback_6.started,keys_6.keys,keys_6.started,keys_6.stopped,keys_6.rt,keys_7.keys,keys_7.started,keys_7.stopped,standbild_end.started,standbild_end.stopped,Stop_exp.keys,Stop_exp.started,Stop_exp.stopped,trials_runs.rightKey,trials_runs.leftKey,ts_difficulty,visualPair,tactilePair,trials_runs.mean_acc_1stFourth,trials_runs.mean_acc_2ndFourth,trials_runs.mean_acc_3rdFourth,trials_runs.mean_acc_4thFourth,nbCorrect,nbOmissions,nbIncorrect,participant,session,visual set [1-6],tactile set [1-3],trial structure [0-3 / 4-7],pairing [0-23],prob Feedback,date,expName,psychopyVersion,frameRate,
,,,,228.43603630000052,None,t,75.56841599999916,228.43603630000052,None,,,,,,,,,,,,,,,,,,,,,,,,,,,,,,,,,,,,,,,,,,,,,,,,,,,,,,,CBC_1042,001,6,2,2,19,0.95,2024-07-26_15h40.22.663,MSI_TV_v3,2022.1.1,59.99826005074259,
,,,,,,,,,,None,304.0307247999999,None,,,,,,,,,,,,,,,,,,,,,,,,,,,,,,,,,,,,,,,,,,,,,,,,,,,,CBC_1042,001,6,2,2,19,0.95,2024-07-26_15h40.22.663,MSI_TV_v3,2022.1.1,59.99826005074259,
0,0,0,0,,,,,,,,,,3,0,1,b,63,1,4.72585056748869,1.38289892513751,None,304.23101980000047,None,305.59713554000007,305.59713554000007,305.61391903999936,None,[],['b'],[0.6234028000008038],307.6064656000008,None,b,2.623402800000804,1,1,1.0,None,312.33072959999936,None,312.33072959999936,None,,,,,,,,,,,,,,,,,,,,,,CBC_1042,001,6,2,2,19,0.95,2024-07-26_15h40.22.663,MSI_TV_v3,2022.1.1,59.99826005074259,
1,0,1,0,,,,,,,,,,1,2,3,z,63,1,3.71372710086949,3.24569326556923,None,314.13093630000094,None,317.3644983399994,317.3644983399994,317.3809108400004,None,[],['z'],[0.6936751999992339],319.3695629999993,None,z,2.693675199999234,1,1,1.0,None,323.0848159999996,None,323.0848159999996,None,,,,,,,,,,,,,,,,,,,,,,CBC_1042,001,6,2,2,19,0.95,2024-07-26_15h40.22.663,MSI_TV_v3,2022.1.1,59.99826005074259,
2,0,2,0,,,,,,,,,,2,0,2,z,27,1,3.7500315165247198,1.95130344756745,None,324.89721609999924,None,326.83097424000005,326.83097424000005,326.84763423999937,None,[],['b'],[0.85773749999953],328.83710820000033,None,b,2.85773749999953,0,0,0.6666666666666666,None,332.5957628999995,None,332.5957628999995,None,,,,,,,,,,,,,,,,,,,,,,CBC_1042,001,6,2,2,19,0.95,2024-07-26_15h40.22.663,MSI_TV_v3,2022.1.1,59.99826005074259,
3,0,3,0,,,,,,,,,,3,0,1,b,63,1,2.517541937862754,1.12425433982333,None,334.3977674000007,None,335.49780494000004,335.49780494000004,335.5142667399999,None,[],['b'],[0.6620464999987234],337.50364999999965,None,b,2.6620464999987234,1,1,0.75,None,340.0321470000008,None,340.0321470000008,None,,,,,,,,,,,,,,,,,,,,,,CBC_1042,001,6,2,2,19,0.95,2024-07-26_15h40.22.663,MSI_TV_v3,2022.1.1,59.99826005074259,
4,0,4,0,,,,,,,,,,0,1,3,b,27,1,4.46924002178158,1.52290599571961,None,341.8477687000004,None,343.3477316400007,343.3477316400007,343.36430293999945,None,[],['z'],[1.051794299998619],345.35211009999966,None,z,3.051794299998619,0,0,0.6,None,349.83121200000005,None,349.83121200000005,None,,,,,,,,,,,,,,,,,,,,,,CBC_1042,001,6,2,2,19,0.95,2024-07-26_15h40.22.663,MSI_TV_v3,2022.1.1,59.99826005074259,
5,0,5,0,,,,,,,,,,2,3,2,z,63,1,3.76873691643126,0.761758675042088,None,351.62962509999943,None,352.3644906400008,352.3644906400008,352.38092584000003,None,[],['z'],[0.667069399999491],354.36840759999995,None,z,2.667069399999491,1,1,0.6666666666666666,None,358.13860400000067,None,358.13860400000067,None,,,,,,,,,,,,,,,,,,,,,,CBC_1042,001,6,2,2,19,0.95,2024-07-26_15h40.22.663,MSI_TV_v3,2022.1.1,59.99826005074259,
6,0,6,0,,,,,,,,,,1,3,2,b,63,1,3.2062024266105302,2.40378712856304,None,359.9475683999999,None,362.33127353999987,362.33127353999987,362.34773064000035,None,[],['b'],[0.8674521999992066],364.32843220000086,None,b,2.8674521999992066,1,1,0.7142857142857143,None,367.5337969000002,None,367.5337969000002,None,,,,,,,,,,,,,,,,,,,,,,CBC_1042,001,6,2,2,19,0.95,2024-07-26_15h40.22.663,MSI_TV_v3,2022.1.1,59.99826005074259,
7,0,7,0,,,,,,,,,,0,0,1,z,63,1,2.91303524001082,1.43470440954152,None,369.3464510999993,None,370.7642971400004,370.7642971400004,370.78088973999945,None,[],None,,372.7713040000008,None,None,[],0,3,0.625,None,375.6932791999998,['z'],375.6932791999998,None,[0.43165399999907095],,,,,,,,,,,,,,,,,,,,,CBC_1042,001,6,2,2,19,0.95,2024-07-26_15h40.22.663,MSI_TV_v3,2022.1.1,59.99826005074259,
8,0,8,0,,,,,,,,,,3,2,0,z,27,1,3.31929419319838,1.18065738546375,None,377.49778360000073,None,378.6645056399997,378.6645056399997,378.6809445399998,None,[],['b'],[1.0319784999983312],380.6685802000002,None,b,3.0319784999983312,0,0,0.5555555555555556,None,384.0011912,None,384.0011912,None,,,,,,,,,,,,,,,,,,,,,,CBC_1042,001,6,2,2,19,0.95,2024-07-26_15h40.22.663,MSI_TV_v3,2022.1.1,59.99826005074259,
9,0,9,0,,,,,,,,,,1,3,0,b,9,1,3.6438386551209,2.78346932462847,None,385.81441279999945,None,388.58109014000036,388.58109014000036,388.5976415400004,None,[],['b'],[0.22411799999918003],390.5855481000008,None,b,2.22411799999918,1,1,0.6,None,394.2284444000006,None,394.2284444000006,None,,,,,,,,,,,,,,,,,,,,,,CBC_1042,001,6,2,2,19,0.95,2024-07-26_15h40.22.663,MSI_TV_v3,2022.1.1,59.99826005074259,
10,0,10,0,,,,,,,,,,2,2,3,b,63,1,4.53337421950507,3.40155979865722,None,396.0311021000007,None,399.41455474000065,399.41455474000065,399.4313860400001,None,[],['z'],[0.6798965000007229],401.4192159000004,None,z,2.679896500000723,0,0,0.5454545454545454,None,405.95830549999937,None,405.95830549999937,None,,,,,,,,,,,,,,,,,,,,,,CBC_1042,001,6,2,2,19,0.95,2024-07-26_15h40.22.663,MSI_TV_v3,2022.1.1,59.99826005074259,
11,0,11,0,,,,,,,,,,0,0,1,z,63,1,3.3728785608729996,1.60731937853708,None,407.7636671999999,None,409.3478028400008,409.3478028400008,409.3645877399998,None,[],['z'],[0.8705478000001676],411.3534592999995,None,z,2.8705478000001676,1,1,0.5833333333333334,None,414.73214049999933,None,414.73214049999933,None,,,,,,,,,,,,,,,,,,,,,,CBC_1042,001,6,2,2,19,0.95,2024-07-26_15h40.22.663,MSI_TV_v3,2022.1.1,59.99826005074259,
12,0,12,0,,,,,,,,,,1,2,3,z,63,1,4.77723667052879,3.1424449555106,None,416.54810869999983,None,419.66455193999934,419.66455193999934,419.68116124000005,None,[],['b'],[0.2330802999995285],421.6706789000009,None,b,2.2330802999995285,0,0,0.5384615384615384,None,426.4489397999996,None,426.4489397999996,None,,,,,,,,,,,,,,,,,,,,,,CBC_1042,001,6,2,2,19,0.95,2024-07-26_15h40.22.663,MSI_TV_v3,2022.1.1,59.99826005074259,
13,0,13,0,,,,,,,,,,2,2,3,b,63,1,3.68371079902891,1.53243550275999,None,428.26323049999974,None,429.7645532400005,429.7645532400005,429.78142804000015,None,[],['b'],[0.7918214999981501],431.7694547000001,None,b,2.79182149999815,1,1,0.5714285714285714,None,435.4591198999997,None,435.4591198999997,None,,,,,,,,,,,,,,,,,,,,,,CBC_1042,001,6,2,2,19,0.95,2024-07-26_15h40.22.663,MSI_TV_v3,2022.1.1,59.99826005074259,
14,0,14,0,,,,,,,,,,0,3,1,z,27,1,2.592312596923728,1.64421109900286,None,437.2645999000006,None,438.8812134399999,438.8812134399999,438.8979788399996,None,[],['z'],[0.7941701999998259],440.8808975000002,None,z,2.794170199999826,1,1,0.6,None,443.4872358999992,None,443.4872358999992,None,,,,,,,,,,,,,,,,,,,,,,CBC_1042,001,6,2,2,19,0.95,2024-07-26_15h40.22.663,MSI_TV_v3,2022.1.1,59.99826005074259,
15,0,15,0,,,,,,,,,,3,0,3,b,9,1,3.73326136168326,1.21250262048173,None,445.2982287999994,None,446.4982047399993,446.4982047399993,446.51473114,None,[],['b'],[0.6137571999997817],448.49625409999953,None,b,2.6137571999997817,1,1,0.625,None,452.2379375999999,None,452.2379375999999,None,,,,,,,,,,,,,,,,,,,,,,CBC_1042,001,6,2,2,19,0.95,2024-07-26_15h40.22.663,MSI_TV_v3,2022.1.1,59.99826005074259,
16,0,16,0,,,,,,,,,,1,2,3,z,63,1,2.2759877950103027,1.94858485820231,None,454.0468410000003,None,455.96473234000075,455.96473234000075,455.98131793999926,None,[],['z'],[0.5644575999986046],457.9710447999996,None,z,2.5644575999986046,1,1,0.6470588235294118,None,460.2488493999999,None,460.2488493999999,None,,,,,,,,,,,,,,,,,,,,,,CBC_1042,001,6,2,2,19,0.95,2024-07-26_15h40.22.663,MSI_TV_v3,2022.1.1,59.99826005074259,
17,0,17,0,,,,,,,,,,2,0,2,z,27,1,2.666404967794728,1.90743690794447,None,462.0482249000006,None,463.9305331399995,463.9305331399995,463.94753164000065,None,[],['b'],[0.877936599998975],465.9292587000009,None,b,2.877936599998975,0,0,0.6111111111111112,None,468.5972178000002,None,468.5972178000002,None,,,,,,,,,,,,,,,,,,,,,,CBC_1042,001,6,2,2,19,0.95,2024-07-26_15h40.22.663,MSI_TV_v3,2022.1.1,59.99826005074259,
18,0,18,0,,,,,,,,,,3,0,1,b,63,1,2.82320408183943,3.1963008326951,None,470.3982471999998,None,473.58166173999996,473.58166173999996,473.5982825400009,None,[],['b'],[0.7722825999981069],475.5846807000007,None,b,2.772282599998107,1,1,0.631578947368421,None,478.4137235999997,None,478.4137235999997,None,,,,,,,,,,,,,,,,,,,,,,CBC_1042,001,6,2,2,19,0.95,2024-07-26_15h40.22.663,MSI_TV_v3,2022.1.1,59.99826005074259,
19,0,19,0,,,,,,,,,,0,1,0,b,63,0,4.01714354611405,1.36309078069689,None,480.2148881000003,None,481.56566923999924,481.56566923999924,481.5817141400006,None,[],['z'],[0.7227372999996078],483.57007330000033,None,z,2.722737299999608,0,1,0.6,None,487.5920766999998,None,487.5920766999998,None,,,,,,,,,,,,,,,,,,,,,,CBC_1042,001,6,2,2,19,0.95,2024-07-26_15h40.22.663,MSI_TV_v3,2022.1.1,59.99826005074259,
20,0,20,0,,,,,,,,,,1,3,1,b,27,1,4.82531807167306,0.952147612306987,None,489.3974960000005,None,490.3318285400004,490.3318285400004,490.34852503999934,None,[],['b'],[0.8957134000002043],492.3321999000009,None,b,2.8957134000002043,1,1,0.6190476190476191,None,497.1679568999998,None,497.1679568999998,None,,,,,,,,,,,,,,,,,,,,,,CBC_1042,001,6,2,2,19,0.95,2024-07-26_15h40.22.663,MSI_TV_v3,2022.1.1,59.99826005074259,
21,0,21,0,,,,,,,,,,2,3,2,z,63,1,2.433630701072358,0.77703640172831,None,498.9818206000009,None,499.730767540001,499.730767540001,499.7474478400003,None,[],['z'],[0.7342983999997159],501.72932839999976,None,z,2.734298399999716,1,1,0.6363636363636364,None,504.16007869999976,None,504.16007869999976,None,,,,,,,,,,,,,,,,,,,,,,CBC_1042,001,6,2,2,19,0.95,2024-07-26_15h40.22.663,MSI_TV_v3,2022.1.1,59.99826005074259,
22,0,22,0,,,,,,,,,,0,0,1,z,63,1,4.61004669244928,1.1243895841892,None,505.96512689999963,None,507.06504254000026,507.06504254000026,507.08175404000065,None,[],['b'],[1.0014211999996405],509.06838700000026,None,b,3.0014211999996405,0,0,0.6086956521739131,None,513.6905094000003,None,513.6905094000003,None,,,,,,,,,,,,,,,,,,,,,,CBC_1042,001,6,2,2,19,0.95,2024-07-26_15h40.22.663,MSI_TV_v3,2022.1.1,59.99826005074259,
23,0,23,0,,,,,,,,,,3,0,2,b,27,1,2.7134565917469198,0.917519910446003,None,515.4972480999995,None,516.3985687400003,516.3985687400003,516.4152983400003,None,[],['b'],[0.9245330999992802],518.4032140999998,None,b,2.9245330999992802,1,1,0.625,None,521.1333660999999,None,521.1333660999999,None,,,,,,,,,,,,,,,,,,,,,,CBC_1042,001,6,2,2,19,0.95,2024-07-26_15h40.22.663,MSI_TV_v3,2022.1.1,59.99826005074259,
24,0,24,0,,,,,,,,,,1,3,2,b,63,1,4.190022164497369,1.53122835510861,None,522.9472995000006,None,524.4484251399994,524.4484251399994,524.4651061400003,None,[],['z'],[0.934253099999296],526.4537888000004,None,z,2.934253099999296,0,0,0.6,None,530.6494102999995,None,530.6494102999995,None,,,,,,,,,,,,,,,,,,,,,,CBC_1042,001,6,2,2,19,0.95,2024-07-26_15h40.22.663,MSI_TV_v3,2022.1.1,59.99826005074259,
25,0,25,0,,,,,,,,,,2,0,2,z,27,1,3.26539063535182,0.979776149765883,None,532.4486320000005,None,533.4145507399993,533.4145507399993,533.4306776399993,None,[],['z'],[0.6780004000002009],535.4114008000006,None,z,2.678000400000201,1,1,0.6153846153846154,None,538.6785310000005,None,538.6785310000005,None,,,,,,,,,,,,,,,,,,,,,,CBC_1042,001,6,2,2,19,0.95,2024-07-26_15h40.22.663,MSI_TV_v3,2022.1.1,59.99826005074259,
26,0,26,0,,,,,,,,,,0,0,1,z,63,1,2.342239579230602,1.78643585472448,None,540.4820073000001,None,542.2486017400009,542.2486017400009,542.2653768399999,None,[],['b'],[0.7974192999981824],544.2545911000007,None,b,2.7974192999981824,0,0,0.5925925925925926,None,546.6028152999997,None,546.6028152999997,None,,,,,,,,,,,,,,,,,,,,,,CBC_1042,001,6,2,2,19,0.95,2024-07-26_15h40.22.663,MSI_TV_v3,2022.1.1,59.99826005074259,
27,0,27,0,,,,,,,,,,3,1,0,z,63,1,2.792365600763554,2.09887870490381,None,548.4144100999993,None,550.4819071400001,550.4819071400001,550.4987558399993,None,[],['z'],[0.6706838999989486],552.4885007000003,None,z,2.6706838999989486,1,1,0.6071428571428571,None,555.2928708000009,None,555.2928708000009,None,,,,,,,,,,,,,,,,,,,,,,CBC_1042,001,6,2,2,19,0.95,2024-07-26_15h40.22.663,MSI_TV_v3,2022.1.1,59.99826005074259,
28,0,28,0,,,,,,,,,,2,2,3,b,63,1,4.77034425507967,1.34668860557497,None,557.0983616000003,None,558.4321193399995,558.4321193399995,558.4484944399995,None,[],['b'],[0.7650750999991942],560.4363751999999,None,b,2.765075099999194,1,1,0.6206896551724138,None,565.2157127,None,565.2157127,None,,,,,,,,,,,,,,,,,,,,,,CBC_1042,001,6,2,2,19,0.95,2024-07-26_15h40.22.663,MSI_TV_v3,2022.1.1,59.99826005074259,
29,0,29,0,,,,,,,,,,1,1,3,z,27,1,2.629554641171433,2.49839527409216,None,567.0150108000007,None,569.4988286400006,569.4988286400006,569.5154204400009,None,[],['z'],[0.8426678000005268],571.5035376999995,None,z,2.8426678000005268,1,1,0.6333333333333333,None,574.1321944000001,None,574.1321944000001,None,,,,,,,,,,,,,,,,,,,,,,CBC_1042,001,6,2,2,19,0.95,2024-07-26_15h40.22.663,MSI_TV_v3,2022.1.1,59.99826005074259,
30,0,30,0,,,,,,,,,,3,0,1,b,63,1,4.52047235037039,1.25817747924478,None,575.9319533000007,None,577.1653437400004,577.1653437400004,577.1822070399998,None,[],['b'],[0.5810162999996464],579.1664998999995,None,b,2.5810162999996464,1,1,0.6451612903225806,None,583.7049902000008,None,583.7049902000008,None,,,,,,,,,,,,,,,,,,,,,,CBC_1042,001,6,2,2,19,0.95,2024-07-26_15h40.22.663,MSI_TV_v3,2022.1.1,59.99826005074259,
31,0,31,0,,,,,,,,,,1,2,3,z,63,1,2.496959177995529,1.25920145784721,None,585.5153218999994,None,586.7479110400003,586.7479110400003,586.7646871399996,None,[],['b'],[0.9850828000007823],588.7462053999998,None,b,2.9850828000007823,0,0,0.625,None,591.2464841999999,None,591.2464841999999,None,,,,,,,,,,,,,,,,,,,,,,CBC_1042,001,6,2,2,19,0.95,2024-07-26_15h40.22.663,MSI_TV_v3,2022.1.1,59.99826005074259,
32,0,32,0,,,,,,,,,,0,1,2,b,9,1,2.693348633324513,3.06992456303453,None,593.0488840000007,None,596.0987604400001,596.0987604400001,596.1163469400002,None,[],['b'],[2.2910987999994177],598.1050948000002,None,b,4.291098799999418,1,1,0.6363636363636364,None,600.8117028000006,None,600.8117028000006,None,,,,,,,,,,,,,,,,,,,,,,CBC_1042,001,6,2,2,19,0.95,2024-07-26_15h40.22.663,MSI_TV_v3,2022.1.1,59.99826005074259,
33,0,33,0,,,,,,,,,,3,0,1,b,63,1,3.35133458220192,2.6299100644723,None,602.6153597000002,None,605.2322924399999,605.2322924399999,605.2488389400008,None,[],['z'],[1.028330600001027],607.2314763999993,None,z,3.028330600001027,0,0,0.6176470588235294,None,610.5939174999994,None,610.5939174999994,None,,,,,,,,,,,,,,,,,,,,,,CBC_1042,001,6,2,2,19,0.95,2024-07-26_15h40.22.663,MSI_TV_v3,2022.1.1,59.99826005074259,
34,0,34,0,,,,,,,,,,2,1,2,z,9,1,2.294664843639333,2.22427187882546,None,612.3983056999996,None,614.5988687400007,614.5988687400007,614.6155657399999,None,[],['b'],[0.9857141999991654],616.6039002000007,None,b,2.9857141999991654,0,0,0.6,None,618.8938403999991,None,618.8938403999991,None,,,,,,,,,,,,,,,,,,,,,,CBC_1042,001,6,2,2,19,0.95,2024-07-26_15h40.22.663,MSI_TV_v3,2022.1.1,59.99826005074259,
35,0,35,0,,,,,,,,,,0,0,1,z,63,1,4.40017271499661,0.80788063606262,None,620.6989490999995,None,621.4823435399998,621.4823435399998,621.4988841399994,None,[],['b'],[0.6164964999998119],623.4877084999998,None,b,2.616496499999812,0,0,0.5833333333333334,None,627.8988142000007,None,627.8988142000007,None,,,,,,,,,,,,,,,,,,,,,,CBC_1042,001,6,2,2,19,0.95,2024-07-26_15h40.22.663,MSI_TV_v3,2022.1.1,59.99826005074259,
36,0,36,0,,,,,,,,,,3,1,0,z,63,0,2.6391747348430608,2.96653053743745,None,629.6989626999994,None,632.6491123399995,632.6491123399995,632.6658040400001,None,[],['z'],[0.5845400999996855],634.6567478999996,None,z,2.5845400999996855,1,0,0.5945945945945946,None,637.2944629000003,None,637.2944629000003,None,,,,,,,,,,,,,,,,,,,,,,CBC_1042,001,6,2,2,19,0.95,2024-07-26_15h40.22.663,MSI_TV_v3,2022.1.1,59.99826005074259,
37,0,37,0,,,,,,,,,,0,1,0,b,63,1,2.92731383428727,3.33124983260532,None,639.0993102000002,None,642.4157814400008,642.4157814400008,642.4324711400008,None,[],['b'],[0.9181937999992442],644.4216365999991,None,b,2.918193799999244,1,1,0.6052631578947368,None,647.3553196999992,None,647.3553196999992,None,,,,,,,,,,,,,,,,,,,,,,CBC_1042,001,6,2,2,19,0.95,2024-07-26_15h40.22.663,MSI_TV_v3,2022.1.1,59.99826005074259,
38,0,38,0,,,,,,,,,,1,3,1,b,27,1,3.02234236141277,1.96568735158996,None,649.1664941999998,None,651.1145888400009,651.1145888400009,651.1316085399998,None,[],['z'],[0.6167996999984098],653.1114755000008,None,z,2.61679969999841,0,0,0.5897435897435898,None,656.1290283999997,None,656.1290283999997,None,,,,,,,,,,,,,,,,,,,,,,CBC_1042,001,6,2,2,19,0.95,2024-07-26_15h40.22.663,MSI_TV_v3,2022.1.1,59.99826005074259,
39,0,39,0,,,,,,,,,,2,2,3,b,63,1,2.678526077912375,2.15533949826702,None,657.9325524000005,None,660.0658762400002,660.0658762400002,660.0825140399996,None,[],['b'],[0.5105967999998029],662.0701127999992,None,b,2.510596799999803,1,1,0.6,None,664.7544138000003,None,664.7544138000003,None,,,,,,,,,,,,,,,,,,,,,,CBC_1042,001,6,2,2,19,0.95,2024-07-26_15h40.22.663,MSI_TV_v3,2022.1.1,59.99826005074259,
40,0,40,0,,,,,,,,,,3,2,0,z,27,1,4.12485271162806,1.27538462653558,None,666.5658200999997,None,667.8165478400009,667.8165478400009,667.8327812400006,None,[],['z'],[0.5414224000005561],669.8221364999999,None,z,2.541422400000556,1,1,0.6097560975609756,None,673.9421857999996,None,673.9421857999996,None,,,,,,,,,,,,,,,,,,,,,,CBC_1042,001,6,2,2,19,0.95,2024-07-26_15h40.22.663,MSI_TV_v3,2022.1.1,59.99826005074259,
41,0,41,0,,,,,,,,,,1,3,2,b,63,1,4.11514536789087,3.4543169006169,None,675.7493602000004,None,679.1821591400006,679.1821591400006,679.1983637399993,None,[],['b'],[0.725462499999594],681.1794670000008,None,b,2.725462499999594,1,1,0.6190476190476191,None,685.2963336999992,None,685.2963336999992,None,,,,,,,,,,,,,,,,,,,,,,CBC_1042,001,6,2,2,19,0.95,2024-07-26_15h40.22.663,MSI_TV_v3,2022.1.1,59.99826005074259,
42,0,42,0,,,,,,,,,,0,3,1,z,27,1,2.526044641065533,0.974903167432984,None,687.0994951000002,None,688.0496250399996,688.0496250399996,688.0662853399994,None,[],['z'],[0.7103238999998212],690.0549887999996,None,z,2.710323899999821,1,1,0.627906976744186,None,692.5890336999992,None,692.5890336999992,None,,,,,,,,,,,,,,,,,,,,,,CBC_1042,001,6,2,2,19,0.95,2024-07-26_15h40.22.663,MSI_TV_v3,2022.1.1,59.99826005074259,
43,0,43,0,,,,,,,,,,2,2,3,b,63,1,4.7533305109883095,2.10421507306074,None,694.3983505000006,None,696.4827468400002,696.4827468400002,696.49923204,None,[],['b'],[0.453777199999422],698.4894109999996,None,b,2.453777199999422,1,1,0.6363636363636364,None,703.2437132999994,None,703.2437132999994,None,,,,,,,,,,,,,,,,,,,,,,CBC_1042,001,6,2,2,19,0.95,2024-07-26_15h40.22.663,MSI_TV_v3,2022.1.1,59.99826005074259,
,,,,,,,,,,,,,,,,,,,,,,,,,,,,,,,,,,,,,,,,,,,,None,705.0494564999999,None,,,,,,,,,,,,,,,,,,CBC_1042,001,6,2,2,19,0.95,2024-07-26_15h40.22.663,MSI_TV_v3,2022.1.1,59.99826005074259,
,,,,,,,,,,,,,,,,,,,,,,,,,,,,,,,,,,,,,,,,,,,,,,,710.0320087000009,None,None,710.0320087000009,714.9988617999998,,,,,,,,,,,,,CBC_1042,001,6,2,2,19,0.95,2024-07-26_15h40.22.663,MSI_TV_v3,2022.1.1,59.99826005074259,
,,,,,,,,,,,,,,,,,,,,,,,,,,,,,,,,,,,,,,,,,,,,,,,,,,,,z,b,hard,"[0, 1, 2, 3]","[3, 0, 2, 1]",0.5454545454545454,0.7272727272727273,0.6363636363636364,0.6363636363636364,28,1,15,,,,,,,,,,,,
