trials_runs.thisRepN,trials_runs.thisTrialN,trials_runs.thisN,trials_runs.thisIndex,standbild_start.started,standbild_start.stopped,trigger.keys,trigger.rt,trigger.started,trigger.stopped,keys_2.keys,keys_2.started,keys_2.stopped,trials_runs.auditory_stim,trials_runs.visual_stim_left,trials_runs.visual_stim_right,trials_runs.correctKey,trials_runs.presentationFrequncy,trials_runs.FBaccuracy,trials_runs.ISI_s,trials_runs.ITI_s,keys_3.keys,keys_3.started,keys_3.stopped,ImageLeft_4.started,ImageLeft_4.stopped,ImageRight_4.started,ImageRight_4.stopped,sound_4.started,sound_4.stopped,response_4.keys,response_4.started,response_4.stopped,response_5.keys,response_5.rt,response_5.started,response_5.stopped,response_runs.keys,response_runs.rt,trials_runs.correct_answer,trials_runs.feedback_given,trials_runs.running_mean,feedback_6.started,feedback_6.stopped,keys_6.keys,keys_6.started,keys_6.stopped,response_4.rt,keys_7.keys,keys_7.started,keys_7.stopped,standbild_end.started,standbild_end.stopped,Stop_exp.keys,Stop_exp.started,Stop_exp.stopped,trials_runs.rightKey,trials_runs.leftKey,ts_difficulty,visualPair,audioPair,trials_runs.mean_acc_1stFourth,trials_runs.mean_acc_2ndFourth,trials_runs.mean_acc_3rdFourth,trials_runs.mean_acc_4thFourth,nbCorrect,nbOmissions,nbIncorrect,participant,session,visual set [1-6],audio set [1-3],trial structure [0-3 / 4-7],pairing [0-23],prob Feedback,date,expName,psychopyVersion,frameRate,
,,,,21.857205899999826,None,t,69.26276839999991,21.857205899999826,None,,,,,,,,,,,,,,,,,,,,,,,,,,,,,,,,,,,,,,,,,,,,,,,,,,,,,,,,,,,CBC_1029,3,6,1,5,4,0.95,2023-07-21_17h16.24.897,MSI_AV_v3,2022.1.1,59.9884702163986,
,,,,,,,,,,None,91.14818340000056,None,,,,,,,,,,,,,,,,,,,,,,,,,,,,,,,,,,,,,,,,,,,,,,,,,,,,,,,,CBC_1029,3,6,1,5,4,0.95,2023-07-21_17h16.24.897,MSI_AV_v3,2022.1.1,59.9884702163986,
0,0,0,0,,,,,,,,,,3,0,1,z,63,1,4.77034425507967,2.22427187882546,None,91.34708619999947,None,93.72003469999981,None,93.72003469999981,None,93.73218718000061,None,None,93.72003469999981,None,['b'],[0.539840199999162],95.56514809999862,None,b,2.539840199999162,0,0,0.0,100.345429099998,None,None,100.345429099998,None,,,,,,,,,,,,,,,,,,,,,,CBC_1029,3,6,1,5,4,0.95,2023-07-21_17h16.24.897,MSI_AV_v3,2022.1.1,59.9884702163986,
1,0,1,0,,,,,,,,,,2,2,3,z,63,1,2.82320408183943,2.10421507306074,None,102.14806359999784,None,104.28448959999878,None,104.28448959999878,None,104.29759975000161,None,None,104.28448959999878,None,['z'],[0.6273971000009624],106.24834610000107,None,z,2.6273971000009624,1,1,0.5,109.05607120000059,None,None,109.05607120000059,None,,,,,,,,,,,,,,,,,,,,,,CBC_1029,3,6,1,5,4,0.95,2023-07-21_17h16.24.897,MSI_AV_v3,2022.1.1,59.9884702163986,
2,0,2,0,,,,,,,,,,3,1,3,b,27,1,4.190022164497369,1.27538462653558,None,110.86554840000099,None,112.15169270000115,None,112.15169270000115,None,112.14828776999893,None,['z'],112.15169270000115,None,None,,114.14642309999908,None,z,1.9212738999995054,0,0,0.3333333333333333,118.337313,None,None,118.337313,None,[1.9212738999995054],,,,,,,,,,,,,,,,,,,,,CBC_1029,3,6,1,5,4,0.95,2023-07-21_17h16.24.897,MSI_AV_v3,2022.1.1,59.9884702163986,
3,0,3,0,,,,,,,,,,1,3,2,z,63,1,4.7533305109883095,1.36309078069689,None,120.14807709999877,None,121.58945419999873,None,121.58945419999873,None,121.58202153999954,None,['z'],121.58945419999873,None,None,,123.53147579999859,None,z,1.8412391999991087,1,1,0.5,128.2882381999989,None,None,128.2882381999989,None,[1.8412391999991087],,,,,,,,,,,,,,,,,,,,,CBC_1029,3,6,1,5,4,0.95,2023-07-21_17h16.24.897,MSI_AV_v3,2022.1.1,59.9884702163986,
4,0,4,0,,,,,,,,,,1,2,0,b,27,1,3.6438386551209,3.4543169006169,None,130.09801249999873,None,133.5688463999977,None,133.5688463999977,None,133.5652679699986,None,['b'],133.5688463999977,None,None,,135.56506609999997,None,b,1.3957941999979084,1,1,0.6,139.22205899999972,None,None,139.22205899999972,None,[1.3957941999979084],,,,,,,,,,,,,,,,,,,,,CBC_1029,3,6,1,5,4,0.95,2023-07-21_17h16.24.897,MSI_AV_v3,2022.1.1,59.9884702163986,
5,0,5,0,,,,,,,,,,0,3,0,z,9,1,4.46924002178158,0.979776149765883,None,141.03155960000004,None,142.04418530000112,None,142.04418530000112,None,142.04891574999965,None,None,142.04418530000112,None,['z'],[0.7428806999996596],143.99842290000015,None,z,2.7428806999996596,1,1,0.6666666666666666,148.45295550000083,None,None,148.45295550000083,None,,,,,,,,,,,,,,,,,,,,,,CBC_1029,3,6,1,5,4,0.95,2023-07-21_17h16.24.897,MSI_AV_v3,2022.1.1,59.9884702163986,
6,0,6,0,,,,,,,,,,1,3,2,z,63,1,2.629554641171433,1.78643585472448,None,150.26511359999859,None,152.0727994000008,None,152.0727994000008,None,152.08169566000143,None,['z'],152.0727994000008,None,None,,154.0674300999999,None,z,1.361251700000139,1,1,0.7142857142857143,156.70483319999767,None,None,156.70483319999767,None,[1.361251700000139],,,,,,,,,,,,,,,,,,,,,CBC_1029,3,6,1,5,4,0.95,2023-07-21_17h16.24.897,MSI_AV_v3,2022.1.1,59.9884702163986,
7,0,7,0,,,,,,,,,,0,0,1,b,63,1,2.517541937862754,1.38289892513751,None,158.51529780000055,None,159.92176649999965,None,159.92176649999965,None,159.9322775599998,None,None,159.92176649999965,None,['b'],[0.09805450000203564],161.89877609999894,None,b,2.0980545000020356,1,1,0.75,164.4091277999978,None,None,164.4091277999978,None,,,,,,,,,,,,,,,,,,,,,,CBC_1029,3,6,1,5,4,0.95,2023-07-21_17h16.24.897,MSI_AV_v3,2022.1.1,59.9884702163986,
8,0,8,0,,,,,,,,,,2,3,2,b,63,1,4.77723667052879,1.96568735158996,None,166.21512689999872,None,168.2031747000001,None,168.2031747000001,None,168.21514256000083,None,None,168.2031747000001,None,"['z', 'b']","[0.10906750000140164, 0.883809700000711]",170.18151829999988,None,z,2.1090675000014016,0,0,0.6666666666666666,174.9401195999999,None,None,174.9401195999999,None,,,,,,,,,,,,,,,,,,,,,,CBC_1029,3,6,1,5,4,0.95,2023-07-21_17h16.24.897,MSI_AV_v3,2022.1.1,59.9884702163986,
9,0,9,0,,,,,,,,,,1,2,3,b,63,1,4.52047235037039,1.53243550275999,None,176.74870229999942,None,178.30206410000028,None,178.30206410000028,None,178.29843916999997,None,['b'],178.30206410000028,None,None,,180.29663230000006,None,b,1.5677106000002823,1,1,0.7,184.8204842999985,None,None,184.8204842999985,None,[1.5677106000002823],,,,,,,,,,,,,,,,,,,,,CBC_1029,3,6,1,5,4,0.95,2023-07-21_17h16.24.897,MSI_AV_v3,2022.1.1,59.9884702163986,
10,0,10,0,,,,,,,,,,2,1,3,z,27,1,3.02234236141277,3.1424449555106,None,186.63196790000075,None,189.7888772999977,None,189.7888772999977,None,189.79894855999956,None,None,189.7888772999977,None,['z'],[1.0853052000020398],191.7654220000004,None,z,3.08530520000204,1,1,0.7272727272727273,194.7678307999995,None,None,194.7678307999995,None,,,,,,,,,,,,,,,,,,,,,,CBC_1029,3,6,1,5,4,0.95,2023-07-21_17h16.24.897,MSI_AV_v3,2022.1.1,59.9884702163986,
11,0,11,0,,,,,,,,,,0,1,0,z,63,0,4.11514536789087,3.33124983260532,None,196.58210569999937,None,199.93936119999853,None,199.93936119999853,None,199.94905986000086,None,['z'],199.93936119999853,None,None,,201.9317067999982,None,z,1.6424363000005542,1,0,0.75,206.05439620000107,None,None,206.05439620000107,None,[1.6424363000005542],,,,,,,,,,,,,,,,,,,,,CBC_1029,3,6,1,5,4,0.95,2023-07-21_17h16.24.897,MSI_AV_v3,2022.1.1,59.9884702163986,
12,0,12,0,,,,,,,,,,1,2,3,b,63,1,3.3728785608729996,2.49839527409216,None,207.8654205999992,None,210.38850040000034,None,210.38850040000034,None,210.39876375999884,None,None,210.38850040000034,None,['z'],[0.30276040000171633],212.3652770999979,None,z,2.3027604000017163,0,0,0.6923076923076923,215.72384949999832,None,None,215.72384949999832,None,,,,,,,,,,,,,,,,,,,,,,CBC_1029,3,6,1,5,4,0.95,2023-07-21_17h16.24.897,MSI_AV_v3,2022.1.1,59.9884702163986,
13,0,13,0,,,,,,,,,,0,0,2,b,27,1,2.342239579230602,2.6299100644723,None,217.5319634999978,None,220.189426500001,None,220.189426500001,None,220.19863316000047,None,None,220.189426500001,None,['b'],[0.21084630000041216],222.16561319999892,None,b,2.210846300000412,1,1,0.7142857142857143,224.49399830000038,None,None,224.49399830000038,None,,,,,,,,,,,,,,,,,,,,,,CBC_1029,3,6,1,5,4,0.95,2023-07-21_17h16.24.897,MSI_AV_v3,2022.1.1,59.9884702163986,
14,0,14,0,,,,,,,,,,3,0,1,z,63,1,4.01714354611405,0.77703640172831,None,226.29860980000012,None,227.08800659999906,None,227.08800659999906,None,227.09873996000024,None,['b'],227.08800659999906,None,None,,229.08432360000006,None,b,1.8227371000029962,0,0,0.6666666666666666,233.1038746999984,None,None,233.1038746999984,None,[1.8227371000029962],,,,,,,,,,,,,,,,,,,,,CBC_1029,3,6,1,5,4,0.95,2023-07-21_17h16.24.897,MSI_AV_v3,2022.1.1,59.9884702163986,
15,0,15,0,,,,,,,,,,2,3,2,b,63,1,4.53337421950507,1.64421109900286,None,234.9156014,None,236.57076999999845,None,236.57076999999845,None,236.58231626000125,None,['z'],236.57076999999845,None,None,,238.5666056000009,None,z,1.753018899999006,0,0,0.625,243.10377130000052,None,None,243.10377130000052,None,[1.753018899999006],,,,,,,,,,,,,,,,,,,,,CBC_1029,3,6,1,5,4,0.95,2023-07-21_17h16.24.897,MSI_AV_v3,2022.1.1,59.9884702163986,
16,0,16,0,,,,,,,,,,3,1,2,b,9,1,2.7134565917469198,2.78346932462847,None,244.91583639999953,None,247.72203309999895,None,247.72203309999895,None,247.7326362600019,None,['z'],247.72203309999895,None,None,,249.7159489000005,None,z,1.466774800002895,0,0,0.5882352941176471,252.4364190999986,None,None,252.4364190999986,None,[1.466774800002895],,,,,,,,,,,,,,,,,,,,,CBC_1029,3,6,1,5,4,0.95,2023-07-21_17h16.24.897,MSI_AV_v3,2022.1.1,59.9884702163986,
17,0,17,0,,,,,,,,,,2,1,3,z,27,1,3.71372710086949,2.96653053743745,None,254.24850579999838,None,257.2332779999997,None,257.2332779999997,None,257.2325868700016,None,['z'],257.2332779999997,None,None,,259.23285159999796,None,z,1.7553869000003033,1,1,0.6111111111111112,262.9555240000009,None,None,262.9555240000009,None,[1.7553869000003033],,,,,,,,,,,,,,,,,,,,,CBC_1029,3,6,1,5,4,0.95,2023-07-21_17h16.24.897,MSI_AV_v3,2022.1.1,59.9884702163986,
18,0,18,0,,,,,,,,,,0,0,1,b,63,1,4.82531807167306,3.06992456303453,None,264.7657364000006,None,267.85183010000037,None,267.85183010000037,None,267.8491814700017,None,None,267.85183010000037,None,['z'],[0.32253599999967264],269.83233579999796,None,z,2.3225359999996726,0,0,0.5789473684210527,274.6402949000003,None,None,274.6402949000003,None,,,,,,,,,,,,,,,,,,,,,,CBC_1029,3,6,1,5,4,0.95,2023-07-21_17h16.24.897,MSI_AV_v3,2022.1.1,59.9884702163986,
19,0,19,0,,,,,,,,,,0,1,0,z,63,1,3.35133458220192,0.952147612306987,None,276.4485614000005,None,277.4180039999992,None,277.4180039999992,None,277.41546116999854,None,None,277.4180039999992,None,['z'],[0.4366219000003184],279.39857800000027,None,z,2.4366219000003184,1,1,0.6,282.7336636,None,None,282.7336636,None,,,,,,,,,,,,,,,,,,,,,,CBC_1029,3,6,1,5,4,0.95,2023-07-21_17h16.24.897,MSI_AV_v3,2022.1.1,59.9884702163986,
20,0,20,0,,,,,,,,,,1,2,0,b,27,1,2.666404967794728,1.95130344756745,None,284.54888669999855,None,286.51879899999767,None,286.51879899999767,None,286.51567917000176,None,None,286.51879899999767,None,['z'],[0.9027897000014491],288.4988683999982,None,z,2.902789700001449,0,0,0.5714285714285714,291.159433599998,None,None,291.159433599998,None,,,,,,,,,,,,,,,,,,,,,,CBC_1029,3,6,1,5,4,0.95,2023-07-21_17h16.24.897,MSI_AV_v3,2022.1.1,59.9884702163986,
21,0,21,0,,,,,,,,,,3,0,1,z,63,1,3.76873691643126,3.1963008326951,None,292.9657752999992,None,296.1853209000001,None,296.1853209000001,None,296.1822387700002,None,['b'],296.1853209000001,None,None,,298.1788373999989,None,b,1.7082237000031455,0,0,0.5454545454545454,301.95390359999874,None,None,301.95390359999874,None,[1.7082237000031455],,,,,,,,,,,,,,,,,,,,,CBC_1029,3,6,1,5,4,0.95,2023-07-21_17h16.24.897,MSI_AV_v3,2022.1.1,59.9884702163986,
22,0,22,0,,,,,,,,,,1,2,0,b,27,1,2.433630701072358,3.40155979865722,None,303.76598939999894,None,307.1879678000005,None,307.1879678000005,None,307.1990035600015,None,None,307.1879678000005,None,['b'],[0.39700210000228253],309.1655045999978,None,b,2.3970021000022825,1,1,0.5652173913043478,311.5873965999999,None,None,311.5873965999999,None,,,,,,,,,,,,,,,,,,,,,,CBC_1029,3,6,1,5,4,0.95,2023-07-21_17h16.24.897,MSI_AV_v3,2022.1.1,59.9884702163986,
23,0,23,0,,,,,,,,,,2,3,2,b,63,1,2.92731383428727,1.25817747924478,None,313.3988505999987,None,314.67094129999896,None,314.67094129999896,None,314.68244826000085,None,None,314.67094129999896,None,['b'],[0.2779307999990124],316.64913389999856,None,b,2.2779307999990124,1,1,0.5833333333333334,319.57126380000045,None,None,319.57126380000045,None,,,,,,,,,,,,,,,,,,,,,,CBC_1029,3,6,1,5,4,0.95,2023-07-21_17h16.24.897,MSI_AV_v3,2022.1.1,59.9884702163986,
24,0,24,0,,,,,,,,,,0,1,0,z,63,1,3.68371079902891,1.53122835510861,None,321.38275109999813,None,322.9367106999998,None,322.9367106999998,None,322.9327049699994,None,None,322.9367106999998,None,['z'],[2.2087317000004987],324.9161615000012,None,z,4.208731700000499,1,1,0.6,328.58493960000123,None,None,328.58493960000123,None,,,,,,,,,,,,,,,,,,,,,,CBC_1029,3,6,1,5,4,0.95,2023-07-21_17h16.24.897,MSI_AV_v3,2022.1.1,59.9884702163986,
25,0,25,0,,,,,,,,,,1,3,2,z,63,1,2.693348633324513,0.974903167432984,None,330.39891759999955,None,331.3880195999991,None,331.3880195999991,None,331.3823648700007,None,['z'],331.3880195999991,None,None,,333.3821373999999,None,z,1.0964677000010852,1,1,0.6153846153846154,336.08882430000085,None,None,336.08882430000085,None,[1.0964677000010852],,,,,,,,,,,,,,,,,,,,,CBC_1029,3,6,1,5,4,0.95,2023-07-21_17h16.24.897,MSI_AV_v3,2022.1.1,59.9884702163986,
26,0,26,0,,,,,,,,,,0,2,0,z,27,1,2.678526077912375,2.09887870490381,None,337.89935479999986,None,340.0207921000001,None,340.0207921000001,None,340.0328972599986,None,['z'],340.0207921000001,None,None,,342.0138009000002,None,z,1.6107009000006656,1,1,0.6296296296296297,344.6868066999996,None,None,344.6868066999996,None,[1.6107009000006656],,,,,,,,,,,,,,,,,,,,,CBC_1029,3,6,1,5,4,0.95,2023-07-21_17h16.24.897,MSI_AV_v3,2022.1.1,59.9884702163986,
27,0,27,0,,,,,,,,,,2,3,2,b,63,1,2.792365600763554,1.25920145784721,None,346.4990670999978,None,347.77072430000044,None,347.77072430000044,None,347.78279246000096,None,['z'],347.77072430000044,None,None,,349.7675578999988,None,z,1.7150011000012455,0,0,0.6071428571428571,352.5704141999995,None,None,352.5704141999995,None,[1.7150011000012455],,,,,,,,,,,,,,,,,,,,,CBC_1029,3,6,1,5,4,0.95,2023-07-21_17h16.24.897,MSI_AV_v3,2022.1.1,59.9884702163986,
28,0,28,0,,,,,,,,,,2,3,2,b,63,1,3.7500315165247198,1.1243895841892,None,354.3829003999999,None,355.5201792000007,None,355.5201792000007,None,355.5159140700005,None,None,355.5201792000007,None,['b'],[0.3275895999977365],357.49903749999794,None,b,2.3275895999977365,1,1,0.6206896551724138,361.24222910000026,None,None,361.24222910000026,None,,,,,,,,,,,,,,,,,,,,,,CBC_1029,3,6,1,5,4,0.95,2023-07-21_17h16.24.897,MSI_AV_v3,2022.1.1,59.9884702163986,
29,0,29,0,,,,,,,,,,3,3,1,z,27,1,2.91303524001082,0.761758675042088,None,363.048870300001,None,363.82374960000016,None,363.82374960000016,None,363.8330895599997,None,None,363.82374960000016,None,['z'],[0.35554659999979776],365.79937009999776,None,z,2.3555465999997978,1,1,0.6333333333333333,368.70147329999963,None,None,368.70147329999963,None,,,,,,,,,,,,,,,,,,,,,,CBC_1029,3,6,1,5,4,0.95,2023-07-21_17h16.24.897,MSI_AV_v3,2022.1.1,59.9884702163986,
30,0,30,0,,,,,,,,,,2,0,3,z,9,1,4.61004669244928,2.40378712856304,None,370.5159915000004,None,372.9381280999987,None,372.9381280999987,None,372.93284596999985,None,['z'],372.9381280999987,None,['b'],[0.48841969999921275],374.93283090000114,None,z,1.6375112000023364,1,1,0.6451612903225806,379.5551610000002,None,None,379.5551610000002,None,[1.6375112000023364],,,,,,,,,,,,,,,,,,,,,CBC_1029,3,6,1,5,4,0.95,2023-07-21_17h16.24.897,MSI_AV_v3,2022.1.1,59.9884702163986,
31,0,31,0,,,,,,,,,,3,1,0,b,63,1,4.72585056748869,1.18065738546375,None,381.3658801999991,None,382.5673085999988,None,382.5673085999988,None,382.5657575700014,None,None,382.5673085999988,None,['z'],[0.5142348000008496],384.5492521999986,None,z,2.5142348000008496,0,0,0.625,389.2678741999989,None,None,389.2678741999989,None,,,,,,,,,,,,,,,,,,,,,,CBC_1029,3,6,1,5,4,0.95,2023-07-21_17h16.24.897,MSI_AV_v3,2022.1.1,59.9884702163986,
32,0,32,0,,,,,,,,,,0,1,0,z,63,1,2.6391747348430608,1.90743690794447,None,391.08245429999806,None,393.0026446000011,None,393.0026446000011,None,392.9997774700012,None,None,393.0026446000011,None,['z'],[0.6817229000007501],394.98242989999926,None,z,2.68172290000075,1,1,0.6363636363636364,397.62132629999905,None,None,397.62132629999905,None,,,,,,,,,,,,,,,,,,,,,,CBC_1029,3,6,1,5,4,0.95,2023-07-21_17h16.24.897,MSI_AV_v3,2022.1.1,59.9884702163986,
33,0,33,0,,,,,,,,,,3,1,0,b,63,1,2.496959177995529,3.24569326556923,None,399.43240589999914,None,402.7023850999976,None,402.7023850999976,None,402.6993975700014,None,['z'],402.7023850999976,None,None,,404.70309199999974,None,z,1.4203283000024385,0,0,0.6176470588235294,407.2045135999979,None,None,407.2045135999979,None,[1.4203283000024385],,,,,,,,,,,,,,,,,,,,,CBC_1029,3,6,1,5,4,0.95,2023-07-21_17h16.24.897,MSI_AV_v3,2022.1.1,59.9884702163986,
34,0,34,0,,,,,,,,,,1,3,2,z,63,1,2.526044641065533,0.917519910446003,None,409.015881299998,None,409.9515771000006,None,409.9515771000006,None,409.9496714699988,None,['z'],409.9515771000006,None,None,,411.94825950000086,None,z,1.1278117000038037,1,1,0.6285714285714286,414.47347779999836,None,None,414.47347779999836,None,[1.1278117000038037],,,,,,,,,,,,,,,,,,,,,CBC_1029,3,6,1,5,4,0.95,2023-07-21_17h16.24.897,MSI_AV_v3,2022.1.1,59.9884702163986,
35,0,35,0,,,,,,,,,,0,0,2,b,27,1,2.294664843639333,1.34668860557497,None,416.2826805000004,None,417.64948110000114,None,417.64948110000114,None,417.6493257700011,None,None,417.64948110000114,None,['b'],[0.5396016000013333],419.6327769999989,None,b,2.5396016000013333,1,1,0.6388888888888888,421.9122853999979,None,None,421.9122853999979,None,,,,,,,,,,,,,,,,,,,,,,CBC_1029,3,6,1,5,4,0.95,2023-07-21_17h16.24.897,MSI_AV_v3,2022.1.1,59.9884702163986,
36,0,36,0,,,,,,,,,,3,1,0,b,63,1,3.2062024266105302,1.60731937853708,None,423.7161555999992,None,425.33685400000104,None,425.33685400000104,None,425.34936496000086,None,['z'],425.33685400000104,None,None,,427.3349347000003,None,z,1.3341240999980073,0,0,0.6216216216216216,430.5517379999983,None,None,430.5517379999983,None,[1.3341240999980073],,,,,,,,,,,,,,,,,,,,,CBC_1029,3,6,1,5,4,0.95,2023-07-21_17h16.24.897,MSI_AV_v3,2022.1.1,59.9884702163986,
37,0,37,0,,,,,,,,,,3,3,1,z,27,1,3.26539063535182,1.43470440954152,None,432.3662829999994,None,433.8223289999987,None,433.8223289999987,None,433.83329025999996,None,['z'],433.8223289999987,None,None,,435.8138930999994,None,z,1.7863956000037433,1,1,0.631578947368421,439.0904472000002,None,None,439.0904472000002,None,[1.7863956000037433],,,,,,,,,,,,,,,,,,,,,CBC_1029,3,6,1,5,4,0.95,2023-07-21_17h16.24.897,MSI_AV_v3,2022.1.1,59.9884702163986,
38,0,38,0,,,,,,,,,,1,3,2,z,63,1,4.12485271162806,1.12425433982333,None,440.8997068999997,None,442.0327208999988,None,442.0327208999988,None,442.0329784699996,None,['z'],442.0327208999988,None,None,,444.0348133999978,None,z,0.9387028999990434,1,1,0.6410256410256411,448.1732871999993,None,None,448.1732871999993,None,[0.9387028999990434],,,,,,,,,,,,,,,,,,,,,CBC_1029,3,6,1,5,4,0.95,2023-07-21_17h16.24.897,MSI_AV_v3,2022.1.1,59.9884702163986,
39,0,39,0,,,,,,,,,,2,3,1,b,27,1,2.2759877950103027,1.94858485820231,None,449.9827708999983,None,451.95140639999954,None,451.95140639999954,None,451.94980966999975,None,None,451.95140639999954,None,['b'],[0.16352660000120522],453.9329685999983,None,b,2.1635266000012052,1,1,0.65,456.2002728999978,None,None,456.2002728999978,None,,,,,,,,,,,,,,,,,,,,,,CBC_1029,3,6,1,5,4,0.95,2023-07-21_17h16.24.897,MSI_AV_v3,2022.1.1,59.9884702163986,
40,0,40,0,,,,,,,,,,1,1,2,z,9,1,2.592312596923728,2.15533949826702,None,457.99945429999934,None,460.1697275000006,None,460.1697275000006,None,460.1662227699988,None,['z'],460.1697275000006,None,None,,462.1655374000002,None,z,1.7785302000011143,1,1,0.6585365853658537,464.7580787000006,None,None,464.7580787000006,None,[1.7785302000011143],,,,,,,,,,,,,,,,,,,,,CBC_1029,3,6,1,5,4,0.95,2023-07-21_17h16.24.897,MSI_AV_v3,2022.1.1,59.9884702163986,
41,0,41,0,,,,,,,,,,3,0,1,z,63,0,3.73326136168326,1.52290599571961,None,466.5662645000011,None,468.1039118000008,None,468.1039118000008,None,468.11622026000117,None,['b'],468.1039118000008,None,['z'],[3.6541051999993215],470.1042005999989,None,b,1.3258762000004936,0,1,0.6428571428571429,473.84214749999956,None,None,473.84214749999956,None,[1.3258762000004936],,,,,,,,,,,,,,,,,,,,,CBC_1029,3,6,1,5,4,0.95,2023-07-21_17h16.24.897,MSI_AV_v3,2022.1.1,59.9884702163986,
42,0,42,0,,,,,,,,,,2,3,2,b,63,1,3.31929419319838,1.21250262048173,None,475.6497152999982,None,476.8715192999989,None,476.8715192999989,None,476.88303476000004,None,['b'],476.8715192999989,None,None,,478.8673659999986,None,b,1.6731479999980365,1,1,0.6511627906976745,482.19150629999785,None,None,482.19150629999785,None,[1.6731479999980365],,,,,,,,,,,,,,,,,,,,,CBC_1029,3,6,1,5,4,0.95,2023-07-21_17h16.24.897,MSI_AV_v3,2022.1.1,59.9884702163986,
43,0,43,0,,,,,,,,,,0,0,1,b,63,1,4.40017271499661,0.80788063606262,None,483.99958689999767,None,484.8232304999983,None,484.8232304999983,None,484.8332602600007,None,None,484.8232304999983,None,['z'],[0.6565713999989384],486.7997381999994,None,z,2.6565713999989384,0,0,0.6363636363636364,491.19720640000014,None,None,491.19720640000014,None,,,,,,,,,,,,,,,,,,,,,,CBC_1029,3,6,1,5,4,0.95,2023-07-21_17h16.24.897,MSI_AV_v3,2022.1.1,59.9884702163986,
,,,,,,,,,,,,,,,,,,,,,,,,,,,,,,,,,,,,,,,,,,,,,,,,None,492.9993055999985,None,,,,,,,,,,,,,,,,,,CBC_1029,3,6,1,5,4,0.95,2023-07-21_17h16.24.897,MSI_AV_v3,2022.1.1,59.9884702163986,
,,,,,,,,,,,,,,,,,,,,,,,,,,,,,,,,,,,,,,,,,,,,,,,,,,,497.9996375999981,None,None,497.9996375999981,None,,,,,,,,,,,,,CBC_1029,3,6,1,5,4,0.95,2023-07-21_17h16.24.897,MSI_AV_v3,2022.1.1,59.9884702163986,
,,,,,,,,,,,,,,,,,,,,,,,,,,,,,,,,,,,,,,,,,,,,,,,,,,,,,,,,z,b,easy,"[0, 1, 2, 3]","[0, 3, 1, 2]",0.7272727272727273,0.36363636363636365,0.8181818181818182,0.6363636363636364,28,0,16,,,,,,,,,,,,
