trials_runs.thisRepN,trials_runs.thisTrialN,trials_runs.thisN,trials_runs.thisIndex,standbild_start.started,standbild_start.stopped,trigger.keys,trigger.rt,trigger.started,trigger.stopped,keys_2.keys,keys_2.started,keys_2.stopped,trials_runs.auditory_stim,trials_runs.visual_stim_left,trials_runs.visual_stim_right,trials_runs.correctKey,trials_runs.presentationFrequncy,trials_runs.FBaccuracy,trials_runs.ISI_s,trials_runs.ITI_s,keys_3.keys,keys_3.started,keys_3.stopped,ImageLeft_4.started,ImageLeft_4.stopped,ImageRight_4.started,ImageRight_4.stopped,sound_4.started,sound_4.stopped,response_4.keys,response_4.started,response_4.stopped,response_5.keys,response_5.rt,response_5.started,response_5.stopped,response_runs.keys,response_runs.rt,trials_runs.correct_answer,trials_runs.feedback_given,trials_runs.running_mean,feedback_6.started,feedback_6.stopped,keys_6.keys,keys_6.started,keys_6.stopped,response_4.rt,keys_7.keys,keys_7.started,keys_7.stopped,standbild_end.started,standbild_end.stopped,Stop_exp.keys,Stop_exp.started,Stop_exp.stopped,trials_runs.rightKey,trials_runs.leftKey,ts_difficulty,visualPair,audioPair,trials_runs.mean_acc_1stFourth,trials_runs.mean_acc_2ndFourth,trials_runs.mean_acc_3rdFourth,trials_runs.mean_acc_4thFourth,nbCorrect,nbOmissions,nbIncorrect,participant,session,visual set [1-6],audio set [1-3],trial structure [0-3 / 4-7],pairing [0-23],prob Feedback,date,expName,psychopyVersion,frameRate,
,,,,35.53427430000011,None,t,57.79951349999919,35.53427430000011,None,,,,,,,,,,,,,,,,,,,,,,,,,,,,,,,,,,,,,,,,,,,,,,,,,,,,,,,,,,,CBC_1022,002,4,1,0,21,0.95,2023-07-18_13h44.55.295,MSI_AV_v3,2022.1.1,59.923764986231205,
,,,,,,,,,,None,93.36075790000086,None,,,,,,,,,,,,,,,,,,,,,,,,,,,,,,,,,,,,,,,,,,,,,,,,,,,,,,,,CBC_1022,002,4,1,0,21,0.95,2023-07-18_13h44.55.295,MSI_AV_v3,2022.1.1,59.923764986231205,
0,0,0,0,,,,,,,,,,3,0,1,b,63,1,3.02234236141277,1.43470440954152,None,93.56081180000001,None,95.19995260000087,None,95.19995260000087,None,95.21025974999975,None,None,95.19995260000087,None,['z'],[0.37517919999936566],96.99375210000017,None,z,2.3751791999993657,0,0,0.0,100.01129270000001,None,None,100.01129270000001,None,,,,,,,,,,,,,,,,,,,,,,CBC_1022,002,4,1,0,21,0.95,2023-07-18_13h44.55.295,MSI_AV_v3,2022.1.1,59.923764986231205,
1,0,1,0,,,,,,,,,,2,2,3,b,63,1,4.77034425507967,1.95130344756745,None,101.81091130000004,None,103.84424200000012,None,103.84424200000012,None,103.84417348999995,None,None,103.84424200000012,None,['b'],[0.48816729999907693],105.76091950000045,None,b,2.488167299999077,1,1,0.5,110.51829370000087,None,None,110.51829370000087,None,,,,,,,,,,,,,,,,,,,,,,CBC_1022,002,4,1,0,21,0.95,2023-07-18_13h44.55.295,MSI_AV_v3,2022.1.1,59.923764986231205,
2,0,2,0,,,,,,,,,,3,2,0,z,27,1,4.77723667052879,0.77703640172831,None,112.32745070000055,None,113.11641950000012,None,113.11641950000012,None,113.12723078000035,None,None,113.11641950000012,None,['b'],[0.565379299999222],115.0939012000008,None,b,2.565379299999222,0,0,0.3333333333333333,119.8603750000002,None,None,119.8603750000002,None,,,,,,,,,,,,,,,,,,,,,,CBC_1022,002,4,1,0,21,0.95,2023-07-18_13h44.55.295,MSI_AV_v3,2022.1.1,59.923764986231205,
3,0,3,0,,,,,,,,,,1,0,1,z,63,1,2.526044641065533,0.761758675042088,None,121.66091490000053,None,122.47748310000043,None,122.47748310000043,None,122.47759864999989,None,None,122.47748310000043,None,['z'],[0.6163751999984015],124.4277174000008,None,z,2.6163751999984015,1,1,0.5,126.94715070000075,None,None,126.94715070000075,None,,,,,,,,,,,,,,,,,,,,,,CBC_1022,002,4,1,0,21,0.95,2023-07-18_13h44.55.295,MSI_AV_v3,2022.1.1,59.923764986231205,
4,0,4,0,,,,,,,,,,0,3,2,b,63,1,4.46924002178158,1.53243550275999,None,128.76106940000045,None,130.33984840000085,None,130.33984840000085,None,130.34398395000062,None,None,130.33984840000085,None,['b'],[0.22103229999902396],132.29407550000087,None,b,2.221032299999024,1,1,0.6,136.75244910000038,None,None,136.75244910000038,None,,,,,,,,,,,,,,,,,,,,,,CBC_1022,002,4,1,0,21,0.95,2023-07-18_13h44.55.295,MSI_AV_v3,2022.1.1,59.923764986231205,
5,0,5,0,,,,,,,,,,1,2,1,z,9,1,2.92731383428727,2.09887870490381,None,138.5610000000006,None,140.6833419000004,None,140.6833419000004,None,140.6943149800003,None,None,140.6833419000004,None,['z'],[0.5746273999993718],142.66098540000075,None,z,2.574627399999372,1,1,0.6666666666666666,145.5848072000008,None,None,145.5848072000008,None,,,,,,,,,,,,,,,,,,,,,,CBC_1022,002,4,1,0,21,0.95,2023-07-18_13h44.55.295,MSI_AV_v3,2022.1.1,59.923764986231205,
6,0,6,0,,,,,,,,,,0,3,1,b,27,1,4.72585056748869,2.49839527409216,None,147.3941515000006,None,149.91206900000088,None,149.91206900000088,None,149.9106365100004,None,None,149.91206900000088,None,['b'],[0.5777348999999958],151.89407120000033,None,b,2.577734899999996,1,1,0.7142857142857143,156.5990623000007,None,None,156.5990623000007,None,,,,,,,,,,,,,,,,,,,,,,CBC_1022,002,4,1,0,21,0.95,2023-07-18_13h44.55.295,MSI_AV_v3,2022.1.1,59.923764986231205,
7,0,7,0,,,,,,,,,,3,0,1,b,63,1,2.2759877950103027,2.78346932462847,None,158.41087960000004,None,161.21650220000083,None,161.21650220000083,None,161.2273647800006,None,None,161.21650220000083,None,['z'],[0.3750388999997085],163.19406080000044,None,z,2.3750388999997085,0,0,0.625,165.4494869,None,None,165.4494869,None,,,,,,,,,,,,,,,,,,,,,,CBC_1022,002,4,1,0,21,0.95,2023-07-18_13h44.55.295,MSI_AV_v3,2022.1.1,59.923764986231205,
8,0,8,0,,,,,,,,,,3,1,0,z,63,1,2.6391747348430608,1.64421109900286,None,167.26115400000072,None,168.9111339000001,None,168.9111339000001,None,168.91080751000007,None,None,168.9111339000001,None,['b'],[0.30635139999958483],170.8942700000007,None,b,2.306351399999585,0,0,0.5555555555555556,173.52411550000033,None,None,173.52411550000033,None,,,,,,,,,,,,,,,,,,,,,,CBC_1022,002,4,1,0,21,0.95,2023-07-18_13h44.55.295,MSI_AV_v3,2022.1.1,59.923764986231205,
9,0,9,0,,,,,,,,,,2,0,2,z,27,1,2.666404967794728,2.6299100644723,None,175.32750060000035,None,177.98138650000055,None,177.98138650000055,None,177.97741621000003,None,None,177.98138650000055,None,['z'],[0.4074838999986241],179.96017090000078,None,z,2.407483899998624,1,1,0.6,182.61580420000064,None,None,182.61580420000064,None,,,,,,,,,,,,,,,,,,,,,,CBC_1022,002,4,1,0,21,0.95,2023-07-18_13h44.55.295,MSI_AV_v3,2022.1.1,59.923764986231205,
10,0,10,0,,,,,,,,,,1,1,0,b,63,1,2.342239579230602,1.18065738546375,None,184.42757070000062,None,185.63205130000006,None,185.63205130000006,None,185.62766081000044,None,None,185.63205130000006,None,['z'],[0.6064380999996501],187.61111970000002,None,z,2.60643809999965,0,0,0.5454545454545454,189.9428454000008,None,None,189.9428454000008,None,,,,,,,,,,,,,,,,,,,,,,CBC_1022,002,4,1,0,21,0.95,2023-07-18_13h44.55.295,MSI_AV_v3,2022.1.1,59.923764986231205,
11,0,11,0,,,,,,,,,,3,1,0,z,63,1,3.71372710086949,1.12425433982333,None,191.74451560000034,None,192.86959300000035,None,192.86959300000035,None,192.87769481000012,None,None,192.86959300000035,None,['b'],[0.44906489999993937],194.86082800000077,None,b,2.4490648999999394,0,0,0.5,198.55812190000051,None,None,198.55812190000051,None,,,,,,,,,,,,,,,,,,,,,,CBC_1022,002,4,1,0,21,0.95,2023-07-18_13h44.55.295,MSI_AV_v3,2022.1.1,59.923764986231205,
12,0,12,0,,,,,,,,,,2,2,3,b,63,1,4.7533305109883095,2.10421507306074,None,200.3609363000005,None,202.48301690000062,None,202.48301690000062,None,202.4942035799999,None,None,202.48301690000062,None,['z'],[0.3854312999992544],204.4609616000007,None,z,2.3854312999992544,0,0,0.46153846153846156,209.2025293000006,None,None,209.2025293000006,None,,,,,,,,,,,,,,,,,,,,,,CBC_1022,002,4,1,0,21,0.95,2023-07-18_13h44.55.295,MSI_AV_v3,2022.1.1,59.923764986231205,
13,0,13,0,,,,,,,,,,3,2,0,z,27,1,4.40017271499661,1.78643585472448,None,211.01067710000007,None,212.81756080000014,None,212.81756080000014,None,212.8277141800003,None,None,212.81756080000014,None,['b'],[0.08566399999926944],214.79464730000018,None,b,2.0856639999992694,0,0,0.42857142857142855,219.18681510000079,None,None,219.18681510000079,None,,,,,,,,,,,,,,,,,,,,,,CBC_1022,002,4,1,0,21,0.95,2023-07-18_13h44.55.295,MSI_AV_v3,2022.1.1,59.923764986231205,
14,0,14,0,,,,,,,,,,1,0,1,z,63,1,2.91303524001082,2.22427187882546,None,220.99426060000042,None,223.23631700000078,None,223.23631700000078,None,223.2442663800006,None,None,223.23631700000078,None,['z'],[0.5240069999990737],225.21081960000083,None,z,2.5240069999990737,1,1,0.4666666666666667,228.12121040000056,None,None,228.12121040000056,None,,,,,,,,,,,,,,,,,,,,,,CBC_1022,002,4,1,0,21,0.95,2023-07-18_13h44.55.295,MSI_AV_v3,2022.1.1,59.923764986231205,
15,0,15,0,,,,,,,,,,1,1,0,b,63,1,4.53337421950507,1.21250262048173,None,229.9275449000006,None,231.16393120000066,None,231.16393120000066,None,231.16080950999984,None,None,231.16393120000066,None,['b'],[0.6444230999995852],233.14427890000024,None,b,2.6444230999995852,1,1,0.5,237.67318570000043,None,None,237.67318570000043,None,,,,,,,,,,,,,,,,,,,,,,CBC_1022,002,4,1,0,21,0.95,2023-07-18_13h44.55.295,MSI_AV_v3,2022.1.1,59.923764986231205,
16,0,16,0,,,,,,,,,,2,2,3,b,63,1,2.496959177995529,1.60731937853708,None,239.47784300000058,None,241.09750900000017,None,241.09750900000017,None,241.09425621000062,None,None,241.09750900000017,None,['z'],[0.33843139999953564],243.07755370000086,None,z,2.3384313999995356,0,0,0.47058823529411764,245.57186880000063,None,None,245.57186880000063,None,,,,,,,,,,,,,,,,,,,,,,CBC_1022,002,4,1,0,21,0.95,2023-07-18_13h44.55.295,MSI_AV_v3,2022.1.1,59.923764986231205,
17,0,17,0,,,,,,,,,,0,1,3,z,27,1,2.678526077912375,1.90743690794447,None,247.3777086,None,249.2990043000009,None,249.2990043000009,None,249.3110631800004,None,None,249.2990043000009,None,['b'],[0.43688339999880554],251.27783220000038,None,b,2.4368833999988055,0,0,0.4444444444444444,253.94200630000068,None,None,253.94200630000068,None,,,,,,,,,,,,,,,,,,,,,,CBC_1022,002,4,1,0,21,0.95,2023-07-18_13h44.55.295,MSI_AV_v3,2022.1.1,59.923764986231205,
18,0,18,0,,,,,,,,,,2,2,1,b,9,1,2.693348633324513,1.25817747924478,None,255.74466080000002,None,257.01746550000007,None,257.01746550000007,None,257.0275675799998,None,None,257.01746550000007,None,['z'],[0.42348799999854236],258.9943011000005,None,z,2.4234879999985424,0,0,0.42105263157894735,261.68220200000087,None,None,261.68220200000087,None,,,,,,,,,,,,,,,,,,,,,,CBC_1022,002,4,1,0,21,0.95,2023-07-18_13h44.55.295,MSI_AV_v3,2022.1.1,59.923764986231205,
19,0,19,0,,,,,,,,,,1,1,3,b,27,1,2.592312596923728,3.1424449555106,None,263.49462180000046,None,266.6502547,None,266.6502547,None,266.6611989799998,None,None,266.6502547,None,['b'],[0.6792689999992945],268.6278398000004,None,b,2.6792689999992945,1,1,0.45,271.21204710000075,None,None,271.21204710000075,None,,,,,,,,,,,,,,,,,,,,,,CBC_1022,002,4,1,0,21,0.95,2023-07-18_13h44.55.295,MSI_AV_v3,2022.1.1,59.923764986231205,
20,0,20,0,,,,,,,,,,0,2,3,z,63,1,2.433630701072358,1.34668860557497,None,273.01097780000055,None,274.3825142000005,None,274.3825142000005,None,274.39430938000027,None,None,274.3825142000005,None,['z'],[0.3100899999990361],276.3606554000007,None,z,2.310089999999036,1,1,0.47619047619047616,278.7752407000007,None,None,278.7752407000007,None,,,,,,,,,,,,,,,,,,,,,,CBC_1022,002,4,1,0,21,0.95,2023-07-18_13h44.55.295,MSI_AV_v3,2022.1.1,59.923764986231205,
21,0,21,0,,,,,,,,,,1,0,1,z,63,0,4.61004669244928,0.917519910446003,None,280.5780239000005,None,281.51586450000013,None,281.51586450000013,None,281.5280708800005,None,None,281.51586450000013,None,['b'],[0.7512624999999389],283.49436460000015,None,b,2.751262499999939,0,1,0.45454545454545453,288.0837726000009,None,None,288.0837726000009,None,,,,,,,,,,,,,,,,,,,,,,CBC_1022,002,4,1,0,21,0.95,2023-07-18_13h44.55.295,MSI_AV_v3,2022.1.1,59.923764986231205,
22,0,22,0,,,,,,,,,,3,0,3,b,9,1,3.7500315165247198,1.94858485820231,None,289.8946128000007,None,291.8656780000001,None,291.8656780000001,None,291.87753707999985,None,None,291.8656780000001,None,['z'],[0.05466869999963819],293.8440117,None,z,2.054668699999638,0,0,0.43478260869565216,297.5786342000001,None,None,297.5786342000001,None,,,,,,,,,,,,,,,,,,,,,,CBC_1022,002,4,1,0,21,0.95,2023-07-18_13h44.55.295,MSI_AV_v3,2022.1.1,59.923764986231205,
23,0,23,0,,,,,,,,,,0,3,2,b,63,1,3.2062024266105302,2.40378712856304,None,299.3777387,None,301.7793264000002,None,301.7793264000002,None,301.77696174000016,None,None,301.7793264000002,None,['z'],[0.38792429999921296],303.76147480000054,None,z,2.387924299999213,0,0,0.4166666666666667,306.95181500000035,None,None,306.95181500000035,None,,,,,,,,,,,,,,,,,,,,,,CBC_1022,002,4,1,0,21,0.95,2023-07-18_13h44.55.295,MSI_AV_v3,2022.1.1,59.923764986231205,
24,0,24,0,,,,,,,,,,1,3,1,z,27,1,4.12485271162806,1.52290599571961,None,308.7613734000006,None,310.2994638,None,310.2994638,None,310.3112691800001,None,['b'],310.2994638,None,None,,312.2852003000007,None,b,1.8834998999991512,0,0,0.4,316.3998996,None,None,316.3998996,None,[1.8834998999991512],,,,,,,,,,,,,,,,,,,,,CBC_1022,002,4,1,0,21,0.95,2023-07-18_13h44.55.295,MSI_AV_v3,2022.1.1,59.923764986231205,
25,0,25,0,,,,,,,,,,2,3,2,z,63,1,2.517541937862754,1.53122835510861,None,318.21127440000055,None,319.76756660000046,None,319.76756660000046,None,319.7781620800001,None,None,319.76756660000046,None,['b'],[0.5279648999994606],321.74457490000077,None,b,2.5279648999994606,0,0,0.38461538461538464,324.2424767000002,None,None,324.2424767000002,None,,,,,,,,,,,,,,,,,,,,,,CBC_1022,002,4,1,0,21,0.95,2023-07-18_13h44.55.295,MSI_AV_v3,2022.1.1,59.923764986231205,
26,0,26,0,,,,,,,,,,2,0,2,z,27,1,3.68371079902891,2.96653053743745,None,326.04451490000065,None,329.0333356000001,None,329.0333356000001,None,329.04456307999993,None,None,329.0333356000001,None,['z'],[0.8938273999992816],331.0113377000007,None,z,2.8938273999992816,1,1,0.4074074074074074,334.6942073,None,None,334.6942073,None,,,,,,,,,,,,,,,,,,,,,,CBC_1022,002,4,1,0,21,0.95,2023-07-18_13h44.55.295,MSI_AV_v3,2022.1.1,59.923764986231205,
27,0,27,0,,,,,,,,,,1,1,0,b,63,1,4.01714354611405,1.96568735158996,None,336.4947703000007,None,338.4818081000003,None,338.4818081000003,None,338.49459838000024,None,None,338.4818081000003,None,['b'],[0.7627663999992365],340.4612308000005,None,b,2.7627663999992365,1,1,0.42857142857142855,344.4836501000009,None,None,344.4836501000009,None,,,,,,,,,,,,,,,,,,,,,,CBC_1022,002,4,1,0,21,0.95,2023-07-18_13h44.55.295,MSI_AV_v3,2022.1.1,59.923764986231205,
28,0,28,0,,,,,,,,,,2,3,2,z,63,1,4.52047235037039,3.1963008326951,None,346.2952443000004,None,349.4987992000006,None,349.4987992000006,None,349.51129388000066,None,None,349.4987992000006,None,['z'],[0.41736979999859614],351.4784694,None,z,2.417369799998596,1,1,0.4482758620689655,355.98998160000065,None,None,355.98998160000065,None,,,,,,,,,,,,,,,,,,,,,,CBC_1022,002,4,1,0,21,0.95,2023-07-18_13h44.55.295,MSI_AV_v3,2022.1.1,59.923764986231205,
29,0,29,0,,,,,,,,,,3,0,1,b,63,1,4.11514536789087,0.979776149765883,None,357.79494200000045,None,358.8041296000001,None,358.8041296000001,None,358.81180118000015,None,None,358.8041296000001,None,['b'],[0.21809940000002825],360.7775691000006,None,b,2.2180994000000283,1,1,0.4666666666666667,364.8734187,None,None,364.8734187,None,,,,,,,,,,,,,,,,,,,,,,CBC_1022,002,4,1,0,21,0.95,2023-07-18_13h44.55.295,MSI_AV_v3,2022.1.1,59.923764986231205,
30,0,30,0,,,,,,,,,,0,3,2,b,63,1,2.82320408183943,1.38289892513751,None,366.67813170000045,None,368.0807519,None,368.0807519,None,368.0781479100004,None,None,368.0807519,None,['b'],[0.48921579999932874],370.0615491000008,None,b,2.4892157999993287,1,1,0.4838709677419355,372.8708671000004,None,None,372.8708671000004,None,,,,,,,,,,,,,,,,,,,,,,CBC_1022,002,4,1,0,21,0.95,2023-07-18_13h44.55.295,MSI_AV_v3,2022.1.1,59.923764986231205,
31,0,31,0,,,,,,,,,,2,3,2,z,63,1,2.294664843639333,3.4543169006169,None,374.6786041000005,None,378.1492167000006,None,378.1492167000006,None,378.1455864100006,None,None,378.1492167000006,None,['z'],[0.3159228999993502],380.12817200000063,None,z,2.31592289999935,1,1,0.5,382.4129829000003,None,None,382.4129829000003,None,,,,,,,,,,,,,,,,,,,,,,CBC_1022,002,4,1,0,21,0.95,2023-07-18_13h44.55.295,MSI_AV_v3,2022.1.1,59.923764986231205,
32,0,32,0,,,,,,,,,,0,1,3,z,27,1,4.190022164497369,3.33124983260532,None,384.2282081000003,None,387.58200360000046,None,387.58200360000046,None,387.5947789800006,None,None,387.58200360000046,None,['b'],[0.035320699998919736],389.56154570000035,None,b,2.0353206999989197,0,0,0.48484848484848486,393.7425411000004,None,None,393.7425411000004,None,,,,,,,,,,,,,,,,,,,,,,CBC_1022,002,4,1,0,21,0.95,2023-07-18_13h44.55.295,MSI_AV_v3,2022.1.1,59.923764986231205,
33,0,33,0,,,,,,,,,,2,2,0,b,27,1,3.6438386551209,1.1243895841892,None,395.54474310000023,None,396.66314020000027,None,396.66314020000027,None,396.6608988400005,None,None,396.66314020000027,None,['z'],[0.41926629999943543],398.6447001000006,None,z,2.4192662999994354,0,0,0.47058823529411764,402.28495940000084,None,None,402.28495940000084,None,,,,,,,,,,,,,,,,,,,,,,CBC_1022,002,4,1,0,21,0.95,2023-07-18_13h44.55.295,MSI_AV_v3,2022.1.1,59.923764986231205,
34,0,34,0,,,,,,,,,,0,3,2,b,63,0,3.31929419319838,3.24569326556923,None,404.09494200000063,None,407.3529679000003,None,407.3529679000003,None,407.3615908800006,None,None,407.3529679000003,None,['z'],[0.43097969999871566],409.32769670000016,None,z,2.4309796999987157,0,1,0.45714285714285713,412.6228725000001,None,None,412.6228725000001,None,,,,,,,,,,,,,,,,,,,,,,CBC_1022,002,4,1,0,21,0.95,2023-07-18_13h44.55.295,MSI_AV_v3,2022.1.1,59.923764986231205,
35,0,35,0,,,,,,,,,,3,0,1,b,63,1,3.73326136168326,0.974903167432984,None,414.42780330000005,None,415.4157681000006,None,415.4157681000006,None,415.4114953100005,None,None,415.4157681000006,None,['b'],[1.3600385999989157],417.3949306000004,None,b,3.3600385999989157,1,1,0.4722222222222222,421.12164160000066,None,None,421.12164160000066,None,,,,,,,,,,,,,,,,,,,,,,CBC_1022,002,4,1,0,21,0.95,2023-07-18_13h44.55.295,MSI_AV_v3,2022.1.1,59.923764986231205,
36,0,36,0,,,,,,,,,,2,3,2,z,63,1,3.3728785608729996,0.952147612306987,None,422.92830460000005,None,423.90217570000004,None,423.90217570000004,None,423.9120332800007,None,None,423.90217570000004,None,['b'],[0.2121298999991268],425.8785899000004,None,b,2.212129899999127,0,0,0.4594594594594595,429.2366047000005,None,None,429.2366047000005,None,,,,,,,,,,,,,,,,,,,,,,CBC_1022,002,4,1,0,21,0.95,2023-07-18_13h44.55.295,MSI_AV_v3,2022.1.1,59.923764986231205,
37,0,37,0,,,,,,,,,,3,2,0,z,27,1,2.629554641171433,1.27538462653558,None,431.0451228000002,None,432.3155052000002,None,432.3155052000002,None,432.32766651000003,None,None,432.3155052000002,None,['z'],[0.10371219999979076],434.3116989,None,z,2.1037121999997908,1,1,0.47368421052631576,436.92547360000026,None,None,436.92547360000026,None,,,,,,,,,,,,,,,,,,,,,,CBC_1022,002,4,1,0,21,0.95,2023-07-18_13h44.55.295,MSI_AV_v3,2022.1.1,59.923764986231205,
38,0,38,0,,,,,,,,,,0,3,2,b,63,1,3.76873691643126,0.80788063606262,None,438.7284516000009,None,439.55000200000086,None,439.55000200000086,None,439.56193558000035,None,None,439.55000200000086,None,['b'],[0.06390839999949094],441.5284079000003,None,b,2.063908399999491,1,1,0.48717948717948717,445.2812289000003,None,None,445.2812289000003,None,,,,,,,,,,,,,,,,,,,,,,CBC_1022,002,4,1,0,21,0.95,2023-07-18_13h44.55.295,MSI_AV_v3,2022.1.1,59.923764986231205,
39,0,39,0,,,,,,,,,,0,2,3,z,63,1,2.7134565917469198,2.15533949826702,None,447.09603850000076,None,449.2658250000004,None,449.2658250000004,None,449.26168631,None,None,449.2658250000004,None,['b'],[0.39348449999943114],451.25038160000076,None,b,2.393484499999431,0,0,0.475,453.9469330000002,None,None,453.9469330000002,None,,,,,,,,,,,,,,,,,,,,,,CBC_1022,002,4,1,0,21,0.95,2023-07-18_13h44.55.295,MSI_AV_v3,2022.1.1,59.923764986231205,
40,0,40,0,,,,,,,,,,1,1,3,b,27,1,3.26539063535182,3.06992456303453,None,455.7619665000002,None,458.8504778000006,None,458.8504778000006,None,458.8618540800002,None,None,458.8504778000006,None,['z'],[0.44307709999884537],460.82843870000033,None,z,2.4430770999988454,0,0,0.4634146341463415,464.08518580000054,None,None,464.08518580000054,None,,,,,,,,,,,,,,,,,,,,,,CBC_1022,002,4,1,0,21,0.95,2023-07-18_13h44.55.295,MSI_AV_v3,2022.1.1,59.923764986231205,
41,0,41,0,,,,,,,,,,0,0,3,z,9,1,3.35133458220192,3.40155979865722,None,465.8950356000005,None,469.31599540000025,None,469.31599540000025,None,469.3285297800007,None,None,469.31599540000025,None,['b'],[0.47795849999965867],471.29482840000037,None,b,2.4779584999996587,0,0,0.4523809523809524,474.64281590000064,None,None,474.64281590000064,None,,,,,,,,,,,,,,,,,,,,,,CBC_1022,002,4,1,0,21,0.95,2023-07-18_13h44.55.295,MSI_AV_v3,2022.1.1,59.923764986231205,
42,0,42,0,,,,,,,,,,1,1,0,b,63,1,4.82531807167306,1.25920145784721,None,476.4450788000004,None,477.7148495000001,None,477.7148495000001,None,477.71184711000006,None,None,477.7148495000001,None,['z'],[0.7235119999995732],479.6951850000005,None,z,2.723511999999573,0,0,0.4418604651162791,484.50136250000014,None,None,484.50136250000014,None,,,,,,,,,,,,,,,,,,,,,,CBC_1022,002,4,1,0,21,0.95,2023-07-18_13h44.55.295,MSI_AV_v3,2022.1.1,59.923764986231205,
43,0,43,0,,,,,,,,,,3,1,0,z,63,1,2.792365600763554,1.36309078069689,None,486.31175110000004,None,487.6822570000004,None,487.6822570000004,None,487.69517738000053,None,None,487.6822570000004,None,['b'],[0.19975919999887992],489.66235680000045,None,b,2.19975919999888,0,0,0.4318181818181818,492.44947610000054,None,None,492.44947610000054,None,,,,,,,,,,,,,,,,,,,,,,CBC_1022,002,4,1,0,21,0.95,2023-07-18_13h44.55.295,MSI_AV_v3,2022.1.1,59.923764986231205,
,,,,,,,,,,,,,,,,,,,,,,,,,,,,,,,,,,,,,,,,,,,,,,,,None,494.26217010000073,None,,,,,,,,,,,,,,,,,,CBC_1022,002,4,1,0,21,0.95,2023-07-18_13h44.55.295,MSI_AV_v3,2022.1.1,59.923764986231205,
,,,,,,,,,,,,,,,,,,,,,,,,,,,,,,,,,,,,,,,,,,,,,,,,,,,499.26221930000065,None,None,499.26221930000065,None,,,,,,,,,,,,,CBC_1022,002,4,1,0,21,0.95,2023-07-18_13h44.55.295,MSI_AV_v3,2022.1.1,59.923764986231205,
,,,,,,,,,,,,,,,,,,,,,,,,,,,,,,,,,,,,,,,,,,,,,,,,,,,,,,,,z,b,easy,"[0, 1, 2, 3]","[3, 1, 2, 0]",0.5454545454545454,0.36363636363636365,0.5454545454545454,0.2727272727272727,21,0,23,,,,,,,,,,,,
