trials_runs.thisRepN,trials_runs.thisTrialN,trials_runs.thisN,trials_runs.thisIndex,standbild_start.started,standbild_start.stopped,trigger.keys,trigger.rt,trigger.started,trigger.stopped,keys_2.keys,keys_2.started,keys_2.stopped,trials_runs.auditory_stim,trials_runs.visual_stim_left,trials_runs.visual_stim_right,trials_runs.correctKey,trials_runs.presentationFrequncy,trials_runs.FBaccuracy,trials_runs.ISI_s,trials_runs.ITI_s,keys_3.keys,keys_3.started,keys_3.stopped,ImageLeft_4.started,ImageLeft_4.stopped,ImageRight_4.started,ImageRight_4.stopped,sound_4.started,sound_4.stopped,response_4.keys,response_4.rt,response_4.started,response_4.stopped,response_5.keys,response_5.started,response_5.stopped,response_runs.keys,response_runs.rt,trials_runs.correct_answer,trials_runs.feedback_given,trials_runs.running_mean,feedback_6.started,feedback_6.stopped,keys_6.keys,keys_6.started,keys_6.stopped,response_5.rt,keys_3.rt,keys_7.keys,keys_7.started,keys_7.stopped,standbild_end.started,standbild_end.stopped,Stop_exp.keys,Stop_exp.started,Stop_exp.stopped,trials_runs.rightKey,trials_runs.leftKey,ts_difficulty,visualPair,audioPair,trials_runs.mean_acc_1stFourth,trials_runs.mean_acc_2ndFourth,trials_runs.mean_acc_3rdFourth,trials_runs.mean_acc_4thFourth,nbCorrect,nbOmissions,nbIncorrect,participant,session,visual set [1-6],audio set [1-3],trial structure [0-3 / 4-7],pairing [0-23],prob Feedback,date,expName,psychopyVersion,frameRate,
,,,,25.142304799999692,None,t,57.05703320000066,25.142304799999692,None,,,,,,,,,,,,,,,,,,,,,,,,,,,,,,,,,,,,,,,,,,,,,,,,,,,,,,,,,,,,CBC_1018,2,5,3,3,17,0.95,2023-07-28_14h09.48.835,MSI_AV_v3,2022.1.1,60.00265211722643,
,,,,,,,,,,None,82.22965189999968,None,,,,,,,,,,,,,,,,,,,,,,,,,,,,,,,,,,,,,,,,,,,,,,,,,,,,,,,,,CBC_1018,2,5,3,3,17,0.95,2023-07-28_14h09.48.835,MSI_AV_v3,2022.1.1,60.00265211722643,
0,0,0,0,,,,,,,,,,1,0.0,2.0,z,27.0,1.0,3.73326136168326,1.64421109900286,None,82.42945459999964,None,84.23577989999967,None,84.23577989999967,None,84.23095945999995,None,['b'],[1.7605083000003106],84.23577989999967,None,None,86.08053629999995,None,b,1.7605083000003106,0,0,0.0,89.8213596999999,None,None,89.8213596999999,None,,,,,,,,,,,,,,,,,,,,,,,CBC_1018,2,5,3,3,17,0.95,2023-07-28_14h09.48.835,MSI_AV_v3,2022.1.1,60.00265211722643,
1,0,1,0,,,,,,,,,,0,2.0,3.0,z,63.0,1.0,2.433630701072358,0.917519910446003,None,91.63026299999956,None,92.58015579999983,None,92.58015579999983,None,92.57957442000007,None,None,,92.58015579999983,None,['z'],94.53089509999973,None,z,2.4209167000003617,1,1,0.5,96.95095419999961,None,None,96.95095419999961,None,[0.42091670000036174],,,,,,,,,,,,,,,,,,,,,,CBC_1018,2,5,3,3,17,0.95,2023-07-28_14h09.48.835,MSI_AV_v3,2022.1.1,60.00265211722643,
2,0,2,0,,,,,,,,,,2,0.0,1.0,b,63.0,1.0,4.61004669244928,3.33124983260532,None,98.76336319999973,None,102.14879669999982,None,102.14879669999982,None,102.1472520499999,None,['z'],[1.5060253000006014],102.14879669999982,None,None,104.11682589999964,None,z,1.5060253000006014,0,0,0.3333333333333333,108.7366149999998,None,None,108.7366149999998,None,,,,,,,,,,,,,,,,,,,,,,,CBC_1018,2,5,3,3,17,0.95,2023-07-28_14h09.48.835,MSI_AV_v3,2022.1.1,60.00265211722643,
3,0,3,0,,,,,,,,,,1,3.0,2.0,z,63.0,1.0,2.629554641171433,1.53243550275999,None,110.54617959999996,None,112.08550429999968,None,112.08550429999968,None,112.0973701199997,None,['b'],[1.5833700000002864],112.08550429999968,None,None,114.07964589999983,None,b,1.5833700000002864,0,0,0.25,116.72055519999958,None,None,116.72055519999958,None,,,,,,,,,,,,,,,,,,,,,,,CBC_1018,2,5,3,3,17,0.95,2023-07-28_14h09.48.835,MSI_AV_v3,2022.1.1,60.00265211722643,
4,0,4,0,,,,,,,,,,2,2.0,0.0,z,27.0,1.0,4.77034425507967,0.761758675042088,None,118.53046689999974,None,119.32069969999975,None,119.32069969999975,None,119.33065081999995,None,None,,119.32069969999975,None,['z'],121.29728909999994,None,z,2.1935287999999673,1,1,0.4,126.06493269999964,None,None,126.06493269999964,None,[0.1935287999999673],,,,,,,,,,,,,,,,,,,,,,CBC_1018,2,5,3,3,17,0.95,2023-07-28_14h09.48.835,MSI_AV_v3,2022.1.1,60.00265211722643,
5,0,5,0,,,,,,,,,,0,3.0,2.0,b,63.0,1.0,3.68371079902891,1.95130344756745,None,127.88029669999969,None,129.8489870999997,None,129.8489870999997,None,129.84714318999974,None,['z'],[1.6523752000002787],129.8489870999997,None,None,131.84831889999987,None,z,1.6523752000002787,0,0,0.3333333333333333,135.5318046999996,None,None,135.5318046999996,None,,,,,,,,,,,,,,,,,,,,,,,CBC_1018,2,5,3,3,17,0.95,2023-07-28_14h09.48.835,MSI_AV_v3,2022.1.1,60.00265211722643,
6,0,6,0,,,,,,,,,,0,2.0,3.0,z,63.0,1.0,4.7533305109883095,2.15533949826702,None,137.34704949999968,None,139.5146182999997,None,139.5146182999997,None,139.51382138999995,None,None,,139.5146182999997,None,['z'],141.4968904999996,None,z,2.0649526000006517,1,1,0.42857142857142855,146.2350104999996,None,None,146.2350104999996,None,[0.06495260000065173],,,,,,,,,,,,,,,,,,,,,,CBC_1018,2,5,3,3,17,0.95,2023-07-28_14h09.48.835,MSI_AV_v3,2022.1.1,60.00265211722643,
7,0,7,0,,,,,,,,,,3,1.0,3.0,b,27.0,1.0,3.76873691643126,1.1243895841892,None,148.04699539999956,None,149.19731639999964,None,149.19731639999964,None,149.19659392000003,None,['b'],[1.9115921000002345],149.19731639999964,None,['z'],151.1612501999998,None,b,1.9115921000002345,1,1,0.5,154.9370815999996,None,None,154.9370815999996,None,[1.3666802000002463],,,,,,,,,,,,,,,,,,,,,,CBC_1018,2,5,3,3,17,0.95,2023-07-28_14h09.48.835,MSI_AV_v3,2022.1.1,60.00265211722643,
8,0,8,0,,,,,,,,,,0,3.0,0.0,b,9.0,1.0,3.6438386551209,2.10421507306074,None,156.74627949999967,None,158.8682399999998,None,158.8682399999998,None,158.86396638999983,None,None,,158.8682399999998,None,['b'],160.84718729999986,None,b,3.1958041000002595,1,1,0.5555555555555556,164.47404289999986,None,None,164.47404289999986,None,[1.1958041000002595],,,,,,,,,,,,,,,,,,,,,,CBC_1018,2,5,3,3,17,0.95,2023-07-28_14h09.48.835,MSI_AV_v3,2022.1.1,60.00265211722643,
9,0,9,0,,,,,,,,,,3,0.0,1.0,z,63.0,1.0,2.693348633324513,3.24569326556923,None,166.28021599999965,None,169.53331899999966,None,169.53331899999966,None,169.52994526000003,None,None,,169.53331899999966,None,['z'],171.53133309999976,None,z,2.584229200000209,1,1,0.6,174.21771099999978,None,None,174.21771099999978,None,[0.584229200000209],,,,,,,,,,,,,,,,,,,,,,CBC_1018,2,5,3,3,17,0.95,2023-07-28_14h09.48.835,MSI_AV_v3,2022.1.1,60.00265211722643,
10,0,10,0,,,,,,,,,,2,0.0,1.0,b,63.0,1.0,2.526044641065533,2.40378712856304,None,176.03060909999977,None,178.45406649999995,None,178.45406649999995,None,178.46415471999998,None,None,,178.45406649999995,None,['z'],180.43055879999974,None,z,2.531314199999997,0,0,0.5454545454545454,182.94064649999973,None,None,182.94064649999973,None,[0.5313141999999971],,,,,,,,,,,,,,,,,,,,,,CBC_1018,2,5,3,3,17,0.95,2023-07-28_14h09.48.835,MSI_AV_v3,2022.1.1,60.00265211722643,
11,0,11,0,,,,,,,,,,3,1.0,0.0,b,63.0,1.0,2.792365600763554,1.96568735158996,None,184.74623219999967,None,186.73453999999992,None,186.73453999999992,None,186.73073049,None,None,,186.73453999999992,None,['b'],188.71390649999967,None,b,2.1063748000005944,1,1,0.5833333333333334,191.50493149999966,None,None,191.50493149999966,None,[0.1063748000005944],,,,,,,,,,,,,,,,,,,,,,CBC_1018,2,5,3,3,17,0.95,2023-07-28_14h09.48.835,MSI_AV_v3,2022.1.1,60.00265211722643,
12,0,12,0,,,,,,,,,,0,3.0,2.0,b,63.0,1.0,2.517541937862754,1.43470440954152,None,193.3143058999999,None,194.76861879999979,None,194.76861879999979,None,194.7808863199999,None,['z'],[1.2411888999999974],194.76861879999979,None,None,196.76290219999964,None,z,1.2411888999999974,0,0,0.5384615384615384,199.28723709999986,None,None,199.28723709999986,None,,,,,,,,,,,,,,,,,,,,,,,CBC_1018,2,5,3,3,17,0.95,2023-07-28_14h09.48.835,MSI_AV_v3,2022.1.1,60.00265211722643,
13,0,13,0,,,,,,,,,,3,3.0,1.0,z,27.0,1.0,2.82320408183943,3.1963008326951,None,201.0973815999996,None,204.30317229999991,None,204.30317229999991,None,204.31437891999994,None,None,,204.30317229999991,None,['b'],206.28080269999964,None,b,2.1991405000003397,0,0,0.5,209.0954829999996,None,None,209.0954829999996,None,[0.19914050000033967],,,,,,,,,,,,,,,,,,,,,,CBC_1018,2,5,3,3,17,0.95,2023-07-28_14h09.48.835,MSI_AV_v3,2022.1.1,60.00265211722643,
14,0,14,0,,,,,,,,,,1,2.0,3.0,b,63.0,1.0,4.52047235037039,3.06992456303453,None,210.89756419999958,None,213.98556949999966,None,213.98556949999966,None,213.98141269000004,None,['z'],[1.8026467000004232],213.98556949999966,None,None,215.97980979999966,None,z,1.8026467000004232,0,0,0.4666666666666667,220.49697789999982,None,None,220.49697789999982,None,,,,,,,,,,,,,,,,,,,,,,,CBC_1018,2,5,3,3,17,0.95,2023-07-28_14h09.48.835,MSI_AV_v3,2022.1.1,60.00265211722643,
15,0,15,0,,,,,,,,,,1,0.0,2.0,z,27.0,1.0,3.3728785608729996,1.38289892513751,None,222.2973708999998,None,223.70356779999975,None,223.70356779999975,None,223.71431861999972,None,['b'],[1.6129266000002644],223.70356779999975,None,None,225.68350429999964,None,b,1.6129266000002644,0,0,0.4375,229.0536017999998,None,None,229.0536017999998,None,,,,,,,,,,,,,,,,,,,,,,,CBC_1018,2,5,3,3,17,0.95,2023-07-28_14h09.48.835,MSI_AV_v3,2022.1.1,60.00265211722643,
16,0,16,0,,,,,,,,,,2,3.0,0.0,z,9.0,1.0,3.02234236141277,0.979776149765883,None,230.86354749999964,None,231.85045779999973,None,231.85045779999973,None,231.84759588999984,None,None,,231.85045779999973,None,['b'],233.8308434999999,None,b,2.0420436000003974,0,0,0.4117647058823529,236.84401919999982,None,None,236.84401919999982,None,[0.04204360000039742],,,,,,,,,,,,,,,,,,,,,,CBC_1018,2,5,3,3,17,0.95,2023-07-28_14h09.48.835,MSI_AV_v3,2022.1.1,60.00265211722643,
17,0,17,0,,,,,,,,,,1,3.0,2.0,z,63.0,0.0,2.91303524001082,1.12425433982333,None,238.6465346,None,239.7848925999997,None,239.7848925999997,None,239.78168398999966,None,['b'],[1.6198240000003352],239.7848925999997,None,None,241.7823954999999,None,b,1.6198240000003352,0,1,0.3888888888888889,244.70528869999998,None,None,244.70528869999998,None,,,,,,,,,,,,,,,,,,,,,,,CBC_1018,2,5,3,3,17,0.95,2023-07-28_14h09.48.835,MSI_AV_v3,2022.1.1,60.00265211722643,
18,0,18,0,,,,,,,,,,2,0.0,1.0,b,63.0,1.0,2.2759877950103027,2.09887870490381,None,246.51471519999996,None,248.61566949999997,None,248.61566949999997,None,248.6138647599999,None,None,,248.61566949999997,None,['z'],250.61419409999962,None,z,2.0743960000004336,0,0,0.3684210526315789,252.88291019999997,None,None,252.88291019999997,None,[0.07439600000043356],,,,,,,,,,,,,,,,,,,,,,CBC_1018,2,5,3,3,17,0.95,2023-07-28_14h09.48.835,MSI_AV_v3,2022.1.1,60.00265211722643,
19,0,19,0,,,,,,,,,,0,2.0,3.0,z,63.0,1.0,2.666404967794728,1.25920145784721,None,254.69756619999998,None,255.96793779999962,None,255.96793779999962,None,255.96445578999962,None,None,,255.96793779999962,None,['b'],257.9475421999996,None,b,2.235048800000186,0,0,0.35,260.59733579999966,None,None,260.59733579999966,None,[0.23504880000018602],,,,,,,,,,,,,,,,,,,,,,CBC_1018,2,5,3,3,17,0.95,2023-07-28_14h09.48.835,MSI_AV_v3,2022.1.1,60.00265211722643,
20,0,20,0,,,,,,,,,,1,2.0,3.0,b,63.0,1.0,3.31929419319838,2.6299100644723,None,262.39754419999963,None,265.0518441999998,None,265.0518441999998,None,265.0477677899998,None,None,,265.0518441999998,None,None,267.0305922999996,None,[],[],0,3,0.3333333333333333,270.3344121,None,None,270.3344121,None,,,,,,,,,,,,,,,,,,,,,,,CBC_1018,2,5,3,3,17,0.95,2023-07-28_14h09.48.835,MSI_AV_v3,2022.1.1,60.00265211722643,
21,0,21,0,,,,,,,,,,0,1.0,3.0,z,27.0,1.0,4.12485271162806,0.952147612306987,None,272.14760609999985,None,273.1192999,None,273.1192999,None,273.1312257199998,None,None,,273.1192999,None,['z'],275.0983366999999,None,z,3.846378200000345,1,1,0.36363636363636365,279.2077857999998,None,None,279.2077857999998,None,[1.8463782000003448],,,,,,,,,,,,,,,,,,,,,,CBC_1018,2,5,3,3,17,0.95,2023-07-28_14h09.48.835,MSI_AV_v3,2022.1.1,60.00265211722643,
22,0,22,0,,,,,,,,,,2,1.0,0.0,z,63.0,1.0,4.190022164497369,0.80788063606262,None,281.0141649999996,None,281.8321968999999,None,281.8321968999999,None,281.8311247899996,None,['z'],[1.2339417000002868],281.8321968999999,None,['b'],283.83353199999965,None,z,1.2339417000002868,1,1,0.391304347826087,288.0383389999997,None,None,288.0383389999997,None,[3.1816725000003316],,,,,,,,,,,,,,,,,,,,,,CBC_1018,2,5,3,3,17,0.95,2023-07-28_14h09.48.835,MSI_AV_v3,2022.1.1,60.00265211722643,
23,0,23,0,,,,,,,,,,1,2.0,3.0,b,63.0,1.0,2.294664843639333,2.49839527409216,None,289.84692609999956,None,292.3331103999999,None,292.3331103999999,None,292.33045795999965,None,['b'],[1.766787800000202],292.3331103999999,None,['z'],294.34309919999987,None,b,1.766787800000202,1,1,0.4166666666666667,296.6372991999997,None,None,296.6372991999997,None,[0.21369420000064565],,,,,,,,,,,,,,,,,,,,,,CBC_1018,2,5,3,3,17,0.95,2023-07-28_14h09.48.835,MSI_AV_v3,2022.1.1,60.00265211722643,
24,0,24,0,,,,,,,,,,2,2.0,0.0,z,27.0,1.0,2.6391747348430608,1.36309078069689,None,298.4477208999997,None,299.81523909999987,None,299.81523909999987,None,299.81348695999964,None,None,,299.81523909999987,None,['z'],301.7977573999997,None,z,2.1546495000002324,1,1,0.44,304.43238199999996,None,None,304.43238199999996,None,[0.15464950000023236],,,,,,,,,,,,,,,,,,,,,,CBC_1018,2,5,3,3,17,0.95,2023-07-28_14h09.48.835,MSI_AV_v3,2022.1.1,60.00265211722643,
25,0,25,0,,,,,,,,,,3,0.0,1.0,z,63.0,1.0,4.77723667052879,2.78346932462847,None,306.2478610999997,None,309.0500183999998,None,309.0500183999998,None,309.04790619,None,None,,309.0500183999998,None,['z'],311.03105189999997,None,z,2.5940975000003164,1,1,0.46153846153846156,315.7948462999998,None,None,315.7948462999998,None,[0.5940975000003164],,,,,,,,,,,,,,,,,,,,,,CBC_1018,2,5,3,3,17,0.95,2023-07-28_14h09.48.835,MSI_AV_v3,2022.1.1,60.00265211722643,
26,0,26,0,,,,,,,,,,3,1.0,0.0,b,63.0,1.0,3.2062024266105302,1.90743690794447,None,317.5979811999996,None,319.51759409999977,None,319.51759409999977,None,319.5145774899997,None,['b'],[1.6183883000003334],319.51759409999977,None,None,321.51712659999976,None,b,1.6183883000003334,1,1,0.48148148148148145,324.73889489999965,None,None,324.73889489999965,None,,,,,,,,,,,,,,,,,,,,,,,CBC_1018,2,5,3,3,17,0.95,2023-07-28_14h09.48.835,MSI_AV_v3,2022.1.1,60.00265211722643,
27,0,27,0,,,,,,,,,,1,2.0,3.0,b,63.0,1.0,4.11514536789087,1.18065738546375,None,326.54793329999984,None,327.7508154999996,None,327.7508154999996,None,327.7481398899999,None,['z'],[1.7479902000000038],327.7508154999996,None,None,329.7488148999996,None,z,1.7479902000000038,0,0,0.4642857142857143,333.87112209999987,None,None,333.87112209999987,None,,,,,,,,,,,,,,,,,,,,,,,CBC_1018,2,5,3,3,17,0.95,2023-07-28_14h09.48.835,MSI_AV_v3,2022.1.1,60.00265211722643,
28,0,28,0,,,,,,,,,,0,1.0,3.0,z,27.0,1.0,4.72585056748869,3.4543169006169,None,335.6803914999996,None,339.1511648999999,None,339.1511648999999,None,339.14867818999977,None,['z'],[1.8421018000003642],339.1511648999999,None,None,341.1324545999996,None,z,1.8421018000003642,1,1,0.4827586206896552,345.8637908999999,None,None,345.8637908999999,None,,,,,,,,,,,,,,,,,,,,,,,CBC_1018,2,5,3,3,17,0.95,2023-07-28_14h09.48.835,MSI_AV_v3,2022.1.1,60.00265211722643,
29,0,29,0,,,,,,,,,,1,2.0,1.0,b,9.0,1.0,2.592312596923728,1.78643585472448,None,347.6646553999999,None,349.4695230999996,None,349.4695230999996,None,349.48163282,None,['b'],[1.5492773000000852],349.4695230999996,None,None,351.4537633,None,b,1.5492773000000852,1,1,0.5,354.03942919999963,None,None,354.03942919999963,None,,,,,,,,,,,,,,,,,,,,,,,CBC_1018,2,5,3,3,17,0.95,2023-07-28_14h09.48.835,MSI_AV_v3,2022.1.1,60.00265211722643,
30,0,30,0,,,,,,,,,,3,1.0,3.0,b,27.0,1.0,2.7134565917469198,0.77703640172831,None,355.84806819999994,None,356.63621109999985,None,356.63621109999985,None,356.64815972,None,None,,356.63621109999985,None,['b'],358.6137517999996,None,b,3.0834967000005236,1,1,0.5161290322580645,361.32152529999985,None,None,361.32152529999985,None,[1.0834967000005236],,,,,,,,,,,,,,,,,,,,,,CBC_1018,2,5,3,3,17,0.95,2023-07-28_14h09.48.835,MSI_AV_v3,2022.1.1,60.00265211722643,
31,0,31,0,,,,,,,,,,0,2.0,3.0,z,63.0,1.0,4.82531807167306,1.21250262048173,None,363.13152279999986,None,364.3680323999997,None,364.3680323999997,None,364.36486779,None,['z'],[0.9662348000006205],364.3680323999997,None,['z'],366.3500098999998,None,z,0.9662348000006205,1,1,0.53125,371.18646179999996,None,None,371.18646179999996,None,[0.0384966000001441],,,,,,,,,,,,,,,,,,,,,,CBC_1018,2,5,3,3,17,0.95,2023-07-28_14h09.48.835,MSI_AV_v3,2022.1.1,60.00265211722643,
32,0,32,0,,,,,,,,,,3,1.0,0.0,b,63.0,1.0,3.26539063535182,2.22427187882546,None,372.99812059999977,None,375.2361231,None,375.2361231,None,375.23173728999967,None,None,,375.2361231,None,None,377.2146128999998,None,[],[],0,3,0.5151515151515151,380.47012659999973,None,None,380.47012659999973,None,,,,,,,,,,,,,,,,,,,,,,,CBC_1018,2,5,3,3,17,0.95,2023-07-28_14h09.48.835,MSI_AV_v3,2022.1.1,60.00265211722643,
33,0,33,0,,,,,,,,,,2,0.0,1.0,b,63.0,0.0,3.7500315165247198,2.96653053743745,None,382.28142849999995,None,385.2666116999999,None,385.2666116999999,None,385.2651064899996,None,['z'],[1.7212757000002057],385.2666116999999,None,None,387.2494099999999,None,z,1.7212757000002057,0,1,0.5,391.0054216999997,None,None,391.0054216999997,None,,,,,,,,,,,,,,,,,,,,,,,CBC_1018,2,5,3,3,17,0.95,2023-07-28_14h09.48.835,MSI_AV_v3,2022.1.1,60.00265211722643,
34,0,34,0,,,,,,,,,,1,3.0,2.0,z,63.0,1.0,2.678526077912375,3.1424449555106,None,392.8150194,None,395.9694847999999,None,395.9694847999999,None,395.9654681899996,None,None,,395.9694847999999,None,['z'],397.94814129999986,None,z,2.1758788000001914,1,1,0.5142857142857142,400.61369309999964,None,None,400.61369309999964,None,[0.1758788000001914],,,,,,,,,,,,,,,,,,,,,,CBC_1018,2,5,3,3,17,0.95,2023-07-28_14h09.48.835,MSI_AV_v3,2022.1.1,60.00265211722643,
35,0,35,0,,,,,,,,,,2,2.0,0.0,z,27.0,1.0,2.496959177995529,0.974903167432984,None,402.4138628999999,None,403.3977326999998,None,403.3977326999998,None,403.3980874899998,None,None,,403.3977326999998,None,['b'],405.38176569999996,None,b,2.811233600000378,0,0,0.5,407.85880769999994,None,None,407.85880769999994,None,[0.8112336000003779],,,,,,,,,,,,,,,,,,,,,,CBC_1018,2,5,3,3,17,0.95,2023-07-28_14h09.48.835,MSI_AV_v3,2022.1.1,60.00265211722643,
36,0,36,0,,,,,,,,,,3,1.0,0.0,b,63.0,1.0,3.35133458220192,1.94858485820231,None,409.6649292999996,None,411.63701059999994,None,411.63701059999994,None,411.64878621999975,None,None,,411.63701059999994,None,"['z', 'b']",413.61488069999996,None,z,3.9232527000003756,0,0,0.4864864864864865,416.9573895999997,None,None,416.9573895999997,None,"[1.9232527000003756, 2.6333362000004854]",,,,,,,,,,,,,,,,,,,,,,CBC_1018,2,5,3,3,17,0.95,2023-07-28_14h09.48.835,MSI_AV_v3,2022.1.1,60.00265211722643,
37,0,37,0,,,,,,,,,,0,3.0,2.0,b,63.0,1.0,4.46924002178158,1.34668860557497,None,418.76499829999966,None,420.11739209999996,None,420.11739209999996,None,420.1144919599999,None,['b'],[1.508427600000232],420.11739209999996,None,None,422.12060379999957,None,b,1.508427600000232,1,1,0.5,426.5888541999998,None,None,426.5888541999998,None,,,,,,,,,,,,,,,,,,,,,,,CBC_1018,2,5,3,3,17,0.95,2023-07-28_14h09.48.835,MSI_AV_v3,2022.1.1,60.00265211722643,
38,0,38,0,,,,,,,,,,3,2.0,1.0,z,9.0,1.0,3.71372710086949,1.52290599571961,None,428.39833369999997,None,429.9351410999998,None,429.9351410999998,None,429.9321078899997,None,None,,429.9351410999998,None,['z'],431.9152196,None,z,2.6880196000006435,1,1,0.5128205128205128,435.6237157999999,None,None,435.6237157999999,None,[0.6880196000006435],,,,,,,,,,,,,,,,,,,,,,CBC_1018,2,5,3,3,17,0.95,2023-07-28_14h09.48.835,MSI_AV_v3,2022.1.1,60.00265211722643,
39,0,39,0,,,,,,,,,,0,3.0,1.0,b,27.0,1.0,4.53337421950507,1.53122835510861,None,437.4316308999996,None,438.9882548999999,None,438.9882548999999,None,438.99864831999963,None,None,,438.9882548999999,None,['b'],440.96437419999984,None,b,2.1859816000001047,1,1,0.525,445.49081149999984,None,None,445.49081149999984,None,[0.18598160000010466],,,,,,,,,,,,,,,,,,,,,,CBC_1018,2,5,3,3,17,0.95,2023-07-28_14h09.48.835,MSI_AV_v3,2022.1.1,60.00265211722643,
40,0,40,0,,,,,,,,,,2,0.0,1.0,b,63.0,1.0,2.342239579230602,3.40155979865722,"['b', 'b', 'b']",447.2984326999999,None,450.7197907999998,None,450.7197907999998,None,450.7153421899997,None,None,,450.7197907999998,None,['b'],452.69847009999967,None,b,2.3337443000004896,1,1,0.5365853658536586,455.02796329999956,None,None,455.02796329999956,None,[0.3337443000004896],"[2.0593408000004274, 2.8332029000007424, 3.295820100000583]",,,,,,,,,,,,,,,,,,,,,CBC_1018,2,5,3,3,17,0.95,2023-07-28_14h09.48.835,MSI_AV_v3,2022.1.1,60.00265211722643,
41,0,41,0,,,,,,,,,,2,1.0,0.0,z,63.0,1.0,4.40017271499661,1.60731937853708,None,456.83161119999977,None,458.4556149,None,458.4556149,None,458.4654381199999,None,['z'],[1.7956857000003765],458.4556149,None,None,460.4516896,None,z,1.7956857000003765,1,1,0.5476190476190477,464.8555326999999,None,None,464.8555326999999,None,,,,,,,,,,,,,,,,,,,,,,,CBC_1018,2,5,3,3,17,0.95,2023-07-28_14h09.48.835,MSI_AV_v3,2022.1.1,60.00265211722643,
42,0,42,0,,,,,,,,,,1,0.0,2.0,z,27.0,1.0,2.92731383428727,1.27538462653558,None,466.66506819999995,None,467.95054649999975,None,467.95054649999975,None,467.94865208999994,None,None,,467.95054649999975,None,['b'],469.9319003999999,None,b,2.2932439000005616,0,0,0.5348837209302325,472.8396813999998,None,None,472.8396813999998,None,[0.29324390000056155],,,,,,,,,,,,,,,,,,,,,,CBC_1018,2,5,3,3,17,0.95,2023-07-28_14h09.48.835,MSI_AV_v3,2022.1.1,60.00265211722643,
43,0,43,0,,,,,,,,,,3,1.0,0.0,b,63.0,1.0,4.01714354611405,1.25817747924478,None,474.64866429999984,None,475.9200509999996,None,475.9200509999996,None,475.93212511999997,None,None,,475.9200509999996,None,"['z', 'b']",477.8984095999999,None,z,2.172582500000317,0,0,0.5227272727272727,481.90345909999996,None,None,481.90345909999996,None,"[0.17258250000031694, 1.1733351000002585]",,,,,,,,,,,,,,,,,,,,,,CBC_1018,2,5,3,3,17,0.95,2023-07-28_14h09.48.835,MSI_AV_v3,2022.1.1,60.00265211722643,
,,,,,,,,,,,,,,,,,,,,,,,,,,,,,,,,,,,,,,,,,,,,,,,,,None,483.71585479999976,None,,,,,,,,,,,,,,,,,,CBC_1018,2,5,3,3,17,0.95,2023-07-28_14h09.48.835,MSI_AV_v3,2022.1.1,60.00265211722643,
,,,,,,,,,,,,,,,,,,,,,,,,,,,,,,,,,,,,,,,,,,,,,,,,,,,,488.71543129999964,None,None,488.71543129999964,None,,,,,,,,,,,,,CBC_1018,2,5,3,3,17,0.95,2023-07-28_14h09.48.835,MSI_AV_v3,2022.1.1,60.00265211722643,
,,,,,,,,,,,,,,,,,,,,,,,,,,,,,,,,,,,,,,,,,,,,,,,,,,,,,,,,,z,b,easy,"[0, 1, 2, 3]","[2, 3, 1, 0]",0.5454545454545454,0.18181818181818182,0.8181818181818182,0.5454545454545454,25,2,17,,,,,,,,,,,,
