trials_runs.thisRepN,trials_runs.thisTrialN,trials_runs.thisN,trials_runs.thisIndex,standbild_start.started,standbild_start.stopped,trigger.keys,trigger.rt,trigger.started,trigger.stopped,keys_2.keys,keys_2.started,keys_2.stopped,trials_runs.tactile_stim,trials_runs.visual_stim_left,trials_runs.visual_stim_right,trials_runs.correctKey,trials_runs.presentationFrequncy,trials_runs.FBaccuracy,trials_runs.ISI_s,trials_runs.ITI_s,keys_3.keys,keys_3.started,keys_3.stopped,image_stim_left.started,image_stim_right.started,tactile.started,response_4.keys,allKeys.keys,response_5.keys,response_5.rt,response_5.started,response_5.stopped,response_runs.keys,response_runs.rt,trials_runs.correct_answer,trials_runs.feedback_given,trials_runs.running_mean,feedback_6.stopped,feedback_6.started,keys_6.keys,keys_6.started,keys_6.stopped,response_4.rt,allKeys.rt,keys_7.keys,keys_7.started,keys_7.stopped,standbild_end.started,standbild_end.stopped,Stop_exp.keys,Stop_exp.started,Stop_exp.stopped,trials_runs.rightKey,trials_runs.leftKey,ts_difficulty,visualPair,tactilePair,trials_runs.mean_acc_1stFourth,trials_runs.mean_acc_2ndFourth,trials_runs.mean_acc_3rdFourth,trials_runs.mean_acc_4thFourth,nbCorrect,nbOmissions,nbIncorrect,participant,session,visual set [1-6],tactile set [1-3],trial structure [0-3 / 4-7],pairing [0-23],prob Feedback,date,expName,psychopyVersion,frameRate,
,,,,47.67889110000033,None,t,14.443602499999542,47.67889110000033,None,,,,,,,,,,,,,,,,,,,,,,,,,,,,,,,,,,,,,,,,,,,,,,,,,,,,,,,,CBC_1143,4,6,3,5,0,0.8,2024-09-27_17h26.52.082,MSI_TV_v3,2022.1.1,59.98580735902263,
,,,,,,,,,,None,62.15135250000094,None,,,,,,,,,,,,,,,,,,,,,,,,,,,,,,,,,,,,,,,,,,,,,,,,,,,,,CBC_1143,4,6,3,5,0,0.8,2024-09-27_17h26.52.082,MSI_TV_v3,2022.1.1,59.98580735902263,
0,0,0,0,,,,,,,,,,1,3,1,z,27,1,3.3728785608729996,2.6299100644723,None,62.35166029999891,None,64.96854585000037,64.96854585000037,64.98499134999801,None,[],['b'],[0.511274799999228],66.97389869999824,None,b,2.511274799999228,0,0,0.0,None,70.35446239999874,None,70.35446239999874,None,,,,,,,,,,,,,,,,,,,,,,,CBC_1143,4,6,3,5,0,0.8,2024-09-27_17h26.52.082,MSI_TV_v3,2022.1.1,59.98580735902263,
1,0,1,0,,,,,,,,,,2,2,3,b,63,1,4.53337421950507,2.96653053743745,None,72.15187639999931,None,75.10163495000015,75.10163495000015,75.1181940500006,None,[],['z'],[1.0329868000007991],77.10696309999912,None,z,3.032986800000799,0,0,0.0,None,81.63571919999958,None,81.63571919999958,None,,,,,,,,,,,,,,,,,,,,,,,CBC_1143,4,6,3,5,0,0.8,2024-09-27_17h26.52.082,MSI_TV_v3,2022.1.1,59.98580735902263,
2,0,2,0,,,,,,,,,,3,2,3,z,63,1,4.82531807167306,0.77703640172831,None,83.43502889999945,None,84.18516444999986,84.18516444999986,84.20185694999745,None,[],['z'],[0.4306116000007023],86.19032809999771,None,z,2.4306116000007023,1,1,0.3333333333333333,None,91.00479260000066,None,91.00479260000066,None,,,,,,,,,,,,,,,,,,,,,,,CBC_1143,4,6,3,5,0,0.8,2024-09-27_17h26.52.082,MSI_TV_v3,2022.1.1,59.98580735902263,
3,0,3,0,,,,,,,,,,1,1,0,b,63,0,2.496959177995529,0.974903167432984,None,92.81822929999908,None,93.76798555000059,93.76798555000059,93.78494255000041,None,[],['b'],[0.539852099998825],95.77245290000064,None,b,2.539852099998825,1,0,0.5,None,98.2636528999974,None,98.2636528999974,None,,,,,,,,,,,,,,,,,,,,,,,CBC_1143,4,6,3,5,0,0.8,2024-09-27_17h26.52.082,MSI_TV_v3,2022.1.1,59.98580735902263,
4,0,4,0,,,,,,,,,,0,3,0,z,9,1,4.12485271162806,1.25817747924478,None,100.06843350000054,None,101.30191195000006,101.30191195000006,101.31845844999916,None,[],['z'],[0.7008432000002358],103.30809460000091,None,z,2.700843200000236,1,1,0.6,None,107.42532829999982,None,107.42532829999982,None,,,,,,,,,,,,,,,,,,,,,,,CBC_1143,4,6,3,5,0,0.8,2024-09-27_17h26.52.082,MSI_TV_v3,2022.1.1,59.98580735902263,
5,0,5,0,,,,,,,,,,3,2,3,z,63,1,3.2062024266105302,1.94858485820231,None,109.23502709999957,None,111.16853245000092,111.16853245000092,111.18495675000085,z,['z'],None,,113.21657019999839,None,z,1.8231995000023744,1,1,0.6666666666666666,None,116.42855299999792,None,116.42855299999792,None,1.8231995000023744,[1.8231995000023744],,,,,,,,,,,,,,,,,,,,,CBC_1143,4,6,3,5,0,0.8,2024-09-27_17h26.52.082,MSI_TV_v3,2022.1.1,59.98580735902263,
6,0,6,0,,,,,,,,,,2,2,0,b,27,1,2.342239579230602,0.761758675042088,None,118.23402580000038,None,118.96862594999911,118.96862594999911,118.98490185000045,None,[],['z'],[0.6412194000004092],120.96708969999963,None,z,2.6412194000004092,0,0,0.5714285714285714,None,123.2959501999976,None,123.2959501999976,None,,,,,,,,,,,,,,,,,,,,,,,CBC_1143,4,6,3,5,0,0.8,2024-09-27_17h26.52.082,MSI_TV_v3,2022.1.1,59.98580735902263,
7,0,7,0,,,,,,,,,,0,1,0,z,63,1,2.678526077912375,1.53122835510861,None,125.10161239999798,None,126.61834495000002,126.61834495000002,126.63468435000104,None,[],['z'],[1.0190261999996437],128.62361139999848,None,z,3.0190261999996437,1,1,0.625,None,131.28669029999946,None,131.28669029999946,None,,,,,,,,,,,,,,,,,,,,,,,CBC_1143,4,6,3,5,0,0.8,2024-09-27_17h26.52.082,MSI_TV_v3,2022.1.1,59.98580735902263,
8,0,8,0,,,,,,,,,,1,0,1,z,63,1,3.26539063535182,1.36309078069689,None,133.1018163000008,None,134.451927650001,134.451927650001,134.4685235499979,None,[],['b'],[0.941154700001789],136.45914959999936,None,b,2.941154700001789,0,0,0.5555555555555556,None,139.7230443999979,None,139.7230443999979,None,,,,,,,,,,,,,,,,,,,,,,,CBC_1143,4,6,3,5,0,0.8,2024-09-27_17h26.52.082,MSI_TV_v3,2022.1.1,59.98580735902263,
9,0,9,0,,,,,,,,,,3,3,1,b,27,0,3.6438386551209,1.64421109900286,None,141.5350843999986,None,143.15180074999952,143.15180074999952,143.1682290500008,b,['b'],None,,145.19492790000004,None,b,1.793521999999939,1,0,0.6,None,148.83420099999785,None,148.83420099999785,None,1.793521999999939,[1.793521999999939],,,,,,,,,,,,,,,,,,,,,CBC_1143,4,6,3,5,0,0.8,2024-09-27_17h26.52.082,MSI_TV_v3,2022.1.1,59.98580735902263,
10,0,10,0,,,,,,,,,,2,2,3,b,63,1,4.77723667052879,3.06992456303453,None,150.63493559999915,None,153.68469174999845,153.68469174999845,153.70151454999868,None,[],['b'],[0.4856011000010767],155.69170219999796,None,b,2.4856011000010767,1,1,0.6363636363636364,None,160.4719170999997,None,160.4719170999997,None,,,,,,,,,,,,,,,,,,,,,,,CBC_1143,4,6,3,5,0,0.8,2024-09-27_17h26.52.082,MSI_TV_v3,2022.1.1,59.98580735902263,
11,0,11,0,,,,,,,,,,1,0,1,z,63,1,2.526044641065533,2.22427187882546,None,162.28517409999768,None,164.48410744999782,164.48410744999782,164.50060674999767,None,[],['b'],[0.7121604000021762],166.4791140999987,None,b,2.712160400002176,0,0,0.5833333333333334,None,168.99796349999815,None,168.99796349999815,None,,,,,,,,,,,,,,,,,,,,,,,CBC_1143,4,6,3,5,0,0.8,2024-09-27_17h26.52.082,MSI_TV_v3,2022.1.1,59.98580735902263,
12,0,12,0,,,,,,,,,,0,1,0,z,63,0,3.73326136168326,2.15533949826702,None,170.80154779999793,None,172.9352495500003,172.9352495500003,172.9515755499975,None,[],"['b', 'z', 'z']","[0.545754400001897, 1.2194127000002482, 2.5249038000001747]",174.94312269999864,None,b,2.545754400001897,0,1,0.5384615384615384,None,178.67312289999973,None,178.67312289999973,None,,,,,,,,,,,,,,,,,,,,,,,CBC_1143,4,6,3,5,0,0.8,2024-09-27_17h26.52.082,MSI_TV_v3,2022.1.1,59.98580735902263,
13,0,13,0,,,,,,,,,,2,2,1,b,9,1,4.46924002178158,3.40155979865722,None,180.48514069999874,None,183.86808085000084,183.86808085000084,183.88527544999815,None,[],['b'],[0.6318240000000515],185.8718998000004,None,b,2.6318240000000515,1,1,0.5714285714285714,None,190.34109759999774,None,190.34109759999774,None,,,,,,,,,,,,,,,,,,,,,,,CBC_1143,4,6,3,5,0,0.8,2024-09-27_17h26.52.082,MSI_TV_v3,2022.1.1,59.98580735902263,
14,0,14,0,,,,,,,,,,0,0,1,b,63,1,3.7500315165247198,1.25920145784721,None,192.1516765999986,None,193.3854656499985,193.3854656499985,193.40221684999923,None,[],['b'],[0.8919776999973692],195.3839502999981,None,b,2.891977699997369,1,1,0.6,None,199.1418421999988,None,199.1418421999988,None,,,,,,,,,,,,,,,,,,,,,,,CBC_1143,4,6,3,5,0,0.8,2024-09-27_17h26.52.082,MSI_TV_v3,2022.1.1,59.98580735902263,
15,0,15,0,,,,,,,,,,3,1,3,z,27,1,4.11514536789087,3.33124983260532,None,200.95203299999775,None,204.26865184999915,204.26865184999915,204.2856263499976,None,[],['z'],[0.48981580000327085],206.27437279999867,None,z,2.489815800003271,1,1,0.625,None,210.38692629999787,None,210.38692629999787,None,,,,,,,,,,,,,,,,,,,,,,,CBC_1143,4,6,3,5,0,0.8,2024-09-27_17h26.52.082,MSI_TV_v3,2022.1.1,59.98580735902263,
16,0,16,0,,,,,,,,,,1,1,0,b,63,1,2.2759877950103027,1.27538462653558,None,212.20210769999903,None,213.452175349999,213.452175349999,213.46893914999745,None,[],['z'],[0.7082823000018834],215.4513479999987,None,z,2.7082823000018834,0,0,0.5882352941176471,None,217.72096099999908,None,217.72096099999908,None,,,,,,,,,,,,,,,,,,,,,,,CBC_1143,4,6,3,5,0,0.8,2024-09-27_17h26.52.082,MSI_TV_v3,2022.1.1,59.98580735902263,
17,0,17,0,,,,,,,,,,2,3,2,z,63,0,2.629554641171433,1.34668860557497,None,219.5357194999997,None,220.86765864999833,220.86765864999833,220.88419324999776,None,[],['z'],[0.731250299999374],222.86480680000022,None,z,2.731250299999374,1,0,0.6111111111111112,None,225.49668539999766,None,225.49668539999766,None,,,,,,,,,,,,,,,,,,,,,,,CBC_1143,4,6,3,5,0,0.8,2024-09-27_17h26.52.082,MSI_TV_v3,2022.1.1,59.98580735902263,
18,0,18,0,,,,,,,,,,0,0,2,b,27,1,4.61004669244928,1.78643585472448,None,227.30208850000054,None,229.06859584999765,229.06859584999765,229.08518844999853,None,[],['b'],[1.2141365999996196],231.06890139999814,None,b,3.2141365999996196,1,1,0.631578947368421,None,235.67390909999813,None,235.67390909999813,None,,,,,,,,,,,,,,,,,,,,,,,CBC_1143,4,6,3,5,0,0.8,2024-09-27_17h26.52.082,MSI_TV_v3,2022.1.1,59.98580735902263,
19,0,19,0,,,,,,,,,,3,2,3,z,63,1,2.693348633324513,3.24569326556923,None,237.48550160000013,None,240.71851295000087,240.71851295000087,240.73522274999922,z,['z'],None,,242.76326379999955,None,z,1.5736055999987002,1,1,0.65,None,245.46279159999904,None,245.46279159999904,None,1.5736055999987002,[1.5736055999987002],,,,,,,,,,,,,,,,,,,,,CBC_1143,4,6,3,5,0,0.8,2024-09-27_17h26.52.082,MSI_TV_v3,2022.1.1,59.98580735902263,
20,0,20,0,,,,,,,,,,1,1,3,b,27,1,2.294664843639333,1.1243895841892,None,247.26901989999897,None,248.36900834999832,248.36900834999832,248.38571965000082,None,[],['b'],[0.6061067999980878],250.37410549999913,None,b,2.606106799998088,1,1,0.6666666666666666,None,252.65373510000063,None,252.65373510000063,None,,,,,,,,,,,,,,,,,,,,,,,CBC_1143,4,6,3,5,0,0.8,2024-09-27_17h26.52.082,MSI_TV_v3,2022.1.1,59.98580735902263,
21,0,21,0,,,,,,,,,,2,2,3,b,63,1,2.792365600763554,2.78346932462847,None,254.4689952000008,None,257.23562905000074,257.23562905000074,257.25215085000093,None,[],['b'],[0.4943175999978848],259.2337575999991,None,b,2.494317599997885,1,1,0.6818181818181818,None,262.034360499998,None,262.034360499998,None,,,,,,,,,,,,,,,,,,,,,,,CBC_1143,4,6,3,5,0,0.8,2024-09-27_17h26.52.082,MSI_TV_v3,2022.1.1,59.98580735902263,
22,0,22,0,,,,,,,,,,0,1,0,z,63,0,2.82320408183943,0.952147612306987,None,263.83535370000027,None,264.7686634500002,264.7686634500002,264.78545565000024,None,[],['z'],[0.8935404000003473],266.7669070999982,None,z,2.8935404000003473,1,0,0.6956521739130435,None,269.6093643999993,None,269.6093643999993,None,,,,,,,,,,,,,,,,,,,,,,,CBC_1143,4,6,3,5,0,0.8,2024-09-27_17h26.52.082,MSI_TV_v3,2022.1.1,59.98580735902263,
23,0,23,0,,,,,,,,,,1,1,2,b,9,1,3.76873691643126,1.90743690794447,None,271.41914180000094,None,273.30239265000057,273.30239265000057,273.31894004999924,None,[],['b'],[0.4226335999992443],275.30672779999804,None,b,2.4226335999992443,1,1,0.7083333333333334,None,279.0643181999985,None,279.0643181999985,None,,,,,,,,,,,,,,,,,,,,,,,CBC_1143,4,6,3,5,0,0.8,2024-09-27_17h26.52.082,MSI_TV_v3,2022.1.1,59.98580735902263,
24,0,24,0,,,,,,,,,,2,3,2,z,63,1,4.190022164497369,1.21250262048173,None,280.869049500001,None,282.067756449998,282.067756449998,282.084632650001,None,[],['z'],[0.6516738999998779],284.0651589000008,None,z,2.651673899999878,1,1,0.72,None,288.25606719999996,None,288.25606719999996,None,,,,,,,,,,,,,,,,,,,,,,,CBC_1143,4,6,3,5,0,0.8,2024-09-27_17h26.52.082,MSI_TV_v3,2022.1.1,59.98580735902263,
25,0,25,0,,,,,,,,,,3,3,2,b,63,0,2.91303524001082,1.96568735158996,None,290.0681371999999,None,292.002052649999,292.002052649999,292.01883464999776,b,['b'],None,,294.04711300000054,None,b,1.8016193000003113,1,0,0.7307692307692307,None,296.9643137999992,None,296.9643137999992,None,1.8016193000003113,[1.8016193000003113],,,,,,,,,,,,,,,,,,,,,CBC_1143,4,6,3,5,0,0.8,2024-09-27_17h26.52.082,MSI_TV_v3,2022.1.1,59.98580735902263,
26,0,26,0,,,,,,,,,,1,1,0,b,63,1,2.6391747348430608,1.95130344756745,None,298.768950499998,None,300.70274434999885,300.70274434999885,300.7188415500001,None,[],['b'],[0.24119079999945825],302.70203799999945,None,b,2.2411907999994582,1,1,0.7407407407407407,None,305.339844099999,None,305.339844099999,None,,,,,,,,,,,,,,,,,,,,,,,CBC_1143,4,6,3,5,0,0.8,2024-09-27_17h26.52.082,MSI_TV_v3,2022.1.1,59.98580735902263,
27,0,27,0,,,,,,,,,,0,2,0,z,27,1,4.40017271499661,2.10421507306074,None,307.1525311000005,None,309.235580350001,309.235580350001,309.2521216500005,None,[],['z'],[1.110956200001965],311.2429921999974,None,z,3.110956200001965,1,1,0.75,None,315.6390662999984,None,315.6390662999984,None,,,,,,,,,,,,,,,,,,,,,,,CBC_1143,4,6,3,5,0,0.8,2024-09-27_17h26.52.082,MSI_TV_v3,2022.1.1,59.98580735902263,
28,0,28,0,,,,,,,,,,3,3,1,b,27,1,3.31929419319838,1.38289892513751,None,317.45243429999755,None,318.8190122499997,318.8190122499997,318.83553404999986,b,['b'],None,,320.8398409000001,None,b,1.4783468999994511,1,1,0.7586206896551724,None,324.1667023000009,None,324.1667023000009,None,1.4783468999994511,[1.4783468999994511],,,,,,,,,,,,,,,,,,,,,CBC_1143,4,6,3,5,0,0.8,2024-09-27_17h26.52.082,MSI_TV_v3,2022.1.1,59.98580735902263,
29,0,29,0,,,,,,,,,,0,0,1,b,63,1,4.01714354611405,0.80788063606262,None,325.9693490999998,None,326.75275354999906,326.75275354999906,326.76934614999993,None,[],['b'],[0.9394083000006503],328.7631486999999,None,b,2.9394083000006503,1,1,0.7666666666666667,None,332.77047400000083,None,332.77047400000083,None,,,,,,,,,,,,,,,,,,,,,,,CBC_1143,4,6,3,5,0,0.8,2024-09-27_17h26.52.082,MSI_TV_v3,2022.1.1,59.98580735902263,
30,0,30,0,,,,,,,,,,2,0,2,z,27,1,4.72585056748869,3.4543169006169,None,334.58577739999964,None,338.01905865000083,338.01905865000083,338.0363002499995,None,[],['z'],[0.33553639999809093],340.0270372999985,None,z,2.335536399998091,1,1,0.7741935483870968,None,344.7523731000001,None,344.7523731000001,None,,,,,,,,,,,,,,,,,,,,,,,CBC_1143,4,6,3,5,0,0.8,2024-09-27_17h26.52.082,MSI_TV_v3,2022.1.1,59.98580735902263,
31,0,31,0,,,,,,,,,,3,3,2,b,63,1,3.68371079902891,2.49839527409216,None,346.55235840000023,None,349.035554650001,349.035554650001,349.0522280499987,b,['b'],None,,351.0686592999991,None,b,1.1353023999981815,1,1,0.78125,None,354.748668799999,None,354.748668799999,None,1.1353023999981815,[1.1353023999981815],,,,,,,,,,,,,,,,,,,,,CBC_1143,4,6,3,5,0,0.8,2024-09-27_17h26.52.082,MSI_TV_v3,2022.1.1,59.98580735902263,
32,0,32,0,,,,,,,,,,1,0,1,z,63,1,4.7533305109883095,1.18065738546375,None,356.5514703000008,None,357.7029049499994,357.7029049499994,357.7192406499977,None,[],['z'],[0.3046022000016819],359.70728640000016,None,z,2.304602200001682,1,1,0.7878787878787878,None,364.45960360000026,None,364.45960360000026,None,,,,,,,,,,,,,,,,,,,,,,,CBC_1143,4,6,3,5,0,0.8,2024-09-27_17h26.52.082,MSI_TV_v3,2022.1.1,59.98580735902263,
33,0,33,0,,,,,,,,,,0,1,0,z,63,1,4.77034425507967,0.979776149765883,None,366.26932029999807,None,367.2191834499987,367.2191834499987,367.23571315000083,None,[],['z'],[0.5265423000018927],369.2187497999985,None,z,2.5265423000018927,1,1,0.7941176470588235,None,373.9766973000005,None,373.9766973000005,None,,,,,,,,,,,,,,,,,,,,,,,CBC_1143,4,6,3,5,0,0.8,2024-09-27_17h26.52.082,MSI_TV_v3,2022.1.1,59.98580735902263,
34,0,34,0,,,,,,,,,,3,3,2,b,63,0,2.433630701072358,1.43470440954152,None,375.78604749999795,None,377.20109034999916,377.20109034999916,377.21850584999777,b,['b'],None,,379.23041739999826,None,b,1.4519596999998612,1,0,0.8,None,381.68046879999747,None,381.68046879999747,None,1.4519596999998612,[1.4519596999998612],,,,,,,,,,,,,,,,,,,,,CBC_1143,4,6,3,5,0,0.8,2024-09-27_17h26.52.082,MSI_TV_v3,2022.1.1,59.98580735902263,
35,0,35,0,,,,,,,,,,2,0,2,z,27,1,3.71372710086949,2.40378712856304,None,383.48621029999777,None,385.86971615000004,385.86971615000004,385.88632635000033,None,[],['z'],[0.393412299999909],387.8758894999992,None,z,2.393412299999909,1,1,0.8055555555555556,None,391.5914706000003,None,391.5914706000003,None,,,,,,,,,,,,,,,,,,,,,,,CBC_1143,4,6,3,5,0,0.8,2024-09-27_17h26.52.082,MSI_TV_v3,2022.1.1,59.98580735902263,
36,0,36,0,,,,,,,,,,0,1,0,z,63,1,2.592312596923728,1.60731937853708,None,393.40236189999996,None,394.9849413499993,394.9849413499993,395.0013850499978,None,[],['z'],[0.7452986999996938],396.9810288000008,None,z,2.745298699999694,1,1,0.8108108108108109,None,399.5658268999978,None,399.5658268999978,None,,,,,,,,,,,,,,,,,,,,,,,CBC_1143,4,6,3,5,0,0.8,2024-09-27_17h26.52.082,MSI_TV_v3,2022.1.1,59.98580735902263,
37,0,37,0,,,,,,,,,,1,3,1,z,27,1,3.02234236141277,3.1424449555106,None,401.36950929999875,None,404.4859103499999,404.4859103499999,404.5025734499992,None,[],['z'],[1.166699299999891],406.4896950000002,None,z,3.166699299999891,1,1,0.8157894736842105,None,409.4986112000006,None,409.4986112000006,None,,,,,,,,,,,,,,,,,,,,,,,CBC_1143,4,6,3,5,0,0.8,2024-09-27_17h26.52.082,MSI_TV_v3,2022.1.1,59.98580735902263,
38,0,38,0,,,,,,,,,,2,2,3,b,63,0,2.517541937862754,0.917519910446003,None,411.3025811999978,None,412.202733249998,412.202733249998,412.219308450001,b,['b'],None,,414.2462850999982,None,b,1.7339236999978311,1,0,0.8205128205128205,None,416.7647345999976,None,416.7647345999976,None,1.7339236999978311,[1.7339236999978311],,,,,,,,,,,,,,,,,,,,,CBC_1143,4,6,3,5,0,0.8,2024-09-27_17h26.52.082,MSI_TV_v3,2022.1.1,59.98580735902263,
39,0,39,0,,,,,,,,,,3,2,3,z,63,1,2.92731383428727,3.1963008326951,None,418.5693341999977,None,421.7526975499983,421.7526975499983,421.76968174999786,z,['z'],None,,423.79738599999837,None,z,1.3998876000005112,1,1,0.825,None,426.73326570000063,None,426.73326570000063,None,1.3998876000005112,[1.3998876000005112],,,,,,,,,,,,,,,,,,,,,CBC_1143,4,6,3,5,0,0.8,2024-09-27_17h26.52.082,MSI_TV_v3,2022.1.1,59.98580735902263,
40,0,40,0,,,,,,,,,,1,1,0,b,63,1,2.666404967794728,1.53243550275999,None,428.53618749999805,None,430.05321485000024,430.05321485000024,430.0696229500005,None,[],['b'],[0.6008825000026263],432.0565370000004,None,b,2.6008825000026263,1,1,0.8292682926829268,None,434.734402099999,None,434.734402099999,None,,,,,,,,,,,,,,,,,,,,,,,CBC_1143,4,6,3,5,0,0.8,2024-09-27_17h26.52.082,MSI_TV_v3,2022.1.1,59.98580735902263,
41,0,41,0,,,,,,,,,,0,0,2,b,27,1,4.52047235037039,1.52290599571961,None,436.5357444000001,None,438.0365522499975,438.0365522499975,438.0530820500004,None,[],['b'],[0.11295919999975013],440.0432132999995,None,b,2.11295919999975,1,1,0.8333333333333334,None,444.5590408999997,None,444.5590408999997,None,,,,,,,,,,,,,,,,,,,,,,,CBC_1143,4,6,3,5,0,0.8,2024-09-27_17h26.52.082,MSI_TV_v3,2022.1.1,59.98580735902263,
42,0,42,0,,,,,,,,,,3,0,3,z,9,1,2.7134565917469198,1.12425433982333,None,446.3697296999999,None,447.4695178499984,447.4695178499984,447.48598934999757,z,['z'],None,,449.5158784999985,None,z,1.2629971000023943,1,1,0.8372093023255814,None,452.2348194999977,None,452.2348194999977,None,1.2629971000023943,[1.2629971000023943],,,,,,,,,,,,,,,,,,,,,CBC_1143,4,6,3,5,0,0.8,2024-09-27_17h26.52.082,MSI_TV_v3,2022.1.1,59.98580735902263,
43,0,43,0,,,,,,,,,,2,2,3,b,63,1,3.35133458220192,2.09887870490381,None,454.0367557999998,None,456.1190749499998,456.1190749499998,456.13609334999785,b,['b'],None,,458.1565109000003,None,b,1.2297929999986081,1,1,0.8409090909090909,None,461.50224869999874,None,461.50224869999874,None,1.2297929999986081,[1.2297929999986081],,,,,,,,,,,,,,,,,,,,,CBC_1143,4,6,3,5,0,0.8,2024-09-27_17h26.52.082,MSI_TV_v3,2022.1.1,59.98580735902263,
,,,,,,,,,,,,,,,,,,,,,,,,,,,,,,,,,,,,,,,,,,,,,None,463.3026351999979,None,,,,,,,,,,,,,,,,,,CBC_1143,4,6,3,5,0,0.8,2024-09-27_17h26.52.082,MSI_TV_v3,2022.1.1,59.98580735902263,
,,,,,,,,,,,,,,,,,,,,,,,,,,,,,,,,,,,,,,,,,,,,,,,,468.2862940999985,None,None,468.2862940999985,473.27001219999875,,,,,,,,,,,,,CBC_1143,4,6,3,5,0,0.8,2024-09-27_17h26.52.082,MSI_TV_v3,2022.1.1,59.98580735902263,
,,,,,,,,,,,,,,,,,,,,,,,,,,,,,,,,,,,,,,,,,,,,,,,,,,,,,z,b,hard,"[0, 1, 2, 3]","[0, 1, 2, 3]",0.6363636363636364,0.7272727272727273,1.0,1.0,31,0,13,,,,,,,,,,,,
