trials_runs.thisRepN,trials_runs.thisTrialN,trials_runs.thisN,trials_runs.thisIndex,standbild_start.started,standbild_start.stopped,trigger.keys,trigger.rt,trigger.started,trigger.stopped,keys_2.keys,keys_2.started,keys_2.stopped,trials_runs.tactile_stim,trials_runs.visual_stim_left,trials_runs.visual_stim_right,trials_runs.correctKey,trials_runs.presentationFrequncy,trials_runs.FBaccuracy,trials_runs.ISI_s,trials_runs.ITI_s,keys_3.keys,keys_3.started,keys_3.stopped,image_stim_left.started,image_stim_right.started,tactile.started,response_4.keys,allKeys.keys,response_5.keys,response_5.started,response_5.stopped,response_runs.keys,response_runs.rt,trials_runs.correct_answer,trials_runs.feedback_given,trials_runs.running_mean,feedback_6.stopped,feedback_6.started,keys_6.keys,keys_6.rt,keys_6.started,keys_6.stopped,response_4.rt,allKeys.rt,response_5.rt,keys_7.keys,keys_7.started,keys_7.stopped,standbild_end.started,standbild_end.stopped,Stop_exp.keys,Stop_exp.started,Stop_exp.stopped,trials_runs.rightKey,trials_runs.leftKey,ts_difficulty,visualPair,tactilePair,trials_runs.mean_acc_1stFourth,trials_runs.mean_acc_2ndFourth,trials_runs.mean_acc_3rdFourth,trials_runs.mean_acc_4thFourth,participant,session,visual set [1-6],tactile set [1-3],trial structure [0-3 / 4-7],pairing [0-23],prob Feedback,date,expName,psychopyVersion,frameRate,
,,,,395.04420130000017,None,t,65.50069090000034,395.04420130000017,None,,,,,,,,,,,,,,,,,,,,,,,,,,,,,,,,,,,,,,,,,,,,,,,,,,,,,,CBC_1014,001,4,3,4,13,0.95,2023-06-25_10h42.28.156,MSI_TV_v3,2022.1.1,59.978072016931435,
,,,,,,,,,,None,460.5695254000002,None,,,,,,,,,,,,,,,,,,,,,,,,,,,,,,,,,,,,,,,,,,,,,,,,,,,CBC_1014,001,4,3,4,13,0.95,2023-06-25_10h42.28.156,MSI_TV_v3,2022.1.1,59.978072016931435,
0,0,0,0,,,,,,,,,,0,1.0,0.0,b,63.0,1.0,4.52047235037039,1.90743690794447,None,460.76956240000027,None,462.6528552900003,462.6528552900003,462.66943199000013,None,[],None,464.65826240000024,None,None,[],0,3,0.0,None,469.23994270000003,['z'],[0.7931534000003921],469.23994270000003,None,,,,,,,,,,,,,,,,,,,,,CBC_1014,001,4,3,4,13,0.95,2023-06-25_10h42.28.156,MSI_TV_v3,2022.1.1,59.978072016931435,
1,0,1,0,,,,,,,,,,2,1.0,0.0,z,63.0,1.0,2.666404967794728,1.27538462653558,None,470.98606470000004,None,472.2363066900001,472.2363066900001,472.2530463900001,None,[],None,474.2388037999999,None,None,[],0,3,0.0,None,476.9104618000001,None,,476.9104618000001,None,,,,,,,,,,,,,,,,,,,,,CBC_1014,001,4,3,4,13,0.95,2023-06-25_10h42.28.156,MSI_TV_v3,2022.1.1,59.978072016931435,
2,0,2,0,,,,,,,,,,1,3.0,2.0,b,63.0,1.0,3.2062024266105302,3.1424449555106,None,478.7193934000002,None,481.8361796900002,481.8361796900002,481.85291158999996,b,['b'],None,483.87827070000003,None,b,1.3253967000000557,1,1,0.3333333333333333,None,487.0817798000003,None,,487.0817798000003,None,1.3253967000000557,[1.3253967000000557],,,,,,,,,,,,,,,,,,,CBC_1014,001,4,3,4,13,0.95,2023-06-25_10h42.28.156,MSI_TV_v3,2022.1.1,59.978072016931435,
3,0,3,0,,,,,,,,,,0,1.0,2.0,b,9.0,1.0,2.517541937862754,2.22427187882546,None,488.8861243000001,None,491.0864606900003,491.0864606900003,491.10296459000017,None,[],['z'],493.0958550999999,None,z,2.5803343000002315,0,0,0.25,None,495.6052920000002,None,,495.6052920000002,None,,,[0.5803343000002315],,,,,,,,,,,,,,,,,,CBC_1014,001,4,3,4,13,0.95,2023-06-25_10h42.28.156,MSI_TV_v3,2022.1.1,59.978072016931435,
4,0,4,0,,,,,,,,,,2,2.0,0.0,z,27.0,1.0,3.7500315165247198,0.917519910446003,None,497.4193415,None,498.31916519000004,498.31916519000004,498.3359648899999,None,[],['b'],500.3209804000003,None,b,2.737043100000392,0,0,0.2,None,504.0799006000002,None,,504.0799006000002,None,,,[0.7370431000003919],,,,,,,,,,,,,,,,,,CBC_1014,001,4,3,4,13,0.95,2023-06-25_10h42.28.156,MSI_TV_v3,2022.1.1,59.978072016931435,
5,0,5,0,,,,,,,,,,3,3.0,2.0,z,63.0,1.0,2.496959177995529,1.60731937853708,None,505.8863405000002,None,507.4692645900003,507.4692645900003,507.4865814900003,None,[],['b'],509.47333789999993,None,b,2.6618911000005028,0,0,0.16666666666666666,None,511.9750618000003,None,,511.9750618000003,None,,,[0.6618911000005028],,,,,,,,,,,,,,,,,,CBC_1014,001,4,3,4,13,0.95,2023-06-25_10h42.28.156,MSI_TV_v3,2022.1.1,59.978072016931435,
6,0,6,0,,,,,,,,,,1,3.0,1.0,b,27.0,1.0,2.294664843639333,2.40378712856304,None,513.7861653999998,None,516.1697257899999,516.1697257899999,516.1863627900001,None,[],['z'],518.1728954,None,z,3.2282783000000563,0,0,0.14285714285714285,None,520.4728610000002,None,,520.4728610000002,None,,,[1.2282783000000563],,,,,,,,,,,,,,,,,,CBC_1014,001,4,3,4,13,0.95,2023-06-25_10h42.28.156,MSI_TV_v3,2022.1.1,59.978072016931435,
7,0,7,0,,,,,,,,,,2,0.0,1.0,b,63.0,1.0,4.7533305109883095,2.96653053743745,None,522.2858829000002,None,525.2365844899999,525.2365844899999,525.2530841900001,None,[],['b'],527.2399191,None,b,2.4623951000003217,1,1,0.25,None,532.0045552000001,None,,532.0045552000001,None,,,[0.4623951000003217],,,,,,,,,,,,,,,,,,CBC_1014,001,4,3,4,13,0.95,2023-06-25_10h42.28.156,MSI_TV_v3,2022.1.1,59.978072016931435,
8,0,8,0,,,,,,,,,,3,0.0,2.0,z,27.0,1.0,4.77034425507967,1.78643585472448,None,533.8195312000003,None,535.5859407900001,535.5859407900001,535.6026112900003,None,[],['z'],537.5894515,None,z,2.772611300000335,1,1,0.3333333333333333,None,542.3588731,None,,542.3588731,None,,,[0.7726113000003352],,,,,,,,,,,,,,,,,,CBC_1014,001,4,3,4,13,0.95,2023-06-25_10h42.28.156,MSI_TV_v3,2022.1.1,59.978072016931435,
9,0,9,0,,,,,,,,,,1,3.0,2.0,b,63.0,1.0,3.02234236141277,3.06992456303453,None,544.1695490000002,None,547.2196481899999,547.2196481899999,547.23631539,None,[],['b'],549.2213356000002,None,b,2.658954200000153,1,1,0.4,None,552.2507220000002,None,,552.2507220000002,None,,,[0.6589542000001529],,,,,,,,,,,,,,,,,,CBC_1014,001,4,3,4,13,0.95,2023-06-25_10h42.28.156,MSI_TV_v3,2022.1.1,59.978072016931435,
10,0,10,0,,,,,,,,,,0,0.0,1.0,z,63.0,1.0,3.31929419319838,1.12425433982333,None,554.0527373,None,555.15305909,555.15305909,555.1697031900002,None,[],['z'],557.1557210999999,None,z,2.792560400000184,1,1,0.45454545454545453,None,560.4739410000002,None,,560.4739410000002,None,,,[0.792560400000184],,,,,,,,,,,,,,,,,,CBC_1014,001,4,3,4,13,0.95,2023-06-25_10h42.28.156,MSI_TV_v3,2022.1.1,59.978072016931435,
11,0,11,0,,,,,,,,,,2,1.0,0.0,z,63.0,1.0,3.35133458220192,3.40155979865722,None,562.2858599000001,None,565.6695059900002,565.6695059900002,565.6864137900001,None,[],['z'],567.6718996,None,z,2.576922900000227,1,1,0.5,None,571.0336545999999,None,,571.0336545999999,None,,,[0.576922900000227],,,,,,,,,,,,,,,,,,CBC_1014,001,4,3,4,13,0.95,2023-06-25_10h42.28.156,MSI_TV_v3,2022.1.1,59.978072016931435,
12,0,12,0,,,,,,,,,,1,3.0,2.0,b,63.0,1.0,3.73326136168326,1.43470440954152,None,572.8361334000001,None,574.2528819900002,574.2528819900002,574.2696925900003,None,[],['b'],576.2508898000001,None,b,2.3540225000001556,1,1,0.5384615384615384,None,579.9923839000003,None,,579.9923839000003,None,,,[0.35402250000015556],,,,,,,,,,,,,,,,,,CBC_1014,001,4,3,4,13,0.95,2023-06-25_10h42.28.156,MSI_TV_v3,2022.1.1,59.978072016931435,
13,0,13,0,,,,,,,,,,3,0.0,2.0,z,27.0,1.0,4.77723667052879,0.761758675042088,None,581.8028680000002,None,582.5359501900001,582.5359501900001,582.5528004900001,None,[],['z'],584.5396699000003,None,z,2.6686392000001433,1,1,0.5714285714285714,None,589.3277834999999,None,,589.3277834999999,None,,,[0.6686392000001433],,,,,,,,,,,,,,,,,,CBC_1014,001,4,3,4,13,0.95,2023-06-25_10h42.28.156,MSI_TV_v3,2022.1.1,59.978072016931435,
14,0,14,0,,,,,,,,,,2,1.0,0.0,z,63.0,1.0,4.40017271499661,1.96568735158996,None,591.1360797000002,None,593.0866499900002,593.0866499900002,593.10294539,None,[],['z'],595.0890985999999,None,z,2.9187591999998403,1,1,0.6,None,599.4962834000003,None,,599.4962834000003,None,,,[0.9187591999998403],,,,,,,,,,,,,,,,,,CBC_1014,001,4,3,4,13,0.95,2023-06-25_10h42.28.156,MSI_TV_v3,2022.1.1,59.978072016931435,
15,0,15,0,,,,,,,,,,0,3.0,1.0,z,27.0,1.0,2.629554641171433,1.36309078069689,None,601.3025966999999,None,602.6527886900002,602.6527886900002,602.6694036900002,None,[],['z'],604.6542106000002,None,z,3.038569500000449,1,1,0.625,None,607.2866124000002,None,,607.2866124000002,None,,,[1.038569500000449],,,,,,,,,,,,,,,,,,CBC_1014,001,4,3,4,13,0.95,2023-06-25_10h42.28.156,MSI_TV_v3,2022.1.1,59.978072016931435,
16,0,16,0,,,,,,,,,,3,2.0,3.0,b,63.0,1.0,2.92731383428727,0.952147612306987,None,609.1019812,None,610.0364795899999,610.0364795899999,610.0530958900002,None,[],['z'],612.0350407000001,None,z,2.75766909999993,0,0,0.5882352941176471,None,614.9619642000002,None,,614.9619642000002,None,,,[0.75766909999993],,,,,,,,,,,,,,,,,,CBC_1014,001,4,3,4,13,0.95,2023-06-25_10h42.28.156,MSI_TV_v3,2022.1.1,59.978072016931435,
17,0,17,0,,,,,,,,,,1,3.0,2.0,b,63.0,0.0,2.2759877950103027,3.1963008326951,None,616.7695139000002,None,619.9362158900002,619.9362158900002,619.9528444900001,None,[],['z'],621.9342427000001,None,z,2.644831200000226,0,1,0.5555555555555556,None,624.2120674000003,None,,624.2120674000003,None,,,[0.6448312000002261],,,,,,,,,,,,,,,,,,CBC_1014,001,4,3,4,13,0.95,2023-06-25_10h42.28.156,MSI_TV_v3,2022.1.1,59.978072016931435,
18,0,18,0,,,,,,,,,,0,0.0,1.0,z,63.0,1.0,4.72585056748869,1.95130344756745,None,626.0197109000001,None,627.9532002899999,627.9532002899999,627.9696355899999,None,[],['b'],629.9504323000001,None,b,3.00174190000007,0,0,0.5263157894736842,None,634.6715484000001,None,,634.6715484000001,None,,,[1.00174190000007],,,,,,,,,,,,,,,,,,CBC_1014,001,4,3,4,13,0.95,2023-06-25_10h42.28.156,MSI_TV_v3,2022.1.1,59.978072016931435,
19,0,19,0,,,,,,,,,,2,0.0,2.0,b,27.0,1.0,4.01714354611405,2.10421507306074,None,636.4860395000001,None,638.5695040899999,638.5695040899999,638.5861629899999,None,[],['z'],640.5728870000003,None,z,2.6559252000001834,0,0,0.5,None,644.5984342000002,None,,644.5984342000002,None,,,[0.6559252000001834],,,,,,,,,,,,,,,,,,CBC_1014,001,4,3,4,13,0.95,2023-06-25_10h42.28.156,MSI_TV_v3,2022.1.1,59.978072016931435,
20,0,20,0,,,,,,,,,,1,3.0,0.0,b,9.0,1.0,2.91303524001082,2.09887870490381,None,646.4027246,None,648.4862596900001,648.4862596900001,648.5028503900002,None,[],['b'],650.4866746000002,None,b,2.8950104000000465,1,1,0.5238095238095238,None,653.4010550000003,None,,653.4010550000003,None,,,[0.8950104000000465],,,,,,,,,,,,,,,,,,CBC_1014,001,4,3,4,13,0.95,2023-06-25_10h42.28.156,MSI_TV_v3,2022.1.1,59.978072016931435,
21,0,21,0,,,,,,,,,,3,3.0,2.0,z,63.0,1.0,4.11514536789087,1.21250262048173,None,655.2019141000001,None,656.3863843900002,656.3863843900002,656.4026261900002,None,[],['z'],658.3903202000001,None,z,2.6057724000002054,1,1,0.5454545454545454,None,662.5113722000001,None,,662.5113722000001,None,,,[0.6057724000002054],,,,,,,,,,,,,,,,,,CBC_1014,001,4,3,4,13,0.95,2023-06-25_10h42.28.156,MSI_TV_v3,2022.1.1,59.978072016931435,
22,0,22,0,,,,,,,,,,0,1.0,3.0,b,27.0,1.0,4.61004669244928,1.53122835510861,None,664.3198310000002,None,665.8352234900002,665.8352234900002,665.8519514900003,None,[],['b'],667.8309494999999,None,b,2.766054499999882,1,1,0.5652173913043478,None,672.4314797000002,None,,672.4314797000002,None,,,[0.766054499999882],,,,,,,,,,,,,,,,,,CBC_1014,001,4,3,4,13,0.95,2023-06-25_10h42.28.156,MSI_TV_v3,2022.1.1,59.978072016931435,
23,0,23,0,,,,,,,,,,3,2.0,3.0,b,63.0,1.0,2.342239579230602,1.53243550275999,None,674.2489974,None,675.7690130899999,675.7690130899999,675.7853572900002,None,[],['z'],677.7638244,None,z,2.8598722000001544,0,0,0.5416666666666666,None,680.1009678,None,,680.1009678,None,,,[0.8598722000001544],,,,,,,,,,,,,,,,,,CBC_1014,001,4,3,4,13,0.95,2023-06-25_10h42.28.156,MSI_TV_v3,2022.1.1,59.978072016931435,
24,0,24,0,,,,,,,,,,1,3.0,2.0,b,63.0,1.0,3.26539063535182,2.6299100644723,None,681.9030212000002,None,684.5194971899999,684.5194971899999,684.5362645900003,None,[],['b'],686.5222893,None,b,3.6755686000001333,1,1,0.56,None,689.7921723,None,,689.7921723,None,,,[1.6755686000001333],,,,,,,,,,,,,,,,,,CBC_1014,001,4,3,4,13,0.95,2023-06-25_10h42.28.156,MSI_TV_v3,2022.1.1,59.978072016931435,
25,0,25,0,,,,,,,,,,0,0.0,1.0,z,63.0,1.0,4.46924002178158,1.38289892513751,None,691.6028802000001,None,692.9696050900001,692.9696050900001,692.98627759,z,['z'],None,695.0116891000002,None,z,1.998482999999851,1,1,0.5769230769230769,None,699.4816842999999,None,,699.4816842999999,None,1.998482999999851,[1.998482999999851],,,,,,,,,,,,,,,,,,,CBC_1014,001,4,3,4,13,0.95,2023-06-25_10h42.28.156,MSI_TV_v3,2022.1.1,59.978072016931435,
26,0,26,0,,,,,,,,,,2,3.0,0.0,z,9.0,1.0,2.6391747348430608,3.4543169006169,None,701.2855281000002,None,704.7195535899999,704.7195535899999,704.7363962900002,None,[],['z'],706.7181881000001,None,z,2.8744715000002543,1,1,0.5925925925925926,None,709.3576655000002,None,,709.3576655000002,None,,,[0.8744715000002543],,,,,,,,,,,,,,,,,,CBC_1014,001,4,3,4,13,0.95,2023-06-25_10h42.28.156,MSI_TV_v3,2022.1.1,59.978072016931435,
27,0,27,0,,,,,,,,,,1,3.0,2.0,b,63.0,1.0,2.792365600763554,2.15533949826702,None,711.1696425,None,713.3034408900002,713.3034408900002,713.3198773900002,None,[],['b'],715.3063637999999,None,b,2.8727561000000605,1,1,0.6071428571428571,None,718.0956277999999,None,,718.0956277999999,None,,,[0.8727561000000605],,,,,,,,,,,,,,,,,,CBC_1014,001,4,3,4,13,0.95,2023-06-25_10h42.28.156,MSI_TV_v3,2022.1.1,59.978072016931435,
28,0,28,0,,,,,,,,,,3,0.0,2.0,z,27.0,1.0,3.68371079902891,1.1243895841892,None,719.9029713999998,None,721.00298779,721.00298779,721.0197169900001,None,[],['z'],723.0277426000002,None,z,2.623695800000405,1,1,0.6206896551724138,None,726.7211176999999,None,,726.7211176999999,None,,,[0.6236958000004051],,,,,,,,,,,,,,,,,,CBC_1014,001,4,3,4,13,0.95,2023-06-25_10h42.28.156,MSI_TV_v3,2022.1.1,59.978072016931435,
29,0,29,0,,,,,,,,,,2,0.0,1.0,b,63.0,1.0,2.526044641065533,3.24569326556923,None,728.5364856000001,None,731.76977669,731.76977669,731.7862130900002,None,[],['z'],733.7910557999999,None,z,3.501929300000029,0,0,0.6,None,736.3141432000002,None,,736.3141432000002,None,,,[1.5019293000000289],,,,,,,,,,,,,,,,,,CBC_1014,001,4,3,4,13,0.95,2023-06-25_10h42.28.156,MSI_TV_v3,2022.1.1,59.978072016931435,
30,0,30,0,,,,,,,,,,0,0.0,1.0,z,63.0,1.0,3.76873691643126,0.979776149765883,None,738.1197397000001,None,739.0864446899999,739.0864446899999,739.1031648900001,None,[],['b'],741.1103008,None,b,2.9997315000000526,0,0,0.5806451612903226,None,744.8762215000002,None,,744.8762215000002,None,,,[0.9997315000000526],,,,,,,,,,,,,,,,,,CBC_1014,001,4,3,4,13,0.95,2023-06-25_10h42.28.156,MSI_TV_v3,2022.1.1,59.978072016931435,
31,0,31,0,,,,,,,,,,1,1.0,3.0,z,27.0,1.0,2.82320408183943,0.80788063606262,None,746.6866602999999,None,747.4690421900003,747.4690421900003,747.4855128900002,None,[],['z'],749.4635782,None,z,2.8529287000001204,1,1,0.59375,None,752.2739901,None,,752.2739901,None,,,[0.8529287000001204],,,,,,,,,,,,,,,,,,CBC_1014,001,4,3,4,13,0.95,2023-06-25_10h42.28.156,MSI_TV_v3,2022.1.1,59.978072016931435,
32,0,32,0,,,,,,,,,,3,2.0,3.0,b,63.0,1.0,2.433630701072358,1.25920145784721,None,754.0863881999999,None,755.3191798900001,755.3191798900001,755.3353895900003,None,[],['b'],757.3130034000001,None,b,2.7306859000004806,1,1,0.6060606060606061,None,759.7435129999999,None,,759.7435129999999,None,,,[0.7306859000004806],,,,,,,,,,,,,,,,,,CBC_1014,001,4,3,4,13,0.95,2023-06-25_10h42.28.156,MSI_TV_v3,2022.1.1,59.978072016931435,
33,0,33,0,,,,,,,,,,0,0.0,1.0,z,63.0,1.0,2.693348633324513,1.94858485820231,None,761.5534127000001,None,763.4866499900003,763.4866499900003,763.50356899,None,[],['z'],765.4842982,None,z,3.6817630000000463,1,1,0.6176470588235294,None,768.1851385999998,None,,768.1851385999998,None,,,[1.6817630000000463],,,,,,,,,,,,,,,,,,CBC_1014,001,4,3,4,13,0.95,2023-06-25_10h42.28.156,MSI_TV_v3,2022.1.1,59.978072016931435,
34,0,34,0,,,,,,,,,,2,1.0,0.0,z,63.0,1.0,3.6438386551209,1.64421109900286,None,769.9863919,None,771.6032722900003,771.6032722900003,771.6200068900001,None,[],['b'],773.6062024000003,None,b,2.833178500000031,0,0,0.6,None,777.2446977,None,,777.2446977,None,,,[0.8331785000000309],,,,,,,,,,,,,,,,,,CBC_1014,001,4,3,4,13,0.95,2023-06-25_10h42.28.156,MSI_TV_v3,2022.1.1,59.978072016931435,
35,0,35,0,,,,,,,,,,3,2.0,1.0,b,9.0,1.0,4.190022164497369,1.18065738546375,None,779.0529191999999,None,780.2198085900003,780.2198085900003,780.2365207900001,None,[],['z'],782.2220043000002,None,z,3.029639800000041,0,0,0.5833333333333334,None,786.4090735999998,None,,786.4090735999998,None,,,[1.0296398000000409],,,,,,,,,,,,,,,,,,CBC_1014,001,4,3,4,13,0.95,2023-06-25_10h42.28.156,MSI_TV_v3,2022.1.1,59.978072016931435,
36,0,36,0,,,,,,,,,,2,0.0,1.0,b,63.0,1.0,4.12485271162806,1.52290599571961,None,788.2197374000002,None,789.7200290899999,789.7200290899999,789.7370381899999,None,[],['b'],791.7237491999999,None,b,3.441834700000527,1,1,0.5945945945945946,None,795.8511942,None,,795.8511942,None,,,[1.441834700000527],,,,,,,,,,,,,,,,,,CBC_1014,001,4,3,4,13,0.95,2023-06-25_10h42.28.156,MSI_TV_v3,2022.1.1,59.978072016931435,
37,0,37,0,,,,,,,,,,1,1.0,3.0,z,27.0,1.0,2.678526077912375,1.25817747924478,None,797.6533777,None,798.8857586900002,798.8857586900002,798.9023816900002,None,[],['z'],800.8808362,None,z,2.570361000000048,1,1,0.6052631578947368,None,803.5628075,None,,803.5628075,None,,,[0.5703610000000481],,,,,,,,,,,,,,,,,,CBC_1014,001,4,3,4,13,0.95,2023-06-25_10h42.28.156,MSI_TV_v3,2022.1.1,59.978072016931435,
38,0,38,0,,,,,,,,,,0,1.0,0.0,b,63.0,1.0,3.71372710086949,3.33124983260532,None,805.3700121000002,None,808.6868147900003,808.6868147900003,808.7036230900002,None,[],['z'],810.6904420000001,None,z,2.3458301000000574,0,0,0.5897435897435898,None,814.4114205000001,None,,814.4114205000001,None,,,[0.3458301000000574],,,,,,,,,,,,,,,,,,CBC_1014,001,4,3,4,13,0.95,2023-06-25_10h42.28.156,MSI_TV_v3,2022.1.1,59.978072016931435,
39,0,39,0,,,,,,,,,,3,3.0,2.0,z,63.0,0.0,2.7134565917469198,2.78346932462847,None,816.2203463999999,None,818.9855146900003,818.9855146900003,819.0021236900001,None,[],['z'],820.9814624999999,None,z,2.5853815999998915,1,0,0.6,None,823.6908394000002,None,,823.6908394000002,None,,,[0.5853815999998915],,,,,,,,,,,,,,,,,,CBC_1014,001,4,3,4,13,0.95,2023-06-25_10h42.28.156,MSI_TV_v3,2022.1.1,59.978072016931435,
40,0,40,0,,,,,,,,,,2,0.0,2.0,b,27.0,1.0,4.53337421950507,0.974903167432984,None,825.5033760000001,None,826.4532608900003,826.4532608900003,826.4700553900001,None,[],['b'],828.4564943999999,None,b,2.842342599999938,1,1,0.6097560975609756,None,832.9842690999999,None,,832.9842690999999,None,,,[0.8423425999999381],,,,,,,,,,,,,,,,,,CBC_1014,001,4,3,4,13,0.95,2023-06-25_10h42.28.156,MSI_TV_v3,2022.1.1,59.978072016931435,
41,0,41,0,,,,,,,,,,1,2.0,3.0,z,63.0,1.0,3.3728785608729996,2.49839527409216,None,834.7865895,None,837.2526470900001,837.2526470900001,837.26935279,None,[],['b'],839.2468821000002,None,b,2.918981799999983,0,0,0.5952380952380952,None,842.6074115000001,None,,842.6074115000001,None,,,[0.9189817999999832],,,,,,,,,,,,,,,,,,CBC_1014,001,4,3,4,13,0.95,2023-06-25_10h42.28.156,MSI_TV_v3,2022.1.1,59.978072016931435,
42,0,42,0,,,,,,,,,,0,1.0,3.0,b,27.0,1.0,2.592312596923728,0.77703640172831,None,844.4198749000002,None,845.16992049,845.16992049,845.1865479900001,None,[],['z'],847.1664435000002,None,z,4.086477000000286,0,0,0.5813953488372093,None,849.7561048000002,None,,849.7561048000002,None,,,[2.0864770000002864],,,,,,,,,,,,,,,,,,CBC_1014,001,4,3,4,13,0.95,2023-06-25_10h42.28.156,MSI_TV_v3,2022.1.1,59.978072016931435,
43,0,43,0,,,,,,,,,,3,3.0,2.0,z,63.0,1.0,4.82531807167306,1.34668860557497,None,851.5698550000002,None,852.9035076900003,852.9035076900003,852.92022399,None,[],['b'],854.9020310999999,None,b,4.351089499999944,0,0,0.5681818181818182,None,859.7404721000003,None,,859.7404721000003,None,,,[2.3510894999999437],,,,,,,,,,,,,,,,,,CBC_1014,001,4,3,4,13,0.95,2023-06-25_10h42.28.156,MSI_TV_v3,2022.1.1,59.978072016931435,
,,,,,,,,,,,,,,,,,,,,,,,,,,,,,,,,,,,,,,,,,,,,,,None,861.5533427,None,,,,,,,,,,,,,,,CBC_1014,001,4,3,4,13,0.95,2023-06-25_10h42.28.156,MSI_TV_v3,2022.1.1,59.978072016931435,
,,,,,,,,,,,,,,,,,,,,,,,,,,,,,,,,,,,,,,,,,,,,,,,,,866.5370120000002,None,None,866.5370120000002,871.5201317000001,,,,,,,,,,CBC_1014,001,4,3,4,13,0.95,2023-06-25_10h42.28.156,MSI_TV_v3,2022.1.1,59.978072016931435,
,,,,,,,,,,,,,,,,,,,,,,,,,,,,,,,,,,,,,,,,,,,,,,,,,,,,,,z,b,hard,"[0, 1, 2, 3]","[2, 0, 3, 1]",0.45454545454545453,0.6363636363636364,0.7272727272727273,0.45454545454545453,,,,,,,,,,,,
