trials_runs.thisRepN,trials_runs.thisTrialN,trials_runs.thisN,trials_runs.thisIndex,standbild_start.started,standbild_start.stopped,trigger.keys,trigger.rt,trigger.started,trigger.stopped,keys_2.keys,keys_2.started,keys_2.stopped,trials_runs.auditory_stim,trials_runs.visual_stim_left,trials_runs.visual_stim_right,trials_runs.correctKey,trials_runs.presentationFrequncy,trials_runs.FBaccuracy,trials_runs.ISI_s,trials_runs.ITI_s,keys_3.keys,keys_3.started,keys_3.stopped,ImageLeft_4.started,ImageLeft_4.stopped,ImageRight_4.started,ImageRight_4.stopped,sound_4.started,sound_4.stopped,response_4.keys,response_4.rt,response_4.started,response_4.stopped,response_5.keys,response_5.started,response_5.stopped,response_runs.keys,response_runs.rt,trials_runs.correct_answer,trials_runs.feedback_given,trials_runs.running_mean,feedback_6.started,feedback_6.stopped,keys_6.keys,keys_6.started,keys_6.stopped,response_5.rt,keys_7.keys,keys_7.started,keys_7.stopped,standbild_end.started,standbild_end.stopped,Stop_exp.keys,Stop_exp.started,Stop_exp.stopped,trials_runs.rightKey,trials_runs.leftKey,ts_difficulty,visualPair,audioPair,trials_runs.mean_acc_1stFourth,trials_runs.mean_acc_2ndFourth,trials_runs.mean_acc_3rdFourth,trials_runs.mean_acc_4thFourth,nbCorrect,nbOmissions,nbIncorrect,participant,session,visual set [1-6],audio set [1-3 / 4-6],trial structure [0-3 / 4-7],pairing [0-23],prob Feedback,date,expName,psychopyVersion,frameRate,
,,,,352.1023577999995,None,t,74.27686469999935,352.1023577999995,None,,,,,,,,,,,,,,,,,,,,,,,,,,,,,,,,,,,,,,,,,,,,,,,,,,,,,,,,,,,CBC_1109,001,3,2,6,14,0.95,2024-06-07_14h04.19.059,MSI_AV_v3,2022.1.1,59.732410746452715,
,,,,,,,,,,None,426.40081949999967,None,,,,,,,,,,,,,,,,,,,,,,,,,,,,,,,,,,,,,,,,,,,,,,,,,,,,,,,,CBC_1109,001,3,2,6,14,0.95,2024-06-07_14h04.19.059,MSI_AV_v3,2022.1.1,59.732410746452715,
0,0,0,0,,,,,,,,,,2,1,0,r,63,1,2.629554641171433,1.43470440954152,None,426.60066039999947,None,428.22359359999973,None,428.22359359999973,None,428.2318023200001,None,['r'],[1.3862975000001825],428.22359359999973,None,None,430.03614819999984,None,r,1.3862975000001825,1,1,1.0,432.65644989999964,None,None,432.65644989999964,None,,,,,,,,,,,,,,,,,,,,,,CBC_1109,001,3,2,6,14,0.95,2024-06-07_14h04.19.059,MSI_AV_v3,2022.1.1,59.732410746452715,
1,0,1,0,,,,,,,,,,3,3,2,b,63,1,3.26539063535182,3.1963008326951,None,434.4505541999997,None,437.6899612999996,None,437.6899612999996,None,437.6987310499999,None,None,,437.6899612999996,None,None,439.6338224000001,None,[],[],0,3,0.5,442.9082467999997,None,None,442.9082467999997,None,,,,,,,,,,,,,,,,,,,,,,CBC_1109,001,3,2,6,14,0.95,2024-06-07_14h04.19.059,MSI_AV_v3,2022.1.1,59.732410746452715,
2,0,2,0,,,,,,,,,,0,2,0,b,27,1,4.52047235037039,2.78346932462847,None,444.68391410000004,None,447.50353559999985,None,447.50353559999985,None,447.4999097200003,None,None,,447.50353559999985,None,['b'],449.4670679000001,None,b,2.40168790000007,1,1,0.6666666666666666,453.98388499999965,None,None,453.98388499999965,None,[0.40168790000006993],,,,,,,,,,,,,,,,,,,,,CBC_1109,001,3,2,6,14,0.95,2024-06-07_14h04.19.059,MSI_AV_v3,2022.1.1,59.732410746452715,
3,0,3,0,,,,,,,,,,2,1,0,r,63,1,2.496959177995529,1.21250262048173,None,455.79960609999944,None,457.0243782999996,None,457.0243782999996,None,457.0337693199995,None,['b'],[1.633770800000093],457.0243782999996,None,None,459.0150072999995,None,b,1.633770800000093,0,0,0.5,461.5240702000001,None,None,461.5240702000001,None,,,,,,,,,,,,,,,,,,,,,,CBC_1109,001,3,2,6,14,0.95,2024-06-07_14h04.19.059,MSI_AV_v3,2022.1.1,59.732410746452715,
4,0,4,0,,,,,,,,,,1,3,1,r,27,1,3.02234236141277,2.10421507306074,None,463.3325493000002,None,465.47314899999947,None,465.47314899999947,None,465.4835764500003,None,None,,465.47314899999947,None,['r'],467.43377559999954,None,r,2.2341831000003367,1,1,0.6,470.4469653999995,None,None,470.4469653999995,None,[0.2341831000003367],,,,,,,,,,,,,,,,,,,,,CBC_1109,001,3,2,6,14,0.95,2024-06-07_14h04.19.059,MSI_AV_v3,2022.1.1,59.732410746452715,
5,0,5,0,,,,,,,,,,0,2,3,b,63,1,3.6438386551209,2.96653053743745,None,472.2501021999997,None,475.2392546000001,None,475.2392546000001,None,475.24978442000025,None,None,,475.2392546000001,None,['r'],477.21699290000015,None,r,2.401376600000731,0,0,0.5,480.85326819999955,None,None,480.85326819999955,None,[0.40137660000073083],,,,,,,,,,,,,,,,,,,,,CBC_1109,001,3,2,6,14,0.95,2024-06-07_14h04.19.059,MSI_AV_v3,2022.1.1,59.732410746452715,
6,0,6,0,,,,,,,,,,3,2,3,r,63,1,3.7500315165247198,0.80788063606262,None,482.66716629999974,None,483.48858969999947,None,483.48858969999947,None,483.4999774200001,None,None,,483.48858969999947,None,['r'],485.4667234999997,None,r,2.3813323000003948,1,1,0.5714285714285714,489.2053863000001,None,None,489.2053863000001,None,[0.38133230000039475],,,,,,,,,,,,,,,,,,,,,CBC_1109,001,3,2,6,14,0.95,2024-06-07_14h04.19.059,MSI_AV_v3,2022.1.1,59.732410746452715,
7,0,7,0,,,,,,,,,,1,1,0,b,63,1,3.31929419319838,1.52290599571961,None,491.0168785999995,None,492.55477809999957,None,492.55477809999957,None,492.56643672000024,None,None,,492.55477809999957,None,['b'],494.5336765000002,None,b,3.2803296000001865,1,1,0.625,497.84938069999953,None,None,497.84938069999953,None,[1.2803296000001865],,,,,,,,,,,,,,,,,,,,,CBC_1109,001,3,2,6,14,0.95,2024-06-07_14h04.19.059,MSI_AV_v3,2022.1.1,59.732410746452715,
8,0,8,0,,,,,,,,,,2,0,2,b,27,1,4.77034425507967,1.64421109900286,None,499.6506194000003,None,501.3056692,None,501.3056692,None,501.3165774200002,None,None,,501.3056692,None,['b'],503.28353739999966,None,b,2.4662654000003386,1,1,0.6666666666666666,508.04227339999943,None,None,508.04227339999943,None,[0.46626540000033856],,,,,,,,,,,,,,,,,,,,,CBC_1109,001,3,2,6,14,0.95,2024-06-07_14h04.19.059,MSI_AV_v3,2022.1.1,59.732410746452715,
9,0,9,0,,,,,,,,,,3,0,3,r,9,1,4.46924002178158,0.917519910446003,None,509.85067379999964,None,510.79158860000007,None,510.79158860000007,None,510.80023012,None,['r'],[1.5265292000003683],510.79158860000007,None,None,512.7898101000001,None,r,1.5265292000003683,1,1,0.7,517.2495667000003,None,None,517.2495667000003,None,,,,,,,,,,,,,,,,,,,,,,CBC_1109,001,3,2,6,14,0.95,2024-06-07_14h04.19.059,MSI_AV_v3,2022.1.1,59.732410746452715,
10,0,10,0,,,,,,,,,,0,3,2,r,63,1,4.61004669244928,3.40155979865722,None,519.0500041999994,None,522.4717060000003,None,522.4717060000003,None,522.4667388899999,None,None,,522.4717060000003,None,['b'],524.4504093999994,None,b,2.8610575000002427,0,0,0.6363636363636364,529.0509937999996,None,None,529.0509937999996,None,[0.8610575000002427],,,,,,,,,,,,,,,,,,,,,CBC_1109,001,3,2,6,14,0.95,2024-06-07_14h04.19.059,MSI_AV_v3,2022.1.1,59.732410746452715,
11,0,11,0,,,,,,,,,,1,1,0,b,63,1,4.72585056748869,3.1424449555106,None,530.8509681999994,None,534.0017526000001,None,534.0017526000001,None,534.0002500900001,None,['b'],[1.9307131999994454],534.0017526000001,None,None,535.9984107,None,b,1.9307131999994454,1,1,0.6666666666666666,540.7244260999996,None,None,540.7244260999996,None,,,,,,,,,,,,,,,,,,,,,,CBC_1109,001,3,2,6,14,0.95,2024-06-07_14h04.19.059,MSI_AV_v3,2022.1.1,59.732410746452715,
12,0,12,0,,,,,,,,,,3,3,2,b,63,1,4.82531807167306,0.974903167432984,None,542.5327380999997,None,543.5222600999996,None,543.5222600999996,None,543.5333301200004,None,None,,543.5222600999996,None,['b'],545.5003844000003,None,b,2.6570552000002863,1,1,0.6923076923076923,550.3212666,None,None,550.3212666,None,[0.6570552000002863],,,,,,,,,,,,,,,,,,,,,CBC_1109,001,3,2,6,14,0.95,2024-06-07_14h04.19.059,MSI_AV_v3,2022.1.1,59.732410746452715,
13,0,13,0,,,,,,,,,,0,3,2,r,63,1,2.592312596923728,2.6299100644723,None,552.1333550999998,None,554.7742349999999,None,554.7742349999999,None,554.7836563200004,None,None,,554.7742349999999,None,['r'],556.7504423,None,r,3.8488649000000805,1,1,0.7142857142857143,559.3329911000001,None,None,559.3329911000001,None,[1.8488649000000805],,,,,,,,,,,,,,,,,,,,,CBC_1109,001,3,2,6,14,0.95,2024-06-07_14h04.19.059,MSI_AV_v3,2022.1.1,59.732410746452715,
14,0,14,0,,,,,,,,,,1,1,3,b,27,1,2.294664843639333,1.27538462653558,None,561.1338126999999,None,562.4229845999998,None,562.4229845999998,None,562.4334345200001,None,None,,562.4229845999998,None,['b'],564.4008747999997,None,b,2.763554799999838,1,1,0.7333333333333333,566.6912179999999,None,None,566.6912179999999,None,[0.763554799999838],,,,,,,,,,,,,,,,,,,,,CBC_1109,001,3,2,6,14,0.95,2024-06-07_14h04.19.059,MSI_AV_v3,2022.1.1,59.732410746452715,
15,0,15,0,,,,,,,,,,2,3,0,r,9,1,2.678526077912375,3.06992456303453,None,568.5006175999997,None,571.5899528,None,571.5899528,None,571.60003922,None,['r'],[1.5107840999999098],571.5899528,None,None,573.5807898000003,None,r,1.5107840999999098,1,1,0.75,576.2583628000002,None,None,576.2583628000002,None,,,,,,,,,,,,,,,,,,,,,,CBC_1109,001,3,2,6,14,0.95,2024-06-07_14h04.19.059,MSI_AV_v3,2022.1.1,59.732410746452715,
16,0,16,0,,,,,,,,,,3,3,2,b,63,1,2.6391747348430608,2.09887870490381,None,578.0669640999995,None,580.1878394999994,None,580.1878394999994,None,580.1835071899997,None,None,,580.1878394999994,None,['b'],582.1670532999997,None,b,2.8710166999999274,1,1,0.7647058823529411,584.8043638999998,None,None,584.8043638999998,None,[0.8710166999999274],,,,,,,,,,,,,,,,,,,,,CBC_1109,001,3,2,6,14,0.95,2024-06-07_14h04.19.059,MSI_AV_v3,2022.1.1,59.732410746452715,
17,0,17,0,,,,,,,,,,0,2,0,b,27,1,2.693348633324513,1.95130344756745,None,586.6173846000002,None,588.5871565999996,None,588.5871565999996,None,588.58353129,None,None,,588.5871565999996,None,['b'],590.5673084999999,None,b,3.5602718999998615,1,1,0.7777777777777778,593.2558133000002,None,None,593.2558133000002,None,[1.5602718999998615],,,,,,,,,,,,,,,,,,,,,CBC_1109,001,3,2,6,14,0.95,2024-06-07_14h04.19.059,MSI_AV_v3,2022.1.1,59.732410746452715,
18,0,18,0,,,,,,,,,,2,1,0,r,63,1,2.7134565917469198,3.4543169006169,None,595.0672505000002,None,598.5354059000001,None,598.5354059000001,None,598.53361039,None,['r'],[1.7052797999995164],598.5354059000001,None,None,600.5302849,None,r,1.7052797999995164,1,1,0.7894736842105263,603.2388080000001,None,None,603.2388080000001,None,,,,,,,,,,,,,,,,,,,,,,CBC_1109,001,3,2,6,14,0.95,2024-06-07_14h04.19.059,MSI_AV_v3,2022.1.1,59.732410746452715,
19,0,19,0,,,,,,,,,,1,0,1,r,63,0,2.517541937862754,1.94858485820231,None,605.0504691999995,None,607.0182576999996,None,607.0182576999996,None,607.0171143899998,None,None,,607.0182576999996,None,['r'],609.0004258999998,None,r,3.244763600000624,1,0,0.8,611.5157007999996,None,None,611.5157007999996,None,[1.2447636000006241],,,,,,,,,,,,,,,,,,,,,CBC_1109,001,3,2,6,14,0.95,2024-06-07_14h04.19.059,MSI_AV_v3,2022.1.1,59.732410746452715,
20,0,20,0,,,,,,,,,,3,1,3,r,27,1,3.68371079902891,1.78643585472448,None,613.3171479000002,None,615.1189162000001,None,615.1189162000001,None,615.11684789,None,None,,615.1189162000001,None,['r'],617.1004023999994,None,r,2.0194052000006195,1,1,0.8095238095238095,620.7675553999998,None,None,620.7675553999998,None,[0.019405200000619516],,,,,,,,,,,,,,,,,,,,,CBC_1109,001,3,2,6,14,0.95,2024-06-07_14h04.19.059,MSI_AV_v3,2022.1.1,59.732410746452715,
21,0,21,0,,,,,,,,,,0,2,3,b,63,1,2.342239579230602,1.36309078069689,None,622.5673612,None,623.9561088999999,None,623.9561088999999,None,623.9671934200002,None,None,,623.9561088999999,None,['b'],625.9343723000002,None,b,2.2730805000001055,1,1,0.8181818181818182,628.2668013000002,None,None,628.2668013000002,None,[0.27308050000010553],,,,,,,,,,,,,,,,,,,,,CBC_1109,001,3,2,6,14,0.95,2024-06-07_14h04.19.059,MSI_AV_v3,2022.1.1,59.732410746452715,
22,0,22,0,,,,,,,,,,1,1,0,b,63,1,3.3728785608729996,2.40378712856304,None,630.0672722999998,None,632.4838975000002,None,632.4838975000002,None,632.48338359,None,['b'],[1.7318294000006063],632.4838975000002,None,None,634.4844866000003,None,b,1.7318294000006063,1,1,0.8260869565217391,637.8583772000002,None,None,637.8583772000002,None,,,,,,,,,,,,,,,,,,,,,,CBC_1109,001,3,2,6,14,0.95,2024-06-07_14h04.19.059,MSI_AV_v3,2022.1.1,59.732410746452715,
23,0,23,0,,,,,,,,,,2,2,0,r,27,1,4.11514536789087,1.25817747924478,None,639.6675165999995,None,640.9389818,None,640.9389818,None,640.9505772199997,None,None,,640.9389818,None,['r'],642.9175402000001,None,r,3.113788700000441,1,1,0.8333333333333334,647.0260115000001,None,None,647.0260115000001,None,[1.1137887000004412],,,,,,,,,,,,,,,,,,,,,CBC_1109,001,3,2,6,14,0.95,2024-06-07_14h04.19.059,MSI_AV_v3,2022.1.1,59.732410746452715,
24,0,24,0,,,,,,,,,,3,2,3,r,63,1,4.7533305109883095,0.761758675042088,None,648.834398,None,649.6085516000003,None,649.6085516000003,None,649.6170997200003,None,None,,649.6085516000003,None,['r'],651.5843164999997,None,r,3.21781910000027,1,1,0.84,656.3354995999998,None,None,656.3354995999998,None,[1.2178191000002698],,,,,,,,,,,,,,,,,,,,,CBC_1109,001,3,2,6,14,0.95,2024-06-07_14h04.19.059,MSI_AV_v3,2022.1.1,59.732410746452715,
25,0,25,0,,,,,,,,,,0,2,0,b,27,1,4.40017271499661,1.90743690794447,None,658.1507344000001,None,660.0680664000001,None,660.0680664000001,None,660.06694119,None,None,,660.0680664000001,None,['b'],662.0508485,None,b,4.444893200000479,1,1,0.8461538461538461,666.4357044999997,None,None,666.4357044999997,None,[2.444893200000479],,,,,,,,,,,,,,,,,,,,,CBC_1109,001,3,2,6,14,0.95,2024-06-07_14h04.19.059,MSI_AV_v3,2022.1.1,59.732410746452715,
26,0,26,0,,,,,,,,,,1,1,0,b,63,1,2.792365600763554,1.1243895841892,None,668.2506968999996,None,669.3868622,None,669.3868622,None,669.3835960899997,None,None,,669.3868622,None,['b'],671.3671815999996,None,b,3.3014585000000807,1,1,0.8518518518518519,674.1560156999994,None,None,674.1560156999994,None,[1.3014585000000807],,,,,,,,,,,,,,,,,,,,,CBC_1109,001,3,2,6,14,0.95,2024-06-07_14h04.19.059,MSI_AV_v3,2022.1.1,59.732410746452715,
27,0,27,0,,,,,,,,,,2,0,1,b,63,1,2.92731383428727,2.15533949826702,None,675.9675951999998,None,678.1361300999997,None,678.1361300999997,None,678.1336748899995,None,['b'],[1.6931640000002517],678.1361300999997,None,None,680.1365906000001,None,b,1.6931640000002517,1,1,0.8571428571428571,683.0750378000002,None,None,683.0750378000002,None,,,,,,,,,,,,,,,,,,,,,,CBC_1109,001,3,2,6,14,0.95,2024-06-07_14h04.19.059,MSI_AV_v3,2022.1.1,59.732410746452715,
28,0,28,0,,,,,,,,,,0,3,2,r,63,1,2.526044641065533,1.38289892513751,None,684.8844303999995,None,686.2856308,None,686.2856308,None,686.2836206900002,None,None,,686.2856308,None,['b'],688.2673414000001,None,b,3.359485300000415,0,0,0.8275862068965517,690.7897192999999,None,None,690.7897192999999,None,[1.359485300000415],,,,,,,,,,,,,,,,,,,,,CBC_1109,001,3,2,6,14,0.95,2024-06-07_14h04.19.059,MSI_AV_v3,2022.1.1,59.732410746452715,
29,0,29,0,,,,,,,,,,3,3,1,b,27,1,2.666404967794728,1.53243550275999,None,692.6009607999995,None,694.1560755,None,694.1560755,None,694.1670628199996,None,None,,694.1560755,None,['r'],696.1340614000001,None,r,2.3514695000003485,0,0,0.8,698.7818685000002,None,None,698.7818685000002,None,[0.3514695000003485],,,,,,,,,,,,,,,,,,,,,CBC_1109,001,3,2,6,14,0.95,2024-06-07_14h04.19.059,MSI_AV_v3,2022.1.1,59.732410746452715,
30,0,30,0,,,,,,,,,,2,1,0,r,63,1,2.82320408183943,1.12425433982333,None,700.5843576999996,None,701.7204224999996,None,701.7204224999996,None,701.71713569,None,['r'],[1.6910438000004433],701.7204224999996,None,None,703.7202658999995,None,r,1.6910438000004433,1,1,0.8064516129032258,706.5564947000003,None,None,706.5564947000003,None,,,,,,,,,,,,,,,,,,,,,,CBC_1109,001,3,2,6,14,0.95,2024-06-07_14h04.19.059,MSI_AV_v3,2022.1.1,59.732410746452715,
31,0,31,0,,,,,,,,,,3,3,2,b,63,1,2.433630701072358,1.25920145784721,None,708.3675379999995,None,709.6372099999999,None,709.6372099999999,None,709.6340138899997,None,None,,709.6372099999999,None,['b'],711.6174073000002,None,b,2.5026624000001902,1,1,0.8125,714.0403538,None,None,714.0403538,None,[0.5026624000001902],,,,,,,,,,,,,,,,,,,,,CBC_1109,001,3,2,6,14,0.95,2024-06-07_14h04.19.059,MSI_AV_v3,2022.1.1,59.732410746452715,
32,0,32,0,,,,,,,,,,1,2,1,r,9,1,3.35133458220192,1.53122835510861,None,715.8511968000003,None,717.4063995999995,None,717.4063995999995,None,717.4171253199999,None,['b'],[1.7105568000006315],717.4063995999995,None,None,719.3987668,None,b,1.7105568000006315,0,0,0.7878787878787878,722.7563868999996,None,None,722.7563868999996,None,,,,,,,,,,,,,,,,,,,,,,CBC_1109,001,3,2,6,14,0.95,2024-06-07_14h04.19.059,MSI_AV_v3,2022.1.1,59.732410746452715,
33,0,33,0,,,,,,,,,,2,1,0,r,63,1,3.2062024266105302,3.24569326556923,None,724.5674142999997,None,727.8341279999995,None,727.8341279999995,None,727.8340601900001,None,['r'],[1.5525353000002724],727.8341279999995,None,None,729.8327108000003,None,r,1.5525353000002724,1,1,0.7941176470588235,733.0352989000003,None,None,733.0352989000003,None,,,,,,,,,,,,,,,,,,,,,,CBC_1109,001,3,2,6,14,0.95,2024-06-07_14h04.19.059,MSI_AV_v3,2022.1.1,59.732410746452715,
34,0,34,0,,,,,,,,,,0,2,1,b,9,1,3.73326136168326,0.77703640172831,None,734.8514391999997,None,735.6375880999994,None,735.6375880999994,None,735.6340132899996,None,None,,735.6375880999994,None,['b'],737.6177246999996,None,b,3.179483799999616,1,1,0.8,741.3382129000001,None,None,741.3382129000001,None,[1.1794837999996162],,,,,,,,,,,,,,,,,,,,,CBC_1109,001,3,2,6,14,0.95,2024-06-07_14h04.19.059,MSI_AV_v3,2022.1.1,59.732410746452715,
35,0,35,0,,,,,,,,,,1,1,0,b,63,1,4.12485271162806,2.49839527409216,None,743.1509146999997,None,745.6689135999995,None,745.6689135999995,None,745.6673956899996,None,['b'],[1.4535574000001361],745.6689135999995,None,None,747.6700989000001,None,b,1.4535574000001361,1,1,0.8055555555555556,751.8080090000003,None,None,751.8080090000003,None,,,,,,,,,,,,,,,,,,,,,,CBC_1109,001,3,2,6,14,0.95,2024-06-07_14h04.19.059,MSI_AV_v3,2022.1.1,59.732410746452715,
36,0,36,0,,,,,,,,,,2,0,1,b,63,0,3.71372710086949,0.952147612306987,None,753.6175431000001,None,754.5915469000001,None,754.5915469000001,None,754.6007300199996,None,None,,754.5915469000001,None,['b'],756.5676248999998,None,b,2.389976399999796,1,0,0.8108108108108109,760.2659433999997,None,None,760.2659433999997,None,[0.38997639999979583],,,,,,,,,,,,,,,,,,,,,CBC_1109,001,3,2,6,14,0.95,2024-06-07_14h04.19.059,MSI_AV_v3,2022.1.1,59.732410746452715,
37,0,37,0,,,,,,,,,,1,0,1,r,63,1,4.01714354611405,3.33124983260532,None,762.0674681999999,None,765.4213395999996,None,765.4213395999996,None,765.4172125899996,None,['r'],[1.7116550999999163],765.4213395999996,None,None,767.4211386999996,None,r,1.7116550999999163,1,1,0.8157894736842105,771.4376710999995,None,None,771.4376710999995,None,,,,,,,,,,,,,,,,,,,,,,CBC_1109,001,3,2,6,14,0.95,2024-06-07_14h04.19.059,MSI_AV_v3,2022.1.1,59.732410746452715,
38,0,38,0,,,,,,,,,,3,1,3,r,27,1,4.53337421950507,1.34668860557497,None,773.2509253999997,None,774.6194970999995,None,774.6194970999995,None,774.61740079,None,None,,774.6194970999995,None,['b'],776.6009705999995,None,b,3.8330953999993653,0,0,0.7948717948717948,781.1340529999998,None,None,781.1340529999998,None,[1.8330953999993653],,,,,,,,,,,,,,,,,,,,,CBC_1109,001,3,2,6,14,0.95,2024-06-07_14h04.19.059,MSI_AV_v3,2022.1.1,59.732410746452715,
39,0,39,0,,,,,,,,,,0,3,2,r,63,1,3.76873691643126,1.96568735158996,None,782.9347456999994,None,784.9251502999996,None,784.9251502999996,None,784.9342886199998,None,None,,784.9251502999996,None,['r'],786.9014345999994,None,r,3.167111200000363,1,1,0.8,790.6618818999996,None,None,790.6618818999996,None,[1.1671112000003632],,,,,,,,,,,,,,,,,,,,,CBC_1109,001,3,2,6,14,0.95,2024-06-07_14h04.19.059,MSI_AV_v3,2022.1.1,59.732410746452715,
40,0,40,0,,,,,,,,,,2,0,2,b,27,1,2.91303524001082,2.22427187882546,None,792.4677371999996,None,794.7062053,None,794.7062053,None,794.7173589199998,None,['b'],[1.3065088000003016],794.7062053,None,None,796.6998025000003,None,b,1.3065088000003016,1,1,0.8048780487804879,799.6249693999998,None,None,799.6249693999998,None,,,,,,,,,,,,,,,,,,,,,,CBC_1109,001,3,2,6,14,0.95,2024-06-07_14h04.19.059,MSI_AV_v3,2022.1.1,59.732410746452715,
41,0,41,0,,,,,,,,,,3,2,3,r,63,1,4.190022164497369,1.18065738546375,None,801.4343209999997,None,802.6416902999999,None,802.6416902999999,None,802.6510400200001,None,None,,802.6416902999999,None,['b'],804.6177600999999,None,b,3.7304966000001514,0,0,0.7857142857142857,808.7978661999996,None,None,808.7978661999996,None,[1.7304966000001514],,,,,,,,,,,,,,,,,,,,,CBC_1109,001,3,2,6,14,0.95,2024-06-07_14h04.19.059,MSI_AV_v3,2022.1.1,59.732410746452715,
42,0,42,0,,,,,,,,,,1,1,3,b,27,1,4.77723667052879,1.60731937853708,None,810.6013480000001,None,812.2190823999999,None,812.2190823999999,None,812.2173194899998,None,['r'],[1.7533558000004632],812.2190823999999,None,None,814.2212118999996,None,r,1.7533558000004632,0,0,0.7674418604651163,819.0048572999995,None,None,819.0048572999995,None,,,,,,,,,,,,,,,,,,,,,,CBC_1109,001,3,2,6,14,0.95,2024-06-07_14h04.19.059,MSI_AV_v3,2022.1.1,59.732410746452715,
43,0,43,0,,,,,,,,,,0,3,2,r,63,1,2.2759877950103027,0.979776149765883,None,820.8180110000003,None,821.8210996999996,None,821.8210996999996,None,821.8177126900001,None,None,,821.8210996999996,None,None,823.8014303,None,[],[],0,3,0.75,826.0516565999997,None,None,826.0516565999997,None,,,,,,,,,,,,,,,,,,,,,,CBC_1109,001,3,2,6,14,0.95,2024-06-07_14h04.19.059,MSI_AV_v3,2022.1.1,59.732410746452715,
,,,,,,,,,,,,,,,,,,,,,,,,,,,,,,,,,,,,,,,,,,,,,,,,None,827.8512275000003,None,,,,,,,,,,,,,,,,,,CBC_1109,001,3,2,6,14,0.95,2024-06-07_14h04.19.059,MSI_AV_v3,2022.1.1,59.732410746452715,
,,,,,,,,,,,,,,,,,,,,,,,,,,,,,,,,,,,,,,,,,,,,,,,,,,,832.8515658999995,None,None,832.8515658999995,None,,,,,,,,,,,,,CBC_1109,001,3,2,6,14,0.95,2024-06-07_14h04.19.059,MSI_AV_v3,2022.1.1,59.732410746452715,
,,,,,,,,,,,,,,,,,,,,,,,,,,,,,,,,,,,,,,,,,,,,,,,,,,,,,,,,r,b,hard,"[0, 1, 2, 3]","[2, 1, 0, 3]",0.6363636363636364,1.0,0.7272727272727273,0.6363636363636364,31,2,11,,,,,,,,,,,,
