trials_runs.thisRepN;trials_runs.thisTrialN;trials_runs.thisN;trials_runs.thisIndex;standbild_start.started;standbild_start.stopped;trigger.keys;trigger.rt;trigger.started;trigger.stopped;keys_2.keys;keys_2.started;keys_2.stopped;trials_runs.tactile_stim;trials_runs.visual_stim_left;trials_runs.visual_stim_right;trials_runs.correctKey;trials_runs.presentationFrequncy;trials_runs.FBaccuracy;trials_runs.ISI_s;trials_runs.ITI_s;keys_3.keys;keys_3.started;keys_3.stopped;image_stim_left.started;image_stim_right.started;tactile.started;response_4.keys;allKeys.keys;response_5.keys;response_5.rt;response_5.started;response_5.stopped;response_runs.keys;response_runs.rt;trials_runs.correct_answer;trials_runs.feedback_given;trials_runs.running_mean;feedback_6.stopped;feedback_6.started;keys_6.keys;keys_6.started;keys_6.stopped;response_4.rt;allKeys.rt;keys_6.rt;keys_7.keys;keys_7.started;keys_7.stopped;standbild_end.started;standbild_end.stopped;Stop_exp.keys;Stop_exp.started;Stop_exp.stopped;trials_runs.rightKey;trials_runs.leftKey;ts_difficulty;visualPair;tactilePair;trials_runs.mean_acc_1stFourth;trials_runs.mean_acc_2ndFourth;trials_runs.mean_acc_3rdFourth;trials_runs.mean_acc_4thFourth;nbCorrect;nbOmissions;nbIncorrect;participant;session;visual set [1-6];tactile set [1-3];trial structure [0-3 / 4-7];pairing [0-23];prob Feedback;date;expName;psychopyVersion;frameRate
;;;;91.3038782;None;t;71.6810689;91.3038782;None;;;;;;;;;;;;;;;;;;;;;;;;;;;;;;;;;;;;;;;;;;;;;;;;;;;;;;;;;CBC_1020;4;5;1;7;19;0.95;2023-06-28_16h55.43.253;MSI_TV_v3;01.01.2022;59.89272016
;;;;;;;;;;None;163.0083655;None;;;;;;;;;;;;;;;;;;;;;;;;;;;;;;;;;;;;;;;;;;;;;;;;;;;;;;CBC_1020;4;5;1;7;19;0.95;2023-06-28_16h55.43.253;MSI_TV_v3;01.01.2022;59.89272016
0;0;0;0;;;;;;;;;;2;2;0;b;27;1;4.400172715;0.952147612;None;163.2230257;None;164.1564267;164.1564267;164.1731656;None;[];['b'];[0.5586590000002616];166.1606135;None;b;2.558659;1;1;1;None;170.6411269;None;170.6411269;None;;;;;;;;;;;;;;;;;;;;;;;;CBC_1020;4;5;1;7;19;0.95;2023-06-28_16h55.43.253;MSI_TV_v3;01.01.2022;59.89272016
1;0;1;0;;;;;;;;;;1;3;2;b;63;1;3.683710799;1.382898925;None;172.3732597;None;173.7401743;173.7401743;173.7567051;None;[];['b'];[0.4631589000000531];175.7601775;None;b;2.4631589;1;1;1;None;179.4318111;None;179.4318111;None;;;;;;;;;;;;;;;;;;;;;;;;CBC_1020;4;5;1;7;19;0.95;2023-06-28_16h55.43.253;MSI_TV_v3;01.01.2022;59.89272016
2;0;2;0;;;;;;;;;;3;1;0;z;63;1;2.433630701;1.275384627;None;181.2396989;None;182.4899656;182.4899656;182.5067095;None;[];['b'];[1.4533513000005769];184.5116114;None;b;3.4533513;0;0;0.666666667;None;186.9686727;None;186.9686727;None;;;;;;;;;;;;;;;;;;;;;;;;CBC_1020;4;5;1;7;19;0.95;2023-06-28_16h55.43.253;MSI_TV_v3;01.01.2022;59.89272016
3;0;3;0;;;;;;;;;;2;2;3;b;63;1;2.927313834;1.346688606;None;188.7569973;None;190.0899054;190.0899054;190.1065642;None;[];['b'];[0.35260120000020834];192.1123422;None;b;2.3526012;1;1;0.75;None;195.0444502;None;195.0444502;None;;;;;;;;;;;;;;;;;;;;;;;;CBC_1020;4;5;1;7;19;0.95;2023-06-28_16h55.43.253;MSI_TV_v3;01.01.2022;59.89272016
4;0;4;0;;;;;;;;;;3;0;2;b;27;1;4.52047235;2.098878705;None;196.8569207;None;198.9403131;198.9403131;198.9568445;None;[];['b'];[0.385939399999188];200.9389424;None;b;2.3859394;1;1;0.8;None;205.4638561;None;205.4638561;None;;;;;;;;;;;;;;;;;;;;;;;;CBC_1020;4;5;1;7;19;0.95;2023-06-28_16h55.43.253;MSI_TV_v3;01.01.2022;59.89272016
5;0;5;0;;;;;;;;;;1;2;3;z;63;1;4.017143546;1.532435503;None;207.2734615;None;208.7903243;208.7903243;208.8069001;None;[];['z'];[0.9740084999993996];210.7936902;None;z;2.9740085;1;1;0.833333333;None;214.8083118;None;214.8083118;None;;;;;;;;;;;;;;;;;;;;;;;;CBC_1020;4;5;1;7;19;0.95;2023-06-28_16h55.43.253;MSI_TV_v3;01.01.2022;59.89272016
6;0;6;0;;;;;;;;;;1;3;2;b;63;1;4.770344255;2.629910064;None;216.6236971;None;219.239939;219.239939;219.2565824;None;[];['b'];[0.5277643999997963];221.2580885;None;b;2.5277644;1;1;0.857142857;None;226.0258724;None;226.0258724;None;;;;;;;;;;;;;;;;;;;;;;;;CBC_1020;4;5;1;7;19;0.95;2023-06-28_16h55.43.253;MSI_TV_v3;01.01.2022;59.89272016
7;0;7;0;;;;;;;;;;0;3;1;z;27;1;2.823204082;2.104215073;None;227.8402492;None;229.9237379;229.9237379;229.9403729;None;[];['z'];[0.996384099998977];231.9271606;None;z;2.9963841;1;1;0.875;None;234.7539777;None;234.7539777;None;;;;;;;;;;;;;;;;;;;;;;;;CBC_1020;4;5;1;7;19;0.95;2023-06-28_16h55.43.253;MSI_TV_v3;01.01.2022;59.89272016
8;0;8;0;;;;;;;;;;1;0;3;z;9;1;4.753330511;3.069924563;None;236.5558166;None;239.6067476;239.6067476;239.6234331;None;[];['b'];[0.4315681999996741];241.604409;None;b;2.4315682;0;0;0.777777778;None;246.3518871;None;246.3518871;None;;;;;;;;;;;;;;;;;;;;;;;;CBC_1020;4;5;1;7;19;0.95;2023-06-28_16h55.43.253;MSI_TV_v3;01.01.2022;59.89272016
9;0;9;0;;;;;;;;;;0;1;0;b;63;1;4.190022164;1.43470441;None;248.1567137;None;249.5725908;249.5725908;249.589626;None;[];['b'];[0.9480895999986387];251.5693915;None;b;2.9480896;1;1;0.8;None;255.7711228;None;255.7711228;None;;;;;;;;;;;;;;;;;;;;;;;;CBC_1020;4;5;1;7;19;0.95;2023-06-28_16h55.43.253;MSI_TV_v3;01.01.2022;59.89272016
10;0;10;0;;;;;;;;;;3;1;0;z;63;1;2.592312597;2.155339498;None;257.5737835;None;259.7061212;259.7061212;259.7224652;None;[];['b'];[1.774376299999858];261.7009397;None;b;3.7743763;0;0;0.727272727;None;264.2969091;None;264.2969091;None;;;;;;;;;;;;;;;;;;;;;;;;CBC_1020;4;5;1;7;19;0.95;2023-06-28_16h55.43.253;MSI_TV_v3;01.01.2022;59.89272016
11;0;11;0;;;;;;;;;;0;0;1;z;63;1;4.825318072;0.91751991;None;266.1067732;None;267.0066907;267.0066907;267.0232113;None;[];['z'];[2.8824813999999606];269.0077447;None;z;4.8824814;1;1;0.75;None;273.8228901;None;273.8228901;None;;;;;;;;;;;;;;;;;;;;;;;;CBC_1020;4;5;1;7;19;0.95;2023-06-28_16h55.43.253;MSI_TV_v3;01.01.2022;59.89272016
12;0;12;0;;;;;;;;;;1;2;3;z;63;1;3.750031517;2.783469325;None;275.6235844;None;278.3902294;278.3902294;278.4074367;None;[];['b'];[0.3487545999996655];280.3941164;None;b;2.3487546;0;0;0.692307692;None;284.1449779;None;284.1449779;None;;;;;;;;;;;;;;;;;;;;;;;;CBC_1020;4;5;1;7;19;0.95;2023-06-28_16h55.43.253;MSI_TV_v3;01.01.2022;59.89272016
13;0;13;0;;;;;;;;;;0;1;3;b;27;1;2.275987795;0.807880636;None;285.9570338;None;286.7406197;286.7406197;286.7571189;None;[];['b'];[0.8460023999996338];288.7442074;None;b;2.8460024;1;1;0.714285714;None;291.0083839;None;291.0083839;None;;;;;;;;;;;;;;;;;;;;;;;;CBC_1020;4;5;1;7;19;0.95;2023-06-28_16h55.43.253;MSI_TV_v3;01.01.2022;59.89272016
14;0;14;0;;;;;;;;;;2;3;2;z;63;1;2.342239579;1.965687352;None;292.8225796;None;294.7571192;294.7571192;294.7739113;None;[];['b'];[0.3485298999985389];296.7594519;None;b;2.3485299;0;0;0.666666667;None;299.0965379;None;299.0965379;None;;;;;;;;;;;;;;;;;;;;;;;;CBC_1020;4;5;1;7;19;0.95;2023-06-28_16h55.43.253;MSI_TV_v3;01.01.2022;59.89272016
15;0;15;0;;;;;;;;;;2;2;0;b;27;1;4.725850567;1.12425434;None;300.9070713;None;302.0070207;302.0070207;302.0233188;None;[];['b'];[0.5978838999981235];304.0084085;None;b;2.5978839;1;1;0.6875;None;308.7202866;None;308.7202866;None;;;;;;;;;;;;;;;;;;;;;;;;CBC_1020;4;5;1;7;19;0.95;2023-06-28_16h55.43.253;MSI_TV_v3;01.01.2022;59.89272016
16;0;16;0;;;;;;;;;;3;0;3;b;9;1;2.517541938;3.142444956;None;310.5237065;None;313.6402917;313.6402917;313.6570282;None;[];['b'];[0.5732742999989568];315.6436029;None;b;2.5732743;1;1;0.705882353;None;318.1556809;None;318.1556809;None;;;;;;;;;;;;;;;;;;;;;;;;CBC_1020;4;5;1;7;19;0.95;2023-06-28_16h55.43.253;MSI_TV_v3;01.01.2022;59.89272016
17;0;17;0;;;;;;;;;;2;2;3;b;63;0;3.351334582;1.363090781;None;319.957286;None;321.3059344;321.3059344;321.3227069;None;[];['z'];[0.44265529999938735];323.2998005;None;z;2.4426553;0;1;0.666666667;None;326.6531911;None;326.6531911;None;;;;;;;;;;;;;;;;;;;;;;;;CBC_1020;4;5;1;7;19;0.95;2023-06-28_16h55.43.253;MSI_TV_v3;01.01.2022;59.89272016
18;0;18;0;;;;;;;;;;3;1;0;z;63;1;4.469240022;1.907436908;None;328.4570009;None;330.3403604;330.3403604;330.3569187;None;[];['z'];[0.5233822999980475];332.343825;None;z;2.5233823;1;1;0.684210526;None;336.8086228;None;336.8086228;None;;;;;;;;;;;;;;;;;;;;;;;;CBC_1020;4;5;1;7;19;0.95;2023-06-28_16h55.43.253;MSI_TV_v3;01.01.2022;59.89272016
19;0;19;0;;;;;;;;;;1;3;2;b;63;1;4.124852712;3.454316901;None;338.6237554;None;342.0570014;342.0570014;342.0737995;None;[];['z'];[0.5000738999988243];344.0608876;None;z;2.5000739;0;0;0.65;None;348.1877758;None;348.1877758;None;;;;;;;;;;;;;;;;;;;;;;;;CBC_1020;4;5;1;7;19;0.95;2023-06-28_16h55.43.253;MSI_TV_v3;01.01.2022;59.89272016
20;0;20;0;;;;;;;;;;2;3;2;z;63;1;3.768736916;2.403787129;None;350.0043871;None;352.3737042;352.3737042;352.3907872;b;['b'];None;;354.4153915;None;b;1.8948564;0;0;0.619047619;None;358.1836193;None;358.1836193;None;1.8948564;[1.894856399998389];;;;;;;;;;;;;;;;;;;;;;CBC_1020;4;5;1;7;19;0.95;2023-06-28_16h55.43.253;MSI_TV_v3;01.01.2022;59.89272016
21;0;21;0;;;;;;;;;;1;3;1;b;27;1;3.206202427;2.224271879;None;359.9904632;None;362.1903279;362.1903279;362.2075636;None;[];['b'];[0.4511490999993839];364.1931825;None;b;2.4511491;1;1;0.636363636;None;367.392001;None;367.392001;None;;;;;;;;;;;;;;;;;;;;;;;;CBC_1020;4;5;1;7;19;0.95;2023-06-28_16h55.43.253;MSI_TV_v3;01.01.2022;59.89272016
22;0;22;0;;;;;;;;;;3;0;1;b;63;1;3.022342361;1.531228355;None;369.2071793;None;370.7238082;370.7238082;370.7405066;b;['b'];None;;372.7640946;None;b;1.8392794;1;1;0.652173913;None;375.7995124;None;375.7995124;None;1.8392794;[1.8392793999992136];;;;;;;;;;;;;;;;;;;;;;CBC_1020;4;5;1;7;19;0.95;2023-06-28_16h55.43.253;MSI_TV_v3;01.01.2022;59.89272016
23;0;23;0;;;;;;;;;;2;3;2;z;63;1;2.792365601;0.97977615;None;377.590952;None;378.5571593;378.5571593;378.5738289;None;[];['b'];[1.0023747999985062];380.560926;None;b;3.0023748;0;0;0.625;None;383.3557774;None;383.3557774;None;;;;;;;;;;;;;;;;;;;;;;;;CBC_1020;4;5;1;7;19;0.95;2023-06-28_16h55.43.253;MSI_TV_v3;01.01.2022;59.89272016
24;0;24;0;;;;;;;;;;3;0;2;b;27;1;2.294664844;1.607319379;None;385.1572044;None;386.7406787;386.7406787;386.7572556;b;['b'];None;;388.7814815;None;b;1.4506734;1;1;0.64;None;391.0846274;None;391.0846274;None;1.4506734;[1.4506733999987773];;;;;;;;;;;;;;;;;;;;;;CBC_1020;4;5;1;7;19;0.95;2023-06-28_16h55.43.253;MSI_TV_v3;01.01.2022;59.89272016
25;0;25;0;;;;;;;;;;0;1;0;b;63;1;2.91303524;0.974903167;None;392.9000858;None;393.8574832;393.8574832;393.8742074;None;[];['b'];[0.45945909999863943];395.860965;None;b;2.4594591;1;1;0.653846154;None;398.7793917;None;398.7793917;None;;;;;;;;;;;;;;;;;;;;;;;;CBC_1020;4;5;1;7;19;0.95;2023-06-28_16h55.43.253;MSI_TV_v3;01.01.2022;59.89272016
26;0;26;0;;;;;;;;;;0;0;1;z;63;1;3.733261362;2.498395274;None;400.5910982;None;403.0739312;403.0739312;403.0904694;None;[];['z'];[0.6094351999981882];405.0774154;None;z;2.6094352;1;1;0.666666667;None;408.8164395;['z'];408.8164395;None;;;[1.4199595999998564];;;;;;;;;;;;;;;;;;;;;CBC_1020;4;5;1;7;19;0.95;2023-06-28_16h55.43.253;MSI_TV_v3;01.01.2022;59.89272016
27;0;27;0;;;;;;;;;;2;3;2;z;63;1;3.643838655;0.777036402;None;410.6240194;None;411.3737399;411.3737399;411.3903101;b;['b'];None;;413.4128818;None;b;1.9760787;0;0;0.642857143;None;417.0666542;None;417.0666542;None;1.9760787;[1.9760786999995616];;;;;;;;;;;;;;;;;;;;;;CBC_1020;4;5;1;7;19;0.95;2023-06-28_16h55.43.253;MSI_TV_v3;01.01.2022;59.89272016
28;0;28;0;;;;;;;;;;1;3;1;b;27;1;2.629554641;1.258177479;None;418.8739843;None;420.1072759;420.1072759;420.1239482;None;[];['b'];[0.377951700000267];422.1107034;None;b;2.3779517;1;1;0.655172414;None;424.7309078;None;424.7309078;None;;;;;;;;;;;;;;;;;;;;;;;;CBC_1020;4;5;1;7;19;0.95;2023-06-28_16h55.43.253;MSI_TV_v3;01.01.2022;59.89272016
29;0;29;0;;;;;;;;;;2;1;2;z;9;1;3.372878561;3.331249833;None;426.5406865;None;429.8574689;429.8574689;429.8740584;None;[];['z'];[0.8204375999994227];431.8597448;None;z;2.8204376;1;1;0.666666667;None;435.2401034;None;435.2401034;None;;;;;;;;;;;;;;;;;;;;;;;;CBC_1020;4;5;1;7;19;0.95;2023-06-28_16h55.43.253;MSI_TV_v3;01.01.2022;59.89272016
30;0;30;0;;;;;;;;;;0;3;1;z;27;1;2.666404968;1.180657385;None;437.0406486;None;438.2074263;438.2074263;438.2248037;z;['z'];None;;440.2490496;None;z;1.477909;1;1;0.677419355;None;442.9189448;None;442.9189448;None;1.477909;[1.477908999999272];;;;;;;;;;;;;;;;;;;;;;CBC_1020;4;5;1;7;19;0.95;2023-06-28_16h55.43.253;MSI_TV_v3;01.01.2022;59.89272016
31;0;31;0;;;;;;;;;;1;3;2;b;63;1;3.713727101;2.966530537;None;444.724048;None;447.6740135;447.6740135;447.690776;None;[];['z'];[0.48475239999970654];449.6771609;None;z;2.4847524;0;0;0.65625;None;453.3966849;None;453.3966849;None;;;;;;;;;;;;;;;;;;;;;;;;CBC_1020;4;5;1;7;19;0.95;2023-06-28_16h55.43.253;MSI_TV_v3;01.01.2022;59.89272016
32;0;32;0;;;;;;;;;;0;0;1;z;63;1;2.713456592;3.245693266;None;455.2076622;None;458.440808;458.440808;458.457473;None;[];['z'];[0.3110510999995313];460.4440259;None;z;2.3110511;1;1;0.666666667;None;463.1571808;None;463.1571808;None;;;;;;;;;;;;;;;;;;;;;;;;CBC_1020;4;5;1;7;19;0.95;2023-06-28_16h55.43.253;MSI_TV_v3;01.01.2022;59.89272016
33;0;33;0;;;;;;;;;;3;1;0;z;63;0;3.265390635;1.259201458;None;464.9577089;None;466.1908347;466.1908347;466.2080894;None;[];['z'];[0.2550929000008182];468.1964137;None;z;2.2550929;1;0;0.676470588;None;471.4636426;None;471.4636426;None;;;;;;;;;;;;;;;;;;;;;;;;CBC_1020;4;5;1;7;19;0.95;2023-06-28_16h55.43.253;MSI_TV_v3;01.01.2022;59.89272016
34;0;34;0;;;;;;;;;;2;2;3;b;63;1;2.693348633;3.196300833;None;473.2742071;None;476.4574941;476.4574941;476.4744302;None;[];['z'];[0.863031900000351];478.4628218;None;z;2.8630319;0;0;0.657142857;None;481.1470761;None;481.1470761;None;;;;;;;;;;;;;;;;;;;;;;;;CBC_1020;4;5;1;7;19;0.95;2023-06-28_16h55.43.253;MSI_TV_v3;01.01.2022;59.89272016
35;0;35;0;;;;;;;;;;3;0;2;b;27;1;3.319294193;1.124389584;None;482.9576643;None;484.0573425;484.0573425;484.0741063;b;['b'];None;;486.0973462;None;b;1.8382053;1;1;0.666666667;None;489.4192397;None;489.4192397;None;1.8382053;[1.8382053000004817];;;;;;;;;;;;;;;;;;;;;;CBC_1020;4;5;1;7;19;0.95;2023-06-28_16h55.43.253;MSI_TV_v3;01.01.2022;59.89272016
36;0;36;0;;;;;;;;;;0;0;1;z;63;1;4.115145368;3.401559799;None;491.2243069;None;494.6080659;494.6080659;494.6241361;z;['z'];None;;496.6342179;None;z;1.8447867;1;1;0.675675676;None;500.7521432;None;500.7521432;None;1.8447867;[1.8447866999995313];;;;;;;;;;;;;;;;;;;;;;CBC_1020;4;5;1;7;19;0.95;2023-06-28_16h55.43.253;MSI_TV_v3;01.01.2022;59.89272016
37;0;37;0;;;;;;;;;;1;2;3;z;63;1;4.610046692;1.951303448;None;502.5575431;None;504.4909777;504.4909777;504.5076354;None;[];['b'];[0.46570489999976417];506.4934263;None;b;2.4657049;0;0;0.657894737;None;511.097686;None;511.097686;None;;;;;;;;;;;;;;;;;;;;;;;;CBC_1020;4;5;1;7;19;0.95;2023-06-28_16h55.43.253;MSI_TV_v3;01.01.2022;59.89272016
38;0;38;0;;;;;;;;;;0;1;2;b;9;1;4.777236671;1.948584858;None;512.9077396;None;514.8410577;514.8410577;514.8574538;None;[];['b'];[0.46249039999929664];516.8436599;None;b;2.4624904;1;1;0.666666667;None;521.6277087;None;521.6277087;None;;;;;;;;;;;;;;;;;;;;;;;;CBC_1020;4;5;1;7;19;0.95;2023-06-28_16h55.43.253;MSI_TV_v3;01.01.2022;59.89272016
39;0;39;0;;;;;;;;;;1;1;3;z;27;1;2.678526078;1.522905996;None;523.4411103;None;524.9408823;524.9408823;524.957713;None;[];['z'];[0.44689239999934216];526.9459792;None;z;2.4468924;1;1;0.675;None;529.6196316;None;529.6196316;None;;;;;;;;;;;;;;;;;;;;;;;;CBC_1020;4;5;1;7;19;0.95;2023-06-28_16h55.43.253;MSI_TV_v3;01.01.2022;59.89272016
40;0;40;0;;;;;;;;;;3;1;0;z;63;1;2.496959178;1.644211099;None;531.4244715;None;533.0575684;533.0575684;533.0741794;None;[];['z'];[0.4876690000000963];535.0599594;None;z;2.487669;1;1;0.682926829;None;537.547402;None;537.547402;None;;;;;;;;;;;;;;;;;;;;;;;;CBC_1020;4;5;1;7;19;0.95;2023-06-28_16h55.43.253;MSI_TV_v3;01.01.2022;59.89272016
41;0;41;0;;;;;;;;;;3;0;1;b;63;1;2.526044641;1.786435855;None;539.3576984;None;541.1246024;541.1246024;541.1410691;None;[];['b'];[0.9988704999996116];543.1280847;None;b;2.9988705;1;1;0.69047619;None;545.6476326;None;545.6476326;None;;;;;;;;;;;;;;;;;;;;;;;;CBC_1020;4;5;1;7;19;0.95;2023-06-28_16h55.43.253;MSI_TV_v3;01.01.2022;59.89272016
42;0;42;0;;;;;;;;;;2;2;0;b;27;1;4.53337422;1.21250262;None;547.4577758;None;548.6577749;548.6577749;548.6744273;None;[];['b'];[1.6146109999990585];550.6622726;None;b;3.614611;1;1;0.697674419;None;555.1915069;None;555.1915069;None;;;;;;;;;;;;;;;;;;;;;;;;CBC_1020;4;5;1;7;19;0.95;2023-06-28_16h55.43.253;MSI_TV_v3;01.01.2022;59.89272016
43;0;43;0;;;;;;;;;;0;0;1;z;63;1;2.639174735;0.761758675;None;556.991466;None;557.7414751;557.7414751;557.7580737;None;[];['z'];[0.7276574000006804];559.745159;None;z;2.7276574;1;1;0.704545455;None;562.3901107;None;562.3901107;None;;;;;;;;;;;;;;;;;;;;;;;;CBC_1020;4;5;1;7;19;0.95;2023-06-28_16h55.43.253;MSI_TV_v3;01.01.2022;59.89272016
;;;;;;;;;;;;;;;;;;;;;;;;;;;;;;;;;;;;;;;;;;;;;;None;564.1916904;None;;;;;;;;;;;;;;;;;;CBC_1020;4;5;1;7;19;0.95;2023-06-28_16h55.43.253;MSI_TV_v3;01.01.2022;59.89272016
;;;;;;;;;;;;;;;;;;;;;;;;;;;;;;;;;;;;;;;;;;;;;;;;;569.1746473;None;None;569.1746473;574.1579686;;;;;;;;;;;;;CBC_1020;4;5;1;7;19;0.95;2023-06-28_16h55.43.253;MSI_TV_v3;01.01.2022;59.89272016
;;;;;;;;;;;;;;;;;;;;;;;;;;;;;;;;;;;;;;;;;;;;;;;;;;;;;;z;b;hard;[0, 1, 2, 3];[3, 0, 2, 1];0.727272727;0.545454545;0.727272727;0.818181818;31;0;13;;;;;;;;;;;
