trials_runs.thisRepN,trials_runs.thisTrialN,trials_runs.thisN,trials_runs.thisIndex,standbild_start.started,standbild_start.stopped,trigger.keys,trigger.rt,trigger.started,trigger.stopped,keys_2.keys,keys_2.started,keys_2.stopped,trials_runs.auditory_stim,trials_runs.visual_stim_left,trials_runs.visual_stim_right,trials_runs.correctKey,trials_runs.presentationFrequncy,trials_runs.FBaccuracy,trials_runs.ISI_s,trials_runs.ITI_s,keys_3.keys,keys_3.started,keys_3.stopped,ImageLeft_4.started,ImageLeft_4.stopped,ImageRight_4.started,ImageRight_4.stopped,sound_4.started,sound_4.stopped,response_4.keys,response_4.started,response_4.stopped,response_5.keys,response_5.rt,response_5.started,response_5.stopped,response_runs.keys,response_runs.rt,trials_runs.correct_answer,trials_runs.feedback_given,trials_runs.running_mean,feedback_6.started,feedback_6.stopped,keys_6.keys,keys_6.started,keys_6.stopped,response_4.rt,keys_6.rt,keys_7.keys,keys_7.started,keys_7.stopped,standbild_end.started,standbild_end.stopped,Stop_exp.keys,Stop_exp.started,Stop_exp.stopped,trials_runs.rightKey,trials_runs.leftKey,ts_difficulty,visualPair,audioPair,trials_runs.mean_acc_1stFourth,trials_runs.mean_acc_2ndFourth,trials_runs.mean_acc_3rdFourth,trials_runs.mean_acc_4thFourth,participant,session,visual set [1-6],audio set [1-3],trial structure [0-3 / 4-7],pairing [0-23],prob Feedback,date,expName,psychopyVersion,frameRate,
,,,,428.1230364000003,None,t,71.90535500000078,428.1230364000003,None,,,,,,,,,,,,,,,,,,,,,,,,,,,,,,,,,,,,,,,,,,,,,,,,,,,,,,,,,CBC_1007,003,2,1,0,4,0.9,2023-06-21_15h59.48.192,MSI_AV_v3,2022.1.1,59.99876402565381,
,,,,,,,,,,None,500.0549874999997,None,,,,,,,,,,,,,,,,,,,,,,,,,,,,,,,,,,,,,,,,,,,,,,,,,,,,,,CBC_1007,003,2,1,0,4,0.9,2023-06-21_15h59.48.192,MSI_AV_v3,2022.1.1,59.99876402565381,
0,0,0,0,,,,,,,,,,3,0.0,1.0,z,63.0,1.0,2.917714675,1.915207301,None,500.2547617,None,502.3700231999992,None,502.3700231999992,None,502.3710868399994,None,None,502.3700231999992,None,['b'],[0.25464279999869177],504.17135190000045,None,b,2.2546427999986918,0,0,0.0,507.0975722000003,None,None,507.0975722000003,None,,,,,,,,,,,,,,,,,,,,CBC_1007,003,2,1,0,4,0.9,2023-06-21_15h59.48.192,MSI_AV_v3,2022.1.1,59.99876402565381,
1,0,1,0,,,,,,,,,,0,0.0,1.0,b,63.0,1.0,2.208904638,1.84422311,None,509.10479080000005,None,510.9805577999996,None,510.9805577999996,None,510.98801209999965,None,['z'],510.9805577999996,None,None,,512.9534764,None,z,1.5698697999996511,0,0,0.0,515.1617215000006,None,None,515.1617215000006,None,[1.5698697999996511],,,,,,,,,,,,,,,,,,,CBC_1007,003,2,1,0,4,0.9,2023-06-21_15h59.48.192,MSI_AV_v3,2022.1.1,59.99876402565381,
2,0,2,0,,,,,,,,,,2,2.0,3.0,z,63.0,1.0,1.109698721,1.378098418,None,517.1714666999997,None,518.6236661999992,None,518.6236661999992,None,518.6213225199999,None,None,518.6236661999992,None,['z'],[0.18656360000022687],520.5380915000005,None,z,2.186563600000227,1,1,0.3333333333333333,521.6359527000004,None,None,521.6359527000004,None,,,,,,,,,,,,,,,,,,,,CBC_1007,003,2,1,0,4,0.9,2023-06-21_15h59.48.192,MSI_AV_v3,2022.1.1,59.99876402565381,
3,0,3,0,,,,,,,,,,3,2.0,1.0,z,9.0,1.0,1.556335756,1.411911144,None,523.6380052000004,None,525.0788785000004,None,525.0788785000004,None,525.0880457399999,None,None,525.0788785000004,None,['b'],[0.2875433000008343],527.054874899999,None,b,2.2875433000008343,0,0,0.25,528.6020680999991,None,None,528.6020680999991,None,,,,,,,,,,,,,,,,,,,,CBC_1007,003,2,1,0,4,0.9,2023-06-21_15h59.48.192,MSI_AV_v3,2022.1.1,59.99876402565381,
4,0,4,0,,,,,,,,,,0,0.0,2.0,b,27.0,1.0,2.242058058,2.495793893,None,530.6046133999989,None,533.1262501000001,None,533.1262501000001,None,533.1380725399995,None,None,533.1262501000001,None,['z'],[0.41652909999902477],535.1046640999994,None,z,2.4165290999990248,0,0,0.2,537.3482834000006,None,None,537.3482834000006,None,,,,,,,,,,,,,,,,,,,,CBC_1007,003,2,1,0,4,0.9,2023-06-21_15h59.48.192,MSI_AV_v3,2022.1.1,59.99876402565381,
5,0,5,0,,,,,,,,,,1,2.0,3.0,b,63.0,1.0,4.196249082,1.086048241,None,539.3381375999998,None,540.4951017999992,None,540.4951017999992,None,540.504984619999,None,None,540.4951017999992,None,['b'],[0.19427229999928386],542.4216001000004,None,b,2.194272299999284,1,1,0.3333333333333333,546.6068094999991,None,None,546.6068094999991,None,,,,,,,,,,,,,,,,,,,,CBC_1007,003,2,1,0,4,0.9,2023-06-21_15h59.48.192,MSI_AV_v3,2022.1.1,59.99876402565381,
6,0,6,0,,,,,,,,,,2,1.0,3.0,z,27.0,1.0,1.887650177,2.757001452,None,548.6214639999998,None,551.379832999999,None,551.379832999999,None,551.3877631799996,None,['z'],551.379832999999,None,None,,553.3908795000007,None,z,1.5838088000018615,1,1,0.42857142857142855,555.2943708999992,None,None,555.2943708999992,None,[1.5838088000018615],,,,,,,,,,,,,,,,,,,CBC_1007,003,2,1,0,4,0.9,2023-06-21_15h59.48.192,MSI_AV_v3,2022.1.1,59.99876402565381,
7,0,7,0,,,,,,,,,,0,1.0,0.0,z,63.0,1.0,2.818459073,1.293060736,None,557.3047874000004,None,558.6099818999992,None,558.6099818999992,None,558.6214705399998,None,['b'],558.6099818999992,None,None,,560.6071900000006,None,b,1.6556863999994675,0,0,0.375,563.4281996999998,None,None,563.4281996999998,None,[1.6556863999994675],,,,,,,,,,,,,,,,,,,CBC_1007,003,2,1,0,4,0.9,2023-06-21_15h59.48.192,MSI_AV_v3,2022.1.1,59.99876402565381,
8,0,8,0,,,,,,,,,,1,2.0,0.0,b,27.0,1.0,4.309752164,2.234398566,None,565.4385246999991,None,567.6920009000005,None,567.6920009000005,None,567.6885375800002,None,None,567.6920009000005,None,['b'],[1.5090450999996392],569.6714539000004,None,b,3.509045099999639,1,1,0.4444444444444444,573.9758373999994,None,None,573.9758373999994,None,,,,,,,,,,,,,,,,,,,,CBC_1007,003,2,1,0,4,0.9,2023-06-21_15h59.48.192,MSI_AV_v3,2022.1.1,59.99876402565381,
9,0,9,0,,,,,,,,,,2,2.0,3.0,z,63.0,1.0,1.610581685,1.910349838,None,575.9881425999993,None,577.9090885999994,None,577.9090885999994,None,577.9049866800005,None,['z'],577.9090885999994,None,None,,579.9029840000003,None,z,1.1531180000001768,1,1,0.5,581.5112991999995,None,None,581.5112991999995,None,[1.1531180000001768],,,,,,,,,,,,,,,,,,,CBC_1007,003,2,1,0,4,0.9,2023-06-21_15h59.48.192,MSI_AV_v3,2022.1.1,59.99876402565381,
10,0,10,0,,,,,,,,,,3,1.0,0.0,b,63.0,0.0,3.884449499,2.7801224,None,583.5212754999993,None,586.3248628000001,None,586.3248628000001,None,586.3214929800006,None,None,586.3248628000001,None,['b'],[0.4859990999993897],588.3047600999998,None,b,2.4859990999993897,1,0,0.5454545454545454,592.183727399999,None,None,592.183727399999,None,,,,,,,,,,,,,,,,,,,,CBC_1007,003,2,1,0,4,0.9,2023-06-21_15h59.48.192,MSI_AV_v3,2022.1.1,59.99876402565381,
11,0,11,0,,,,,,,,,,0,0.0,1.0,b,63.0,1.0,1.219965572,2.128027194,None,594.1882638999996,None,596.3251139999993,None,596.3251139999993,None,596.3215192799989,None,None,596.3251139999993,None,None,,598.3047743999996,None,[],[],0,3,0.5,599.5095683999989,None,['z'],599.5095683999989,None,,[0.018405400000119698],,,,,,,,,,,,,,,,,,CBC_1007,003,2,1,0,4,0.9,2023-06-21_15h59.48.192,MSI_AV_v3,2022.1.1,59.99876402565381,
12,0,12,0,,,,,,,,,,2,2.0,3.0,z,63.0,1.0,4.334629553,0.789129603,None,601.5214307999995,None,602.3255974999993,None,602.3255974999993,None,602.3383669399991,None,"['z', 'z']",602.3255974999993,None,None,,604.3214284000005,None,z,1.0379326000002038,1,1,0.5384615384615384,608.6615896000003,None,None,608.6615896000003,None,"[1.0379326000002038, 1.9021304000016244]",,,,,,,,,,,,,,,,,,,CBC_1007,003,2,1,0,4,0.9,2023-06-21_15h59.48.192,MSI_AV_v3,2022.1.1,59.99876402565381,
13,0,13,0,,,,,,,,,,1,2.0,0.0,b,27.0,1.0,2.088920167,1.08099246,None,610.6715077999997,None,611.7828611999994,None,611.7828611999994,None,611.787984139999,None,['b'],611.7828611999994,None,None,,613.7708186999989,None,b,1.7007603000001836,1,1,0.5714285714285714,615.861777099999,None,None,615.861777099999,None,[1.7007603000001836],,,,,,,,,,,,,,,,,,,CBC_1007,003,2,1,0,4,0.9,2023-06-21_15h59.48.192,MSI_AV_v3,2022.1.1,59.99876402565381,
14,0,14,0,,,,,,,,,,0,0.0,1.0,b,63.0,1.0,2.67601813,2.349749758,None,617.8715475999998,None,620.2429491000003,None,620.2429491000003,None,620.2548252399993,None,['b'],620.2429491000003,None,None,,622.2398429000004,None,b,1.6145355999997264,1,1,0.6,624.9290378999995,None,None,624.9290378999995,None,[1.6145355999997264],,,,,,,,,,,,,,,,,,,CBC_1007,003,2,1,0,4,0.9,2023-06-21_15h59.48.192,MSI_AV_v3,2022.1.1,59.99876402565381,
15,0,15,0,,,,,,,,,,3,1.0,3.0,b,27.0,1.0,1.595506577,2.502774076,None,626.9382189999997,None,629.4436636999999,None,629.4436636999999,None,629.4541159800001,None,['z'],629.4436636999999,None,['z'],[0.026163399999859394],631.4566102999997,None,z,1.107623900001272,0,0,0.5625,633.0611248999994,None,None,633.0611248999994,None,[1.107623900001272],,,,,,,,,,,,,,,,,,,CBC_1007,003,2,1,0,4,0.9,2023-06-21_15h59.48.192,MSI_AV_v3,2022.1.1,59.99876402565381,
16,0,16,0,,,,,,,,,,1,3.0,2.0,z,63.0,1.0,2.078483356,1.142638656,None,635.0715725999999,None,636.2260348999989,None,636.2260348999989,None,636.2382102399988,None,None,636.2260348999989,None,['z'],[0.658748400001059],638.2047703999997,None,z,2.658748400001059,1,1,0.5882352941176471,640.2636628,None,None,640.2636628,None,,,,,,,,,,,,,,,,,,,,CBC_1007,003,2,1,0,4,0.9,2023-06-21_15h59.48.192,MSI_AV_v3,2022.1.1,59.99876402565381,
17,0,17,0,,,,,,,,,,2,2.0,3.0,z,63.0,0.0,3.869831913,3.274187802,None,642.2715463000004,None,645.560972199999,None,645.560972199999,None,645.5714786400004,None,['z'],645.560972199999,None,None,,647.5460060000005,None,z,1.2482039999995322,1,0,0.6111111111111112,651.4107256000007,None,None,651.4107256000007,None,[1.2482039999995322],,,,,,,,,,,,,,,,,,,CBC_1007,003,2,1,0,4,0.9,2023-06-21_15h59.48.192,MSI_AV_v3,2022.1.1,59.99876402565381,
18,0,18,0,,,,,,,,,,3,1.0,0.0,b,63.0,1.0,1.899747326,1.554037824,None,653.4221500999993,None,654.9934190999993,None,654.9934190999993,None,655.0049400400003,None,None,654.9934190999993,None,['z'],[0.7564556999986962],656.9715673999999,None,z,2.756455699998696,0,0,0.5789473684210527,658.8663304000002,None,None,658.8663304000002,None,,,,,,,,,,,,,,,,,,,,CBC_1007,003,2,1,0,4,0.9,2023-06-21_15h59.48.192,MSI_AV_v3,2022.1.1,59.99876402565381,
19,0,19,0,,,,,,,,,,0,2.0,0.0,z,27.0,1.0,3.956662465,3.276660373,None,660.8715665999989,None,664.160002999999,None,664.160002999999,None,664.1715538400003,None,None,664.160002999999,None,['z'],[0.09992280000005849],666.1382601999994,None,z,2.0999228000000585,1,1,0.6,670.0780887000001,None,None,670.0780887000001,None,,,,,,,,,,,,,,,,,,,,CBC_1007,003,2,1,0,4,0.9,2023-06-21_15h59.48.192,MSI_AV_v3,2022.1.1,59.99876402565381,
20,0,20,0,,,,,,,,,,2,0.0,3.0,z,9.0,1.0,2.949122761,2.407383959,None,672.0880947000005,None,674.511880099999,None,674.511880099999,None,674.5215641399991,None,['z'],674.511880099999,None,None,,676.5080466,None,z,1.4050714999993943,1,1,0.6190476190476191,679.4612433999991,None,None,679.4612433999991,None,[1.4050714999993943],,,,,,,,,,,,,,,,,,,CBC_1007,003,2,1,0,4,0.9,2023-06-21_15h59.48.192,MSI_AV_v3,2022.1.1,59.99876402565381,
21,0,21,0,,,,,,,,,,1,2.0,3.0,b,63.0,1.0,1.874984683,2.573610938,None,681.4715027999991,None,684.0604330000006,None,684.0604330000006,None,684.0714944399988,None,['b'],684.0604330000006,None,None,,686.0574610000003,None,b,1.322068199999194,1,1,0.6363636363636364,687.9447944999993,None,None,687.9447944999993,None,[1.322068199999194],,,,,,,,,,,,,,,,,,,CBC_1007,003,2,1,0,4,0.9,2023-06-21_15h59.48.192,MSI_AV_v3,2022.1.1,59.99876402565381,
22,0,22,0,,,,,,,,,,3,3.0,1.0,z,27.0,1.0,3.478547126,2.684881281,None,689.9549224000002,None,692.6590978000004,None,692.6590978000004,None,692.6549162799993,None,None,692.6590978000004,None,['z'],[0.2545449000008375],694.6387388999992,None,z,2.2545449000008375,1,1,0.6521739130434783,698.1001049000006,None,None,698.1001049000006,None,,,,,,,,,,,,,,,,,,,,CBC_1007,003,2,1,0,4,0.9,2023-06-21_15h59.48.192,MSI_AV_v3,2022.1.1,59.99876402565381,
23,0,23,0,,,,,,,,,,1,3.0,2.0,z,63.0,1.0,2.372527466,2.648704933,None,700.104905799999,None,702.7764845999991,None,702.7764845999991,None,702.7883221399989,None,['z'],702.7764845999991,None,None,,704.7725126000005,None,z,1.901261400000294,1,1,0.6666666666666666,707.1623804999999,None,None,707.1623804999999,None,[1.901261400000294],,,,,,,,,,,,,,,,,,,CBC_1007,003,2,1,0,4,0.9,2023-06-21_15h59.48.192,MSI_AV_v3,2022.1.1,59.99876402565381,
24,0,24,0,,,,,,,,,,2,2.0,3.0,z,63.0,1.0,2.518459073,2.935368129,None,709.1716225,None,712.1262146999998,None,712.1262146999998,None,712.1383153400002,None,['z'],712.1262146999998,None,None,,714.1226712999996,None,z,1.2921306999996887,1,1,0.68,716.6461940999998,None,None,716.6461940999998,None,[1.2921306999996887],,,,,,,,,,,,,,,,,,,CBC_1007,003,2,1,0,4,0.9,2023-06-21_15h59.48.192,MSI_AV_v3,2022.1.1,59.99876402565381,
25,0,25,0,,,,,,,,,,3,1.0,0.0,b,63.0,1.0,4.268032915,0.977134615,None,718.6558100000002,None,719.6432368000005,None,719.6432368000005,None,719.654999639999,None,['b'],719.6432368000005,None,None,,721.6401575,None,b,1.4574757999998837,1,1,0.6923076923076923,725.9123091999991,None,None,725.9123091999991,None,[1.4574757999998837],,,,,,,,,,,,,,,,,,,CBC_1007,003,2,1,0,4,0.9,2023-06-21_15h59.48.192,MSI_AV_v3,2022.1.1,59.99876402565381,
26,0,26,0,,,,,,,,,,0,0.0,3.0,b,9.0,1.0,1.6718976049999998,1.313600181,None,727.9217559999997,None,729.2604338000001,None,729.2604338000001,None,729.2716769399995,None,['b'],729.2604338000001,None,None,,731.2562815000001,None,b,1.8102951999990182,1,1,0.7037037037037037,732.9284506999993,None,None,732.9284506999993,None,[1.8102951999990182],,,,,,,,,,,,,,,,,,,CBC_1007,003,2,1,0,4,0.9,2023-06-21_15h59.48.192,MSI_AV_v3,2022.1.1,59.99876402565381,
27,0,27,0,,,,,,,,,,2,2.0,3.0,z,63.0,1.0,3.589438522,2.071213329,None,734.9387069999993,None,737.0265935999996,None,737.0265935999996,None,737.0384083400004,None,['z'],737.0265935999996,None,None,,739.0247199000005,None,z,0.9827337999995507,1,1,0.7142857142857143,742.6292969000006,None,None,742.6292969000006,None,[0.9827337999995507],,,,,,,,,,,,,,,,,,,CBC_1007,003,2,1,0,4,0.9,2023-06-21_15h59.48.192,MSI_AV_v3,2022.1.1,59.99876402565381,
28,0,28,0,,,,,,,,,,1,2.0,0.0,b,27.0,1.0,2.232488062,3.321420384,None,744.6386803000005,None,747.9778418999995,None,747.9778418999995,None,747.9884442399998,None,None,747.9778418999995,None,['b'],[0.22869250000076136],749.9551372000005,None,b,2.2286925000007614,1,1,0.7241379310344828,752.1714902000003,None,None,752.1714902000003,None,,,,,,,,,,,,,,,,,,,,CBC_1007,003,2,1,0,4,0.9,2023-06-21_15h59.48.192,MSI_AV_v3,2022.1.1,59.99876402565381,
29,0,29,0,,,,,,,,,,0,1.0,0.0,z,63.0,0.0,2.278602942,2.297139377,None,754.1717795000004,None,756.4916054999994,None,756.4916054999994,None,756.4885940800004,None,['z'],756.4916054999994,None,None,,758.4829497999999,None,z,1.4014040000001842,1,0,0.7333333333333333,760.7604632000002,None,None,760.7604632000002,None,[1.4014040000001842],,,,,,,,,,,,,,,,,,,CBC_1007,003,2,1,0,4,0.9,2023-06-21_15h59.48.192,MSI_AV_v3,2022.1.1,59.99876402565381,
30,0,30,0,,,,,,,,,,3,1.0,0.0,b,63.0,1.0,2.397501916,2.210349838,None,762.7717367000005,None,764.9931424000006,None,764.9931424000006,None,765.0051143399996,None,None,764.9931424000006,None,['b'],[0.32691349999913655],766.9710591999992,None,b,2.3269134999991365,1,1,0.7419354838709677,769.3567237999996,None,None,769.3567237999996,None,,,,,,,,,,,,,,,,,,,,CBC_1007,003,2,1,0,4,0.9,2023-06-21_15h59.48.192,MSI_AV_v3,2022.1.1,59.99876402565381,
31,0,31,0,,,,,,,,,,2,3.0,1.0,b,27.0,1.0,1.758742576,0.971483559,None,771.3718764999994,None,772.3643388,None,772.3643388,None,772.37227084,None,['b'],772.3643388,None,None,,774.3568624999989,None,b,1.1837992000000668,1,1,0.75,776.1288576999996,None,None,776.1288576999996,None,[1.1837992000000668],,,,,,,,,,,,,,,,,,,CBC_1007,003,2,1,0,4,0.9,2023-06-21_15h59.48.192,MSI_AV_v3,2022.1.1,59.99876402565381,
32,0,32,0,,,,,,,,,,1,3.0,2.0,z,63.0,1.0,3.501824497,1.53162701,None,778.1382575999996,None,779.6900079999996,None,779.6900079999996,None,779.6889572800001,None,['z'],779.6900079999996,None,None,,781.6880996,None,z,1.5271708000018407,1,1,0.7575757575757576,785.187517299999,None,None,785.187517299999,None,[1.5271708000018407],,,,,,,,,,,,,,,,,,,CBC_1007,003,2,1,0,4,0.9,2023-06-21_15h59.48.192,MSI_AV_v3,2022.1.1,59.99876402565381,
33,0,33,0,,,,,,,,,,3,1.0,0.0,b,63.0,1.0,1.3262934849999999,1.732943574,None,787.1886061000005,None,788.9420140999991,None,788.9420140999991,None,788.9385354800006,None,['z'],788.9420140999991,None,None,,790.9405354999999,None,z,1.6529330000012123,0,0,0.7352941176470589,792.2765347000004,None,None,792.2765347000004,None,[1.6529330000012123],,,,,,,,,,,,,,,,,,,CBC_1007,003,2,1,0,4,0.9,2023-06-21_15h59.48.192,MSI_AV_v3,2022.1.1,59.99876402565381,
34,0,34,0,,,,,,,,,,0,0.0,1.0,b,63.0,1.0,3.278108735,2.232990834,None,794.2883665999998,None,796.5440476000003,None,796.5440476000003,None,796.5550542399997,None,['b'],796.5440476000003,None,None,,798.5389646999993,None,b,1.6622870000010153,1,1,0.7428571428571429,801.8304807999993,None,None,801.8304807999993,None,[1.6622870000010153],,,,,,,,,,,,,,,,,,,CBC_1007,003,2,1,0,4,0.9,2023-06-21_15h59.48.192,MSI_AV_v3,2022.1.1,59.99876402565381,
35,0,35,0,,,,,,,,,,1,1.0,2.0,z,9.0,1.0,4.21669271,2.108332021,None,803.8387346999989,None,805.9501848,None,805.9501848,None,805.9552004799998,None,['z'],805.9501848,None,None,,807.9562399999995,None,z,1.7387085999998817,1,1,0.75,812.1791572999991,None,None,812.1791572999991,None,[1.7387085999998817],,,,,,,,,,,,,,,,,,,CBC_1007,003,2,1,0,4,0.9,2023-06-21_15h59.48.192,MSI_AV_v3,2022.1.1,59.99876402565381,
36,0,36,0,,,,,,,,,,0,1.0,0.0,z,63.0,1.0,1.90573091,3.388090306,None,814.1887263999997,None,817.5936153000002,None,817.5936153000002,None,817.6055629399998,None,['z'],817.5936153000002,None,None,,819.5890653000006,None,z,1.4498395000009623,1,1,0.7567567567567568,821.4946485,None,None,821.4946485,None,[1.4498395000009623],,,,,,,,,,,,,,,,,,,CBC_1007,003,2,1,0,4,0.9,2023-06-21_15h59.48.192,MSI_AV_v3,2022.1.1,59.99876402565381,
37,0,37,0,,,,,,,,,,2,3.0,1.0,b,27.0,1.0,2.0845750460000003,1.24796184,None,823.5052954000003,None,824.7765072999991,None,824.7765072999991,None,824.7885733399999,None,['b'],824.7765072999991,None,None,,826.7743874999996,None,b,1.0958456999996997,1,1,0.7631578947368421,828.8626528999994,None,None,828.8626528999994,None,[1.0958456999996997],,,,,,,,,,,,,,,,,,,CBC_1007,003,2,1,0,4,0.9,2023-06-21_15h59.48.192,MSI_AV_v3,2022.1.1,59.99876402565381,
38,0,38,0,,,,,,,,,,3,0.0,1.0,z,63.0,1.0,2.117809983,1.448890429,None,830.8717772,None,832.3434691999992,None,832.3434691999992,None,832.3552879399995,None,['z'],832.3434691999992,None,None,,834.3397191999993,None,z,1.697395699999106,1,1,0.7692307692307693,836.4633047000007,None,None,836.4633047000007,None,[1.697395699999106],,,,,,,,,,,,,,,,,,,CBC_1007,003,2,1,0,4,0.9,2023-06-21_15h59.48.192,MSI_AV_v3,2022.1.1,59.99876402565381,
39,0,39,0,,,,,,,,,,1,2.0,3.0,b,63.0,0.0,3.044827724,3.264468617,None,838.471919399999,None,841.7595046000006,None,841.7595046000006,None,841.7552615800005,None,['b'],841.7595046000006,None,None,,843.7561864999989,None,b,1.717954000001555,1,0,0.775,846.8117538000006,None,None,846.8117538000006,None,[1.717954000001555],,,,,,,,,,,,,,,,,,,CBC_1007,003,2,1,0,4,0.9,2023-06-21_15h59.48.192,MSI_AV_v3,2022.1.1,59.99876402565381,
40,0,40,0,,,,,,,,,,0,2.0,0.0,z,27.0,1.0,1.543156518,1.883772966,None,848.8220034999995,None,850.7271932000003,None,850.7271932000003,None,850.7386632399994,None,None,850.7271932000003,None,['z'],[0.24971390000064275],852.7050428999992,None,z,2.2497139000006428,1,1,0.7804878048780488,854.2279858999991,None,None,854.2279858999991,None,,,,,,,,,,,,,,,,,,,,CBC_1007,003,2,1,0,4,0.9,2023-06-21_15h59.48.192,MSI_AV_v3,2022.1.1,59.99876402565381,
41,0,41,0,,,,,,,,,,2,3.0,2.0,b,63.0,1.0,3.622505815,2.962224669,None,856.2389334999989,None,859.2108910000006,None,859.2108910000006,None,859.2220652399992,None,['b'],859.2108910000006,None,None,,861.2058479000007,None,b,0.9879829000001337,1,1,0.7857142857142857,864.8294640000004,None,None,864.8294640000004,None,[0.9879829000001337],,,,,,,,,,,,,,,,,,,CBC_1007,003,2,1,0,4,0.9,2023-06-21_15h59.48.192,MSI_AV_v3,2022.1.1,59.99876402565381,
42,0,42,0,,,,,,,,,,3,3.0,1.0,z,27.0,1.0,4.176609572,1.483424551,None,866.838886399999,None,868.3434729,None,868.3434729,None,868.3554097399992,None,['z'],868.3434729,None,None,,870.3402953000004,None,z,1.4098061000004236,1,1,0.7906976744186046,874.5287267999993,None,None,874.5287267999993,None,[1.4098061000004236],,,,,,,,,,,,,,,,,,,CBC_1007,003,2,1,0,4,0.9,2023-06-21_15h59.48.192,MSI_AV_v3,2022.1.1,59.99876402565381,
43,0,43,0,,,,,,,,,,1,2.0,3.0,b,63.0,1.0,2.742099981,1.75396268,None,876.5386739999994,None,878.3076265,None,878.3076265,None,878.3054128800004,None,['b'],878.3076265,None,None,,880.3029690000003,None,b,1.4229684000019915,1,1,0.7954545454545454,883.0460810000004,None,None,883.0460810000004,None,[1.4229684000019915],,,,,,,,,,,,,,,,,,,CBC_1007,003,2,1,0,4,0.9,2023-06-21_15h59.48.192,MSI_AV_v3,2022.1.1,59.99876402565381,
,,,,,,,,,,,,,,,,,,,,,,,,,,,,,,,,,,,,,,,,,,,,,,,,,None,885.0556053,None,,,,,,,,,,,,,,,CBC_1007,003,2,1,0,4,0.9,2023-06-21_15h59.48.192,MSI_AV_v3,2022.1.1,59.99876402565381,
,,,,,,,,,,,,,,,,,,,,,,,,,,,,,,,,,,,,,,,,,,,,,,,,,,,,890.0559259000001,None,None,890.0559259000001,None,,,,,,,,,,CBC_1007,003,2,1,0,4,0.9,2023-06-21_15h59.48.192,MSI_AV_v3,2022.1.1,59.99876402565381,
,,,,,,,,,,,,,,,,,,,,,,,,,,,,,,,,,,,,,,,,,,,,,,,,,,,,,,,,,z,b,hard,"[0, 1, 2, 3]","[0, 3, 1, 2]",0.5454545454545454,0.7272727272727273,1.0,0.9090909090909091,,,,,,,,,,,,
