trials_runs.thisRepN,trials_runs.thisTrialN,trials_runs.thisN,trials_runs.thisIndex,standbild_start.started,standbild_start.stopped,trigger.keys,trigger.rt,trigger.started,trigger.stopped,keys_2.keys,keys_2.started,keys_2.stopped,trials_runs.auditory_stim,trials_runs.visual_stim_left,trials_runs.visual_stim_right,trials_runs.correctKey,trials_runs.presentationFrequncy,trials_runs.FBaccuracy,trials_runs.ISI_s,trials_runs.ITI_s,keys_3.keys,keys_3.started,keys_3.stopped,ImageLeft_4.started,ImageLeft_4.stopped,ImageRight_4.started,ImageRight_4.stopped,sound_4.started,sound_4.stopped,response_4.keys,response_4.started,response_4.stopped,response_5.keys,response_5.rt,response_5.started,response_5.stopped,response_runs.keys,response_runs.rt,trials_runs.correct_answer,trials_runs.feedback_given,trials_runs.running_mean,feedback_6.started,feedback_6.stopped,keys_6.keys,keys_6.started,keys_6.stopped,keys_6.rt,keys_3.rt,response_4.rt,keys_7.keys,keys_7.started,keys_7.stopped,standbild_end.started,standbild_end.stopped,Stop_exp.keys,Stop_exp.started,Stop_exp.stopped,trials_runs.rightKey,trials_runs.leftKey,ts_difficulty,visualPair,audioPair,trials_runs.mean_acc_1stFourth,trials_runs.mean_acc_2ndFourth,trials_runs.mean_acc_3rdFourth,trials_runs.mean_acc_4thFourth,participant,session,visual set [1-6],audio set [1-3],trial structure [0-3 / 4-7],pairing [0-23],prob Feedback,date,expName,psychopyVersion,frameRate,
,,,,27.357402800000273,None,t,105.88434980000011,27.357402800000273,None,,,,,,,,,,,,,,,,,,,,,,,,,,,,,,,,,,,,,,,,,,,,,,,,,,,,,,,,,,CBC_1001,001,4,2,5,0,0.8,2023-06-08_11h37.59.527,MSI_AV_v3,2022.1.1,60.008197119707226,
,,,,,,,,,,None,133.2634038000001,None,,,,,,,,,,,,,,,,,,,,,,,,,,,,,,,,,,,,,,,,,,,,,,,,,,,,,,,CBC_1001,001,4,2,5,0,0.8,2023-06-08_11h37.59.527,MSI_AV_v3,2022.1.1,60.008197119707226,
0,0,0,0,,,,,,,,,,1,3,1,z,27,1,1.3262934849999999,0.789129603,None,133.46329719999994,None,134.40285540000013,None,134.40285540000013,None,134.41321159000026,None,None,134.40285540000013,None,['z'],[0.5182563999997001],136.26332500000035,None,z,2.5182563999997,1,1,1.0,137.60479860000032,None,None,137.60479860000032,None,,,,,,,,,,,,,,,,,,,,,CBC_1001,001,4,2,5,0,0.8,2023-06-08_11h37.59.527,MSI_AV_v3,2022.1.1,60.008197119707226,
1,0,1,0,,,,,,,,,,2,2,3,b,63,1,4.334629553,2.128027194,None,139.5969954000002,None,141.77539620000016,None,141.77539620000016,None,141.78026565000027,None,None,141.77539620000016,None,['z'],[0.2418440000001283],143.72941820000005,None,z,2.2418440000001283,0,0,0.5,148.05467339999996,None,None,148.05467339999996,None,,,,,,,,,,,,,,,,,,,,,CBC_1001,001,4,2,5,0,0.8,2023-06-08_11h37.59.527,MSI_AV_v3,2022.1.1,60.008197119707226,
2,0,2,0,,,,,,,,,,3,2,3,z,63,1,2.742099981,1.448890429,None,150.06320210000013,None,151.52376970000023,None,151.52376970000023,None,151.52919187000023,None,None,151.52376970000023,None,['b'],[0.5746334999998908],153.49685510000018,None,b,2.5746334999998908,0,0,0.3333333333333333,156.22116240000014,None,None,156.22116240000014,None,,,,,,,,,,,,,,,,,,,,,CBC_1001,001,4,2,5,0,0.8,2023-06-08_11h37.59.527,MSI_AV_v3,2022.1.1,60.008197119707226,
3,0,3,0,,,,,,,,,,1,1,0,b,63,0,2.088920167,0.971483559,None,158.2303683,None,159.24885059999997,None,159.24885059999997,None,159.2457310499999,None,None,159.24885059999997,None,['b'],[0.42206690000011804],161.17989790000001,None,b,2.422066900000118,1,0,0.5,163.25945130000036,None,None,163.25945130000036,None,,,,,,,,,,,,,,,,,,,,,CBC_1001,001,4,2,5,0,0.8,2023-06-08_11h37.59.527,MSI_AV_v3,2022.1.1,60.008197119707226,
4,0,4,0,,,,,,,,,,0,3,0,z,9,1,2.917714675,2.7801224,None,165.26357170000028,None,168.09368859999995,None,168.09368859999995,None,168.09640295000008,None,None,168.09368859999995,None,['z'],[1.3900429000000258],170.0470037,None,z,3.390042900000026,1,1,0.6,172.9531691000002,None,None,172.9531691000002,None,,,,,,,,,,,,,,,,,,,,,CBC_1001,001,4,2,5,0,0.8,2023-06-08_11h37.59.527,MSI_AV_v3,2022.1.1,60.008197119707226,
5,0,5,0,,,,,,,,,,3,2,3,z,63,1,1.595506577,1.142638656,None,174.96333380000033,None,176.11945409999998,None,176.11945409999998,None,176.1299000600001,None,None,176.11945409999998,None,None,,178.09648190000007,None,[],[],0,3,0.5,179.6982578000002,None,['z'],179.6982578000002,None,[0.8491705999999795],,,,,,,,,,,,,,,,,,,,CBC_1001,001,4,2,5,0,0.8,2023-06-08_11h37.59.527,MSI_AV_v3,2022.1.1,60.008197119707226,
6,0,6,0,,,,,,,,,,2,2,0,b,27,1,4.196249082,2.935368129,"['z', 'z']",181.66345900000033,None,184.60115940000014,None,184.60115940000014,None,184.61258367000008,None,None,184.60115940000014,None,['b'],[1.7724769999999808],186.5803066000003,None,b,3.7724769999999808,1,1,0.5714285714285714,190.7607699,None,None,190.7607699,None,,"[0.6040696999998545, 2.792975099999694]",,,,,,,,,,,,,,,,,,,CBC_1001,001,4,2,5,0,0.8,2023-06-08_11h37.59.527,MSI_AV_v3,2022.1.1,60.008197119707226,
7,0,7,0,,,,,,,,,,0,1,0,z,63,1,2.208904638,3.276660373,None,192.76369780000005,None,196.05287290000024,None,196.05287290000024,None,196.06327876000014,None,None,196.05287290000024,None,['z'],[0.7898220000001857],198.03000800000018,None,z,2.7898220000001857,1,1,0.625,200.23638660000006,None,None,200.23638660000006,None,,,,,,,,,,,,,,,,,,,,,CBC_1001,001,4,2,5,0,0.8,2023-06-08_11h37.59.527,MSI_AV_v3,2022.1.1,60.008197119707226,
8,0,8,0,,,,,,,,,,1,0,1,z,63,1,1.899747326,1.08099246,None,202.24620300000015,None,203.33459390000007,None,203.33459390000007,None,203.3467058600003,None,None,203.33459390000007,None,['z'],[0.07255699999996068],205.31344400000035,None,z,2.0725569999999607,1,1,0.6666666666666666,207.21120710000014,None,None,207.21120710000014,None,,,,,,,,,,,,,,,,,,,,,CBC_1001,001,4,2,5,0,0.8,2023-06-08_11h37.59.527,MSI_AV_v3,2022.1.1,60.008197119707226,
9,0,9,0,,,,,,,,,,3,3,1,b,27,0,1.219965572,2.210349838,None,209.2136375,None,211.43310040000006,None,211.43310040000006,None,211.43031537000005,None,None,211.43310040000006,None,['b'],[0.5849933000004057],213.41386190000003,None,b,2.5849933000004057,1,0,0.7,214.6138516000001,None,None,214.6138516000001,None,,,,,,,,,,,,,,,,,,,,,CBC_1001,001,4,2,5,0,0.8,2023-06-08_11h37.59.527,MSI_AV_v3,2022.1.1,60.008197119707226,
10,0,10,0,,,,,,,,,,2,2,3,b,63,1,1.874984683,1.24796184,None,216.61381690000007,None,217.86541579999994,None,217.86541579999994,None,217.86268118000015,None,['b'],217.86541579999994,None,None,,219.8675714000001,None,b,1.7856160000001182,1,1,0.7272727272727273,221.75422460000027,None,None,221.75422460000027,None,,,[1.7856160000001182],,,,,,,,,,,,,,,,,,CBC_1001,001,4,2,5,0,0.8,2023-06-08_11h37.59.527,MSI_AV_v3,2022.1.1,60.008197119707226,
11,0,11,0,,,,,,,,,,1,0,1,z,63,1,1.6718976049999998,2.349749758,None,223.7639833000003,None,226.13483130000031,None,226.13483130000031,None,226.1465910599999,None,['z'],226.13483130000031,None,None,,228.11421259999997,None,z,1.5971859999999651,1,1,0.75,229.8037102000003,None,None,229.8037102000003,None,,,[1.5971859999999651],,,,,,,,,,,,,,,,,,CBC_1001,001,4,2,5,0,0.8,2023-06-08_11h37.59.527,MSI_AV_v3,2022.1.1,60.008197119707226,
12,0,12,0,,,,,,,,,,0,1,0,z,63,0,2.818459073,1.53162701,None,231.81397170000037,None,233.34890910000013,None,233.34890910000013,None,233.34589518,None,['z'],233.34890910000013,None,None,,235.34737489999998,None,z,1.709431400000085,1,0,0.7692307692307693,238.16253940000024,None,None,238.16253940000024,None,,,[1.709431400000085],,,,,,,,,,,,,,,,,,CBC_1001,001,4,2,5,0,0.8,2023-06-08_11h37.59.527,MSI_AV_v3,2022.1.1,60.008197119707226,
13,0,13,0,,,,,,,,,,2,2,1,b,9,1,1.758742576,1.378098418,None,240.1633713000001,None,241.55218749999995,None,241.55218749999995,None,241.5637404600001,None,None,241.55218749999995,None,['z'],[1.1897891000003256],243.52935100000013,None,z,3.1897891000003256,0,0,0.7142857142857143,245.26685140000018,None,None,245.26685140000018,None,,,,,,,,,,,,,,,,,,,,,CBC_1001,001,4,2,5,0,0.8,2023-06-08_11h37.59.527,MSI_AV_v3,2022.1.1,60.008197119707226,
14,0,14,0,,,,,,,,,,0,0,1,b,63,1,1.109698721,1.732943574,None,247.28050620000022,None,249.03739300000007,None,249.03739300000007,None,249.04675706000026,None,None,249.03739300000007,None,None,,251.0129009000002,None,[],[],0,3,0.6666666666666666,252.1020764,None,"['b', 'b']",252.1020764,None,"[0.15803199999982098, 1.3710685999999441]",,,,,,,,,,,,,,,,,,,,CBC_1001,001,4,2,5,0,0.8,2023-06-08_11h37.59.527,MSI_AV_v3,2022.1.1,60.008197119707226,
15,0,15,0,,,,,,,,,,3,1,3,z,27,1,3.044827724,3.321420384,"['b', 'b']",254.11371450000024,None,257.4535840000003,None,257.4535840000003,None,257.4637930600001,None,None,257.4535840000003,None,['z'],[0.5851567000004252],259.43045230000007,None,z,2.585156700000425,1,1,0.6875,262.4693892,None,None,262.4693892,None,,"[0.6264664000000266, 1.8509808999997404]",,,,,,,,,,,,,,,,,,,CBC_1001,001,4,2,5,0,0.8,2023-06-08_11h37.59.527,MSI_AV_v3,2022.1.1,60.008197119707226,
16,0,16,0,,,,,,,,,,1,1,0,b,63,1,2.278602942,2.573610938,None,264.4805967000002,None,267.06967570000006,None,267.06967570000006,None,267.0801808600003,None,['b'],267.06967570000006,None,None,,269.04819780000025,None,b,1.5686986999999135,1,1,0.7058823529411765,271.32969200000025,None,None,271.32969200000025,None,,,[1.5686986999999135],,,,,,,,,,,,,,,,,,CBC_1001,001,4,2,5,0,0.8,2023-06-08_11h37.59.527,MSI_AV_v3,2022.1.1,60.008197119707226,
17,0,17,0,,,,,,,,,,2,3,2,z,63,0,3.278108735,0.977134615,None,273.3305594000003,None,274.3002428,None,274.3002428,None,274.31314176999996,None,None,274.3002428,None,['z'],[1.1238359999997556],276.2806625000003,None,z,3.1238359999997556,1,0,0.7222222222222222,279.5490973000001,None,None,279.5490973000001,None,,,,,,,,,,,,,,,,,,,,,CBC_1001,001,4,2,5,0,0.8,2023-06-08_11h37.59.527,MSI_AV_v3,2022.1.1,60.008197119707226,
18,0,18,0,,,,,,,,,,0,0,2,b,27,1,2.397501916,2.495793893,None,281.5633554000001,None,284.0866146000003,None,284.0866146000003,None,284.0973395600003,None,['b'],284.0866146000003,None,None,,286.08050679999997,None,b,1.1492100000000391,1,1,0.7368421052631579,288.48818470000015,None,None,288.48818470000015,None,,,[1.1492100000000391],,,,,,,,,,,,,,,,,,CBC_1001,001,4,2,5,0,0.8,2023-06-08_11h37.59.527,MSI_AV_v3,2022.1.1,60.008197119707226,
19,0,19,0,,,,,,,,,,3,2,3,z,63,1,3.869831913,2.071213329,None,290.49748880000016,None,292.5876873000002,None,292.5876873000002,None,292.59742976,None,None,292.5876873000002,None,['z'],[0.32911330000024464],294.56338760000017,None,z,2.3291133000002446,1,1,0.75,298.4271199,None,None,298.4271199,None,,,,,,,,,,,,,,,,,,,,,CBC_1001,001,4,2,5,0,0.8,2023-06-08_11h37.59.527,MSI_AV_v3,2022.1.1,60.008197119707226,
20,0,20,0,,,,,,,,,,1,1,3,b,27,1,1.887650177,2.502774076,None,300.4307613000001,None,302.95332110000027,None,302.95332110000027,None,302.96368246000014,None,None,302.95332110000027,None,['b'],[0.6134987999998884],304.92986310000015,None,b,2.6134987999998884,1,1,0.7619047619047619,306.81096760000037,None,None,306.81096760000037,None,,,,,,,,,,,,,,,,,,,,,CBC_1001,001,4,2,5,0,0.8,2023-06-08_11h37.59.527,MSI_AV_v3,2022.1.1,60.008197119707226,
21,0,21,0,,,,,,,,,,2,2,3,b,63,1,1.556335756,1.293060736,None,308.8143433,None,310.0984257,None,310.0984257,None,310.0966257800003,None,None,310.0984257,None,['b'],[0.3266129000003275],312.0971297000001,None,b,2.3266129000003275,1,1,0.7727272727272727,313.6515237000003,None,None,313.6515237000003,None,,,,,,,,,,,,,,,,,,,,,CBC_1001,001,4,2,5,0,0.8,2023-06-08_11h37.59.527,MSI_AV_v3,2022.1.1,60.008197119707226,
22,0,22,0,,,,,,,,,,0,1,0,z,63,0,2.372527466,1.75396268,None,315.6640875000003,None,317.4309317000002,None,317.4309317000002,None,317.43053127000013,None,['z'],317.4309317000002,None,None,,319.43402110000034,None,z,1.5175524000001133,1,0,0.782608695652174,321.82003520000035,None,None,321.82003520000035,None,,,[1.5175524000001133],,,,,,,,,,,,,,,,,,CBC_1001,001,4,2,5,0,0.8,2023-06-08_11h37.59.527,MSI_AV_v3,2022.1.1,60.008197119707226,
23,0,23,0,,,,,,,,,,1,1,2,b,9,1,2.117809983,1.554037824,None,323.8308726,None,325.38461140000027,None,325.38461140000027,None,325.39647277000023,None,['b'],325.38461140000027,None,None,,327.38193920000003,None,b,1.581835299999966,1,1,0.7916666666666666,329.5054361000002,None,None,329.5054361000002,None,,,[1.581835299999966],,,,,,,,,,,,,,,,,,CBC_1001,001,4,2,5,0,0.8,2023-06-08_11h37.59.527,MSI_AV_v3,2022.1.1,60.008197119707226,
24,0,24,0,,,,,,,,,,2,3,2,z,63,1,2.949122761,2.684881281,None,331.51422870000033,None,334.2190409,None,334.2190409,None,334.23054436000024,None,['z'],334.2190409,None,None,,336.2135939,None,z,1.8842061000000285,1,1,0.8,339.1709745000003,None,None,339.1709745000003,None,,,[1.8842061000000285],,,,,,,,,,,,,,,,,,CBC_1001,001,4,2,5,0,0.8,2023-06-08_11h37.59.527,MSI_AV_v3,2022.1.1,60.008197119707226,
25,0,25,0,,,,,,,,,,3,3,2,b,63,0,4.21669271,2.232990834,None,341.1807192000001,None,343.4155502000003,None,343.4155502000003,None,343.41295918000037,None,None,343.4155502000003,None,['b'],[0.44767640000009123],345.3972440000002,None,b,2.4476764000000912,1,0,0.8076923076923077,349.6047972000001,None,None,349.6047972000001,None,,,,,,,,,,,,,,,,,,,,,CBC_1001,001,4,2,5,0,0.8,2023-06-08_11h37.59.527,MSI_AV_v3,2022.1.1,60.008197119707226,
26,0,26,0,,,,,,,,,,1,1,0,b,63,1,2.078483356,2.297139377,None,351.6143612000001,None,353.93577989999994,None,353.93577989999994,None,353.94712536000037,None,['b'],353.93577989999994,None,None,,355.9150993000003,None,b,1.7469248999996125,1,1,0.8148148148148148,358.0041034000001,None,None,358.0041034000001,None,,,[1.7469248999996125],,,,,,,,,,,,,,,,,,CBC_1001,001,4,2,5,0,0.8,2023-06-08_11h37.59.527,MSI_AV_v3,2022.1.1,60.008197119707226,
27,0,27,0,,,,,,,,,,0,2,0,z,27,1,1.610581685,1.313600181,None,360.0138935,None,361.3332617000001,None,361.3332617000001,None,361.34629406999994,None,['z'],361.3332617000001,None,None,,363.3317499,None,z,1.516401599999881,1,1,0.8214285714285714,364.9539073000001,None,None,364.9539073000001,None,,,[1.516401599999881],,,,,,,,,,,,,,,,,,CBC_1001,001,4,2,5,0,0.8,2023-06-08_11h37.59.527,MSI_AV_v3,2022.1.1,60.008197119707226,
28,0,28,0,,,,,,,,,,3,3,1,b,27,1,2.67601813,2.108332021,None,366.96400630000016,None,369.06431079999993,None,369.06431079999993,None,369.0634667800002,None,None,369.06431079999993,None,['z'],[0.3344741000000795],371.06390820000024,None,z,2.3344741000000795,0,0,0.7931034482758621,373.7343985000002,None,None,373.7343985000002,None,,,,,,,,,,,,,,,,,,,,,CBC_1001,001,4,2,5,0,0.8,2023-06-08_11h37.59.527,MSI_AV_v3,2022.1.1,60.008197119707226,
29,0,29,0,,,,,,,,,,0,0,1,b,63,1,2.0845750460000003,2.234398566,None,375.73109780000004,None,377.9864225000001,None,377.9864225000001,None,377.9973371600003,None,['b'],377.9864225000001,None,None,,379.98372940000036,None,b,1.4709995999996863,1,1,0.8,382.0703926000001,None,None,382.0703926000001,None,,,[1.4709995999996863],,,,,,,,,,,,,,,,,,CBC_1001,001,4,2,5,0,0.8,2023-06-08_11h37.59.527,MSI_AV_v3,2022.1.1,60.008197119707226,
30,0,30,0,,,,,,,,,,2,0,2,z,27,1,2.232488062,2.648704933,None,384.0801428,None,386.71914600000036,None,386.71914600000036,None,386.73031747000033,None,None,386.71914600000036,None,['z'],[0.05611799999996947],388.69771720000017,None,z,2.0561179999999695,1,1,0.8064516129032258,390.9201353000003,None,None,390.9201353000003,None,,,,,,,,,,,,,,,,,,,,,CBC_1001,001,4,2,5,0,0.8,2023-06-08_11h37.59.527,MSI_AV_v3,2022.1.1,60.008197119707226,
31,0,31,0,,,,,,,,,,3,3,2,b,63,1,4.268032915,3.274187802,None,392.9307337,None,396.21988880000026,None,396.21988880000026,None,396.2307323600002,None,['b'],396.21988880000026,None,None,,398.2138007000003,None,b,1.8963020000001052,1,1,0.8125,402.4899289,None,None,402.4899289,None,,,[1.8963020000001052],,,,,,,,,,,,,,,,,,CBC_1001,001,4,2,5,0,0.8,2023-06-08_11h37.59.527,MSI_AV_v3,2022.1.1,60.008197119707226,
32,0,32,0,,,,,,,,,,1,0,1,z,63,1,3.478547126,1.483424551,None,404.49679670000023,None,406.0043718000002,None,406.0043718000002,None,406.0142425600001,None,['z'],406.0043718000002,None,None,,407.99892260000024,None,z,1.2487684000002446,1,1,0.8181818181818182,411.48734000000013,None,None,411.48734000000013,None,,,[1.2487684000002446],,,,,,,,,,,,,,,,,,CBC_1001,001,4,2,5,0,0.8,2023-06-08_11h37.59.527,MSI_AV_v3,2022.1.1,60.008197119707226,
33,0,33,0,,,,,,,,,,0,1,0,z,63,1,4.309752164,2.962224669,None,413.4980071,None,416.48719040000015,None,416.48719040000015,None,416.49781105999995,None,['z'],416.48719040000015,None,None,,418.47979699999996,None,z,1.3421986000003017,1,1,0.8235294117647058,422.77996669999993,None,None,422.77996669999993,None,,,[1.3421986000003017],,,,,,,,,,,,,,,,,,CBC_1001,001,4,2,5,0,0.8,2023-06-08_11h37.59.527,MSI_AV_v3,2022.1.1,60.008197119707226,
34,0,34,0,,,,,,,,,,3,3,2,b,63,0,3.589438522,1.411911144,None,424.7813364000003,None,426.20206830000006,None,426.20206830000006,None,426.19749626999993,None,None,426.20206830000006,None,['b'],[0.7287100000003193],428.1811055000003,None,b,2.7287100000003193,1,0,0.8285714285714286,431.75295540000025,None,None,431.75295540000025,None,,,,,,,,,,,,,,,,,,,,,CBC_1001,001,4,2,5,0,0.8,2023-06-08_11h37.59.527,MSI_AV_v3,2022.1.1,60.008197119707226,
35,0,35,0,,,,,,,,,,2,0,2,z,27,1,1.543156518,1.910349838,None,433.7647245000003,None,435.66846970000006,None,435.66846970000006,None,435.6802544700002,None,['z'],435.66846970000006,None,None,,437.6663944000002,None,z,1.8918876000002456,1,1,0.8333333333333334,439.22118679999994,None,None,439.22118679999994,None,,,[1.8918876000002456],,,,,,,,,,,,,,,,,,CBC_1001,001,4,2,5,0,0.8,2023-06-08_11h37.59.527,MSI_AV_v3,2022.1.1,60.008197119707226,
36,0,36,0,,,,,,,,,,0,1,0,z,63,1,3.884449499,3.388090306,None,441.23145220000015,None,444.6359947000001,None,444.6359947000001,None,444.64796756000027,None,['z'],444.6359947000001,None,None,,446.6347326,None,z,1.1719153999997616,1,1,0.8378378378378378,450.5195031000003,None,None,450.5195031000003,None,,,[1.1719153999997616],,,,,,,,,,,,,,,,,,CBC_1001,001,4,2,5,0,0.8,2023-06-08_11h37.59.527,MSI_AV_v3,2022.1.1,60.008197119707226,
37,0,37,0,,,,,,,,,,1,3,1,z,27,1,2.518459073,3.264468617,None,452.53133019999996,None,455.80540080000037,None,455.80540080000037,None,455.8141005700002,None,['z'],455.80540080000037,None,None,,457.8133425000001,None,z,1.4469811999997546,1,1,0.8421052631578947,460.3385218000003,None,None,460.3385218000003,None,,,[1.4469811999997546],,,,,,,,,,,,,,,,,,CBC_1001,001,4,2,5,0,0.8,2023-06-08_11h37.59.527,MSI_AV_v3,2022.1.1,60.008197119707226,
38,0,38,0,,,,,,,,,,2,2,3,b,63,0,3.501824497,1.086048241,None,462.34775260000015,None,463.43494310000005,None,463.43494310000005,None,463.44681586999997,None,None,463.43494310000005,None,['b'],[0.9618212000000312],465.41476420000026,None,b,2.9618212000000312,1,0,0.8461538461538461,468.89612609999995,None,None,468.89612609999995,None,,,,,,,,,,,,,,,,,,,,,CBC_1001,001,4,2,5,0,0.8,2023-06-08_11h37.59.527,MSI_AV_v3,2022.1.1,60.008197119707226,
39,0,39,0,,,,,,,,,,3,2,3,z,63,1,2.242058058,1.915207301,None,470.897864,None,472.8376191000002,None,472.8376191000002,None,472.8481016600003,None,None,472.8376191000002,None,['b'],[0.3578319000002921],474.8149846000001,None,b,2.357831900000292,0,0,0.825,477.04497870000023,None,None,477.04497870000023,None,,,,,,,,,,,,,,,,,,,,,CBC_1001,001,4,2,5,0,0.8,2023-06-08_11h37.59.527,MSI_AV_v3,2022.1.1,60.008197119707226,
40,0,40,0,,,,,,,,,,1,1,0,b,63,1,3.622505815,2.757001452,None,479.0472501000004,None,481.82065490000014,None,481.82065490000014,None,481.8312572600002,None,['b'],481.82065490000014,None,None,,483.8109022000003,None,b,1.1933988000000681,1,1,0.8292682926829268,487.43794130000015,None,None,487.43794130000015,None,,,[1.1933988000000681],,,,,,,,,,,,,,,,,,CBC_1001,001,4,2,5,0,0.8,2023-06-08_11h37.59.527,MSI_AV_v3,2022.1.1,60.008197119707226,
41,0,41,0,,,,,,,,,,0,0,2,b,27,1,4.176609572,1.883772966,None,489.4482517000001,None,491.35238849999996,None,491.35238849999996,None,491.3644848600001,None,['b'],491.35238849999996,None,None,,493.3496100000002,None,b,1.4079689000000144,1,1,0.8333333333333334,497.5384704000003,None,None,497.5384704000003,None,,,[1.4079689000000144],,,,,,,,,,,,,,,,,,CBC_1001,001,4,2,5,0,0.8,2023-06-08_11h37.59.527,MSI_AV_v3,2022.1.1,60.008197119707226,
42,0,42,0,,,,,,,,,,3,0,3,z,9,1,1.90573091,1.84422311,None,499.5472162000001,None,501.404364,None,501.404364,None,501.41462736000034,None,None,501.404364,None,['z'],[0.7549550999997336],503.3813411000001,None,z,2.7549550999997336,1,1,0.8372093023255814,505.2744418000002,None,None,505.2744418000002,None,,,,,,,,,,,,,,,,,,,,,CBC_1001,001,4,2,5,0,0.8,2023-06-08_11h37.59.527,MSI_AV_v3,2022.1.1,60.008197119707226,
43,0,43,0,,,,,,,,,,2,2,3,b,63,1,3.956662465,2.407383959,None,507.28049750000037,None,509.6876258000002,None,509.6876258000002,None,509.69755427,None,None,509.6876258000002,None,['b'],[0.4829614999998739],511.66489950000005,None,b,2.482961499999874,1,1,0.8409090909090909,515.6064219,None,None,515.6064219,None,,,,,,,,,,,,,,,,,,,,,CBC_1001,001,4,2,5,0,0.8,2023-06-08_11h37.59.527,MSI_AV_v3,2022.1.1,60.008197119707226,
,,,,,,,,,,,,,,,,,,,,,,,,,,,,,,,,,,,,,,,,,,,,,,,,,,None,517.6148881000004,None,,,,,,,,,,,,,,,CBC_1001,001,4,2,5,0,0.8,2023-06-08_11h37.59.527,MSI_AV_v3,2022.1.1,60.008197119707226,
,,,,,,,,,,,,,,,,,,,,,,,,,,,,,,,,,,,,,,,,,,,,,,,,,,,,,522.6140493000003,None,None,522.6140493000003,None,,,,,,,,,,CBC_1001,001,4,2,5,0,0.8,2023-06-08_11h37.59.527,MSI_AV_v3,2022.1.1,60.008197119707226,
,,,,,,,,,,,,,,,,,,,,,,,,,,,,,,,,,,,,,,,,,,,,,,,,,,,,,,,,,,z,b,hard,"[0, 1, 2, 3]","[0, 1, 2, 3]",0.7272727272727273,0.8181818181818182,0.9090909090909091,0.9090909090909091,,,,,,,,,,,,
