trials_runs.thisRepN,trials_runs.thisTrialN,trials_runs.thisN,trials_runs.thisIndex,standbild_start.started,standbild_start.stopped,trigger.keys,trigger.rt,trigger.started,trigger.stopped,keys_2.keys,keys_2.started,keys_2.stopped,trials_runs.auditory_stim,trials_runs.visual_stim_left,trials_runs.visual_stim_right,trials_runs.correctKey,trials_runs.presentationFrequncy,trials_runs.FBaccuracy,trials_runs.ISI_s,trials_runs.ITI_s,keys_3.keys,keys_3.started,keys_3.stopped,ImageLeft_4.started,ImageLeft_4.stopped,ImageRight_4.started,ImageRight_4.stopped,sound_4.started,sound_4.stopped,response_4.keys,response_4.started,response_4.stopped,response_5.keys,response_5.rt,response_5.started,response_5.stopped,response_runs.keys,response_runs.rt,trials_runs.correct_answer,trials_runs.feedback_given,trials_runs.running_mean,feedback_6.started,feedback_6.stopped,keys_6.keys,keys_6.started,keys_6.stopped,response_4.rt,keys_7.keys,keys_7.started,keys_7.stopped,standbild_end.started,standbild_end.stopped,Stop_exp.keys,Stop_exp.started,Stop_exp.stopped,trials_runs.rightKey,trials_runs.leftKey,ts_difficulty,visualPair,audioPair,trials_runs.mean_acc_1stFourth,trials_runs.mean_acc_2ndFourth,trials_runs.mean_acc_3rdFourth,trials_runs.mean_acc_4thFourth,participant,session,visual set [1-6],audio set [1-3],trial structure [0-3 / 4-7],pairing [0-23],prob Feedback,date,expName,psychopyVersion,frameRate,
,,,,33.9557175000009,None,t,45.984186199999385,33.9557175000009,None,,,,,,,,,,,,,,,,,,,,,,,,,,,,,,,,,,,,,,,,,,,,,,,,,,,,,,,,CBC_1016,003,4,1,0,15,0.95,2023-06-25_15h20.06.953,MSI_AV_v3,2022.1.1,59.95947938329022,
,,,,,,,,,,None,79.96679159999985,None,,,,,,,,,,,,,,,,,,,,,,,,,,,,,,,,,,,,,,,,,,,,,,,,,,,,,CBC_1016,003,4,1,0,15,0.95,2023-06-25_15h20.06.953,MSI_AV_v3,2022.1.1,59.95947938329022,
0,0,0,0,,,,,,,,,,1,0.0,1.0,z,63.0,1.0,3.26539063535182,1.34668860557497,None,80.16710289999901,None,81.58682979999867,None,81.58682979999867,None,81.58360158000069,None,None,81.58682979999867,None,['z'],[0.35650669999813545],83.51707030000034,None,z,2.3565066999981354,1,1,1.0,86.776182900001,None,None,86.776182900001,None,,,,,,,,,,,,,,,,,,,CBC_1016,003,4,1,0,15,0.95,2023-06-25_15h20.06.953,MSI_AV_v3,2022.1.1,59.95947938329022,
1,0,1,0,,,,,,,,,,2,0.0,1.0,b,63.0,1.0,4.82531807167306,1.12425433982333,None,88.58379209999839,None,89.72129470000073,None,89.72129470000073,None,89.73335941999976,None,None,89.72129470000073,None,['b'],[0.22969200000079582],91.70007059999989,None,b,2.229692000000796,1,1,1.0,96.51730419999876,None,None,96.51730419999876,None,,,,,,,,,,,,,,,,,,,CBC_1016,003,4,1,0,15,0.95,2023-06-25_15h20.06.953,MSI_AV_v3,2022.1.1,59.95947938329022,
2,0,2,0,,,,,,,,,,0,2.0,3.0,z,63.0,1.0,4.190022164497369,0.77703640172831,None,98.3168454000006,None,99.10609199999817,None,99.10609199999817,None,99.11685221999942,None,['z'],99.10609199999817,None,None,,101.10131019999972,None,z,1.7795608000014909,1,1,1.0,105.29008650000105,None,None,105.29008650000105,None,[1.7795608000014909],,,,,,,,,,,,,,,,,,CBC_1016,003,4,1,0,15,0.95,2023-06-25_15h20.06.953,MSI_AV_v3,2022.1.1,59.95947938329022,
3,0,3,0,,,,,,,,,,1,2.0,1.0,z,9.0,1.0,4.52047235037039,1.53243550275999,None,107.10022889999891,None,108.6545311000009,None,108.6545311000009,None,108.65048913999782,None,['z'],108.6545311000009,None,None,,110.65056259999983,None,z,1.2209915999992518,1,1,1.0,115.17381079999905,None,None,115.17381079999905,None,[1.2209915999992518],,,,,,,,,,,,,,,,,,CBC_1016,003,4,1,0,15,0.95,2023-06-25_15h20.06.953,MSI_AV_v3,2022.1.1,59.95947938329022,
4,0,4,0,,,,,,,,,,2,0.0,2.0,b,27.0,1.0,2.7134565917469198,3.40155979865722,None,116.98352059999888,None,120.40473629999906,None,120.40473629999906,None,120.40023613999948,None,None,120.40473629999906,None,['b'],[0.2657913999973971],122.38373330000104,None,b,2.265791399997397,1,1,1.0,125.0835780999987,None,None,125.0835780999987,None,,,,,,,,,,,,,,,,,,,CBC_1016,003,4,1,0,15,0.95,2023-06-25_15h20.06.953,MSI_AV_v3,2022.1.1,59.95947938329022,
5,0,5,0,,,,,,,,,,3,2.0,3.0,b,63.0,1.0,4.61004669244928,1.90743690794447,None,126.88345409999965,None,128.80644200000097,None,128.80644200000097,None,128.81672001999758,None,None,128.80644200000097,None,['b'],[0.15061939999941387],130.78352280000036,None,b,2.150619399999414,1,1,1.0,135.38934700000027,None,None,135.38934700000027,None,,,,,,,,,,,,,,,,,,,CBC_1016,003,4,1,0,15,0.95,2023-06-25_15h20.06.953,MSI_AV_v3,2022.1.1,59.95947938329022,
6,0,6,0,,,,,,,,,,0,1.0,3.0,z,27.0,1.0,3.71372710086949,2.09887870490381,None,137.20058599999902,None,139.32239029999982,None,139.32239029999982,None,139.33371061999858,None,['z'],139.32239029999982,None,None,,141.31895539999823,None,z,1.3502090000001772,1,1,1.0,145.04094350000014,None,None,145.04094350000014,None,[1.3502090000001772],,,,,,,,,,,,,,,,,,CBC_1016,003,4,1,0,15,0.95,2023-06-25_15h20.06.953,MSI_AV_v3,2022.1.1,59.95947938329022,
7,0,7,0,,,,,,,,,,2,1.0,0.0,z,63.0,1.0,3.31929419319838,1.64421109900286,None,146.85027640000044,None,148.5040360999992,None,148.5040360999992,None,148.50048294000007,None,['z'],148.5040360999992,None,None,,150.49883129999944,None,z,1.7855873000007705,1,1,1.0,153.8245777000011,None,None,153.8245777000011,None,[1.7855873000007705],,,,,,,,,,,,,,,,,,CBC_1016,003,4,1,0,15,0.95,2023-06-25_15h20.06.953,MSI_AV_v3,2022.1.1,59.95947938329022,
8,0,8,0,,,,,,,,,,3,2.0,0.0,b,27.0,1.0,3.76873691643126,1.96568735158996,None,155.63325899999836,None,157.602598999998,None,157.602598999998,None,157.5995700599982,None,None,157.602598999998,None,['b'],[0.731954399998358],159.58379159999822,None,b,2.731954399998358,1,1,1.0,163.34958030000053,None,None,163.34958030000053,None,,,,,,,,,,,,,,,,,,,CBC_1016,003,4,1,0,15,0.95,2023-06-25_15h20.06.953,MSI_AV_v3,2022.1.1,59.95947938329022,
9,0,9,0,,,,,,,,,,0,2.0,3.0,z,63.0,1.0,4.01714354611405,1.25817747924478,None,165.15027579999878,None,166.42294390000097,None,166.42294390000097,None,166.43369641999814,None,None,166.42294390000097,None,['z'],[0.32604640000135987],168.40035160000116,None,z,2.32604640000136,1,1,1.0,172.41001219999816,None,None,172.41001219999816,None,,,,,,,,,,,,,,,,,,,CBC_1016,003,4,1,0,15,0.95,2023-06-25_15h20.06.953,MSI_AV_v3,2022.1.1,59.95947938329022,
10,0,10,0,,,,,,,,,,1,1.0,0.0,b,63.0,1.0,3.02234236141277,2.40378712856304,None,174.21692489999987,None,176.63446660000045,None,176.63446660000045,None,176.633951540001,None,['b'],176.63446660000045,None,None,,178.63066350000008,None,b,1.06003950000013,1,1,1.0,181.65370679999978,None,None,181.65370679999978,None,[1.06003950000013],,,,,,,,,,,,,,,,,,CBC_1016,003,4,1,0,15,0.95,2023-06-25_15h20.06.953,MSI_AV_v3,2022.1.1,59.95947938329022,
11,0,11,0,,,,,,,,,,2,0.0,1.0,b,63.0,1.0,3.2062024266105302,1.36309078069689,None,183.4672099999989,None,184.85499680000066,None,184.85499680000066,None,184.8668769199983,None,['b'],184.85499680000066,None,None,,186.8501314999994,None,b,1.3784051000002364,1,1,1.0,190.05724279999777,None,None,190.05724279999777,None,[1.3784051000002364],,,,,,,,,,,,,,,,,,CBC_1016,003,4,1,0,15,0.95,2023-06-25_15h20.06.953,MSI_AV_v3,2022.1.1,59.95947938329022,
12,0,12,0,,,,,,,,,,0,2.0,3.0,z,63.0,1.0,2.82320408183943,0.974903167432984,None,191.86696110000048,None,192.85458819999985,None,192.85458819999985,None,192.86689191999974,None,None,192.85458819999985,None,['z'],[0.2811247999998159],194.83346700000038,None,z,2.281124799999816,1,1,1.0,197.64495969999916,None,None,197.64495969999916,None,,,,,,,,,,,,,,,,,,,CBC_1016,003,4,1,0,15,0.95,2023-06-25_15h20.06.953,MSI_AV_v3,2022.1.1,59.95947938329022,
13,0,13,0,,,,,,,,,,3,2.0,0.0,b,27.0,1.0,4.12485271162806,1.94858485820231,None,199.45090640000126,None,201.4230619000009,None,201.4230619000009,None,201.43381301999833,None,None,201.4230619000009,None,['z'],[0.7342282999998133],203.3999588000006,None,z,2.7342282999998133,0,0,0.9285714285714286,207.50145150000026,None,None,207.50145150000026,None,,,,,,,,,,,,,,,,,,,CBC_1016,003,4,1,0,15,0.95,2023-06-25_15h20.06.953,MSI_AV_v3,2022.1.1,59.95947938329022,
14,0,14,0,,,,,,,,,,2,0.0,1.0,b,63.0,1.0,2.678526077912375,0.80788063606262,None,209.31707090000054,None,210.13853839999865,None,210.13853839999865,None,210.15031841999806,None,None,210.13853839999865,None,['b'],[0.288641799998004],212.11695229999896,None,b,2.288641799998004,1,1,0.9333333333333333,214.7871669999986,None,None,214.7871669999986,None,,,,,,,,,,,,,,,,,,,CBC_1016,003,4,1,0,15,0.95,2023-06-25_15h20.06.953,MSI_AV_v3,2022.1.1,59.95947938329022,
15,0,15,0,,,,,,,,,,1,1.0,3.0,b,27.0,1.0,2.2759877950103027,3.06992456303453,None,216.59935010000117,None,219.6830946000009,None,219.6830946000009,None,219.68344243999817,None,['b'],219.6830946000009,None,None,,221.66641199999867,None,b,1.2178795999971044,1,1,0.9375,223.94973639999807,None,None,223.94973639999807,None,[1.2178795999971044],,,,,,,,,,,,,,,,,,CBC_1016,003,4,1,0,15,0.95,2023-06-25_15h20.06.953,MSI_AV_v3,2022.1.1,59.95947938329022,
16,0,16,0,,,,,,,,,,3,3.0,2.0,z,63.0,1.0,2.342239579230602,1.52290599571961,None,225.75033469999835,None,227.28467459999956,None,227.28467459999956,None,227.28381514000066,None,None,227.28467459999956,None,['b'],[0.6404382000000624],229.26590719999876,None,b,2.6404382000000624,0,0,0.8823529411764706,231.59742249999908,None,None,231.59742249999908,None,,,,,,,,,,,,,,,,,,,CBC_1016,003,4,1,0,15,0.95,2023-06-25_15h20.06.953,MSI_AV_v3,2022.1.1,59.95947938329022,
17,0,17,0,,,,,,,,,,0,2.0,3.0,z,63.0,0.0,3.3728785608729996,2.10421507306074,None,233.40081780000037,None,235.52292250000028,None,235.52292250000028,None,235.53388232000069,None,['z'],235.52292250000028,None,None,,237.51698039999974,None,z,1.4372339000001375,1,0,0.8888888888888888,240.88946999999825,None,None,240.88946999999825,None,[1.4372339000001375],,,,,,,,,,,,,,,,,,CBC_1016,003,4,1,0,15,0.95,2023-06-25_15h20.06.953,MSI_AV_v3,2022.1.1,59.95947938329022,
18,0,18,0,,,,,,,,,,1,1.0,0.0,b,63.0,1.0,2.433630701072358,1.95130344756745,None,242.70036079999772,None,244.64968640000006,None,244.64968640000006,None,244.6492534599987,None,['b'],244.64968640000006,None,None,,246.64843969999856,None,b,1.2033879999980854,1,1,0.8947368421052632,249.0912028999992,None,None,249.0912028999992,None,[1.2033879999980854],,,,,,,,,,,,,,,,,,CBC_1016,003,4,1,0,15,0.95,2023-06-25_15h20.06.953,MSI_AV_v3,2022.1.1,59.95947938329022,
19,0,19,0,,,,,,,,,,2,2.0,0.0,z,27.0,1.0,2.666404967794728,1.1243895841892,None,250.90039999999863,None,252.0197490999999,None,252.0197490999999,None,252.01604215999976,None,None,252.0197490999999,None,['z'],[0.164899699997477],254.00054900000032,None,z,2.164899699997477,1,1,0.9,256.65959999999905,None,None,256.65959999999905,None,,,,,,,,,,,,,,,,,,,CBC_1016,003,4,1,0,15,0.95,2023-06-25_15h20.06.953,MSI_AV_v3,2022.1.1,59.95947938329022,
20,0,20,0,,,,,,,,,,0,0.0,3.0,z,9.0,1.0,4.72585056748869,3.1424449555106,None,258.4678294000005,None,261.62244459999783,None,261.62244459999783,None,261.6340910199986,None,None,261.62244459999783,None,['z'],[0.6175490999994508],263.60071609999795,None,z,2.617549099999451,1,1,0.9047619047619048,268.31405050000103,None,None,268.31405050000103,None,,,,,,,,,,,,,,,,,,,CBC_1016,003,4,1,0,15,0.95,2023-06-25_15h20.06.953,MSI_AV_v3,2022.1.1,59.95947938329022,
21,0,21,0,,,,,,,,,,3,2.0,3.0,b,63.0,1.0,2.496959177995529,0.979776149765883,None,270.1162144000009,None,271.103733699998,None,271.103733699998,None,271.1004121399979,None,None,271.103733699998,None,['b'],[0.17692729999907897],273.08374320000075,None,b,2.176927299999079,1,1,0.9090909090909091,275.56096590000016,None,None,275.56096590000016,None,,,,,,,,,,,,,,,,,,,CBC_1016,003,4,1,0,15,0.95,2023-06-25_15h20.06.953,MSI_AV_v3,2022.1.1,59.95947938329022,
22,0,22,0,,,,,,,,,,1,3.0,1.0,z,27.0,1.0,2.294664843639333,3.1963008326951,None,277.36734739999883,None,280.56982570000037,None,280.56982570000037,None,280.5669835600005,None,['z'],280.56982570000037,None,None,,282.56859070000064,None,z,0.9244808000003104,1,1,0.9130434782608695,284.87274700000125,None,None,284.87274700000125,None,[0.9244808000003104],,,,,,,,,,,,,,,,,,CBC_1016,003,4,1,0,15,0.95,2023-06-25_15h20.06.953,MSI_AV_v3,2022.1.1,59.95947938329022,
23,0,23,0,,,,,,,,,,3,3.0,2.0,z,63.0,1.0,2.592312596923728,1.38289892513751,None,286.68378400000074,None,288.06981339999766,None,288.06981339999766,None,288.06627416000117,None,None,288.06981339999766,None,['b'],[0.5225389000006544],290.067168900001,None,b,2.5225389000006544,0,0,0.875,292.6447531999984,None,None,292.6447531999984,None,,,,,,,,,,,,,,,,,,,CBC_1016,003,4,1,0,15,0.95,2023-06-25_15h20.06.953,MSI_AV_v3,2022.1.1,59.95947938329022,
24,0,24,0,,,,,,,,,,0,2.0,3.0,z,63.0,1.0,3.6438386551209,1.43470440954152,None,294.4507928999992,None,295.88433539999824,None,295.88433539999824,None,295.8830882599999,None,None,295.88433539999824,None,['z'],[0.13106340000013006],297.86711730000025,None,z,2.13106340000013,1,1,0.88,301.50269059999846,None,None,301.50269059999846,None,,,,,,,,,,,,,,,,,,,CBC_1016,003,4,1,0,15,0.95,2023-06-25_15h20.06.953,MSI_AV_v3,2022.1.1,59.95947938329022,
25,0,25,0,,,,,,,,,,1,1.0,0.0,b,63.0,1.0,2.526044641065533,2.22427187882546,None,303.3164007999985,None,305.5554321999989,None,305.5554321999989,None,305.5673947199983,None,None,305.5554321999989,None,['b'],[0.5046094999997877],307.5342806999979,None,b,2.5046094999997877,1,1,0.8846153846153846,310.043192000001,None,None,310.043192000001,None,,,,,,,,,,,,,,,,,,,CBC_1016,003,4,1,0,15,0.95,2023-06-25_15h20.06.953,MSI_AV_v3,2022.1.1,59.95947938329022,
26,0,26,0,,,,,,,,,,2,0.0,3.0,b,9.0,1.0,4.53337421950507,1.25920145784721,None,311.8505632999986,None,313.1217575999981,None,313.1217575999981,None,313.13385651999926,None,['b'],313.1217575999981,None,None,,315.1153931999979,None,b,1.380893699999433,1,1,0.8888888888888888,319.6552101999987,None,None,319.6552101999987,None,[1.380893699999433],,,,,,,,,,,,,,,,,,CBC_1016,003,4,1,0,15,0.95,2023-06-25_15h20.06.953,MSI_AV_v3,2022.1.1,59.95947938329022,
27,0,27,0,,,,,,,,,,0,2.0,3.0,z,63.0,1.0,2.693348633324513,0.917519910446003,None,321.4667999000012,None,322.4064803000001,None,322.4064803000001,None,322.4175139199986,None,['b'],322.4064803000001,None,None,,324.4011952000001,None,b,1.8988677000015741,0,0,0.8571428571428571,327.1064602000006,None,None,327.1064602000006,None,[1.8988677000015741],,,,,,,,,,,,,,,,,,CBC_1016,003,4,1,0,15,0.95,2023-06-25_15h20.06.953,MSI_AV_v3,2022.1.1,59.95947938329022,
28,0,28,0,,,,,,,,,,3,2.0,0.0,b,27.0,1.0,4.77723667052879,2.78346932462847,None,328.9165718000004,None,331.7005892999987,None,331.7005892999987,None,331.7000632599978,None,['b'],331.7005892999987,None,None,,333.7193927999979,None,b,1.7141632999991998,1,1,0.8620689655172413,338.50861670000086,None,None,338.50861670000086,None,[1.7141632999991998],,,,,,,,,,,,,,,,,,CBC_1016,003,4,1,0,15,0.95,2023-06-25_15h20.06.953,MSI_AV_v3,2022.1.1,59.95947938329022,
29,0,29,0,,,,,,,,,,2,1.0,0.0,z,63.0,1.0,2.6391747348430608,3.33124983260532,None,340.31728379999913,None,343.6688639999993,None,343.6688639999993,None,343.6671412400006,None,['z'],343.6688639999993,None,None,,345.66319139999905,None,z,1.6246080000018992,1,1,0.8666666666666667,348.30675039999915,None,None,348.30675039999915,None,[1.6246080000018992],,,,,,,,,,,,,,,,,,CBC_1016,003,4,1,0,15,0.95,2023-06-25_15h20.06.953,MSI_AV_v3,2022.1.1,59.95947938329022,
30,0,30,0,,,,,,,,,,1,1.0,0.0,b,63.0,1.0,4.11514536789087,3.4543169006169,None,350.1172363000005,None,353.5903779,None,353.5903779,None,353.60106521999916,None,['b'],353.5903779,None,None,,355.5871406999977,None,b,1.0207535999979882,1,1,0.8709677419354839,359.69962569999916,None,None,359.69962569999916,None,[1.0207535999979882],,,,,,,,,,,,,,,,,,CBC_1016,003,4,1,0,15,0.95,2023-06-25_15h20.06.953,MSI_AV_v3,2022.1.1,59.95947938329022,
31,0,31,0,,,,,,,,,,0,3.0,1.0,b,27.0,1.0,3.73326136168326,1.60731937853708,None,361.5009530999996,None,363.1229850999989,None,363.1229850999989,None,363.1339244199997,None,['b'],363.1229850999989,None,None,,365.12367520000043,None,b,1.697438899998815,1,1,0.875,368.85531999999876,None,None,368.85531999999876,None,[1.697438899998815],,,,,,,,,,,,,,,,,,CBC_1016,003,4,1,0,15,0.95,2023-06-25_15h20.06.953,MSI_AV_v3,2022.1.1,59.95947938329022,
32,0,32,0,,,,,,,,,,3,3.0,2.0,z,63.0,1.0,4.40017271499661,1.27538462653558,None,370.66733659999954,None,371.9551642000006,None,371.9551642000006,None,371.96728051999963,None,['z'],371.9551642000006,None,None,,373.9506192000008,None,z,1.677892100000463,1,1,0.8787878787878788,378.363937099999,None,None,378.363937099999,None,[1.677892100000463],,,,,,,,,,,,,,,,,,CBC_1016,003,4,1,0,15,0.95,2023-06-25_15h20.06.953,MSI_AV_v3,2022.1.1,59.95947938329022,
33,0,33,0,,,,,,,,,,1,1.0,0.0,b,63.0,1.0,3.68371079902891,2.96653053743745,None,380.16640729999926,None,383.15645569999833,None,383.15645569999833,None,383.1673242199984,None,['b'],383.15645569999833,None,None,,385.1359663000003,None,b,1.4757362000018475,1,1,0.8823529411764706,388.82516789999863,None,None,388.82516789999863,None,[1.4757362000018475],,,,,,,,,,,,,,,,,,CBC_1016,003,4,1,0,15,0.95,2023-06-25_15h20.06.953,MSI_AV_v3,2022.1.1,59.95947938329022,
34,0,34,0,,,,,,,,,,2,0.0,1.0,b,63.0,1.0,4.77034425507967,2.6299100644723,None,390.6331752999977,None,393.25265020000006,None,393.25265020000006,None,393.2502026599999,None,['b'],393.25265020000006,None,None,,395.2532285999987,None,b,1.5167951000003086,1,1,0.8857142857142857,400.02477200000067,None,None,400.02477200000067,None,[1.5167951000003086],,,,,,,,,,,,,,,,,,CBC_1016,003,4,1,0,15,0.95,2023-06-25_15h20.06.953,MSI_AV_v3,2022.1.1,59.95947938329022,
35,0,35,0,,,,,,,,,,3,1.0,2.0,z,9.0,1.0,2.792365600763554,1.78643585472448,None,401.8348753999999,None,403.6396430999994,None,403.6396430999994,None,403.6510515199996,None,['z'],403.6396430999994,None,None,,405.62019619999774,None,z,1.2162533999980951,1,1,0.8888888888888888,408.4003788000009,None,None,408.4003788000009,None,[1.2162533999980951],,,,,,,,,,,,,,,,,,CBC_1016,003,4,1,0,15,0.95,2023-06-25_15h20.06.953,MSI_AV_v3,2022.1.1,59.95947938329022,
36,0,36,0,,,,,,,,,,2,1.0,0.0,z,63.0,1.0,4.46924002178158,0.952147612306987,None,410.2010087999988,None,411.15646039999774,None,411.15646039999774,None,411.16644903999764,None,['z'],411.15646039999774,None,None,,413.15065010000035,None,z,1.7287404000016977,1,1,0.8918918918918919,417.6244583999978,None,None,417.6244583999978,None,[1.7287404000016977],,,,,,,,,,,,,,,,,,CBC_1016,003,4,1,0,15,0.95,2023-06-25_15h20.06.953,MSI_AV_v3,2022.1.1,59.95947938329022,
37,0,37,0,,,,,,,,,,0,3.0,1.0,b,27.0,1.0,2.629554641171433,1.21250262048173,None,419.43438799999785,None,420.6583079999982,None,420.6583079999982,None,420.66782182000026,None,['b'],420.6583079999982,None,None,,422.6528264000008,None,b,1.074110199999268,1,1,0.8947368421052632,425.2903688999977,None,None,425.2903688999977,None,[1.074110199999268],,,,,,,,,,,,,,,,,,CBC_1016,003,4,1,0,15,0.95,2023-06-25_15h20.06.953,MSI_AV_v3,2022.1.1,59.95947938329022,
38,0,38,0,,,,,,,,,,1,0.0,1.0,z,63.0,1.0,3.7500315165247198,1.18065738546375,None,427.1007944000012,None,428.3045259999999,None,428.3045259999999,None,428.30108694000006,None,['z'],428.3045259999999,None,None,,430.29972819999966,None,z,0.8308964999996533,1,1,0.8974358974358975,434.0503089999984,None,None,434.0503089999984,None,[0.8308964999996533],,,,,,,,,,,,,,,,,,CBC_1016,003,4,1,0,15,0.95,2023-06-25_15h20.06.953,MSI_AV_v3,2022.1.1,59.95947938329022,
39,0,39,0,,,,,,,,,,3,2.0,3.0,b,63.0,0.0,3.35133458220192,1.53122835510861,None,435.8515542999994,None,437.40506639999876,None,437.40506639999876,None,437.4176355200005,None,['b'],437.40506639999876,None,None,,439.40672769999946,None,b,1.3092816999960633,1,0,0.9,442.75584159999926,None,None,442.75584159999926,None,[1.3092816999960633],,,,,,,,,,,,,,,,,,CBC_1016,003,4,1,0,15,0.95,2023-06-25_15h20.06.953,MSI_AV_v3,2022.1.1,59.95947938329022,
40,0,40,0,,,,,,,,,,2,2.0,0.0,z,27.0,1.0,2.517541937862754,2.15533949826702,None,444.567736099998,None,446.7193260999993,None,446.7193260999993,None,446.71658786000114,None,['z'],446.7193260999993,None,None,,448.7343910999989,None,z,1.641333499999746,1,1,0.9024390243902439,451.25758739999947,None,None,451.25758739999947,None,[1.641333499999746],,,,,,,,,,,,,,,,,,CBC_1016,003,4,1,0,15,0.95,2023-06-25_15h20.06.953,MSI_AV_v3,2022.1.1,59.95947938329022,
41,0,41,0,,,,,,,,,,0,3.0,2.0,b,63.0,1.0,2.92731383428727,3.24569326556923,None,453.06760679999934,None,456.32379579999906,None,456.32379579999906,None,456.33439212000013,None,['b'],456.32379579999906,None,None,,458.3161431000008,None,b,1.56244069999957,1,1,0.9047619047619048,461.24197509999794,None,None,461.24197509999794,None,[1.56244069999957],,,,,,,,,,,,,,,,,,CBC_1016,003,4,1,0,15,0.95,2023-06-25_15h20.06.953,MSI_AV_v3,2022.1.1,59.95947938329022,
42,0,42,0,,,,,,,,,,1,3.0,1.0,z,27.0,1.0,2.91303524001082,0.761758675042088,None,463.0531884999982,None,463.8216011000004,None,463.8216011000004,None,463.81762093999856,None,['z'],463.8216011000004,None,None,,465.8169693999989,None,z,0.9194229999993695,1,1,0.9069767441860465,468.74180129999877,None,None,468.74180129999877,None,[0.9194229999993695],,,,,,,,,,,,,,,,,,CBC_1016,003,4,1,0,15,0.95,2023-06-25_15h20.06.953,MSI_AV_v3,2022.1.1,59.95947938329022,
43,0,43,0,,,,,,,,,,3,2.0,3.0,b,63.0,1.0,4.7533305109883095,2.49839527409216,None,470.5512240999997,None,473.07154979999905,None,473.07154979999905,None,473.06769133999984,None,['b'],473.07154979999905,None,None,,475.05120850000094,None,b,1.9416856999996526,1,1,0.9090909090909091,479.8011676999995,None,None,479.8011676999995,None,[1.9416856999996526],,,,,,,,,,,,,,,,,,CBC_1016,003,4,1,0,15,0.95,2023-06-25_15h20.06.953,MSI_AV_v3,2022.1.1,59.95947938329022,
,,,,,,,,,,,,,,,,,,,,,,,,,,,,,,,,,,,,,,,,,,,,,,,,None,481.60136409999905,None,,,,,,,,,,,,,,,CBC_1016,003,4,1,0,15,0.95,2023-06-25_15h20.06.953,MSI_AV_v3,2022.1.1,59.95947938329022,
,,,,,,,,,,,,,,,,,,,,,,,,,,,,,,,,,,,,,,,,,,,,,,,,,,,486.6014202999977,None,None,486.6014202999977,None,,,,,,,,,,CBC_1016,003,4,1,0,15,0.95,2023-06-25_15h20.06.953,MSI_AV_v3,2022.1.1,59.95947938329022,
,,,,,,,,,,,,,,,,,,,,,,,,,,,,,,,,,,,,,,,,,,,,,,,,,,,,,,,,z,b,hard,"[0, 1, 2, 3]","[2, 1, 3, 0]",1.0,0.8181818181818182,0.8181818181818182,1.0,,,,,,,,,,,,
