trials_runs.thisRepN,trials_runs.thisTrialN,trials_runs.thisN,trials_runs.thisIndex,standbild_start.started,standbild_start.stopped,trigger.keys,trigger.rt,trigger.started,trigger.stopped,keys_2.keys,keys_2.started,keys_2.stopped,trials_runs.auditory_stim,trials_runs.visual_stim_left,trials_runs.visual_stim_right,trials_runs.correctKey,trials_runs.presentationFrequncy,trials_runs.FBaccuracy,trials_runs.ISI_s,trials_runs.ITI_s,keys_3.keys,keys_3.started,keys_3.stopped,ImageLeft_4.started,ImageLeft_4.stopped,ImageRight_4.started,ImageRight_4.stopped,sound_4.started,sound_4.stopped,response_4.keys,response_4.started,response_4.stopped,response_5.keys,response_5.rt,response_5.started,response_5.stopped,response_runs.keys,response_runs.rt,trials_runs.correct_answer,trials_runs.feedback_given,trials_runs.running_mean,feedback_6.started,feedback_6.stopped,keys_6.keys,keys_6.started,keys_6.stopped,response_4.rt,keys_3.rt,keys_6.rt,keys_7.keys,keys_7.started,keys_7.stopped,standbild_end.started,standbild_end.stopped,Stop_exp.keys,Stop_exp.started,Stop_exp.stopped,trials_runs.rightKey,trials_runs.leftKey,ts_difficulty,visualPair,audioPair,trials_runs.mean_acc_1stFourth,trials_runs.mean_acc_2ndFourth,trials_runs.mean_acc_3rdFourth,trials_runs.mean_acc_4thFourth,nbCorrect,nbOmissions,nbIncorrect,participant,session,visual set [1-6],audio set [1-3],trial structure [0-3 / 4-7],pairing [0-23],prob Feedback,date,expName,psychopyVersion,frameRate,
,,,,18.976841700001387,None,t,61.28132509999887,18.976841700001387,None,,,,,,,,,,,,,,,,,,,,,,,,,,,,,,,,,,,,,,,,,,,,,,,,,,,,,,,,,,,,,CBC_1026,4,1,3,6,1,0.95,2023-07-20_13h03.59.061,MSI_AV_v3,2022.1.1,60.04293069578279,
,,,,,,,,,,None,80.2782360000001,None,,,,,,,,,,,,,,,,,,,,,,,,,,,,,,,,,,,,,,,,,,,,,,,,,,,,,,,,,,CBC_1026,4,1,3,6,1,0.95,2023-07-20_13h03.59.061,MSI_AV_v3,2022.1.1,60.04293069578279,
0,0,0,0,,,,,,,,,,0,0.0,1.0,b,63.0,1.0,2.92731383428727,1.90743690794447,None,80.47822410000117,None,82.47637610000129,None,82.47637610000129,None,82.47783861999996,None,None,82.47637610000129,None,['z'],[0.5232943999999407],84.3778510000011,None,z,2.5232943999999407,0,0,0.0,87.31801900000028,None,None,87.31801900000028,None,,,,,,,,,,,,,,,,,,,,,,,,CBC_1026,4,1,3,6,1,0.95,2023-07-20_13h03.59.061,MSI_AV_v3,2022.1.1,60.04293069578279,
1,0,1,0,,,,,,,,,,3,3.0,2.0,z,63.0,1.0,4.77034425507967,1.18065738546375,None,89.12799890000133,None,90.33601610000005,None,90.33601610000005,None,90.34467065999998,None,None,90.33601610000005,None,['z'],[0.9778879000004963],92.31155000000035,None,z,2.9778879000004963,1,1,0.5,97.0631484000005,None,None,97.0631484000005,None,,,,,,,,,,,,,,,,,,,,,,,,CBC_1026,4,1,3,6,1,0.95,2023-07-20_13h03.59.061,MSI_AV_v3,2022.1.1,60.04293069578279,
2,0,2,0,,,,,,,,,,0,0.0,2.0,b,27.0,1.0,2.7134565917469198,2.09887870490381,None,98.87835480000103,None,101.00143510000089,None,101.00143510000089,None,101.01202096000016,None,None,101.00143510000089,None,['b'],[0.580331600000136],102.9777522000004,None,b,2.580331600000136,1,1,0.6666666666666666,105.67362800000046,None,None,105.67362800000046,None,,,,,,,,,,,,,,,,,,,,,,,,CBC_1026,4,1,3,6,1,0.95,2023-07-20_13h03.59.061,MSI_AV_v3,2022.1.1,60.04293069578279,
3,0,3,0,,,,,,,,,,1,1.0,0.0,b,63.0,1.0,4.40017271499661,1.1243895841892,None,107.47827240000152,None,108.63162200000079,None,108.63162200000079,None,108.62925106000075,None,None,108.63162200000079,None,['z'],[0.8131030999993527],110.59420130000035,None,z,2.8131030999993527,0,0,0.5,114.98230409999996,None,None,114.98230409999996,None,,,,,,,,,,,,,,,,,,,,,,,,CBC_1026,4,1,3,6,1,0.95,2023-07-20_13h03.59.061,MSI_AV_v3,2022.1.1,60.04293069578279,
4,0,4,0,,,,,,,,,,1,0.0,1.0,z,63.0,1.0,2.526044641065533,2.15533949826702,None,116.79524860000129,None,118.96755060000032,None,118.96755060000032,None,118.97863896000054,None,None,118.96755060000032,None,['z'],[1.1404244000004837],120.94448040000134,None,z,3.1404244000004837,1,1,0.6,123.4488652,None,None,123.4488652,None,,,,,,,,,,,,,,,,,,,,,,,,CBC_1026,4,1,3,6,1,0.95,2023-07-20_13h03.59.061,MSI_AV_v3,2022.1.1,60.04293069578279,
5,0,5,0,,,,,,,,,,3,3.0,2.0,z,63.0,1.0,4.190022164497369,0.761758675042088,None,125.26172970000152,None,126.01945090000117,None,126.01945090000117,None,126.0280359200009,None,None,126.01945090000117,None,['b'],[0.9937093000007735],128.0117525000005,None,b,2.9937093000007735,0,0,0.5,132.19592190000003,None,None,132.19592190000003,None,,,,,,,,,,,,,,,,,,,,,,,,CBC_1026,4,1,3,6,1,0.95,2023-07-20_13h03.59.061,MSI_AV_v3,2022.1.1,60.04293069578279,
6,0,6,0,,,,,,,,,,2,3.0,1.0,b,27.0,1.0,4.82531807167306,3.4543169006169,None,134.01160850000088,None,137.49982570000066,None,137.49982570000066,None,137.49537945999984,None,None,137.49982570000066,None,['b'],[0.698767100000623],139.46176370000103,None,b,2.698767100000623,1,1,0.5714285714285714,144.26987480000025,None,None,144.26987480000025,None,,,,,,,,,,,,,,,,,,,,,,,,CBC_1026,4,1,3,6,1,0.95,2023-07-20_13h03.59.061,MSI_AV_v3,2022.1.1,60.04293069578279,
7,0,7,0,,,,,,,,,,3,1.0,2.0,z,9.0,1.0,2.666404967794728,1.12425433982333,None,146.0782880000006,None,147.21776180000052,None,147.21776180000052,None,147.22871555999993,None,None,147.21776180000052,None,['b'],[0.8699512999992294],149.19443430000138,None,b,2.8699512999992294,0,0,0.5,151.850009400001,None,None,151.850009400001,None,,,,,,,,,,,,,,,,,,,,,,,,CBC_1026,4,1,3,6,1,0.95,2023-07-20_13h03.59.061,MSI_AV_v3,2022.1.1,60.04293069578279,
8,0,8,0,,,,,,,,,,1,3.0,1.0,z,27.0,1.0,3.73326136168326,1.34668860557497,None,153.66197270000157,None,155.03387060000023,None,155.03387060000023,None,155.04537165999974,None,None,155.03387060000023,None,['b'],[0.5349260000002687],157.0115463000002,None,b,2.5349260000002687,0,0,0.4444444444444444,160.72805120000157,None,None,160.72805120000157,None,,,,,,,,,,,,,,,,,,,,,,,,CBC_1026,4,1,3,6,1,0.95,2023-07-20_13h03.59.061,MSI_AV_v3,2022.1.1,60.04293069578279,
9,0,9,0,,,,,,,,,,2,3.0,2.0,b,63.0,1.0,4.01714354611405,1.96568735158996,None,162.52859750000061,None,164.4978067000011,None,164.4978067000011,None,164.51120612000014,None,None,164.4978067000011,None,['b'],[0.5211994000001141],166.47859410000092,None,b,2.521199400000114,1,1,0.5,170.48633270000028,None,None,170.48633270000028,None,,,,,,,,,,,,,,,,,,,,,,,,CBC_1026,4,1,3,6,1,0.95,2023-07-20_13h03.59.061,MSI_AV_v3,2022.1.1,60.04293069578279,
10,0,10,0,,,,,,,,,,1,1.0,0.0,b,63.0,1.0,3.2062024266105302,3.1424449555106,None,172.2943774000014,None,175.45200620000105,None,175.45200620000105,None,175.46224295999966,None,None,175.45200620000105,None,['z'],[0.5150254000000132],177.42769580000095,None,z,2.515025400000013,0,0,0.45454545454545453,180.61914830000023,None,None,180.61914830000023,None,,,,,,,,,,,,,,,,,,,,,,,,CBC_1026,4,1,3,6,1,0.95,2023-07-20_13h03.59.061,MSI_AV_v3,2022.1.1,60.04293069578279,
11,0,11,0,,,,,,,,,,3,0.0,2.0,z,27.0,1.0,4.72585056748869,2.78346932462847,None,182.42787339999995,None,185.21989230000145,None,185.21989230000145,None,185.2284239200002,None,None,185.21989230000145,None,['b'],[0.6160429999999906],187.2115002999999,None,b,2.6160429999999906,0,0,0.4166666666666667,191.9347093000015,None,None,191.9347093000015,None,,,,,,,,,,,,,,,,,,,,,,,,CBC_1026,4,1,3,6,1,0.95,2023-07-20_13h03.59.061,MSI_AV_v3,2022.1.1,60.04293069578279,
12,0,12,0,,,,,,,,,,2,3.0,2.0,b,63.0,0.0,4.77723667052879,2.6299100644723,None,193.74556770000163,None,196.4003560000001,None,196.4003560000001,None,196.39599751999995,None,None,196.4003560000001,None,['b'],[0.9642870999996376],198.378534200001,None,b,2.9642870999996376,1,0,0.46153846153846156,203.14132940000127,None,None,203.14132940000127,None,,,,,,,,,,,,,,,,,,,,,,,,CBC_1026,4,1,3,6,1,0.95,2023-07-20_13h03.59.061,MSI_AV_v3,2022.1.1,60.04293069578279,
13,0,13,0,,,,,,,,,,0,1.0,0.0,z,63.0,1.0,3.7500315165247198,0.80788063606262,None,204.94580530000167,None,205.76758719999998,None,205.76758719999998,None,205.77906175999962,None,None,205.76758719999998,None,['b'],[0.7930606999998417],207.74508109999988,None,b,2.7930606999998417,0,0,0.42857142857142855,211.48195680000026,None,None,211.48195680000026,None,,,,,,,,,,,,,,,,,,,,,,,,CBC_1026,4,1,3,6,1,0.95,2023-07-20_13h03.59.061,MSI_AV_v3,2022.1.1,60.04293069578279,
14,0,14,0,,,,,,,,,,3,2.0,3.0,b,63.0,1.0,2.592312596923728,1.27538462653558,None,213.29523410000002,None,214.58454110000093,None,214.58454110000093,None,214.59570396000092,None,['z'],214.58454110000093,None,None,,216.57893970000077,None,z,1.567824899999323,0,0,0.4,219.16725420000148,None,None,219.16725420000148,None,[1.567824899999323],,,,,,,,,,,,,,,,,,,,,,,CBC_1026,4,1,3,6,1,0.95,2023-07-20_13h03.59.061,MSI_AV_v3,2022.1.1,60.04293069578279,
15,0,15,0,,,,,,,,,,0,0.0,2.0,b,27.0,1.0,3.76873691643126,1.25920145784721,None,220.97820420000062,None,222.25048330000027,None,222.25048330000027,None,222.26260446000126,None,None,222.25048330000027,None,['b'],[0.8341169000013906],224.22909150000123,None,b,2.8341169000013906,1,1,0.4375,227.99522969999998,None,None,227.99522969999998,None,,,,,,,,,,,,,,,,,,,,,,,,CBC_1026,4,1,3,6,1,0.95,2023-07-20_13h03.59.061,MSI_AV_v3,2022.1.1,60.04293069578279,
16,0,16,0,,,,,,,,,,2,2.0,3.0,z,63.0,1.0,2.6391747348430608,2.49839527409216,None,229.79579530000046,None,232.31963090000136,None,232.31963090000136,None,232.32954296000136,None,None,232.31963090000136,None,['z'],[2.532199200000832],234.29569960000117,None,z,4.532199200000832,1,1,0.47058823529411764,236.93027800000164,None,None,236.93027800000164,None,,,,,,,,,,,,,,,,,,,,,,,,CBC_1026,4,1,3,6,1,0.95,2023-07-20_13h03.59.061,MSI_AV_v3,2022.1.1,60.04293069578279,
17,0,17,0,,,,,,,,,,2,3.0,2.0,b,63.0,1.0,2.294664843639333,1.78643585472448,None,238.74492650000138,None,240.55113170000004,None,240.55113170000004,None,240.56252935999984,None,None,240.55113170000004,None,['b'],[0.37635520000003453],242.52907200000118,None,b,2.3763552000000345,1,1,0.5,244.81659750000108,None,None,244.81659750000108,None,,,,,,,,,,,,,,,,,,,,,,,,CBC_1026,4,1,3,6,1,0.95,2023-07-20_13h03.59.061,MSI_AV_v3,2022.1.1,60.04293069578279,
18,0,18,0,,,,,,,,,,1,3.0,1.0,z,27.0,1.0,4.46924002178158,3.33124983260532,None,246.6290538000012,None,249.95777970000017,None,249.95777970000017,None,249.96255152000086,None,None,249.95777970000017,None,['z'],[0.785842600000251],251.94588730000032,None,z,2.785842600000251,1,1,0.5263157894736842,256.40477009999995,None,None,256.40477009999995,None,,,,,,,,,,,,,,,,,,,,,,,,CBC_1026,4,1,3,6,1,0.95,2023-07-20_13h03.59.061,MSI_AV_v3,2022.1.1,60.04293069578279,
19,0,19,0,,,,,,,,,,2,0.0,3.0,z,9.0,1.0,2.433630701072358,0.979776149765883,None,258.21170600000005,None,259.18033710000054,None,259.18033710000054,None,259.1783299800005,None,None,259.18033710000054,None,['z'],[0.5719890000000305],261.16230520000136,None,z,2.5719890000000305,1,1,0.55,263.5926206000004,None,None,263.5926206000004,None,,,,,,,,,,,,,,,,,,,,,,,,CBC_1026,4,1,3,6,1,0.95,2023-07-20_13h03.59.061,MSI_AV_v3,2022.1.1,60.04293069578279,
20,0,20,0,,,,,,,,,,1,1.0,0.0,b,63.0,1.0,4.12485271162806,1.52290599571961,None,265.39554540000063,None,266.9120631000005,None,266.9120631000005,None,266.91149008000104,None,None,266.9120631000005,None,['b'],[0.38708240000050864],268.8955614000006,None,b,2.3870824000005086,1,1,0.5714285714285714,273.0092020000011,None,None,273.0092020000011,None,,,,,,,,,,,,,,,,,,,,,,,,CBC_1026,4,1,3,6,1,0.95,2023-07-20_13h03.59.061,MSI_AV_v3,2022.1.1,60.04293069578279,
21,0,21,0,,,,,,,,,,0,1.0,0.0,z,63.0,1.0,2.517541937862754,0.974903167432984,None,274.8125791000002,None,275.79532700000163,None,275.79532700000163,None,275.79584352000023,None,None,275.79532700000163,None,['b'],[0.8470302999994601],277.77899590000015,None,b,2.84703029999946,0,0,0.5454545454545454,280.27700090000144,None,None,280.27700090000144,None,,,,,,,,,,,,,,,,,,,,,,,,CBC_1026,4,1,3,6,1,0.95,2023-07-20_13h03.59.061,MSI_AV_v3,2022.1.1,60.04293069578279,
22,0,22,0,,,,,,,,,,3,2.0,3.0,b,63.0,1.0,3.26539063535182,0.952147612306987,None,282.0781198000004,None,283.04717450000135,None,283.04717450000135,None,283.04595242,None,None,283.04717450000135,None,['z'],[1.8194873000011285],285.0291840000009,None,z,3.8194873000011285,0,0,0.5217391304347826,288.27853959999993,None,None,288.27853959999993,None,,,,,,,,,,,,,,,,,,,,,,,,CBC_1026,4,1,3,6,1,0.95,2023-07-20_13h03.59.061,MSI_AV_v3,2022.1.1,60.04293069578279,
23,0,23,0,,,,,,,,,,0,0.0,2.0,b,27.0,1.0,2.82320408183943,1.21250262048173,None,290.0784747000016,None,291.3017318000002,None,291.3017318000002,None,291.31299786000017,None,None,291.3017318000002,None,['b'],[0.5798110000014276],293.2794619000015,None,b,2.5798110000014276,1,1,0.5416666666666666,296.09689120000075,None,None,296.09689120000075,None,,,,,,,,,,,,,,,,,,,,,,,,CBC_1026,4,1,3,6,1,0.95,2023-07-20_13h03.59.061,MSI_AV_v3,2022.1.1,60.04293069578279,
24,0,24,0,,,,,,,,,,1,1.0,0.0,b,63.0,1.0,3.3728785608729996,2.96653053743745,None,297.89636710000013,None,300.88387240000156,None,300.88387240000156,None,300.87968632000087,None,None,300.88387240000156,None,['b'],[1.80549450000035],302.86194270000124,None,b,3.80549450000035,1,1,0.56,306.2120476,None,None,306.2120476,None,,,,,,,,,,,,,,,,,,,,,,,,CBC_1026,4,1,3,6,1,0.95,2023-07-20_13h03.59.061,MSI_AV_v3,2022.1.1,60.04293069578279,
25,0,25,0,,,,,,,,,,2,2.0,3.0,z,63.0,1.0,4.53337421950507,3.1963008326951,['z'],308.01232770000024,None,311.2359081000013,None,311.2359081000013,None,311.2464762600004,None,None,311.2359081000013,None,['z'],[0.3882934000012028],313.2130276000007,None,z,2.388293400001203,1,1,0.5769230769230769,317.743210300001,None,None,317.743210300001,None,,[2.589116600000125],,,,,,,,,,,,,,,,,,,,,,CBC_1026,4,1,3,6,1,0.95,2023-07-20_13h03.59.061,MSI_AV_v3,2022.1.1,60.04293069578279,
26,0,26,0,,,,,,,,,,1,1.0,2.0,b,9.0,1.0,2.342239579230602,1.60731937853708,None,319.5463150000014,None,321.1683412000002,None,321.1683412000002,None,321.17990586000013,None,None,321.1683412000002,None,['b'],[0.5811136000011174],323.1462033000007,None,b,2.5811136000011174,1,1,0.5925925925925926,325.4715735000009,None,None,325.4715735000009,None,,,,,,,,,,,,,,,,,,,,,,,,CBC_1026,4,1,3,6,1,0.95,2023-07-20_13h03.59.061,MSI_AV_v3,2022.1.1,60.04293069578279,
27,0,27,0,,,,,,,,,,2,1.0,3.0,z,27.0,1.0,4.11514536789087,3.40155979865722,None,327.2796960000014,None,330.68194590000166,None,330.68194590000166,None,330.6791095800014,None,None,330.68194590000166,None,['z'],[0.09254229999896779],332.6796118000002,None,z,2.092542299998968,1,1,0.6071428571428571,336.78520930000013,None,None,336.78520930000013,None,,,,,,,,,,,,,,,,,,,,,,,,CBC_1026,4,1,3,6,1,0.95,2023-07-20_13h03.59.061,MSI_AV_v3,2022.1.1,60.04293069578279,
28,0,28,0,,,,,,,,,,0,1.0,0.0,z,63.0,1.0,4.52047235037039,1.95130344756745,None,338.59573770000134,None,340.57324270000026,None,340.57324270000026,None,340.58019216000065,None,None,340.57324270000026,None,['z'],[3.3992200999982742],342.5463043,None,z,5.399220099998274,1,1,0.6206896551724138,347.06085280000116,None,None,347.06085280000116,None,,,,,,,,,,,,,,,,,,,,,,,,CBC_1026,4,1,3,6,1,0.95,2023-07-20_13h03.59.061,MSI_AV_v3,2022.1.1,60.04293069578279,
29,0,29,0,,,,,,,,,,0,0.0,1.0,b,63.0,1.0,3.6438386551209,1.53243550275999,None,348.8620409000014,None,350.4021513000007,None,350.4021513000007,None,350.41334816000125,None,None,350.4021513000007,None,['b'],[0.5651691000002756],352.3794555000004,None,b,2.5651691000002756,1,1,0.6333333333333333,356.0033739999999,None,None,356.0033739999999,None,,,,,,,,,,,,,,,,,,,,,,,,CBC_1026,4,1,3,6,1,0.95,2023-07-20_13h03.59.061,MSI_AV_v3,2022.1.1,60.04293069578279,
30,0,30,0,,,,,,,,,,3,0.0,2.0,z,27.0,1.0,4.61004669244928,1.64421109900286,None,357.8130744000009,None,359.45057610000003,None,359.45057610000003,None,359.4625373200001,None,None,359.45057610000003,None,['b'],[0.7228845000008732],361.4457469000008,None,b,2.7228845000008732,0,0,0.6129032258064516,366.0426013000015,None,None,366.0426013000015,None,,,,,,,,,,,,,,,,,,,,,,,,CBC_1026,4,1,3,6,1,0.95,2023-07-20_13h03.59.061,MSI_AV_v3,2022.1.1,60.04293069578279,
31,0,31,0,,,,,,,,,,0,1.0,0.0,z,63.0,1.0,3.71372710086949,1.36309078069689,None,367.84554130000106,None,369.19806940000126,None,369.19806940000126,None,369.19565898000076,None,None,369.19806940000126,None,['z'],[0.6878612999989855],371.17987730000095,None,z,2.6878612999989855,1,1,0.625,374.8825153000016,None,None,374.8825153000016,None,,,,,,,,,,,,,,,,,,,,,,,,CBC_1026,4,1,3,6,1,0.95,2023-07-20_13h03.59.061,MSI_AV_v3,2022.1.1,60.04293069578279,
32,0,32,0,,,,,,,,,,1,1.0,0.0,b,63.0,1.0,4.7533305109883095,3.06992456303453,None,376.6957899000008,None,379.78773810000166,None,379.78773810000166,None,379.7969321600005,None,None,379.78773810000166,None,['z'],[0.35938399999940884],381.7638252000015,None,z,2.359383999999409,0,0,0.6060606060606061,386.4994053999999,None,None,386.4994053999999,None,,,,,,,,,,,,,,,,,,,,,,,,CBC_1026,4,1,3,6,1,0.95,2023-07-20_13h03.59.061,MSI_AV_v3,2022.1.1,60.04293069578279,
33,0,33,0,,,,,,,,,,2,3.0,2.0,b,63.0,1.0,3.68371079902891,0.77703640172831,None,388.31325860000106,None,389.10326760000135,None,389.10326760000135,None,389.1135738599998,None,None,389.10326760000135,None,['b'],[0.6680658000004769],391.08004860000074,None,b,2.668065800000477,1,1,0.6176470588235294,394.7467422000009,None,None,394.7467422000009,None,,,,,,,,,,,,,,,,,,,,,,,,CBC_1026,4,1,3,6,1,0.95,2023-07-20_13h03.59.061,MSI_AV_v3,2022.1.1,60.04293069578279,
34,0,34,0,,,,,,,,,,1,3.0,1.0,z,27.0,1.0,2.678526077912375,1.43470440954152,None,396.54679209999995,None,398.0016034,None,398.0016034,None,398.0139552600005,None,None,398.0016034,None,['z'],[0.4838062999988324],399.9795842000003,None,z,2.4838062999988324,1,1,0.6285714285714286,402.6362207000002,None,None,402.6362207000002,None,,,,,,,,,,,,,,,,,,,,,,,,CBC_1026,4,1,3,6,1,0.95,2023-07-20_13h03.59.061,MSI_AV_v3,2022.1.1,60.04293069578279,
35,0,35,0,,,,,,,,,,3,3.0,2.0,z,63.0,1.0,2.629554641171433,2.40378712856304,None,404.4467936000001,None,406.86924440000075,None,406.86924440000075,None,406.88026095999993,None,None,406.86924440000075,None,['b'],[0.8379010000007838],408.84674460000133,None,b,2.837901000000784,0,0,0.6111111111111112,411.45864210000036,None,None,411.45864210000036,None,,,,,,,,,,,,,,,,,,,,,,,,CBC_1026,4,1,3,6,1,0.95,2023-07-20_13h03.59.061,MSI_AV_v3,2022.1.1,60.04293069578279,
36,0,36,0,,,,,,,,,,3,2.0,0.0,b,27.0,1.0,2.496959177995529,1.25817747924478,None,413.2635782000016,None,414.5349021000002,None,414.5349021000002,None,414.54696835999965,None,None,414.5349021000002,None,['z'],[0.5129471000000194],416.5135424,None,z,2.5129471000000194,0,0,0.5945945945945946,418.9954075000005,None,None,418.9954075000005,None,,,,,,,,,,,,,,,,,,,,,,,,CBC_1026,4,1,3,6,1,0.95,2023-07-20_13h03.59.061,MSI_AV_v3,2022.1.1,60.04293069578279,
37,0,37,0,,,,,,,,,,1,1.0,0.0,b,63.0,1.0,2.2759877950103027,1.38289892513751,None,420.79685000000063,None,422.20172750000165,None,422.20172750000165,None,422.2138370599998,None,None,422.20172750000165,None,None,,424.1801963000016,None,[],[],0,3,0.5789473684210527,426.43495860000075,None,['b'],426.43495860000075,None,,,[0.48321040000155335],,,,,,,,,,,,,,,,,,,,,CBC_1026,4,1,3,6,1,0.95,2023-07-20_13h03.59.061,MSI_AV_v3,2022.1.1,60.04293069578279,
38,0,38,0,,,,,,,,,,0,3.0,0.0,z,9.0,1.0,3.02234236141277,2.22427187882546,None,428.2462454000015,None,430.46649490000163,None,430.46649490000163,None,430.462623680001,None,None,430.46649490000163,None,['z'],[0.7832899000004545],432.44689500000095,None,z,2.7832899000004545,1,1,0.5897435897435898,435.46170450000136,None,None,435.46170450000136,None,,,,,,,,,,,,,,,,,,,,,,,,CBC_1026,4,1,3,6,1,0.95,2023-07-20_13h03.59.061,MSI_AV_v3,2022.1.1,60.04293069578279,
39,0,39,0,,,,,,,,,,3,3.0,2.0,z,63.0,0.0,2.693348633324513,0.917519910446003,None,437.2635906000014,None,438.1850099000003,None,438.1850099000003,None,438.19635281999984,None,None,438.1850099000003,None,['b'],[0.7884487999999692],440.16374240000005,None,b,2.788448799999969,0,1,0.575,442.8439511000015,None,None,442.8439511000015,None,,,,,,,,,,,,,,,,,,,,,,,,CBC_1026,4,1,3,6,1,0.95,2023-07-20_13h03.59.061,MSI_AV_v3,2022.1.1,60.04293069578279,
40,0,40,0,,,,,,,,,,0,1.0,0.0,z,63.0,1.0,3.31929419319838,1.94858485820231,None,444.6469347000002,None,446.61917280000125,None,446.61917280000125,None,446.61477641999994,None,None,446.61917280000125,None,['z'],[0.6202259000001504],448.5962159999999,None,z,2.6202259000001504,1,1,0.5853658536585366,451.89497800000026,None,None,451.89497800000026,None,,,,,,,,,,,,,,,,,,,,,,,,CBC_1026,4,1,3,6,1,0.95,2023-07-20_13h03.59.061,MSI_AV_v3,2022.1.1,60.04293069578279,
41,0,41,0,,,,,,,,,,2,3.0,2.0,b,63.0,1.0,2.792365600763554,3.24569326556923,None,453.69647310000073,None,456.95274430000063,None,456.95274430000063,None,456.96392545999987,None,None,456.95274430000063,None,['b'],[0.6373622999999498],458.92948180000167,None,b,2.6373622999999498,1,1,0.5952380952380952,461.70280940000157,None,None,461.70280940000157,None,,,,,,,,,,,,,,,,,,,,,,,,CBC_1026,4,1,3,6,1,0.95,2023-07-20_13h03.59.061,MSI_AV_v3,2022.1.1,60.04293069578279,
42,0,42,0,,,,,,,,,,3,2.0,3.0,b,63.0,1.0,3.35133458220192,2.10421507306074,None,463.5138110000007,None,465.6351030000005,None,465.6351030000005,None,465.6472385600002,None,None,465.6351030000005,None,['b'],[0.87247010000101],467.61372090000077,None,b,2.87247010000101,1,1,0.6046511627906976,470.94590100000096,None,None,470.94590100000096,None,,,,,,,,,,,,,,,,,,,,,,,,CBC_1026,4,1,3,6,1,0.95,2023-07-20_13h03.59.061,MSI_AV_v3,2022.1.1,60.04293069578279,
43,0,43,0,,,,,,,,,,2,1.0,3.0,z,27.0,1.0,2.91303524001082,1.53122835510861,None,472.7473869000005,None,474.2844875999999,None,474.2844875999999,None,474.2963803200004,None,None,474.2844875999999,None,['z'],[0.7309263999995892],476.2638738000005,None,z,2.730926399999589,1,1,0.6136363636363636,479.17430850000164,None,None,479.17430850000164,None,,,,,,,,,,,,,,,,,,,,,,,,CBC_1026,4,1,3,6,1,0.95,2023-07-20_13h03.59.061,MSI_AV_v3,2022.1.1,60.04293069578279,
,,,,,,,,,,,,,,,,,,,,,,,,,,,,,,,,,,,,,,,,,,,,,,,,,,None,480.9804754000015,None,,,,,,,,,,,,,,,,,,CBC_1026,4,1,3,6,1,0.95,2023-07-20_13h03.59.061,MSI_AV_v3,2022.1.1,60.04293069578279,
,,,,,,,,,,,,,,,,,,,,,,,,,,,,,,,,,,,,,,,,,,,,,,,,,,,,,485.98066260000087,None,None,485.98066260000087,None,,,,,,,,,,,,,CBC_1026,4,1,3,6,1,0.95,2023-07-20_13h03.59.061,MSI_AV_v3,2022.1.1,60.04293069578279,
,,,,,,,,,,,,,,,,,,,,,,,,,,,,,,,,,,,,,,,,,,,,,,,,,,,,,,,,,,z,b,easy,"[0, 1, 2, 3]","[0, 1, 3, 2]",0.45454545454545453,0.6363636363636364,0.7272727272727273,0.6363636363636364,27,1,16,,,,,,,,,,,,
