trials_runs.thisRepN,trials_runs.thisTrialN,trials_runs.thisN,trials_runs.thisIndex,standbild_start.started,standbild_start.stopped,trigger.keys,trigger.rt,trigger.started,trigger.stopped,keys_2.keys,keys_2.started,keys_2.stopped,trials_runs.tactile_stim,trials_runs.visual_stim_left,trials_runs.visual_stim_right,trials_runs.correctKey,trials_runs.presentationFrequncy,trials_runs.FBaccuracy,trials_runs.ISI_s,trials_runs.ITI_s,keys_3.keys,keys_3.started,keys_3.stopped,image_stim_left.started,image_stim_right.started,tactile.started,response_4.keys,allKeys.keys,response_5.keys,response_5.rt,response_5.started,response_5.stopped,response_runs.keys,response_runs.rt,trials_runs.correct_answer,trials_runs.feedback_given,trials_runs.running_mean,feedback_6.stopped,feedback_6.started,keys_6.keys,keys_6.started,keys_6.stopped,response_4.rt,allKeys.rt,keys_3.rt,keys_6.rt,keys_7.keys,keys_7.started,keys_7.stopped,standbild_end.started,standbild_end.stopped,Stop_exp.keys,Stop_exp.rt,Stop_exp.started,Stop_exp.stopped,trials_runs.rightKey,trials_runs.leftKey,ts_difficulty,visualPair,tactilePair,trials_runs.mean_acc_1stFourth,trials_runs.mean_acc_2ndFourth,trials_runs.mean_acc_3rdFourth,trials_runs.mean_acc_4thFourth,nbCorrect,nbOmissions,nbIncorrect,participant,session,visual set [1-6],tactile set [1-3],trial structure [0-3 / 4-7],pairing [0-23],prob Feedback,date,expName,psychopyVersion,frameRate,
,,,,47.93019330000061,None,t,57.33197520000067,47.93019330000061,None,,,,,,,,,,,,,,,,,,,,,,,,,,,,,,,,,,,,,,,,,,,,,,,,,,,,,,,,,,,CBC_1031,3,3,1,5,4,0.95,2023-10-20_12h11.47.981,MSI_TV_v3,2022.1.1,60.15967581184385,
,,,,,,,,,,None,105.28434519999973,None,,,,,,,,,,,,,,,,,,,,,,,,,,,,,,,,,,,,,,,,,,,,,,,,,,,,,,,,CBC_1031,3,3,1,5,4,0.95,2023-10-20_12h11.47.981,MSI_TV_v3,2022.1.1,60.15967581184385,
0,0,0,0,,,,,,,,,,3,0,1,z,63,1,2.693348633324513,1.90743690794447,None,105.48449040000014,None,107.36688441999995,107.36688441999995,107.38341321999887,None,[],['z'],[0.34579049999956624],109.36304650000056,None,z,2.3457904999995662,1,1,1.0,None,112.08200120000038,None,112.08200120000038,None,,,,,,,,,,,,,,,,,,,,,,,,,,CBC_1031,3,3,1,5,4,0.95,2023-10-20_12h11.47.981,MSI_TV_v3,2022.1.1,60.15967581184385,
1,0,1,0,,,,,,,,,,2,2,3,z,63,1,4.190022164497369,2.15533949826702,None,113.8674587000005,None,116.00084181999937,116.00084181999937,116.01756942000047,None,[],['b'],[0.475411699999313],118.00550189999922,None,b,2.475411699999313,0,0,0.5,None,122.22508299999936,None,122.22508299999936,None,,,,,,,,,,,,,,,,,,,,,,,,,,CBC_1031,3,3,1,5,4,0.95,2023-10-20_12h11.47.981,MSI_TV_v3,2022.1.1,60.15967581184385,
2,0,2,0,,,,,,,,,,3,1,3,b,27,1,4.61004669244928,1.12425433982333,None,124.03412199999912,None,125.1335323199999,125.1335323199999,125.14988961999897,z,['z'],None,,127.16744370000015,None,z,1.0785907000008592,0,0,0.3333333333333333,None,131.79616069999975,None,131.79616069999975,None,1.0785907000008592,[1.0785907000008592],,,,,,,,,,,,,,,,,,,,,,,,CBC_1031,3,3,1,5,4,0.95,2023-10-20_12h11.47.981,MSI_TV_v3,2022.1.1,60.15967581184385,
3,0,3,0,,,,,,,,,,1,3,2,z,63,1,4.46924002178158,2.96653053743745,None,133.60117460000038,None,136.5512757199993,136.5512757199993,136.56799841999947,None,[],['z'],[1.8843218000001798],138.55618239999967,None,z,3.88432180000018,1,1,0.5,None,143.02346939999916,None,143.02346939999916,None,,,,,,,,,,,,,,,,,,,,,,,,,,CBC_1031,3,3,1,5,4,0.95,2023-10-20_12h11.47.981,MSI_TV_v3,2022.1.1,60.15967581184385,
4,0,4,0,,,,,,,,,,1,2,0,b,27,1,2.678526077912375,1.52290599571961,None,144.83421739999903,None,146.3342354199993,146.3342354199993,146.35098701999942,None,[],['z'],[0.45832010000049195],148.33389689999967,None,z,2.458320100000492,0,0,0.4,None,151.02267459999894,None,151.02267459999894,None,,,,,,,,,,,,,,,,,,,,,,,,,,CBC_1031,3,3,1,5,4,0.95,2023-10-20_12h11.47.981,MSI_TV_v3,2022.1.1,60.15967581184385,
5,0,5,0,,,,,,,,,,0,3,0,z,9,1,3.02234236141277,1.27538462653558,None,152.83422190000056,None,154.0842728200003,154.0842728200003,154.1008109199991,b,['b'],None,,156.1042395000004,None,b,1.4377081000002363,0,0,0.3333333333333333,None,159.12755019999895,None,159.12755019999895,None,1.4377081000002363,[1.4377081000002363],,,,,,,,,,,,,,,,,,,,,,,,CBC_1031,3,3,1,5,4,0.95,2023-10-20_12h11.47.981,MSI_TV_v3,2022.1.1,60.15967581184385,
6,0,6,0,,,,,,,,,,1,3,2,z,63,1,2.496959177995529,1.38289892513751,None,160.93333200000052,None,162.28435291999978,162.28435291999978,162.30096631999896,None,[],['z'],[1.4974297999997361],164.28944129999945,None,z,3.497429799999736,1,1,0.42857142857142855,None,166.78722840000046,None,166.78722840000046,None,,,,,,,,,,,,,,,,,,,,,,,,,,CBC_1031,3,3,1,5,4,0.95,2023-10-20_12h11.47.981,MSI_TV_v3,2022.1.1,60.15967581184385,
7,0,7,0,,,,,,,,,,0,0,1,b,63,1,3.7500315165247198,3.4543169006169,None,168.59990819999985,None,172.03425701999896,172.03425701999896,172.05088031999895,None,[],['z'],[1.21850429999904],174.03439939999953,None,z,3.21850429999904,0,0,0.375,None,177.79601939999884,None,177.79601939999884,None,,,,,,,,,,,,,,,,,,,,,,,,,,CBC_1031,3,3,1,5,4,0.95,2023-10-20_12h11.47.981,MSI_TV_v3,2022.1.1,60.15967581184385,
8,0,8,0,,,,,,,,,,2,3,2,b,63,1,4.82531807167306,1.18065738546375,['b'],179.60124609999912,None,180.7680857199992,180.7680857199992,180.78449682000047,None,[],['z'],[0.771537200000239],182.77197429999978,None,z,2.771537200000239,0,0,0.3333333333333333,None,187.6113064000001,None,187.6113064000001,None,,,[0.6772017000002961],,,,,,,,,,,,,,,,,,,,,,,CBC_1031,3,3,1,5,4,0.95,2023-10-20_12h11.47.981,MSI_TV_v3,2022.1.1,60.15967581184385,
9,0,9,0,,,,,,,,,,1,2,3,b,63,1,2.526044641065533,0.979776149765883,None,189.4167464000002,None,190.36785751999906,190.36785751999906,190.38473562000019,None,[],['b'],[0.7866027000018221],192.37475819999963,None,b,2.786602700001822,1,1,0.4,None,194.887665799999,None,194.887665799999,None,,,,,,,,,,,,,,,,,,,,,,,,,,CBC_1031,3,3,1,5,4,0.95,2023-10-20_12h11.47.981,MSI_TV_v3,2022.1.1,60.15967581184385,
10,0,10,0,,,,,,,,,,2,1,3,z,27,1,4.01714354611405,1.64421109900286,None,196.70057069999893,None,198.31769151999998,198.31769151999998,198.33436862000036,None,[],['z'],[0.5768016000001808],200.32177500000034,None,z,2.5768016000001808,1,1,0.45454545454545453,None,204.3558008,None,204.3558008,None,,,,,,,,,,,,,,,,,,,,,,,,,,CBC_1031,3,3,1,5,4,0.95,2023-10-20_12h11.47.981,MSI_TV_v3,2022.1.1,60.15967581184385,
11,0,11,0,,,,,,,,,,0,1,0,z,63,0,2.82320408183943,2.09887870490381,None,206.16826409999885,None,208.25106511999894,208.25106511999894,208.26777892000047,None,[],['z'],[1.1894601999993029],210.25581749999947,None,z,3.189460199999303,1,0,0.5,None,213.07820960000026,None,213.07820960000026,None,,,,,,,,,,,,,,,,,,,,,,,,,,CBC_1031,3,3,1,5,4,0.95,2023-10-20_12h11.47.981,MSI_TV_v3,2022.1.1,60.15967581184385,
12,0,12,0,,,,,,,,,,1,2,3,b,63,1,3.35133458220192,1.34668860557497,None,214.88367730000027,None,216.2011205199995,216.2011205199995,216.2177296200005,None,[],['z'],[1.4139016999997693],218.20523549999962,None,z,3.4139016999997693,0,0,0.46153846153846156,None,221.5705412999996,None,221.5705412999996,None,,,,,,,,,,,,,,,,,,,,,,,,,,CBC_1031,3,3,1,5,4,0.95,2023-10-20_12h11.47.981,MSI_TV_v3,2022.1.1,60.15967581184385,
13,0,13,0,,,,,,,,,,0,0,2,b,27,1,4.77034425507967,0.917519910446003,None,223.38455690000046,None,224.28452441999963,224.28452441999963,224.30111172000016,None,[],['b'],[1.3035868000006303],226.2872924000003,None,b,3.3035868000006303,1,1,0.5,None,231.06345479999982,None,231.06345479999982,None,,,,,,,,,,,,,,,,,,,,,,,,,,CBC_1031,3,3,1,5,4,0.95,2023-10-20_12h11.47.981,MSI_TV_v3,2022.1.1,60.15967581184385,
14,0,14,0,,,,,,,,,,3,0,1,z,63,1,2.666404967794728,3.1424449555106,None,232.86682429999928,None,235.98457451999985,235.98457451999985,236.0017308200002,None,[],['b'],[1.1257619999996678],237.9835320000002,None,b,3.1257619999996678,0,0,0.4666666666666667,None,240.66169869999976,None,240.66169869999976,None,,,,,,,,,,,,,,,,,,,,,,,,,,CBC_1031,3,3,1,5,4,0.95,2023-10-20_12h11.47.981,MSI_TV_v3,2022.1.1,60.15967581184385,
15,0,15,0,,,,,,,,,,2,3,2,b,63,1,2.629554641171433,2.10421507306074,None,242.46800819999953,None,244.55130122000065,244.55130122000065,244.5679003200001,None,[],['b'],[1.3375543000001926],246.5556233999996,None,b,3.3375543000001926,1,1,0.5,None,249.19077149999976,None,249.19077149999976,None,,,,,,,,,,,,,,,,,,,,,,,,,,CBC_1031,3,3,1,5,4,0.95,2023-10-20_12h11.47.981,MSI_TV_v3,2022.1.1,60.15967581184385,
16,0,16,0,,,,,,,,,,3,1,2,b,9,1,3.71372710086949,1.21250262048173,None,251.00105059999987,None,252.20166091999982,252.20166091999982,252.21775662000056,None,[],None,,254.20527709999988,None,None,[],0,3,0.47058823529411764,None,257.94367500000044,['z'],257.94367500000044,None,,,,[0.7703498000009859],,,,,,,,,,,,,,,,,,,,,,CBC_1031,3,3,1,5,4,0.95,2023-10-20_12h11.47.981,MSI_TV_v3,2022.1.1,60.15967581184385,
17,0,17,0,,,,,,,,,,2,1,3,z,27,1,3.26539063535182,0.77703640172831,None,259.7350970999996,None,260.5016239199993,260.5016239199993,260.5182096200004,None,[],['z'],[1.4504381000006106],262.50686569999925,None,z,3.4504381000006106,1,1,0.5,None,265.7729502000002,None,265.7729502000002,None,,,,,,,,,,,,,,,,,,,,,,,,,,CBC_1031,3,3,1,5,4,0.95,2023-10-20_12h11.47.981,MSI_TV_v3,2022.1.1,60.15967581184385,
18,0,18,0,,,,,,,,,,0,0,1,b,63,1,4.11514536789087,2.49839527409216,None,267.5849853999989,None,270.06786902000005,270.06786902000005,270.08456561999975,None,[],None,,272.07131239999944,None,None,[],0,3,0.47368421052631576,None,276.1836523000002,['b'],276.1836523000002,None,,,,[0.862375400000019],,,,,,,,,,,,,,,,,,,,,,CBC_1031,3,3,1,5,4,0.95,2023-10-20_12h11.47.981,MSI_TV_v3,2022.1.1,60.15967581184385,
19,0,19,0,,,,,,,,,,0,1,0,z,63,1,3.6438386551209,1.95130344756745,['b'],277.9853920000005,None,279.91798981999983,279.91798981999983,279.9345867199989,None,[],['b'],[0.40135250000093947],281.92066279999926,None,b,2.4013525000009395,0,0,0.45,None,285.5738741999994,None,285.5738741999994,None,,,[1.6410464000000502],,,,,,,,,,,,,,,,,,,,,,,CBC_1031,3,3,1,5,4,0.95,2023-10-20_12h11.47.981,MSI_TV_v3,2022.1.1,60.15967581184385,
20,0,20,0,,,,,,,,,,1,2,0,b,27,1,4.7533305109883095,3.33124983260532,None,287.3848225999991,None,290.70166511999906,290.70166511999906,290.7182249199994,None,[],['z'],[0.5665490000010323],292.7079596000003,None,z,2.5665490000010323,0,0,0.42857142857142855,None,297.45281500000056,None,297.45281500000056,None,,,,,,,,,,,,,,,,,,,,,,,,,,CBC_1031,3,3,1,5,4,0.95,2023-10-20_12h11.47.981,MSI_TV_v3,2022.1.1,60.15967581184385,
21,0,21,0,,,,,,,,,,3,0,1,z,63,1,2.517541937862754,1.43470440954152,None,299.26734319999923,None,300.6851465199996,300.6851465199996,300.7018698199989,None,[],['b'],[0.3490020999997796],302.68982569999935,None,b,2.3490020999997796,0,0,0.4090909090909091,None,305.2066185999993,None,305.2066185999993,None,,,,,,,,,,,,,,,,,,,,,,,,,,CBC_1031,3,3,1,5,4,0.95,2023-10-20_12h11.47.981,MSI_TV_v3,2022.1.1,60.15967581184385,
22,0,22,0,,,,,,,,,,1,2,0,b,27,1,3.3728785608729996,2.22427187882546,None,307.01713559999916,None,309.21804021999907,309.21804021999907,309.23484402000014,None,[],['b'],[0.3516722000003938],311.2233395000003,None,b,2.351672200000394,1,1,0.43478260869565216,None,314.5889960000004,None,314.5889960000004,None,,,,,,,,,,,,,,,,,,,,,,,,,,CBC_1031,3,3,1,5,4,0.95,2023-10-20_12h11.47.981,MSI_TV_v3,2022.1.1,60.15967581184385,
23,0,23,0,,,,,,,,,,2,3,2,b,63,1,3.31929419319838,3.1963008326951,None,316.401554099999,None,319.58444821999893,319.58444821999893,319.6011006200004,b,['b'],None,,321.61974999999984,None,b,1.8253039000010176,1,1,0.4583333333333333,None,324.93431670000064,None,324.93431670000064,None,1.8253039000010176,[1.8253039000010176],,,,,,,,,,,,,,,,,,,,,,,,CBC_1031,3,3,1,5,4,0.95,2023-10-20_12h11.47.981,MSI_TV_v3,2022.1.1,60.15967581184385,
24,0,24,0,,,,,,,,,,0,1,0,z,63,1,4.72585056748869,3.24569326556923,None,326.7350172000006,None,329.9670913200005,329.9670913200005,329.9841335199997,None,[],['b'],[0.9616025000013906],331.9624752,None,b,2.9616025000013906,0,0,0.44,None,336.6933534999989,None,336.6933534999989,None,,,,,,,,,,,,,,,,,,,,,,,,,,CBC_1031,3,3,1,5,4,0.95,2023-10-20_12h11.47.981,MSI_TV_v3,2022.1.1,60.15967581184385,
25,0,25,0,,,,,,,,,,1,3,2,z,63,1,3.68371079902891,1.96568735158996,None,338.5017377999993,None,340.4511182200002,340.4511182200002,340.46733452000063,None,[],['b'],[2.2468444000005547],342.44804269999986,None,b,4.246844400000555,0,0,0.4230769230769231,None,346.12399600000026,None,346.12399600000026,None,,,,,,,,,,,,,,,,,,,,,,,,,,CBC_1031,3,3,1,5,4,0.95,2023-10-20_12h11.47.981,MSI_TV_v3,2022.1.1,60.15967581184385,
26,0,26,0,,,,,,,,,,0,2,0,z,27,1,2.6391747348430608,3.40155979865722,None,347.9343568000004,None,351.3185140200001,351.3185140200001,351.3349208199996,b,['b'],None,,353.3612672999989,None,b,1.7565123999993375,0,0,0.4074074074074074,None,355.9933662000003,None,355.9933662000003,None,1.7565123999993375,[1.7565123999993375],,,,,,,,,,,,,,,,,,,,,,,,CBC_1031,3,3,1,5,4,0.95,2023-10-20_12h11.47.981,MSI_TV_v3,2022.1.1,60.15967581184385,
27,0,27,0,,,,,,,,,,2,3,2,b,63,1,2.2759877950103027,1.53122835510861,None,357.8013073000002,None,359.3182872199994,359.3182872199994,359.33499941999963,None,[],['b'],[0.5470088000001851],361.3216286000006,None,b,2.547008800000185,1,1,0.42857142857142855,None,363.60863020000033,None,363.60863020000033,None,,,,,,,,,,,,,,,,,,,,,,,,,,CBC_1031,3,3,1,5,4,0.95,2023-10-20_12h11.47.981,MSI_TV_v3,2022.1.1,60.15967581184385,
28,0,28,0,,,,,,,,,,2,3,2,b,63,1,2.342239579230602,1.25817747924478,None,365.41807789999984,None,366.65200241999975,366.65200241999975,366.6686408200001,None,[],['z'],[0.6693749000005482],368.65140749999955,None,z,2.6693749000005482,0,0,0.41379310344827586,None,371.01127649999944,None,371.01127649999944,None,,,,,,,,,,,,,,,,,,,,,,,,,,CBC_1031,3,3,1,5,4,0.95,2023-10-20_12h11.47.981,MSI_TV_v3,2022.1.1,60.15967581184385,
29,0,29,0,,,,,,,,,,3,3,1,z,27,1,4.77723667052879,0.952147612306987,None,372.81825910000043,None,373.7515263200001,373.7515263200001,373.76843462000016,None,[],['b'],[0.3861287999989145],375.7515602000003,None,b,2.3861287999989145,0,0,0.4,None,380.52400769999986,None,380.52400769999986,None,,,,,,,,,,,,,,,,,,,,,,,,,,CBC_1031,3,3,1,5,4,0.95,2023-10-20_12h11.47.981,MSI_TV_v3,2022.1.1,60.15967581184385,
30,0,30,0,,,,,,,,,,2,0,3,z,9,1,2.792365600763554,1.1243895841892,None,382.3349529999996,None,383.4352207199989,383.4352207199989,383.45177662000043,None,[],['z'],[0.872227900001235],385.44022380000024,None,z,2.872227900001235,1,1,0.41935483870967744,None,388.23284369999965,None,388.23284369999965,None,,,,,,,,,,,,,,,,,,,,,,,,,,CBC_1031,3,3,1,5,4,0.95,2023-10-20_12h11.47.981,MSI_TV_v3,2022.1.1,60.15967581184385,
31,0,31,0,,,,,,,,,,3,1,0,b,63,1,3.73326136168326,1.53243550275999,None,390.0349449999994,None,391.5507561199991,391.5507561199991,391.5679854200005,None,[],['b'],[0.8693347000007634],393.54837339999904,None,b,2.8693347000007634,1,1,0.4375,None,397.27619009999944,None,397.27619009999944,None,,,,,,,,,,,,,,,,,,,,,,,,,,CBC_1031,3,3,1,5,4,0.95,2023-10-20_12h11.47.981,MSI_TV_v3,2022.1.1,60.15967581184385,
32,0,32,0,,,,,,,,,,0,1,0,z,63,1,3.2062024266105302,0.80788063606262,None,399.08441049999965,None,399.8684013199998,399.8684013199998,399.88492641999966,None,[],['b'],[1.7251691000001301],401.8679773999993,None,b,3.72516910000013,0,0,0.42424242424242425,None,405.0805072000003,None,405.0805072000003,None,,,,,,,,,,,,,,,,,,,,,,,,,,CBC_1031,3,3,1,5,4,0.95,2023-10-20_12h11.47.981,MSI_TV_v3,2022.1.1,60.15967581184385,
33,0,33,0,,,,,,,,,,3,1,0,b,63,1,2.433630701072358,2.40378712856304,None,406.8841107999997,None,409.268058219999,409.268058219999,409.2843623200004,None,[],['z'],[1.2535057999994024],411.2653916999989,None,z,3.2535057999994024,0,0,0.4117647058823529,None,413.70333629999914,None,413.70333629999914,None,,,,,,,,,,,,,,,,,,,,,,,,,,CBC_1031,3,3,1,5,4,0.95,2023-10-20_12h11.47.981,MSI_TV_v3,2022.1.1,60.15967581184385,
34,0,34,0,,,,,,,,,,1,3,2,z,63,1,4.40017271499661,1.25920145784721,None,415.51855799999976,None,416.75220041999984,416.75220041999984,416.7687883199995,None,[],['b'],[0.9876895000015793],418.7565658000003,None,b,2.9876895000015793,0,0,0.4,None,423.1589533999995,None,423.1589533999995,None,,,,,,,,,,,,,,,,,,,,,,,,,,CBC_1031,3,3,1,5,4,0.95,2023-10-20_12h11.47.981,MSI_TV_v3,2022.1.1,60.15967581184385,
35,0,35,0,,,,,,,,,,0,0,2,b,27,1,3.76873691643126,3.06992456303453,None,424.96836769999936,None,428.01852782000043,428.01852782000043,428.0351062200005,None,[],None,,430.0184680000002,None,None,[],0,3,0.3888888888888889,None,433.796126199999,None,433.796126199999,None,,,,,,,,,,,,,,,,,,,,,,,,,,CBC_1031,3,3,1,5,4,0.95,2023-10-20_12h11.47.981,MSI_TV_v3,2022.1.1,60.15967581184385,
36,0,36,0,,,,,,,,,,3,1,0,b,63,1,2.91303524001082,1.60731937853708,None,435.60207679999985,None,437.18539151999886,437.18539151999886,437.2024633199997,None,[],['b'],[2.8587938000000577],439.19128929999897,None,b,4.858793800000058,1,1,0.40540540540540543,None,442.1441235000002,None,442.1441235000002,None,,,,,,,,,,,,,,,,,,,,,,,,,,CBC_1031,3,3,1,5,4,0.95,2023-10-20_12h11.47.981,MSI_TV_v3,2022.1.1,60.15967581184385,
37,0,37,0,,,,,,,,,,3,3,1,z,27,1,4.12485271162806,1.94858485820231,None,443.952033399999,None,445.8851800199989,445.8851800199989,445.90200711999915,None,[],None,,447.88672360000055,None,None,[],0,3,0.39473684210526316,None,452.01226529999985,None,452.01226529999985,None,,,,,,,,,,,,,,,,,,,,,,,,,,CBC_1031,3,3,1,5,4,0.95,2023-10-20_12h11.47.981,MSI_TV_v3,2022.1.1,60.15967581184385,
38,0,38,0,,,,,,,,,,1,3,2,z,63,1,4.53337421950507,2.6299100644723,None,453.81868609999947,None,456.43542512000005,456.43542512000005,456.45216581999904,None,[],['b'],[0.3463443000000552],458.441020799999,None,b,2.3463443000000552,0,0,0.38461538461538464,None,462.963561999999,None,462.963561999999,None,,,,,,,,,,,,,,,,,,,,,,,,,,CBC_1031,3,3,1,5,4,0.95,2023-10-20_12h11.47.981,MSI_TV_v3,2022.1.1,60.15967581184385,
39,0,39,0,,,,,,,,,,2,3,1,b,27,1,2.7134565917469198,1.36309078069689,None,464.7691993999997,None,466.1187529199995,466.1187529199995,466.1353609199994,None,[],['b'],[2.260497500001293],468.1191340000005,None,b,4.260497500001293,1,1,0.4,None,470.83893720000015,None,470.83893720000015,None,,,,,,,,,,,,,,,,,,,,,,,,,,CBC_1031,3,3,1,5,4,0.95,2023-10-20_12h11.47.981,MSI_TV_v3,2022.1.1,60.15967581184385,
40,0,40,0,,,,,,,,,,1,1,2,z,9,1,2.592312596923728,1.78643585472448,None,472.6523094999993,None,474.4189908200004,474.4189908200004,474.43536791999924,None,[],['b'],[0.8939848000009079],476.423753699999,None,b,2.893984800000908,0,0,0.3902439024390244,None,479.00903970000036,None,479.00903970000036,None,,,,,,,,,,,,,,,,,,,,,,,,,,CBC_1031,3,3,1,5,4,0.95,2023-10-20_12h11.47.981,MSI_TV_v3,2022.1.1,60.15967581184385,
41,0,41,0,,,,,,,,,,3,0,1,z,63,0,2.294664843639333,2.78346932462847,None,480.817640199999,None,483.5848121199995,483.5848121199995,483.6013284199997,None,[],['z'],[0.08678380000128527],485.5814086999999,None,z,2.0867838000012853,1,0,0.40476190476190477,None,487.87933729999895,None,487.87933729999895,None,,,,,,,,,,,,,,,,,,,,,,,,,,CBC_1031,3,3,1,5,4,0.95,2023-10-20_12h11.47.981,MSI_TV_v3,2022.1.1,60.15967581184385,
42,0,42,0,,,,,,,,,,2,3,2,b,63,1,2.92731383428727,0.974903167432984,None,489.6857524999996,None,490.63589911999935,490.63589911999935,490.6524244199989,None,[],None,,492.6395785000004,None,None,[],0,3,0.3953488372093023,None,495.5778515000002,None,495.5778515000002,None,,,,,,,,,,,,,,,,,,,,,,,,,,CBC_1031,3,3,1,5,4,0.95,2023-10-20_12h11.47.981,MSI_TV_v3,2022.1.1,60.15967581184385,
43,0,43,0,,,,,,,,,,0,0,1,b,63,1,4.52047235037039,0.761758675042088,['z'],497.3858428000003,None,498.13552042000066,498.13552042000066,498.1520825200003,z,['z'],None,,500.180091799999,None,z,0.2627460000003339,0,0,0.38636363636363635,None,504.69515200000023,None,504.69515200000023,None,0.2627460000003339,[0.2627460000003339],[0.07133350000003702],,,,,,,,,,,,,,,,,,,,,,,CBC_1031,3,3,1,5,4,0.95,2023-10-20_12h11.47.981,MSI_TV_v3,2022.1.1,60.15967581184385,
,,,,,,,,,,,,,,,,,,,,,,,,,,,,,,,,,,,,,,,,,,,,,,,None,506.50173919999907,None,,,,,,,,,,,,,,,,,,,CBC_1031,3,3,1,5,4,0.95,2023-10-20_12h11.47.981,MSI_TV_v3,2022.1.1,60.15967581184385,
,,,,,,,,,,,,,,,,,,,,,,,,,,,,,,,,,,,,,,,,,,,,,,,,,,511.46921739999925,None,b,0.07954079999944952,511.46921739999925,None,,,,,,,,,,,,,CBC_1031,3,3,1,5,4,0.95,2023-10-20_12h11.47.981,MSI_TV_v3,2022.1.1,60.15967581184385,
,,,,,,,,,,,,,,,,,,,,,,,,,,,,,,,,,,,,,,,,,,,,,,,,,,,,,,,,z,b,easy,"[0, 1, 2, 3]","[0, 3, 1, 2]",0.45454545454545453,0.36363636363636365,0.45454545454545453,0.2727272727272727,15,5,24,,,,,,,,,,,,
