trials_runs.thisRepN,trials_runs.thisTrialN,trials_runs.thisN,trials_runs.thisIndex,standbild_start.started,standbild_start.stopped,trigger.keys,trigger.rt,trigger.started,trigger.stopped,keys_2.keys,keys_2.started,keys_2.stopped,trials_runs.auditory_stim,trials_runs.visual_stim_left,trials_runs.visual_stim_right,trials_runs.correctKey,trials_runs.presentationFrequncy,trials_runs.FBaccuracy,trials_runs.ISI_s,trials_runs.ITI_s,keys_3.keys,keys_3.started,keys_3.stopped,ImageLeft_4.started,ImageLeft_4.stopped,ImageRight_4.started,ImageRight_4.stopped,sound_4.started,sound_4.stopped,response_4.keys,response_4.started,response_4.stopped,response_5.keys,response_5.rt,response_5.started,response_5.stopped,response_runs.keys,response_runs.rt,trials_runs.correct_answer,trials_runs.feedback_given,trials_runs.running_mean,feedback_6.started,feedback_6.stopped,keys_6.keys,keys_6.started,keys_6.stopped,response_4.rt,keys_7.keys,keys_7.started,keys_7.stopped,standbild_end.started,standbild_end.stopped,Stop_exp.keys,Stop_exp.started,Stop_exp.stopped,trials_runs.rightKey,trials_runs.leftKey,ts_difficulty,visualPair,audioPair,trials_runs.mean_acc_1stFourth,trials_runs.mean_acc_2ndFourth,trials_runs.mean_acc_3rdFourth,trials_runs.mean_acc_4thFourth,nbCorrect,nbOmissions,nbIncorrect,participant,session,visual set [1-6],audio set [1-3 / 4-6],trial structure [0-3 / 4-7],pairing [0-23],prob Feedback,date,expName,psychopyVersion,frameRate,
,,,,28.42411200000788,None,t,58.41284960000485,28.42411200000788,None,,,,,,,,,,,,,,,,,,,,,,,,,,,,,,,,,,,,,,,,,,,,,,,,,,,,,,,,,,,CBC_1117,002,2,3,6,22,0.90,2024-06-12_14h56.14.456,MSI_AV_v3,2022.1.1,59.78744367649312,
,,,,,,,,,,None,86.8574021000095,None,,,,,,,,,,,,,,,,,,,,,,,,,,,,,,,,,,,,,,,,,,,,,,,,,,,,,,,,CBC_1117,002,2,3,6,22,0.90,2024-06-12_14h56.14.456,MSI_AV_v3,2022.1.1,59.78744367649312,
0,0,0,0,,,,,,,,,,3,1,0,z,63,1,2.792365600763554,1.53122835510861,None,87.0574717999989,None,88.70649510000658,None,88.70649510000658,None,88.70752332000994,None,None,88.70649510000658,None,['b'],[0.43491850000282284],90.59142270000302,None,b,2.434918500002823,0,0,0.0,93.38372379999782,None,None,93.38372379999782,None,,,,,,,,,,,,,,,,,,,,,,CBC_1117,002,2,3,6,22,0.90,2024-06-12_14h56.14.456,MSI_AV_v3,2022.1.1,59.78744367649312,
1,0,1,0,,,,,,,,,,1,3,2,b,63,1,4.01714354611405,3.1963008326951,None,95.19118690000323,None,98.45382059999974,None,98.45382059999974,None,98.45743768000685,None,None,98.45382059999974,None,['z'],[0.2821808000007877],100.39091940000071,None,z,2.2821808000007877,0,0,0.0,104.40093760000309,None,None,104.40093760000309,None,,,,,,,,,,,,,,,,,,,,,,CBC_1117,002,2,3,6,22,0.90,2024-06-12_14h56.14.456,MSI_AV_v3,2022.1.1,59.78744367649312,
2,0,2,0,,,,,,,,,,0,2,0,b,27,1,2.592312596923728,2.6299100644723,None,106.20747520000441,None,108.9005826000066,None,108.9005826000066,None,108.90771418001387,None,None,108.9005826000066,None,['b'],[0.9698454000026686],110.84117020000122,None,b,2.9698454000026686,1,1,0.3333333333333333,113.43153610000445,None,None,113.43153610000445,None,,,,,,,,,,,,,,,,,,,,,,CBC_1117,002,2,3,6,22,0.90,2024-06-12_14h56.14.456,MSI_AV_v3,2022.1.1,59.78744367649312,
3,0,3,0,,,,,,,,,,3,1,0,z,63,1,2.517541937862754,1.52290599571961,None,115.24088559999655,None,116.7799595999968,None,116.7799595999968,None,116.79131952000317,None,None,116.7799595999968,None,['z'],[0.7148239000089234],118.75761470000725,None,z,2.7148239000089234,1,1,0.5,121.26454570000351,None,None,121.26454570000351,None,,,,,,,,,,,,,,,,,,,,,,CBC_1117,002,2,3,6,22,0.90,2024-06-12_14h56.14.456,MSI_AV_v3,2022.1.1,59.78744367649312,
4,0,4,0,,,,,,,,,,2,3,1,z,27,1,2.526044641065533,3.33124983260532,None,123.0746000000072,None,126.45598490000702,None,126.45598490000702,None,126.45863040001132,None,None,126.45598490000702,None,['b'],[0.3084079000109341],128.4073073000036,None,b,2.308407900010934,0,0,0.4,130.92610320000676,None,None,130.92610320000676,None,,,,,,,,,,,,,,,,,,,,,,CBC_1117,002,2,3,6,22,0.90,2024-06-12_14h56.14.456,MSI_AV_v3,2022.1.1,59.78744367649312,
5,0,5,0,,,,,,,,,,0,2,3,b,63,1,3.31929419319838,0.979776149765883,None,132.74119680000877,None,133.72660780001024,None,133.72660780001024,None,133.72443704000327,None,None,133.72660780001024,None,['z'],[0.6799044000072172],135.70797980000498,None,z,2.679904400007217,0,0,0.3333333333333333,139.00809329999902,None,None,139.00809329999902,None,,,,,,,,,,,,,,,,,,,,,,CBC_1117,002,2,3,6,22,0.90,2024-06-12_14h56.14.456,MSI_AV_v3,2022.1.1,59.78744367649312,
6,0,6,0,,,,,,,,,,1,2,3,z,63,0,2.91303524001082,1.27538462653558,None,140.80768350001017,None,142.09377950000635,None,142.09377950000635,None,142.09105754000777,None,None,142.09377950000635,None,['b'],[0.26971880000201054],144.07477990000916,None,b,2.2697188000020105,0,1,0.2857142857142857,146.96886020000966,None,None,146.96886020000966,None,,,,,,,,,,,,,,,,,,,,,,CBC_1117,002,2,3,6,22,0.90,2024-06-12_14h56.14.456,MSI_AV_v3,2022.1.1,59.78744367649312,
7,0,7,0,,,,,,,,,,2,1,0,b,63,1,2.693348633324513,2.49839527409216,None,148.77454359999683,None,151.2969532999996,None,151.2969532999996,None,151.30790692001173,None,None,151.2969532999996,None,['b'],[0.3542858000000706],153.27451750000182,None,b,2.3542858000000706,1,1,0.375,155.95838199999707,None,None,155.95838199999707,None,,,,,,,,,,,,,,,,,,,,,,CBC_1117,002,2,3,6,22,0.90,2024-06-12_14h56.14.456,MSI_AV_v3,2022.1.1,59.78744367649312,
8,0,8,0,,,,,,,,,,3,0,2,b,27,1,3.71372710086949,2.96653053743745,None,157.75814810000884,None,160.74371380000957,None,160.74371380000957,None,160.74139344001307,None,None,160.74371380000957,None,['z'],[0.6163892000040505],162.72490050000488,None,z,2.6163892000040505,0,0,0.3333333333333333,166.42303540000285,None,None,166.42303540000285,None,,,,,,,,,,,,,,,,,,,,,,CBC_1117,002,2,3,6,22,0.90,2024-06-12_14h56.14.456,MSI_AV_v3,2022.1.1,59.78744367649312,
9,0,9,0,,,,,,,,,,1,0,3,z,9,1,3.73326136168326,1.25817747924478,None,168.22461720000138,None,169.4975865000015,None,169.4975865000015,None,169.508032420004,None,None,169.4975865000015,None,['z'],[0.2552872000087518],171.47465410000586,None,z,2.255287200008752,1,1,0.4,175.20749339999747,None,None,175.20749339999747,None,,,,,,,,,,,,,,,,,,,,,,CBC_1117,002,2,3,6,22,0.90,2024-06-12_14h56.14.456,MSI_AV_v3,2022.1.1,59.78744367649312,
10,0,10,0,,,,,,,,,,0,3,2,z,63,1,2.342239579230602,1.96568735158996,None,177.00826560000132,None,178.99527510000917,None,178.99527510000917,None,178.99138054000215,None,None,178.99527510000917,None,['b'],[0.7084013000130653],180.97544280000147,None,b,2.7084013000130653,0,0,0.36363636363636365,183.3023164000042,None,None,183.3023164000042,None,,,,,,,,,,,,,,,,,,,,,,CBC_1117,002,2,3,6,22,0.90,2024-06-12_14h56.14.456,MSI_AV_v3,2022.1.1,59.78744367649312,
11,0,11,0,,,,,,,,,,2,1,0,b,63,1,4.53337421950507,1.43470440954152,None,185.10821479999868,None,186.5625369000045,None,186.5625369000045,None,186.55807804000798,None,None,186.5625369000045,None,['b'],[0.3829586000065319],188.54134209999756,None,b,2.382958600006532,1,1,0.4166666666666667,193.0612778000068,None,None,193.0612778000068,None,,,,,,,,,,,,,,,,,,,,,,CBC_1117,002,2,3,6,22,0.90,2024-06-12_14h56.14.456,MSI_AV_v3,2022.1.1,59.78744367649312,
12,0,12,0,,,,,,,,,,1,3,2,b,63,1,2.496959177995529,2.15533949826702,None,194.87485750000633,None,197.04803250000987,None,197.04803250000987,None,197.05822312000382,None,None,197.04803250000987,None,['z'],[0.2735803000105079],199.0247975000093,None,z,2.273580300010508,0,0,0.38461538461538464,201.51729850000993,None,None,201.51729850000993,None,,,,,,,,,,,,,,,,,,,,,,CBC_1117,002,2,3,6,22,0.90,2024-06-12_14h56.14.456,MSI_AV_v3,2022.1.1,59.78744367649312,
13,0,13,0,,,,,,,,,,0,3,2,z,63,1,4.72585056748869,1.36309078069689,None,203.32499819999794,None,204.7111229000002,None,204.7111229000002,None,204.70830204000524,None,None,204.7111229000002,None,['b'],[0.6196965999988606],206.69146580000233,None,b,2.6196965999988606,0,0,0.35714285714285715,211.40815960000327,None,None,211.40815960000327,None,,,,,,,,,,,,,,,,,,,,,,CBC_1117,002,2,3,6,22,0.90,2024-06-12_14h56.14.456,MSI_AV_v3,2022.1.1,59.78744367649312,
14,0,14,0,,,,,,,,,,2,1,3,b,27,1,2.678526077912375,1.53243550275999,None,213.20837170000596,None,214.7661814000021,None,214.7661814000021,None,214.77500702000688,None,None,214.7661814000021,None,['z'],[0.33633890000055544],216.74057910000556,None,z,2.3363389000005554,0,0,0.3333333333333333,219.40078150000772,None,None,219.40078150000772,None,,,,,,,,,,,,,,,,,,,,,,CBC_1117,002,2,3,6,22,0.90,2024-06-12_14h56.14.456,MSI_AV_v3,2022.1.1,59.78744367649312,
15,0,15,0,,,,,,,,,,3,3,0,z,9,1,2.666404967794728,1.60731937853708,None,221.20833340000536,None,222.83214820000285,None,222.83214820000285,None,222.84180502000672,None,None,222.83214820000285,None,['z'],[0.39752929999667685],224.8082119000028,None,z,2.397529299996677,1,1,0.375,227.4725993000029,None,None,227.4725993000029,None,,,,,,,,,,,,,,,,,,,,,,CBC_1117,002,2,3,6,22,0.90,2024-06-12_14h56.14.456,MSI_AV_v3,2022.1.1,59.78744367649312,
16,0,16,0,,,,,,,,,,1,3,2,b,63,1,3.6438386551209,0.80788063606262,None,229.27503050000814,None,230.098865699998,None,230.098865699998,None,230.10869662000331,None,None,230.098865699998,None,['z'],[0.995252699998673],232.07510430000548,None,z,2.995252699998673,0,0,0.35294117647058826,235.70729050000955,None,None,235.70729050000955,None,,,,,,,,,,,,,,,,,,,,,,CBC_1117,002,2,3,6,22,0.90,2024-06-12_14h56.14.456,MSI_AV_v3,2022.1.1,59.78744367649312,
17,0,17,0,,,,,,,,,,0,2,0,b,27,1,3.02234236141277,1.94858485820231,None,237.50720120000187,None,239.45824540000467,None,239.45824540000467,None,239.4580104400113,None,None,239.45824540000467,None,['b'],[0.4574698000069475],241.44174439999915,None,b,2.4574698000069475,1,1,0.3888888888888889,244.4517526999989,None,None,244.4517526999989,None,,,,,,,,,,,,,,,,,,,,,,CBC_1117,002,2,3,6,22,0.90,2024-06-12_14h56.14.456,MSI_AV_v3,2022.1.1,59.78744367649312,
18,0,18,0,,,,,,,,,,3,1,0,z,63,1,3.3728785608729996,2.10421507306074,None,246.25840299999982,None,248.3838270999986,None,248.3838270999986,None,248.39190772000583,None,None,248.3838270999986,None,['b'],[0.9993895000079647],250.35854909999762,None,b,2.9993895000079647,0,0,0.3684210526315789,253.71475420000206,None,None,253.71475420000206,None,,,,,,,,,,,,,,,,,,,,,,CBC_1117,002,2,3,6,22,0.90,2024-06-12_14h56.14.456,MSI_AV_v3,2022.1.1,59.78744367649312,
19,0,19,0,,,,,,,,,,2,0,1,z,63,0,2.6391747348430608,0.917519910446003,None,255.52505720000772,None,256.4594814000011,None,256.4594814000011,None,256.458270440012,None,None,256.4594814000011,None,['z'],[0.2136634999915259],258.4419077000057,None,z,2.213663499991526,1,0,0.4,261.0791099000053,None,None,261.0791099000053,None,,,,,,,,,,,,,,,,,,,,,,CBC_1117,002,2,3,6,22,0.90,2024-06-12_14h56.14.456,MSI_AV_v3,2022.1.1,59.78744367649312,
20,0,20,0,,,,,,,,,,1,1,3,z,27,1,2.2759877950103027,1.12425433982333,None,262.89133800000127,None,264.03100679999625,None,264.03100679999625,None,264.0419816200097,None,None,264.03100679999625,None,['z'],[0.11574300000211224],266.00867510000535,None,z,2.1157430000021122,1,1,0.42857142857142855,268.27051519999804,None,None,268.27051519999804,None,,,,,,,,,,,,,,,,,,,,,,CBC_1117,002,2,3,6,22,0.90,2024-06-12_14h56.14.456,MSI_AV_v3,2022.1.1,59.78744367649312,
21,0,21,0,,,,,,,,,,0,2,3,b,63,1,3.76873691643126,0.952147612306987,None,270.0750180000032,None,271.0445166999998,None,271.0445166999998,None,271.04201814001425,None,None,271.0445166999998,None,['z'],[0.5650051000120584],273.0243868000107,None,z,2.5650051000120584,0,0,0.4090909090909091,276.78052339999704,None,None,276.78052339999704,None,,,,,,,,,,,,,,,,,,,,,,CBC_1117,002,2,3,6,22,0.90,2024-06-12_14h56.14.456,MSI_AV_v3,2022.1.1,59.78744367649312,
22,0,22,0,,,,,,,,,,2,1,0,b,63,1,4.7533305109883095,1.95130344756745,None,278.59211860000505,None,280.5604878000013,None,280.5604878000013,None,280.5584821400145,None,None,280.5604878000013,None,['b'],[1.6188386000139872],282.5420882000035,None,b,3.618838600013987,1,1,0.43478260869565216,287.28838050000195,None,None,287.28838050000195,None,,,,,,,,,,,,,,,,,,,,,,CBC_1117,002,2,3,6,22,0.90,2024-06-12_14h56.14.456,MSI_AV_v3,2022.1.1,59.78744367649312,
23,0,23,0,,,,,,,,,,3,2,0,z,27,1,3.2062024266105302,2.78346932462847,None,289.0920535000041,None,291.8960048000008,None,291.8960048000008,None,291.8920155400003,None,None,291.8960048000008,None,['b'],[0.5675744000036502],293.874507200002,None,b,2.5675744000036502,0,0,0.4166666666666667,297.0718867000105,None,None,297.0718867000105,None,,,,,,,,,,,,,,,,,,,,,,CBC_1117,002,2,3,6,22,0.90,2024-06-12_14h56.14.456,MSI_AV_v3,2022.1.1,59.78744367649312,
24,0,24,0,,,,,,,,,,1,2,3,z,63,1,3.7500315165247198,2.09887870490381,None,298.87481910000497,None,300.97881719999714,None,300.97881719999714,None,300.97550814001005,None,None,300.97881719999714,None,['b'],[1.4170464999915566],302.95875800000795,None,b,3.4170464999915566,0,0,0.4,306.69571130000986,None,None,306.69571130000986,None,,,,,,,,,,,,,,,,,,,,,,CBC_1117,002,2,3,6,22,0.90,2024-06-12_14h56.14.456,MSI_AV_v3,2022.1.1,59.78744367649312,
25,0,25,0,,,,,,,,,,0,2,0,b,27,1,4.11514536789087,2.40378712856304,None,308.50891960000445,None,310.92669999999634,None,310.92669999999634,None,310.9253996400104,None,None,310.92669999999634,None,['z'],[1.2234944000083487],312.90880469999684,None,z,3.2234944000083487,0,0,0.38461538461538464,317.0177110000077,None,None,317.0177110000077,None,,,,,,,,,,,,,,,,,,,,,,CBC_1117,002,2,3,6,22,0.90,2024-06-12_14h56.14.456,MSI_AV_v3,2022.1.1,59.78744367649312,
26,0,26,0,,,,,,,,,,2,1,0,b,63,1,4.52047235037039,3.06992456303453,None,318.82541240000864,None,321.8955704999971,None,321.8955704999971,None,321.90800854000844,None,None,321.8955704999971,None,['b'],[1.1941859000071418],323.8755441000103,None,b,3.1941859000071418,1,1,0.4074074074074074,328.3835612999974,None,None,328.3835612999974,None,,,,,,,,,,,,,,,,,,,,,,CBC_1117,002,2,3,6,22,0.90,2024-06-12_14h56.14.456,MSI_AV_v3,2022.1.1,59.78744367649312,
27,0,27,0,,,,,,,,,,3,0,1,b,63,1,4.12485271162806,3.1424449555106,None,330.19227390000015,None,333.34776740000234,None,333.34776740000234,None,333.3590309200022,None,None,333.34776740000234,None,['b'],[1.807548400000087],335.32547950001026,None,b,3.807548400000087,1,1,0.42857142857142855,339.4371974000096,None,None,339.4371974000096,None,,,,,,,,,,,,,,,,,,,,,,CBC_1117,002,2,3,6,22,0.90,2024-06-12_14h56.14.456,MSI_AV_v3,2022.1.1,59.78744367649312,
28,0,28,0,,,,,,,,,,0,3,2,z,63,0,4.77723667052879,1.18065738546375,None,341.2420878999983,None,342.4271483000048,None,342.4271483000048,None,342.4249372599995,None,None,342.4271483000048,None,['b'],[1.0572708000108832],344.4090159000043,None,b,3.0572708000108832,0,1,0.41379310344827586,349.1750283000001,None,None,349.1750283000001,None,,,,,,,,,,,,,,,,,,,,,,CBC_1117,002,2,3,6,22,0.90,2024-06-12_14h56.14.456,MSI_AV_v3,2022.1.1,59.78744367649312,
29,0,29,0,,,,,,,,,,1,3,1,b,27,1,2.7134565917469198,1.38289892513751,None,350.9763482999988,None,352.3640971999994,None,352.3640971999994,None,352.37463644000235,None,None,352.3640971999994,None,['z'],[0.8108476000052178],354.3425792000053,None,z,2.810847600005218,0,0,0.4,357.04012600000715,None,None,357.04012600000715,None,,,,,,,,,,,,,,,,,,,,,,CBC_1117,002,2,3,6,22,0.90,2024-06-12_14h56.14.456,MSI_AV_v3,2022.1.1,59.78744367649312,
30,0,30,0,,,,,,,,,,3,1,0,z,63,1,2.629554641171433,3.24569326556923,None,358.84235700000136,None,362.11371040000813,None,362.11371040000813,None,362.1092771400028,None,None,362.11371040000813,None,['z'],[0.5497095000173431],364.0924543000001,None,z,2.549709500017343,1,1,0.41935483870967744,366.7054184000008,None,None,366.7054184000008,None,,,,,,,,,,,,,,,,,,,,,,CBC_1117,002,2,3,6,22,0.90,2024-06-12_14h56.14.456,MSI_AV_v3,2022.1.1,59.78744367649312,
31,0,31,0,,,,,,,,,,1,3,2,b,63,1,3.26539063535182,3.4543169006169,None,368.50908889999846,None,371.98120320000453,None,371.98120320000453,None,371.992481820003,None,None,371.98120320000453,None,['z'],[1.1272361000155797],373.95923970000877,None,z,3.1272361000155797,0,0,0.40625,377.20729750000464,None,None,377.20729750000464,None,,,,,,,,,,,,,,,,,,,,,,CBC_1117,002,2,3,6,22,0.90,2024-06-12_14h56.14.456,MSI_AV_v3,2022.1.1,59.78744367649312,
32,0,32,0,,,,,,,,,,2,2,1,z,9,1,4.61004669244928,1.78643585472448,None,379.009177800006,None,380.7954047000094,None,380.7954047000094,None,380.80811174000263,None,None,380.7954047000094,None,['b'],[0.9302280999982031],382.7761299999984,None,b,2.930228099998203,0,0,0.3939393939393939,387.38506630000484,None,None,387.38506630000484,None,,,,,,,,,,,,,,,,,,,,,,CBC_1117,002,2,3,6,22,0.90,2024-06-12_14h56.14.456,MSI_AV_v3,2022.1.1,59.78744367649312,
33,0,33,0,,,,,,,,,,3,1,0,z,63,1,4.77034425507967,0.974903167432984,None,389.19273000000976,None,390.18156199999794,None,390.18156199999794,None,390.1930261200119,None,None,390.18156199999794,None,['b'],[1.289568899999722],392.1592399000074,None,b,3.289568899999722,0,0,0.38235294117647056,396.9261400000105,None,None,396.9261400000105,None,,,,,,,,,,,,,,,,,,,,,,CBC_1117,002,2,3,6,22,0.90,2024-06-12_14h56.14.456,MSI_AV_v3,2022.1.1,59.78744367649312,
34,0,34,0,,,,,,,,,,0,2,1,b,9,1,3.35133458220192,0.77703640172831,None,398.72506209999847,None,399.5144952999981,None,399.5144952999981,None,399.52599792001416,None,None,399.5144952999981,None,['z'],[1.0215938000037568],401.4926045000029,None,z,3.0215938000037568,0,0,0.37142857142857144,404.84050210000714,None,None,404.84050210000714,None,,,,,,,,,,,,,,,,,,,,,,CBC_1117,002,2,3,6,22,0.90,2024-06-12_14h56.14.456,MSI_AV_v3,2022.1.1,59.78744367649312,
35,0,35,0,,,,,,,,,,2,1,0,b,63,1,2.82320408183943,1.1243895841892,None,406.64270560001023,None,407.78271400000085,None,407.78271400000085,None,407.79286792000636,None,None,407.78271400000085,None,['b'],[0.26918920000025537],409.7594111000071,None,b,2.2691892000002554,1,1,0.3888888888888889,412.5790946000052,None,None,412.5790946000052,None,,,,,,,,,,,,,,,,,,,,,,CBC_1117,002,2,3,6,22,0.90,2024-06-12_14h56.14.456,MSI_AV_v3,2022.1.1,59.78744367649312,
36,0,36,0,,,,,,,,,,3,0,1,b,63,0,4.40017271499661,1.25920145784721,None,414.39287630000035,None,415.6594469999982,None,415.6594469999982,None,415.65943244000954,None,None,415.6594469999982,None,['b'],[0.5793898999982048],417.6428961000056,None,b,2.579389899998205,1,0,0.40540540540540543,422.0361827000015,None,None,422.0361827000015,None,,,,,,,,,,,,,,,,,,,,,,CBC_1117,002,2,3,6,22,0.90,2024-06-12_14h56.14.456,MSI_AV_v3,2022.1.1,59.78744367649312,
37,0,37,0,,,,,,,,,,2,0,1,z,63,1,4.46924002178158,1.21250262048173,None,423.84292120000464,None,425.083578100006,None,425.083578100006,None,425.09297652000674,None,['b'],425.083578100006,None,None,,427.07769910000206,None,b,1.7990071000094758,0,0,0.39473684210526316,431.54817979999643,None,None,431.54817979999643,None,[1.7990071000094758],,,,,,,,,,,,,,,,,,,,,CBC_1117,002,2,3,6,22,0.90,2024-06-12_14h56.14.456,MSI_AV_v3,2022.1.1,59.78744367649312,
38,0,38,0,,,,,,,,,,1,1,3,z,27,1,4.82531807167306,2.22427187882546,None,433.3597413000098,None,435.5989954000106,None,435.5989954000106,None,435.6095840200083,None,None,435.5989954000106,None,['b'],[0.3760980000079144],437.57641950000834,None,b,2.3760980000079144,0,0,0.38461538461538464,442.3846265000029,None,None,442.3846265000029,None,,,,,,,,,,,,,,,,,,,,,,CBC_1117,002,2,3,6,22,0.90,2024-06-12_14h56.14.456,MSI_AV_v3,2022.1.1,59.78744367649312,
39,0,39,0,,,,,,,,,,0,3,2,z,63,1,2.294664843639333,3.40155979865722,None,444.1929913000058,None,447.61589300000924,None,447.61589300000924,None,447.62631252001444,None,None,447.61589300000924,None,['z'],[0.23723250000330154],449.59250150001026,None,z,2.2372325000033015,1,1,0.4,451.86548429999675,None,None,451.86548429999675,None,,,,,,,,,,,,,,,,,,,,,,CBC_1117,002,2,3,6,22,0.90,2024-06-12_14h56.14.456,MSI_AV_v3,2022.1.1,59.78744367649312,
40,0,40,0,,,,,,,,,,3,0,2,b,27,1,2.433630701072358,1.90743690794447,None,453.6763789999968,None,455.6004222000047,None,455.6004222000047,None,455.60987352001536,None,None,455.6004222000047,None,['b'],[0.5821690000011586],457.57578700000886,None,b,2.5821690000011586,1,1,0.4146341463414634,459.9895888000028,None,None,459.9895888000028,None,,,,,,,,,,,,,,,,,,,,,,CBC_1117,002,2,3,6,22,0.90,2024-06-12_14h56.14.456,MSI_AV_v3,2022.1.1,59.78744367649312,
41,0,41,0,,,,,,,,,,1,2,3,z,63,1,3.68371079902891,1.34668860557497,None,461.79366760000994,None,463.1647526000015,None,463.1647526000015,None,463.17632752001515,None,None,463.1647526000015,None,['b'],[0.14717260000179522],465.1427104000031,None,b,2.147172600001795,0,0,0.40476190476190477,468.82188240000687,None,None,468.82188240000687,None,,,,,,,,,,,,,,,,,,,,,,CBC_1117,002,2,3,6,22,0.90,2024-06-12_14h56.14.456,MSI_AV_v3,2022.1.1,59.78744367649312,
42,0,42,0,,,,,,,,,,2,1,3,b,27,1,4.190022164497369,1.64421109900286,None,470.6264632000093,None,472.3008173999988,None,472.3008173999988,None,472.3098222200147,None,None,472.3008173999988,None,['b'],[0.40605580000556074],474.27663849999954,None,b,2.4060558000055607,1,1,0.4186046511627907,478.4616352000012,None,None,478.4616352000012,None,,,,,,,,,,,,,,,,,,,,,,CBC_1117,002,2,3,6,22,0.90,2024-06-12_14h56.14.456,MSI_AV_v3,2022.1.1,59.78744367649312,
43,0,43,0,,,,,,,,,,0,3,2,z,63,1,2.92731383428727,0.761758675042088,None,480.2757217000035,None,481.0488639999967,None,481.0488639999967,None,481.06014662001104,None,None,481.0488639999967,None,['z'],[0.8967611000116449],483.02573510000366,None,z,2.896761100011645,1,1,0.4318181818181818,485.93912350000755,None,None,485.93912350000755,None,,,,,,,,,,,,,,,,,,,,,,CBC_1117,002,2,3,6,22,0.90,2024-06-12_14h56.14.456,MSI_AV_v3,2022.1.1,59.78744367649312,
,,,,,,,,,,,,,,,,,,,,,,,,,,,,,,,,,,,,,,,,,,,,,,,,None,487.7430810000078,None,,,,,,,,,,,,,,,,,,CBC_1117,002,2,3,6,22,0.90,2024-06-12_14h56.14.456,MSI_AV_v3,2022.1.1,59.78744367649312,
,,,,,,,,,,,,,,,,,,,,,,,,,,,,,,,,,,,,,,,,,,,,,,,,,,,492.7433679000096,None,None,492.7433679000096,None,,,,,,,,,,,,,CBC_1117,002,2,3,6,22,0.90,2024-06-12_14h56.14.456,MSI_AV_v3,2022.1.1,59.78744367649312,
,,,,,,,,,,,,,,,,,,,,,,,,,,,,,,,,,,,,,,,,,,,,,,,,,,,,,,,,z,b,hard,"[0, 1, 2, 3]","[3, 2, 0, 1]",0.36363636363636365,0.45454545454545453,0.36363636363636365,0.5454545454545454,19,0,25,,,,,,,,,,,,
