trials_runs.thisRepN,trials_runs.thisTrialN,trials_runs.thisN,trials_runs.thisIndex,standbild_start.started,standbild_start.stopped,trigger.keys,trigger.rt,trigger.started,trigger.stopped,keys_2.keys,keys_2.started,keys_2.stopped,trials_runs.tactile_stim,trials_runs.visual_stim_left,trials_runs.visual_stim_right,trials_runs.correctKey,trials_runs.presentationFrequncy,trials_runs.FBaccuracy,trials_runs.ISI_s,trials_runs.ITI_s,keys_3.keys,keys_3.started,keys_3.stopped,image_stim_left.started,image_stim_right.started,tactile.started,response_4.keys,allKeys.keys,response_4.rt,allKeys.rt,response_5.keys,response_5.started,response_5.stopped,response_runs.keys,response_runs.rt,trials_runs.correct_answer,trials_runs.feedback_given,trials_runs.running_mean,feedback_6.stopped,feedback_6.started,keys_6.keys,keys_6.started,keys_6.stopped,response_5.rt,keys_6.rt,keys_7.keys,keys_7.started,keys_7.stopped,standbild_end.started,standbild_end.stopped,Stop_exp.keys,Stop_exp.started,Stop_exp.stopped,trials_runs.rightKey,trials_runs.leftKey,ts_difficulty,visualPair,tactilePair,trials_runs.mean_acc_1stFourth,trials_runs.mean_acc_2ndFourth,trials_runs.mean_acc_3rdFourth,trials_runs.mean_acc_4thFourth,nbCorrect,nbOmissions,nbIncorrect,participant,session,visual set [1-6],tactile set [1-3],trial structure [0-3 / 4-7],pairing [0-23],prob Feedback,date,expName,psychopyVersion,frameRate,
,,,,324.26286830000026,None,t,66.45097950000127,324.26286830000026,None,,,,,,,,,,,,,,,,,,,,,,,,,,,,,,,,,,,,,,,,,,,,,,,,,,,,,,,,,CBC_1075,003,2,1,5,6,0.95,2024-03-13_17h09.54.370,MSI_TV_v3,2022.1.1,60.01078994010359,
,,,,,,,,,,None,390.74506649999967,None,,,,,,,,,,,,,,,,,,,,,,,,,,,,,,,,,,,,,,,,,,,,,,,,,,,,,,CBC_1075,003,2,1,5,6,0.95,2024-03-13_17h09.54.370,MSI_TV_v3,2022.1.1,60.01078994010359,
0,0,0,0,,,,,,,,,,0,3,1,z,27,1,4.77034425507967,1.95130344756745,None,390.94549069999994,None,392.8782953599992,392.8782953599992,392.8948375599983,b,['b'],1.1468566000003193,[1.1468566000003193],None,394.9237338999992,None,b,1.1468566000003193,0,0,0.0,None,399.7311450999987,None,399.7311450999987,None,,,,,,,,,,,,,,,,,,,,,,,CBC_1075,003,2,1,5,6,0.95,2024-03-13_17h09.54.370,MSI_TV_v3,2022.1.1,60.01078994010359,
1,0,1,0,,,,,,,,,,2,2,3,b,63,1,4.77723667052879,3.33124983260532,None,401.5115475999992,None,404.8282465599994,404.8282465599994,404.8448105600008,None,[],,,['b'],406.83395369999926,None,b,2.6462294999982987,1,1,0.5,None,411.60474039999826,None,411.60474039999826,None,[0.6462294999982987],,,,,,,,,,,,,,,,,,,,,,CBC_1075,003,2,1,5,6,0.95,2024-03-13_17h09.54.370,MSI_TV_v3,2022.1.1,60.01078994010359,
2,0,2,0,,,,,,,,,,3,2,3,z,63,1,2.342239579230602,1.43470440954152,None,413.4115825999979,None,414.8279211599991,414.8279211599991,414.8445319600003,None,[],,,['b'],416.83205290000114,None,b,3.749905900000158,0,0,0.3333333333333333,None,419.17333080000026,"['z', 'z']",419.17333080000026,None,[1.749905900000158],"[0.8531973000026483, 1.5869851000024937]",,,,,,,,,,,,,,,,,,,,,CBC_1075,003,2,1,5,6,0.95,2024-03-13_17h09.54.370,MSI_TV_v3,2022.1.1,60.01078994010359,
3,0,3,0,,,,,,,,,,0,1,0,b,63,1,2.91303524001082,3.1424449555106,None,420.9783677999985,None,424.1116821600015,424.1116821600015,424.12833676000156,None,[],,,['z'],426.1176885999994,None,z,2.641258400002698,0,0,0.25,None,429.0247382999987,None,429.0247382999987,None,[0.6412584000026982],,,,,,,,,,,,,,,,,,,,,,CBC_1075,003,2,1,5,6,0.95,2024-03-13_17h09.54.370,MSI_TV_v3,2022.1.1,60.01078994010359,
4,0,4,0,,,,,,,,,,1,3,0,z,9,1,4.12485271162806,1.18065738546375,None,430.82845019999877,None,431.9951081599982,431.9951081599982,432.011583559998,None,[],,,['z'],434.00044870000056,None,z,2.5571006999998644,1,1,0.4,None,438.1117177999986,None,438.1117177999986,None,[0.5571006999998644],,,,,,,,,,,,,,,,,,,,,,CBC_1075,003,2,1,5,6,0.95,2024-03-13_17h09.54.370,MSI_TV_v3,2022.1.1,60.01078994010359,
5,0,5,0,,,,,,,,,,3,2,3,z,63,1,4.11514536789087,0.974903167432984,None,439.91139869999824,None,440.86177835999916,440.86177835999916,440.878309059998,None,[],,,['b'],442.8678914000011,None,b,3.658196100001078,0,0,0.3333333333333333,None,446.9782383999991,None,446.9782383999991,None,[1.6581961000010779],,,,,,,,,,,,,,,,,,,,,,CBC_1075,003,2,1,5,6,0.95,2024-03-13_17h09.54.370,MSI_TV_v3,2022.1.1,60.01078994010359,
6,0,6,0,,,,,,,,,,2,2,0,b,27,1,3.26539063535182,1.64421109900286,None,448.77816280000116,None,450.4115937600007,450.4115937600007,450.42844315999974,None,[],,,['z'],452.41830180000034,None,z,2.7278562000028614,0,0,0.2857142857142857,None,455.68104459999813,"['b', 'b']",455.68104459999813,None,[0.7278562000028614],"[0.29767370000263327, 1.4940290000013192]",,,,,,,,,,,,,,,,,,,,,CBC_1075,003,2,1,5,6,0.95,2024-03-13_17h09.54.370,MSI_TV_v3,2022.1.1,60.01078994010359,
7,0,7,0,,,,,,,,,,1,1,0,z,63,1,2.433630701072358,1.21250262048173,None,457.4951942999978,None,458.6951183600002,458.6951183600002,458.711652660001,None,[],,,['b'],460.7015724999983,None,b,2.566710499999317,0,0,0.25,None,463.13137939999797,None,463.13137939999797,None,[0.5667104999993171],,,,,,,,,,,,,,,,,,,,,,CBC_1075,003,2,1,5,6,0.95,2024-03-13_17h09.54.370,MSI_TV_v3,2022.1.1,60.01078994010359,
8,0,8,0,,,,,,,,,,0,0,1,z,63,1,2.82320408183943,1.78643585472448,None,464.94510699999955,None,466.71171426000075,466.71171426000075,466.7281935600011,None,[],,,['b'],468.7163327999988,None,b,3.9563898000014888,0,0,0.2222222222222222,None,471.5550460000013,['z'],471.5550460000013,None,[1.9563898000014888],[1.125568999999814],,,,,,,,,,,,,,,,,,,,,CBC_1075,003,2,1,5,6,0.95,2024-03-13_17h09.54.370,MSI_TV_v3,2022.1.1,60.01078994010359,
9,0,9,0,,,,,,,,,,3,3,1,b,27,1,3.31929419319838,1.12425433982333,None,473.36190050000005,None,474.46185856000085,474.46185856000085,474.47846206000105,None,[],,,['z'],476.4663922,None,z,3.5788038999999117,0,0,0.2,None,479.797889999998,None,479.797889999998,None,[1.5788038999999117],,,,,,,,,,,,,,,,,,,,,,CBC_1075,003,2,1,5,6,0.95,2024-03-13_17h09.54.370,MSI_TV_v3,2022.1.1,60.01078994010359,
10,0,10,0,,,,,,,,,,2,2,3,b,63,1,2.693348633324513,1.25920145784721,None,481.6115886999978,None,482.8450790600007,482.8450790600007,482.86180096000027,None,[],,,"['b', 'z', 'z']",484.84979569999996,None,b,2.9271213000029093,1,1,0.2727272727272727,None,487.5426163999982,None,487.5426163999982,None,"[0.9271213000029093, 1.3768827000021702, 1.726972600001318]",,,,,,,,,,,,,,,,,,,,,,CBC_1075,003,2,1,5,6,0.95,2024-03-13_17h09.54.370,MSI_TV_v3,2022.1.1,60.01078994010359,
11,0,11,0,,,,,,,,,,0,0,1,z,63,1,4.7533305109883095,3.24569326556923,None,489.34502040000007,None,492.57891915999863,492.57891915999863,492.59526206000083,b,['b'],1.9600626999999804,[1.9600626999999804],None,494.6179830000001,None,b,1.9600626999999804,0,0,0.25,None,499.37293209999916,None,499.37293209999916,None,,,,,,,,,,,,,,,,,,,,,,,CBC_1075,003,2,1,5,6,0.95,2024-03-13_17h09.54.370,MSI_TV_v3,2022.1.1,60.01078994010359,
12,0,12,0,,,,,,,,,,1,1,0,z,63,1,2.526044641065533,2.96653053743745,None,501.17878429999837,None,504.1284854599988,504.1284854599988,504.145174959999,None,[],,,['z'],506.13226099999883,None,z,2.0558543000006466,1,1,0.3076923076923077,None,508.6670148000012,None,508.6670148000012,None,[0.05585430000064662],,,,,,,,,,,,,,,,,,,,,,CBC_1075,003,2,1,5,6,0.95,2024-03-13_17h09.54.370,MSI_TV_v3,2022.1.1,60.01078994010359,
13,0,13,0,,,,,,,,,,2,2,1,b,9,1,4.40017271499661,2.40378712856304,None,510.47845270000107,None,512.861743260001,512.861743260001,512.8783728599999,None,[],,,['z'],514.8651591999987,None,z,3.082137800000055,0,0,0.2857142857142857,None,519.2679494000004,None,519.2679494000004,None,[1.082137800000055],,,,,,,,,,,,,,,,,,,,,,CBC_1075,003,2,1,5,6,0.95,2024-03-13_17h09.54.370,MSI_TV_v3,2022.1.1,60.01078994010359,
14,0,14,0,,,,,,,,,,1,0,1,b,63,1,2.496959177995529,1.27538462653558,None,521.0785069999984,None,522.3285730600007,522.3285730600007,522.3451048600007,b,"['b', 'z']",0.14782179999747314,"[0.14782179999747314, 0.16670009999870672]",None,524.368204800001,None,b,0.14782179999747314,1,1,0.3333333333333333,None,526.8739423000006,None,526.8739423000006,None,,,,,,,,,,,,,,,,,,,,,,,CBC_1075,003,2,1,5,6,0.95,2024-03-13_17h09.54.370,MSI_TV_v3,2022.1.1,60.01078994010359,
15,0,15,0,,,,,,,,,,3,1,3,z,27,1,2.629554641171433,3.40155979865722,None,528.6786138999996,None,532.0618464599982,532.0618464599982,532.07843966,None,[],,,['b'],534.0641886999983,None,b,2.877228000001196,0,0,0.3125,None,536.7065065999996,None,536.7065065999996,None,[0.877228000001196],,,,,,,,,,,,,,,,,,,,,,CBC_1075,003,2,1,5,6,0.95,2024-03-13_17h09.54.370,MSI_TV_v3,2022.1.1,60.01078994010359,
16,0,16,0,,,,,,,,,,0,1,0,b,63,1,2.678526077912375,1.25817747924478,None,538.5117868999987,None,539.745218159999,539.745218159999,539.7618067599985,None,[],,,['b'],541.7497489999987,None,b,3.0326027999981306,1,1,0.35294117647058826,None,544.4416985999997,None,544.4416985999997,None,[1.0326027999981306],,,,,,,,,,,,,,,,,,,,,,CBC_1075,003,2,1,5,6,0.95,2024-03-13_17h09.54.370,MSI_TV_v3,2022.1.1,60.01078994010359,
17,0,17,0,,,,,,,,,,2,3,2,z,63,0,2.517541937862754,2.09887870490381,None,546.2453145,None,548.328641159999,548.328641159999,548.3453951599993,None,[],,,['z'],550.3341490999992,None,z,2.6798014999985753,1,0,0.3888888888888889,None,552.8590069999991,None,552.8590069999991,None,[0.6798014999985753],,,,,,,,,,,,,,,,,,,,,,CBC_1075,003,2,1,5,6,0.95,2024-03-13_17h09.54.370,MSI_TV_v3,2022.1.1,60.01078994010359,
18,0,18,0,,,,,,,,,,1,0,2,b,27,1,4.01714354611405,0.952147612306987,None,554.6620058000008,None,555.5956799599996,555.5956799599996,555.6122526599981,None,[],,,"['b', 'z']",557.6011441999981,None,b,3.4249296999987564,1,1,0.42105263157894735,None,561.6005717999979,None,561.6005717999979,None,"[1.4249296999987564, 1.7461144000008062]",,,,,,,,,,,,,,,,,,,,,,CBC_1075,003,2,1,5,6,0.95,2024-03-13_17h09.54.370,MSI_TV_v3,2022.1.1,60.01078994010359,
19,0,19,0,,,,,,,,,,3,2,3,z,63,1,4.72585056748869,2.49839527409216,None,563.4120517999982,None,565.8953141600002,565.8953141600002,565.9119765600014,None,[],,,['z'],567.9014261000011,None,z,2.6217232999988482,1,1,0.45,None,572.612913500001,None,572.612913500001,None,[0.6217232999988482],,,,,,,,,,,,,,,,,,,,,,CBC_1075,003,2,1,5,6,0.95,2024-03-13_17h09.54.370,MSI_TV_v3,2022.1.1,60.01078994010359,
20,0,20,0,,,,,,,,,,0,1,3,b,27,1,4.82531807167306,0.979776149765883,None,574.4123819999986,None,575.3784738600013,575.3784738600013,575.3953338600011,None,[],,,['z'],577.3816797,None,z,3.558629999999539,0,0,0.42857142857142855,None,582.2227720999981,None,582.2227720999981,None,[1.558629999999539],,,,,,,,,,,,,,,,,,,,,,CBC_1075,003,2,1,5,6,0.95,2024-03-13_17h09.54.370,MSI_TV_v3,2022.1.1,60.01078994010359,
21,0,21,0,,,,,,,,,,2,2,3,b,63,1,3.71372710086949,2.78346932462847,None,584.0277738000004,None,586.7954694599982,586.7954694599982,586.8120364600006,None,[],,,['z'],588.8020013999994,None,z,3.1313196000010066,0,0,0.4090909090909091,None,592.5120274000001,None,592.5120274000001,None,[1.1313196000010066],,,,,,,,,,,,,,,,,,,,,,CBC_1075,003,2,1,5,6,0.95,2024-03-13_17h09.54.370,MSI_TV_v3,2022.1.1,60.01078994010359,
22,0,22,0,,,,,,,,,,1,1,0,z,63,1,3.35133458220192,1.60731937853708,None,594.3118266999991,None,595.8954011600006,595.8954011600006,595.9126609599996,None,[],,,['b'],597.9008993999996,None,b,3.56330589999925,0,0,0.391304347826087,None,601.2416685999997,None,601.2416685999997,None,[1.56330589999925],,,,,,,,,,,,,,,,,,,,,,CBC_1075,003,2,1,5,6,0.95,2024-03-13_17h09.54.370,MSI_TV_v3,2022.1.1,60.01078994010359,
23,0,23,0,,,,,,,,,,0,1,2,b,9,1,2.2759877950103027,0.917519910446003,None,603.0456239999985,None,603.9453961599982,603.9453961599982,603.9612561600013,None,[],,,['z'],605.9468869000011,None,z,2.8264243000012357,0,0,0.375,None,608.2332291999992,None,608.2332291999992,None,[0.8264243000012357],,,,,,,,,,,,,,,,,,,,,,CBC_1075,003,2,1,5,6,0.95,2024-03-13_17h09.54.370,MSI_TV_v3,2022.1.1,60.01078994010359,
24,0,24,0,,,,,,,,,,2,3,2,z,63,1,2.666404967794728,1.53243550275999,None,610.0455087000009,None,611.5619057599986,611.5619057599986,611.5787968599986,None,[],,,['z'],613.5670673999994,None,z,3.700009599997429,1,1,0.4,None,616.2395461999986,None,616.2395461999986,None,[1.7000095999974292],,,,,,,,,,,,,,,,,,,,,,CBC_1075,003,2,1,5,6,0.95,2024-03-13_17h09.54.370,MSI_TV_v3,2022.1.1,60.01078994010359,
25,0,25,0,,,,,,,,,,3,3,2,b,63,1,3.2062024266105302,1.96568735158996,None,618.0454153999999,None,619.9950481599997,619.9950481599997,620.0111628599996,None,[],,,['b'],621.9889531999979,None,b,2.925057899999956,1,1,0.4230769230769231,None,625.1984291999979,None,625.1984291999979,None,[0.9250578999999561],,,,,,,,,,,,,,,,,,,,,,CBC_1075,003,2,1,5,6,0.95,2024-03-13_17h09.54.370,MSI_TV_v3,2022.1.1,60.01078994010359,
26,0,26,0,,,,,,,,,,0,1,0,b,63,1,4.61004669244928,2.6299100644723,None,627.0121596999998,None,629.6288958599987,629.6288958599987,629.6455352599994,None,[],,,['b'],631.632912699999,None,b,2.7279152999981306,1,1,0.4444444444444444,None,636.2505315999988,None,636.2505315999988,None,[0.7279152999981306],,,,,,,,,,,,,,,,,,,,,,CBC_1075,003,2,1,5,6,0.95,2024-03-13_17h09.54.370,MSI_TV_v3,2022.1.1,60.01078994010359,
27,0,27,0,,,,,,,,,,1,2,0,z,27,1,4.190022164497369,1.90743690794447,None,638.0622613999985,None,639.9454617599993,639.9454617599993,639.9623853599994,None,[],,,['z'],641.9478572999978,None,z,3.3877841000030458,1,1,0.4642857142857143,None,646.1408733999997,None,646.1408733999997,None,[1.3877841000030458],,,,,,,,,,,,,,,,,,,,,,CBC_1075,003,2,1,5,6,0.95,2024-03-13_17h09.54.370,MSI_TV_v3,2022.1.1,60.01078994010359,
28,0,28,0,,,,,,,,,,3,3,1,b,27,1,2.294664843639333,0.77703640172831,None,647.9444968999996,None,648.6956936600006,648.6956936600006,648.7126568600004,None,[],,,['b'],650.6984516000011,None,b,2.8742136000000755,1,1,0.4827586206896552,None,652.9866263000004,None,652.9866263000004,None,[0.8742136000000755],,,,,,,,,,,,,,,,,,,,,,CBC_1075,003,2,1,5,6,0.95,2024-03-13_17h09.54.370,MSI_TV_v3,2022.1.1,60.01078994010359,
29,0,29,0,,,,,,,,,,1,0,1,b,63,1,3.7500315165247198,1.52290599571961,None,654.7953697000012,None,656.2955726599982,656.2955726599982,656.3122643600007,None,[],,,['b'],658.2942378000007,None,b,3.3255344000026525,1,1,0.5,None,662.0599543999997,None,662.0599543999997,None,[1.3255344000026525],,,,,,,,,,,,,,,,,,,,,,CBC_1075,003,2,1,5,6,0.95,2024-03-13_17h09.54.370,MSI_TV_v3,2022.1.1,60.01078994010359,
30,0,30,0,,,,,,,,,,2,0,2,z,27,1,2.92731383428727,1.94858485820231,None,663.8623689999986,None,665.7946329599988,665.7946329599988,665.811300260001,None,[],,,"['b', 'z', 'z', 'z', 'z']",667.7924389,None,b,2.8296119000006,0,0,0.4838709677419355,None,670.7104010000003,None,670.7104010000003,None,"[0.8296119000006001, 1.705459200002224, 2.0006161000019347, 2.2559458000032464, 2.725684800003364]",,,,,,,,,,,,,,,,,,,,,,CBC_1075,003,2,1,5,6,0.95,2024-03-13_17h09.54.370,MSI_TV_v3,2022.1.1,60.01078994010359,
31,0,31,0,,,,,,,,,,3,3,2,b,63,1,2.592312596923728,1.53122835510861,None,672.5122994000012,None,674.0291207599992,674.0291207599992,674.0456240600004,None,[],,,['b'],676.0266133000005,None,b,2.680750800001988,1,1,0.5,None,678.6279807999999,None,678.6279807999999,None,[0.680750800001988],,,,,,,,,,,,,,,,,,,,,,CBC_1075,003,2,1,5,6,0.95,2024-03-13_17h09.54.370,MSI_TV_v3,2022.1.1,60.01078994010359,
32,0,32,0,,,,,,,,,,0,0,1,z,63,1,2.6391747348430608,1.1243895841892,None,680.429030299998,None,681.528374459999,681.528374459999,681.5450587599996,z,['z'],1.6226925000009942,[1.6226925000009942],None,683.5627277999993,None,z,1.6226925000009942,1,1,0.5151515151515151,None,686.2086726999987,None,686.2086726999987,None,,,,,,,,,,,,,,,,,,,,,,,CBC_1075,003,2,1,5,6,0.95,2024-03-13_17h09.54.370,MSI_TV_v3,2022.1.1,60.01078994010359,
33,0,33,0,,,,,,,,,,1,1,0,z,63,1,3.73326136168326,2.10421507306074,None,688.0122263999983,None,690.0956341600001,690.0956341600001,690.1123440599993,None,[],,,['z'],692.1004313000012,None,z,2.347338399998989,1,1,0.5294117647058824,None,695.8372806999978,None,695.8372806999978,None,[0.3473383999989892],,,,,,,,,,,,,,,,,,,,,,CBC_1075,003,2,1,5,6,0.95,2024-03-13_17h09.54.370,MSI_TV_v3,2022.1.1,60.01078994010359,
34,0,34,0,,,,,,,,,,3,3,2,b,63,0,2.7134565917469198,3.06992456303453,None,697.6458684999998,None,700.6957219600015,700.6957219600015,700.7124403599998,None,[],,,['b'],702.7013541999986,None,b,3.0840247000014642,1,0,0.5428571428571428,None,705.4076544999989,None,705.4076544999989,None,[1.0840247000014642],,,,,,,,,,,,,,,,,,,,,,CBC_1075,003,2,1,5,6,0.95,2024-03-13_17h09.54.370,MSI_TV_v3,2022.1.1,60.01078994010359,
35,0,35,0,,,,,,,,,,2,0,2,z,27,1,3.6438386551209,1.36309078069689,None,707.2122488999994,None,708.562475659998,708.562475659998,708.5791390599995,None,[],,,['z'],710.5672754000007,None,z,2.1106130000007397,1,1,0.5555555555555556,None,714.2092081999981,None,714.2092081999981,None,[0.1106130000007397],,,,,,,,,,,,,,,,,,,,,,CBC_1075,003,2,1,5,6,0.95,2024-03-13_17h09.54.370,MSI_TV_v3,2022.1.1,60.01078994010359,
36,0,36,0,,,,,,,,,,1,1,0,z,63,1,4.46924002178158,2.15533949826702,None,716.0128077000008,None,718.1457741599995,718.1457741599995,718.1622947600015,z,['z'],1.9885749999994005,[1.9885749999994005],None,720.1902000000009,None,z,1.9885749999994005,1,1,0.5675675675675675,None,724.6616427000008,None,724.6616427000008,None,,,,,,,,,,,,,,,,,,,,,,,CBC_1075,003,2,1,5,6,0.95,2024-03-13_17h09.54.370,MSI_TV_v3,2022.1.1,60.01078994010359,
37,0,37,0,,,,,,,,,,0,3,1,z,27,1,4.52047235037039,1.38289892513751,None,726.4625998999982,None,727.8295622599987,727.8295622599987,727.8456148599987,None,[],,,['z'],729.826230300001,None,z,2.56692529999782,1,1,0.5789473684210527,None,734.3561183999991,None,734.3561183999991,None,[0.5669252999978198],,,,,,,,,,,,,,,,,,,,,,CBC_1075,003,2,1,5,6,0.95,2024-03-13_17h09.54.370,MSI_TV_v3,2022.1.1,60.01078994010359,
38,0,38,0,,,,,,,,,,2,2,3,b,63,1,3.3728785608729996,0.761758675042088,None,736.1623819999986,None,736.9125695599985,736.9125695599985,736.9292341599983,None,[],,,['z'],738.9155041999984,None,z,3.609860699998535,0,0,0.5641025641025641,None,742.2859151999983,['b'],742.2859151999983,None,[1.609860699998535],[1.0222548000019742],,,,,,,,,,,,,,,,,,,,,CBC_1075,003,2,1,5,6,0.95,2024-03-13_17h09.54.370,MSI_TV_v3,2022.1.1,60.01078994010359,
39,0,39,0,,,,,,,,,,3,2,3,z,63,1,3.76873691643126,3.1963008326951,None,744.0957063999995,None,747.2792507599995,747.2792507599995,747.295809259999,None,[],,,['b'],749.284904600001,None,b,3.1146503999989363,0,0,0.55,None,753.0552867000006,None,753.0552867000006,None,[1.1146503999989363],,,,,,,,,,,,,,,,,,,,,,CBC_1075,003,2,1,5,6,0.95,2024-03-13_17h09.54.370,MSI_TV_v3,2022.1.1,60.01078994010359,
40,0,40,0,,,,,,,,,,0,1,0,b,63,1,3.02234236141277,3.4543169006169,None,754.8625381999991,None,758.2951122599995,758.2951122599995,758.3119975599991,b,['b'],1.643339800000831,[1.643339800000831],None,760.3295569000002,None,b,1.643339800000831,1,1,0.5609756097560976,None,763.3454978000009,None,763.3454978000009,None,,,,,,,,,,,,,,,,,,,,,,,CBC_1075,003,2,1,5,6,0.95,2024-03-13_17h09.54.370,MSI_TV_v3,2022.1.1,60.01078994010359,
41,0,41,0,,,,,,,,,,1,0,2,b,27,1,4.53337421950507,1.34668860557497,None,765.145959999998,None,766.4794067599985,766.4794067599985,766.4958516599988,None,[],,,['z'],768.4782845000009,None,z,3.5774960000017018,0,0,0.5476190476190477,None,773.013684900001,None,773.013684900001,None,[1.5774960000017018],,,,,,,,,,,,,,,,,,,,,,CBC_1075,003,2,1,5,6,0.95,2024-03-13_17h09.54.370,MSI_TV_v3,2022.1.1,60.01078994010359,
42,0,42,0,,,,,,,,,,3,0,3,z,9,1,3.68371079902891,2.22427187882546,None,774.8126978,None,777.0129338599988,777.0129338599988,777.0301730600011,None,[],,,['b'],779.0180321000007,None,b,2.790373499999987,0,0,0.5348837209302325,None,782.7089465999998,None,782.7089465999998,None,[0.790373499999987],,,,,,,,,,,,,,,,,,,,,,CBC_1075,003,2,1,5,6,0.95,2024-03-13_17h09.54.370,MSI_TV_v3,2022.1.1,60.01078994010359,
43,0,43,0,,,,,,,,,,2,2,3,b,63,1,2.792365600763554,0.80788063606262,None,784.5128254999981,None,785.2961126599992,785.2961126599992,785.3136369600004,None,[],,,['b'],787.3038765999991,None,b,3.5943661000019347,1,1,0.5454545454545454,None,790.083890599999,None,790.083890599999,None,[1.5943661000019347],,,,,,,,,,,,,,,,,,,,,,CBC_1075,003,2,1,5,6,0.95,2024-03-13_17h09.54.370,MSI_TV_v3,2022.1.1,60.01078994010359,
,,,,,,,,,,,,,,,,,,,,,,,,,,,,,,,,,,,,,,,,,,,,,,None,791.8964054999997,None,,,,,,,,,,,,,,,,,,CBC_1075,003,2,1,5,6,0.95,2024-03-13_17h09.54.370,MSI_TV_v3,2022.1.1,60.01078994010359,
,,,,,,,,,,,,,,,,,,,,,,,,,,,,,,,,,,,,,,,,,,,,,,,,,796.8795547000009,None,None,796.8795547000009,801.8617997000001,,,,,,,,,,,,,CBC_1075,003,2,1,5,6,0.95,2024-03-13_17h09.54.370,MSI_TV_v3,2022.1.1,60.01078994010359,
,,,,,,,,,,,,,,,,,,,,,,,,,,,,,,,,,,,,,,,,,,,,,,,,,,,,,,z,b,hard,"[0, 1, 2, 3]","[1, 0, 2, 3]",0.2727272727272727,0.5454545454545454,0.7272727272727273,0.6363636363636364,22,0,22,,,,,,,,,,,,
