trials_runs.thisRepN,trials_runs.thisTrialN,trials_runs.thisN,trials_runs.thisIndex,standbild_start.started,standbild_start.stopped,trigger.keys,trigger.rt,trigger.started,trigger.stopped,keys_2.keys,keys_2.started,keys_2.stopped,trials_runs.auditory_stim,trials_runs.visual_stim_left,trials_runs.visual_stim_right,trials_runs.correctKey,trials_runs.presentationFrequncy,trials_runs.FBaccuracy,trials_runs.ISI_s,trials_runs.ITI_s,keys_3.keys,keys_3.started,keys_3.stopped,ImageLeft_4.started,ImageLeft_4.stopped,ImageRight_4.started,ImageRight_4.stopped,sound_4.started,sound_4.stopped,response_4.keys,response_4.started,response_4.stopped,response_5.keys,response_5.started,response_5.stopped,response_runs.keys,response_runs.rt,trials_runs.correct_answer,trials_runs.feedback_given,trials_runs.running_mean,feedback_6.started,feedback_6.stopped,keys_6.keys,keys_6.started,keys_6.stopped,response_4.rt,response_5.rt,keys_6.rt,keys_3.rt,keys_7.keys,keys_7.started,keys_7.stopped,standbild_end.started,standbild_end.stopped,Stop_exp.keys,Stop_exp.started,Stop_exp.stopped,trials_runs.rightKey,trials_runs.leftKey,ts_difficulty,visualPair,audioPair,trials_runs.mean_acc_1stFourth,trials_runs.mean_acc_2ndFourth,trials_runs.mean_acc_3rdFourth,trials_runs.mean_acc_4thFourth,nbCorrect,nbOmissions,nbIncorrect,participant,session,visual set [1-6],audio set [1-3 / 4-6],trial structure [0-3 / 4-7],pairing [0-23],prob Feedback,date,expName,psychopyVersion,frameRate,
,,,,43.14496099999997,None,t,63.22442360000059,43.14496099999997,None,,,,,,,,,,,,,,,,,,,,,,,,,,,,,,,,,,,,,,,,,,,,,,,,,,,,,,,,,,,,,CBC_1076,2,5,3,6,8,0.95,2024-03-13_14h06.57.958,MSI_AV_v3,2022.1.1,60.0065767208957,
,,,,,,,,,,None,106.3951733999993,None,,,,,,,,,,,,,,,,,,,,,,,,,,,,,,,,,,,,,,,,,,,,,,,,,,,,,,,,,,CBC_1076,2,5,3,6,8,0.95,2024-03-13_14h06.57.958,MSI_AV_v3,2022.1.1,60.0065767208957,
0,0,0,0,,,,,,,,,,1,1,0,z,63,1,3.71372710086949,1.53243550275999,None,106.59514859999945,None,108.2583754999996,None,108.2583754999996,None,108.26173189999918,None,None,108.2583754999996,None,None,110.12835670000004,None,[],[],0,3,0.0,113.85076539999955,None,None,113.85076539999955,None,,,,,,,,,,,,,,,,,,,,,,,,,CBC_1076,2,5,3,6,8,0.95,2024-03-13_14h06.57.958,MSI_AV_v3,2022.1.1,60.0065767208957,
1,0,1,0,,,,,,,,,,3,3,2,b,63,1,4.61004669244928,2.6299100644723,None,115.6452878,None,118.35254139999961,None,118.35254139999961,None,118.36191121999917,None,['z'],118.35254139999961,None,None,120.29480319999948,None,z,1.6829979000003732,0,0,0.0,124.91112539999995,None,None,124.91112539999995,None,[1.6829979000003732],,,,,,,,,,,,,,,,,,,,,,,,CBC_1076,2,5,3,6,8,0.95,2024-03-13_14h06.57.958,MSI_AV_v3,2022.1.1,60.0065767208957,
2,0,2,0,,,,,,,,,,0,2,0,b,27,1,2.526044641065533,1.36309078069689,None,126.71158809999997,None,128.1072755999994,None,128.1072755999994,None,128.11188749999974,None,None,128.1072755999994,None,None,130.0612154999999,None,[],[],0,3,0.0,132.56118489999972,None,None,132.56118489999972,None,,,,,,,,,,,,,,,,,,,,,,,,,CBC_1076,2,5,3,6,8,0.95,2024-03-13_14h06.57.958,MSI_AV_v3,2022.1.1,60.0065767208957,
3,0,3,0,,,,,,,,,,1,1,0,z,63,1,3.73326136168326,1.90743690794447,None,134.36181969999961,None,136.28502459999982,None,136.28502459999982,None,136.29524493999944,None,None,136.28502459999982,None,"['b', 'z']",138.2624791999997,None,b,2.3901882000000114,0,0,0.0,141.9932678999994,None,['z'],141.9932678999994,None,,"[0.3901882000000114, 1.9447523000008005]",[1.4476720000002388],,,,,,,,,,,,,,,,,,,,,,CBC_1076,2,5,3,6,8,0.95,2024-03-13_14h06.57.958,MSI_AV_v3,2022.1.1,60.0065767208957,
4,0,4,0,,,,,,,,,,2,3,1,z,27,1,3.26539063535182,0.917519910446003,['z'],143.7952854999994,None,144.7484356999994,None,144.7484356999994,None,144.745357539999,None,['b'],144.7484356999994,None,['z'],146.72694609999962,None,b,1.6275822000006883,0,0,0.0,150.00107729999945,None,None,150.00107729999945,None,[1.6275822000006883],[2.145399900000484],,[0.35197710000011284],,,,,,,,,,,,,,,,,,,,,CBC_1076,2,5,3,6,8,0.95,2024-03-13_14h06.57.958,MSI_AV_v3,2022.1.1,60.0065767208957,
5,0,5,0,,,,,,,,,,0,2,3,b,63,1,2.496959177995529,1.34668860557497,['z'],151.81199070000002,None,153.1639551999997,None,153.1639551999997,None,153.16090251999975,None,None,153.1639551999997,None,['b'],155.14543049999975,None,b,2.8090080000001763,1,1,0.16666666666666666,157.63083219999953,None,None,157.63083219999953,None,,[0.8090080000001763],,[0.42730719999963185],,,,,,,,,,,,,,,,,,,,,CBC_1076,2,5,3,6,8,0.95,2024-03-13_14h06.57.958,MSI_AV_v3,2022.1.1,60.0065767208957,
6,0,6,0,,,,,,,,,,3,2,3,z,63,1,2.693348633324513,1.38289892513751,None,159.4455012999997,None,160.83003849999932,None,160.83003849999932,None,160.8276922199995,None,['z'],160.83003849999932,None,None,162.82991349999975,None,z,1.7276284999998097,1,1,0.2857142857142857,165.53233769999952,None,None,165.53233769999952,None,[1.7276284999998097],,,,,,,,,,,,,,,,,,,,,,,,CBC_1076,2,5,3,6,8,0.95,2024-03-13_14h06.57.958,MSI_AV_v3,2022.1.1,60.0065767208957,
7,0,7,0,,,,,,,,,,2,1,0,b,63,1,2.666404967794728,2.40378712856304,None,167.34546879999925,None,169.7630478000001,None,169.7630478000001,None,169.76184017999938,None,None,169.7630478000001,None,None,171.74523820000013,None,[],[],0,3,0.25,174.40055909999955,None,None,174.40055909999955,None,,,,,,,,,,,,,,,,,,,,,,,,,CBC_1076,2,5,3,6,8,0.95,2024-03-13_14h06.57.958,MSI_AV_v3,2022.1.1,60.0065767208957,
8,0,8,0,,,,,,,,,,1,0,2,b,27,1,4.72585056748869,3.40155979865722,None,176.21146249999947,None,179.63429709999946,None,179.63429709999946,None,179.6454707399993,None,None,179.63429709999946,None,['b'],181.61212119999982,None,b,2.381217299999662,1,1,0.3333333333333333,186.33323689999997,None,None,186.33323689999997,None,,[0.3812172999996619],,,,,,,,,,,,,,,,,,,,,,,CBC_1076,2,5,3,6,8,0.95,2024-03-13_14h06.57.958,MSI_AV_v3,2022.1.1,60.0065767208957,
9,0,9,0,,,,,,,,,,3,0,3,z,9,1,3.68371079902891,0.979776149765883,None,188.14561030000004,None,189.15142319999995,None,189.15142319999995,None,189.16205713999935,None,['z'],189.15142319999995,None,None,191.1432877999996,None,z,1.2150139000004856,1,1,0.4,194.8355001,None,None,194.8355001,None,[1.2150139000004856],,,,,,,,,,,,,,,,,,,,,,,,CBC_1076,2,5,3,6,8,0.95,2024-03-13_14h06.57.958,MSI_AV_v3,2022.1.1,60.0065767208957,
10,0,10,0,,,,,,,,,,0,3,2,z,63,1,4.77034425507967,2.15533949826702,None,196.64439279999988,None,198.81659169999966,None,198.81659169999966,None,198.82873443999907,None,None,198.81659169999966,None,['b'],200.7953966999994,None,b,2.527470099999846,0,0,0.36363636363636365,205.5478138999997,None,None,205.5478138999997,None,,[0.5274700999998458],,,,,,,,,,,,,,,,,,,,,,,CBC_1076,2,5,3,6,8,0.95,2024-03-13_14h06.57.958,MSI_AV_v3,2022.1.1,60.0065767208957,
11,0,11,0,,,,,,,,,,2,1,0,b,63,1,3.6438386551209,0.80788063606262,None,207.3623123999996,None,208.18424779999987,None,208.18424779999987,None,208.1955040399993,None,None,208.18424779999987,None,['b'],210.16227049999998,None,b,2.684077600000819,1,1,0.4166666666666667,213.79638879999948,None,None,213.79638879999948,None,,[0.6840776000008191],,,,,,,,,,,,,,,,,,,,,,,CBC_1076,2,5,3,6,8,0.95,2024-03-13_14h06.57.958,MSI_AV_v3,2022.1.1,60.0065767208957,
12,0,12,0,,,,,,,,,,3,3,2,b,63,1,2.592312596923728,0.974903167432984,None,215.59585619999962,None,216.58567739999944,None,216.58567739999944,None,216.59559073999972,None,None,216.58567739999944,None,None,218.5623115999997,None,[],[],0,3,0.38461538461538464,221.13231639999958,None,None,221.13231639999958,None,,,,,,,,,,,,,,,,,,,,,,,,,CBC_1076,2,5,3,6,8,0.95,2024-03-13_14h06.57.958,MSI_AV_v3,2022.1.1,60.0065767208957,
13,0,13,0,,,,,,,,,,0,3,2,z,63,1,2.6391747348430608,2.09887870490381,None,222.94567629999983,None,225.07083729999977,None,225.07083729999977,None,225.07896373999975,None,None,225.07083729999977,None,['b'],227.04515679999986,None,b,2.120311200001197,0,0,0.35714285714285715,229.6707851000001,None,None,229.6707851000001,None,,[0.120311200001197],,,,,,,,,,,,,,,,,,,,,,,CBC_1076,2,5,3,6,8,0.95,2024-03-13_14h06.57.958,MSI_AV_v3,2022.1.1,60.0065767208957,
14,0,14,0,,,,,,,,,,2,1,3,b,27,1,4.40017271499661,1.43470440954152,None,231.47954989999926,None,232.9360472999997,None,232.9360472999997,None,232.94558183999962,None,"['b', 'z']",232.9360472999997,None,None,234.91386499999953,None,b,1.0356821000004857,1,1,0.4,239.31934,None,None,239.31934,None,"[1.0356821000004857, 1.6052362000009452]",,,,,,,,,,,,,,,,,,,,,,,,CBC_1076,2,5,3,6,8,0.95,2024-03-13_14h06.57.958,MSI_AV_v3,2022.1.1,60.0065767208957,
15,0,15,0,,,,,,,,,,1,3,0,z,9,1,3.2062024266105302,3.1424449555106,None,241.12907579999955,None,244.28496319999977,None,244.28496319999977,None,244.29563753999938,None,None,244.28496319999977,None,['b'],246.26226179999958,None,b,2.36713090000012,0,0,0.375,249.46045099999992,None,['z'],249.46045099999992,None,,[0.36713090000012016],[1.0700145000009798],,,,,,,,,,,,,,,,,,,,,,CBC_1076,2,5,3,6,8,0.95,2024-03-13_14h06.57.958,MSI_AV_v3,2022.1.1,60.0065767208957,
16,0,16,0,,,,,,,,,,3,3,2,b,63,1,2.91303524001082,0.761758675042088,None,251.26245589999962,None,252.0514278999999,None,252.0514278999999,None,252.0623235399993,None,None,252.0514278999999,None,['b'],254.0290275999996,None,b,2.6795344000011028,1,1,0.4117647058823529,256.9300500999998,None,None,256.9300500999998,None,,[0.6795344000011028],,,,,,,,,,,,,,,,,,,,,,,CBC_1076,2,5,3,6,8,0.95,2024-03-13_14h06.57.958,MSI_AV_v3,2022.1.1,60.0065767208957,
17,0,17,0,,,,,,,,,,0,2,0,b,27,1,4.46924002178158,1.94858485820231,None,258.74559509999926,None,260.6973844999993,None,260.6973844999993,None,260.69464251999966,None,None,260.6973844999993,None,['z'],262.67946889999985,None,z,2.6362658000007286,0,0,0.3888888888888889,267.13945199999944,None,None,267.13945199999944,None,,[0.6362658000007286],,,,,,,,,,,,,,,,,,,,,,,CBC_1076,2,5,3,6,8,0.95,2024-03-13_14h06.57.958,MSI_AV_v3,2022.1.1,60.0065767208957,
18,0,18,0,,,,,,,,,,1,1,0,z,63,1,2.629554641171433,1.12425433982333,None,268.94602719999966,None,270.0835952999996,None,270.0835952999996,None,270.09570423999907,None,None,270.0835952999996,None,None,272.0624829999997,None,[],[],0,3,0.3684210526315789,274.68531279999934,None,['z'],274.68531279999934,None,,,[0.7050607999999556],,,,,,,,,,,,,,,,,,,,,,CBC_1076,2,5,3,6,8,0.95,2024-03-13_14h06.57.958,MSI_AV_v3,2022.1.1,60.0065767208957,
19,0,19,0,,,,,,,,,,2,0,1,z,63,0,2.82320408183943,1.53122835510861,None,276.4960803999993,None,278.0477793,None,278.0477793,None,278.0457817799991,None,None,278.0477793,None,['b'],280.02899530000013,None,b,2.336169200000768,0,1,0.35,282.8335830999995,None,None,282.8335830999995,None,,[0.3361692000007679],,,,,,,,,,,,,,,,,,,,,,,CBC_1076,2,5,3,6,8,0.95,2024-03-13_14h06.57.958,MSI_AV_v3,2022.1.1,60.0065767208957,
20,0,20,0,,,,,,,,,,3,1,3,z,27,1,2.433630701072358,1.64421109900286,None,284.6457544999994,None,286.28729979999935,None,286.28729979999935,None,286.29545457999967,None,None,286.28729979999935,None,['b'],288.2797144999995,None,b,3.4542095000006157,0,0,0.3333333333333333,290.7003156999999,None,None,290.7003156999999,None,,[1.4542095000006157],,,,,,,,,,,,,,,,,,,,,,,CBC_1076,2,5,3,6,8,0.95,2024-03-13_14h06.57.958,MSI_AV_v3,2022.1.1,60.0065767208957,
21,0,21,0,,,,,,,,,,0,2,3,b,63,1,2.2759877950103027,1.25920145784721,None,292.5125287999999,None,293.76395259999936,None,293.76395259999936,None,293.7620626199998,None,None,293.76395259999936,None,None,295.7625324999999,None,[],[],0,3,0.3181818181818182,298.0184178999998,None,None,298.0184178999998,None,,,,,,,,,,,,,,,,,,,,,,,,,CBC_1076,2,5,3,6,8,0.95,2024-03-13_14h06.57.958,MSI_AV_v3,2022.1.1,60.0065767208957,
22,0,22,0,,,,,,,,,,2,1,0,b,63,1,4.82531807167306,1.96568735158996,['z'],299.8292324999993,None,301.8180109999994,None,301.8180109999994,None,301.82907543999903,None,None,301.8180109999994,None,['z'],303.7951415999996,None,z,6.433390100000906,0,0,0.30434782608695654,308.6012716999994,None,None,308.6012716999994,None,,[4.433390100000906],,[0.526968900000611],,,,,,,,,,,,,,,,,,,,,CBC_1076,2,5,3,6,8,0.95,2024-03-13_14h06.57.958,MSI_AV_v3,2022.1.1,60.0065767208957,
23,0,23,0,,,,,,,,,,1,2,0,z,27,1,2.294664843639333,3.24569326556923,None,310.41248730000007,None,313.68454889999975,None,313.68454889999975,None,313.6959369399996,None,['z'],313.68454889999975,None,None,315.67689470000005,None,z,1.900717600000462,1,1,0.3333333333333333,317.9694765999993,None,None,317.9694765999993,None,[1.900717600000462],,,,,,,,,,,,,,,,,,,,,,,,CBC_1076,2,5,3,6,8,0.95,2024-03-13_14h06.57.958,MSI_AV_v3,2022.1.1,60.0065767208957,
24,0,24,0,,,,,,,,,,3,2,3,z,63,1,2.7134565917469198,2.96653053743745,None,319.7792740999994,None,322.7642941999993,None,322.7642941999993,None,322.76248957999934,None,None,322.7642941999993,None,['z'],324.7459881999994,None,z,2.9743506000004345,1,1,0.36,327.4420829999999,None,None,327.4420829999999,None,,[0.9743506000004345],,,,,,,,,,,,,,,,,,,,,,,CBC_1076,2,5,3,6,8,0.95,2024-03-13_14h06.57.958,MSI_AV_v3,2022.1.1,60.0065767208957,
25,0,25,0,,,,,,,,,,0,2,0,b,27,1,2.792365600763554,2.22427187882546,None,329.24605749999955,None,331.4853396999997,None,331.4853396999997,None,331.49601873999967,None,None,331.4853396999997,None,['z'],333.46262320000005,None,z,2.761016100001143,0,0,0.34615384615384615,336.2491123,None,None,336.2491123,None,,[0.7610161000011431],,,,,,,,,,,,,,,,,,,,,,,CBC_1076,2,5,3,6,8,0.95,2024-03-13_14h06.57.958,MSI_AV_v3,2022.1.1,60.0065767208957,
26,0,26,0,,,,,,,,,,2,1,0,b,63,1,3.35133458220192,1.60731937853708,None,338.06280049999987,None,339.6852504999997,None,339.6852504999997,None,339.69606723999954,None,['b'],339.6852504999997,None,None,341.6856004000001,None,b,1.9017313000003924,1,1,0.37037037037037035,345.02830429999995,None,None,345.02830429999995,None,[1.9017313000003924],,,,,,,,,,,,,,,,,,,,,,,,CBC_1076,2,5,3,6,8,0.95,2024-03-13_14h06.57.958,MSI_AV_v3,2022.1.1,60.0065767208957,
27,0,27,0,,,,,,,,,,1,0,1,b,63,1,3.7500315165247198,3.33124983260532,None,346.82950209999944,None,350.18654779999997,None,350.18654779999997,None,350.19612633999935,None,['z'],350.18654779999997,None,['b'],352.1758839999993,None,z,1.2847866000001886,0,0,0.35714285714285715,355.9192747999996,None,None,355.9192747999996,None,[1.2847866000001886],[0.9557550999998057],,,,,,,,,,,,,,,,,,,,,,,CBC_1076,2,5,3,6,8,0.95,2024-03-13_14h06.57.958,MSI_AV_v3,2022.1.1,60.0065767208957,
28,0,28,0,,,,,,,,,,0,3,2,z,63,1,4.53337421950507,1.27538462653558,None,357.72934689999965,None,359.0204083999997,None,359.0204083999997,None,359.0294779399996,None,None,359.0204083999997,None,['z'],360.995946,None,z,4.155051600000661,1,1,0.3793103448275862,365.50929129999986,None,None,365.50929129999986,None,,[2.155051600000661],,,,,,,,,,,,,,,,,,,,,,,CBC_1076,2,5,3,6,8,0.95,2024-03-13_14h06.57.958,MSI_AV_v3,2022.1.1,60.0065767208957,
29,0,29,0,,,,,,,,,,3,3,1,b,27,1,4.01714354611405,2.10421507306074,None,367.3126208999993,None,369.43755169999986,None,369.43755169999986,None,369.44619883999934,None,None,369.43755169999986,None,['b'],371.41286129999935,None,b,2.510070100000121,1,1,0.4,375.42432029999964,None,None,375.42432029999964,None,,[0.5100701000001209],,,,,,,,,,,,,,,,,,,,,,,CBC_1076,2,5,3,6,8,0.95,2024-03-13_14h06.57.958,MSI_AV_v3,2022.1.1,60.0065767208957,
30,0,30,0,,,,,,,,,,1,1,0,z,63,1,3.31929419319838,1.78643585472448,None,377.22949639999933,None,379.0354391999999,None,379.0354391999999,None,379.04623073999977,None,['b'],379.0354391999999,None,None,381.0275697999996,None,b,1.3639569000006304,0,0,0.3870967741935484,384.35073399999965,None,None,384.35073399999965,None,[1.3639569000006304],,,,,,,,,,,,,,,,,,,,,,,,CBC_1076,2,5,3,6,8,0.95,2024-03-13_14h06.57.958,MSI_AV_v3,2022.1.1,60.0065767208957,
31,0,31,0,,,,,,,,,,3,3,2,b,63,1,4.77723667052879,2.78346932462847,None,386.1628065999994,None,388.96540749999986,None,388.96540749999986,None,388.9628754799999,None,None,388.96540749999986,None,None,390.94628509999984,None,[],[],0,3,0.375,395.7006427999995,None,['z'],395.7006427999995,None,,,[1.369015500000387],,,,,,,,,,,,,,,,,,,,,,CBC_1076,2,5,3,6,8,0.95,2024-03-13_14h06.57.958,MSI_AV_v3,2022.1.1,60.0065767208957,
32,0,32,0,,,,,,,,,,2,2,1,z,9,1,2.92731383428727,1.52290599571961,"['b', 'z', 'b']",397.51283969999986,None,399.0485073,None,399.0485073,None,399.0462314799991,None,None,399.0485073,None,['z'],401.02966839999954,None,z,2.212665200000629,1,1,0.3939393939393939,403.94409819999964,None,None,403.94409819999964,None,,[0.21266520000062883],,"[0.035390000000006694, 0.42633070000010775, 0.8247756999999183]",,,,,,,,,,,,,,,,,,,,,CBC_1076,2,5,3,6,8,0.95,2024-03-13_14h06.57.958,MSI_AV_v3,2022.1.1,60.0065767208957,
33,0,33,0,,,,,,,,,,1,1,0,z,63,1,3.02234236141277,2.49839527409216,None,405.7462474999993,None,408.2680154999998,None,408.2680154999998,None,408.27961953999915,None,None,408.2680154999998,None,"['b', 'z', 'z', 'z']",410.2461945999994,None,b,2.4737134000006336,0,0,0.38235294117647056,413.25496440000006,None,['z'],413.25496440000006,None,,"[0.47371340000063356, 0.9355765000000247, 1.5858711000000767, 1.9419344000007186]",[1.2828521000001274],,,,,,,,,,,,,,,,,,,,,,CBC_1076,2,5,3,6,8,0.95,2024-03-13_14h06.57.958,MSI_AV_v3,2022.1.1,60.0065767208957,
34,0,34,0,,,,,,,,,,0,2,1,b,9,1,4.190022164497369,3.06992456303453,['z'],415.0629248999994,None,418.15130599999975,None,418.15130599999975,None,418.1469275799994,None,None,418.15130599999975,None,['z'],420.12967260000005,None,z,4.28428840000015,0,0,0.37142857142857144,424.3046177999995,None,None,424.3046177999995,None,,[2.2842884000001504],,[0.1985757000002195],,,,,,,,,,,,,,,,,,,,,CBC_1076,2,5,3,6,8,0.95,2024-03-13_14h06.57.958,MSI_AV_v3,2022.1.1,60.0065767208957,
35,0,35,0,,,,,,,,,,2,1,0,b,63,1,2.517541937862754,0.952147612306987,None,426.11306909999985,None,427.0851972999999,None,427.0851972999999,None,427.0964545399997,None,['b'],427.0851972999999,None,None,429.0793862999999,None,b,1.5862282000007326,1,1,0.3888888888888889,431.60195719999956,None,None,431.60195719999956,None,[1.5862282000007326],,,,,,,,,,,,,,,,,,,,,,,,CBC_1076,2,5,3,6,8,0.95,2024-03-13_14h06.57.958,MSI_AV_v3,2022.1.1,60.0065767208957,
36,0,36,0,,,,,,,,,,1,0,1,b,63,0,4.12485271162806,1.18065738546375,None,433.41303419999986,None,434.6170323999995,None,434.6170323999995,None,434.6129607799997,None,['b'],434.6170323999995,None,None,436.6113442999995,None,b,1.15217980000034,1,0,0.40540540540540543,440.7319483000001,None,None,440.7319483000001,None,[1.15217980000034],,,,,,,,,,,,,,,,,,,,,,,,CBC_1076,2,5,3,6,8,0.95,2024-03-13_14h06.57.958,MSI_AV_v3,2022.1.1,60.0065767208957,
37,0,37,0,,,,,,,,,,2,0,1,z,63,1,4.11514536789087,0.77703640172831,None,442.5464578000001,None,443.3339417999996,None,443.3339417999996,None,443.3462495399994,None,['z'],443.3339417999996,None,None,445.32791739999993,None,z,1.226972299999943,1,1,0.42105263157894735,449.45378939999955,None,None,449.45378939999955,None,[1.226972299999943],,,,,,,,,,,,,,,,,,,,,,,,CBC_1076,2,5,3,6,8,0.95,2024-03-13_14h06.57.958,MSI_AV_v3,2022.1.1,60.0065767208957,
38,0,38,0,,,,,,,,,,3,1,3,z,27,1,4.7533305109883095,1.21250262048173,None,451.2632657999993,None,452.5010739999998,None,452.5010739999998,None,452.5130241399997,None,['z'],452.5010739999998,None,None,454.4964522999999,None,z,1.6308296000006521,1,1,0.4358974358974359,459.24576199999956,None,None,459.24576199999956,None,[1.6308296000006521],,,,,,,,,,,,,,,,,,,,,,,,CBC_1076,2,5,3,6,8,0.95,2024-03-13_14h06.57.958,MSI_AV_v3,2022.1.1,60.0065767208957,
39,0,39,0,,,,,,,,,,0,3,2,z,63,1,2.342239579230602,1.1243895841892,None,461.0464704999995,None,462.1857178,None,462.1857178,None,462.19645193999935,None,None,462.1857178,None,['z'],464.1633332000001,None,z,2.2685333999997965,1,1,0.45,466.49862179999946,None,None,466.49862179999946,None,,[0.26853339999979653],,,,,,,,,,,,,,,,,,,,,,,CBC_1076,2,5,3,6,8,0.95,2024-03-13_14h06.57.958,MSI_AV_v3,2022.1.1,60.0065767208957,
40,0,40,0,,,,,,,,,,1,0,2,b,27,1,2.678526077912375,3.4543169006169,None,468.3133305000001,None,471.7856340999997,None,471.7856340999997,None,471.7965403399998,None,None,471.7856340999997,None,['b'],473.7632230999998,None,b,2.773267300000043,1,1,0.4634146341463415,476.43650699999944,None,None,476.43650699999944,None,,[0.7732673000000432],,,,,,,,,,,,,,,,,,,,,,,CBC_1076,2,5,3,6,8,0.95,2024-03-13_14h06.57.958,MSI_AV_v3,2022.1.1,60.0065767208957,
41,0,41,0,,,,,,,,,,3,2,3,z,63,1,3.76873691643126,1.95130344756745,None,478.24648029999935,None,480.2160258999993,None,480.2160258999993,None,480.2133172799998,None,None,480.2160258999993,None,['z'],482.19649129999925,None,z,2.102906200000689,1,1,0.47619047619047616,485.9523220000001,None,None,485.9523220000001,None,,[0.10290620000068884],,,,,,,,,,,,,,,,,,,,,,,CBC_1076,2,5,3,6,8,0.95,2024-03-13_14h06.57.958,MSI_AV_v3,2022.1.1,60.0065767208957,
42,0,42,0,,,,,,,,,,2,1,3,b,27,1,3.3728785608729996,1.25817747924478,None,487.76304939999955,None,489.0360471999993,None,489.0360471999993,None,489.04669743999915,None,None,489.0360471999993,None,['b'],491.0134172999997,None,b,2.2334246000009443,1,1,0.4883720930232558,494.3818986999995,None,None,494.3818986999995,None,,[0.23342460000094434],,,,,,,,,,,,,,,,,,,,,,,CBC_1076,2,5,3,6,8,0.95,2024-03-13_14h06.57.958,MSI_AV_v3,2022.1.1,60.0065767208957,
43,0,43,0,,,,,,,,,,0,3,2,z,63,1,4.52047235037039,3.1963008326951,None,496.1965059999993,None,499.41736649999984,None,499.41736649999984,None,499.41340487999906,None,None,499.41736649999984,None,['z'],501.39654100000007,None,z,3.2976446000002397,1,1,0.5,505.9036637999998,None,None,505.9036637999998,None,,[1.2976446000002397],,,,,,,,,,,,,,,,,,,,,,,CBC_1076,2,5,3,6,8,0.95,2024-03-13_14h06.57.958,MSI_AV_v3,2022.1.1,60.0065767208957,
,,,,,,,,,,,,,,,,,,,,,,,,,,,,,,,,,,,,,,,,,,,,,,,,,,None,507.71338769999966,None,,,,,,,,,,,,,,,,,,CBC_1076,2,5,3,6,8,0.95,2024-03-13_14h06.57.958,MSI_AV_v3,2022.1.1,60.0065767208957,
,,,,,,,,,,,,,,,,,,,,,,,,,,,,,,,,,,,,,,,,,,,,,,,,,,,,,512.7133392999995,None,None,512.7133392999995,None,,,,,,,,,,,,,CBC_1076,2,5,3,6,8,0.95,2024-03-13_14h06.57.958,MSI_AV_v3,2022.1.1,60.0065767208957,
,,,,,,,,,,,,,,,,,,,,,,,,,,,,,,,,,,,,,,,,,,,,,,,,,,,,,,,,,,z,b,hard,"[0, 1, 2, 3]","[1, 2, 0, 3]",0.36363636363636365,0.2727272727272727,0.5454545454545454,0.8181818181818182,22,7,15,,,,,,,,,,,,
