trials_runs.thisRepN,trials_runs.thisTrialN,trials_runs.thisN,trials_runs.thisIndex,standbild_start.started,standbild_start.stopped,trigger.keys,trigger.rt,trigger.started,trigger.stopped,keys_2.keys,keys_2.started,keys_2.stopped,trials_runs.tactile_stim,trials_runs.visual_stim_left,trials_runs.visual_stim_right,trials_runs.correctKey,trials_runs.presentationFrequncy,trials_runs.FBaccuracy,trials_runs.ISI_s,trials_runs.ITI_s,keys_3.keys,keys_3.started,keys_3.stopped,image_stim_left.started,image_stim_right.started,tactile.started,response_4.keys,allKeys.keys,response_5.keys,response_5.rt,response_5.started,response_5.stopped,response_runs.keys,response_runs.rt,trials_runs.correct_answer,trials_runs.feedback_given,trials_runs.running_mean,feedback_6.stopped,feedback_6.started,keys_6.keys,keys_6.started,keys_6.stopped,response_4.rt,allKeys.rt,keys_6.rt,keys_7.keys,keys_7.started,keys_7.stopped,standbild_end.started,standbild_end.stopped,Stop_exp.keys,Stop_exp.started,Stop_exp.stopped,trials_runs.rightKey,trials_runs.leftKey,ts_difficulty,visualPair,tactilePair,trials_runs.mean_acc_1stFourth,trials_runs.mean_acc_2ndFourth,trials_runs.mean_acc_3rdFourth,trials_runs.mean_acc_4thFourth,nbCorrect,nbOmissions,nbIncorrect,participant,session,visual set [1-6],tactile set [1-3],trial structure [0-3 / 4-7],pairing [0-23],prob Feedback,date,expName,psychopyVersion,frameRate,
,,,,489.1722367000002,None,t,82.66248040000028,489.1722367000002,None,,,,,,,,,,,,,,,,,,,,,,,,,,,,,,,,,,,,,,,,,,,,,,,,,,,,,,,,,CBC_1102,001,4,3,7,7,0.95,2024-05-26_11h06.10.825,MSI_TV_v3,2022.1.1,60.09377031876917,
,,,,,,,,,,None,571.8525117000008,None,,,,,,,,,,,,,,,,,,,,,,,,,,,,,,,,,,,,,,,,,,,,,,,,,,,,,,CBC_1102,001,4,3,7,7,0.95,2024-05-26_11h06.10.825,MSI_TV_v3,2022.1.1,60.09377031876917,
0,0,0,0,,,,,,,,,,3,2.0,0.0,b,27.0,1.0,4.77034425507967,2.40378712856304,None,572.0526320999998,None,574.4360572300004,574.4360572300004,574.452089130001,None,[],['r'],[0.40363710000019637],576.4424873000007,None,r,2.4036371000001964,0,0,0.0,None,581.2109269000011,None,581.2109269000011,None,,,,,,,,,,,,,,,,,,,,,,,,CBC_1102,001,4,3,7,7,0.95,2024-05-26_11h06.10.825,MSI_TV_v3,2022.1.1,60.09377031876917,
1,0,1,0,,,,,,,,,,2,3.0,2.0,b,63.0,1.0,4.53337421950507,1.12425433982333,None,583.0193127000002,None,584.1192075299998,584.1192075299998,584.1361008300003,None,[],['b'],[0.8156252999997378],586.1283918000008,None,b,2.8156252999997378,1,1,0.5,None,590.6585637999997,None,590.6585637999997,None,,,,,,,,,,,,,,,,,,,,,,,,CBC_1102,001,4,3,7,7,0.95,2024-05-26_11h06.10.825,MSI_TV_v3,2022.1.1,60.09377031876917,
2,0,2,0,,,,,,,,,,1,1.0,0.0,r,63.0,1.0,2.629554641171433,3.1424449555106,None,592.4690342000013,None,595.5855981300003,595.5855981300003,595.6018975300005,None,[],['b'],[0.9850476999999955],597.5892672000009,None,b,2.9850476999999955,0,0,0.3333333333333333,None,600.229559200001,None,600.229559200001,None,,,,,,,,,,,,,,,,,,,,,,,,CBC_1102,001,4,3,7,7,0.95,2024-05-26_11h06.10.825,MSI_TV_v3,2022.1.1,60.09377031876917,
3,0,3,0,,,,,,,,,,3,2.0,3.0,b,63.0,1.0,2.496959177995529,0.979776149765883,None,602.0359386,None,603.0026688299997,603.0026688299997,603.0192553300014,None,[],['r'],[1.0184057999995275],605.0070248000011,None,r,3.0184057999995275,0,0,0.25,None,607.5002634000011,None,607.5002634000011,None,,,,,,,,,,,,,,,,,,,,,,,,CBC_1102,001,4,3,7,7,0.95,2024-05-26_11h06.10.825,MSI_TV_v3,2022.1.1,60.09377031876917,
4,0,4,0,,,,,,,,,,1,0.0,2.0,b,27.0,1.0,4.12485271162806,1.21250262048173,None,609.3028756000003,None,610.5024155300009,610.5024155300009,610.51912543,None,[],['r'],[0.4333758000011585],612.5085921999998,None,r,2.4333758000011585,0,0,0.2,None,616.6270686999997,None,616.6270686999997,None,,,,,,,,,,,,,,,,,,,,,,,,CBC_1102,001,4,3,7,7,0.95,2024-05-26_11h06.10.825,MSI_TV_v3,2022.1.1,60.09377031876917,
5,0,5,0,,,,,,,,,,2,2.0,3.0,r,63.0,1.0,3.31929419319838,2.96653053743745,None,618.4353097000003,None,621.3860160300003,621.3860160300003,621.402622230001,None,[],['b'],[0.6018206999997346],623.3900633000012,None,b,2.6018206999997346,0,0,0.16666666666666666,None,626.6937240000007,None,626.6937240000007,None,,,,,,,,,,,,,,,,,,,,,,,,CBC_1102,001,4,3,7,7,0.95,2024-05-26_11h06.10.825,MSI_TV_v3,2022.1.1,60.09377031876917,
6,0,6,0,,,,,,,,,,2,3.0,2.0,b,63.0,1.0,4.40017271499661,3.4543169006169,None,628.5021957999998,None,631.935753930001,631.935753930001,631.9524412300009,None,[],['b'],[0.9712232999991102],633.9411758000006,None,b,2.97122329999911,1,1,0.2857142857142857,None,638.3321033000011,None,638.3321033000011,None,,,,,,,,,,,,,,,,,,,,,,,,CBC_1102,001,4,3,7,7,0.95,2024-05-26_11h06.10.825,MSI_TV_v3,2022.1.1,60.09377031876917,
7,0,7,0,,,,,,,,,,0,3.0,1.0,r,27.0,1.0,3.76873691643126,2.15533949826702,None,640.1360530000002,None,642.2691620300004,642.2691620300004,642.2857629300008,None,[],['r'],[1.8314245999990817],644.268417700001,None,r,3.8314245999990817,1,1,0.375,None,648.0417599000011,None,648.0417599000011,None,,,,,,,,,,,,,,,,,,,,,,,,CBC_1102,001,4,3,7,7,0.95,2024-05-26_11h06.10.825,MSI_TV_v3,2022.1.1,60.09377031876917,
8,0,8,0,,,,,,,,,,2,0.0,3.0,r,9.0,1.0,3.02234236141277,3.1963008326951,None,649.8525191000008,None,653.0196503300006,653.0196503300006,653.0359617300012,None,[],['r'],[0.35951310000018566],655.023084800001,None,r,2.3595131000001857,1,1,0.4444444444444444,None,658.0502238000008,None,658.0502238000008,None,,,,,,,,,,,,,,,,,,,,,,,,CBC_1102,001,4,3,7,7,0.95,2024-05-26_11h06.10.825,MSI_TV_v3,2022.1.1,60.09377031876917,
9,0,9,0,,,,,,,,,,0,1.0,0.0,b,63.0,1.0,2.294664843639333,1.60731937853708,None,659.8525608,None,661.4361456300005,661.4361456300005,661.452671530001,None,[],['b'],[1.9924140000002808],663.4397577,None,b,3.992414000000281,1,1,0.5,None,665.7465759000006,None,665.7465759000006,None,,,,,,,,,,,,,,,,,,,,,,,,CBC_1102,001,4,3,7,7,0.95,2024-05-26_11h06.10.825,MSI_TV_v3,2022.1.1,60.09377031876917,
10,0,10,0,,,,,,,,,,1,1.0,0.0,r,63.0,1.0,4.11514536789087,2.10421507306074,None,667.5526217000006,None,669.6366215299997,669.6366215299997,669.6525910299999,None,[],['b'],[0.3156033999985084],671.6421793999998,None,b,2.3156033999985084,0,0,0.45454545454545453,None,675.7425514000006,None,675.7425514000006,None,,,,,,,,,,,,,,,,,,,,,,,,CBC_1102,001,4,3,7,7,0.95,2024-05-26_11h06.10.825,MSI_TV_v3,2022.1.1,60.09377031876917,
11,0,11,0,,,,,,,,,,0,0.0,1.0,r,63.0,1.0,2.592312596923728,3.40155979865722,None,677.5524796000009,None,680.9360333300003,680.9360333300003,680.9524741300004,None,[],['r'],[0.774283300001116],682.9417900000008,None,r,2.774283300001116,1,1,0.5,None,685.5320683999998,None,685.5320683999998,None,,,,,,,,,,,,,,,,,,,,,,,,CBC_1102,001,4,3,7,7,0.95,2024-05-26_11h06.10.825,MSI_TV_v3,2022.1.1,60.09377031876917,
12,0,12,0,,,,,,,,,,2,2.0,3.0,r,63.0,1.0,4.01714354611405,1.53122835510861,None,687.3362680999999,None,688.8531446300015,688.8531446300015,688.8691726300015,None,[],['b'],[0.6172452999999223],690.8580683,None,b,2.6172452999999223,0,0,0.46153846153846156,None,694.8738262000006,None,694.8738262000006,None,,,,,,,,,,,,,,,,,,,,,,,,CBC_1102,001,4,3,7,7,0.95,2024-05-26_11h06.10.825,MSI_TV_v3,2022.1.1,60.09377031876917,
13,0,13,0,,,,,,,,,,0,1.0,3.0,b,27.0,1.0,2.6391747348430608,1.96568735158996,None,696.6860105000014,None,698.6366684300003,698.6366684300003,698.6525333300008,None,[],['r'],[1.3738181000007899],700.6409218999997,None,r,3.37381810000079,0,0,0.42857142857142855,None,703.2765377000014,None,703.2765377000014,None,,,,,,,,,,,,,,,,,,,,,,,,CBC_1102,001,4,3,7,7,0.95,2024-05-26_11h06.10.825,MSI_TV_v3,2022.1.1,60.09377031876917,
14,0,14,0,,,,,,,,,,3,3.0,2.0,r,63.0,1.0,3.71372710086949,1.53243550275999,None,705.0861616000002,None,706.6024807300012,706.6024807300012,706.6193362300012,None,[],['b'],[0.4509046000002854],708.609042600001,None,b,2.4509046000002854,0,0,0.4,None,712.3215501000013,None,712.3215501000013,None,,,,,,,,,,,,,,,,,,,,,,,,CBC_1102,001,4,3,7,7,0.95,2024-05-26_11h06.10.825,MSI_TV_v3,2022.1.1,60.09377031876917,
15,0,15,0,,,,,,,,,,3,2.0,0.0,b,27.0,1.0,2.82320408183943,1.25920145784721,None,714.136193100001,None,715.3696622300006,715.3696622300006,715.3863929299998,None,[],['b'],[0.46456769999895187],717.3774110000013,None,b,2.464567699998952,1,1,0.4375,None,720.1892118000014,None,720.1892118000014,None,,,,,,,,,,,,,,,,,,,,,,,,CBC_1102,001,4,3,7,7,0.95,2024-05-26_11h06.10.825,MSI_TV_v3,2022.1.1,60.09377031876917,
16,0,16,0,,,,,,,,,,1,0.0,3.0,b,9.0,1.0,3.6438386551209,3.24569326556923,None,722.0030143000004,None,725.2363360299998,725.2363360299998,725.2527353300004,None,[],None,,727.2428278000007,None,None,[],0,3,0.4117647058823529,None,730.899761300001,None,730.899761300001,None,,,,,,,,,,,,,,,,,,,,,,,,CBC_1102,001,4,3,7,7,0.95,2024-05-26_11h06.10.825,MSI_TV_v3,2022.1.1,60.09377031876917,
17,0,17,0,,,,,,,,,,3,2.0,3.0,b,63.0,0.0,2.92731383428727,1.94858485820231,None,732.6858209000002,None,734.6194047300007,734.6194047300007,734.6366387299997,b,['b'],None,,736.6652215000013,None,b,1.6025941000007151,1,0,0.4444444444444444,None,739.5968025000002,None,739.5968025000002,None,1.6025941000007151,[1.6025941000007151],,,,,,,,,,,,,,,,,,,,,,CBC_1102,001,4,3,7,7,0.95,2024-05-26_11h06.10.825,MSI_TV_v3,2022.1.1,60.09377031876917,
18,0,18,0,,,,,,,,,,1,1.0,0.0,r,63.0,1.0,3.26539063535182,2.6299100644723,None,741.4032115000009,None,744.0197560300014,744.0197560300014,744.0363863300001,None,[],['b'],[0.42281709999952],746.0254115000007,None,b,2.42281709999952,0,0,0.42105263157894735,None,749.2875141000004,None,749.2875141000004,None,,,,,,,,,,,,,,,,,,,,,,,,CBC_1102,001,4,3,7,7,0.95,2024-05-26_11h06.10.825,MSI_TV_v3,2022.1.1,60.09377031876917,
19,0,19,0,,,,,,,,,,2,3.0,2.0,b,63.0,1.0,2.693348633324513,1.95130344756745,None,751.1029562000003,None,753.0363521299998,753.0363521299998,753.0527860300001,None,[],['r'],[1.0376591000003828],755.0447697,None,r,3.0376591000003828,0,0,0.4,None,757.7322820000009,None,757.7322820000009,None,,,,,,,,,,,,,,,,,,,,,,,,CBC_1102,001,4,3,7,7,0.95,2024-05-26_11h06.10.825,MSI_TV_v3,2022.1.1,60.09377031876917,
20,0,20,0,,,,,,,,,,3,3.0,2.0,r,63.0,1.0,2.2759877950103027,1.25817747924478,None,759.5358179000013,None,760.76943693,760.76943693,760.7861407299999,None,[],['r'],[0.811993799999982],762.7749875999998,None,r,2.811993799999982,1,1,0.42857142857142855,None,765.051913700001,None,765.051913700001,None,,,,,,,,,,,,,,,,,,,,,,,,CBC_1102,001,4,3,7,7,0.95,2024-05-26_11h06.10.825,MSI_TV_v3,2022.1.1,60.09377031876917,
21,0,21,0,,,,,,,,,,2,3.0,1.0,b,27.0,1.0,2.7134565917469198,0.917519910446003,None,766.8527896000014,None,767.75261583,767.75261583,767.7692066299999,None,[],['b'],[1.233986700000969],769.757233100001,None,b,3.233986700000969,1,1,0.45454545454545453,None,772.4680292000012,None,772.4680292000012,None,,,,,,,,,,,,,,,,,,,,,,,,CBC_1102,001,4,3,7,7,0.95,2024-05-26_11h06.10.825,MSI_TV_v3,2022.1.1,60.09377031876917,
22,0,22,0,,,,,,,,,,1,0.0,1.0,b,63.0,1.0,3.35133458220192,2.09887870490381,None,774.2697789000013,None,776.3530744299999,776.3530744299999,776.369797730001,None,[],"['b', 'r']","[0.5357554000001983, 3.2485593000001245]",778.3619682999997,None,b,2.5357554000001983,1,1,0.4782608695652174,None,781.7051723000004,"['r', 'r']",781.7051723000004,None,,,"[1.3994697999987693, 1.7232195999986288]",,,,,,,,,,,,,,,,,,,,,CBC_1102,001,4,3,7,7,0.95,2024-05-26_11h06.10.825,MSI_TV_v3,2022.1.1,60.09377031876917,
23,0,23,0,,,,,,,,,,3,3.0,2.0,r,63.0,1.0,4.46924002178158,3.06992456303453,None,783.5194454000011,None,786.5695479300005,786.5695479300005,786.5861647300001,None,[],['r'],[0.5455191000000923],788.5753380000006,None,r,2.5455191000000923,1,1,0.5,None,793.0320296000009,None,793.0320296000009,None,,,,,,,,,,,,,,,,,,,,,,,,CBC_1102,001,4,3,7,7,0.95,2024-05-26_11h06.10.825,MSI_TV_v3,2022.1.1,60.09377031876917,
24,0,24,0,,,,,,,,,,1,0.0,2.0,b,27.0,1.0,3.3728785608729996,1.34668860557497,None,794.8360891000011,None,796.1697094300009,796.1697094300009,796.1862015300005,None,[],['r'],[1.3689857999997912],798.1761519000011,None,r,3.368985799999791,0,0,0.48,None,801.540943,None,801.540943,None,,,,,,,,,,,,,,,,,,,,,,,,CBC_1102,001,4,3,7,7,0.95,2024-05-26_11h06.10.825,MSI_TV_v3,2022.1.1,60.09377031876917,
25,0,25,0,,,,,,,,,,0,1.0,0.0,b,63.0,1.0,4.77723667052879,0.77703640172831,None,803.352067400001,None,804.1033781300005,804.1033781300005,804.1199850300011,None,[],None,,806.1088591000007,None,None,[],0,3,0.46153846153846156,None,810.868841200001,None,810.868841200001,None,,,,,,,,,,,,,,,,,,,,,,,,CBC_1102,001,4,3,7,7,0.95,2024-05-26_11h06.10.825,MSI_TV_v3,2022.1.1,60.09377031876917,
26,0,26,0,,,,,,,,,,0,0.0,1.0,r,63.0,1.0,4.72585056748869,1.36309078069689,None,812.6695304000004,None,814.0194449300009,814.0194449300009,814.0366532300006,None,[],['r'],[1.1584176999986084],816.0208749000012,None,r,3.1584176999986084,1,1,0.48148148148148145,None,820.7494389000003,None,820.7494389000003,None,,,,,,,,,,,,,,,,,,,,,,,,CBC_1102,001,4,3,7,7,0.95,2024-05-26_11h06.10.825,MSI_TV_v3,2022.1.1,60.09377031876917,
27,0,27,0,,,,,,,,,,3,3.0,2.0,r,63.0,1.0,2.91303524001082,2.49839527409216,None,822.5530973000004,None,825.0366460300004,825.0366460300004,825.0529571300006,None,[],"['b', 'r', 'r', 'r']","[1.373642700000346, 1.742506599999615, 2.148486899999625, 2.4467537999989872]",827.0427646000007,None,b,3.373642700000346,0,0,0.4642857142857143,None,829.9496906000004,None,829.9496906000004,None,,,,,,,,,,,,,,,,,,,,,,,,CBC_1102,001,4,3,7,7,0.95,2024-05-26_11h06.10.825,MSI_TV_v3,2022.1.1,60.09377031876917,
28,0,28,0,,,,,,,,,,2,3.0,1.0,b,27.0,1.0,3.2062024266105302,3.33124983260532,None,831.752966600001,None,835.0697073300009,835.0697073300009,835.0860983300001,None,[],['r'],[0.837657300000501],837.0752407,None,r,2.837657300000501,0,0,0.4482758620689655,None,840.2837020000006,None,840.2837020000006,None,,,,,,,,,,,,,,,,,,,,,,,,CBC_1102,001,4,3,7,7,0.95,2024-05-26_11h06.10.825,MSI_TV_v3,2022.1.1,60.09377031876917,
29,0,29,0,,,,,,,,,,3,1.0,2.0,r,9.0,1.0,2.678526077912375,0.952147612306987,None,842.0864380000003,None,843.0197364300013,843.0197364300013,843.0365890300011,None,[],['r'],[0.9060543999985384],845.0255640000014,None,r,2.9060543999985384,1,1,0.4666666666666667,None,847.7057604000001,None,847.7057604000001,None,,,,,,,,,,,,,,,,,,,,,,,,CBC_1102,001,4,3,7,7,0.95,2024-05-26_11h06.10.825,MSI_TV_v3,2022.1.1,60.09377031876917,
30,0,30,0,,,,,,,,,,0,3.0,1.0,r,27.0,1.0,4.61004669244928,0.974903167432984,None,849.5185399000002,None,850.4696320300002,850.4696320300002,850.4862356300011,None,[],None,,852.476350500001,None,None,[],0,3,0.45161290322580644,None,857.0684679000005,None,857.0684679000005,None,,,,,,,,,,,,,,,,,,,,,,,,CBC_1102,001,4,3,7,7,0.95,2024-05-26_11h06.10.825,MSI_TV_v3,2022.1.1,60.09377031876917,
31,0,31,0,,,,,,,,,,2,3.0,2.0,b,63.0,1.0,4.82531807167306,2.22427187882546,None,858.8695872999997,None,861.0698410300004,861.0698410300004,861.0862652300013,None,[],['r'],[4.231772099999944],863.0750492000006,None,r,6.231772099999944,0,0,0.4375,None,867.8998631000013,None,867.8998631000013,None,,,,,,,,,,,,,,,,,,,,,,,,CBC_1102,001,4,3,7,7,0.95,2024-05-26_11h06.10.825,MSI_TV_v3,2022.1.1,60.09377031876917,
32,0,32,0,,,,,,,,,,0,0.0,1.0,r,63.0,1.0,3.73326136168326,1.18065738546375,None,869.7019915000001,None,870.853405430001,870.853405430001,870.8697862300007,None,[],['b'],[0.41467130000091856],872.8571053000014,None,b,2.4146713000009186,0,0,0.42424242424242425,None,876.5938612000009,None,876.5938612000009,None,,,,,,,,,,,,,,,,,,,,,,,,CBC_1102,001,4,3,7,7,0.95,2024-05-26_11h06.10.825,MSI_TV_v3,2022.1.1,60.09377031876917,
33,0,33,0,,,,,,,,,,1,1.0,0.0,r,63.0,0.0,4.52047235037039,1.38289892513751,None,878.4036714000013,None,879.7698090300012,879.7698090300012,879.7854155300004,None,[],['r'],[0.44185189999916474],881.7681874000009,None,r,2.4418518999991647,1,0,0.4411764705882353,None,886.299244400001,None,886.299244400001,None,,,,,,,,,,,,,,,,,,,,,,,,CBC_1102,001,4,3,7,7,0.95,2024-05-26_11h06.10.825,MSI_TV_v3,2022.1.1,60.09377031876917,
34,0,34,0,,,,,,,,,,3,2.0,3.0,b,63.0,1.0,2.517541937862754,1.1243895841892,None,888.1028774000006,None,889.20332953,889.20332953,889.2201002300001,None,[],['b'],[1.5094225000011647],891.2102223000002,None,b,3.5094225000011647,1,1,0.45714285714285713,None,893.7170017000008,None,893.7170017000008,None,,,,,,,,,,,,,,,,,,,,,,,,CBC_1102,001,4,3,7,7,0.95,2024-05-26_11h06.10.825,MSI_TV_v3,2022.1.1,60.09377031876917,
35,0,35,0,,,,,,,,,,1,0.0,2.0,b,27.0,1.0,2.433630701072358,0.761758675042088,None,895.5188314000006,None,896.2534867300012,896.2534867300012,896.2704449300011,r,['r'],None,,898.2952385000008,None,r,1.920904899998277,0,0,0.4444444444444444,None,900.7190756,None,900.7190756,None,1.920904899998277,[1.920904899998277],,,,,,,,,,,,,,,,,,,,,,CBC_1102,001,4,3,7,7,0.95,2024-05-26_11h06.10.825,MSI_TV_v3,2022.1.1,60.09377031876917,
36,0,36,0,,,,,,,,,,0,0.0,1.0,r,63.0,1.0,2.792365600763554,2.78346932462847,None,902.5198670999998,None,905.2871177300015,905.2871177300015,905.3036224300006,None,[],['r'],[0.31126359999871056],907.2950877000003,None,r,2.3112635999987106,1,1,0.4594594594594595,None,910.0900651000011,None,910.0900651000011,None,,,,,,,,,,,,,,,,,,,,,,,,CBC_1102,001,4,3,7,7,0.95,2024-05-26_11h06.10.825,MSI_TV_v3,2022.1.1,60.09377031876917,
37,0,37,0,,,,,,,,,,2,2.0,3.0,r,63.0,1.0,4.190022164497369,1.64421109900286,None,911.9036510000005,None,913.5186944300015,913.5186944300015,913.5354758300011,None,[],['b'],[1.01362379999955],915.5169984000004,None,b,3.01362379999955,0,0,0.4473684210526316,None,919.7075557000007,None,919.7075557000007,None,,,,,,,,,,,,,,,,,,,,,,,,CBC_1102,001,4,3,7,7,0.95,2024-05-26_11h06.10.825,MSI_TV_v3,2022.1.1,60.09377031876917,
38,0,38,0,,,,,,,,,,0,1.0,2.0,b,9.0,1.0,2.666404967794728,0.80788063606262,None,921.5198778000013,None,922.3037881299999,922.3037881299999,922.3204731300004,None,[],['r'],[0.30294099999991886],924.3096627000014,None,r,2.302940999999919,0,0,0.4358974358974359,None,926.9783607000008,None,926.9783607000008,None,,,,,,,,,,,,,,,,,,,,,,,,CBC_1102,001,4,3,7,7,0.95,2024-05-26_11h06.10.825,MSI_TV_v3,2022.1.1,60.09377031876917,
39,0,39,0,,,,,,,,,,2,1.0,3.0,r,27.0,1.0,4.7533305109883095,1.52290599571961,None,928.7858246000014,None,930.2870913300005,930.2870913300005,930.3037146300005,None,[],"['b', 'r', 'r']","[0.673558000000412, 1.8149962999996205, 2.3186199000010674]",932.2934948000002,None,b,2.673558000000412,0,0,0.425,None,937.0490602000009,None,937.0490602000009,None,,,,,,,,,,,,,,,,,,,,,,,,CBC_1102,001,4,3,7,7,0.95,2024-05-26_11h06.10.825,MSI_TV_v3,2022.1.1,60.09377031876917,
40,0,40,0,,,,,,,,,,1,1.0,0.0,r,63.0,1.0,3.68371079902891,1.90743690794447,None,938.8525635000005,None,940.7366317300014,940.7366317300014,940.7533858300005,None,[],['r'],[0.772913899998457],942.7423405999998,None,r,2.772913899998457,1,1,0.43902439024390244,None,946.4202332000004,None,946.4202332000004,None,,,,,,,,,,,,,,,,,,,,,,,,CBC_1102,001,4,3,7,7,0.95,2024-05-26_11h06.10.825,MSI_TV_v3,2022.1.1,60.09377031876917,
41,0,41,0,,,,,,,,,,1,0.0,1.0,b,63.0,1.0,2.526044641065533,1.43470440954152,None,948.220378,None,949.6369343300005,949.6369343300005,949.6533618300011,None,[],None,,951.6367618000004,None,None,[],0,3,0.42857142857142855,None,954.1689676000005,['r'],954.1689676000005,None,,,[0.02970169999935024],,,,,,,,,,,,,,,,,,,,,CBC_1102,001,4,3,7,7,0.95,2024-05-26_11h06.10.825,MSI_TV_v3,2022.1.1,60.09377031876917,
42,0,42,0,,,,,,,,,,3,2.0,0.0,b,27.0,1.0,3.7500315165247198,1.78643585472448,None,955.9700881000008,None,957.7368127300008,957.7368127300008,957.7533997300009,None,[],['b'],[0.6920415999993565],959.7427162000004,None,b,2.6920415999993565,1,1,0.4418604651162791,None,963.4953258000005,None,963.4953258000005,None,,,,,,,,,,,,,,,,,,,,,,,,CBC_1102,001,4,3,7,7,0.95,2024-05-26_11h06.10.825,MSI_TV_v3,2022.1.1,60.09377031876917,
43,0,43,0,,,,,,,,,,0,0.0,1.0,r,63.0,1.0,2.342239579230602,1.27538462653558,None,965.3037863999998,None,966.5534007300005,966.5534007300005,966.5700748299998,None,[],['r'],[0.045201799999631476],968.5604378000007,None,r,2.0452017999996315,1,1,0.45454545454545453,None,970.9066217,None,970.9066217,None,,,,,,,,,,,,,,,,,,,,,,,,CBC_1102,001,4,3,7,7,0.95,2024-05-26_11h06.10.825,MSI_TV_v3,2022.1.1,60.09377031876917,
,,,,,,,,,,,,,,,,,,,,,,,,,,,,,,,,,,,,,,,,,,,,,,None,972.7202726000014,None,,,,,,,,,,,,,,,,,,CBC_1102,001,4,3,7,7,0.95,2024-05-26_11h06.10.825,MSI_TV_v3,2022.1.1,60.09377031876917,
,,,,,,,,,,,,,,,,,,,,,,,,,,,,,,,,,,,,,,,,,,,,,,,,,977.7035776000012,None,None,977.7035776000012,982.6867017000004,,,,,,,,,,,,,CBC_1102,001,4,3,7,7,0.95,2024-05-26_11h06.10.825,MSI_TV_v3,2022.1.1,60.09377031876917,
,,,,,,,,,,,,,,,,,,,,,,,,,,,,,,,,,,,,,,,,,,,,,,,,,,,,,,r,b,easy,"[0, 1, 2, 3]","[1, 0, 3, 2]",0.45454545454545453,0.45454545454545453,0.36363636363636365,0.5454545454545454,18,4,22,,,,,,,,,,,,
