trials_runs.thisRepN,trials_runs.thisTrialN,trials_runs.thisN,trials_runs.thisIndex,standbild_start.started,standbild_start.stopped,trigger.keys,trigger.rt,trigger.started,trigger.stopped,keys_2.keys,keys_2.started,keys_2.stopped,trials_runs.auditory_stim,trials_runs.visual_stim_left,trials_runs.visual_stim_right,trials_runs.correctKey,trials_runs.presentationFrequncy,trials_runs.FBaccuracy,trials_runs.ISI_s,trials_runs.ITI_s,keys_3.keys,keys_3.started,keys_3.stopped,ImageLeft_4.started,ImageLeft_4.stopped,ImageRight_4.started,ImageRight_4.stopped,sound_4.started,sound_4.stopped,response_4.keys,response_4.rt,response_4.started,response_4.stopped,response_5.keys,response_5.started,response_5.stopped,response_runs.keys,response_runs.rt,trials_runs.correct_answer,trials_runs.feedback_given,trials_runs.running_mean,feedback_6.started,feedback_6.stopped,keys_6.keys,keys_6.started,keys_6.stopped,response_5.rt,keys_6.rt,keys_7.keys,keys_7.started,keys_7.stopped,standbild_end.started,standbild_end.stopped,Stop_exp.keys,Stop_exp.started,Stop_exp.stopped,trials_runs.rightKey,trials_runs.leftKey,ts_difficulty,visualPair,audioPair,trials_runs.mean_acc_1stFourth,trials_runs.mean_acc_2ndFourth,trials_runs.mean_acc_3rdFourth,trials_runs.mean_acc_4thFourth,nbCorrect,nbOmissions,nbIncorrect,participant,session,visual set [1-6],audio set [1-3 / 4-6],trial structure [0-3 / 4-7],pairing [0-23],prob Feedback,date,expName,psychopyVersion,frameRate,
,,,,39.85879959999875,None,t,48.42744809999931,39.85879959999875,None,,,,,,,,,,,,,,,,,,,,,,,,,,,,,,,,,,,,,,,,,,,,,,,,,,,,,,,,,,,,CBC_1108,003,6,1,4,13,0.8,2024-05-11_15h05.16.460,MSI_AV_v3,2022.1.1,59.961672499400535,
,,,,,,,,,,None,88.31222440000056,None,,,,,,,,,,,,,,,,,,,,,,,,,,,,,,,,,,,,,,,,,,,,,,,,,,,,,,,,,CBC_1108,003,6,1,4,13,0.8,2024-05-11_15h05.16.460,MSI_AV_v3,2022.1.1,59.961672499400535,
0,0,0,0,,,,,,,,,,0,1.0,0.0,b,63.0,1.0,2.91303524001082,3.4543169006169,None,88.51226450000104,None,92.03416920000018,None,92.03416920000018,None,92.04517230999917,None,['b'],[1.5977926999985357],92.03416920000018,None,None,93.98242329999994,None,b,1.5977926999985357,1,1,1.0,96.91535730000032,None,None,96.91535730000032,None,,,,,,,,,,,,,,,,,,,,,,,CBC_1108,003,6,1,4,13,0.8,2024-05-11_15h05.16.460,MSI_AV_v3,2022.1.1,59.961672499400535,
1,0,1,0,,,,,,,,,,2,1.0,0.0,z,63.0,1.0,2.678526077912375,2.22427187882546,None,98.71231329999864,None,100.94604659999823,None,100.94604659999823,None,100.94555509000055,None,['z'],[1.7991566999953648],100.94604659999823,None,None,102.94069849999869,None,z,1.7991566999953648,1,1,1.0,105.61932739999975,None,None,105.61932739999975,None,,,,,,,,,,,,,,,,,,,,,,,CBC_1108,003,6,1,4,13,0.8,2024-05-11_15h05.16.460,MSI_AV_v3,2022.1.1,59.961672499400535,
2,0,2,0,,,,,,,,,,1,3.0,2.0,b,63.0,1.0,2.6391747348430608,1.36309078069689,None,107.42943350000132,None,108.81793760000073,None,108.81793760000073,None,108.82910661999922,None,None,,108.81793760000073,None,['b'],110.7958538999992,None,b,2.372153599997546,1,1,1.0,113.42034970000168,None,None,113.42034970000168,None,[0.3721535999975458],,,,,,,,,,,,,,,,,,,,,,CBC_1108,003,6,1,4,13,0.8,2024-05-11_15h05.16.460,MSI_AV_v3,2022.1.1,59.961672499400535,
3,0,3,0,,,,,,,,,,0,1.0,2.0,b,9.0,1.0,3.35133458220192,1.21250262048173,None,115.22898029999851,None,116.45242769999822,None,116.45242769999822,None,116.4623876200014,None,['z'],[1.9168219999992289],116.45242769999822,None,None,118.4458693000015,None,z,1.9168219999992289,0,0,0.75,121.80112219999864,None,None,121.80112219999864,None,,,,,,,,,,,,,,,,,,,,,,,CBC_1108,003,6,1,4,13,0.8,2024-05-11_15h05.16.460,MSI_AV_v3,2022.1.1,59.961672499400535,
4,0,4,0,,,,,,,,,,2,2.0,0.0,z,27.0,1.0,3.73326136168326,1.25920145784721,None,123.6126918000009,None,124.88580430000002,None,124.88580430000002,None,124.89593742000143,None,None,,124.88580430000002,None,['b'],126.86261939999895,None,b,4.100265299999592,0,0,0.6,130.57746989999941,None,None,130.57746989999941,None,[2.1002652999995917],,,,,,,,,,,,,,,,,,,,,,CBC_1108,003,6,1,4,13,0.8,2024-05-11_15h05.16.460,MSI_AV_v3,2022.1.1,59.961672499400535,
5,0,5,0,,,,,,,,,,3,3.0,2.0,z,63.0,1.0,4.53337421950507,3.24569326556923,None,132.37895429999844,None,135.65270529999907,None,135.65270529999907,None,135.66247782000138,None,None,,135.65270529999907,None,['b'],137.62948300000062,None,b,2.367041799996514,0,0,0.5,142.15828079999847,None,['z'],142.15828079999847,None,[0.3670417999965139],[1.0524174999991374],,,,,,,,,,,,,,,,,,,,,CBC_1108,003,6,1,4,13,0.8,2024-05-11_15h05.16.460,MSI_AV_v3,2022.1.1,59.961672499400535,
6,0,6,0,,,,,,,,,,1,3.0,1.0,b,27.0,1.0,4.12485271162806,2.15533949826702,None,143.9626567000014,None,146.13257689999955,None,146.13257689999955,None,146.12921379000036,None,None,,146.13257689999955,None,['b'],148.11231680000128,None,b,2.8876317999965977,1,1,0.5714285714285714,152.22122699999818,None,None,152.22122699999818,None,[0.8876317999965977],,,,,,,,,,,,,,,,,,,,,,CBC_1108,003,6,1,4,13,0.8,2024-05-11_15h05.16.460,MSI_AV_v3,2022.1.1,59.961672499400535,
7,0,7,0,,,,,,,,,,2,0.0,1.0,b,63.0,0.0,3.3728785608729996,0.761758675042088,None,154.0293899999997,None,154.80381130000023,None,154.80381130000023,None,154.81296091999977,None,None,,154.80381130000023,None,['b'],156.7790238000016,None,b,3.3061098999969545,1,0,0.625,160.13507279999976,None,None,160.13507279999976,None,[1.3061098999969545],,,,,,,,,,,,,,,,,,,,,,CBC_1108,003,6,1,4,13,0.8,2024-05-11_15h05.16.460,MSI_AV_v3,2022.1.1,59.961672499400535,
8,0,8,0,,,,,,,,,,3,0.0,2.0,z,27.0,1.0,4.11514536789087,3.06992456303453,None,161.94605850000153,None,165.03552280000076,None,165.03552280000076,None,165.04582632000094,None,None,,165.03552280000076,None,"['b', 'b']",167.01260879999973,None,b,2.3695102000019688,0,0,0.5555555555555556,171.12642950000009,None,None,171.12642950000009,None,"[0.36951020000196877, 1.5881444000006013]",,,,,,,,,,,,,,,,,,,,,,CBC_1108,003,6,1,4,13,0.8,2024-05-11_15h05.16.460,MSI_AV_v3,2022.1.1,59.961672499400535,
9,0,9,0,,,,,,,,,,1,3.0,2.0,b,63.0,1.0,4.7533305109883095,2.49839527409216,None,172.9295149999998,None,175.44933619999938,None,175.44933619999938,None,175.44589299000145,None,None,,175.44933619999938,None,['b'],177.42935600000055,None,b,2.097452999998495,1,1,0.6,182.1718925999994,None,None,182.1718925999994,None,[0.09745299999849522],,,,,,,,,,,,,,,,,,,,,,CBC_1108,003,6,1,4,13,0.8,2024-05-11_15h05.16.460,MSI_AV_v3,2022.1.1,59.961672499400535,
10,0,10,0,,,,,,,,,,0,0.0,1.0,z,63.0,0.0,2.433630701072358,1.60731937853708,None,183.97960329999842,None,185.60119929999928,None,185.60119929999928,None,185.59648248999875,None,None,,185.60119929999928,None,"['z', 'z']",187.57973299999867,None,z,3.4509854999960226,1,0,0.6363636363636364,190.00775509999949,None,None,190.00775509999949,None,"[1.4509854999960226, 2.089461699997628]",,,,,,,,,,,,,,,,,,,,,,CBC_1108,003,6,1,4,13,0.8,2024-05-11_15h05.16.460,MSI_AV_v3,2022.1.1,59.961672499400535,
11,0,11,0,,,,,,,,,,2,1.0,0.0,z,63.0,1.0,3.2062024266105302,1.53243550275999,None,191.81303370000023,None,193.36725569999908,None,193.36725569999908,None,193.3627318899984,None,None,,193.36725569999908,None,['b'],195.34617269999944,None,b,2.3403517000006104,0,0,0.5833333333333334,198.53602799999862,None,None,198.53602799999862,None,[0.34035170000061044],,,,,,,,,,,,,,,,,,,,,,CBC_1108,003,6,1,4,13,0.8,2024-05-11_15h05.16.460,MSI_AV_v3,2022.1.1,59.961672499400535,
12,0,12,0,,,,,,,,,,1,3.0,2.0,b,63.0,1.0,2.342239579230602,3.1963008326951,None,200.34613170000011,None,203.566079799999,None,203.566079799999,None,203.56269719000048,None,None,,203.566079799999,None,"['z', 'z', 'z']",205.54650879999826,None,z,2.0908387999988918,0,0,0.5384615384615384,207.88260539999828,None,None,207.88260539999828,None,"[0.09083879999889177, 0.6750264000002062, 0.8984339999988151]",,,,,,,,,,,,,,,,,,,,,,CBC_1108,003,6,1,4,13,0.8,2024-05-11_15h05.16.460,MSI_AV_v3,2022.1.1,59.961672499400535,
13,0,13,0,,,,,,,,,,3,0.0,2.0,z,27.0,0.0,4.82531807167306,1.25817747924478,None,209.69647429999895,None,210.96826969999893,None,210.96826969999893,None,210.97956261999863,None,None,,210.96826969999893,None,['z'],212.9450695000014,None,z,3.5820188999969105,1,0,0.5714285714285714,217.75587190000078,None,None,217.75587190000078,None,[1.5820188999969105],,,,,,,,,,,,,,,,,,,,,,CBC_1108,003,6,1,4,13,0.8,2024-05-11_15h05.16.460,MSI_AV_v3,2022.1.1,59.961672499400535,
14,0,14,0,,,,,,,,,,2,1.0,0.0,z,63.0,1.0,4.77034425507967,2.09887870490381,None,219.5630343999983,None,221.68378120000125,None,221.68378120000125,None,221.67959149000163,None,None,,221.68378120000125,None,['b'],223.66313100000116,None,b,2.750635100001091,0,0,0.5333333333333333,228.41990430000078,None,None,228.41990430000078,None,[0.7506351000010909],,,,,,,,,,,,,,,,,,,,,,CBC_1108,003,6,1,4,13,0.8,2024-05-11_15h05.16.460,MSI_AV_v3,2022.1.1,59.961672499400535,
15,0,15,0,,,,,,,,,,0,3.0,1.0,z,27.0,1.0,3.68371079902891,1.52290599571961,None,230.2295774000013,None,231.7675874000015,None,231.7675874000015,None,231.76313988999974,None,None,,231.7675874000015,None,['z'],233.7463519999983,None,z,2.45242159999907,1,1,0.5625,237.42514500000107,None,None,237.42514500000107,None,[0.45242159999907017],,,,,,,,,,,,,,,,,,,,,,CBC_1108,003,6,1,4,13,0.8,2024-05-11_15h05.16.460,MSI_AV_v3,2022.1.1,59.961672499400535,
16,0,16,0,,,,,,,,,,3,2.0,3.0,b,63.0,1.0,2.592312596923728,1.94858485820231,None,239.2297034000003,None,241.18293880000056,None,241.18293880000056,None,241.1790736599993,None,['b'],[1.4863461999957508],241.18293880000056,None,None,243.18341259999943,None,b,1.4863461999957508,1,1,0.5882352941176471,245.7888168999998,None,None,245.7888168999998,None,,,,,,,,,,,,,,,,,,,,,,,CBC_1108,003,6,1,4,13,0.8,2024-05-11_15h05.16.460,MSI_AV_v3,2022.1.1,59.961672499400535,
17,0,17,0,,,,,,,,,,1,3.0,2.0,b,63.0,0.0,3.26539063535182,1.90743690794447,None,247.59683930000028,None,249.51844540000093,None,249.51844540000093,None,249.52955722000044,None,None,,249.51844540000093,None,['z'],251.49637190000067,None,z,2.5807430999993812,0,1,0.5555555555555556,254.75341689999914,None,None,254.75341689999914,None,[0.5807430999993812],,,,,,,,,,,,,,,,,,,,,,CBC_1108,003,6,1,4,13,0.8,2024-05-11_15h05.16.460,MSI_AV_v3,2022.1.1,59.961672499400535,
18,0,18,0,,,,,,,,,,0,0.0,1.0,z,63.0,1.0,4.190022164497369,1.27538462653558,None,256.56218870000157,None,257.85541450000164,None,257.85541450000164,None,257.8631963200016,None,None,,257.85541450000164,None,['b'],259.8301630999995,None,b,2.1844620000010764,0,0,0.5263157894736842,264.0098934000016,None,None,264.0098934000016,None,[0.18446200000107638],,,,,,,,,,,,,,,,,,,,,,CBC_1108,003,6,1,4,13,0.8,2024-05-11_15h05.16.460,MSI_AV_v3,2022.1.1,59.961672499400535,
19,0,19,0,,,,,,,,,,2,0.0,2.0,b,27.0,1.0,3.71372710086949,3.1424449555106,None,265.8134331000001,None,268.9549306000008,None,268.9549306000008,None,268.9623028900009,None,None,,268.9549306000008,None,['z'],270.93038270000034,None,z,3.2227392999993754,0,0,0.5,274.626690699999,None,None,274.626690699999,None,[1.2227392999993754],,,,,,,,,,,,,,,,,,,,,,CBC_1108,003,6,1,4,13,0.8,2024-05-11_15h05.16.460,MSI_AV_v3,2022.1.1,59.961672499400535,
20,0,20,0,,,,,,,,,,1,3.0,0.0,b,9.0,1.0,2.666404967794728,0.80788063606262,None,276.4299565000001,None,277.25026649999927,None,277.25026649999927,None,277.24647879000116,None,['b'],[1.6969762999979139],277.25026649999927,None,None,279.2334542999997,None,b,1.6969762999979139,1,1,0.5238095238095238,281.8960326000015,None,None,281.8960326000015,None,,,,,,,,,,,,,,,,,,,,,,,CBC_1108,003,6,1,4,13,0.8,2024-05-11_15h05.16.460,MSI_AV_v3,2022.1.1,59.961672499400535,
21,0,21,0,,,,,,,,,,3,3.0,2.0,z,63.0,1.0,4.40017271499661,2.6299100644723,None,283.69675129999814,None,286.35373210000034,None,286.35373210000034,None,286.36336511999906,None,['z'],[1.0155931999979657],286.35373210000034,None,None,288.3450954,None,z,1.0155931999979657,1,1,0.5454545454545454,292.75569149999865,None,None,292.75569149999865,None,,,,,,,,,,,,,,,,,,,,,,,CBC_1108,003,6,1,4,13,0.8,2024-05-11_15h05.16.460,MSI_AV_v3,2022.1.1,59.961672499400535,
22,0,22,0,,,,,,,,,,0,1.0,3.0,b,27.0,1.0,2.496959177995529,2.40378712856304,None,294.56277209999826,None,296.983224399999,None,296.983224399999,None,296.9804611899985,None,None,,296.983224399999,None,['b'],298.96289510000133,None,b,2.2695966999999655,1,1,0.5652173913043478,301.4451561999995,None,None,301.4451561999995,None,[0.2695966999999655],,,,,,,,,,,,,,,,,,,,,,CBC_1108,003,6,1,4,13,0.8,2024-05-11_15h05.16.460,MSI_AV_v3,2022.1.1,59.961672499400535,
23,0,23,0,,,,,,,,,,3,2.0,3.0,b,63.0,1.0,3.76873691643126,1.95130344756745,None,303.246702299999,None,305.19841910000105,None,305.19841910000105,None,305.19561896000016,None,['b'],[1.5209700999985216],305.19841910000105,None,None,307.19447450000007,None,b,1.5209700999985216,1,1,0.5833333333333334,310.9657193999992,None,None,310.9657193999992,None,,,,,,,,,,,,,,,,,,,,,,,CBC_1108,003,6,1,4,13,0.8,2024-05-11_15h05.16.460,MSI_AV_v3,2022.1.1,59.961672499400535,
24,0,24,0,,,,,,,,,,1,3.0,2.0,b,63.0,1.0,2.2759877950103027,2.10421507306074,None,312.7793773000012,None,314.90012679999927,None,314.90012679999927,None,314.8967911899985,None,['z'],[1.3795065999984217],314.90012679999927,None,None,316.89781220000077,None,z,1.3795065999984217,0,0,0.56,319.1841096999997,None,None,319.1841096999997,None,,,,,,,,,,,,,,,,,,,,,,,CBC_1108,003,6,1,4,13,0.8,2024-05-11_15h05.16.460,MSI_AV_v3,2022.1.1,59.961672499400535,
25,0,25,0,,,,,,,,,,0,0.0,1.0,z,63.0,1.0,3.6438386551209,1.78643585472448,None,320.997105800001,None,322.78721660000156,None,322.78721660000156,None,322.79637189000135,None,None,,322.78721660000156,None,['b'],324.76360769999883,None,b,2.063901999998052,0,0,0.5384615384615384,328.388625399999,None,None,328.388625399999,None,[0.0639019999980519],,,,,,,,,,,,,,,,,,,,,,CBC_1108,003,6,1,4,13,0.8,2024-05-11_15h05.16.460,MSI_AV_v3,2022.1.1,59.961672499400535,
26,0,26,0,,,,,,,,,,2,3.0,0.0,z,9.0,1.0,2.629554641171433,1.96568735158996,None,330.1970058000006,None,332.18170459999965,None,332.18170459999965,None,332.18014569000155,None,['z'],[1.7630196999998589],332.18170459999965,None,None,334.1839222999988,None,z,1.7630196999998589,1,1,0.5555555555555556,336.8214970000008,None,None,336.8214970000008,None,,,,,,,,,,,,,,,,,,,,,,,CBC_1108,003,6,1,4,13,0.8,2024-05-11_15h05.16.460,MSI_AV_v3,2022.1.1,59.961672499400535,
27,0,27,0,,,,,,,,,,1,3.0,2.0,b,63.0,0.0,2.82320408183943,1.64421109900286,None,338.63026979999995,None,340.28633719999925,None,340.28633719999925,None,340.29688531999926,None,None,,340.28633719999925,None,['b'],342.2637324999996,None,b,2.3507870999965235,1,0,0.5714285714285714,345.08236580000084,None,None,345.08236580000084,None,[0.35078709999652347],,,,,,,,,,,,,,,,,,,,,,CBC_1108,003,6,1,4,13,0.8,2024-05-11_15h05.16.460,MSI_AV_v3,2022.1.1,59.961672499400535,
28,0,28,0,,,,,,,,,,3,0.0,2.0,z,27.0,1.0,2.517541937862754,2.78346932462847,None,346.8964610000003,None,349.7037985999996,None,349.7037985999996,None,349.7136918200005,None,None,,349.7037985999996,None,"['z', 'z']",351.68042779999814,None,z,2.5121543999957794,1,1,0.5862068965517241,354.19136029999936,None,None,354.19136029999936,None,"[0.5121543999957794, 1.5686969999987923]",,,,,,,,,,,,,,,,,,,,,,CBC_1108,003,6,1,4,13,0.8,2024-05-11_15h05.16.460,MSI_AV_v3,2022.1.1,59.961672499400535,
29,0,29,0,,,,,,,,,,2,0.0,1.0,b,63.0,0.0,3.7500315165247198,0.77703640172831,None,355.9960609000009,None,356.7867737000015,None,356.7867737000015,None,356.7972414200005,None,['b'],[1.8377632000010635],356.7867737000015,None,['b'],358.7671760999983,None,b,1.8377632000010635,1,0,0.6,362.5212266999988,None,None,362.5212266999988,None,[0.11372109999865643],,,,,,,,,,,,,,,,,,,,,,CBC_1108,003,6,1,4,13,0.8,2024-05-11_15h05.16.460,MSI_AV_v3,2022.1.1,59.961672499400535,
30,0,30,0,,,,,,,,,,0,0.0,1.0,z,63.0,1.0,2.294664843639333,1.18065738546375,None,364.3309851999984,None,365.53074600000036,None,365.53074600000036,None,365.5300713899982,None,"['z', 'z']","[0.29222609999851556, 1.6342679999979737]",365.53074600000036,None,None,367.52826379999897,None,z,0.29222609999851556,1,1,0.6129032258064516,369.8209975999998,None,None,369.8209975999998,None,,,,,,,,,,,,,,,,,,,,,,,CBC_1108,003,6,1,4,13,0.8,2024-05-11_15h05.16.460,MSI_AV_v3,2022.1.1,59.961672499400535,
31,0,31,0,,,,,,,,,,1,1.0,3.0,z,27.0,1.0,3.31929419319838,1.43470440954152,None,371.62995149999915,None,373.08308970000144,None,373.08308970000144,None,373.0803965899999,None,None,,373.08308970000144,None,['z'],375.06396369999857,None,z,2.7180867999995826,1,1,0.625,378.4052960000008,None,None,378.4052960000008,None,[0.7180867999995826],,,,,,,,,,,,,,,,,,,,,,CBC_1108,003,6,1,4,13,0.8,2024-05-11_15h05.16.460,MSI_AV_v3,2022.1.1,59.961672499400535,
32,0,32,0,,,,,,,,,,3,2.0,3.0,b,63.0,1.0,2.92731383428727,1.34668860557497,None,380.2139820000011,None,381.5796521000011,None,381.5796521000011,None,381.58047309000034,None,None,,381.5796521000011,None,['b'],383.56386460000067,None,b,2.6034227999989525,1,1,0.6363636363636364,386.4752254999985,None,None,386.4752254999985,None,[0.6034227999989525],,,,,,,,,,,,,,,,,,,,,,CBC_1108,003,6,1,4,13,0.8,2024-05-11_15h05.16.460,MSI_AV_v3,2022.1.1,59.961672499400535,
33,0,33,0,,,,,,,,,,0,0.0,1.0,z,63.0,0.0,2.7134565917469198,0.952147612306987,None,388.2803543000009,None,389.24747320000097,None,389.24747320000097,None,389.2468459899996,None,None,,389.24747320000097,None,['b'],391.2306113000013,None,b,3.0400310999975773,0,1,0.6176470588235294,393.94186529999934,None,None,393.94186529999934,None,[1.0400310999975773],,,,,,,,,,,,,,,,,,,,,,CBC_1108,003,6,1,4,13,0.8,2024-05-11_15h05.16.460,MSI_AV_v3,2022.1.1,59.961672499400535,
34,0,34,0,,,,,,,,,,2,1.0,0.0,z,63.0,1.0,2.526044641065533,1.1243895841892,None,395.7477824999987,None,396.8849306999982,None,396.8849306999982,None,396.89721171999844,None,None,,396.8849306999982,None,['z'],398.8641577999988,None,z,3.263349400000152,1,1,0.6285714285714286,401.38352980000127,None,None,401.38352980000127,None,[1.263349400000152],,,,,,,,,,,,,,,,,,,,,,CBC_1108,003,6,1,4,13,0.8,2024-05-11_15h05.16.460,MSI_AV_v3,2022.1.1,59.961672499400535,
35,0,35,0,,,,,,,,,,3,2.0,1.0,b,9.0,1.0,4.72585056748869,1.12425433982333,None,403.19739109999864,None,404.33683630000087,None,404.33683630000087,None,404.34731431999825,None,None,,404.33683630000087,None,"['z', 'z']",406.3140529000011,None,z,2.440736599997763,0,0,0.6111111111111112,411.03409159999865,None,None,411.03409159999865,None,"[0.4407365999977628, 1.6717103000009956]",,,,,,,,,,,,,,,,,,,,,,CBC_1108,003,6,1,4,13,0.8,2024-05-11_15h05.16.460,MSI_AV_v3,2022.1.1,59.961672499400535,
36,0,36,0,,,,,,,,,,2,0.0,1.0,b,63.0,1.0,4.01714354611405,3.33124983260532,None,412.8477404000005,None,416.20356360000005,None,416.20356360000005,None,416.21493001999914,None,None,,416.20356360000005,None,['b'],418.1808119000016,None,b,2.6690807999984827,1,1,0.6216216216216216,422.18201989999943,None,None,422.18201989999943,None,[0.6690807999984827],,,,,,,,,,,,,,,,,,,,,,CBC_1108,003,6,1,4,13,0.8,2024-05-11_15h05.16.460,MSI_AV_v3,2022.1.1,59.961672499400535,
37,0,37,0,,,,,,,,,,1,1.0,3.0,z,27.0,1.0,2.792365600763554,0.974903167432984,None,423.99768100000074,None,424.983464500001,None,424.983464500001,None,424.9810319900011,None,None,,424.983464500001,None,['z'],426.96387790000153,None,z,2.318028099998628,1,1,0.631578947368421,429.740034800001,None,None,429.740034800001,None,[0.318028099998628],,,,,,,,,,,,,,,,,,,,,,CBC_1108,003,6,1,4,13,0.8,2024-05-11_15h05.16.460,MSI_AV_v3,2022.1.1,59.961672499400535,
38,0,38,0,,,,,,,,,,0,1.0,0.0,b,63.0,1.0,2.693348633324513,2.96653053743745,None,431.5477241000008,None,434.52374979999877,None,434.52374979999877,None,434.5301054899996,None,['b'],[1.2473514999983308],434.52374979999877,None,None,436.531775200001,None,b,1.2473514999983308,1,1,0.6410256410256411,439.2380430000012,None,None,439.2380430000012,None,,,,,,,,,,,,,,,,,,,,,,,CBC_1108,003,6,1,4,13,0.8,2024-05-11_15h05.16.460,MSI_AV_v3,2022.1.1,59.961672499400535,
39,0,39,0,,,,,,,,,,3,3.0,2.0,z,63.0,0.0,3.02234236141277,0.917519910446003,None,441.04756859999907,None,441.98440760000085,None,441.98440760000085,None,441.981046790001,None,None,,441.98440760000085,None,['b'],443.9638804999995,None,b,2.8342420000008133,0,1,0.625,446.9805320000014,None,None,446.9805320000014,None,[0.8342420000008133],,,,,,,,,,,,,,,,,,,,,,CBC_1108,003,6,1,4,13,0.8,2024-05-11_15h05.16.460,MSI_AV_v3,2022.1.1,59.961672499400535,
40,0,40,0,,,,,,,,,,2,0.0,2.0,b,27.0,1.0,4.46924002178158,1.53122835510861,None,448.78073249999943,None,450.33743609999874,None,450.33743609999874,None,450.34752962000056,None,None,,450.33743609999874,None,['z'],452.31441260000065,None,z,2.310867899999721,0,0,0.6097560975609756,456.77516280000054,None,None,456.77516280000054,None,[0.310867899999721],,,,,,,,,,,,,,,,,,,,,,CBC_1108,003,6,1,4,13,0.8,2024-05-11_15h05.16.460,MSI_AV_v3,2022.1.1,59.961672499400535,
41,0,41,0,,,,,,,,,,1,2.0,3.0,z,63.0,1.0,4.77723667052879,1.38289892513751,None,458.58007720000023,None,459.9716948999994,None,459.9716948999994,None,459.9809853200015,None,['b'],[1.8377094999996189],459.9716948999994,None,None,461.96449049999865,None,b,1.8377094999996189,0,0,0.5952380952380952,466.751862000001,None,None,466.751862000001,None,,,,,,,,,,,,,,,,,,,,,,,CBC_1108,003,6,1,4,13,0.8,2024-05-11_15h05.16.460,MSI_AV_v3,2022.1.1,59.961672499400535,
42,0,42,0,,,,,,,,,,0,1.0,3.0,b,27.0,1.0,4.52047235037039,0.979776149765883,None,468.5643663999981,None,469.5671064999988,None,469.5671064999988,None,469.56422419000086,None,['b'],[0.6223199999985809],469.5671064999988,None,None,471.54985229999875,None,b,0.6223199999985809,1,1,0.6046511627906976,476.08799680000084,None,None,476.08799680000084,None,,,,,,,,,,,,,,,,,,,,,,,CBC_1108,003,6,1,4,13,0.8,2024-05-11_15h05.16.460,MSI_AV_v3,2022.1.1,59.961672499400535,
43,0,43,0,,,,,,,,,,3,3.0,2.0,z,63.0,1.0,4.61004669244928,3.40155979865722,None,477.8976025999982,None,481.3148919000014,None,481.3148919000014,None,481.3141266900006,None,None,,481.3148919000014,None,['z'],483.2976768000008,None,z,2.271326999998564,1,1,0.6136363636363636,487.8906797999989,None,None,487.8906797999989,None,[0.27132699999856413],,,,,,,,,,,,,,,,,,,,,,CBC_1108,003,6,1,4,13,0.8,2024-05-11_15h05.16.460,MSI_AV_v3,2022.1.1,59.961672499400535,
,,,,,,,,,,,,,,,,,,,,,,,,,,,,,,,,,,,,,,,,,,,,,,,,,None,489.69753910000145,None,,,,,,,,,,,,,,,,,,CBC_1108,003,6,1,4,13,0.8,2024-05-11_15h05.16.460,MSI_AV_v3,2022.1.1,59.961672499400535,
,,,,,,,,,,,,,,,,,,,,,,,,,,,,,,,,,,,,,,,,,,,,,,,,,,,,494.69814029999907,None,None,494.69814029999907,None,,,,,,,,,,,,,CBC_1108,003,6,1,4,13,0.8,2024-05-11_15h05.16.460,MSI_AV_v3,2022.1.1,59.961672499400535,
,,,,,,,,,,,,,,,,,,,,,,,,,,,,,,,,,,,,,,,,,,,,,,,,,,,,,,,,,z,b,hard,"[0, 1, 2, 3]","[2, 0, 3, 1]",0.6363636363636364,0.45454545454545453,0.8181818181818182,0.5454545454545454,25,0,19,,,,,,,,,,,,
