trials_runs.thisRepN,trials_runs.thisTrialN,trials_runs.thisN,trials_runs.thisIndex,standbild_start.started,standbild_start.stopped,trigger.keys,trigger.rt,trigger.started,trigger.stopped,keys_2.keys,keys_2.started,keys_2.stopped,trials_runs.tactile_stim,trials_runs.visual_stim_left,trials_runs.visual_stim_right,trials_runs.correctKey,trials_runs.presentationFrequncy,trials_runs.FBaccuracy,trials_runs.ISI_s,trials_runs.ITI_s,keys_3.keys,keys_3.started,keys_3.stopped,image_stim_left.started,image_stim_right.started,tactile.started,response_4.keys,allKeys.keys,response_5.keys,response_5.rt,response_5.started,response_5.stopped,response_runs.keys,response_runs.rt,trials_runs.correct_answer,trials_runs.feedback_given,trials_runs.running_mean,feedback_6.stopped,feedback_6.started,keys_6.keys,keys_6.started,keys_6.stopped,keys_6.rt,response_4.rt,allKeys.rt,keys_7.keys,keys_7.started,keys_7.stopped,standbild_end.started,standbild_end.stopped,Stop_exp.keys,Stop_exp.started,Stop_exp.stopped,trials_runs.rightKey,trials_runs.leftKey,ts_difficulty,visualPair,tactilePair,trials_runs.mean_acc_1stFourth,trials_runs.mean_acc_2ndFourth,trials_runs.mean_acc_3rdFourth,trials_runs.mean_acc_4thFourth,nbCorrect,nbOmissions,nbIncorrect,participant,session,visual set [1-6],tactile set [1-3],trial structure [0-3 / 4-7],pairing [0-23],prob Feedback,date,expName,psychopyVersion,frameRate,
,,,,28.784785199997714,None,t,36.84092719999899,28.784785199997714,None,,,,,,,,,,,,,,,,,,,,,,,,,,,,,,,,,,,,,,,,,,,,,,,,,,,,,,,,,CBC_1108,001,5,3,6,13,0.95,2024-05-11_13h20.10.697,MSI_TV_v3,2022.1.1,60.02065911008614,
,,,,,,,,,,None,65.64217799999824,None,,,,,,,,,,,,,,,,,,,,,,,,,,,,,,,,,,,,,,,,,,,,,,,,,,,,,,CBC_1108,001,5,3,6,13,0.95,2024-05-11_13h20.10.697,MSI_TV_v3,2022.1.1,60.02065911008614,
0,0,0,0,,,,,,,,,,2,0.0,1.0,b,63.0,1.0,4.40017271499661,1.96568735158996,None,65.84248519999892,None,67.79133243999713,67.79133243999713,67.80796873999971,None,[],['z'],[0.40014940000037313],69.78939069999979,None,z,2.400149400000373,0,0,0.0,None,74.25072869999713,None,74.25072869999713,None,,,,,,,,,,,,,,,,,,,,,,,,CBC_1108,001,5,3,6,13,0.95,2024-05-11_13h20.10.697,MSI_TV_v3,2022.1.1,60.02065911008614,
1,0,1,0,,,,,,,,,,3,3.0,2.0,z,63.0,1.0,4.77034425507967,1.36309078069689,None,76.00992859999678,None,77.35917814000022,77.35917814000022,77.37584243999773,None,[],['z'],[0.8290044999994279],79.36403999999675,None,z,2.829004499999428,1,1,0.5,None,84.16906689999814,None,84.16906689999814,None,,,,,,,,,,,,,,,,,,,,,,,,CBC_1108,001,5,3,6,13,0.95,2024-05-11_13h20.10.697,MSI_TV_v3,2022.1.1,60.02065911008614,
2,0,2,0,,,,,,,,,,2,0.0,2.0,b,27.0,1.0,2.526044641065533,1.21250262048173,None,85.94259689999672,None,87.14268704000024,87.14268704000024,87.15909593999932,None,[],['z'],[0.8502465999990818],89.14798569999766,None,z,2.850246599999082,0,0,0.3333333333333333,None,91.66896649999762,None,91.66896649999762,None,,,,,,,,,,,,,,,,,,,,,,,,CBC_1108,001,5,3,6,13,0.95,2024-05-11_13h20.10.697,MSI_TV_v3,2022.1.1,60.02065911008614,
3,0,3,0,,,,,,,,,,0,1.0,0.0,b,63.0,1.0,4.190022164497369,1.18065738546375,None,93.47551849999945,None,94.64275263999771,94.64275263999771,94.65964093999828,None,[],['b'],[0.3860029999996186],96.64949069999784,None,b,2.3860029999996186,1,1,0.5,None,100.83899949999977,None,100.83899949999977,None,,,,,,,,,,,,,,,,,,,,,,,,CBC_1108,001,5,3,6,13,0.95,2024-05-11_13h20.10.697,MSI_TV_v3,2022.1.1,60.02065911008614,
4,0,4,0,,,,,,,,,,0,0.0,1.0,z,63.0,1.0,3.2062024266105302,2.09887870490381,None,102.64304300000003,None,104.7260837400001,104.7260837400001,104.7424035399974,None,[],['z'],[1.9302967000003264],106.73465690000012,None,z,3.9302967000003264,1,1,0.6,None,109.94903449999765,None,109.94903449999765,None,,,,,,,,,,,,,,,,,,,,,,,,CBC_1108,001,5,3,6,13,0.95,2024-05-11_13h20.10.697,MSI_TV_v3,2022.1.1,60.02065911008614,
5,0,5,0,,,,,,,,,,3,3.0,2.0,z,63.0,1.0,2.294664843639333,2.6299100644723,None,111.75920499999847,None,114.37597533999833,114.37597533999833,114.39244283999979,None,[],['b'],[0.19211160000122618],116.37621279999803,None,b,2.192111600001226,0,0,0.5,None,118.66205799999807,None,118.66205799999807,None,,,,,,,,,,,,,,,,,,,,,,,,CBC_1108,001,5,3,6,13,0.95,2024-05-11_13h20.10.697,MSI_TV_v3,2022.1.1,60.02065911008614,
6,0,6,0,,,,,,,,,,1,3.0,1.0,b,27.0,1.0,4.12485271162806,2.22427187882546,None,120.47586699999738,None,122.67620303999975,122.67620303999975,122.69263694000001,None,[],['b'],[2.6710469999998168],124.68169309999939,None,b,4.671046999999817,1,1,0.5714285714285714,None,128.80147109999962,None,128.80147109999962,None,,,,,,,,,,,,,,,,,,,,,,,,CBC_1108,001,5,3,6,13,0.95,2024-05-11_13h20.10.697,MSI_TV_v3,2022.1.1,60.02065911008614,
7,0,7,0,,,,,,,,,,3,1.0,2.0,z,9.0,1.0,4.61004669244928,1.1243895841892,None,130.609402099999,None,131.70860863999877,131.70860863999877,131.7248350399979,None,[],['z'],[0.39813320000030217],133.70580059999702,None,z,2.398133200000302,1,1,0.625,None,138.32431539999743,None,138.32431539999743,None,,,,,,,,,,,,,,,,,,,,,,,,CBC_1108,001,5,3,6,13,0.95,2024-05-11_13h20.10.697,MSI_TV_v3,2022.1.1,60.02065911008614,
8,0,8,0,,,,,,,,,,0,3.0,1.0,z,27.0,1.0,2.666404967794728,0.974903167432984,None,140.12619099999938,None,141.07641103999885,141.07641103999885,141.09300143999752,None,[],['b'],[1.3246610999995028],143.08183199999985,None,b,3.3246610999995028,0,0,0.5555555555555556,None,145.7470598,['z'],145.7470598,None,[1.5369528000010177],,,,,,,,,,,,,,,,,,,,,,,CBC_1108,001,5,3,6,13,0.95,2024-05-11_13h20.10.697,MSI_TV_v3,2022.1.1,60.02065911008614,
9,0,9,0,,,,,,,,,,1,3.0,2.0,b,63.0,1.0,2.517541937862754,0.77703640172831,None,147.55939500000022,None,148.30957153999879,148.30957153999879,148.3259967399983,None,[],['b'],[0.7609670999991067],150.31655599999795,None,b,2.7609670999991067,1,1,0.6,None,152.83051179999893,None,152.83051179999893,None,,,,,,,,,,,,,,,,,,,,,,,,CBC_1108,001,5,3,6,13,0.95,2024-05-11_13h20.10.697,MSI_TV_v3,2022.1.1,60.02065911008614,
10,0,10,0,,,,,,,,,,0,1.0,0.0,b,63.0,1.0,4.53337421950507,3.4543169006169,None,154.6426281999993,None,158.07618953999662,158.07618953999662,158.09285733999894,None,[],['z'],[0.39872549999927287],160.07950709999932,None,z,2.398725499999273,0,0,0.5454545454545454,None,164.60927789999914,None,164.60927789999914,None,,,,,,,,,,,,,,,,,,,,,,,,CBC_1108,001,5,3,6,13,0.95,2024-05-11_13h20.10.697,MSI_TV_v3,2022.1.1,60.02065911008614,
11,0,11,0,,,,,,,,,,3,0.0,2.0,z,27.0,1.0,3.6438386551209,1.94858485820231,None,166.40966019999905,None,168.3428331400002,168.3428331400002,168.35957373999662,None,[],['b'],[1.5028586000007635],170.34961889999977,None,b,3.5028586000007635,0,0,0.5,None,173.99448889999985,None,173.99448889999985,None,,,,,,,,,,,,,,,,,,,,,,,,CBC_1108,001,5,3,6,13,0.95,2024-05-11_13h20.10.697,MSI_TV_v3,2022.1.1,60.02065911008614,
12,0,12,0,,,,,,,,,,1,3.0,2.0,b,63.0,0.0,4.72585056748869,1.38289892513751,None,175.80998309999995,None,177.1767551399982,177.1767551399982,177.192941839997,None,[],['b'],[0.6570804000002681],179.18310349999956,None,b,2.657080400000268,1,0,0.5384615384615384,None,183.9070139999967,None,183.9070139999967,None,,,,,,,,,,,,,,,,,,,,,,,,CBC_1108,001,5,3,6,13,0.95,2024-05-11_13h20.10.697,MSI_TV_v3,2022.1.1,60.02065911008614,
13,0,13,0,,,,,,,,,,2,1.0,0.0,z,63.0,1.0,2.7134565917469198,1.95130344756745,None,185.70933549999972,None,187.64318263999775,187.64318263999775,187.6592165399972,None,[],['b'],[0.5951735999988159],189.64098359999844,None,b,2.595173599998816,0,0,0.5,None,192.36377619999985,None,192.36377619999985,None,,,,,,,,,,,,,,,,,,,,,,,,CBC_1108,001,5,3,6,13,0.95,2024-05-11_13h20.10.697,MSI_TV_v3,2022.1.1,60.02065911008614,
14,0,14,0,,,,,,,,,,3,2.0,3.0,b,63.0,1.0,2.693348633324513,3.40155979865722,None,194.1764750000002,None,197.5595749399992,197.5595749399992,197.57620213999797,None,[],['z'],[0.3685212999989744],199.56337979999807,None,z,2.3685212999989744,0,0,0.4666666666666667,None,202.24951069999952,None,202.24951069999952,None,,,,,,,,,,,,,,,,,,,,,,,,CBC_1108,001,5,3,6,13,0.95,2024-05-11_13h20.10.697,MSI_TV_v3,2022.1.1,60.02065911008614,
15,0,15,0,,,,,,,,,,2,0.0,2.0,b,27.0,1.0,3.35133458220192,1.27538462653558,None,204.05960799999957,None,205.30982713999873,205.30982713999873,205.3262091399967,None,[],['z'],[1.3904995000011695],207.3139274999994,None,z,3.3904995000011695,0,0,0.4375,None,210.64942429999792,None,210.64942429999792,None,,,,,,,,,,,,,,,,,,,,,,,,CBC_1108,001,5,3,6,13,0.95,2024-05-11_13h20.10.697,MSI_TV_v3,2022.1.1,60.02065911008614,
16,0,16,0,,,,,,,,,,1,2.0,3.0,z,63.0,1.0,4.77723667052879,1.53122835510861,None,212.45988699999725,None,213.97639993999945,213.97639993999945,213.99322013999807,None,[],['z'],[0.6382865000014135],215.97568919999685,None,z,2.6382865000014135,1,1,0.47058823529411764,None,220.74973630000022,None,220.74973630000022,None,,,,,,,,,,,,,,,,,,,,,,,,CBC_1108,001,5,3,6,13,0.95,2024-05-11_13h20.10.697,MSI_TV_v3,2022.1.1,60.02065911008614,
17,0,17,0,,,,,,,,,,1,3.0,2.0,b,63.0,1.0,2.496959177995529,1.43470440954152,None,222.55967789999704,None,223.97656333999947,223.97656333999947,223.99318603999671,None,[],['z'],[0.7132854999981646],225.9821738999999,None,z,2.7132854999981646,0,0,0.4444444444444444,None,228.47079299999677,None,228.47079299999677,None,,,,,,,,,,,,,,,,,,,,,,,,CBC_1108,001,5,3,6,13,0.95,2024-05-11_13h20.10.697,MSI_TV_v3,2022.1.1,60.02065911008614,
18,0,18,0,,,,,,,,,,0,3.0,1.0,z,27.0,1.0,4.82531807167306,1.53243550275999,None,230.27614729999914,None,231.7933007399999,231.7933007399999,231.8098007399978,None,[],['z'],[0.7414325999998255],233.79659629999878,None,z,2.7414325999998255,1,1,0.47368421052631576,None,238.6149725999967,None,238.6149725999967,None,,,,,,,,,,,,,,,,,,,,,,,,CBC_1108,001,5,3,6,13,0.95,2024-05-11_13h20.10.697,MSI_TV_v3,2022.1.1,60.02065911008614,
19,0,19,0,,,,,,,,,,1,0.0,3.0,z,9.0,1.0,2.92731383428727,3.24569326556923,None,240.42651379999734,None,243.64336803999794,243.64336803999794,243.66033263999742,None,[],['z'],[0.5416484999987006],245.64851129999806,None,z,2.5416484999987006,1,1,0.5,None,248.577770099997,None,248.577770099997,None,,,,,,,,,,,,,,,,,,,,,,,,CBC_1108,001,5,3,6,13,0.95,2024-05-11_13h20.10.697,MSI_TV_v3,2022.1.1,60.02065911008614,
20,0,20,0,,,,,,,,,,0,1.0,0.0,b,63.0,1.0,4.7533305109883095,0.952147612306987,None,250.39337859999796,None,251.32673733999872,251.32673733999872,251.34322673999958,None,[],['z'],[1.8395666999967943],253.33367989999897,None,z,3.8395666999967943,0,0,0.47619047619047616,None,258.0898171999979,None,258.0898171999979,None,,,,,,,,,,,,,,,,,,,,,,,,CBC_1108,001,5,3,6,13,0.95,2024-05-11_13h20.10.697,MSI_TV_v3,2022.1.1,60.02065911008614,
21,0,21,0,,,,,,,,,,2,1.0,0.0,z,63.0,1.0,4.11514536789087,2.15533949826702,None,259.89341069999864,None,262.0268056399993,262.0268056399993,262.0432370399987,None,[],['z'],[1.5944589999999152],264.032203499999,None,z,3.5944589999999152,1,1,0.5,None,268.1483023999972,None,268.1483023999972,None,,,,,,,,,,,,,,,,,,,,,,,,CBC_1108,001,5,3,6,13,0.95,2024-05-11_13h20.10.697,MSI_TV_v3,2022.1.1,60.02065911008614,
22,0,22,0,,,,,,,,,,3,2.0,3.0,b,63.0,1.0,2.2759877950103027,1.25817747924478,None,269.9599053999991,None,271.1933742399971,271.1933742399971,271.21005773999894,None,[],['z'],[0.7963213999973959],273.19854119999945,None,z,2.796321399997396,0,0,0.4782608695652174,None,275.4694165999972,None,275.4694165999972,None,,,,,,,,,,,,,,,,,,,,,,,,CBC_1108,001,5,3,6,13,0.95,2024-05-11_13h20.10.697,MSI_TV_v3,2022.1.1,60.02065911008614,
23,0,23,0,,,,,,,,,,2,0.0,2.0,b,27.0,1.0,2.6391747348430608,1.34668860557497,None,277.27692769999703,None,278.61011043999787,278.61011043999787,278.62681593999986,None,[],None,,280.6151751999969,None,None,[],0,3,0.4583333333333333,None,283.2554848999971,None,283.2554848999971,None,,,,,,,,,,,,,,,,,,,,,,,,CBC_1108,001,5,3,6,13,0.95,2024-05-11_13h20.10.697,MSI_TV_v3,2022.1.1,60.02065911008614,
24,0,24,0,,,,,,,,,,0,1.0,0.0,b,63.0,1.0,3.26539063535182,0.761758675042088,None,285.0602986999984,None,285.793724139997,285.793724139997,285.81009913999986,b,['b'],None,,287.8390768999998,None,b,1.648859100001573,1,1,0.48,None,291.10744649999833,None,291.10744649999833,None,,1.648859100001573,[1.648859100001573],,,,,,,,,,,,,,,,,,,,,CBC_1108,001,5,3,6,13,0.95,2024-05-11_13h20.10.697,MSI_TV_v3,2022.1.1,60.02065911008614,
25,0,25,0,,,,,,,,,,1,2.0,3.0,z,63.0,1.0,2.678526077912375,1.78643585472448,None,292.9102583999993,None,294.677166339997,294.677166339997,294.6934751399978,z,['z'],None,,296.7223782000001,None,z,1.6360619999977644,1,1,0.5,None,299.4037025999969,None,299.4037025999969,None,,1.6360619999977644,[1.6360619999977644],,,,,,,,,,,,,,,,,,,,,CBC_1108,001,5,3,6,13,0.95,2024-05-11_13h20.10.697,MSI_TV_v3,2022.1.1,60.02065911008614,
26,0,26,0,,,,,,,,,,0,1.0,2.0,b,9.0,1.0,4.01714354611405,0.979776149765883,None,301.2099891999969,None,302.17701653999865,302.17701653999865,302.19342803999933,None,[],['b'],[0.3206811000018206],304.18309880000015,None,b,2.3206811000018206,1,1,0.5185185185185185,None,308.20312569999805,None,308.20312569999805,None,,,,,,,,,,,,,,,,,,,,,,,,CBC_1108,001,5,3,6,13,0.95,2024-05-11_13h20.10.697,MSI_TV_v3,2022.1.1,60.02065911008614,
27,0,27,0,,,,,,,,,,1,1.0,3.0,z,27.0,1.0,3.3728785608729996,1.90743690794447,None,310.01065000000017,None,311.8936513399978,311.8936513399978,311.9100225399972,None,[],['z'],[0.7273152000016125],313.8982107999982,None,z,2.7273152000016125,1,1,0.5357142857142857,None,317.25724609999816,None,317.25724609999816,None,,,,,,,,,,,,,,,,,,,,,,,,CBC_1108,001,5,3,6,13,0.95,2024-05-11_13h20.10.697,MSI_TV_v3,2022.1.1,60.02065911008614,
28,0,28,0,,,,,,,,,,2,1.0,0.0,z,63.0,1.0,3.31929419319838,2.40378712856304,None,319.0603317999994,None,321.44384973999803,321.44384973999803,321.4610436399973,None,[],['z'],[0.6112089000016567],323.4502638999984,None,z,2.6112089000016567,1,1,0.5517241379310345,None,326.7622698999985,None,326.7622698999985,None,,,,,,,,,,,,,,,,,,,,,,,,CBC_1108,001,5,3,6,13,0.95,2024-05-11_13h20.10.697,MSI_TV_v3,2022.1.1,60.02065911008614,
29,0,29,0,,,,,,,,,,2,0.0,1.0,b,63.0,1.0,2.792365600763554,1.64421109900286,None,328.57702569999674,None,330.1937476399991,330.1937476399991,330.21036503999966,None,[],['z'],[1.2796383000022615],332.200284999999,None,z,3.2796383000022615,0,0,0.5333333333333333,None,334.98689359999844,None,334.98689359999844,None,,,,,,,,,,,,,,,,,,,,,,,,CBC_1108,001,5,3,6,13,0.95,2024-05-11_13h20.10.697,MSI_TV_v3,2022.1.1,60.02065911008614,
30,0,30,0,,,,,,,,,,3,0.0,2.0,z,27.0,1.0,3.71372710086949,2.49839527409216,None,336.79357600000003,None,339.27722203999764,339.27722203999764,339.29398773999964,None,[],['z'],[0.5047985999990487],341.282223299997,None,z,2.5047985999990487,1,1,0.5483870967741935,None,344.98774950000006,None,344.98774950000006,None,,,,,,,,,,,,,,,,,,,,,,,,CBC_1108,001,5,3,6,13,0.95,2024-05-11_13h20.10.697,MSI_TV_v3,2022.1.1,60.02065911008614,
31,0,31,0,,,,,,,,,,2,1.0,0.0,z,63.0,1.0,4.46924002178158,3.33124983260532,None,346.79391269999905,None,350.110607339998,350.110607339998,350.1269384399977,None,[],['b'],[1.8695433999964735],352.11545019999903,None,b,3.8695433999964735,0,0,0.53125,None,356.58361460000015,None,356.58361460000015,None,,,,,,,,,,,,,,,,,,,,,,,,CBC_1108,001,5,3,6,13,0.95,2024-05-11_13h20.10.697,MSI_TV_v3,2022.1.1,60.02065911008614,
32,0,32,0,,,,,,,,,,0,1.0,0.0,b,63.0,1.0,4.52047235037039,2.78346932462847,None,358.3939047999993,None,361.1607699399985,361.1607699399985,361.1771087399986,None,[],"['b', 'z', 'z', 'z']","[1.1176736999987043, 1.5384400999973877, 1.931408599997667, 2.407693900000595]",363.1656808999978,None,b,3.1176736999987043,1,1,0.5454545454545454,None,367.6733408,None,367.6733408,None,,,,,,,,,,,,,,,,,,,,,,,,CBC_1108,001,5,3,6,13,0.95,2024-05-11_13h20.10.697,MSI_TV_v3,2022.1.1,60.02065911008614,
33,0,33,0,,,,,,,,,,1,3.0,2.0,b,63.0,1.0,3.76873691643126,3.06992456303453,None,369.4773866999967,None,372.5274180399985,372.5274180399985,372.54386293999886,b,['b'],None,,374.5752358999998,None,b,1.709568300000683,1,1,0.5588235294117647,None,378.3570751999978,None,378.3570751999978,None,,1.709568300000683,[1.709568300000683],,,,,,,,,,,,,,,,,,,,,CBC_1108,001,5,3,6,13,0.95,2024-05-11_13h20.10.697,MSI_TV_v3,2022.1.1,60.02065911008614,
34,0,34,0,,,,,,,,,,0,3.0,1.0,z,27.0,1.0,2.342239579230602,1.12425433982333,None,380.16068059999816,None,381.2607244399998,381.2607244399998,381.277191639999,None,[],['z'],[0.7961133999997401],383.26564789999975,None,z,2.79611339999974,1,1,0.5714285714285714,None,385.6135826999998,None,385.6135826999998,None,,,,,,,,,,,,,,,,,,,,,,,,CBC_1108,001,5,3,6,13,0.95,2024-05-11_13h20.10.697,MSI_TV_v3,2022.1.1,60.02065911008614,
35,0,35,0,,,,,,,,,,3,3.0,2.0,z,63.0,1.0,3.73326136168326,1.25920145784721,None,387.4273969999995,None,388.6604194399999,388.6604194399999,388.67711973999866,b,['b'],None,,390.70434479999676,None,b,1.4362641000006988,0,0,0.5555555555555556,None,394.43861379999726,None,394.43861379999726,None,,1.4362641000006988,[1.4362641000006988],,,,,,,,,,,,,,,,,,,,,CBC_1108,001,5,3,6,13,0.95,2024-05-11_13h20.10.697,MSI_TV_v3,2022.1.1,60.02065911008614,
36,0,36,0,,,,,,,,,,3,2.0,0.0,b,27.0,1.0,3.7500315165247198,0.917519910446003,None,396.2441328999994,None,397.14420173999787,397.14420173999787,397.1606864399993,None,[],['b'],[1.6279261999989103],399.1480451999996,None,b,3.6279261999989103,1,1,0.5675675675675675,None,402.8818212999977,None,402.8818212999977,None,,,,,,,,,,,,,,,,,,,,,,,,CBC_1108,001,5,3,6,13,0.95,2024-05-11_13h20.10.697,MSI_TV_v3,2022.1.1,60.02065911008614,
37,0,37,0,,,,,,,,,,0,1.0,0.0,b,63.0,1.0,3.68371079902891,1.52290599571961,None,404.6942695999969,None,406.1942089399974,406.1942089399974,406.2106896399975,None,[],['b'],[1.8077239000012923],408.19718069999726,None,b,3.8077239000012923,1,1,0.5789473684210527,None,411.8722020999994,None,411.8722020999994,None,,,,,,,,,,,,,,,,,,,,,,,,CBC_1108,001,5,3,6,13,0.95,2024-05-11_13h20.10.697,MSI_TV_v3,2022.1.1,60.02065911008614,
38,0,38,0,,,,,,,,,,2,3.0,0.0,z,9.0,1.0,2.91303524001082,3.1424449555106,None,413.6771066000001,None,416.7940219399981,416.7940219399981,416.81094363999836,b,['b'],None,,418.8397683000003,None,b,1.8014776000018173,0,0,0.5641025641025641,None,421.7532601999992,None,421.7532601999992,None,,1.8014776000018173,[1.8014776000018173],,,,,,,,,,,,,,,,,,,,,CBC_1108,001,5,3,6,13,0.95,2024-05-11_13h20.10.697,MSI_TV_v3,2022.1.1,60.02065911008614,
39,0,39,0,,,,,,,,,,3,3.0,2.0,z,63.0,0.0,3.02234236141277,2.96653053743745,None,423.5607330999992,None,426.5111173399975,426.5111173399975,426.527383439997,None,[],['z'],[0.48182290000113426],428.516591399999,None,z,2.4818229000011343,1,0,0.575,None,431.5341322999993,None,431.5341322999993,None,,,,,,,,,,,,,,,,,,,,,,,,CBC_1108,001,5,3,6,13,0.95,2024-05-11_13h20.10.697,MSI_TV_v3,2022.1.1,60.02065911008614,
40,0,40,0,,,,,,,,,,2,1.0,0.0,z,63.0,1.0,2.82320408183943,2.10421507306074,None,433.3445956999967,None,435.42723863999817,435.42723863999817,435.4443493399969,None,[],None,,437.43277319999834,None,None,[],0,3,0.5609756097560976,None,440.2559524999997,['z'],440.2559524999997,None,[1.2492958000002545],,,,,,,,,,,,,,,,,,,,,,,CBC_1108,001,5,3,6,13,0.95,2024-05-11_13h20.10.697,MSI_TV_v3,2022.1.1,60.02065911008614,
41,0,41,0,,,,,,,,,,1,3.0,2.0,b,63.0,1.0,2.592312596923728,0.80788063606262,None,442.06093709999914,None,442.8445965399998,442.8445965399998,442.8609340399973,b,['b'],None,,444.87101419999817,None,b,1.9387387999995553,1,1,0.5714285714285714,None,447.47421549999854,None,447.47421549999854,None,,1.9387387999995553,[1.9387387999995553],,,,,,,,,,,,,,,,,,,,,CBC_1108,001,5,3,6,13,0.95,2024-05-11_13h20.10.697,MSI_TV_v3,2022.1.1,60.02065911008614,
42,0,42,0,,,,,,,,,,3,2.0,3.0,b,63.0,1.0,2.433630701072358,1.60731937853708,None,449.27759989999686,None,450.8617082399989,450.8617082399989,450.87770023999946,b,['b'],None,,452.9060288999972,None,b,1.7272682000002533,1,1,0.5813953488372093,None,455.3577949999999,None,455.3577949999999,None,,1.7272682000002533,[1.7272682000002533],,,,,,,,,,,,,,,,,,,,,CBC_1108,001,5,3,6,13,0.95,2024-05-11_13h20.10.697,MSI_TV_v3,2022.1.1,60.02065911008614,
43,0,43,0,,,,,,,,,,1,1.0,3.0,z,27.0,1.0,2.629554641171433,3.1963008326951,None,457.1609365999975,None,460.34425544000004,460.34425544000004,460.36106013999705,None,[],['z'],[0.3929830999986734],462.34847629999786,None,z,2.3929830999986734,1,1,0.5909090909090909,None,464.9821488999987,None,464.9821488999987,None,,,,,,,,,,,,,,,,,,,,,,,,CBC_1108,001,5,3,6,13,0.95,2024-05-11_13h20.10.697,MSI_TV_v3,2022.1.1,60.02065911008614,
,,,,,,,,,,,,,,,,,,,,,,,,,,,,,,,,,,,,,,,,,,,,,,None,466.7947168999999,None,,,,,,,,,,,,,,,,,,CBC_1108,001,5,3,6,13,0.95,2024-05-11_13h20.10.697,MSI_TV_v3,2022.1.1,60.02065911008614,
,,,,,,,,,,,,,,,,,,,,,,,,,,,,,,,,,,,,,,,,,,,,,,,,,471.77787119999994,None,None,471.77787119999994,476.76155639999706,,,,,,,,,,,,,CBC_1108,001,5,3,6,13,0.95,2024-05-11_13h20.10.697,MSI_TV_v3,2022.1.1,60.02065911008614,
,,,,,,,,,,,,,,,,,,,,,,,,,,,,,,,,,,,,,,,,,,,,,,,,,,,,,,z,b,easy,"[0, 1, 2, 3]","[2, 0, 3, 1]",0.5454545454545454,0.45454545454545453,0.6363636363636364,0.7272727272727273,24,2,18,,,,,,,,,,,,
