trials_runs.thisRepN,trials_runs.thisTrialN,trials_runs.thisN,trials_runs.thisIndex,standbild_start.started,standbild_start.stopped,trigger.keys,trigger.rt,trigger.started,trigger.stopped,keys_2.keys,keys_2.started,keys_2.stopped,trials_runs.auditory_stim,trials_runs.visual_stim_left,trials_runs.visual_stim_right,trials_runs.correctKey,trials_runs.presentationFrequncy,trials_runs.FBaccuracy,trials_runs.ISI_s,trials_runs.ITI_s,keys_3.keys,keys_3.started,keys_3.stopped,ImageLeft_4.started,ImageLeft_4.stopped,ImageRight_4.started,ImageRight_4.stopped,sound_4.started,sound_4.stopped,response_4.keys,response_4.started,response_4.stopped,response_5.keys,response_5.rt,response_5.started,response_5.stopped,response_runs.keys,response_runs.rt,trials_runs.correct_answer,trials_runs.feedback_given,trials_runs.running_mean,feedback_6.started,feedback_6.stopped,keys_6.keys,keys_6.started,keys_6.stopped,response_4.rt,keys_3.rt,keys_6.rt,keys_7.keys,keys_7.started,keys_7.stopped,standbild_end.started,standbild_end.stopped,Stop_exp.keys,Stop_exp.started,Stop_exp.stopped,trials_runs.rightKey,trials_runs.leftKey,ts_difficulty,visualPair,audioPair,trials_runs.mean_acc_1stFourth,trials_runs.mean_acc_2ndFourth,trials_runs.mean_acc_3rdFourth,trials_runs.mean_acc_4thFourth,nbCorrect,nbOmissions,nbIncorrect,participant,session,visual set [1-6],audio set [1-3 / 4-6],trial structure [0-3 / 4-7],pairing [0-23],prob Feedback,date,expName,psychopyVersion,frameRate,
,,,,210.8571622999989,None,t,71.38663830000041,210.8571622999989,None,,,,,,,,,,,,,,,,,,,,,,,,,,,,,,,,,,,,,,,,,,,,,,,,,,,,,,,,,,,,,CBC_1035,003,4,3,2,12,0.95,2024-07-26_16h27.09.209,MSI_AV_v3,2022.1.1,60.079870179527845,
,,,,,,,,,,None,282.2662328000006,None,,,,,,,,,,,,,,,,,,,,,,,,,,,,,,,,,,,,,,,,,,,,,,,,,,,,,,,,,,CBC_1035,003,4,3,2,12,0.95,2024-07-26_16h27.09.209,MSI_AV_v3,2022.1.1,60.079870179527845,
0,0,0,0,,,,,,,,,,2,1.0,0.0,z,63.0,1.0,4.7533305109883095,1.18065738546375,None,282.46591380000064,None,283.749170699999,None,283.749170699999,None,283.74727287999923,None,None,283.749170699999,None,['z'],[0.4978078000003734],285.633233999999,None,z,2.4978078000003734,1,1,1.0,290.3935787999999,None,None,290.3935787999999,None,,,,,,,,,,,,,,,,,,,,,,,,CBC_1035,003,4,3,2,12,0.95,2024-07-26_16h27.09.209,MSI_AV_v3,2022.1.1,60.079870179527845,
1,0,1,0,,,,,,,,,,1,2.0,3.0,b,63.0,1.0,2.82320408183943,2.78346932462847,None,292.1996930000005,None,295.0189389999996,None,295.0189389999996,None,295.0157946399999,None,None,295.0189389999996,None,['b'],[0.48440149999987625],296.98266220000005,None,b,2.4844014999998763,1,1,1.0,299.7891005999991,None,None,299.7891005999991,None,,,,,,,,,,,,,,,,,,,,,,,,CBC_1035,003,4,3,2,12,0.95,2024-07-26_16h27.09.209,MSI_AV_v3,2022.1.1,60.079870179527845,
2,0,2,0,,,,,,,,,,2,2.0,0.0,z,27.0,1.0,2.666404967794728,0.974903167432984,None,301.5986142999991,None,302.58750490000057,None,302.58750490000057,None,302.59898683999967,None,None,302.58750490000057,None,['b'],[1.19212300000072],304.56474399999934,None,b,3.19212300000072,0,0,0.6666666666666666,307.21905920000063,None,None,307.21905920000063,None,,,,,,,,,,,,,,,,,,,,,,,,CBC_1035,003,4,3,2,12,0.95,2024-07-26_16h27.09.209,MSI_AV_v3,2022.1.1,60.079870179527845,
3,0,3,0,,,,,,,,,,0,0.0,1.0,z,63.0,1.0,3.73326136168326,2.22427187882546,None,309.03294389999974,None,311.29428410000037,None,311.29428410000037,None,311.2994507499998,None,None,311.29428410000037,None,['b'],[0.5714585000005172],313.2495672999994,None,b,2.5714585000005172,0,0,0.5,316.9686194999995,None,None,316.9686194999995,None,,,,,,,,,,,,,,,,,,,,,,,,CBC_1035,003,4,3,2,12,0.95,2024-07-26_16h27.09.209,MSI_AV_v3,2022.1.1,60.079870179527845,
4,0,4,0,,,,,,,,,,0,1.0,0.0,b,63.0,1.0,3.6438386551209,1.78643585472448,None,318.7827295999996,None,320.5853955999992,None,320.5853955999992,None,320.5824849300005,None,None,320.5853955999992,None,['z'],[0.09528099999988626],322.5659665000003,None,z,2.0952809999998863,0,0,0.4,326.2120813999991,None,None,326.2120813999991,None,,,,,,,,,,,,,,,,,,,,,,,,CBC_1035,003,4,3,2,12,0.95,2024-07-26_16h27.09.209,MSI_AV_v3,2022.1.1,60.079870179527845,
5,0,5,0,,,,,,,,,,1,2.0,3.0,b,63.0,1.0,4.01714354611405,3.24569326556923,None,328.016298999999,None,331.2889130000003,None,331.2889130000003,None,331.2993457399993,None,None,331.2889130000003,None,['z'],[0.8710476000014751],333.266209899999,None,z,2.871047600001475,0,0,0.3333333333333333,337.2832122,None,None,337.2832122,None,,,,,,,,,,,,,,,,,,,,,,,,CBC_1035,003,4,3,2,12,0.95,2024-07-26_16h27.09.209,MSI_AV_v3,2022.1.1,60.079870179527845,
6,0,6,0,,,,,,,,,,3,1.0,3.0,z,27.0,1.0,2.678526077912375,2.96653053743745,None,339.08290899999884,None,342.1090213999996,None,342.1090213999996,None,342.11559246000036,None,None,342.1090213999996,None,['z'],[2.276791600001161],344.049773499999,None,z,4.276791600001161,1,1,0.42857142857142855,346.72096339999916,None,None,346.72096339999916,None,,,,,,,,,,,,,,,,,,,,,,,,CBC_1035,003,4,3,2,12,0.95,2024-07-26_16h27.09.209,MSI_AV_v3,2022.1.1,60.079870179527845,
7,0,7,0,,,,,,,,,,1,2.0,1.0,b,9.0,1.0,2.629554641171433,2.10421507306074,None,348.53276489999917,None,350.6338531000001,None,350.6338531000001,None,350.63153691999946,None,None,350.6338531000001,None,['b'],[1.9270173000004434],352.6159671000005,None,b,3.9270173000004434,1,1,0.5,355.2365919999993,None,None,355.2365919999993,None,,,,,,,,,,,,,,,,,,,,,,,,CBC_1035,003,4,3,2,12,0.95,2024-07-26_16h27.09.209,MSI_AV_v3,2022.1.1,60.079870179527845,
8,0,8,0,,,,,,,,,,0,1.0,3.0,b,27.0,1.0,4.72585056748869,3.33124983260532,None,357.0496297999998,None,360.4051958,None,360.4051958,None,360.41625914000036,None,None,360.4051958,None,['z'],[0.5026421000002301],362.3831924999995,None,z,2.50264210000023,0,0,0.4444444444444444,367.1056000999997,None,None,367.1056000999997,None,,,,,,,,,,,,,,,,,,,,,,,,CBC_1035,003,4,3,2,12,0.95,2024-07-26_16h27.09.209,MSI_AV_v3,2022.1.1,60.079870179527845,
9,0,9,0,,,,,,,,,,3,2.0,3.0,z,63.0,1.0,2.6391747348430608,0.80788063606262,None,368.91627510000035,None,369.7393642999996,None,369.7393642999996,None,369.7492195399995,None,None,369.7393642999996,None,['b'],[1.2931104999988747],371.71640970000044,None,b,3.2931104999988747,0,0,0.4,374.3442636999989,None,None,374.3442636999989,None,,,,,,,,,,,,,,,,,,,,,,,,CBC_1035,003,4,3,2,12,0.95,2024-07-26_16h27.09.209,MSI_AV_v3,2022.1.1,60.079870179527845,
10,0,10,0,,,,,,,,,,0,0.0,1.0,z,63.0,1.0,3.35133458220192,2.15533949826702,None,376.14868299999944,None,378.3240024000006,None,378.3240024000006,None,378.3328871399994,None,None,378.3240024000006,None,['b'],[0.4102266000008967],380.29997919999914,None,b,2.4102266000008967,0,0,0.36363636363636365,383.6352336,None,None,383.6352336,None,,,,,,,,,,,,,,,,,,,,,,,,CBC_1035,003,4,3,2,12,0.95,2024-07-26_16h27.09.209,MSI_AV_v3,2022.1.1,60.079870179527845,
11,0,11,0,,,,,,,,,,1,2.0,0.0,b,27.0,1.0,2.91303524001082,2.09887870490381,None,385.44964400000026,None,387.5685761000004,None,387.5685761000004,None,387.56599613000054,None,None,387.5685761000004,None,['z'],[0.4077606000009837],389.5495272999997,None,z,2.4077606000009837,0,0,0.3333333333333333,392.4574665,None,None,392.4574665,None,,,,,,,,,,,,,,,,,,,,,,,,CBC_1035,003,4,3,2,12,0.95,2024-07-26_16h27.09.209,MSI_AV_v3,2022.1.1,60.079870179527845,
12,0,12,0,,,,,,,,,,3,2.0,3.0,z,63.0,0.0,4.82531807167306,1.53243550275999,None,394.2663952999992,None,395.8219026000006,None,395.8219026000006,None,395.8325680399998,None,None,395.8219026000006,None,['b'],[2.932394100002057],397.7997667999989,None,b,4.932394100002057,0,1,0.3076923076923077,402.6232130999997,None,None,402.6232130999997,None,,,,,,,,,,,,,,,,,,,,,,,,CBC_1035,003,4,3,2,12,0.95,2024-07-26_16h27.09.209,MSI_AV_v3,2022.1.1,60.079870179527845,
13,0,13,0,,,,,,,,,,2,0.0,1.0,b,63.0,1.0,2.342239579230602,1.95130344756745,None,404.4317940000001,None,406.40248210000027,None,406.40248210000027,None,406.39982582999966,None,None,406.40248210000027,None,['b'],[0.08511710000129824],408.3833066999996,None,b,2.0851171000012982,1,1,0.35714285714285715,410.7170864999989,None,None,410.7170864999989,None,,,,,,,,,,,,,,,,,,,,,,,,CBC_1035,003,4,3,2,12,0.95,2024-07-26_16h27.09.209,MSI_AV_v3,2022.1.1,60.079870179527845,
14,0,14,0,,,,,,,,,,1,3.0,2.0,z,63.0,1.0,4.52047235037039,2.6299100644723,None,412.5164845999989,None,415.1732281000004,None,415.1732281000004,None,415.1828545399989,None,['z'],415.1732281000004,None,None,,417.1533376999996,None,z,1.7844805000004271,1,1,0.4,421.6722231999993,None,None,421.6722231999993,None,[1.7844805000004271],,,,,,,,,,,,,,,,,,,,,,,CBC_1035,003,4,3,2,12,0.95,2024-07-26_16h27.09.209,MSI_AV_v3,2022.1.1,60.079870179527845,
15,0,15,0,,,,,,,,,,2,2.0,0.0,z,27.0,1.0,4.46924002178158,3.06992456303453,None,423.48310349999883,None,426.5686231999989,None,426.5686231999989,None,426.5662087300005,None,None,426.5686231999989,None,['b'],[0.07709650000106194],428.5500078999994,None,b,2.077096500001062,0,0,0.375,433.00065749999885,None,None,433.00065749999885,None,,,,,,,,,,,,,,,,,,,,,,,,CBC_1035,003,4,3,2,12,0.95,2024-07-26_16h27.09.209,MSI_AV_v3,2022.1.1,60.079870179527845,
16,0,16,0,,,,,,,,,,3,3.0,2.0,b,63.0,1.0,2.92731383428727,1.60731937853708,None,434.7999703000005,None,436.4217929999995,None,436.4217929999995,None,436.41660652999946,None,['z'],436.4217929999995,None,None,,438.4181829999998,None,z,1.798893400000452,0,0,0.35294117647058826,441.3519180000003,None,None,441.3519180000003,None,[1.798893400000452],,,,,,,,,,,,,,,,,,,,,,,CBC_1035,003,4,3,2,12,0.95,2024-07-26_16h27.09.209,MSI_AV_v3,2022.1.1,60.079870179527845,
17,0,17,0,,,,,,,,,,3,2.0,3.0,z,63.0,1.0,3.68371079902891,2.40378712856304,['b'],443.1669275000004,None,445.58781869999984,None,445.58781869999984,None,445.5995459400005,None,['b'],445.58781869999984,None,None,,447.5702206999995,None,b,1.6689624999999069,0,0,0.3333333333333333,451.25569820000055,None,None,451.25569820000055,None,[1.6689624999999069],[1.5090670000008686],,,,,,,,,,,,,,,,,,,,,,CBC_1035,003,4,3,2,12,0.95,2024-07-26_16h27.09.209,MSI_AV_v3,2022.1.1,60.079870179527845,
18,0,18,0,,,,,,,,,,0,1.0,3.0,b,27.0,1.0,2.592312596923728,1.53122835510861,None,453.0666368000002,None,454.6217125000003,None,454.6217125000003,None,454.63291883999995,None,None,454.6217125000003,None,['z'],[0.6289763000004314],456.60023770000043,None,z,2.6289763000004314,0,0,0.3157894736842105,459.1852034000003,None,None,459.1852034000003,None,,,,,,,,,,,,,,,,,,,,,,,,CBC_1035,003,4,3,2,12,0.95,2024-07-26_16h27.09.209,MSI_AV_v3,2022.1.1,60.079870179527845,
19,0,19,0,,,,,,,,,,3,3.0,0.0,b,9.0,1.0,2.792365600763554,0.77703640172831,None,461.00064100000054,None,461.7891251000001,None,461.7891251000001,None,461.79969833999934,None,['b'],461.7891251000001,None,None,,463.78253249999943,None,b,1.5328783000004478,1,1,0.35,466.5743929,None,None,466.5743929,None,[1.5328783000004478],,,,,,,,,,,,,,,,,,,,,,,CBC_1035,003,4,3,2,12,0.95,2024-07-26_16h27.09.209,MSI_AV_v3,2022.1.1,60.079870179527845,
20,0,20,0,,,,,,,,,,0,0.0,1.0,z,63.0,1.0,3.02234236141277,3.4543169006169,['z'],468.38378639999974,None,471.8525398999991,None,471.8525398999991,None,471.84979962999915,None,None,471.8525398999991,None,['z'],[1.7619148000012501],473.8339063000003,None,z,3.76191480000125,1,1,0.38095238095238093,476.85546429999886,None,None,476.85546429999886,None,,[3.399636599999212],,,,,,,,,,,,,,,,,,,,,,CBC_1035,003,4,3,2,12,0.95,2024-07-26_16h27.09.209,MSI_AV_v3,2022.1.1,60.079870179527845,
21,0,21,0,,,,,,,,,,2,0.0,1.0,b,63.0,1.0,2.433630701072358,1.90743690794447,None,478.6667655000001,None,480.5900146999993,None,480.5900146999993,None,480.5997807400003,None,None,480.5900146999993,None,['b'],[0.17428350000045612],482.56679540000005,None,b,2.174283500000456,1,1,0.4090909090909091,484.9883056999988,None,None,484.9883056999988,None,,,,,,,,,,,,,,,,,,,,,,,,CBC_1035,003,4,3,2,12,0.95,2024-07-26_16h27.09.209,MSI_AV_v3,2022.1.1,60.079870179527845,
22,0,22,0,,,,,,,,,,1,3.0,2.0,z,63.0,1.0,3.76873691643126,0.761758675042088,None,486.8002299,None,487.58583309999995,None,487.58583309999995,None,487.5831577299994,None,None,487.58583309999995,None,['z'],[0.4011473999998998],489.5667111999992,None,z,2.4011473999999,1,1,0.43478260869565216,493.31673369999953,None,None,493.31673369999953,None,,,,,,,,,,,,,,,,,,,,,,,,CBC_1035,003,4,3,2,12,0.95,2024-07-26_16h27.09.209,MSI_AV_v3,2022.1.1,60.079870179527845,
23,0,23,0,,,,,,,,,,2,2.0,0.0,z,27.0,1.0,3.7500315165247198,1.1243895841892,None,495.11701019999964,None,496.23958850000054,None,496.23958850000054,None,496.2488973300004,None,None,496.23958850000054,None,['b'],[0.6255263000002742],498.2174826999999,None,b,2.625526300000274,0,0,0.4166666666666667,501.9598358000003,None,None,501.9598358000003,None,,,,,,,,,,,,,,,,,,,,,,,,CBC_1035,003,4,3,2,12,0.95,2024-07-26_16h27.09.209,MSI_AV_v3,2022.1.1,60.079870179527845,
24,0,24,0,,,,,,,,,,0,0.0,1.0,z,63.0,1.0,2.7134565917469198,0.917519910446003,None,503.7668130999991,None,504.70569179999984,None,504.70569179999984,None,504.7166239399998,None,None,504.70569179999984,None,['z'],[1.0786117000006925],506.6834665000006,None,z,3.0786117000006925,1,1,0.44,509.3855602000003,None,None,509.3855602000003,None,,,,,,,,,,,,,,,,,,,,,,,,CBC_1035,003,4,3,2,12,0.95,2024-07-26_16h27.09.209,MSI_AV_v3,2022.1.1,60.079870179527845,
25,0,25,0,,,,,,,,,,3,3.0,2.0,b,63.0,1.0,3.31929419319838,3.1963008326951,None,511.1995695000005,None,514.3932593999998,None,514.3932593999998,None,514.4001514299997,None,None,514.3932593999998,None,['b'],[1.1342989000004309],516.3841168999988,None,b,3.134298900000431,1,1,0.46153846153846156,519.7012735999997,None,None,519.7012735999997,None,,,,,,,,,,,,,,,,,,,,,,,,CBC_1035,003,4,3,2,12,0.95,2024-07-26_16h27.09.209,MSI_AV_v3,2022.1.1,60.079870179527845,
26,0,26,0,,,,,,,,,,0,2.0,1.0,z,9.0,1.0,2.693348633324513,1.94858485820231,['z'],521.5005330999993,None,523.4721977999998,None,523.4721977999998,None,523.4672974299991,None,['z'],523.4721977999998,None,None,,525.4613109999991,None,z,1.2463229000004503,1,1,0.48148148148148145,528.158797099999,None,None,528.158797099999,None,[1.2463229000004503],[0.41031240000120306],,,,,,,,,,,,,,,,,,,,,,CBC_1035,003,4,3,2,12,0.95,2024-07-26_16h27.09.209,MSI_AV_v3,2022.1.1,60.079870179527845,
27,0,27,0,,,,,,,,,,3,3.0,1.0,b,27.0,1.0,4.77034425507967,1.38289892513751,None,529.9673463999989,None,531.371882899999,None,531.371882899999,None,531.3672607299994,None,None,531.371882899999,None,['b'],[1.6232840000011493],533.3509400000003,None,b,3.6232840000011493,1,1,0.5,538.1054163999997,None,None,538.1054163999997,None,,,,,,,,,,,,,,,,,,,,,,,,CBC_1035,003,4,3,2,12,0.95,2024-07-26_16h27.09.209,MSI_AV_v3,2022.1.1,60.079870179527845,
28,0,28,0,,,,,,,,,,2,0.0,1.0,b,63.0,1.0,2.517541937862754,1.21250262048173,None,539.9176213999999,None,541.1530340999998,None,541.1530340999998,None,541.1505385300005,None,None,541.1530340999998,None,['z'],[0.17735279999942577],543.1341704999995,None,z,2.1773527999994258,0,0,0.4827586206896552,545.6375494999993,None,None,545.6375494999993,None,,,,,,,,,,,,,,,,,,,,,,,,CBC_1035,003,4,3,2,12,0.95,2024-07-26_16h27.09.209,MSI_AV_v3,2022.1.1,60.079870179527845,
29,0,29,0,,,,,,,,,,2,1.0,0.0,z,63.0,1.0,2.2759877950103027,1.25817747924478,None,547.4505608999989,None,548.7245583999993,None,548.7245583999993,None,548.7336650399997,None,None,548.7245583999993,None,['b'],[0.4744344999999157],550.7007635999998,None,b,2.4744344999999157,0,0,0.4666666666666667,552.9710491000005,None,None,552.9710491000005,None,,,,,,,,,,,,,,,,,,,,,,,,CBC_1035,003,4,3,2,12,0.95,2024-07-26_16h27.09.209,MSI_AV_v3,2022.1.1,60.079870179527845,
30,0,30,0,,,,,,,,,,1,2.0,0.0,b,27.0,1.0,4.40017271499661,0.952147612306987,None,554.7841546999989,None,555.7562736,None,555.7562736,None,555.7671340399996,None,['z'],555.7562736,None,None,,557.7528058999997,None,z,1.892183500000101,0,0,0.45161290322580644,562.1566304999997,None,None,562.1566304999997,None,[1.892183500000101],,,,,,,,,,,,,,,,,,,,,,,CBC_1035,003,4,3,2,12,0.95,2024-07-26_16h27.09.209,MSI_AV_v3,2022.1.1,60.079870179527845,
31,0,31,0,,,,,,,,,,2,0.0,1.0,b,63.0,1.0,2.294664843639333,0.979776149765883,None,563.9676727999995,None,564.9741744000003,None,564.9741744000003,None,564.9838242400004,None,None,564.9741744000003,None,['b'],[1.297814900000958],566.9510955000005,None,b,3.297814900000958,1,1,0.46875,569.2338679999993,None,None,569.2338679999993,None,,,,,,,,,,,,,,,,,,,,,,,,CBC_1035,003,4,3,2,12,0.95,2024-07-26_16h27.09.209,MSI_AV_v3,2022.1.1,60.079870179527845,
32,0,32,0,,,,,,,,,,0,0.0,1.0,z,63.0,1.0,3.26539063535182,1.25920145784721,None,571.0345132999992,None,572.308705899999,None,572.308705899999,None,572.3173903399987,None,None,572.308705899999,None,['z'],[0.3767459999999119],574.2843713999991,None,z,2.376745999999912,1,1,0.48484848484848486,577.5394596999995,None,None,577.5394596999995,None,,,,,,,,,,,,,,,,,,,,,,,,CBC_1035,003,4,3,2,12,0.95,2024-07-26_16h27.09.209,MSI_AV_v3,2022.1.1,60.079870179527845,
33,0,33,0,,,,,,,,,,3,2.0,3.0,z,63.0,1.0,3.3728785608729996,1.43470440954152,None,579.3511421000003,None,580.8043538999991,None,580.8043538999991,None,580.8003152300006,None,None,580.8043538999991,None,None,,582.7838563000005,None,[],[],0,3,0.47058823529411764,586.1364094,None,['z'],586.1364094,None,,,[0.11951439999938884],,,,,,,,,,,,,,,,,,,,,CBC_1035,003,4,3,2,12,0.95,2024-07-26_16h27.09.209,MSI_AV_v3,2022.1.1,60.079870179527845,
34,0,34,0,,,,,,,,,,0,1.0,3.0,b,27.0,1.0,2.526044641065533,1.27538462653558,['z'],587.9508222000004,None,589.2365331000001,None,589.2365331000001,None,589.2338824300003,None,None,589.2365331000001,None,['z'],[0.6993371000007755],591.2177651000002,None,z,2.6993371000007755,0,0,0.45714285714285713,593.7413051999993,None,None,593.7413051999993,None,,[1.1604210000004969],,,,,,,,,,,,,,,,,,,,,,CBC_1035,003,4,3,2,12,0.95,2024-07-26_16h27.09.209,MSI_AV_v3,2022.1.1,60.079870179527845,
35,0,35,0,,,,,,,,,,1,2.0,3.0,b,63.0,1.0,3.2062024266105302,1.64421109900286,None,595.550797599999,None,597.2050820999993,None,597.2050820999993,None,597.2010915299996,None,None,597.2050820999993,None,['b'],[0.7567286000012245],599.1844235999997,None,b,2.7567286000012245,1,1,0.4722222222222222,602.3816668999989,None,None,602.3816668999989,None,,,,,,,,,,,,,,,,,,,,,,,,CBC_1035,003,4,3,2,12,0.95,2024-07-26_16h27.09.209,MSI_AV_v3,2022.1.1,60.079870179527845,
36,0,36,0,,,,,,,,,,1,0.0,2.0,z,27.0,1.0,4.190022164497369,1.96568735158996,None,604.1845364000001,None,606.1689129999995,None,606.1689129999995,None,606.1673102299991,None,None,606.1689129999995,None,['z'],[1.0987691999998788],608.1511202999991,None,z,3.0987691999998788,1,1,0.4864864864864865,612.3244460999995,None,None,612.3244460999995,None,,,,,,,,,,,,,,,,,,,,,,,,CBC_1035,003,4,3,2,12,0.95,2024-07-26_16h27.09.209,MSI_AV_v3,2022.1.1,60.079870179527845,
37,0,37,0,,,,,,,,,,0,0.0,1.0,z,63.0,1.0,4.77723667052879,1.52290599571961,None,614.1344162000005,None,615.6745360000004,None,615.6745360000004,None,615.6838498399997,None,None,615.6745360000004,None,['z'],[2.5458502000001317],617.6506905999995,None,z,4.545850200000132,1,1,0.5,622.4203994,None,None,622.4203994,None,,,,,,,,,,,,,,,,,,,,,,,,CBC_1035,003,4,3,2,12,0.95,2024-07-26_16h27.09.209,MSI_AV_v3,2022.1.1,60.079870179527845,
38,0,38,0,,,,,,,,,,2,0.0,3.0,b,9.0,1.0,2.496959177995529,3.1424449555106,None,624.2342895999991,None,627.391359199999,None,627.391359199999,None,627.4007737399992,None,None,627.391359199999,None,['b'],[0.35098670000115817],629.3677857000002,None,b,2.350986700001158,1,1,0.5128205128205128,631.8556116,None,None,631.8556116,None,,,,,,,,,,,,,,,,,,,,,,,,CBC_1035,003,4,3,2,12,0.95,2024-07-26_16h27.09.209,MSI_AV_v3,2022.1.1,60.079870179527845,
39,0,39,0,,,,,,,,,,1,2.0,3.0,b,63.0,0.0,4.12485271162806,3.40155979865722,None,633.6677043,None,637.0902540999996,None,637.0902540999996,None,637.10081054,None,None,637.0902540999996,None,['z'],[0.788712100000339],639.0674343999999,None,z,2.788712100000339,0,1,0.5,643.1912993000005,None,None,643.1912993000005,None,,,,,,,,,,,,,,,,,,,,,,,,CBC_1035,003,4,3,2,12,0.95,2024-07-26_16h27.09.209,MSI_AV_v3,2022.1.1,60.079870179527845,
40,0,40,0,,,,,,,,,,2,0.0,1.0,b,63.0,1.0,4.53337421950507,1.12425433982333,None,645.0013309999995,None,646.1381423000003,None,646.1381423000003,None,646.1342059300003,None,None,646.1381423000003,None,['b'],[0.16057910000017728],648.1179852999994,None,b,2.1605791000001773,1,1,0.5121951219512195,652.6491163999999,None,None,652.6491163999999,None,,,,,,,,,,,,,,,,,,,,,,,,CBC_1035,003,4,3,2,12,0.95,2024-07-26_16h27.09.209,MSI_AV_v3,2022.1.1,60.079870179527845,
41,0,41,0,,,,,,,,,,3,2.0,3.0,z,63.0,1.0,4.61004669244928,1.34668860557497,None,654.4509099999996,None,655.8205051000004,None,655.8205051000004,None,655.81758703,None,None,655.8205051000004,None,['z'],[2.0183458999999857],657.800986799999,None,z,4.018345899999986,1,1,0.5238095238095238,662.4007815999994,None,None,662.4007815999994,None,,,,,,,,,,,,,,,,,,,,,,,,CBC_1035,003,4,3,2,12,0.95,2024-07-26_16h27.09.209,MSI_AV_v3,2022.1.1,60.079870179527845,
42,0,42,0,,,,,,,,,,1,3.0,2.0,z,63.0,1.0,4.11514536789087,2.49839527409216,None,664.2014221999998,None,666.7201863999999,None,666.7201863999999,None,666.7173991300004,None,None,666.7201863999999,None,['b'],[0.42753559999982826],668.701186799999,None,b,2.4275355999998283,0,0,0.5116279069767442,672.7996490999994,None,None,672.7996490999994,None,,,,,,,,,,,,,,,,,,,,,,,,CBC_1035,003,4,3,2,12,0.95,2024-07-26_16h27.09.209,MSI_AV_v3,2022.1.1,60.079870179527845,
43,0,43,0,,,,,,,,,,3,3.0,1.0,b,27.0,1.0,3.71372710086949,1.36309078069689,None,674.6013705000005,None,675.9880945999994,None,675.9880945999994,None,675.9842849300002,None,None,675.9880945999994,None,['z'],[0.9464277999995829],677.9681522999999,None,z,2.946427799999583,0,0,0.5,681.6628041999993,None,None,681.6628041999993,None,,,,,,,,,,,,,,,,,,,,,,,,CBC_1035,003,4,3,2,12,0.95,2024-07-26_16h27.09.209,MSI_AV_v3,2022.1.1,60.079870179527845,
,,,,,,,,,,,,,,,,,,,,,,,,,,,,,,,,,,,,,,,,,,,,,,,,,,None,683.4679376999993,None,,,,,,,,,,,,,,,,,,CBC_1035,003,4,3,2,12,0.95,2024-07-26_16h27.09.209,MSI_AV_v3,2022.1.1,60.079870179527845,
,,,,,,,,,,,,,,,,,,,,,,,,,,,,,,,,,,,,,,,,,,,,,,,,,,,,,688.4679476000001,None,None,688.4679476000001,None,,,,,,,,,,,,,CBC_1035,003,4,3,2,12,0.95,2024-07-26_16h27.09.209,MSI_AV_v3,2022.1.1,60.079870179527845,
,,,,,,,,,,,,,,,,,,,,,,,,,,,,,,,,,,,,,,,,,,,,,,,,,,,,,,,,,,z,b,easy,"[0, 1, 2, 3]","[2, 0, 1, 3]",0.36363636363636365,0.45454545454545453,0.6363636363636364,0.5454545454545454,24,1,19,,,,,,,,,,,,
