trials_runs.thisRepN,trials_runs.thisTrialN,trials_runs.thisN,trials_runs.thisIndex,standbild_start.started,standbild_start.stopped,trigger.keys,trigger.rt,trigger.started,trigger.stopped,keys_2.keys,keys_2.started,keys_2.stopped,trials_runs.tactile_stim,trials_runs.visual_stim_left,trials_runs.visual_stim_right,trials_runs.correctKey,trials_runs.presentationFrequncy,trials_runs.FBaccuracy,trials_runs.ISI_s,trials_runs.ITI_s,keys_3.keys,keys_3.started,keys_3.stopped,image_stim_left.started,image_stim_right.started,tactile.started,response_4.keys,allKeys.keys,response_5.keys,response_5.rt,response_5.started,response_5.stopped,response_runs.keys,response_runs.rt,trials_runs.correct_answer,trials_runs.feedback_given,trials_runs.running_mean,feedback_6.stopped,feedback_6.started,keys_6.keys,keys_6.started,keys_6.stopped,response_4.rt,allKeys.rt,keys_6.rt,keys_3.rt,keys_7.keys,keys_7.started,keys_7.stopped,standbild_end.started,standbild_end.stopped,Stop_exp.keys,Stop_exp.started,Stop_exp.stopped,trials_runs.rightKey,trials_runs.leftKey,ts_difficulty,visualPair,tactilePair,trials_runs.mean_acc_1stFourth,trials_runs.mean_acc_2ndFourth,trials_runs.mean_acc_3rdFourth,trials_runs.mean_acc_4thFourth,participant,session,visual set [1-6],tactile set [1-3],trial structure [0-3 / 4-7],pairing [0-23],prob Feedback,date,expName,psychopyVersion,frameRate,
,,,,24.315923799998927,None,t,54.99331209999946,24.315923799998927,None,,,,,,,,,,,,,,,,,,,,,,,,,,,,,,,,,,,,,,,,,,,,,,,,,,,,,,,CBC_1003,3,5,3,3,2,0.95,2023-06-14_16h21.52.910,MSI_TV_v3,2022.1.1,59.9311630656484,
,,,,,,,,,,None,79.32895169999938,None,,,,,,,,,,,,,,,,,,,,,,,,,,,,,,,,,,,,,,,,,,,,,,,,,,,,CBC_1003,3,5,3,3,2,0.95,2023-06-14_16h21.52.910,MSI_TV_v3,2022.1.1,59.9311630656484,
0,0,0,0,,,,,,,,,,2,1.0,0.0,b,63.0,1.0,1.3262934849999999,0.971483559,None,79.54366329999903,None,80.49326772999902,80.49326772999902,80.50993432999948,None,[],['b'],[0.06758029999946302],82.4995375999988,None,b,2.067580299999463,1,1,1.0,None,83.8464972999991,None,83.8464972999991,None,,,,,,,,,,,,,,,,,,,,,,CBC_1003,3,5,3,3,2,0.95,2023-06-14_16h21.52.910,MSI_TV_v3,2022.1.1,59.9311630656484,
1,0,1,0,,,,,,,,,,0,0.0,1.0,b,63.0,1.0,1.887650177,1.086048241,None,85.84349589999874,None,86.91011312999998,86.91011312999998,86.92669662999887,b,['b'],None,,88.94930989999921,None,b,1.9645881000014924,1,1,1.0,None,90.83777670000018,None,90.83777670000018,None,1.9645881000014924,[1.9645881000014924],,,,,,,,,,,,,,,,,,,,CBC_1003,3,5,3,3,2,0.95,2023-06-14_16h21.52.910,MSI_TV_v3,2022.1.1,59.9311630656484,
2,0,2,0,,,,,,,,,,1,1.0,2.0,z,9.0,1.0,2.372527466,2.757001452,None,92.84335099999953,None,95.57701542999948,95.57701542999948,95.59319482999908,None,[],['z'],[0.4497797999993054],97.57803539999986,None,z,2.4497797999993054,1,1,1.0,None,99.96560580000005,None,99.96560580000005,None,,,,,,,,,,,,,,,,,,,,,,CBC_1003,3,5,3,3,2,0.95,2023-06-14_16h21.52.910,MSI_TV_v3,2022.1.1,59.9311630656484,
3,0,3,0,,,,,,,,,,0,1.0,0.0,z,63.0,1.0,2.208904638,1.411911144,None,101.97652019999987,None,103.35997742999879,103.35997742999879,103.37668432999871,None,[],['z'],[1.1201010999993741],105.36266169999908,None,z,3.120101099999374,1,1,1.0,None,107.57079449999947,None,107.57079449999947,None,,,,,,,,,,,,,,,,,,,,,,CBC_1003,3,5,3,3,2,0.95,2023-06-14_16h21.52.910,MSI_TV_v3,2022.1.1,59.9311630656484,
4,0,4,0,,,,,,,,,,3,3.0,1.0,b,27.0,1.0,1.899747326,1.53162701,None,109.57669639999949,None,111.09332622999918,111.09332622999918,111.10998052999875,None,[],['b'],[0.9000390000001062],113.09578639999927,None,b,2.900039000000106,1,1,1.0,None,114.99103509999986,None,114.99103509999986,None,,,,,,,,,,,,,,,,,,,,,,CBC_1003,3,5,3,3,2,0.95,2023-06-14_16h21.52.910,MSI_TV_v3,2022.1.1,59.9311630656484,
5,0,5,0,,,,,,,,,,2,0.0,1.0,z,63.0,1.0,3.501824497,2.7801224,None,116.99310429999969,None,119.76055592999964,119.76055592999964,119.77681643000014,z,['z'],None,,121.79980339999929,None,z,1.7685245999982726,1,1,1.0,None,125.30455549999897,None,125.30455549999897,None,1.7685245999982726,[1.7685245999982726],,,,,,,,,,,,,,,,,,,,CBC_1003,3,5,3,3,2,0.95,2023-06-14_16h21.52.910,MSI_TV_v3,2022.1.1,59.9311630656484,
6,0,6,0,,,,,,,,,,1,2.0,3.0,b,63.0,1.0,1.610581685,0.977134615,None,127.30996359999881,None,128.2600934299995,128.2600934299995,128.27658652999943,None,[],['z'],[0.23604449999947974],130.26201279999987,None,z,2.2360444999994797,0,0,0.8571428571428571,None,131.87300279999909,None,131.87300279999909,None,,,,,,,,,,,,,,,,,,,,,,CBC_1003,3,5,3,3,2,0.95,2023-06-14_16h21.52.910,MSI_TV_v3,2022.1.1,59.9311630656484,
7,0,7,0,,,,,,,,,,0,2.0,0.0,z,27.0,1.0,4.309752164,1.24796184,None,133.8767595999998,None,135.11006383000003,135.11006383000003,135.12653612999983,z,['z'],None,,137.1507129999991,None,z,1.4716117000007216,1,1,0.875,None,141.47112389999893,None,141.47112389999893,None,1.4716117000007216,[1.4716117000007216],,,,,,,,,,,,,,,,,,,,CBC_1003,3,5,3,3,2,0.95,2023-06-14_16h21.52.910,MSI_TV_v3,2022.1.1,59.9311630656484,
8,0,8,0,,,,,,,,,,3,3.0,2.0,b,63.0,1.0,4.196249082,2.128027194,None,143.47661589999916,None,145.57702842999842,145.57702842999842,145.59351243,None,[],['b'],[1.1430443000008381],147.578134899999,None,b,3.143044300000838,1,1,0.8888888888888888,None,151.79185209999923,None,151.79185209999923,None,,,,,,,,,,,,,,,,,,,,,,CBC_1003,3,5,3,3,2,0.95,2023-06-14_16h21.52.910,MSI_TV_v3,2022.1.1,59.9311630656484,
9,0,9,0,,,,,,,,,,2,3.0,1.0,z,27.0,1.0,1.758742576,2.349749758,None,153.7932652999989,None,156.12667342999939,156.12667342999939,156.14336502999922,z,['z'],None,,158.16633029999866,None,z,1.621987900000022,1,1,0.9,None,159.9211163,['z'],159.9211163,None,1.621987900000022,[1.621987900000022],[1.3622015000000829],,,,,,,,,,,,,,,,,,,CBC_1003,3,5,3,3,2,0.95,2023-06-14_16h21.52.910,MSI_TV_v3,2022.1.1,59.9311630656484,
10,0,10,0,,,,,,,,,,1,3.0,2.0,z,63.0,1.0,2.518459073,2.210349838,None,161.9267390999994,None,164.1099987299991,164.1099987299991,164.12659262999895,None,[],['b'],[0.5087808000007499],166.11173289999897,None,b,2.50878080000075,0,0,0.8181818181818182,None,168.6464845999999,['z'],168.6464845999999,None,,,[0.0011123999993287725],,,,,,,,,,,,,,,,,,,CBC_1003,3,5,3,3,2,0.95,2023-06-14_16h21.52.910,MSI_TV_v3,2022.1.1,59.9311630656484,
11,0,11,0,,,,,,,,,,2,1.0,3.0,b,27.0,1.0,1.109698721,2.234398566,None,170.65996689999884,None,172.87677392999885,172.87677392999885,172.8934642299997,b,['b'],['b'],[0.9361489999992045],174.91704819999904,None,b,1.5933425000002899,1,1,0.8333333333333334,None,176.03814160000002,['z'],176.03814160000002,None,1.5933425000002899,[1.5933425000002899],[0.7881424999995943],,,,,,,,,,,,,,,,,,,CBC_1003,3,5,3,3,2,0.95,2023-06-14_16h21.52.910,MSI_TV_v3,2022.1.1,59.9311630656484,
12,0,12,0,,,,,,,,,,1,3.0,2.0,z,63.0,1.0,3.478547126,2.232990834,None,178.0434721999991,None,180.26023882999888,180.26023882999888,180.27673212999852,z,['z'],None,,182.3004218999995,None,z,1.9205355000012787,1,1,0.8461538461538461,None,185.78712789999918,None,185.78712789999918,None,1.9205355000012787,[1.9205355000012787],,,,,,,,,,,,,,,,,,,,CBC_1003,3,5,3,3,2,0.95,2023-06-14_16h21.52.910,MSI_TV_v3,2022.1.1,59.9311630656484,
13,0,13,0,,,,,,,,,,3,3.0,2.0,b,63.0,1.0,4.21669271,1.08099246,None,187.79346449999866,None,188.86009542999872,188.86009542999872,188.8769239299987,None,[],['z'],[1.4611447999996017],190.86239559999922,None,z,3.4611447999996017,0,0,0.7857142857142857,None,195.0713552999987,None,195.0713552999987,None,,,,,,,,,,,,,,,,,,,,,,CBC_1003,3,5,3,3,2,0.95,2023-06-14_16h21.52.910,MSI_TV_v3,2022.1.1,59.9311630656484,
14,0,14,0,,,,,,,,,,0,0.0,3.0,b,9.0,1.0,3.956662465,1.313600181,None,197.07679879999887,None,198.3767306300002,198.3767306300002,198.3940362299987,None,[],None,,200.37840829999914,None,None,[],0,3,0.7333333333333333,None,204.3529409999992,"['z', 'b']",204.3529409999992,None,,,"[0.9129751000000397, 0.9958145999989938]",,,,,,,,,,,,,,,,,,,CBC_1003,3,5,3,3,2,0.95,2023-06-14_16h21.52.910,MSI_TV_v3,2022.1.1,59.9311630656484,
15,0,15,0,,,,,,,,,,2,0.0,1.0,z,63.0,0.0,1.90573091,1.554037824,None,206.3606211999995,None,207.8934631299986,207.8934631299986,207.91015132999982,z,['z'],None,,209.93709019999915,None,z,1.5753757000002224,1,0,0.75,None,211.85236619999887,None,211.85236619999887,None,1.5753757000002224,[1.5753757000002224],,,,,,,,,,,,,,,,,,,,CBC_1003,3,5,3,3,2,0.95,2023-06-14_16h21.52.910,MSI_TV_v3,2022.1.1,59.9311630656484,
16,0,16,0,,,,,,,,,,3,2.0,3.0,z,63.0,1.0,2.088920167,1.75396268,None,213.86028369999985,None,215.59373053,215.59373053,215.61010102999953,None,[],None,,217.59654339999906,None,None,[],0,3,0.7058823529411765,None,219.6841069000002,['b'],219.6841069000002,None,,,[1.1440165000003617],,,,,,,,,,,,,,,,,,,CBC_1003,3,5,3,3,2,0.95,2023-06-14_16h21.52.910,MSI_TV_v3,2022.1.1,59.9311630656484,
17,0,17,0,,,,,,,,,,1,0.0,2.0,z,27.0,1.0,3.869831913,1.378098418,None,221.69355910000013,None,223.04340723000004,223.04340723000004,223.06029763000024,b,"['b', 'b']",None,,225.08480659999987,None,b,0.8396976999993058,0,0,0.6666666666666666,None,228.95434430000023,None,228.95434430000023,None,0.8396976999993058,"[0.8396976999993058, 1.8961847999999009]",,,,,,,,,,,,,,,,,,,,CBC_1003,3,5,3,3,2,0.95,2023-06-14_16h21.52.910,MSI_TV_v3,2022.1.1,59.9311630656484,
18,0,18,0,,,,,,,,,,0,0.0,1.0,b,63.0,1.0,2.242058058,1.448890429,None,230.96010989999922,None,232.3942059299994,232.3942059299994,232.41010882999998,None,[],['b'],[0.7856824999998935],234.40795809999872,None,b,2.7856824999998935,1,1,0.6842105263157895,None,236.6496213999999,None,236.6496213999999,None,,,,,,,,,,,,,,,,,,,,,,CBC_1003,3,5,3,3,2,0.95,2023-06-14_16h21.52.910,MSI_TV_v3,2022.1.1,59.9311630656484,
19,0,19,0,,,,,,,,,,2,1.0,0.0,b,63.0,1.0,2.278602942,2.684881281,None,238.66022779999912,None,241.32701262999998,241.32701262999998,241.34361912999938,None,[],['b'],[0.005013600000893348],243.32897749999938,None,b,2.0050136000008933,1,1,0.7,None,245.61004390000016,['b'],245.61004390000016,None,,,[1.7709946999984822],,,,,,,,,,,,,,,,,,,CBC_1003,3,5,3,3,2,0.95,2023-06-14_16h21.52.910,MSI_TV_v3,2022.1.1,59.9311630656484,
20,0,20,0,,,,,,,,,,3,1.0,3.0,z,27.0,1.0,2.078483356,1.483424551,['z'],247.61033869999847,None,249.07692542999993,249.07692542999993,249.09355163000018,z,['z'],['b'],[0.898427799998899],251.11829169999874,None,z,1.3614644000008411,1,1,0.7142857142857143,None,253.20478579999872,None,253.20478579999872,None,1.3614644000008411,[1.3614644000008411],,[0.25850489999902493],,,,,,,,,,,,,,,,,,CBC_1003,3,5,3,3,2,0.95,2023-06-14_16h21.52.910,MSI_TV_v3,2022.1.1,59.9311630656484,
21,0,21,0,,,,,,,,,,1,3.0,2.0,z,63.0,1.0,3.278108735,1.910349838,None,255.2100851999985,None,257.09362142999873,257.09362142999873,257.1101405300002,None,[],['z'],[0.24618920000102662],259.093936199999,None,z,2.2461892000010266,1,1,0.7272727272727273,None,262.3718276999989,None,262.3718276999989,None,,,,,,,,,,,,,,,,,,,,,,CBC_1003,3,5,3,3,2,0.95,2023-06-14_16h21.52.910,MSI_TV_v3,2022.1.1,59.9311630656484,
22,0,22,0,,,,,,,,,,0,0.0,1.0,b,63.0,1.0,1.219965572,2.108332021,None,264.37740399999893,None,266.46035172999893,266.46035172999893,266.4768906300002,None,[],['b'],[0.8375983000005363],268.4623324999993,None,b,2.8375983000005363,1,1,0.7391304347826086,None,269.6899741999987,None,269.6899741999987,None,,,,,,,,,,,,,,,,,,,,,,CBC_1003,3,5,3,3,2,0.95,2023-06-14_16h21.52.910,MSI_TV_v3,2022.1.1,59.9311630656484,
23,0,23,0,,,,,,,,,,3,2.0,3.0,z,63.0,1.0,2.232488062,2.935368129,None,271.6935689999991,None,274.6106215299993,274.6106215299993,274.62724683,None,[],['b'],[0.8626463000000513],276.6132130999995,None,b,2.8626463000000513,0,0,0.7083333333333334,None,278.83069889999933,None,278.83069889999933,None,,,,,,,,,,,,,,,,,,,,,,CBC_1003,3,5,3,3,2,0.95,2023-06-14_16h21.52.910,MSI_TV_v3,2022.1.1,59.9311630656484,
24,0,24,0,,,,,,,,,,1,2.0,0.0,b,27.0,1.0,2.0845750460000003,3.321420384,None,280.8442892999992,None,284.1434143299999,284.1434143299999,284.1602112299994,z,['z'],None,,286.1843398000001,None,z,1.4306441999997332,0,0,0.68,None,288.2689083999994,None,288.2689083999994,None,1.4306441999997332,[1.4306441999997332],,,,,,,,,,,,,,,,,,,,CBC_1003,3,5,3,3,2,0.95,2023-06-14_16h21.52.910,MSI_TV_v3,2022.1.1,59.9311630656484,
25,0,25,0,,,,,,,,,,0,0.0,1.0,b,63.0,1.0,2.742099981,2.502774076,None,290.27707499999997,None,292.7606563300002,292.7606563300002,292.7770268299997,None,[],['z'],[0.30216199999995297],294.7616323000002,None,z,2.302161999999953,0,0,0.6538461538461539,None,297.51581350000015,None,297.51581350000015,None,,,,,,,,,,,,,,,,,,,,,,CBC_1003,3,5,3,3,2,0.95,2023-06-14_16h21.52.910,MSI_TV_v3,2022.1.1,59.9311630656484,
26,0,26,0,,,,,,,,,,2,1.0,3.0,b,27.0,1.0,1.6718976049999998,3.274187802,None,299.5273376999994,None,302.77726762999976,302.77726762999976,302.79409562999956,None,[],None,,304.7788794999997,None,None,[],0,3,0.6296296296296297,None,306.4506782999997,['b'],306.4506782999997,None,,,[0.26141809999899124],,,,,,,,,,,,,,,,,,,CBC_1003,3,5,3,3,2,0.95,2023-06-14_16h21.52.910,MSI_TV_v3,2022.1.1,59.9311630656484,
27,0,27,0,,,,,,,,,,1,3.0,2.0,z,63.0,1.0,2.818459073,2.297139377,None,308.4603145000001,None,310.7438543300001,310.7438543300001,310.7602322299996,z,['z'],None,,312.7836453,None,z,1.3188288999990618,1,1,0.6428571428571429,None,315.60482279999997,None,315.60482279999997,None,1.3188288999990618,[1.3188288999990618],,,,,,,,,,,,,,,,,,,,CBC_1003,3,5,3,3,2,0.95,2023-06-14_16h21.52.910,MSI_TV_v3,2022.1.1,59.9311630656484,
28,0,28,0,,,,,,,,,,3,3.0,2.0,b,63.0,1.0,3.622505815,3.264468617,None,317.6104102999998,None,320.8603777300001,320.8603777300001,320.8770001299987,None,[],['z'],[3.349423300000126],322.8616044999999,None,z,5.349423300000126,0,0,0.6206896551724138,None,326.49085000000014,None,326.49085000000014,None,,,,,,,,,,,,,,,,,,,,,,CBC_1003,3,5,3,3,2,0.95,2023-06-14_16h21.52.910,MSI_TV_v3,2022.1.1,59.9311630656484,
29,0,29,0,,,,,,,,,,2,0.0,1.0,z,63.0,1.0,3.044827724,2.648704933,None,328.49446589999934,None,331.1271216299998,331.1271216299998,331.1435834299997,None,[],['z'],[0.24939740000081656],333.1300825999988,None,z,2.2493974000008166,1,1,0.6333333333333333,None,336.16628259999925,None,336.16628259999925,None,,,,,,,,,,,,,,,,,,,,,,CBC_1003,3,5,3,3,2,0.95,2023-06-14_16h21.52.910,MSI_TV_v3,2022.1.1,59.9311630656484,
30,0,30,0,,,,,,,,,,0,2.0,0.0,z,27.0,1.0,4.176609572,2.495793893,None,338.17698559999917,None,340.6437492299998,340.6437492299998,340.66031172999885,z,['z'],None,,342.70494619999954,None,z,1.6517787000011595,1,1,0.6451612903225806,None,346.8870654000002,None,346.8870654000002,None,1.6517787000011595,[1.6517787000011595],,,,,,,,,,,,,,,,,,,,CBC_1003,3,5,3,3,2,0.95,2023-06-14_16h21.52.910,MSI_TV_v3,2022.1.1,59.9311630656484,
31,0,31,0,,,,,,,,,,3,3.0,0.0,b,9.0,1.0,2.917714675,1.293060736,None,348.89368549999926,None,350.1608961299995,350.1608961299995,350.17719413,None,[],"['z', 'b']","[0.6508838999998261, 1.457837500000096]",352.161775999999,None,z,2.650883899999826,0,0,0.625,None,355.08679029999985,None,355.08679029999985,None,,,,,,,,,,,,,,,,,,,,,,CBC_1003,3,5,3,3,2,0.95,2023-06-14_16h21.52.910,MSI_TV_v3,2022.1.1,59.9311630656484,
32,0,32,0,,,,,,,,,,1,3.0,2.0,z,63.0,1.0,1.874984683,0.789129603,None,357.0936151999995,None,357.86039803000006,357.86039803000006,357.87704883000026,None,[],['z'],[0.24044700000013108],359.863323399999,None,z,2.240447000000131,1,1,0.6363636363636364,None,361.7325000000001,None,361.7325000000001,None,,,,,,,,,,,,,,,,,,,,,,CBC_1003,3,5,3,3,2,0.95,2023-06-14_16h21.52.910,MSI_TV_v3,2022.1.1,59.9311630656484,
33,0,33,0,,,,,,,,,,2,0.0,1.0,z,63.0,1.0,3.884449499,1.915207301,None,363.7440771999991,None,365.6438810299993,365.6438810299993,365.6605170299996,None,[],['z'],[0.12841079999998328],367.6473389999992,None,z,2.1284107999999833,1,1,0.6470588235294118,None,371.5311167999989,None,371.5311167999989,None,,,,,,,,,,,,,,,,,,,,,,CBC_1003,3,5,3,3,2,0.95,2023-06-14_16h21.52.910,MSI_TV_v3,2022.1.1,59.9311630656484,
34,0,34,0,,,,,,,,,,0,0.0,1.0,b,63.0,0.0,4.334629553,1.84422311,None,373.5438775999992,None,375.36049222999884,375.36049222999884,375.3771603299998,None,[],['b'],[0.5275646999998571],377.36244089999855,None,b,2.527564699999857,1,0,0.6571428571428571,None,381.6971408999998,None,381.6971408999998,None,,,,,,,,,,,,,,,,,,,,,,CBC_1003,3,5,3,3,2,0.95,2023-06-14_16h21.52.910,MSI_TV_v3,2022.1.1,59.9311630656484,
35,0,35,0,,,,,,,,,,3,2.0,3.0,z,63.0,1.0,2.397501916,1.142638656,None,383.71049369999855,None,384.82727122999916,384.82727122999916,384.844100429999,None,[],['z'],[0.1872733000000153],386.8289573000002,None,z,2.1872733000000153,1,1,0.6666666666666666,None,389.23850479999965,None,389.23850479999965,None,,,,,,,,,,,,,,,,,,,,,,CBC_1003,3,5,3,3,2,0.95,2023-06-14_16h21.52.910,MSI_TV_v3,2022.1.1,59.9311630656484,
36,0,36,0,,,,,,,,,,2,1.0,2.0,b,9.0,1.0,2.949122761,3.388090306,None,391.2438239999992,None,394.6105551299994,394.6105551299994,394.6271767299992,None,[],['b'],[0.3516077000003861],396.61248819999855,None,b,2.351607700000386,1,1,0.6756756756756757,None,399.57283259999895,None,399.57283259999895,None,,,,,,,,,,,,,,,,,,,,,,CBC_1003,3,5,3,3,2,0.95,2023-06-14_16h21.52.910,MSI_TV_v3,2022.1.1,59.9311630656484,
37,0,37,0,,,,,,,,,,0,2.0,0.0,z,27.0,1.0,1.556335756,3.276660373,None,401.57722569999896,None,404.8273500299989,404.8273500299989,404.84399093000013,None,[],['b'],[0.12313030000041181],406.83146139999917,None,b,2.123130300000412,0,0,0.6578947368421053,None,408.37631729999885,None,408.37631729999885,None,,,,,,,,,,,,,,,,,,,,,,CBC_1003,3,5,3,3,2,0.95,2023-06-14_16h21.52.910,MSI_TV_v3,2022.1.1,59.9311630656484,
38,0,38,0,,,,,,,,,,1,2.0,3.0,b,63.0,1.0,4.268032915,2.407383959,None,410.37726889999976,None,412.76064392999854,412.76064392999854,412.7772172299998,None,[],"['z', 'b', 'b']","[0.03314940000018396, 0.5548469999994268, 2.205482600000323]",414.7633552999996,None,z,2.033149400000184,0,0,0.6410256410256411,None,419.0338058999987,None,419.0338058999987,None,,,,,,,,,,,,,,,,,,,,,,CBC_1003,3,5,3,3,2,0.95,2023-06-14_16h21.52.910,MSI_TV_v3,2022.1.1,59.9311630656484,
39,0,39,0,,,,,,,,,,3,1.0,3.0,z,27.0,1.0,2.67601813,2.573610938,None,421.0439074999995,None,423.59453002999965,423.59453002999965,423.6106329299988,b,['b'],None,,425.6338641000002,None,b,1.598996900000202,0,0,0.625,None,428.3034536999985,None,428.3034536999985,None,1.598996900000202,[1.598996900000202],,,,,,,,,,,,,,,,,,,,CBC_1003,3,5,3,3,2,0.95,2023-06-14_16h21.52.910,MSI_TV_v3,2022.1.1,59.9311630656484,
40,0,40,0,,,,,,,,,,0,0.0,1.0,b,63.0,1.0,3.589438522,2.962224669,None,430.31056199999875,None,433.2439416299991,433.2439416299991,433.26116092999894,z,['z'],None,,435.28348670000014,None,z,1.6698168000002624,0,0,0.6097560975609756,None,438.87082849999933,None,438.87082849999933,None,1.6698168000002624,[1.6698168000002624],,,,,,,,,,,,,,,,,,,,CBC_1003,3,5,3,3,2,0.95,2023-06-14_16h21.52.910,MSI_TV_v3,2022.1.1,59.9311630656484,
41,0,41,0,,,,,,,,,,1,0.0,2.0,z,27.0,1.0,1.543156518,1.883772966,None,440.8772620999989,None,442.7441670300001,442.7441670300001,442.76055832999975,None,[],['z'],[1.3181401999991067],444.74182649999966,None,z,3.3181401999991067,1,1,0.6190476190476191,None,446.3018597999999,None,446.3018597999999,None,,,,,,,,,,,,,,,,,,,,,,CBC_1003,3,5,3,3,2,0.95,2023-06-14_16h21.52.910,MSI_TV_v3,2022.1.1,59.9311630656484,
42,0,42,0,,,,,,,,,,3,3.0,2.0,b,63.0,1.0,1.595506577,2.071213329,None,448.3108264000002,None,450.3606629299999,450.3606629299999,450.3771783299986,None,[],None,,452.35843399999976,None,None,[],0,3,0.6046511627906976,None,453.96835949999877,None,453.96835949999877,None,,,,,,,,,,,,,,,,,,,,,,CBC_1003,3,5,3,3,2,0.95,2023-06-14_16h21.52.910,MSI_TV_v3,2022.1.1,59.9311630656484,
43,0,43,0,,,,,,,,,,2,1.0,0.0,b,63.0,1.0,2.117809983,1.732943574,None,455.9775101999985,None,457.6934293299988,457.6934293299988,457.7098114299994,b,['b'],None,,459.7265235999985,None,b,1.3217303000001266,1,1,0.6136363636363636,None,461.8538198999995,None,461.8538198999995,None,1.3217303000001266,[1.3217303000001266],,,,,,,,,,,,,,,,,,,,CBC_1003,3,5,3,3,2,0.95,2023-06-14_16h21.52.910,MSI_TV_v3,2022.1.1,59.9311630656484,
,,,,,,,,,,,,,,,,,,,,,,,,,,,,,,,,,,,,,,,,,,,,,,,None,463.86067959999855,None,,,,,,,,,,,,,,,CBC_1003,3,5,3,3,2,0.95,2023-06-14_16h21.52.910,MSI_TV_v3,2022.1.1,59.9311630656484,
,,,,,,,,,,,,,,,,,,,,,,,,,,,,,,,,,,,,,,,,,,,,,,,,,,468.8439645999988,None,None,468.8439645999988,473.8276146999997,,,,,,,,,,CBC_1003,3,5,3,3,2,0.95,2023-06-14_16h21.52.910,MSI_TV_v3,2022.1.1,59.9311630656484,
,,,,,,,,,,,,,,,,,,,,,,,,,,,,,,,,,,,,,,,,,,,,,,,,,,,,,,,z,b,hard,"[0, 1, 2, 3]","[0, 2, 1, 3]",0.8181818181818182,0.6363636363636364,0.45454545454545453,0.5454545454545454,,,,,,,,,,,,
