ID,session,trialNr,mod2Stim,visStimLeft,visStimRight,correctKey,frequency,rewardAccurate,probFB,stimPairLeft,stimPairRight,leftCorrect,rightCorrect,pCorrectLeft,pCorrectRight,triplet,rt,surprise,0A belief,1A belief,2A belief,3A belief,0B belief,1B belief,2B belief,3B belief,0C belief,1C belief,2C belief,3C belief,0D belief,1D belief,2D belief,3D belief,reactionTime,choice,choiceLeft,choiceRight,chosenPair,otherPair,beliefPair,beliefOtherPair,beliefPairNorm,beliefOtherPairNorm,choiceAccurate,reward,rewardPE,update2,sim_CBCsimpleRW_CBCdriftDiffusionLR_startBelief,sim_CBCsimpleRW_CBCdriftDiffusionLR_alpha1,sim_CBCsimpleRW_CBCdriftDiffusionLR_nonDecisionTime,sim_CBCsimpleRW_CBCdriftDiffusionLR_weight,sim_CBCsimpleRW_CBCdriftDiffusionLR_startingBoundary,sim_CBCsimpleRW_CBCdriftDiffusionLR_startingPoint,lik,corrLik,fitCBCsimpleRW_CBCdriftDiffusionLR_startBelief,fitCBCsimpleRW_CBCdriftDiffusionLR_alpha1,fitCBCsimpleRW_CBCdriftDiffusionLR_nonDecisionTime,fitCBCsimpleRW_CBCdriftDiffusionLR_weight,fitCBCsimpleRW_CBCdriftDiffusionLR_startingBoundary,fitCBCsimpleRW_CBCdriftDiffusionLR_startingPoint,fit_CBCsimpleRW_CBCdriftDiffusionLR_NLL
123,1,1,A,0,1,a,63,1,0.95,0A,1A,1,0,1,0,A01,2.6428787865328,2.77258872223978,0.5,0.5,0.5,0.5,0.5,0.5,0.5,0.5,0.5,0.5,0.5,0.5,0.5,0.5,0.5,0.5,6.14602458245719,1,1,0,0A,1A,0.5,0.5,0.5,0.5,1,1,0.5,0.341741770794192,0.5,0.664053902527294,0.877024582457191,11.4785313593677,4.5969402878842,0.5,0.0447105385093859,0.500240784477591,0.5,0.683483541588384,0.914542540111589,13.7535891720788,4.96635656195739,0.5,-8.81537447260101
123,1,2,C,2,3,a,63,1,0.95,2C,3C,1,0,1,0,C23,1.07736578098247,2.83321334405622,0.841741770794192,0.5,0.5,0.5,0.5,0.5,0.5,0.5,0.5,0.5,0.5,0.5,0.5,0.5,0.5,0.5,8.31902458245719,1,1,0,2C,3C,0.5,0.5,0.5,0.5,1,1,0.5,0.341741770794192,0.5,0.664053902527294,0.877024582457191,11.4785313593677,4.5969402878842,0.5,0.0289400290282054,0.499795306382221,0.5,0.683483541588384,0.914542540111589,13.7535891720788,4.96635656195739,0.5,-8.81537447260101
123,1,3,A,2,0,l,27,1,0.95,2A,0A,0,1,0,1,A20,3.28229334888901,2.89037175789616,0.841741770794192,0.5,0.5,0.5,0.5,0.5,0.5,0.5,0.5,0.5,0.841741770794192,0.5,0.5,0.5,0.5,0.5,1.47002458245719,0,0,1,0A,2A,0.841741770794192,0.5,0.627350052831668,0.372649947168332,1,1,0.158258229205808,0.108166894983092,0.5,0.664053902527294,0.877024582457191,11.4785313593677,4.5969402878842,0.5,1.84556092214446,0.999999972217287,0.5,0.683483541588384,0.914542540111589,13.7535891720788,4.96635656195739,0.5,-8.81537447260101
123,1,4,B,0,1,l,63,1,0.95,0B,1B,0,1,0,1,B01,2.41424658927757,2.94443897916644,0.949908665777284,0.5,0.5,0.5,0.5,0.5,0.5,0.5,0.5,0.5,0.841741770794192,0.5,0.5,0.5,0.5,0.5,6.52202458245719,1,1,0,0B,1B,0.5,0.5,0.5,0.5,0,0,-0.5,-0.341741770794192,0.5,0.664053902527294,0.877024582457191,11.4785313593677,4.5969402878842,0.5,0.0412762278177355,0.49774163861657,0.5,0.683483541588384,0.914542540111589,13.7535891720788,4.96635656195739,0.5,-8.81537447260101
123,1,5,D,3,2,a,63,1,0.95,3D,2D,1,0,1,0,D32,1.32915710843274,2.99573227355399,0.949908665777284,0.5,0.5,0.5,0.158258229205808,0.5,0.5,0.5,0.5,0.5,0.841741770794192,0.5,0.5,0.5,0.5,0.5,9.86502458245719,1,1,0,3D,2D,0.5,0.5,0.5,0.5,1,1,0.5,0.341741770794192,0.5,0.664053902527294,0.877024582457191,11.4785313593677,4.5969402878842,0.5,0.0212287383285207,0.499509253744647,0.5,0.683483541588384,0.914542540111589,13.7535891720788,4.96635656195739,0.5,-8.81537447260101
123,1,6,B,2,1,l,9,1,0.95,2B,1B,0,1,0,1,B21,2.18903944479352,3.04452243772342,0.949908665777284,0.5,0.5,0.5,0.158258229205808,0.5,0.5,0.5,0.5,0.5,0.841741770794192,0.5,0.5,0.5,0.5,0.841741770794192,3.21802458245719,0,0,1,1B,2B,0.5,0.5,0.5,0.5,1,1,0.5,0.341741770794192,0.5,0.664053902527294,0.877024582457191,11.4785313593677,4.5969402878842,0.5,0.0744668442373603,0.501072576921259,0.5,0.683483541588384,0.914542540111589,13.7535891720788,4.96635656195739,0.5,-8.81537447260101
123,1,7,D,3,1,a,27,1,0.95,3D,1D,1,0,1,0,D31,0.220243042220549,3.09104245335832,0.949908665777284,0.5,0.5,0.5,0.158258229205808,0.841741770794192,0.5,0.5,0.5,0.5,0.841741770794192,0.5,0.5,0.5,0.5,0.841741770794192,1.60802458245719,1,1,0,3D,1D,0.841741770794192,0.5,0.627350052831668,0.372649947168332,1,1,0.158258229205808,0.108166894983092,0.5,0.664053902527294,0.877024582457191,11.4785313593677,4.5969402878842,0.5,1.71187852972683,0.999999972275666,0.5,0.683483541588384,0.914542540111589,13.7535891720788,4.96635656195739,0.5,-8.81537447260101
123,1,8,A,0,1,a,63,1,0.95,0A,1A,1,0,1,0,A01,0.524478866484513,2.4423470353692,0.949908665777284,0.5,0.5,0.5,0.158258229205808,0.841741770794192,0.5,0.5,0.5,0.5,0.841741770794192,0.5,0.5,0.5,0.5,0.949908665777284,1.48902458245719,1,1,0,0A,1A,0.949908665777284,0.5,0.655150692038968,0.344849307961032,1,1,0.0500913342227162,0.0342366025174295,0.5,0.664053902527294,0.877024582457191,11.4785313593677,4.5969402878842,0.5,2.27310833462639,0.999999999373996,0.5,0.683483541588384,0.914542540111589,13.7535891720788,4.96635656195739,0.5,-8.81537447260101
123,1,9,A,1,0,l,63,1,0.95,1A,0A,0,1,0,1,A10,0.345557496039181,3.17805383034795,0.984145268294713,0.5,0.5,0.5,0.158258229205808,0.841741770794192,0.5,0.5,0.5,0.5,0.841741770794192,0.5,0.5,0.5,0.5,0.949908665777284,1.64402458245719,0,0,1,0A,1A,0.984145268294713,0.5,0.663105754752362,0.336894245247638,1,1,0.0158547317052867,0.010836448176863,0.5,0.664053902527294,0.877024582457191,11.4785313593677,4.5969402878842,0.5,1.0370556228989,0.999999999789457,0.5,0.683483541588384,0.914542540111589,13.7535891720788,4.96635656195739,0.5,-8.81537447260101
123,1,10,C,0,2,l,27,1,0.95,0C,2C,0,1,0,1,C02,1.5737811546544,3.2188758248682,0.994981716471576,0.5,0.5,0.5,0.158258229205808,0.841741770794192,0.5,0.5,0.5,0.5,0.841741770794192,0.5,0.5,0.5,0.5,0.949908665777284,1.68802458245719,0,0,1,2C,0C,0.841741770794192,0.5,0.627350052831668,0.372649947168332,1,1,0.158258229205808,0.108166894983092,0.5,0.664053902527294,0.877024582457191,11.4785313593677,4.5969402878842,0.5,1.40861185769514,0.99999997226856,0.5,0.683483541588384,0.914542540111589,13.7535891720788,4.96635656195739,0.5,-8.81537447260101
123,1,11,B,1,0,a,63,1,0.95,1B,0B,1,0,1,0,B10,0.750916133621211,3.25809653802148,0.994981716471576,0.5,0.5,0.5,0.158258229205808,0.841741770794192,0.5,0.5,0.5,0.5,0.949908665777284,0.5,0.5,0.5,0.5,0.949908665777284,1.15202458245719,1,1,0,1B,0B,0.841741770794192,0.158258229205808,0.841741770794192,0.158258229205808,1,1,0.158258229205808,0.108166894983092,0.5,0.664053902527294,0.877024582457191,11.4785313593677,4.5969402878842,0.5,7.50036716713621,1,0.5,0.683483541588384,0.914542540111589,13.7535891720788,4.96635656195739,0.5,-8.81537447260101
123,1,12,A,1,0,l,63,1,0.95,1A,0A,0,1,0,1,A10,0.934992487273292,2.60268968544438,0.994981716471576,0.5,0.5,0.5,0.158258229205808,0.949908665777284,0.5,0.5,0.5,0.5,0.949908665777284,0.5,0.5,0.5,0.5,0.949908665777284,1.28902458245719,0,0,1,0A,1A,0.994981716471576,0.5,0.665547749185797,0.334452250814203,1,1,0.00501828352842371,0.00342991419870169,0.5,0.664053902527294,0.877024582457191,11.4785313593677,4.5969402878842,0.5,1.92627984975528,0.999999999848874,0.5,0.683483541588384,0.914542540111589,13.7535891720788,4.96635656195739,0.5,-8.81537447260101
123,1,13,C,2,3,a,63,1,0.95,2C,3C,1,0,1,0,C23,3.43271704680923,2.63905732961526,0.998411630670278,0.5,0.5,0.5,0.158258229205808,0.949908665777284,0.5,0.5,0.5,0.5,0.949908665777284,0.5,0.5,0.5,0.5,0.949908665777284,1.77702458245719,1,1,0,2C,3C,0.949908665777284,0.5,0.655150692038968,0.344849307961032,1,1,0.0500913342227162,0.0342366025174295,0.5,0.664053902527294,0.877024582457191,11.4785313593677,4.5969402878842,0.5,0.539057250978368,0.999999999373258,0.5,0.683483541588384,0.914542540111589,13.7535891720788,4.96635656195739,0.5,-8.81537447260101
123,1,14,A,2,0,l,27,1,0.95,2A,0A,0,1,0,1,A20,1.56787845024968,2.67414864942653,0.998411630670278,0.5,0.5,0.5,0.158258229205808,0.949908665777284,0.5,0.5,0.5,0.5,0.984145268294713,0.5,0.5,0.5,0.5,0.949908665777284,1.37802458245719,0,0,1,0A,2A,0.998411630670278,0.5,0.666313321542801,0.333686678457199,1,1,0.00158836932972206,0.0010856242948288,0.5,0.664053902527294,0.877024582457191,11.4785313593677,4.5969402878842,0.5,2.72340852170735,0.999999999863915,0.5,0.683483541588384,0.914542540111589,13.7535891720788,4.96635656195739,0.5,-8.81537447260101
123,1,15,B,0,1,l,63,1,0.95,0B,1B,0,1,0,1,B01,2.28484676661082,2.70805020110221,0.999497254965107,0.5,0.5,0.5,0.158258229205808,0.949908665777284,0.5,0.5,0.5,0.5,0.984145268294713,0.5,0.5,0.5,0.5,0.949908665777284,1.18702458245719,0,0,1,1B,0B,0.949908665777284,0.158258229205808,0.857189174372311,0.142810825627689,1,1,0.0500913342227162,0.0342366025174295,0.5,0.664053902527294,0.877024582457191,11.4785313593677,4.5969402878842,0.5,6.5001647860535,1,0.5,0.683483541588384,0.914542540111589,13.7535891720788,4.96635656195739,0.5,-8.81537447260101
123,1,16,B,1,0,a,63,1,0.95,1B,0B,1,0,1,0,B10,1.52037555085018,2.7408400239252,0.999497254965107,0.5,0.5,0.5,0.158258229205808,0.984145268294713,0.5,0.5,0.5,0.5,0.984145268294713,0.5,0.5,0.5,0.5,0.949908665777284,1.19802458245719,1,1,0,1B,0B,0.984145268294713,0.158258229205808,0.861469061017352,0.138530938982648,1,1,0.0158547317052867,0.010836448176863,0.5,0.664053902527294,0.877024582457191,11.4785313593677,4.5969402878842,0.5,5.38230147733405,1,0.5,0.683483541588384,0.914542540111589,13.7535891720788,4.96635656195739,0.5,-8.81537447260101
123,1,17,C,2,3,a,63,1,0.95,2C,3C,1,0,1,0,C23,2.38189105324158,2.36712361413162,0.999497254965107,0.5,0.5,0.5,0.158258229205808,0.994981716471576,0.5,0.5,0.5,0.5,0.984145268294713,0.5,0.5,0.5,0.5,0.949908665777284,1.48002458245719,1,1,0,2C,3C,0.984145268294713,0.5,0.663105754752362,0.336894245247638,1,1,0.0158547317052867,0.010836448176863,0.5,0.664053902527294,0.877024582457191,11.4785313593677,4.5969402878842,0.5,2.3236712538386,0.99999999978956,0.5,0.683483541588384,0.914542540111589,13.7535891720788,4.96635656195739,0.5,-8.81537447260101
123,1,18,D,1,3,l,27,1,0.95,1D,3D,0,1,0,1,D13,1.70226616656844,3.49650756146648,0.999497254965107,0.5,0.5,0.5,0.158258229205808,0.994981716471576,0.5,0.5,0.5,0.5,0.994981716471576,0.5,0.5,0.5,0.5,0.949908665777284,1.44502458245719,0,0,1,3D,1D,0.949908665777284,0.5,0.655150692038968,0.344849307961032,1,1,0.0500913342227162,0.0342366025174295,0.5,0.664053902527294,0.877024582457191,11.4785313593677,4.5969402878842,0.5,2.44972967052646,0.999999999372172,0.5,0.683483541588384,0.914542540111589,13.7535891720788,4.96635656195739,0.5,-8.81537447260101
123,1,19,C,2,1,a,9,1,0.95,2C,1C,1,0,1,0,C21,1.87888761606494,3.52636052461616,0.999497254965107,0.5,0.5,0.5,0.158258229205808,0.994981716471576,0.5,0.5,0.5,0.5,0.994981716471576,0.5,0.5,0.5,0.5,0.984145268294713,1.32902458245719,1,1,0,2C,1C,0.994981716471576,0.5,0.665547749185797,0.334452250814203,1,1,0.00501828352842371,0.00342991419870169,0.5,0.664053902527294,0.877024582457191,11.4785313593677,4.5969402878842,0.5,2.4175692729757,0.999999999848254,0.5,0.683483541588384,0.914542540111589,13.7535891720788,4.96635656195739,0.5,-8.81537447260101
123,1,20,B,1,3,a,27,1,0.95,1B,3B,1,0,1,0,B13,0.961494891390206,3.55534806148941,0.999497254965107,0.5,0.5,0.5,0.158258229205808,0.994981716471576,0.5,0.5,0.5,0.5,0.998411630670278,0.5,0.5,0.5,0.5,0.984145268294713,1.60102458245719,1,1,0,1B,3B,0.994981716471576,0.5,0.665547749185797,0.334452250814203,1,1,0.00501828352842371,0.00342991419870169,0.5,0.664053902527294,0.877024582457191,11.4785313593677,4.5969402878842,0.5,1.29018250911875,0.999999999848158,0.5,0.683483541588384,0.914542540111589,13.7535891720788,4.96635656195739,0.5,-8.81537447260101
123,1,21,D,2,3,l,63,1,0.95,2D,3D,0,1,0,1,D23,0.364804464748842,3.58351893845611,0.999497254965107,0.5,0.5,0.5,0.158258229205808,0.998411630670278,0.5,0.5,0.5,0.5,0.998411630670278,0.5,0.5,0.5,0.5,0.984145268294713,1.43802458245719,0,0,1,3D,2D,0.984145268294713,0.5,0.663105754752362,0.336894245247638,1,1,0.0158547317052867,0.010836448176863,0.5,0.664053902527294,0.877024582457191,11.4785313593677,4.5969402878842,0.5,2.57065188841007,0.999999999789336,0.5,0.683483541588384,0.914542540111589,13.7535891720788,4.96635656195739,0.5,-8.81537447260101
123,1,22,B,0,1,l,63,0,0.95,0B,1B,0,1,1,0,B01,1.51423148934358,2.51230562397611,0.999497254965107,0.5,0.5,0.5,0.158258229205808,0.998411630670278,0.5,0.5,0.5,0.5,0.998411630670278,0.5,0.5,0.5,0.5,0.994981716471576,1.13302458245719,0,0,1,1B,0B,0.998411630670278,0.158258229205808,0.863177701178483,0.136822298821517,1,0,-0.998411630670278,-0.682397917293555,0.5,0.664053902527294,0.877024582457191,11.4785313593677,4.5969402878842,0.5,7.89093898004158,1,0.5,0.683483541588384,0.914542540111589,13.7535891720788,4.96635656195739,0.5,-8.81537447260101
123,1,23,A,0,3,a,9,1,0.95,0A,3A,1,0,1,0,A03,2.05347808555696,3.63758615972639,0.999497254965107,0.5,0.5,0.5,0.158258229205808,0.316013713376723,0.5,0.5,0.5,0.5,0.998411630670278,0.5,0.5,0.5,0.5,0.994981716471576,1.42502458245719,1,1,0,0A,3A,0.999497254965107,0.5,0.666554908090422,0.333445091909578,1,1,0.000502745034893226,0.000343617956964798,0.5,0.664053902527294,0.877024582457191,11.4785313593677,4.5969402878842,0.5,2.66030033814177,0.999999999867153,0.5,0.683483541588384,0.914542540111589,13.7535891720788,4.96635656195739,0.5,-8.81537447260101
123,1,24,D,3,2,a,63,1,0.95,3D,2D,1,0,1,0,D32,1.74323198959142,2.9704144655697,0.999840872922072,0.5,0.5,0.5,0.158258229205808,0.316013713376723,0.5,0.5,0.5,0.5,0.998411630670278,0.5,0.5,0.5,0.5,0.994981716471576,1.66402458245719,1,1,0,3D,2D,0.994981716471576,0.5,0.665547749185797,0.334452250814203,1,1,0.00501828352842371,0.00342991419870169,0.5,0.664053902527294,0.877024582457191,11.4785313593677,4.5969402878842,0.5,0.858371801270665,0.999999999848593,0.5,0.683483541588384,0.914542540111589,13.7535891720788,4.96635656195739,0.5,-8.81537447260101
123,1,25,B,3,1,l,27,1,0.95,3B,1B,0,1,0,1,B31,1.96454779831632,3.68887945411394,0.999840872922072,0.5,0.5,0.5,0.158258229205808,0.316013713376723,0.5,0.5,0.5,0.5,0.998411630670278,0.5,0.5,0.5,0.5,0.998411630670278,1.86102458245719,1,1,0,3B,1B,0.5,0.316013713376723,0.612734800657901,0.387265199342099,0,0,-0.5,-0.341741770794192,0.5,0.664053902527294,0.877024582457191,11.4785313593677,4.5969402878842,0.5,0.96577522280808,0.999999795236992,0.5,0.683483541588384,0.914542540111589,13.7535891720788,4.96635656195739,0.5,-8.81537447260101
123,1,26,C,3,2,l,63,1,0.95,3C,2C,0,1,0,1,C32,2.73526537152597,3.71357206670431,0.999840872922072,0.5,0.5,0.5,0.158258229205808,0.316013713376723,0.5,0.158258229205808,0.5,0.5,0.998411630670278,0.5,0.5,0.5,0.5,0.998411630670278,1.41502458245719,0,0,1,2C,3C,0.998411630670278,0.5,0.666313321542801,0.333686678457199,1,1,0.00158836932972206,0.0010856242948288,0.5,0.664053902527294,0.877024582457191,11.4785313593677,4.5969402878842,0.5,2.69475767468484,0.999999999863769,0.5,0.683483541588384,0.914542540111589,13.7535891720788,4.96635656195739,0.5,-8.81537447260101
123,1,27,C,0,2,l,27,1,0.95,0C,2C,0,1,0,1,C02,0.601184222214308,3.04452243772342,0.999840872922072,0.5,0.5,0.5,0.158258229205808,0.316013713376723,0.5,0.158258229205808,0.5,0.5,0.999497254965107,0.5,0.5,0.5,0.5,0.998411630670278,1.37502458245719,0,0,1,2C,0C,0.999497254965107,0.5,0.666554908090422,0.333445091909578,1,1,0.000502745034893226,0.000343617956964798,0.5,0.664053902527294,0.877024582457191,11.4785313593677,4.5969402878842,0.5,2.72507077953453,0.999999999868903,0.5,0.683483541588384,0.914542540111589,13.7535891720788,4.96635656195739,0.5,-8.81537447260101
123,1,28,B,1,0,a,63,1,0.95,1B,0B,1,0,1,0,B10,1.93179643535564,2.66258782702545,0.999840872922072,0.5,0.5,0.5,0.158258229205808,0.316013713376723,0.5,0.158258229205808,0.5,0.5,0.999840872922072,0.5,0.5,0.5,0.5,0.998411630670278,1.44802458245719,1,1,0,1B,0B,0.316013713376723,0.158258229205808,0.666313321542801,0.333686678457199,1,1,0.683986286623277,0.467493369579165,0.5,0.664053902527294,0.877024582457191,11.4785313593677,4.5969402878842,0.5,2.53803963061308,0.999999999864197,0.5,0.683483541588384,0.914542540111589,13.7535891720788,4.96635656195739,0.5,-8.81537447260101
123,1,29,C,3,2,l,63,1,0.95,3C,2C,0,1,0,1,C32,1.73550869894502,3.09104245335832,0.999840872922072,0.5,0.5,0.5,0.158258229205808,0.783507082955888,0.5,0.158258229205808,0.5,0.5,0.999840872922072,0.5,0.5,0.5,0.5,0.998411630670278,1.34302458245719,0,0,1,2C,3C,0.999840872922072,0.5,0.666631301342073,0.333368698657927,1,1,0.000159127077928423,0.000108760738785129,0.5,0.664053902527294,0.877024582457191,11.4785313593677,4.5969402878842,0.5,2.57681173521278,0.999999999869092,0.5,0.683483541588384,0.914542540111589,13.7535891720788,4.96635656195739,0.5,-8.81537447260101
123,1,30,A,0,1,a,63,1,0.95,0A,1A,1,0,1,0,A01,0.295006934986151,2.70805020110221,0.999840872922072,0.5,0.5,0.5,0.158258229205808,0.783507082955888,0.5,0.158258229205808,0.5,0.5,0.999949633660857,0.5,0.5,0.5,0.5,0.998411630670278,1.35002458245719,1,1,0,0A,1A,0.999840872922072,0.5,0.666631301342073,0.333368698657927,1,1,0.000159127077928423,0.000108760738785129,0.5,0.664053902527294,0.877024582457191,11.4785313593677,4.5969402878842,0.5,2.62617935342948,0.999999999870566,0.5,0.683483541588384,0.914542540111589,13.7535891720788,4.96635656195739,0.5,-8.81537447260101
123,1,31,D,3,2,a,63,1,0.95,3D,2D,1,0,1,0,D32,3.08925732487307,2.73002910782099,0.999949633660857,0.5,0.5,0.5,0.158258229205808,0.783507082955888,0.5,0.158258229205808,0.5,0.5,0.999949633660857,0.5,0.5,0.5,0.5,0.998411630670278,1.60002458245719,1,1,0,3D,2D,0.998411630670278,0.5,0.666313321542801,0.333686678457199,1,1,0.00158836932972206,0.0010856242948288,0.5,0.664053902527294,0.877024582457191,11.4785313593677,4.5969402878842,0.5,1.27884179458742,0.999999999864534,0.5,0.683483541588384,0.914542540111589,13.7535891720788,4.96635656195739,0.5,-8.81537447260101
123,1,32,C,3,2,l,63,1,0.95,3C,2C,0,1,0,1,C32,2.75650213596582,2.75153531304195,0.999949633660857,0.5,0.5,0.5,0.158258229205808,0.783507082955888,0.5,0.158258229205808,0.5,0.5,0.999949633660857,0.5,0.5,0.5,0.5,0.999497254965107,1.33302458245719,0,0,1,2C,3C,0.999949633660857,0.5,0.666655473771027,0.333344526228973,1,1,5.03663391433484e-05,3.44245638545374e-05,0.5,0.664053902527294,0.877024582457191,11.4785313593677,4.5969402878842,0.5,2.50159969491262,0.999999999871278,0.5,0.683483541588384,0.914542540111589,13.7535891720788,4.96635656195739,0.5,-8.81537447260101
123,1,33,D,1,3,l,27,1,0.95,1D,3D,0,1,0,1,D13,0.43817642858762,3.17805383034795,0.999949633660857,0.5,0.5,0.5,0.158258229205808,0.783507082955888,0.5,0.158258229205808,0.5,0.5,0.999984058224711,0.5,0.5,0.5,0.5,0.999497254965107,1.54102458245719,0,0,1,3D,1D,0.999497254965107,0.5,0.666554908090422,0.333445091909578,1,1,0.000502745034893226,0.000343617956964798,0.5,0.664053902527294,0.877024582457191,11.4785313593677,4.5969402878842,0.5,1.77244695262388,0.999999999868897,0.5,0.683483541588384,0.914542540111589,13.7535891720788,4.96635656195739,0.5,-8.81537447260101
123,1,34,C,2,0,a,27,1,0.95,2C,0C,1,0,1,0,C20,1.47604870404528,3.89182029811063,0.999949633660857,0.5,0.5,0.5,0.158258229205808,0.783507082955888,0.5,0.158258229205808,0.5,0.5,0.999984058224711,0.5,0.5,0.5,0.5,0.999840872922072,1.24002458245719,1,1,0,2C,0C,0.999984058224711,0.5,0.666663124012285,0.333336875987715,1,1,1.59417752888524e-05,1.0895941033631e-05,0.5,0.664053902527294,0.877024582457191,11.4785313593677,4.5969402878842,0.5,1.18061184915318,0.9999999998709,0.5,0.683483541588384,0.914542540111589,13.7535891720788,4.96635656195739,0.5,-8.81537447260101
123,1,35,D,3,2,a,63,0,0.95,3D,2D,1,0,0,1,D32,1.9050685806962,2.52572864430826,0.999949633660857,0.5,0.5,0.5,0.158258229205808,0.783507082955888,0.5,0.158258229205808,0.5,0.5,0.999994954165745,0.5,0.5,0.5,0.5,0.999840872922072,1.55002458245719,1,1,0,3D,2D,0.999840872922072,0.5,0.666631301342073,0.333368698657927,1,0,-0.999840872922072,-0.683374780849599,0.5,0.664053902527294,0.877024582457191,11.4785313593677,4.5969402878842,0.5,1.69140719829283,0.999999999869853,0.5,0.683483541588384,0.914542540111589,13.7535891720788,4.96635656195739,0.5,-8.81537447260101
123,1,36,A,0,1,a,63,1,0.95,0A,1A,1,0,1,0,A01,2.79456751030734,2.54553127160444,0.999949633660857,0.5,0.5,0.5,0.158258229205808,0.783507082955888,0.5,0.158258229205808,0.5,0.5,0.999994954165745,0.5,0.5,0.5,0.5,0.316466092072473,1.54002458245719,1,1,0,0A,1A,0.999949633660857,0.5,0.666655473771027,0.333344526228973,1,1,5.03663391433484e-05,3.44245638545374e-05,0.5,0.664053902527294,0.877024582457191,11.4785313593677,4.5969402878842,0.5,1.77913213070093,0.999999999871018,0.5,0.683483541588384,0.914542540111589,13.7535891720788,4.96635656195739,0.5,-8.81537447260101
123,1,37,C,3,2,l,63,1,0.95,3C,2C,0,1,0,1,C32,2.08806332480293,2.56494935746154,0.999984058224711,0.5,0.5,0.5,0.158258229205808,0.783507082955888,0.5,0.158258229205808,0.5,0.5,0.999994954165745,0.5,0.5,0.5,0.5,0.316466092072473,2.01202458245719,0,0,1,2C,3C,0.999994954165745,0.5,0.666665545366394,0.333334454633606,1,1,5.04583425520178e-06,3.4487446670133e-06,0.5,0.664053902527294,0.877024582457191,11.4785313593677,4.5969402878842,0.5,0.0446439796169848,0.999999999871063,0.5,0.683483541588384,0.914542540111589,13.7535891720788,4.96635656195739,0.5,-8.81537447260101
123,1,38,A,2,0,l,27,1,0.95,2A,0A,0,1,0,1,A20,1.83176565527091,2.87167962488401,0.999984058224711,0.5,0.5,0.5,0.158258229205808,0.783507082955888,0.5,0.158258229205808,0.5,0.5,0.999998402910412,0.5,0.5,0.5,0.5,0.316466092072473,1.39302458245719,0,0,1,0A,2A,0.999984058224711,0.5,0.666663124012285,0.333336875987715,1,1,1.59417752888524e-05,1.0895941033631e-05,0.5,0.664053902527294,0.877024582457191,11.4785313593677,4.5969402878842,0.5,2.74075159859472,0.999999999869624,0.5,0.683483541588384,0.914542540111589,13.7535891720788,4.96635656195739,0.5,-8.81537447260101
123,1,39,D,3,2,a,63,1,0.95,3D,2D,1,0,1,0,D32,0.840594495117213,2.37954613413017,0.999994954165745,0.5,0.5,0.5,0.158258229205808,0.783507082955888,0.5,0.158258229205808,0.5,0.5,0.999998402910412,0.5,0.5,0.5,0.5,0.316466092072473,1.55502458245719,0,0,1,2D,3D,0.5,0.316466092072473,0.612395303191131,0.387604696808869,0,0,-0.5,-0.341741770794192,0.5,0.664053902527294,0.877024582457191,11.4785313593677,4.5969402878842,0.5,1.58475624250045,0.999999783364036,0.5,0.683483541588384,0.914542540111589,13.7535891720788,4.96635656195739,0.5,-8.81537447260101
123,1,40,D,2,3,l,63,1,0.95,2D,3D,0,1,0,1,D23,2.10584886374357,3.31418600467253,0.999994954165745,0.5,0.5,0.5,0.158258229205808,0.783507082955888,0.5,0.158258229205808,0.5,0.5,0.999998402910412,0.5,0.5,0.5,0.158258229205808,0.316466092072473,1.48802458245719,0,0,1,3D,2D,0.316466092072473,0.158258229205808,0.666631301342073,0.333368698657927,1,1,0.683533907927527,0.467184176186055,0.5,0.664053902527294,0.877024582457191,11.4785313593677,4.5969402878842,0.5,2.23915610276167,0.999999999870499,0.5,0.683483541588384,0.914542540111589,13.7535891720788,4.96635656195739,0.5,-8.81537447260101
123,1,41,B,1,3,a,27,1,0.95,1B,3B,1,0,1,0,B13,0.435860353302673,3.3322045101752,0.999994954165745,0.5,0.5,0.5,0.158258229205808,0.783507082955888,0.5,0.158258229205808,0.5,0.5,0.999998402910412,0.5,0.5,0.5,0.158258229205808,0.783650268258527,1.07302458245719,1,1,0,1B,3B,0.783507082955888,0.158258229205808,0.831955767363583,0.168044232636417,1,1,0.216492917044112,0.14796934567011,0.5,0.664053902527294,0.877024582457191,11.4785313593677,4.5969402878842,0.5,0.530875210696177,1,0.5,0.683483541588384,0.914542540111589,13.7535891720788,4.96635656195739,0.5,-8.81537447260101
123,1,42,D,0,3,l,9,1,0.95,0D,3D,0,1,0,1,D03,2.47050371676887,4.04305126783455,0.999994954165745,0.5,0.5,0.5,0.158258229205808,0.931476428625998,0.5,0.158258229205808,0.5,0.5,0.999998402910412,0.5,0.5,0.5,0.158258229205808,0.783650268258527,1.79502458245719,0,0,1,3D,0D,0.783650268258527,0.5,0.610485805702882,0.389514194297118,1,1,0.216349731741473,0.147871480872359,0.5,0.664053902527294,0.877024582457191,11.4785313593677,4.5969402878842,0.5,1.17426254053511,0.999999719915217,0.5,0.683483541588384,0.914542540111589,13.7535891720788,4.96635656195739,0.5,-8.81537447260101
123,1,43,B,1,0,a,63,1,0.95,1B,0B,1,0,1,0,B10,1.6868761825151,2.67414864942653,0.999994954165745,0.5,0.5,0.5,0.158258229205808,0.931476428625998,0.5,0.158258229205808,0.5,0.5,0.999998402910412,0.5,0.5,0.5,0.158258229205808,0.931521749130886,1.14702458245719,1,1,0,1B,0B,0.931476428625998,0.158258229205808,0.854773611109436,0.145226388890564,1,1,0.0685235713740022,0.0468347332449874,0.5,0.664053902527294,0.877024582457191,11.4785313593677,4.5969402878842,0.5,8.00443473054328,1,0.5,0.683483541588384,0.914542540111589,13.7535891720788,4.96635656195739,0.5,-8.81537447260101
123,1,44,A,1,0,l,63,1,0.95,1A,0A,0,1,0,1,A10,1.0651888706854,2.97892515523761,0.999994954165745,0.5,0.5,0.5,0.158258229205808,0.978311161870985,0.5,0.158258229205808,0.5,0.5,0.999998402910412,0.5,0.5,0.5,0.158258229205808,0.931521749130886,1.48102458245719,0,0,1,0A,1A,0.999994954165745,0.5,0.666665545366394,0.333334454633606,1,1,5.04583425520178e-06,3.4487446670133e-06,0.5,0.664053902527294,0.877024582457191,11.4785313593677,4.5969402878842,0.5,2.29750861801333,0.999999999869469,0.5,0.683483541588384,0.914542540111589,13.7535891720788,4.96635656195739,0.5,-8.81537447260101
