ID,filename,session,trial,visStimLeft,visStimRight,correctKey,leftCorrect,rightCorrect,secondStim,mod2Type,mod2Stim,frequency,rewardAccurate,stimPairLeft,stimPairRight,pCorrectLeft,pCorrectRight,key,reactionTime,choiceLeft,choiceRight,choiceAccurate,reward,chosenPair,otherPair,triplet,surprise,0A belief,1A belief,2A belief,3A belief,0B belief,1B belief,2B belief,3B belief,0C belief,1C belief,2C belief,3C belief,0D belief,1D belief,2D belief,3D belief,beliefPairNorm,beliefOtherPairNorm,beliefPair,beliefOtherPair,lik,corrLik,rewardPE,update2,fitCBCsimpleRW_CBCdriftDiffusionLR_startBelief,fitCBCsimpleRW_CBCdriftDiffusionLR_alpha1,fitCBCsimpleRW_CBCdriftDiffusionLR_nonDecisionTime,fitCBCsimpleRW_CBCdriftDiffusionLR_weight,fitCBCsimpleRW_CBCdriftDiffusionLR_startingBoundary,fitCBCsimpleRW_CBCdriftDiffusionLR_startingPoint,fit_CBCsimpleRW_CBCdriftDiffusionLR_NLL
CBC_1117,CBC_1117_MSI_AV_v3_Vset2_Aset3_2024-06-12_14h56.14.456.csv,1,1,1,0,z,0,1,3,aud,A,63,1,1A,0A,0,1,b,2.43491850000282,1,0,0,0,1A,0A,A10,2.77258872223978,0.5,0.5,0.5,0.5,0.5,0.5,0.5,0.5,0.5,0.5,0.5,0.5,0.5,0.5,0.5,0.5,0.5,0.5,0.5,0.5,0.172617293471823,0.50135650521549,-0.5,-0.5,0.5,1,1.09010198352175,0.0129627677544619,2.75662529732422,0.5,82.1049600029042
CBC_1117,CBC_1117_MSI_AV_v3_Vset2_Aset3_2024-06-12_14h56.14.456.csv,1,2,3,2,b,1,0,1,aud,D,63,1,3D,2D,1,0,z,2.28218080000079,0,1,0,0,2D,3D,D32,2.83321334405622,0.5,0,0.5,0.5,0.5,0.5,0.5,0.5,0.5,0.5,0.5,0.5,0.5,0.5,0.5,0.5,0.5,0.5,0.5,0.5,0.189603883982059,0.500377609388206,-0.5,-0.5,0.5,1,1.09010198352175,0.0129627677544619,2.75662529732422,0.5,82.1049600029042
CBC_1117,CBC_1117_MSI_AV_v3_Vset2_Aset3_2024-06-12_14h56.14.456.csv,1,3,2,0,b,1,0,0,aud,C,27,1,2C,0C,1,0,b,2.96984540000267,1,0,1,1,2C,0C,C20,2.89037175789616,0.5,0,0.5,0.5,0.5,0.5,0.5,0.5,0.5,0.5,0.5,0.5,0.5,0.5,0,0.5,0.5,0.5,0.5,0.5,0.121696283809779,0.498971484434615,0.5,0.5,0.5,1,1.09010198352175,0.0129627677544619,2.75662529732422,0.5,82.1049600029042
CBC_1117,CBC_1117_MSI_AV_v3_Vset2_Aset3_2024-06-12_14h56.14.456.csv,1,4,1,0,z,0,1,3,aud,A,63,1,1A,0A,0,1,z,2.71482390000892,0,1,1,1,0A,1A,A10,2.2512917986065,0.5,0,0.5,0.5,0.5,0.5,0.5,0.5,0.5,0.5,1,0.5,0.5,0.5,0,0.5,1,0,0.5,0,0.146578677139717,0.509495328625577,0.5,0.5,0.5,1,1.09010198352175,0.0129627677544619,2.75662529732422,0.5,82.1049600029042
CBC_1117,CBC_1117_MSI_AV_v3_Vset2_Aset3_2024-06-12_14h56.14.456.csv,1,5,3,1,z,0,1,2,aud,B,27,1,3B,1B,0,1,b,2.30840790001093,1,0,0,0,3B,1B,B31,2.99573227355399,1,0,0.5,0.5,0.5,0.5,0.5,0.5,0.5,0.5,1,0.5,0.5,0.5,0,0.5,0.5,0.5,0.5,0.5,0.186322962463727,0.499773066601281,-0.5,-0.5,0.5,1,1.09010198352175,0.0129627677544619,2.75662529732422,0.5,82.1049600029042
CBC_1117,CBC_1117_MSI_AV_v3_Vset2_Aset3_2024-06-12_14h56.14.456.csv,1,6,2,3,b,1,0,0,aud,C,63,1,2C,3C,1,0,z,2.67990440000722,0,1,0,0,3C,2C,C23,3.04452243772342,1,0,0.5,0.5,0.5,0.5,0.5,0,0.5,0.5,1,0.5,0.5,0.5,0,0.5,0.333333333333333,0.666666666666667,0.5,1,0.146224158147093,0.49694247048678,-0.5,-0.5,0.5,1,1.09010198352175,0.0129627677544619,2.75662529732422,0.5,82.1049600029042
CBC_1117,CBC_1117_MSI_AV_v3_Vset2_Aset3_2024-06-12_14h56.14.456.csv,1,7,2,3,z,0,1,1,aud,D,63,0,2D,3D,1,0,b,2.26971880000201,1,0,0,1,2D,3D,D23,3.09104245335832,1,0,0.5,0.5,0.5,0.5,0.5,0,0.5,0.5,1,0,0.5,0.5,0,0.5,0,1,0,0.5,0.187559617405593,0.491166625283758,1,1,0.5,1,1.09010198352175,0.0129627677544619,2.75662529732422,0.5,82.1049600029042
CBC_1117,CBC_1117_MSI_AV_v3_Vset2_Aset3_2024-06-12_14h56.14.456.csv,1,8,1,0,b,1,0,2,aud,B,63,1,1B,0B,1,0,b,2.35428580000007,1,0,1,1,1B,0B,B10,3.13549421592915,1,0,0.5,0.5,0.5,0.5,0.5,0,0.5,0.5,1,0,0.5,0.5,1,0.5,0.5,0.5,0.5,0.5,0.181630734315536,0.50134799777148,0.5,0.5,0.5,1,1.09010198352175,0.0129627677544619,2.75662529732422,0.5,82.1049600029042
CBC_1117,CBC_1117_MSI_AV_v3_Vset2_Aset3_2024-06-12_14h56.14.456.csv,1,9,0,2,b,1,0,3,aud,A,27,1,0A,2A,1,0,z,2.61638920000405,0,1,0,0,2A,0A,A02,3.17805383034795,1,0,0.5,0.5,0.5,1,0.5,0,0.5,0.5,1,0,0.5,0.5,1,0.5,0.333333333333333,0.666666666666667,0.5,1,0.152385928080356,0.497107560737678,-0.5,-0.5,0.5,1,1.09010198352175,0.0129627677544619,2.75662529732422,0.5,82.1049600029042
CBC_1117,CBC_1117_MSI_AV_v3_Vset2_Aset3_2024-06-12_14h56.14.456.csv,1,10,0,3,z,0,1,1,aud,D,9,1,0D,3D,0,1,z,2.25528720000875,0,1,1,1,3D,0D,D03,3.2188758248682,1,0,0,0.5,0.5,1,0.5,0,0.5,0.5,1,0,0.5,0.5,1,0.5,0.5,0.5,0.5,0.5,0.19288200562578,0.500678848844834,0.5,0.5,0.5,1,1.09010198352175,0.0129627677544619,2.75662529732422,0.5,82.1049600029042
CBC_1117,CBC_1117_MSI_AV_v3_Vset2_Aset3_2024-06-12_14h56.14.456.csv,1,11,3,2,z,0,1,0,aud,C,63,1,3C,2C,0,1,b,2.70840130001307,1,0,0,0,3C,2C,C32,3.25809653802148,1,0,0,0.5,0.5,1,0.5,0,0.5,0.5,1,0,0.5,0.5,1,1,0,1,0,1,0.14175811920935,0.490699626754663,0,0,0.5,1,1.09010198352175,0.0129627677544619,2.75662529732422,0.5,82.1049600029042
CBC_1117,CBC_1117_MSI_AV_v3_Vset2_Aset3_2024-06-12_14h56.14.456.csv,1,12,1,0,b,1,0,2,aud,B,63,1,1B,0B,1,0,b,2.38295860000653,1,0,1,1,1B,0B,B10,2.60268968544438,1,0,0,0.5,0.5,1,0.5,0,0.5,0.5,1,0,0.5,0.5,1,1,0.666666666666667,0.333333333333333,1,0.5,0.178591199948134,0.501928444835618,0,0,0.5,1,1.09010198352175,0.0129627677544619,2.75662529732422,0.5,82.1049600029042
CBC_1117,CBC_1117_MSI_AV_v3_Vset2_Aset3_2024-06-12_14h56.14.456.csv,1,13,3,2,b,1,0,1,aud,D,63,1,3D,2D,1,0,z,2.27358030001051,0,1,0,0,2D,3D,D32,2.63905732961526,1,0,0,0.5,0.5,1,0.5,0,0.5,0.5,1,0,0.5,0.5,1,1,0.5,0.5,1,1,0.190647954372126,0.500471747325243,-1,-1,0.5,1,1.09010198352175,0.0129627677544619,2.75662529732422,0.5,82.1049600029042
CBC_1117,CBC_1117_MSI_AV_v3_Vset2_Aset3_2024-06-12_14h56.14.456.csv,1,14,3,2,z,0,1,0,aud,C,63,1,3C,2C,0,1,b,2.61969659999886,1,0,0,0,3C,2C,C32,2.67414864942653,1,0,0,0.5,0.5,1,0.5,0,0.5,0.5,1,0,0.5,0.5,0,1,0,1,0,1,0.150200372998091,0.491008552094381,0,0,0.5,1,1.09010198352175,0.0129627677544619,2.75662529732422,0.5,82.1049600029042
CBC_1117,CBC_1117_MSI_AV_v3_Vset2_Aset3_2024-06-12_14h56.14.456.csv,1,15,1,3,b,1,0,2,aud,B,27,1,1B,3B,1,0,z,2.33633890000056,0,1,0,0,3B,1B,B13,3.40119738166216,1,0,0,0.5,0.5,1,0.5,0,0.5,0.5,1,0,0.5,0.5,0,1,0,1,0,1,0.180199692436618,0.491815920207231,0,0,0.5,1,1.09010198352175,0.0129627677544619,2.75662529732422,0.5,82.1049600029042
CBC_1117,CBC_1117_MSI_AV_v3_Vset2_Aset3_2024-06-12_14h56.14.456.csv,1,16,3,0,z,0,1,3,aud,A,9,1,3A,0A,0,1,z,2.39752929999668,0,1,1,1,0A,3A,A30,3.43398720448515,1,0,0,0.5,0.5,1,0.5,0,0.5,0.5,1,0,0.5,0.5,0,1,0.666666666666667,0.333333333333333,1,0.5,0.176871911315876,0.501689369842516,0,0,0.5,1,1.09010198352175,0.0129627677544619,2.75662529732422,0.5,82.1049600029042
CBC_1117,CBC_1117_MSI_AV_v3_Vset2_Aset3_2024-06-12_14h56.14.456.csv,1,17,3,2,b,1,0,1,aud,D,63,1,3D,2D,1,0,z,2.99525269999867,0,1,0,0,2D,3D,D32,2.36712361413162,1,0,0,0.5,0.5,1,0.5,0,0.5,0.5,1,0,0.5,0.5,0,1,0,1,0,1,0.117675939605378,0.490504222300001,0,0,0.5,1,1.09010198352175,0.0129627677544619,2.75662529732422,0.5,82.1049600029042
CBC_1117,CBC_1117_MSI_AV_v3_Vset2_Aset3_2024-06-12_14h56.14.456.csv,1,18,2,0,b,1,0,0,aud,C,27,1,2C,0C,1,0,b,2.45746980000695,1,0,1,1,2C,0C,C20,2.80336038090653,1,0,0,0.5,0.5,1,0.5,0,0.5,0.5,1,0,0.5,0.5,0,1,0.666666666666667,0.333333333333333,1,0.5,0.170423960598351,0.502133375137395,0,0,0.5,1,1.09010198352175,0.0129627677544619,2.75662529732422,0.5,82.1049600029042
CBC_1117,CBC_1117_MSI_AV_v3_Vset2_Aset3_2024-06-12_14h56.14.456.csv,1,19,1,0,z,0,1,3,aud,A,63,1,1A,0A,0,1,b,2.99938950000796,1,0,0,0,1A,0A,A10,2.42774823594805,1,0,0,0.5,0.5,1,0.5,0,0.5,0.5,1,0,0.5,0.5,0,1,0,1,0,1,0.117587766894803,0.491453723197036,0,0,0.5,1,1.09010198352175,0.0129627677544619,2.75662529732422,0.5,82.1049600029042
CBC_1117,CBC_1117_MSI_AV_v3_Vset2_Aset3_2024-06-12_14h56.14.456.csv,1,20,0,1,z,0,1,2,aud,B,63,0,0B,1B,1,0,z,2.21366349999153,0,1,1,0,1B,0B,B01,3.55534806148941,1,0,0,0.5,0.5,1,0.5,0,0.5,0.5,1,0,0.5,0.5,0,1,0.666666666666667,0.333333333333333,1,0.5,0.198735549127794,0.502974343889129,-1,-1,0.5,1,1.09010198352175,0.0129627677544619,2.75662529732422,0.5,82.1049600029042
CBC_1117,CBC_1117_MSI_AV_v3_Vset2_Aset3_2024-06-12_14h56.14.456.csv,1,21,1,3,z,0,1,1,aud,D,27,1,1D,3D,0,1,z,2.11574300000211,0,1,1,1,3D,1D,D13,3.58351893845611,1,0,0,0.5,0.5,0,0.5,0,0.5,0.5,1,0,0.5,0.5,0,1,0.666666666666667,0.333333333333333,1,0.5,0.21102518773116,0.504120297596863,0,0,0.5,1,1.09010198352175,0.0129627677544619,2.75662529732422,0.5,82.1049600029042
CBC_1117,CBC_1117_MSI_AV_v3_Vset2_Aset3_2024-06-12_14h56.14.456.csv,1,22,2,3,b,1,0,0,aud,C,63,1,2C,3C,1,0,z,2.56500510001206,0,1,0,0,3C,2C,C23,2.91777073208428,1,0,0,0.5,0.5,0,0.5,0,0.5,0.5,1,0,0.5,0.5,0,1,0,1,0,1,0.155647779387967,0.491232007131293,0,0,0.5,1,1.09010198352175,0.0129627677544619,2.75662529732422,0.5,82.1049600029042
CBC_1117,CBC_1117_MSI_AV_v3_Vset2_Aset3_2024-06-12_14h56.14.456.csv,1,23,1,0,b,1,0,2,aud,B,63,1,1B,0B,1,0,b,3.61883860001399,1,0,1,1,1B,0B,B10,2.53897387105828,1,0,0,0.5,0.5,0,0.5,0,0.5,0.5,1,0,0.5,0.5,0,1,0,1,0,0.5,0.0786260730441947,0.491305334361779,1,1,0.5,1,1.09010198352175,0.0129627677544619,2.75662529732422,0.5,82.1049600029042
CBC_1117,CBC_1117_MSI_AV_v3_Vset2_Aset3_2024-06-12_14h56.14.456.csv,1,24,2,0,z,0,1,3,aud,A,27,1,2A,0A,0,1,b,2.56757440000365,1,0,0,0,2A,0A,A20,3.66356164612965,1,0,0,0.5,0.5,1,0.5,0,0.5,0.5,1,0,0.5,0.5,0,1,0,1,0,1,0.155472160301915,0.491488997037948,0,0,0.5,1,1.09010198352175,0.0129627677544619,2.75662529732422,0.5,82.1049600029042
CBC_1117,CBC_1117_MSI_AV_v3_Vset2_Aset3_2024-06-12_14h56.14.456.csv,1,25,2,3,z,0,1,1,aud,D,63,1,2D,3D,0,1,b,3.41704649999156,1,0,0,0,2D,3D,D23,2.99573227355399,1,0,0,0.5,0.5,1,0.5,0,0.5,0.5,1,0,0.5,0.5,0,1,0,1,0,1,0.0896193286403938,0.491216344681947,0,0,0.5,1,1.09010198352175,0.0129627677544619,2.75662529732422,0.5,82.1049600029042
CBC_1117,CBC_1117_MSI_AV_v3_Vset2_Aset3_2024-06-12_14h56.14.456.csv,1,26,2,0,b,1,0,0,aud,C,27,1,2C,0C,1,0,z,3.22349440000835,0,1,0,0,0C,2C,C20,2.6149597780362,1,0,0,0.5,0.5,1,0.5,0,0.5,0.5,1,0,0.5,0.5,0,1,0.333333333333333,0.666666666666667,0.5,1,0.103240366622396,0.499034382419288,-0.5,-0.5,0.5,1,1.09010198352175,0.0129627677544619,2.75662529732422,0.5,82.1049600029042
CBC_1117,CBC_1117_MSI_AV_v3_Vset2_Aset3_2024-06-12_14h56.14.456.csv,1,27,1,0,b,1,0,2,aud,B,63,1,1B,0B,1,0,b,3.19418590000714,1,0,1,1,1B,0B,B10,2.35137525716348,1,0,0,0.5,0.5,1,0.5,0,0,0.5,1,0,0.5,0.5,0,1,0.666666666666667,0.333333333333333,1,0.5,0.105969618705881,0.502574183253709,0,0,0.5,1,1.09010198352175,0.0129627677544619,2.75662529732422,0.5,82.1049600029042
CBC_1117,CBC_1117_MSI_AV_v3_Vset2_Aset3_2024-06-12_14h56.14.456.csv,1,28,0,1,b,1,0,3,aud,A,63,1,0A,1A,1,0,b,3.80754840000009,1,0,1,1,0A,1A,A01,3.76120011569356,1,0,0,0.5,0.5,1,0.5,0,0,0.5,1,0,0.5,0.5,0,1,1,0,1,0,0.0721543648244102,0.50966086130478,0,0,0.5,1,1.09010198352175,0.0129627677544619,2.75662529732422,0.5,82.1049600029042
CBC_1117,CBC_1117_MSI_AV_v3_Vset2_Aset3_2024-06-12_14h56.14.456.csv,1,29,3,2,z,0,1,0,aud,C,63,0,3C,2C,1,0,b,3.05727080001088,1,0,0,1,3C,2C,C32,2.68557734525015,1,0,0,0.5,0.5,1,0.5,0,0,0.5,1,0,0.5,0.5,0,1,0,1,0,1,0.113254485727118,0.491457039228081,1,1,0.5,1,1.09010198352175,0.0129627677544619,2.75662529732422,0.5,82.1049600029042
CBC_1117,CBC_1117_MSI_AV_v3_Vset2_Aset3_2024-06-12_14h56.14.456.csv,1,30,3,1,b,1,0,1,aud,D,27,1,3D,1D,1,0,z,2.81084760000522,0,1,0,0,1D,3D,D31,3.80666248977032,1,0,0,0.5,0.5,1,0.5,0,0,0.5,1,1,0.5,0.5,0,1,0.333333333333333,0.666666666666667,0.5,1,0.133990922121167,0.495593688345262,-0.5,-0.5,0.5,1,1.09010198352175,0.0129627677544619,2.75662529732422,0.5,82.1049600029042
CBC_1117,CBC_1117_MSI_AV_v3_Vset2_Aset3_2024-06-12_14h56.14.456.csv,1,31,1,0,z,0,1,3,aud,A,63,1,1A,0A,0,1,z,2.54970950001734,0,1,1,1,0A,1A,A10,2.4423470353692,1,0,0,0.5,0.5,1,0.5,0,0,0.5,1,1,0.5,0,0,1,1,0,1,0,0.163045043911608,0.509547651484688,0,0,0.5,1,1.09010198352175,0.0129627677544619,2.75662529732422,0.5,82.1049600029042
CBC_1117,CBC_1117_MSI_AV_v3_Vset2_Aset3_2024-06-12_14h56.14.456.csv,1,32,3,2,b,1,0,1,aud,D,63,1,3D,2D,1,0,z,3.12723610001558,0,1,0,0,2D,3D,D32,2.46385324059017,1,0,0,0.5,0.5,1,0.5,0,0,0.5,1,1,0.5,0,0,1,0,1,0,1,0.1081139477178,0.490944917712912,0,0,0.5,1,1.09010198352175,0.0129627677544619,2.75662529732422,0.5,82.1049600029042
CBC_1117,CBC_1117_MSI_AV_v3_Vset2_Aset3_2024-06-12_14h56.14.456.csv,1,33,2,1,z,0,1,2,aud,B,9,1,2B,1B,0,1,b,2.9302280999982,1,0,0,0,2B,1B,B21,3.87120101090789,1,0,0,0.5,0.5,1,0.5,0,0,0.5,1,1,0.5,0,0,1,0.333333333333333,0.666666666666667,0.5,1,0.124312546526545,0.496771689667367,-0.5,-0.5,0.5,1,1.09010198352175,0.0129627677544619,2.75662529732422,0.5,82.1049600029042
CBC_1117,CBC_1117_MSI_AV_v3_Vset2_Aset3_2024-06-12_14h56.14.456.csv,1,34,1,0,z,0,1,3,aud,A,63,1,1A,0A,0,1,b,3.28956889999972,1,0,0,0,1A,0A,A10,2.28238238567653,1,0,0,0.5,0.5,1,0,0,0,0.5,1,1,0.5,0,0,1,0,1,0,1,0.096951735053885,0.489194701350207,0,0,0.5,1,1.09010198352175,0.0129627677544619,2.75662529732422,0.5,82.1049600029042
CBC_1117,CBC_1117_MSI_AV_v3_Vset2_Aset3_2024-06-12_14h56.14.456.csv,1,35,2,1,b,1,0,0,aud,C,9,1,2C,1C,1,0,z,3.02159380000376,0,1,0,0,1C,2C,C21,3.91202300542815,1,0,0,0.5,0.5,1,0,0,0,0.5,1,1,0.5,0,0,1,0.333333333333333,0.666666666666667,0.5,1,0.117387309287336,0.497733332206203,-0.5,-0.5,0.5,1,1.09010198352175,0.0129627677544619,2.75662529732422,0.5,82.1049600029042
CBC_1117,CBC_1117_MSI_AV_v3_Vset2_Aset3_2024-06-12_14h56.14.456.csv,1,36,1,0,b,1,0,2,aud,B,63,1,1B,0B,1,0,b,2.26918920000026,1,0,1,1,1B,0B,B10,2.32238772029023,1,0,0,0.5,0.5,1,0,0,0,0,1,1,0.5,0,0,1,0.666666666666667,0.333333333333333,1,0.5,0.192183422572982,0.503137163804724,0,0,0.5,1,1.09010198352175,0.0129627677544619,2.75662529732422,0.5,82.1049600029042
CBC_1117,CBC_1117_MSI_AV_v3_Vset2_Aset3_2024-06-12_14h56.14.456.csv,1,37,0,1,b,1,0,3,aud,A,63,0,0A,1A,0,1,b,2.5793898999982,1,0,1,0,0A,1A,A01,3.25809653802148,1,0,0,0.5,0.5,1,0,0,0,0,1,1,0.5,0,0,1,1,0,1,0,0.159654042101116,0.508554675831769,-1,-1,0.5,1,1.09010198352175,0.0129627677544619,2.75662529732422,0.5,82.1049600029042
CBC_1117,CBC_1117_MSI_AV_v3_Vset2_Aset3_2024-06-12_14h56.14.456.csv,1,38,0,1,z,0,1,2,aud,B,63,1,0B,1B,0,1,b,1.79900710000948,1,0,0,0,0B,1B,B01,3.27714473299218,0,0,0,0.5,0.5,1,0,0,0,0,1,1,0.5,0,0,1,0.333333333333333,0.666666666666667,0.5,1,0.23924724809915,0.495882471731983,-0.5,-0.5,0.5,1,1.09010198352175,0.0129627677544619,2.75662529732422,0.5,82.1049600029042
CBC_1117,CBC_1117_MSI_AV_v3_Vset2_Aset3_2024-06-12_14h56.14.456.csv,1,39,1,3,z,0,1,1,aud,D,27,1,1D,3D,0,1,b,2.37609800000791,1,0,0,0,1D,3D,D13,3.29583686600433,0,0,0,0.5,0,1,0,0,0,0,1,1,0.5,0,0,1,0,1,0,1,0.175849733514571,0.492072842021725,0,0,0.5,1,1.09010198352175,0.0129627677544619,2.75662529732422,0.5,82.1049600029042
CBC_1117,CBC_1117_MSI_AV_v3_Vset2_Aset3_2024-06-12_14h56.14.456.csv,1,40,3,2,z,0,1,0,aud,C,63,1,3C,2C,0,1,z,2.2372325000033,0,1,1,1,2C,3C,C32,2.62103882411258,0,0,0,0.5,0,1,0,0,0,0,1,1,0.5,0,0,1,0.5,0.5,1,1,0.194477187782949,0.49928380146243,0,0,0.5,1,1.09010198352175,0.0129627677544619,2.75662529732422,0.5,82.1049600029042
CBC_1117,CBC_1117_MSI_AV_v3_Vset2_Aset3_2024-06-12_14h56.14.456.csv,1,41,0,2,b,1,0,3,aud,A,27,1,0A,2A,1,0,b,2.58216900000116,1,0,1,1,0A,2A,A02,3.3322045101752,0,0,0,0.5,0,1,0,0,0,0,1,1,0.5,0,0,1,NaN,NaN,0,0,NaN,NaN,1,1,0.5,1,1.09010198352175,0.0129627677544619,2.75662529732422,0.5,82.1049600029042
CBC_1117,CBC_1117_MSI_AV_v3_Vset2_Aset3_2024-06-12_14h56.14.456.csv,1,42,2,3,z,0,1,1,aud,D,63,1,2D,3D,0,1,b,2.1471726000018,1,0,0,0,2D,3D,D23,2.94443897916644,1,0,0,0.5,0,1,0,0,0,0,1,1,0.5,0,0,1,0,1,0,1,0.201621080200654,0.490463338218384,0,0,0.5,1,1.09010198352175,0.0129627677544619,2.75662529732422,0.5,82.1049600029042
CBC_1117,CBC_1117_MSI_AV_v3_Vset2_Aset3_2024-06-12_14h56.14.456.csv,1,43,1,3,b,1,0,2,aud,B,27,1,1B,3B,1,0,b,2.40605580000556,1,0,1,1,1B,3B,B13,3.36729582998647,1,0,0,0.5,0,1,0,0,0,0,1,1,0.5,0,0,1,1,0,1,0,0.178374826668003,0.508664591190252,0,0,0.5,1,1.09010198352175,0.0129627677544619,2.75662529732422,0.5,82.1049600029042
CBC_1117,CBC_1117_MSI_AV_v3_Vset2_Aset3_2024-06-12_14h56.14.456.csv,1,44,3,2,z,0,1,0,aud,C,63,1,3C,2C,0,1,z,2.89676110001164,0,1,1,1,2C,3C,C32,2.46809953147162,1,0,0,0.5,0,1,0,0,0,0,1,1,0.5,0,0,1,0.5,0.5,1,1,0.128054384110567,0.500743436408016,0,0,0.5,1,1.09010198352175,0.0129627677544619,2.75662529732422,0.5,82.1049600029042
CBC_1117,CBC_1117_MSI_TV_v3_Vset1_Tset2_2024-06-12_15h43.57.296.csv,2,1,0,1,z,0,1,2,tac,B,63,1,0B,1B,0,1,z,2.6157957999967,0,1,1,1,1B,0B,B01,2.77258872223978,0.5,0.5,0.5,0.5,0.5,0.5,0.5,0.5,0.5,0.5,0.5,0.5,0.5,0.5,0.5,0.5,0.5,0.5,0.5,0.5,0.145841039907656,0.499320595618315,0.5,0.180734650040704,0.5,0.361469300081409,1.01729033026992,2.01226596590376,2.89116863103529,0.5,72.8382011765881
CBC_1117,CBC_1117_MSI_TV_v3_Vset1_Tset2_2024-06-12_15h43.57.296.csv,2,2,1,0,z,0,1,3,tac,A,63,1,1A,0A,0,1,z,2.58193440000468,0,1,1,1,0A,1A,A10,2.83321334405622,0.5,0.5,0.5,0.5,0.5,0.680734650040704,0.5,0.5,0.5,0.5,0.5,0.5,0.5,0.5,0.5,0.5,0.5,0.5,0.5,0.5,0.149077416180032,0.500436422179855,0.5,0.180734650040704,0.5,0.361469300081409,1.01729033026992,2.01226596590376,2.89116863103529,0.5,72.8382011765881
CBC_1117,CBC_1117_MSI_TV_v3_Vset1_Tset2_2024-06-12_15h43.57.296.csv,2,3,2,1,b,1,0,0,tac,C,9,1,2C,1C,1,0,b,2.44779780000681,1,0,1,1,2C,1C,C21,2.89037175789616,0.680734650040704,0.5,0.5,0.5,0.5,0.680734650040704,0.5,0.5,0.5,0.5,0.5,0.5,0.5,0.5,0.5,0.5,0.5,0.5,0.5,0.5,0.16092435605796,0.499896932068613,0.5,0.180734650040704,0.5,0.361469300081409,1.01729033026992,2.01226596590376,2.89116863103529,0.5,72.8382011765881
CBC_1117,CBC_1117_MSI_TV_v3_Vset1_Tset2_2024-06-12_15h43.57.296.csv,2,4,0,1,b,1,0,3,tac,A,63,1,0A,1A,1,0,b,3.77927009999985,1,0,1,1,0A,1A,A01,2.94443897916644,0.680734650040704,0.5,0.5,0.5,0.5,0.680734650040704,0.5,0.5,0.5,0.5,0.680734650040704,0.5,0.5,0.5,0.5,0.5,0.576534829410856,0.423465170589144,0.680734650040704,0.5,0.100792329272863,0.70924633159611,0.319265349959296,0.115404622590033,0.5,0.361469300081409,1.01729033026992,2.01226596590376,2.89116863103529,0.5,72.8382011765881
CBC_1117,CBC_1117_MSI_TV_v3_Vset1_Tset2_2024-06-12_15h43.57.296.csv,2,5,1,3,z,0,1,1,tac,D,27,1,1D,3D,0,1,b,2.70191459999478,1,0,0,0,1D,3D,D13,2.99573227355399,0.796139272630737,0.5,0.5,0.5,0.5,0.680734650040704,0.5,0.5,0.5,0.5,0.680734650040704,0.5,0.5,0.5,0.5,0.5,0.5,0.5,0.5,0.5,0.138685968289694,0.499324794213858,-0.5,-0.180734650040704,0.5,0.361469300081409,1.01729033026992,2.01226596590376,2.89116863103529,0.5,72.8382011765881
CBC_1117,CBC_1117_MSI_TV_v3_Vset1_Tset2_2024-06-12_15h43.57.296.csv,2,6,1,0,b,1,0,2,tac,B,63,1,1B,0B,1,0,b,2.09578479999618,1,0,1,1,1B,0B,B10,3.04452243772342,0.796139272630737,0.5,0.5,0.5,0.5,0.680734650040704,0.5,0.5,0.5,0.5,0.680734650040704,0.5,0.5,0.319265349959296,0.5,0.5,0.576534829410856,0.423465170589144,0.680734650040704,0.5,0.289579257101966,0.709238909896385,0.319265349959296,0.115404622590033,0.5,0.361469300081409,1.01729033026992,2.01226596590376,2.89116863103529,0.5,72.8382011765881
CBC_1117,CBC_1117_MSI_TV_v3_Vset1_Tset2_2024-06-12_15h43.57.296.csv,2,7,3,2,z,0,1,0,tac,C,63,1,3C,2C,0,1,z,2.53614870000456,0,1,1,1,2C,3C,C32,3.09104245335832,0.796139272630737,0.5,0.5,0.5,0.5,0.796139272630737,0.5,0.5,0.5,0.5,0.680734650040704,0.5,0.5,0.319265349959296,0.5,0.5,0.576534829410856,0.423465170589144,0.680734650040704,0.5,0.222322353784227,0.709450159339234,0.319265349959296,0.115404622590033,0.5,0.361469300081409,1.01729033026992,2.01226596590376,2.89116863103529,0.5,72.8382011765881
CBC_1117,CBC_1117_MSI_TV_v3_Vset1_Tset2_2024-06-12_15h43.57.296.csv,2,8,0,2,b,1,0,3,tac,A,27,1,0A,2A,1,0,b,3.2732560000004,1,0,1,1,0A,2A,A02,3.13549421592915,0.796139272630737,0.5,0.5,0.5,0.5,0.796139272630737,0.5,0.5,0.5,0.5,0.796139272630737,0.5,0.5,0.319265349959296,0.5,0.5,0.614238986073492,0.385761013926508,0.796139272630737,0.5,0.151919122004058,0.790617164545325,0.203860727369263,0.0736893944362544,0.5,0.361469300081409,1.01729033026992,2.01226596590376,2.89116863103529,0.5,72.8382011765881
CBC_1117,CBC_1117_MSI_TV_v3_Vset1_Tset2_2024-06-12_15h43.57.296.csv,2,9,2,3,z,0,1,1,tac,D,63,1,2D,3D,0,1,z,3.66393529999186,0,1,1,1,3D,2D,D23,3.17805383034795,0.869828667066991,0.5,0.5,0.5,0.5,0.796139272630737,0.5,0.5,0.5,0.5,0.796139272630737,0.5,0.5,0.319265349959296,0.5,0.5,0.5,0.5,0.5,0.5,0.078664787308823,0.499269705937478,0.5,0.180734650040704,0.5,0.361469300081409,1.01729033026992,2.01226596590376,2.89116863103529,0.5,72.8382011765881
CBC_1117,CBC_1117_MSI_TV_v3_Vset1_Tset2_2024-06-12_15h43.57.296.csv,2,10,1,3,b,1,0,2,tac,B,27,1,1B,3B,1,0,b,1.96781260000716,1,0,1,1,1B,3B,B13,3.2188758248682,0.869828667066991,0.5,0.5,0.5,0.5,0.796139272630737,0.5,0.5,0.5,0.5,0.796139272630737,0.5,0.5,0.319265349959296,0.5,0.680734650040704,0.614238986073492,0.385761013926508,0.796139272630737,0.5,0.363693699327243,0.789958358312366,0.203860727369263,0.0736893944362544,0.5,0.361469300081409,1.01729033026992,2.01226596590376,2.89116863103529,0.5,72.8382011765881
CBC_1117,CBC_1117_MSI_TV_v3_Vset1_Tset2_2024-06-12_15h43.57.296.csv,2,11,2,3,b,1,0,0,tac,C,63,1,2C,3C,1,0,b,2.45627300000342,1,0,1,1,2C,3C,C23,3.25809653802148,0.869828667066991,0.5,0.5,0.5,0.5,0.869828667066991,0.5,0.5,0.5,0.5,0.796139272630737,0.5,0.5,0.319265349959296,0.5,0.680734650040704,0.614238986073492,0.385761013926508,0.796139272630737,0.5,0.267542563208548,0.791001026085931,0.203860727369263,0.0736893944362544,0.5,0.361469300081409,1.01729033026992,2.01226596590376,2.89116863103529,0.5,72.8382011765881
CBC_1117,CBC_1117_MSI_TV_v3_Vset1_Tset2_2024-06-12_15h43.57.296.csv,2,12,3,1,z,0,1,2,tac,B,27,1,3B,1B,0,1,z,1.72713220000151,0,1,1,1,1B,3B,B31,3.29583686600433,0.869828667066991,0.5,0.5,0.5,0.5,0.869828667066991,0.5,0.5,0.5,0.5,0.869828667066991,0.5,0.5,0.319265349959296,0.5,0.680734650040704,0.634990848110534,0.365009151889466,0.869828667066991,0.5,0.436452248950992,0.827363586568633,0.130171332933009,0.0470529406059587,0.5,0.361469300081409,1.01729033026992,2.01226596590376,2.89116863103529,0.5,72.8382011765881
CBC_1117,CBC_1117_MSI_TV_v3_Vset1_Tset2_2024-06-12_15h43.57.296.csv,2,13,2,3,b,1,0,0,tac,C,63,1,2C,3C,1,0,b,2.4219477000006,1,0,1,1,2C,3C,C23,2.63905732961526,0.869828667066991,0.5,0.5,0.5,0.5,0.91688160767295,0.5,0.5,0.5,0.5,0.869828667066991,0.5,0.5,0.319265349959296,0.5,0.680734650040704,0.634990848110534,0.365009151889466,0.869828667066991,0.5,0.290851735730056,0.827163810973074,0.130171332933009,0.0470529406059587,0.5,0.361469300081409,1.01729033026992,2.01226596590376,2.89116863103529,0.5,72.8382011765881
CBC_1117,CBC_1117_MSI_TV_v3_Vset1_Tset2_2024-06-12_15h43.57.296.csv,2,14,2,3,z,0,1,1,tac,D,63,1,2D,3D,0,1,z,3.38632750000397,0,1,1,1,3D,2D,D23,2.67414864942653,0.869828667066991,0.5,0.5,0.5,0.5,0.91688160767295,0.5,0.5,0.5,0.5,0.91688160767295,0.5,0.5,0.319265349959296,0.5,0.680734650040704,0.576534829410856,0.423465170589144,0.680734650040704,0.5,0.129247466910959,0.707608631461805,0.319265349959296,0.115404622590033,0.5,0.361469300081409,1.01729033026992,2.01226596590376,2.89116863103529,0.5,72.8382011765881
CBC_1117,CBC_1117_MSI_TV_v3_Vset1_Tset2_2024-06-12_15h43.57.296.csv,2,15,3,0,z,0,1,3,tac,A,9,1,3A,0A,0,1,z,2.68659990000015,0,1,1,1,0A,3A,A30,3.40119738166216,0.869828667066991,0.5,0.5,0.5,0.5,0.91688160767295,0.5,0.5,0.5,0.5,0.91688160767295,0.5,0.5,0.319265349959296,0.5,0.796139272630737,0.634990848110534,0.365009151889466,0.869828667066991,0.5,0.240334599663954,0.828268282678919,0.130171332933009,0.0470529406059587,0.5,0.361469300081409,1.01729033026992,2.01226596590376,2.89116863103529,0.5,72.8382011765881
CBC_1117,CBC_1117_MSI_TV_v3_Vset1_Tset2_2024-06-12_15h43.57.296.csv,2,16,1,0,b,1,0,2,tac,B,63,0,1B,0B,NaN,NaN,None,NaN,NaN,NaN,NaN,NaN,,,B10,2.7408400239252,0.91688160767295,0.5,0.5,0.5,0.5,0.91688160767295,0.5,0.5,0.5,0.5,0.91688160767295,0.5,0.5,0.319265349959296,0.5,0.796139272630737,0,0,0,0,NaN,0,0,0,0.5,0.361469300081409,1.01729033026992,2.01226596590376,2.89116863103529,0.5,72.8382011765881
CBC_1117,CBC_1117_MSI_TV_v3_Vset1_Tset2_2024-06-12_15h43.57.296.csv,2,17,3,2,b,1,0,1,tac,D,63,1,3D,2D,1,0,b,2.09340489999158,1,0,1,1,3D,2D,D32,3.46573590279973,0.91688160767295,0.5,0.5,0.5,0.5,0.91688160767295,0.5,0.5,0.5,0.5,0.91688160767295,0.5,0.5,0.319265349959296,0.5,0.796139272630737,0.614238986073492,0.385761013926508,0.796139272630737,0.5,0.339391458727339,0.791316756267258,0.203860727369263,0.0736893944362544,0.5,0.361469300081409,1.01729033026992,2.01226596590376,2.89116863103529,0.5,72.8382011765881
CBC_1117,CBC_1117_MSI_TV_v3_Vset1_Tset2_2024-06-12_15h43.57.296.csv,2,18,2,0,b,1,0,0,tac,C,27,1,2C,0C,1,0,b,2.35512909998943,1,0,1,1,2C,0C,C20,3.49650756146648,0.91688160767295,0.5,0.5,0.5,0.5,0.91688160767295,0.5,0.5,0.5,0.5,0.91688160767295,0.5,0.5,0.319265349959296,0.5,0.869828667066991,0.647112364722422,0.352887635277578,0.91688160767295,0.5,0.315984579171146,0.847278368399143,0.08311839232705,0.0300447470983507,0.5,0.361469300081409,1.01729033026992,2.01226596590376,2.89116863103529,0.5,72.8382011765881
CBC_1117,CBC_1117_MSI_TV_v3_Vset1_Tset2_2024-06-12_15h43.57.296.csv,2,19,1,0,z,0,1,3,tac,A,63,1,1A,0A,0,1,z,2.72702609999396,0,1,1,1,0A,1A,A10,2.83321334405622,0.91688160767295,0.5,0.5,0.5,0.5,0.91688160767295,0.5,0.5,0.5,0.5,0.946926354771301,0.5,0.5,0.319265349959296,0.5,0.869828667066991,0.647112364722422,0.352887635277578,0.91688160767295,0.5,0.238711872004638,0.847226654681808,0.08311839232705,0.0300447470983507,0.5,0.361469300081409,1.01729033026992,2.01226596590376,2.89116863103529,0.5,72.8382011765881
CBC_1117,CBC_1117_MSI_TV_v3_Vset1_Tset2_2024-06-12_15h43.57.296.csv,2,20,0,1,z,0,1,2,tac,B,63,1,0B,1B,0,1,b,2.5325989999983,1,0,0,0,0B,1B,B01,2.86220088092947,0.946926354771301,0.5,0.5,0.5,0.5,0.91688160767295,0.5,0.5,0.5,0.5,0.946926354771301,0.5,0.5,0.319265349959296,0.5,0.869828667066991,0.352887635277578,0.647112364722422,0.5,0.91688160767295,0.0500370510055862,0.153255782763269,-0.5,-0.180734650040704,0.5,0.361469300081409,1.01729033026992,2.01226596590376,2.89116863103529,0.5,72.8382011765881
CBC_1117,CBC_1117_MSI_TV_v3_Vset1_Tset2_2024-06-12_15h43.57.296.csv,2,21,3,1,b,1,0,1,tac,D,27,1,3D,1D,1,0,b,2.12630740000168,1,0,1,1,3D,1D,D31,3.58351893845611,0.946926354771301,0.5,0.5,0.5,0.319265349959296,0.91688160767295,0.5,0.5,0.5,0.5,0.946926354771301,0.5,0.5,0.319265349959296,0.5,0.869828667066991,0.731505376876993,0.268494623123007,0.869828667066991,0.319265349959296,0.456684560358987,0.936703523181521,0.130171332933009,0.0470529406059587,0.5,0.361469300081409,1.01729033026992,2.01226596590376,2.89116863103529,0.5,72.8382011765881
CBC_1117,CBC_1117_MSI_TV_v3_Vset1_Tset2_2024-06-12_15h43.57.296.csv,2,22,2,3,b,1,0,0,tac,C,63,1,2C,3C,1,0,b,2.53731929999776,1,0,1,1,2C,3C,C23,2.51230562397611,0.946926354771301,0.5,0.5,0.5,0.319265349959296,0.91688160767295,0.5,0.5,0.5,0.5,0.946926354771301,0.5,0.5,0.319265349959296,0.5,0.91688160767295,0.654439910952462,0.345560089047538,0.946926354771301,0.5,0.279907573452402,0.857834508576648,0.0530736452286993,0.0191844933935869,0.5,0.361469300081409,1.01729033026992,2.01226596590376,2.89116863103529,0.5,72.8382011765881
CBC_1117,CBC_1117_MSI_TV_v3_Vset1_Tset2_2024-06-12_15h43.57.296.csv,2,23,1,0,z,0,1,3,tac,A,63,1,1A,0A,0,1,z,2.36028599999554,0,1,1,1,0A,1A,A10,2.53897387105828,0.946926354771301,0.5,0.5,0.5,0.319265349959296,0.91688160767295,0.5,0.5,0.5,0.5,0.966110848164888,0.5,0.5,0.319265349959296,0.5,0.91688160767295,0.654439910952462,0.345560089047538,0.946926354771301,0.5,0.320220838110086,0.857156956999446,0.0530736452286993,0.0191844933935869,0.5,0.361469300081409,1.01729033026992,2.01226596590376,2.89116863103529,0.5,72.8382011765881
CBC_1117,CBC_1117_MSI_TV_v3_Vset1_Tset2_2024-06-12_15h43.57.296.csv,2,24,3,2,b,1,0,1,tac,D,63,1,3D,2D,1,0,b,2.332965900001,1,0,1,1,3D,2D,D32,2.9704144655697,0.966110848164888,0.5,0.5,0.5,0.319265349959296,0.91688160767295,0.5,0.5,0.5,0.5,0.966110848164888,0.5,0.5,0.319265349959296,0.5,0.91688160767295,0.647112364722422,0.352887635277578,0.91688160767295,0.5,0.321190928908576,0.847259254560817,0.08311839232705,0.0300447470983507,0.5,0.361469300081409,1.01729033026992,2.01226596590376,2.89116863103529,0.5,72.8382011765881
CBC_1117,CBC_1117_MSI_TV_v3_Vset1_Tset2_2024-06-12_15h43.57.296.csv,2,25,0,2,z,0,1,0,tac,C,27,1,0C,2C,0,1,z,3.05138319999969,0,1,1,1,2C,0C,C02,3.68887945411394,0.966110848164888,0.5,0.5,0.5,0.319265349959296,0.91688160767295,0.5,0.5,0.5,0.5,0.966110848164888,0.5,0.5,0.319265349959296,0.5,0.946926354771301,0.658961666762207,0.341038333237793,0.966110848164888,0.5,0.188065554082801,0.864406616021807,0.0338891518351123,0.0122498879941906,0.5,0.361469300081409,1.01729033026992,2.01226596590376,2.89116863103529,0.5,72.8382011765881
CBC_1117,CBC_1117_MSI_TV_v3_Vset1_Tset2_2024-06-12_15h43.57.296.csv,2,26,1,0,z,0,1,3,tac,A,63,1,1A,0A,0,1,z,3.91104440001072,0,1,1,1,0A,1A,A10,2.32727770558442,0.966110848164888,0.5,0.5,0.5,0.319265349959296,0.91688160767295,0.5,0.5,0.5,0.5,0.978360736159078,0.5,0.5,0.319265349959296,0.5,0.946926354771301,0.658961666762207,0.341038333237793,0.966110848164888,0.5,0.0949906114032871,0.863777592856045,0.0338891518351123,0.0122498879941906,0.5,0.361469300081409,1.01729033026992,2.01226596590376,2.89116863103529,0.5,72.8382011765881
CBC_1117,CBC_1117_MSI_TV_v3_Vset1_Tset2_2024-06-12_15h43.57.296.csv,2,27,3,1,z,0,1,2,tac,B,27,1,3B,1B,0,1,z,2.16758159999154,0,1,1,1,1B,3B,B31,3.04452243772342,0.978360736159078,0.5,0.5,0.5,0.319265349959296,0.91688160767295,0.5,0.5,0.5,0.5,0.978360736159078,0.5,0.5,0.319265349959296,0.5,0.946926354771301,0.647112364722422,0.352887635277578,0.91688160767295,0.5,0.361991300098158,0.847301194790089,0.08311839232705,0.0300447470983507,0.5,0.361469300081409,1.01729033026992,2.01226596590376,2.89116863103529,0.5,72.8382011765881
CBC_1117,CBC_1117_MSI_TV_v3_Vset1_Tset2_2024-06-12_15h43.57.296.csv,2,28,2,3,b,1,0,0,tac,C,63,1,2C,3C,1,0,b,2.6565694000019,1,0,1,1,2C,3C,C23,2.37490575457367,0.978360736159078,0.5,0.5,0.5,0.319265349959296,0.946926354771301,0.5,0.5,0.5,0.5,0.978360736159078,0.5,0.5,0.319265349959296,0.5,0.946926354771301,0.661787554437459,0.338212445562541,0.978360736159078,0.5,0.258260864535289,0.868012733225236,0.0216392638409216,0.00782192955485488,0.5,0.361469300081409,1.01729033026992,2.01226596590376,2.89116863103529,0.5,72.8382011765881
CBC_1117,CBC_1117_MSI_TV_v3_Vset1_Tset2_2024-06-12_15h43.57.296.csv,2,29,2,3,z,0,1,1,tac,D,63,1,2D,3D,0,1,b,2.41090489999624,1,0,0,0,2D,3D,D23,2.68557734525015,0.978360736159078,0.5,0.5,0.5,0.319265349959296,0.946926354771301,0.5,0.5,0.5,0.5,0.986182665713933,0.5,0.5,0.319265349959296,0.5,0.946926354771301,0.345560089047538,0.654439910952462,0.5,0.946926354771301,0.0509646075600743,0.141694290309509,-0.5,-0.180734650040704,0.5,0.361469300081409,1.01729033026992,2.01226596590376,2.89116863103529,0.5,72.8382011765881
CBC_1117,CBC_1117_MSI_TV_v3_Vset1_Tset2_2024-06-12_15h43.57.296.csv,2,30,1,0,b,1,0,2,tac,B,63,1,1B,0B,1,0,b,1.8681338000024,1,0,1,1,1B,0B,B10,2.70805020110221,0.978360736159078,0.5,0.5,0.5,0.319265349959296,0.946926354771301,0.5,0.5,0.5,0.5,0.986182665713933,0.5,0.5,0.319265349959296,0.319265349959296,0.946926354771301,0.747853860701745,0.252146139298255,0.946926354771301,0.319265349959296,0.595488798278489,0.946870798803308,0.0530736452286993,0.0191844933935869,0.5,0.361469300081409,1.01729033026992,2.01226596590376,2.89116863103529,0.5,72.8382011765881
CBC_1117,CBC_1117_MSI_TV_v3_Vset1_Tset2_2024-06-12_15h43.57.296.csv,2,31,0,2,b,1,0,3,tac,A,27,1,0A,2A,1,0,b,2.392855099999,1,0,1,1,0A,2A,A02,3.13549421592915,0.978360736159078,0.5,0.5,0.5,0.319265349959296,0.966110848164888,0.5,0.5,0.5,0.5,0.986182665713933,0.5,0.5,0.319265349959296,0.319265349959296,0.946926354771301,0.661787554437459,0.338212445562541,0.978360736159078,0.5,0.318035034107678,0.867876320194329,0.0216392638409216,0.00782192955485488,0.5,0.361469300081409,1.01729033026992,2.01226596590376,2.89116863103529,0.5,72.8382011765881
CBC_1117,CBC_1117_MSI_TV_v3_Vset1_Tset2_2024-06-12_15h43.57.296.csv,2,32,0,3,z,0,1,1,tac,D,9,1,0D,3D,0,1,z,3.51397169999836,0,1,1,1,3D,0D,D03,3.85014760171006,0.986182665713933,0.5,0.5,0.5,0.319265349959296,0.966110848164888,0.5,0.5,0.5,0.5,0.986182665713933,0.5,0.5,0.319265349959296,0.319265349959296,0.946926354771301,0.654439910952462,0.345560089047538,0.946926354771301,0.5,0.130495955061747,0.858034152310511,0.0530736452286993,0.0191844933935869,0.5,0.361469300081409,1.01729033026992,2.01226596590376,2.89116863103529,0.5,72.8382011765881
CBC_1117,CBC_1117_MSI_TV_v3_Vset1_Tset2_2024-06-12_15h43.57.296.csv,2,33,2,3,b,1,0,0,tac,C,63,1,2C,3C,1,0,b,1.17389859999821,1,0,1,1,2C,3C,C23,2.26176309847379,0.986182665713933,0.5,0.5,0.5,0.319265349959296,0.966110848164888,0.5,0.5,0.5,0.5,0.986182665713933,0.5,0.5,0.319265349959296,0.319265349959296,0.966110848164888,0.663567600716289,0.336432399283711,0.986182665713933,0.5,0.0294771810007398,0.870105667928276,0.0138173342860668,0.00499454215337542,0.5,0.361469300081409,1.01729033026992,2.01226596590376,2.89116863103529,0.5,72.8382011765881
CBC_1117,CBC_1117_MSI_TV_v3_Vset1_Tset2_2024-06-12_15h43.57.296.csv,2,34,1,0,b,1,0,2,tac,B,63,1,1B,0B,1,0,z,1.78264140000101,0,1,0,0,0B,1B,B10,2.50552593699074,0.986182665713933,0.5,0.5,0.5,0.319265349959296,0.966110848164888,0.5,0.5,0.5,0.5,0.991177207867309,0.5,0.5,0.319265349959296,0.319265349959296,0.966110848164888,0.248382808414545,0.751617191585455,0.319265349959296,0.966110848164888,0.0344209319977611,0.0509088862080412,-0.319265349959296,-0.115404622590033,0.5,0.361469300081409,1.01729033026992,2.01226596590376,2.89116863103529,0.5,72.8382011765881
CBC_1117,CBC_1117_MSI_TV_v3_Vset1_Tset2_2024-06-12_15h43.57.296.csv,2,35,1,0,z,0,1,3,tac,A,63,0,1A,0A,1,0,z,2.6672658000025,0,1,1,0,0A,1A,A10,2.30258509299405,0.986182665713933,0.5,0.5,0.5,0.203860727369263,0.966110848164888,0.5,0.5,0.5,0.5,0.991177207867309,0.5,0.5,0.319265349959296,0.319265349959296,0.966110848164888,0.663567600716289,0.336432399283711,0.986182665713933,0.5,0.256838831132892,0.870718787898353,-0.986182665713933,-0.356474757928033,0.5,0.361469300081409,1.01729033026992,2.01226596590376,2.89116863103529,0.5,72.8382011765881
CBC_1117,CBC_1117_MSI_TV_v3_Vset1_Tset2_2024-06-12_15h43.57.296.csv,2,36,3,2,b,1,0,1,tac,D,63,1,3D,2D,1,0,b,2.32955059999949,1,0,1,1,3D,2D,D32,2.83321334405622,0.6297079077859,0.5,0.5,0.5,0.203860727369263,0.966110848164888,0.5,0.5,0.5,0.5,0.991177207867309,0.5,0.5,0.319265349959296,0.319265349959296,0.966110848164888,0.751617191585455,0.248382808414545,0.966110848164888,0.319265349959296,0.379752702183871,0.94939114147081,0.0338891518351123,0.0122498879941906,0.5,0.361469300081409,1.01729033026992,2.01226596590376,2.89116863103529,0.5,72.8382011765881
CBC_1117,CBC_1117_MSI_TV_v3_Vset1_Tset2_2024-06-12_15h43.57.296.csv,2,37,2,1,z,0,1,2,tac,B,9,1,2B,1B,0,1,z,2.0702781,0,1,1,1,1B,2B,B21,3.95124371858143,0.6297079077859,0.5,0.5,0.5,0.203860727369263,0.966110848164888,0.5,0.5,0.5,0.5,0.991177207867309,0.5,0.5,0.319265349959296,0.319265349959296,0.978360736159078,0.658961666762207,0.341038333237793,0.966110848164888,0.5,0.402022386297345,0.864366800462127,0.0338891518351123,0.0122498879941906,0.5,0.361469300081409,1.01729033026992,2.01226596590376,2.89116863103529,0.5,72.8382011765881
CBC_1117,CBC_1117_MSI_TV_v3_Vset1_Tset2_2024-06-12_15h43.57.296.csv,2,38,0,2,b,1,0,3,tac,A,27,1,0A,2A,1,0,b,2.42637669999385,1,0,1,1,0A,2A,A02,2.87167962488401,0.6297079077859,0.5,0.5,0.5,0.203860727369263,0.978360736159078,0.5,0.5,0.5,0.5,0.991177207867309,0.5,0.5,0.319265349959296,0.319265349959296,0.978360736159078,0.557407718797026,0.442592281202974,0.6297079077859,0.5,0.219564513022431,0.662121498128018,0.3702920922141,0.133849223398311,0.5,0.361469300081409,1.01729033026992,2.01226596590376,2.89116863103529,0.5,72.8382011765881
CBC_1117,CBC_1117_MSI_TV_v3_Vset1_Tset2_2024-06-12_15h43.57.296.csv,2,39,3,2,z,0,1,0,tac,C,63,1,3C,2C,0,1,b,3.15758410000126,1,0,0,0,3C,2C,C32,3.29583686600433,0.763557131184211,0.5,0.5,0.5,0.203860727369263,0.978360736159078,0.5,0.5,0.5,0.5,0.991177207867309,0.5,0.5,0.319265349959296,0.319265349959296,0.978360736159078,0.335305554136723,0.664694445863277,0.5,0.991177207867309,0.0254847608247511,0.128374845101263,-0.5,-0.180734650040704,0.5,0.361469300081409,1.01729033026992,2.01226596590376,2.89116863103529,0.5,72.8382011765881
CBC_1117,CBC_1117_MSI_TV_v3_Vset1_Tset2_2024-06-12_15h43.57.296.csv,2,40,3,1,b,1,0,1,tac,D,27,1,3D,1D,1,0,b,2.21136649999244,1,0,1,1,3D,1D,D31,3.31418600467253,0.763557131184211,0.5,0.5,0.5,0.203860727369263,0.978360736159078,0.5,0.5,0.5,0.5,0.991177207867309,0.319265349959296,0.5,0.319265349959296,0.319265349959296,0.978360736159078,0.753961982288501,0.246038017711499,0.978360736159078,0.319265349959296,0.431575031950423,0.950580699371825,0.0216392638409216,0.00782192955485488,0.5,0.361469300081409,1.01729033026992,2.01226596590376,2.89116863103529,0.5,72.8382011765881
CBC_1117,CBC_1117_MSI_TV_v3_Vset1_Tset2_2024-06-12_15h43.57.296.csv,2,41,1,0,z,0,1,3,tac,A,63,1,1A,0A,0,1,z,2.86056119999557,0,1,1,1,0A,1A,A10,2.23359222150709,0.763557131184211,0.5,0.5,0.5,0.203860727369263,0.978360736159078,0.5,0.5,0.5,0.5,0.991177207867309,0.319265349959296,0.5,0.319265349959296,0.319265349959296,0.986182665713933,0.604291735086487,0.395708264913513,0.763557131184211,0.5,0.197260255107444,0.770674997968204,0.236442868815789,0.0854668383000836,0.5,0.361469300081409,1.01729033026992,2.01226596590376,2.89116863103529,0.5,72.8382011765881
CBC_1117,CBC_1117_MSI_TV_v3_Vset1_Tset2_2024-06-12_15h43.57.296.csv,2,42,2,0,b,1,0,0,tac,C,27,1,2C,0C,1,0,b,2.59392949999892,1,0,1,1,2C,0C,C20,3.3499040872746,0.849023969484295,0.5,0.5,0.5,0.203860727369263,0.978360736159078,0.5,0.5,0.5,0.5,0.991177207867309,0.319265349959296,0.5,0.319265349959296,0.319265349959296,0.986182665713933,0.664694445863277,0.335305554136723,0.991177207867309,0.5,0.272617379684884,0.871426323642558,0.00882279213269133,0.00318916849696769,0.5,0.361469300081409,1.01729033026992,2.01226596590376,2.89116863103529,0.5,72.8382011765881
CBC_1117,CBC_1117_MSI_TV_v3_Vset1_Tset2_2024-06-12_15h43.57.296.csv,2,43,2,3,z,0,1,1,tac,D,63,1,2D,3D,0,1,b,2.32319760000973,1,0,0,0,2D,3D,D23,2.67414864942653,0.849023969484295,0.5,0.5,0.5,0.203860727369263,0.978360736159078,0.5,0.5,0.5,0.5,0.994366376364276,0.319265349959296,0.5,0.319265349959296,0.319265349959296,0.986182665713933,0.244563817269007,0.755436182730993,0.319265349959296,0.986182665713933,0.0196174302644839,0.0487311603181182,-0.319265349959296,-0.115404622590033,0.5,0.361469300081409,1.01729033026992,2.01226596590376,2.89116863103529,0.5,72.8382011765881
CBC_1117,CBC_1117_MSI_TV_v3_Vset1_Tset2_2024-06-12_15h43.57.296.csv,2,44,0,1,z,0,1,2,tac,B,63,1,0B,1B,0,1,z,2.20849970000563,0,1,1,1,1B,0B,B01,2.97892515523761,0.849023969484295,0.5,0.5,0.5,0.203860727369263,0.978360736159078,0.5,0.5,0.5,0.5,0.994366376364276,0.319265349959296,0.5,0.319265349959296,0.203860727369263,0.986182665713933,0.827561304156295,0.172438695843705,0.978360736159078,0.203860727369263,0.43954969747733,0.978311199120185,0.0216392638409216,0.00782192955485488,0.5,0.361469300081409,1.01729033026992,2.01226596590376,2.89116863103529,0.5,72.8382011765881
