ID,filename,session,trial,visStimLeft,visStimRight,correctKey,leftCorrect,rightCorrect,secondStim,mod2Type,mod2Stim,frequency,rewardAccurate,stimPairLeft,stimPairRight,pCorrectLeft,pCorrectRight,key,reactionTime,choiceLeft,choiceRight,choiceAccurate,reward,chosenPair,otherPair,triplet,surprise,0A belief,1A belief,2A belief,3A belief,0B belief,1B belief,2B belief,3B belief,0C belief,1C belief,2C belief,3C belief,0D belief,1D belief,2D belief,3D belief,beliefPairNorm,beliefOtherPairNorm,beliefPair,beliefOtherPair,lik,corrLik,rewardPE,update2,fitCBCsimpleRW_CBCdriftDiffusionLR_pwBelief_startBelief,fitCBCsimpleRW_CBCdriftDiffusionLR_pwBelief_alpha1,fitCBCsimpleRW_CBCdriftDiffusionLR_pwBelief_nonDecisionTime,fitCBCsimpleRW_CBCdriftDiffusionLR_pwBelief_weight,fitCBCsimpleRW_CBCdriftDiffusionLR_pwBelief_startingBoundary,fitCBCsimpleRW_CBCdriftDiffusionLR_pwBelief_startingPoint,fit_CBCsimpleRW_CBCdriftDiffusionLR_pwBelief_NLL
CBC_1117,CBC_1117_MSI_AV_v3_Vset2_Aset3_2024-06-12_14h56.14.456.csv,1,1,1,0,z,0,1,3,aud,A,63,1,1A,0A,0,1,b,2.43491850000282,1,0,0,0,1A,0A,A10,2.77258872223978,0.5,0.5,0.5,0.5,0.5,0.5,0.5,0.5,0.5,0.5,0.5,0.5,0.5,0.5,0.5,0.5,0.5,0.5,0.5,0.5,0.173401321598303,0.498853256852043,-0.5,-0.00140702918578595,0.5,0.00281405837157189,1.0996725738544,0.00227747797848732,2.72296843603497,0.5,83.5225627315462
CBC_1117,CBC_1117_MSI_AV_v3_Vset2_Aset3_2024-06-12_14h56.14.456.csv,1,2,3,2,b,1,0,1,aud,D,63,1,3D,2D,1,0,z,2.28218080000079,0,1,0,0,2D,3D,D32,2.83321334405622,0.5,0.498592970814214,0.5,0.5,0.5,0.5,0.5,0.5,0.5,0.5,0.5,0.5,0.5,0.5,0.5,0.5,0.5,0.5,0.5,0.5,0.191446775539607,0.499070764866421,-0.5,-0.00140702918578595,0.5,0.00281405837157189,1.0996725738544,0.00227747797848732,2.72296843603497,0.5,83.5225627315462
CBC_1117,CBC_1117_MSI_AV_v3_Vset2_Aset3_2024-06-12_14h56.14.456.csv,1,3,2,0,b,1,0,0,aud,C,27,1,2C,0C,1,0,b,2.96984540000267,1,0,1,1,2C,0C,C20,2.89037175789616,0.5,0.498592970814214,0.5,0.5,0.5,0.5,0.5,0.5,0.5,0.5,0.5,0.5,0.5,0.5,0.498592970814214,0.5,0.5,0.5,0.5,0.5,0.121756353876435,0.49891552998556,0.5,0.00140702918578595,0.5,0.00281405837157189,1.0996725738544,0.00227747797848732,2.72296843603497,0.5,83.5225627315462
CBC_1117,CBC_1117_MSI_AV_v3_Vset2_Aset3_2024-06-12_14h56.14.456.csv,1,4,1,0,z,0,1,3,aud,A,63,1,1A,0A,0,1,z,2.71482390000892,0,1,1,1,0A,1A,A10,2.2512917986065,0.5,0.498592970814214,0.5,0.5,0.5,0.5,0.5,0.5,0.5,0.5,0.501407029185786,0.5,0.5,0.5,0.498592970814214,0.5,0.501407029185786,0.498592970814214,0.5,0.498592970814214,0.144551373142512,0.500060564750466,0.5,0.00140702918578595,0.5,0.00281405837157189,1.0996725738544,0.00227747797848732,2.72296843603497,0.5,83.5225627315462
CBC_1117,CBC_1117_MSI_AV_v3_Vset2_Aset3_2024-06-12_14h56.14.456.csv,1,5,3,1,z,0,1,2,aud,B,27,1,3B,1B,0,1,b,2.30840790001093,1,0,0,0,3B,1B,B31,2.99573227355399,0.501407029185786,0.498592970814214,0.5,0.5,0.5,0.5,0.5,0.5,0.5,0.5,0.501407029185786,0.5,0.5,0.5,0.498592970814214,0.5,0.5,0.5,0.5,0.5,0.188976382624786,0.500942468143976,-0.5,-0.00140702918578595,0.5,0.00281405837157189,1.0996725738544,0.00227747797848732,2.72296843603497,0.5,83.5225627315462
CBC_1117,CBC_1117_MSI_AV_v3_Vset2_Aset3_2024-06-12_14h56.14.456.csv,1,6,2,3,b,1,0,0,aud,C,63,1,2C,3C,1,0,z,2.67990440000722,0,1,0,0,3C,2C,C23,3.04452243772342,0.501407029185786,0.498592970814214,0.5,0.5,0.5,0.5,0.5,0.498592970814214,0.5,0.5,0.501407029185786,0.5,0.5,0.5,0.498592970814214,0.5,0.498592970814214,0.501407029185786,0.5,0.501407029185786,0.147531579607848,0.498701679009355,-0.5,-0.00140702918578595,0.5,0.00281405837157189,1.0996725738544,0.00227747797848732,2.72296843603497,0.5,83.5225627315462
CBC_1117,CBC_1117_MSI_AV_v3_Vset2_Aset3_2024-06-12_14h56.14.456.csv,1,7,2,3,z,0,1,1,aud,D,63,0,2D,3D,1,0,b,2.26971880000201,1,0,0,1,2D,3D,D23,3.09104245335832,0.501407029185786,0.498592970814214,0.5,0.5,0.5,0.5,0.5,0.498592970814214,0.5,0.5,0.501407029185786,0.498592970814214,0.5,0.5,0.498592970814214,0.5,0.498592970814214,0.501407029185786,0.498592970814214,0.5,0.193995496538731,0.501728341460698,0.501407029185786,0.00141098864804525,0.5,0.00281405837157189,1.0996725738544,0.00227747797848732,2.72296843603497,0.5,83.5225627315462
CBC_1117,CBC_1117_MSI_AV_v3_Vset2_Aset3_2024-06-12_14h56.14.456.csv,1,8,1,0,b,1,0,2,aud,B,63,1,1B,0B,1,0,b,2.35428580000007,1,0,1,1,1B,0B,B10,3.13549421592915,0.501407029185786,0.498592970814214,0.5,0.5,0.5,0.5,0.5,0.498592970814214,0.5,0.5,0.501407029185786,0.498592970814214,0.5,0.5,0.500003959462259,0.5,0.5,0.5,0.5,0.5,0.18277008411927,0.498989831678685,0.5,0.00140702918578595,0.5,0.00281405837157189,1.0996725738544,0.00227747797848732,2.72296843603497,0.5,83.5225627315462
CBC_1117,CBC_1117_MSI_AV_v3_Vset2_Aset3_2024-06-12_14h56.14.456.csv,1,9,0,2,b,1,0,3,aud,A,27,1,0A,2A,1,0,z,2.61638920000405,0,1,0,0,2A,0A,A02,3.17805383034795,0.501407029185786,0.498592970814214,0.5,0.5,0.5,0.501407029185786,0.5,0.498592970814214,0.5,0.5,0.501407029185786,0.498592970814214,0.5,0.5,0.500003959462259,0.5,0.498592970814214,0.501407029185786,0.5,0.501407029185786,0.154180627059792,0.499739087722643,-0.5,-0.00140702918578595,0.5,0.00281405837157189,1.0996725738544,0.00227747797848732,2.72296843603497,0.5,83.5225627315462
CBC_1117,CBC_1117_MSI_AV_v3_Vset2_Aset3_2024-06-12_14h56.14.456.csv,1,10,0,3,z,0,1,1,aud,D,9,1,0D,3D,0,1,z,2.25528720000875,0,1,1,1,3D,0D,D03,3.2188758248682,0.501407029185786,0.498592970814214,0.498592970814214,0.5,0.5,0.501407029185786,0.5,0.498592970814214,0.5,0.5,0.501407029185786,0.498592970814214,0.5,0.5,0.500003959462259,0.5,0.5,0.5,0.5,0.5,0.195277840292881,0.500455723312541,0.5,0.00140702918578595,0.5,0.00281405837157189,1.0996725738544,0.00227747797848732,2.72296843603497,0.5,83.5225627315462
CBC_1117,CBC_1117_MSI_AV_v3_Vset2_Aset3_2024-06-12_14h56.14.456.csv,1,11,3,2,z,0,1,0,aud,C,63,1,3C,2C,0,1,b,2.70840130001307,1,0,0,0,3C,2C,C32,3.25809653802148,0.501407029185786,0.498592970814214,0.498592970814214,0.5,0.5,0.501407029185786,0.5,0.498592970814214,0.5,0.5,0.501407029185786,0.498592970814214,0.5,0.5,0.500003959462259,0.501407029185786,0.497185963912567,0.502814036087432,0.498592970814214,0.501407029185786,0.145331120322114,0.500623092831024,-0.498592970814214,-0.00140306972352664,0.5,0.00281405837157189,1.0996725738544,0.00227747797848732,2.72296843603497,0.5,83.5225627315462
CBC_1117,CBC_1117_MSI_AV_v3_Vset2_Aset3_2024-06-12_14h56.14.456.csv,1,12,1,0,b,1,0,2,aud,B,63,1,1B,0B,1,0,b,2.38295860000653,1,0,1,1,1B,0B,B10,2.60268968544438,0.501407029185786,0.498592970814214,0.498592970814214,0.5,0.5,0.501407029185786,0.5,0.498592970814214,0.5,0.5,0.501407029185786,0.497189901090687,0.5,0.5,0.500003959462259,0.501407029185786,0.501407029185786,0.498592970814214,0.501407029185786,0.5,0.179937588445309,0.500453891602566,0.498592970814214,0.00140306972352664,0.5,0.00281405837157189,1.0996725738544,0.00227747797848732,2.72296843603497,0.5,83.5225627315462
CBC_1117,CBC_1117_MSI_AV_v3_Vset2_Aset3_2024-06-12_14h56.14.456.csv,1,13,3,2,b,1,0,1,aud,D,63,1,3D,2D,1,0,z,2.27358030001051,0,1,0,0,2D,3D,D32,2.63905732961526,0.501407029185786,0.498592970814214,0.498592970814214,0.5,0.5,0.502810098909313,0.5,0.498592970814214,0.5,0.5,0.501407029185786,0.497189901090687,0.5,0.5,0.500003959462259,0.501407029185786,0.498596930245207,0.501403069754793,0.500003959462259,0.501407029185786,0.192757064998541,0.499748904516029,-0.500003959462259,-0.00140704032794386,0.5,0.00281405837157189,1.0996725738544,0.00227747797848732,2.72296843603497,0.5,83.5225627315462
CBC_1117,CBC_1117_MSI_AV_v3_Vset2_Aset3_2024-06-12_14h56.14.456.csv,1,14,3,2,z,0,1,0,aud,C,63,1,3C,2C,0,1,b,2.61969659999886,1,0,0,0,3C,2C,C32,2.67414864942653,0.501407029185786,0.498592970814214,0.498592970814214,0.5,0.5,0.502810098909313,0.5,0.498592970814214,0.5,0.5,0.501407029185786,0.497189901090687,0.5,0.5,0.498596919134315,0.501407029185786,0.495782938600109,0.504217061399891,0.497189901090687,0.501407029185786,0.154180831044294,0.500832740122005,-0.497189901090687,-0.00139912140342525,0.5,0.00281405837157189,1.0996725738544,0.00227747797848732,2.72296843603497,0.5,83.5225627315462
CBC_1117,CBC_1117_MSI_AV_v3_Vset2_Aset3_2024-06-12_14h56.14.456.csv,1,15,1,3,b,1,0,2,aud,B,27,1,1B,3B,1,0,z,2.33633890000056,0,1,0,0,3B,1B,B13,3.40119738166216,0.501407029185786,0.498592970814214,0.498592970814214,0.5,0.5,0.502810098909313,0.5,0.498592970814214,0.5,0.5,0.501407029185786,0.495790779687262,0.5,0.5,0.498596919134315,0.501407029185786,0.495782938600109,0.504217061399891,0.498592970814214,0.502810098909313,0.185638354968943,0.500992798018293,-0.498592970814214,-0.00140306972352664,0.5,0.00281405837157189,1.0996725738544,0.00227747797848732,2.72296843603497,0.5,83.5225627315462
CBC_1117,CBC_1117_MSI_AV_v3_Vset2_Aset3_2024-06-12_14h56.14.456.csv,1,16,3,0,z,0,1,3,aud,A,9,1,3A,0A,0,1,z,2.39752929999668,0,1,1,1,0A,3A,A30,3.43398720448515,0.501407029185786,0.498592970814214,0.498592970814214,0.5,0.5,0.502810098909313,0.5,0.497189901090687,0.5,0.5,0.501407029185786,0.495790779687262,0.5,0.5,0.498596919134315,0.501407029185786,0.501407029185786,0.498592970814214,0.501407029185786,0.5,0.178077943220386,0.499987130967933,0.498592970814214,0.00140306972352664,0.5,0.00281405837157189,1.0996725738544,0.00227747797848732,2.72296843603497,0.5,83.5225627315462
CBC_1117,CBC_1117_MSI_AV_v3_Vset2_Aset3_2024-06-12_14h56.14.456.csv,1,17,3,2,b,1,0,1,aud,D,63,1,3D,2D,1,0,z,2.99525269999867,0,1,0,0,2D,3D,D32,2.36712361413162,0.502810098909313,0.498592970814214,0.498592970814214,0.5,0.5,0.502810098909313,0.5,0.497189901090687,0.5,0.5,0.501407029185786,0.495790779687262,0.5,0.5,0.498596919134315,0.501407029185786,0.497189912138958,0.502810087861042,0.498596919134315,0.501407029185786,0.119985663840415,0.500035501095382,-0.498596919134315,-0.00140308083432987,0.5,0.00281405837157189,1.0996725738544,0.00227747797848732,2.72296843603497,0.5,83.5225627315462
CBC_1117,CBC_1117_MSI_AV_v3_Vset2_Aset3_2024-06-12_14h56.14.456.csv,1,18,2,0,b,1,0,0,aud,C,27,1,2C,0C,1,0,b,2.45746980000695,1,0,1,1,2C,0C,C20,2.80336038090653,0.502810098909313,0.498592970814214,0.498592970814214,0.5,0.5,0.502810098909313,0.5,0.497189901090687,0.5,0.5,0.501407029185786,0.495790779687262,0.5,0.5,0.497193838299986,0.501407029185786,0.501407029185786,0.498592970814214,0.501407029185786,0.5,0.171027253603787,0.49932529584458,0.498592970814214,0.00140306972352664,0.5,0.00281405837157189,1.0996725738544,0.00227747797848732,2.72296843603497,0.5,83.5225627315462
CBC_1117,CBC_1117_MSI_AV_v3_Vset2_Aset3_2024-06-12_14h56.14.456.csv,1,19,1,0,z,0,1,3,aud,A,63,1,1A,0A,0,1,b,2.99938950000796,1,0,0,0,1A,0A,A10,2.42774823594805,0.502810098909313,0.498592970814214,0.498592970814214,0.5,0.5,0.502810098909313,0.5,0.497189901090687,0.5,0.5,0.502810098909313,0.495790779687262,0.5,0.5,0.497193838299986,0.501407029185786,0.495782938600109,0.504217061399891,0.498592970814214,0.502810098909313,0.119525307174072,0.499488979736989,-0.498592970814214,-0.00140306972352664,0.5,0.00281405837157189,1.0996725738544,0.00227747797848732,2.72296843603497,0.5,83.5225627315462
CBC_1117,CBC_1117_MSI_AV_v3_Vset2_Aset3_2024-06-12_14h56.14.456.csv,1,20,0,1,z,0,1,2,aud,B,63,0,0B,1B,1,0,z,2.21366349999153,0,1,1,0,1B,0B,B01,3.55534806148941,0.502810098909313,0.497189901090687,0.498592970814214,0.5,0.5,0.502810098909313,0.5,0.497189901090687,0.5,0.5,0.502810098909313,0.495790779687262,0.5,0.5,0.497193838299986,0.501407029185786,0.502810098909313,0.497189901090687,0.502810098909313,0.5,0.20101714295752,0.501886977664197,-0.502810098909313,-0.00141493696814664,0.5,0.00281405837157189,1.0996725738544,0.00227747797848732,2.72296843603497,0.5,83.5225627315462
CBC_1117,CBC_1117_MSI_AV_v3_Vset2_Aset3_2024-06-12_14h56.14.456.csv,1,21,1,3,z,0,1,1,aud,D,27,1,1D,3D,0,1,z,2.11574300000211,0,1,1,1,3D,1D,D13,3.58351893845611,0.502810098909313,0.497189901090687,0.498592970814214,0.5,0.5,0.501395161941166,0.5,0.497189901090687,0.5,0.5,0.502810098909313,0.495790779687262,0.5,0.5,0.497193838299986,0.501407029185786,0.501407029185786,0.498592970814214,0.501407029185786,0.5,0.212909812069818,0.500793084438741,0.498592970814214,0.00140306972352664,0.5,0.00281405837157189,1.0996725738544,0.00227747797848732,2.72296843603497,0.5,83.5225627315462
CBC_1117,CBC_1117_MSI_AV_v3_Vset2_Aset3_2024-06-12_14h56.14.456.csv,1,22,2,3,b,1,0,0,aud,C,63,1,2C,3C,1,0,z,2.56500510001206,0,1,0,0,3C,2C,C23,2.91777073208428,0.502810098909313,0.497189901090687,0.498592970814214,0.5,0.5,0.501395161941166,0.5,0.497189901090687,0.5,0.5,0.502810098909313,0.495790779687262,0.5,0.5,0.497193838299986,0.502810098909313,0.492981012869405,0.507018987130595,0.495790779687262,0.502810098909313,0.159899493706962,0.500997601625082,-0.495790779687262,-0.0013951841941271,0.5,0.00281405837157189,1.0996725738544,0.00227747797848732,2.72296843603497,0.5,83.5225627315462
CBC_1117,CBC_1117_MSI_AV_v3_Vset2_Aset3_2024-06-12_14h56.14.456.csv,1,23,1,0,b,1,0,2,aud,B,63,1,1B,0B,1,0,b,3.61883860001399,1,0,1,1,1B,0B,B10,2.53897387105828,0.502810098909313,0.497189901090687,0.498592970814214,0.5,0.5,0.501395161941166,0.5,0.497189901090687,0.5,0.5,0.502810098909313,0.494395595493135,0.5,0.5,0.497193838299986,0.502810098909313,0.501395161941166,0.498604838058834,0.501395161941166,0.5,0.0793313593236653,0.500622461481328,0.498604838058834,0.00140310311864571,0.5,0.00281405837157189,1.0996725738544,0.00227747797848732,2.72296843603497,0.5,83.5225627315462
CBC_1117,CBC_1117_MSI_AV_v3_Vset2_Aset3_2024-06-12_14h56.14.456.csv,1,24,2,0,z,0,1,3,aud,A,27,1,2A,0A,0,1,b,2.56757440000365,1,0,0,0,2A,0A,A20,3.66356164612965,0.502810098909313,0.497189901090687,0.498592970814214,0.5,0.5,0.502798265059812,0.5,0.497189901090687,0.5,0.5,0.502810098909313,0.494395595493135,0.5,0.5,0.497193838299986,0.502810098909313,0.495782938600109,0.504217061399891,0.498592970814214,0.502810098909313,0.159084920653153,0.499290227819496,-0.498592970814214,-0.00140306972352664,0.5,0.00281405837157189,1.0996725738544,0.00227747797848732,2.72296843603497,0.5,83.5225627315462
CBC_1117,CBC_1117_MSI_AV_v3_Vset2_Aset3_2024-06-12_14h56.14.456.csv,1,25,2,3,z,0,1,1,aud,D,63,1,2D,3D,0,1,b,3.41704649999156,1,0,0,0,2D,3D,D23,2.99573227355399,0.502810098909313,0.497189901090687,0.497189901090687,0.5,0.5,0.502798265059812,0.5,0.497189901090687,0.5,0.5,0.502810098909313,0.494395595493135,0.5,0.5,0.497193838299986,0.502810098909313,0.494383916535243,0.505616083464757,0.497193838299986,0.502810098909313,0.0908183777948359,0.501089863468857,-0.497193838299986,-0.00139913248296204,0.5,0.00281405837157189,1.0996725738544,0.00227747797848732,2.72296843603497,0.5,83.5225627315462
CBC_1117,CBC_1117_MSI_AV_v3_Vset2_Aset3_2024-06-12_14h56.14.456.csv,1,26,2,0,b,1,0,0,aud,C,27,1,2C,0C,1,0,z,3.22349440000835,0,1,0,0,0C,2C,C20,2.6149597780362,0.502810098909313,0.497189901090687,0.497189901090687,0.5,0.5,0.502798265059812,0.5,0.497189901090687,0.5,0.5,0.502810098909313,0.494395595493135,0.5,0.5,0.495794705817024,0.502810098909313,0.497189901090687,0.502810098909313,0.5,0.502810098909313,0.102973950287629,0.499497830279236,-0.5,-0.00140702918578595,0.5,0.00281405837157189,1.0996725738544,0.00227747797848732,2.72296843603497,0.5,83.5225627315462
CBC_1117,CBC_1117_MSI_AV_v3_Vset2_Aset3_2024-06-12_14h56.14.456.csv,1,27,1,0,b,1,0,2,aud,B,63,1,1B,0B,1,0,b,3.19418590000714,1,0,1,1,1B,0B,B10,2.35137525716348,0.502810098909313,0.497189901090687,0.497189901090687,0.5,0.5,0.502798265059812,0.5,0.497189901090687,0.498592970814214,0.5,0.502810098909313,0.494395595493135,0.5,0.5,0.495794705817024,0.502810098909313,0.502798265059812,0.497201734940188,0.502798265059812,0.5,0.105325481001727,0.501038308535555,0.497201734940188,0.00139915470456851,0.5,0.00281405837157189,1.0996725738544,0.00227747797848732,2.72296843603497,0.5,83.5225627315462
CBC_1117,CBC_1117_MSI_AV_v3_Vset2_Aset3_2024-06-12_14h56.14.456.csv,1,28,0,1,b,1,0,3,aud,A,63,1,0A,1A,1,0,b,3.80754840000009,1,0,1,1,0A,1A,A01,3.76120011569356,0.502810098909313,0.497189901090687,0.497189901090687,0.5,0.5,0.50419741976438,0.5,0.497189901090687,0.498592970814214,0.5,0.502810098909313,0.494395595493135,0.5,0.5,0.495794705817024,0.502810098909313,0.50562002030116,0.49437997969884,0.502810098909313,0.497189901090687,0.0699291017296729,0.500343342739114,0.497189901090687,0.00139912140342525,0.5,0.00281405837157189,1.0996725738544,0.00227747797848732,2.72296843603497,0.5,83.5225627315462
CBC_1117,CBC_1117_MSI_AV_v3_Vset2_Aset3_2024-06-12_14h56.14.456.csv,1,29,3,2,z,0,1,0,aud,C,63,0,3C,2C,1,0,b,3.05727080001088,1,0,0,1,3C,2C,C32,2.68557734525015,0.504209220312738,0.497189901090687,0.497189901090687,0.5,0.5,0.50419741976438,0.5,0.497189901090687,0.498592970814214,0.5,0.502810098909313,0.494395595493135,0.5,0.5,0.495794705817024,0.502810098909313,0.491586026628166,0.508413973371834,0.494395595493135,0.502810098909313,0.115029296069944,0.499563791118087,0.505604404506865,0.00142280030720616,0.5,0.00281405837157189,1.0996725738544,0.00227747797848732,2.72296843603497,0.5,83.5225627315462
CBC_1117,CBC_1117_MSI_AV_v3_Vset2_Aset3_2024-06-12_14h56.14.456.csv,1,30,3,1,b,1,0,1,aud,D,27,1,3D,1D,1,0,z,2.81084760000522,0,1,0,0,1D,3D,D31,3.80666248977032,0.504209220312738,0.497189901090687,0.497189901090687,0.5,0.5,0.50419741976438,0.5,0.497189901090687,0.498592970814214,0.5,0.502810098909313,0.495818395800341,0.5,0.5,0.495794705817024,0.502810098909313,0.497189901090687,0.502810098909313,0.5,0.502810098909313,0.135820330578886,0.500754018676605,-0.5,-0.00140702918578595,0.5,0.00281405837157189,1.0996725738544,0.00227747797848732,2.72296843603497,0.5,83.5225627315462
CBC_1117,CBC_1117_MSI_AV_v3_Vset2_Aset3_2024-06-12_14h56.14.456.csv,1,31,1,0,z,0,1,3,aud,A,63,1,1A,0A,0,1,z,2.54970950001734,0,1,1,1,0A,1A,A10,2.4423470353692,0.504209220312738,0.497189901090687,0.497189901090687,0.5,0.5,0.50419741976438,0.5,0.497189901090687,0.498592970814214,0.5,0.502810098909313,0.495818395800341,0.5,0.498592970814214,0.495794705817024,0.502810098909313,0.507018987130595,0.492981012869405,0.504209220312738,0.497189901090687,0.161192501407919,0.499985813272028,0.495790779687262,0.0013951841941271,0.5,0.00281405837157189,1.0996725738544,0.00227747797848732,2.72296843603497,0.5,83.5225627315462
CBC_1117,CBC_1117_MSI_AV_v3_Vset2_Aset3_2024-06-12_14h56.14.456.csv,1,32,3,2,b,1,0,1,aud,D,63,1,3D,2D,1,0,z,3.12723610001558,0,1,0,0,2D,3D,D32,2.46385324059017,0.505604404506865,0.497189901090687,0.497189901090687,0.5,0.5,0.50419741976438,0.5,0.497189901090687,0.498592970814214,0.5,0.502810098909313,0.495818395800341,0.5,0.498592970814214,0.495794705817024,0.502810098909313,0.492984938503848,0.507015061496152,0.495794705817024,0.502810098909313,0.110102502687977,0.50094606841834,-0.495794705817024,-0.00139519524248542,0.5,0.00281405837157189,1.0996725738544,0.00227747797848732,2.72296843603497,0.5,83.5225627315462
CBC_1117,CBC_1117_MSI_AV_v3_Vset2_Aset3_2024-06-12_14h56.14.456.csv,1,33,2,1,z,0,1,2,aud,B,9,1,2B,1B,0,1,b,2.9302280999982,1,0,0,0,2B,1B,B21,3.87120101090789,0.505604404506865,0.497189901090687,0.497189901090687,0.5,0.5,0.50419741976438,0.5,0.497189901090687,0.498592970814214,0.5,0.502810098909313,0.495818395800341,0.5,0.498592970814214,0.494399510574538,0.502810098909313,0.49580258023562,0.50419741976438,0.5,0.50419741976438,0.125270055451134,0.499972216855576,-0.5,-0.00140702918578595,0.5,0.00281405837157189,1.0996725738544,0.00227747797848732,2.72296843603497,0.5,83.5225627315462
CBC_1117,CBC_1117_MSI_AV_v3_Vset2_Aset3_2024-06-12_14h56.14.456.csv,1,34,1,0,z,0,1,3,aud,A,63,1,1A,0A,0,1,b,3.28956889999972,1,0,0,0,1A,0A,A10,2.28238238567653,0.505604404506865,0.497189901090687,0.497189901090687,0.5,0.5,0.50419741976438,0.498592970814214,0.497189901090687,0.498592970814214,0.5,0.502810098909313,0.495818395800341,0.5,0.498592970814214,0.494399510574538,0.502810098909313,0.491586026628166,0.508413973371834,0.497189901090687,0.505604404506865,0.0986299517590446,0.499929693475196,-0.497189901090687,-0.00139912140342525,0.5,0.00281405837157189,1.0996725738544,0.00227747797848732,2.72296843603497,0.5,83.5225627315462
CBC_1117,CBC_1117_MSI_AV_v3_Vset2_Aset3_2024-06-12_14h56.14.456.csv,1,35,2,1,b,1,0,0,aud,C,9,1,2C,1C,1,0,z,3.02159380000376,0,1,0,0,1C,2C,C21,3.91202300542815,0.505604404506865,0.495790779687262,0.497189901090687,0.5,0.5,0.50419741976438,0.498592970814214,0.497189901090687,0.498592970814214,0.5,0.502810098909313,0.495818395800341,0.5,0.498592970814214,0.494399510574538,0.502810098909313,0.497189901090687,0.502810098909313,0.5,0.502810098909313,0.11804162898959,0.500626062601843,-0.5,-0.00140702918578595,0.5,0.00281405837157189,1.0996725738544,0.00227747797848732,2.72296843603497,0.5,83.5225627315462
CBC_1117,CBC_1117_MSI_AV_v3_Vset2_Aset3_2024-06-12_14h56.14.456.csv,1,36,1,0,b,1,0,2,aud,B,63,1,1B,0B,1,0,b,2.26918920000026,1,0,1,1,1B,0B,B10,2.32238772029023,0.505604404506865,0.495790779687262,0.497189901090687,0.5,0.5,0.50419741976438,0.498592970814214,0.497189901090687,0.498592970814214,0.498592970814214,0.502810098909313,0.495818395800341,0.5,0.498592970814214,0.494399510574538,0.502810098909313,0.50419741976438,0.49580258023562,0.50419741976438,0.5,0.19338963772119,0.4999946448821,0.49580258023562,0.00139521740155899,0.5,0.00281405837157189,1.0996725738544,0.00227747797848732,2.72296843603497,0.5,83.5225627315462
CBC_1117,CBC_1117_MSI_AV_v3_Vset2_Aset3_2024-06-12_14h56.14.456.csv,1,37,0,1,b,1,0,3,aud,A,63,0,0A,1A,0,1,b,2.5793898999982,1,0,1,0,0A,1A,A01,3.25809653802148,0.505604404506865,0.495790779687262,0.497189901090687,0.5,0.5,0.505592637165939,0.498592970814214,0.497189901090687,0.498592970814214,0.498592970814214,0.502810098909313,0.495818395800341,0.5,0.498592970814214,0.494399510574538,0.502810098909313,0.509812698886534,0.490187301113466,0.505604404506865,0.495790779687262,0.158162413224491,0.500277038764486,-0.505604404506865,-0.00142280030720616,0.5,0.00281405837157189,1.0996725738544,0.00227747797848732,2.72296843603497,0.5,83.5225627315462
CBC_1117,CBC_1117_MSI_AV_v3_Vset2_Aset3_2024-06-12_14h56.14.456.csv,1,38,0,1,z,0,1,2,aud,B,63,1,0B,1B,0,1,b,1.79900710000948,1,0,0,0,0B,1B,B01,3.27714473299218,0.504181604199659,0.495790779687262,0.497189901090687,0.5,0.5,0.505592637165939,0.498592970814214,0.497189901090687,0.498592970814214,0.498592970814214,0.502810098909313,0.495818395800341,0.5,0.498592970814214,0.494399510574538,0.502810098909313,0.494407362834061,0.505592637165939,0.5,0.505592637165939,0.246821431505977,0.50009819500416,-0.5,-0.00140702918578595,0.5,0.00281405837157189,1.0996725738544,0.00227747797848732,2.72296843603497,0.5,83.5225627315462
CBC_1117,CBC_1117_MSI_AV_v3_Vset2_Aset3_2024-06-12_14h56.14.456.csv,1,39,1,3,z,0,1,1,aud,D,27,1,1D,3D,0,1,b,2.37609800000791,1,0,0,0,1D,3D,D13,3.29583686600433,0.504181604199659,0.495790779687262,0.497189901090687,0.5,0.498592970814214,0.505592637165939,0.498592970814214,0.497189901090687,0.498592970814214,0.498592970814214,0.502810098909313,0.495818395800341,0.5,0.498592970814214,0.494399510574538,0.502810098909313,0.495782938600109,0.504217061399891,0.498592970814214,0.502810098909313,0.180388338227363,0.499482177625826,-0.498592970814214,-0.00140306972352664,0.5,0.00281405837157189,1.0996725738544,0.00227747797848732,2.72296843603497,0.5,83.5225627315462
CBC_1117,CBC_1117_MSI_AV_v3_Vset2_Aset3_2024-06-12_14h56.14.456.csv,1,40,3,2,z,0,1,0,aud,C,63,1,3C,2C,0,1,z,2.2372325000033,0,1,1,1,2C,3C,C32,2.62103882411258,0.504181604199659,0.495790779687262,0.497189901090687,0.5,0.498592970814214,0.505592637165939,0.498592970814214,0.497189901090687,0.498592970814214,0.498592970814214,0.502810098909313,0.495818395800341,0.5,0.497189901090687,0.494399510574538,0.502810098909313,0.506991374494196,0.493008625505804,0.502810098909313,0.495818395800341,0.197128836420872,0.499488727061539,0.497189901090687,0.00139912140342525,0.5,0.00281405837157189,1.0996725738544,0.00227747797848732,2.72296843603497,0.5,83.5225627315462
CBC_1117,CBC_1117_MSI_AV_v3_Vset2_Aset3_2024-06-12_14h56.14.456.csv,1,41,0,2,b,1,0,3,aud,A,27,1,0A,2A,1,0,b,2.58216900000116,1,0,1,1,0A,2A,A02,3.3322045101752,0.504181604199659,0.495790779687262,0.497189901090687,0.5,0.498592970814214,0.505592637165939,0.498592970814214,0.497189901090687,0.498592970814214,0.498592970814214,0.504209220312738,0.495818395800341,0.5,0.497189901090687,0.494399510574538,0.502810098909313,0.506991374494196,0.493008625505804,0.504181604199659,0.497189901090687,0.15808097292591,0.50093662330755,0.495818395800341,0.0013952619074813,0.5,0.00281405837157189,1.0996725738544,0.00227747797848732,2.72296843603497,0.5,83.5225627315462
CBC_1117,CBC_1117_MSI_AV_v3_Vset2_Aset3_2024-06-12_14h56.14.456.csv,1,42,2,3,z,0,1,1,aud,D,63,1,2D,3D,0,1,b,2.1471726000018,1,0,0,0,2D,3D,D23,2.94443897916644,0.50557686610714,0.495790779687262,0.497189901090687,0.5,0.498592970814214,0.505592637165939,0.498592970814214,0.497189901090687,0.498592970814214,0.498592970814214,0.504209220312738,0.495818395800341,0.5,0.497189901090687,0.494399510574538,0.502810098909313,0.491589941092873,0.508410058907127,0.494399510574538,0.502810098909313,0.208909195135509,0.500721201345588,-0.494399510574538,-0.00139126908163333,0.5,0.00281405837157189,1.0996725738544,0.00227747797848732,2.72296843603497,0.5,83.5225627315462
CBC_1117,CBC_1117_MSI_AV_v3_Vset2_Aset3_2024-06-12_14h56.14.456.csv,1,43,1,3,b,1,0,2,aud,B,27,1,1B,3B,1,0,b,2.40605580000556,1,0,1,1,1B,3B,B13,3.36729582998647,0.50557686610714,0.495790779687262,0.497189901090687,0.5,0.498592970814214,0.505592637165939,0.498592970814214,0.497189901090687,0.498592970814214,0.498592970814214,0.504209220312738,0.495818395800341,0.5,0.497189901090687,0.493008241492905,0.502810098909313,0.50840220788344,0.49159779211656,0.505592637165939,0.497189901090687,0.177342662929838,0.500689536335259,0.494407362834061,0.00139129117834997,0.5,0.00281405837157189,1.0996725738544,0.00227747797848732,2.72296843603497,0.5,83.5225627315462
CBC_1117,CBC_1117_MSI_AV_v3_Vset2_Aset3_2024-06-12_14h56.14.456.csv,1,44,3,2,z,0,1,0,aud,C,63,1,3C,2C,0,1,z,2.89676110001164,0,1,1,1,2C,3C,C32,2.46809953147162,0.50557686610714,0.495790779687262,0.497189901090687,0.5,0.498592970814214,0.506983928344289,0.498592970814214,0.497189901090687,0.498592970814214,0.498592970814214,0.504209220312738,0.495818395800341,0.5,0.497189901090687,0.493008241492905,0.502810098909313,0.508390233796532,0.491609766203468,0.504209220312738,0.495818395800341,0.127922490185877,0.499329031504584,0.495790779687262,0.0013951841941271,0.5,0.00281405837157189,1.0996725738544,0.00227747797848732,2.72296843603497,0.5,83.5225627315462
CBC_1117,CBC_1117_MSI_TV_v3_Vset1_Tset2_2024-06-12_15h43.57.296.csv,2,1,0,1,z,0,1,2,tac,B,63,1,0B,1B,0,1,z,2.6157957999967,0,1,1,1,1B,0B,B01,2.77258872223978,0.5,0.5,0.5,0.5,0.5,0.5,0.5,0.5,0.5,0.5,0.5,0.5,0.5,0.5,0.5,0.5,0.5,0.5,0.5,0.5,0.144387617083405,0.498527435936418,0.5,0.351689873656736,0.5,0.703379747313472,1.00918814685515,0.737770009334671,2.95470528407446,0.5,71.650816084986
CBC_1117,CBC_1117_MSI_TV_v3_Vset1_Tset2_2024-06-12_15h43.57.296.csv,2,2,1,0,z,0,1,3,tac,A,63,1,1A,0A,0,1,z,2.58193440000468,0,1,1,1,0A,1A,A10,2.83321334405622,0.5,0.5,0.5,0.5,0.5,0.851689873656736,0.5,0.5,0.5,0.5,0.5,0.5,0.5,0.5,0.5,0.5,0.5,0.5,0.5,0.5,0.147459844723049,0.499657058687459,0.5,0.351689873656736,0.5,0.703379747313472,1.00918814685515,0.737770009334671,2.95470528407446,0.5,71.650816084986
CBC_1117,CBC_1117_MSI_TV_v3_Vset1_Tset2_2024-06-12_15h43.57.296.csv,2,3,2,1,b,1,0,0,tac,C,9,1,2C,1C,1,0,b,2.44779780000681,1,0,1,1,2C,1C,C21,2.89037175789616,0.851689873656736,0.5,0.5,0.5,0.5,0.851689873656736,0.5,0.5,0.5,0.5,0.5,0.5,0.5,0.5,0.5,0.5,0.5,0.5,0.5,0.5,0.158700395050346,0.499501431095883,0.5,0.351689873656736,0.5,0.703379747313472,1.00918814685515,0.737770009334671,2.95470528407446,0.5,71.650816084986
CBC_1117,CBC_1117_MSI_TV_v3_Vset1_Tset2_2024-06-12_15h43.57.296.csv,2,4,0,1,b,1,0,3,tac,A,63,1,0A,1A,1,0,b,3.77927009999985,1,0,1,1,0A,1A,A01,2.94443897916644,0.851689873656736,0.5,0.5,0.5,0.5,0.851689873656736,0.5,0.5,0.5,0.5,0.851689873656736,0.5,0.5,0.5,0.5,0.5,0.851689873656736,0.148310126343264,0.851689873656736,0.5,0.111452207595832,0.822982420015164,0.148310126343264,0.104318339191354,0.5,0.703379747313472,1.00918814685515,0.737770009334671,2.95470528407446,0.5,71.650816084986
CBC_1117,CBC_1117_MSI_TV_v3_Vset1_Tset2_2024-06-12_15h43.57.296.csv,2,5,1,3,z,0,1,1,tac,D,27,1,1D,3D,0,1,b,2.70191459999478,1,0,0,0,1D,3D,D13,2.99573227355399,0.95600821284809,0.5,0.5,0.5,0.5,0.851689873656736,0.5,0.5,0.5,0.5,0.851689873656736,0.5,0.5,0.5,0.5,0.5,0.5,0.5,0.5,0.5,0.138013494217247,0.499951151876182,-0.5,-0.351689873656736,0.5,0.703379747313472,1.00918814685515,0.737770009334671,2.95470528407446,0.5,71.650816084986
CBC_1117,CBC_1117_MSI_TV_v3_Vset1_Tset2_2024-06-12_15h43.57.296.csv,2,6,1,0,b,1,0,2,tac,B,63,1,1B,0B,1,0,b,2.09578479999618,1,0,1,1,1B,0B,B10,3.04452243772342,0.95600821284809,0.5,0.5,0.5,0.5,0.851689873656736,0.5,0.5,0.5,0.5,0.851689873656736,0.5,0.5,0.148310126343264,0.5,0.5,0.851689873656736,0.148310126343264,0.851689873656736,0.5,0.353888702915457,0.82222138761568,0.148310126343264,0.104318339191354,0.5,0.703379747313472,1.00918814685515,0.737770009334671,2.95470528407446,0.5,71.650816084986
CBC_1117,CBC_1117_MSI_TV_v3_Vset1_Tset2_2024-06-12_15h43.57.296.csv,2,7,3,2,z,0,1,0,tac,C,63,1,3C,2C,0,1,z,2.53614870000456,0,1,1,1,2C,3C,C32,3.09104245335832,0.95600821284809,0.5,0.5,0.5,0.5,0.95600821284809,0.5,0.5,0.5,0.5,0.851689873656736,0.5,0.5,0.148310126343264,0.5,0.5,0.851689873656736,0.148310126343264,0.851689873656736,0.5,0.265438553631363,0.822977124134023,0.148310126343264,0.104318339191354,0.5,0.703379747313472,1.00918814685515,0.737770009334671,2.95470528407446,0.5,71.650816084986
CBC_1117,CBC_1117_MSI_TV_v3_Vset1_Tset2_2024-06-12_15h43.57.296.csv,2,8,0,2,b,1,0,3,tac,A,27,1,0A,2A,1,0,b,3.2732560000004,1,0,1,1,0A,2A,A02,3.13549421592915,0.95600821284809,0.5,0.5,0.5,0.5,0.95600821284809,0.5,0.5,0.5,0.5,0.95600821284809,0.5,0.5,0.148310126343264,0.5,0.5,0.95600821284809,0.0439917871519098,0.95600821284809,0.5,0.161960888535223,0.879488293868084,0.0439917871519098,0.0309429321307783,0.5,0.703379747313472,1.00918814685515,0.737770009334671,2.95470528407446,0.5,71.650816084986
CBC_1117,CBC_1117_MSI_TV_v3_Vset1_Tset2_2024-06-12_15h43.57.296.csv,2,9,2,3,z,0,1,1,tac,D,63,1,2D,3D,0,1,z,3.66393529999186,0,1,1,1,3D,2D,D23,3.17805383034795,0.986951144978869,0.5,0.5,0.5,0.5,0.95600821284809,0.5,0.5,0.5,0.5,0.95600821284809,0.5,0.5,0.148310126343264,0.5,0.5,0.5,0.5,0.5,0.5,0.0800054380486949,0.498514859471544,0.5,0.351689873656736,0.5,0.703379747313472,1.00918814685515,0.737770009334671,2.95470528407446,0.5,71.650816084986
CBC_1117,CBC_1117_MSI_TV_v3_Vset1_Tset2_2024-06-12_15h43.57.296.csv,2,10,1,3,b,1,0,2,tac,B,27,1,1B,3B,1,0,b,1.96781260000716,1,0,1,1,1B,3B,B13,3.2188758248682,0.986951144978869,0.5,0.5,0.5,0.5,0.95600821284809,0.5,0.5,0.5,0.5,0.95600821284809,0.5,0.5,0.148310126343264,0.5,0.851689873656736,0.95600821284809,0.0439917871519098,0.95600821284809,0.5,0.43753562480531,0.879684394211139,0.0439917871519098,0.0309429321307783,0.5,0.703379747313472,1.00918814685515,0.737770009334671,2.95470528407446,0.5,71.650816084986
CBC_1117,CBC_1117_MSI_TV_v3_Vset1_Tset2_2024-06-12_15h43.57.296.csv,2,11,2,3,b,1,0,0,tac,C,63,1,2C,3C,1,0,b,2.45627300000342,1,0,1,1,2C,3C,C23,3.25809653802148,0.986951144978869,0.5,0.5,0.5,0.5,0.986951144978869,0.5,0.5,0.5,0.5,0.95600821284809,0.5,0.5,0.148310126343264,0.5,0.851689873656736,0.95600821284809,0.0439917871519098,0.95600821284809,0.5,0.307740445090933,0.879161976275913,0.0439917871519098,0.0309429321307783,0.5,0.703379747313472,1.00918814685515,0.737770009334671,2.95470528407446,0.5,71.650816084986
CBC_1117,CBC_1117_MSI_TV_v3_Vset1_Tset2_2024-06-12_15h43.57.296.csv,2,12,3,1,z,0,1,2,tac,B,27,1,3B,1B,0,1,z,1.72713220000151,0,1,1,1,1B,3B,B31,3.29583686600433,0.986951144978869,0.5,0.5,0.5,0.5,0.986951144978869,0.5,0.5,0.5,0.5,0.986951144978869,0.5,0.5,0.148310126343264,0.5,0.851689873656736,0.986951144978869,0.0130488550211314,0.986951144978869,0.5,0.509363947440256,0.893383444365064,0.0130488550211314,0.00917830034749354,0.5,0.703379747313472,1.00918814685515,0.737770009334671,2.95470528407446,0.5,71.650816084986
CBC_1117,CBC_1117_MSI_TV_v3_Vset1_Tset2_2024-06-12_15h43.57.296.csv,2,13,2,3,b,1,0,0,tac,C,63,1,2C,3C,1,0,b,2.4219477000006,1,0,1,1,2C,3C,C23,2.63905732961526,0.986951144978869,0.5,0.5,0.5,0.5,0.996129445326362,0.5,0.5,0.5,0.5,0.986951144978869,0.5,0.5,0.148310126343264,0.5,0.851689873656736,0.986951144978869,0.0130488550211314,0.986951144978869,0.5,0.323277631897215,0.892887663118901,0.0130488550211314,0.00917830034749354,0.5,0.703379747313472,1.00918814685515,0.737770009334671,2.95470528407446,0.5,71.650816084986
CBC_1117,CBC_1117_MSI_TV_v3_Vset1_Tset2_2024-06-12_15h43.57.296.csv,2,14,2,3,z,0,1,1,tac,D,63,1,2D,3D,0,1,z,3.38632750000397,0,1,1,1,3D,2D,D23,2.67414864942653,0.986951144978869,0.5,0.5,0.5,0.5,0.996129445326362,0.5,0.5,0.5,0.5,0.996129445326362,0.5,0.5,0.148310126343264,0.5,0.851689873656736,0.851689873656736,0.148310126343264,0.851689873656736,0.5,0.146718161492645,0.822480252419169,0.148310126343264,0.104318339191354,0.5,0.703379747313472,1.00918814685515,0.737770009334671,2.95470528407446,0.5,71.650816084986
CBC_1117,CBC_1117_MSI_TV_v3_Vset1_Tset2_2024-06-12_15h43.57.296.csv,2,15,3,0,z,0,1,3,tac,A,9,1,3A,0A,0,1,z,2.68659990000015,0,1,1,1,0A,3A,A30,3.40119738166216,0.986951144978869,0.5,0.5,0.5,0.5,0.996129445326362,0.5,0.5,0.5,0.5,0.996129445326362,0.5,0.5,0.148310126343264,0.5,0.95600821284809,0.986951144978869,0.0130488550211314,0.986951144978869,0.5,0.260971324500136,0.893015343198256,0.0130488550211314,0.00917830034749354,0.5,0.703379747313472,1.00918814685515,0.737770009334671,2.95470528407446,0.5,71.650816084986
CBC_1117,CBC_1117_MSI_TV_v3_Vset1_Tset2_2024-06-12_15h43.57.296.csv,2,16,1,0,b,1,0,2,tac,B,63,0,1B,0B,NaN,NaN,None,NaN,NaN,NaN,NaN,NaN,,,B10,2.7408400239252,0.996129445326362,0.5,0.5,0.5,0.5,0.996129445326362,0.5,0.5,0.5,0.5,0.996129445326362,0.5,0.5,0.148310126343264,0.5,0.95600821284809,0,0,0,0,NaN,0,0,0,0.5,0.703379747313472,1.00918814685515,0.737770009334671,2.95470528407446,0.5,71.650816084986
CBC_1117,CBC_1117_MSI_TV_v3_Vset1_Tset2_2024-06-12_15h43.57.296.csv,2,17,3,2,b,1,0,1,tac,D,63,1,3D,2D,1,0,b,2.09340489999158,1,0,1,1,3D,2D,D32,3.46573590279973,0.996129445326362,0.5,0.5,0.5,0.5,0.996129445326362,0.5,0.5,0.5,0.5,0.996129445326362,0.5,0.5,0.148310126343264,0.5,0.95600821284809,0.95600821284809,0.0439917871519098,0.95600821284809,0.5,0.403358047462615,0.879919353040403,0.0439917871519098,0.0309429321307783,0.5,0.703379747313472,1.00918814685515,0.737770009334671,2.95470528407446,0.5,71.650816084986
CBC_1117,CBC_1117_MSI_TV_v3_Vset1_Tset2_2024-06-12_15h43.57.296.csv,2,18,2,0,b,1,0,0,tac,C,27,1,2C,0C,1,0,b,2.35512909998943,1,0,1,1,2C,0C,C20,3.49650756146648,0.996129445326362,0.5,0.5,0.5,0.5,0.996129445326362,0.5,0.5,0.5,0.5,0.996129445326362,0.5,0.5,0.148310126343264,0.5,0.986951144978869,0.996129445326362,0.00387055467363784,0.996129445326362,0.5,0.343522930503319,0.897072378635501,0.00387055467363784,0.00272246976830636,0.5,0.703379747313472,1.00918814685515,0.737770009334671,2.95470528407446,0.5,71.650816084986
CBC_1117,CBC_1117_MSI_TV_v3_Vset1_Tset2_2024-06-12_15h43.57.296.csv,2,19,1,0,z,0,1,3,tac,A,63,1,1A,0A,0,1,z,2.72702609999396,0,1,1,1,0A,1A,A10,2.83321334405622,0.996129445326362,0.5,0.5,0.5,0.5,0.996129445326362,0.5,0.5,0.5,0.5,0.998851915094669,0.5,0.5,0.148310126343264,0.5,0.986951144978869,0.996129445326362,0.00387055467363784,0.996129445326362,0.5,0.2533488634825,0.897070984774693,0.00387055467363784,0.00272246976830636,0.5,0.703379747313472,1.00918814685515,0.737770009334671,2.95470528407446,0.5,71.650816084986
CBC_1117,CBC_1117_MSI_TV_v3_Vset1_Tset2_2024-06-12_15h43.57.296.csv,2,20,0,1,z,0,1,2,tac,B,63,1,0B,1B,0,1,b,2.5325989999983,1,0,0,0,0B,1B,B01,2.86220088092947,0.998851915094669,0.5,0.5,0.5,0.5,0.996129445326362,0.5,0.5,0.5,0.5,0.998851915094669,0.5,0.5,0.148310126343264,0.5,0.986951144978869,0.00387055467363784,0.996129445326362,0.5,0.996129445326362,0.0341331387993819,0.102959597455347,-0.5,-0.351689873656736,0.5,0.703379747313472,1.00918814685515,0.737770009334671,2.95470528407446,0.5,71.650816084986
CBC_1117,CBC_1117_MSI_TV_v3_Vset1_Tset2_2024-06-12_15h43.57.296.csv,2,21,3,1,b,1,0,1,tac,D,27,1,3D,1D,1,0,b,2.12630740000168,1,0,1,1,3D,1D,D31,3.58351893845611,0.998851915094669,0.5,0.5,0.5,0.148310126343264,0.996129445326362,0.5,0.5,0.5,0.5,0.998851915094669,0.5,0.5,0.148310126343264,0.5,0.986951144978869,0.997702966465828,0.00229703353417154,0.986951144978869,0.148310126343264,0.411126703783466,0.897656335558603,0.0130488550211314,0.00917830034749354,0.5,0.703379747313472,1.00918814685515,0.737770009334671,2.95470528407446,0.5,71.650816084986
CBC_1117,CBC_1117_MSI_TV_v3_Vset1_Tset2_2024-06-12_15h43.57.296.csv,2,22,2,3,b,1,0,0,tac,C,63,1,2C,3C,1,0,b,2.53731929999776,1,0,1,1,2C,3C,C23,2.51230562397611,0.998851915094669,0.5,0.5,0.5,0.148310126343264,0.996129445326362,0.5,0.5,0.5,0.5,0.998851915094669,0.5,0.5,0.148310126343264,0.5,0.996129445326362,0.998851915094669,0.00114808490533147,0.998851915094669,0.5,0.296670658858528,0.898158447548302,0.00114808490533147,0.000807539670606461,0.5,0.703379747313472,1.00918814685515,0.737770009334671,2.95470528407446,0.5,71.650816084986
CBC_1117,CBC_1117_MSI_TV_v3_Vset1_Tset2_2024-06-12_15h43.57.296.csv,2,23,1,0,z,0,1,3,tac,A,63,1,1A,0A,0,1,z,2.36028599999554,0,1,1,1,0A,1A,A10,2.53897387105828,0.998851915094669,0.5,0.5,0.5,0.148310126343264,0.996129445326362,0.5,0.5,0.5,0.5,0.999659454765275,0.5,0.5,0.148310126343264,0.5,0.996129445326362,0.998851915094669,0.00114808490533147,0.998851915094669,0.5,0.342324914764415,0.897435043664262,0.00114808490533147,0.000807539670606461,0.5,0.703379747313472,1.00918814685515,0.737770009334671,2.95470528407446,0.5,71.650816084986
CBC_1117,CBC_1117_MSI_TV_v3_Vset1_Tset2_2024-06-12_15h43.57.296.csv,2,24,3,2,b,1,0,1,tac,D,63,1,3D,2D,1,0,b,2.332965900001,1,0,1,1,3D,2D,D32,2.9704144655697,0.999659454765275,0.5,0.5,0.5,0.148310126343264,0.996129445326362,0.5,0.5,0.5,0.5,0.999659454765275,0.5,0.5,0.148310126343264,0.5,0.996129445326362,0.996129445326362,0.00387055467363784,0.996129445326362,0.5,0.349464955652346,0.896747434163191,0.00387055467363784,0.00272246976830636,0.5,0.703379747313472,1.00918814685515,0.737770009334671,2.95470528407446,0.5,71.650816084986
CBC_1117,CBC_1117_MSI_TV_v3_Vset1_Tset2_2024-06-12_15h43.57.296.csv,2,25,0,2,z,0,1,0,tac,C,27,1,0C,2C,0,1,z,3.05138319999969,0,1,1,1,2C,0C,C02,3.68887945411394,0.999659454765275,0.5,0.5,0.5,0.148310126343264,0.996129445326362,0.5,0.5,0.5,0.5,0.999659454765275,0.5,0.5,0.148310126343264,0.5,0.998851915094669,0.999659454765275,0.000340545234725043,0.999659454765275,0.5,0.193486412310398,0.898361386847684,0.000340545234725043,0.000239532621149708,0.5,0.703379747313472,1.00918814685515,0.737770009334671,2.95470528407446,0.5,71.650816084986
CBC_1117,CBC_1117_MSI_TV_v3_Vset1_Tset2_2024-06-12_15h43.57.296.csv,2,26,1,0,z,0,1,3,tac,A,63,1,1A,0A,0,1,z,3.91104440001072,0,1,1,1,0A,1A,A10,2.32727770558442,0.999659454765275,0.5,0.5,0.5,0.148310126343264,0.996129445326362,0.5,0.5,0.5,0.5,0.999898987386425,0.5,0.5,0.148310126343264,0.5,0.998851915094669,0.999659454765275,0.000340545234725043,0.999659454765275,0.5,0.0942696191193289,0.898202978852878,0.000340545234725043,0.000239532621149708,0.5,0.703379747313472,1.00918814685515,0.737770009334671,2.95470528407446,0.5,71.650816084986
CBC_1117,CBC_1117_MSI_TV_v3_Vset1_Tset2_2024-06-12_15h43.57.296.csv,2,27,3,1,z,0,1,2,tac,B,27,1,3B,1B,0,1,z,2.16758159999154,0,1,1,1,1B,3B,B31,3.04452243772342,0.999898987386425,0.5,0.5,0.5,0.148310126343264,0.996129445326362,0.5,0.5,0.5,0.5,0.999898987386425,0.5,0.5,0.148310126343264,0.5,0.998851915094669,0.996129445326362,0.00387055467363784,0.996129445326362,0.5,0.398236271240499,0.897350150957786,0.00387055467363784,0.00272246976830636,0.5,0.703379747313472,1.00918814685515,0.737770009334671,2.95470528407446,0.5,71.650816084986
CBC_1117,CBC_1117_MSI_TV_v3_Vset1_Tset2_2024-06-12_15h43.57.296.csv,2,28,2,3,b,1,0,0,tac,C,63,1,2C,3C,1,0,b,2.6565694000019,1,0,1,1,2C,3C,C23,2.37490575457367,0.999898987386425,0.5,0.5,0.5,0.148310126343264,0.998851915094669,0.5,0.5,0.5,0.5,0.999898987386425,0.5,0.5,0.148310126343264,0.5,0.998851915094669,0.999898987386425,0.000101012613575313,0.999898987386425,0.5,0.268918554288789,0.898474768789307,0.000101012613575313,7.10502266120771e-05,0.5,0.703379747313472,1.00918814685515,0.737770009334671,2.95470528407446,0.5,71.650816084986
CBC_1117,CBC_1117_MSI_TV_v3_Vset1_Tset2_2024-06-12_15h43.57.296.csv,2,29,2,3,z,0,1,1,tac,D,63,1,2D,3D,0,1,b,2.41090489999624,1,0,0,0,2D,3D,D23,2.68557734525015,0.999898987386425,0.5,0.5,0.5,0.148310126343264,0.998851915094669,0.5,0.5,0.5,0.5,0.999970037613037,0.5,0.5,0.148310126343264,0.5,0.998851915094669,0.00114808490533147,0.998851915094669,0.5,0.998851915094669,0.0372398142615485,0.10165173090823,-0.5,-0.351689873656736,0.5,0.703379747313472,1.00918814685515,0.737770009334671,2.95470528407446,0.5,71.650816084986
CBC_1117,CBC_1117_MSI_TV_v3_Vset1_Tset2_2024-06-12_15h43.57.296.csv,2,30,1,0,b,1,0,2,tac,B,63,1,1B,0B,1,0,b,1.8681338000024,1,0,1,1,1B,0B,B10,2.70805020110221,0.999898987386425,0.5,0.5,0.5,0.148310126343264,0.998851915094669,0.5,0.5,0.5,0.5,0.999970037613037,0.5,0.5,0.148310126343264,0.148310126343264,0.998851915094669,0.999799886998987,0.000200113001012525,0.998851915094669,0.148310126343264,0.489276432274692,0.898497052269471,0.00114808490533147,0.000807539670606461,0.5,0.703379747313472,1.00918814685515,0.737770009334671,2.95470528407446,0.5,71.650816084986
CBC_1117,CBC_1117_MSI_TV_v3_Vset1_Tset2_2024-06-12_15h43.57.296.csv,2,31,0,2,b,1,0,3,tac,A,27,1,0A,2A,1,0,b,2.392855099999,1,0,1,1,0A,2A,A02,3.13549421592915,0.999898987386425,0.5,0.5,0.5,0.148310126343264,0.999659454765275,0.5,0.5,0.5,0.5,0.999970037613037,0.5,0.5,0.148310126343264,0.148310126343264,0.998851915094669,0.999898987386425,0.000101012613575313,0.999898987386425,0.5,0.33405307523105,0.898500929017686,0.000101012613575313,7.10502266120771e-05,0.5,0.703379747313472,1.00918814685515,0.737770009334671,2.95470528407446,0.5,71.650816084986
CBC_1117,CBC_1117_MSI_TV_v3_Vset1_Tset2_2024-06-12_15h43.57.296.csv,2,32,0,3,z,0,1,1,tac,D,9,1,0D,3D,0,1,z,3.51397169999836,0,1,1,1,3D,0D,D03,3.85014760171006,0.999970037613037,0.5,0.5,0.5,0.148310126343264,0.999659454765275,0.5,0.5,0.5,0.5,0.999970037613037,0.5,0.5,0.148310126343264,0.148310126343264,0.998851915094669,0.998851915094669,0.00114808490533147,0.998851915094669,0.5,0.131440128857523,0.898086824555848,0.00114808490533147,0.000807539670606461,0.5,0.703379747313472,1.00918814685515,0.737770009334671,2.95470528407446,0.5,71.650816084986
CBC_1117,CBC_1117_MSI_TV_v3_Vset1_Tset2_2024-06-12_15h43.57.296.csv,2,33,2,3,b,1,0,0,tac,C,63,1,2C,3C,1,0,b,1.17389859999821,1,0,1,1,2C,3C,C23,2.26176309847379,0.999970037613037,0.5,0.5,0.5,0.148310126343264,0.999659454765275,0.5,0.5,0.5,0.5,0.999970037613037,0.5,0.5,0.148310126343264,0.148310126343264,0.999659454765275,0.999970037613037,2.99623869632892e-05,0.999970037613037,0.5,0.0332264084928766,0.89828696900038,2.99623869632892e-05,2.10749361711469e-05,0.5,0.703379747313472,1.00918814685515,0.737770009334671,2.95470528407446,0.5,71.650816084986
CBC_1117,CBC_1117_MSI_TV_v3_Vset1_Tset2_2024-06-12_15h43.57.296.csv,2,34,1,0,b,1,0,2,tac,B,63,1,1B,0B,1,0,z,1.78264140000101,0,1,0,0,0B,1B,B10,2.50552593699074,0.999970037613037,0.5,0.5,0.5,0.148310126343264,0.999659454765275,0.5,0.5,0.5,0.5,0.999991112549208,0.5,0.5,0.148310126343264,0.148310126343264,0.999659454765275,5.93179711764202e-05,0.999940682028824,0.148310126343264,0.999659454765275,0.0574033854599743,0.101190552662777,-0.148310126343264,-0.104318339191354,0.5,0.703379747313472,1.00918814685515,0.737770009334671,2.95470528407446,0.5,71.650816084986
CBC_1117,CBC_1117_MSI_TV_v3_Vset1_Tset2_2024-06-12_15h43.57.296.csv,2,35,1,0,z,0,1,3,tac,A,63,0,1A,0A,1,0,z,2.6672658000025,0,1,1,0,0A,1A,A10,2.30258509299405,0.999970037613037,0.5,0.5,0.5,0.0439917871519098,0.999659454765275,0.5,0.5,0.5,0.5,0.999991112549208,0.5,0.5,0.148310126343264,0.148310126343264,0.999659454765275,0.999970037613037,2.99623869632892e-05,0.999970037613037,0.5,0.266453177956937,0.898120992518848,-0.999970037613037,-0.703358672377301,0.5,0.703379747313472,1.00918814685515,0.737770009334671,2.95470528407446,0.5,71.650816084986
CBC_1117,CBC_1117_MSI_TV_v3_Vset1_Tset2_2024-06-12_15h43.57.296.csv,2,36,3,2,b,1,0,1,tac,D,63,1,3D,2D,1,0,b,2.32955059999949,1,0,1,1,3D,2D,D32,2.83321334405622,0.296611365235736,0.5,0.5,0.5,0.0439917871519098,0.999659454765275,0.5,0.5,0.5,0.5,0.999991112549208,0.5,0.5,0.148310126343264,0.148310126343264,0.999659454765275,0.999940682028824,5.93179711764202e-05,0.999659454765275,0.148310126343264,0.351582003749823,0.898521452271192,0.000340545234725043,0.000239532621149708,0.5,0.703379747313472,1.00918814685515,0.737770009334671,2.95470528407446,0.5,71.650816084986
CBC_1117,CBC_1117_MSI_TV_v3_Vset1_Tset2_2024-06-12_15h43.57.296.csv,2,37,2,1,z,0,1,2,tac,B,9,1,2B,1B,0,1,z,2.0702781,0,1,1,1,1B,2B,B21,3.95124371858143,0.296611365235736,0.5,0.5,0.5,0.0439917871519098,0.999659454765275,0.5,0.5,0.5,0.5,0.999991112549208,0.5,0.5,0.148310126343264,0.148310126343264,0.999898987386425,0.999659454765275,0.000340545234725043,0.999659454765275,0.5,0.428761446525261,0.897989376648338,0.000340545234725043,0.000239532621149708,0.5,0.703379747313472,1.00918814685515,0.737770009334671,2.95470528407446,0.5,71.650816084986
CBC_1117,CBC_1117_MSI_TV_v3_Vset1_Tset2_2024-06-12_15h43.57.296.csv,2,38,0,2,b,1,0,3,tac,A,27,1,0A,2A,1,0,b,2.42637669999385,1,0,1,1,0A,2A,A02,2.87167962488401,0.296611365235736,0.5,0.5,0.5,0.0439917871519098,0.999898987386425,0.5,0.5,0.5,0.5,0.999991112549208,0.5,0.5,0.148310126343264,0.148310126343264,0.999898987386425,0.296611365235736,0.703388634764264,0.296611365235736,0.5,0.0964732485626833,0.290754981256695,0.703388634764264,0.494749320183656,0.5,0.703379747313472,1.00918814685515,0.737770009334671,2.95470528407446,0.5,71.650816084986
CBC_1117,CBC_1117_MSI_TV_v3_Vset1_Tset2_2024-06-12_15h43.57.296.csv,2,39,3,2,z,0,1,0,tac,C,63,1,3C,2C,0,1,b,3.15758410000126,1,0,0,0,3C,2C,C32,3.29583686600433,0.791360685419392,0.5,0.5,0.5,0.0439917871519098,0.999898987386425,0.5,0.5,0.5,0.5,0.999991112549208,0.5,0.5,0.148310126343264,0.148310126343264,0.999898987386425,8.88745079219433e-06,0.999991112549208,0.5,0.999991112549208,0.02004101287933,0.101684799779625,-0.5,-0.351689873656736,0.5,0.703379747313472,1.00918814685515,0.737770009334671,2.95470528407446,0.5,71.650816084986
CBC_1117,CBC_1117_MSI_TV_v3_Vset1_Tset2_2024-06-12_15h43.57.296.csv,2,40,3,1,b,1,0,1,tac,D,27,1,3D,1D,1,0,b,2.21136649999244,1,0,1,1,3D,1D,D31,3.31418600467253,0.791360685419392,0.5,0.5,0.5,0.0439917871519098,0.999898987386425,0.5,0.5,0.5,0.5,0.999991112549208,0.148310126343264,0.5,0.148310126343264,0.148310126343264,0.999898987386425,0.999982408569339,1.75914306606018e-05,0.999898987386425,0.148310126343264,0.386113064877112,0.898592582805221,0.000101012613575313,7.10502266120771e-05,0.5,0.703379747313472,1.00918814685515,0.737770009334671,2.95470528407446,0.5,71.650816084986
CBC_1117,CBC_1117_MSI_TV_v3_Vset1_Tset2_2024-06-12_15h43.57.296.csv,2,41,1,0,z,0,1,3,tac,A,63,1,1A,0A,0,1,z,2.86056119999557,0,1,1,1,0A,1A,A10,2.23359222150709,0.791360685419392,0.5,0.5,0.5,0.0439917871519098,0.999898987386425,0.5,0.5,0.5,0.5,0.999991112549208,0.148310126343264,0.5,0.148310126343264,0.148310126343264,0.999970037613037,0.791360685419392,0.208639314580608,0.791360685419392,0.5,0.200916420786442,0.781043266985933,0.208639314580608,0.146752668369364,0.5,0.703379747313472,1.00918814685515,0.737770009334671,2.95470528407446,0.5,71.650816084986
CBC_1117,CBC_1117_MSI_TV_v3_Vset1_Tset2_2024-06-12_15h43.57.296.csv,2,42,2,0,b,1,0,0,tac,C,27,1,2C,0C,1,0,b,2.59392949999892,1,0,1,1,2C,0C,C20,3.3499040872746,0.938113353788756,0.5,0.5,0.5,0.0439917871519098,0.999898987386425,0.5,0.5,0.5,0.5,0.999991112549208,0.148310126343264,0.5,0.148310126343264,0.148310126343264,0.999970037613037,0.999991112549208,8.88745079219433e-06,0.999991112549208,0.5,0.283116668558941,0.898090812142733,8.88745079219433e-06,6.25125289247457e-06,0.5,0.703379747313472,1.00918814685515,0.737770009334671,2.95470528407446,0.5,71.650816084986
CBC_1117,CBC_1117_MSI_TV_v3_Vset1_Tset2_2024-06-12_15h43.57.296.csv,2,43,2,3,z,0,1,1,tac,D,63,1,2D,3D,0,1,b,2.32319760000973,1,0,0,0,2D,3D,D23,2.67414864942653,0.938113353788756,0.5,0.5,0.5,0.0439917871519098,0.999898987386425,0.5,0.5,0.5,0.5,0.9999973638021,0.148310126343264,0.5,0.148310126343264,0.148310126343264,0.999970037613037,5.21766842080731e-06,0.999994782331579,0.148310126343264,0.999970037613037,0.0398337290765331,0.101267141722892,-0.148310126343264,-0.104318339191354,0.5,0.703379747313472,1.00918814685515,0.737770009334671,2.95470528407446,0.5,71.650816084986
CBC_1117,CBC_1117_MSI_TV_v3_Vset1_Tset2_2024-06-12_15h43.57.296.csv,2,44,0,1,z,0,1,2,tac,B,63,1,0B,1B,0,1,z,2.20849970000563,0,1,1,1,1B,0B,B01,2.97892515523761,0.938113353788756,0.5,0.5,0.5,0.0439917871519098,0.999898987386425,0.5,0.5,0.5,0.5,0.9999973638021,0.148310126343264,0.5,0.148310126343264,0.0439917871519098,0.999970037613037,0.999995351343645,4.64865635520739e-06,0.999898987386425,0.0439917871519098,0.386766135279001,0.898347225334291,0.000101012613575313,7.10502266120771e-05,0.5,0.703379747313472,1.00918814685515,0.737770009334671,2.95470528407446,0.5,71.650816084986
