ID,filename,session,trial,visStimLeft,visStimRight,correctKey,leftCorrect,rightCorrect,secondStim,mod2Type,mod2Stim,frequency,rewardAccurate,stimPairLeft,stimPairRight,pCorrectLeft,pCorrectRight,key,reactionTime,choiceLeft,choiceRight,choiceAccurate,reward,chosenPair,otherPair,triplet,surprise,0A belief,1A belief,2A belief,3A belief,0B belief,1B belief,2B belief,3B belief,0C belief,1C belief,2C belief,3C belief,0D belief,1D belief,2D belief,3D belief,beliefPairNorm,beliefOtherPairNorm,beliefPair,beliefOtherPair,lik,corrLik,rewardPE,update2,fitCBCsimpleRW_CBCdriftDiffusionLR_startBelief,fitCBCsimpleRW_CBCdriftDiffusionLR_alpha1,fitCBCsimpleRW_CBCdriftDiffusionLR_nonDecisionTime,fitCBCsimpleRW_CBCdriftDiffusionLR_weight,fitCBCsimpleRW_CBCdriftDiffusionLR_startingBoundary,fitCBCsimpleRW_CBCdriftDiffusionLR_startingPoint,fit_CBCsimpleRW_CBCdriftDiffusionLR_NLL
CBC_1037,CBC_1037_MSI_AV_v3_Vset3_Aset2_2024-01-04_12h44.35.607.csv,1,1,0,1,z,0,1,1,aud,B,63,1,0B,1B,0,1,z,2.73296630000004,0,1,1,1,1B,0B,B01,2.77258872223978,0.5,0.5,0.5,0.5,0.5,0.5,0.5,0.5,0.5,0.5,0.5,0.5,0.5,0.5,0.5,0.5,0.5,0.5,0.5,0.5,0.122635025314874,0.50059176663738,0.5,0.0127138315413341,0.5,0.0254276630826682,0.905633989651483,9.05543955755522,2.60231263710288,0.5,79.3349567202979
CBC_1037,CBC_1037_MSI_AV_v3_Vset3_Aset2_2024-01-04_12h44.35.607.csv,1,2,0,1,b,1,0,2,aud,A,63,1,0A,1A,1,0,b,2.36574830000018,1,0,1,1,0A,1A,A01,2.83321334405622,0.5,0.5,0.5,0.5,0.5,0.512713831541334,0.5,0.5,0.5,0.5,0.5,0.5,0.5,0.5,0.5,0.5,0.5,0.5,0.5,0.5,0.160168333407253,0.500567716586208,0.5,0.0127138315413341,0.5,0.0254276630826682,0.905633989651483,9.05543955755522,2.60231263710288,0.5,79.3349567202979
CBC_1037,CBC_1037_MSI_AV_v3_Vset3_Aset2_2024-01-04_12h44.35.607.csv,1,3,2,3,z,0,1,3,aud,D,63,1,2D,3D,0,1,z,2.70481790000031,0,1,1,1,3D,2D,D23,2.89037175789616,0.512713831541334,0.5,0.5,0.5,0.5,0.512713831541334,0.5,0.5,0.5,0.5,0.5,0.5,0.5,0.5,0.5,0.5,0.5,0.5,0.5,0.5,0.125181940534495,0.500619969174059,0.5,0.0127138315413341,0.5,0.0254276630826682,0.905633989651483,9.05543955755522,2.60231263710288,0.5,79.3349567202979
CBC_1037,CBC_1037_MSI_AV_v3_Vset3_Aset2_2024-01-04_12h44.35.607.csv,1,4,2,1,z,0,1,1,aud,B,9,1,2B,1B,0,1,b,1.45200280000017,1,0,0,0,2B,1B,B21,2.94443897916644,0.512713831541334,0.5,0.5,0.5,0.5,0.512713831541334,0.5,0.5,0.5,0.5,0.5,0.5,0.5,0.5,0.5,0.512713831541334,0.493722890344065,0.506277109655935,0.5,0.512713831541334,0.234580845626199,0.426494683780284,-0.5,-0.0127138315413341,0.5,0.0254276630826682,0.905633989651483,9.05543955755522,2.60231263710288,0.5,79.3349567202979
CBC_1037,CBC_1037_MSI_AV_v3_Vset3_Aset2_2024-01-04_12h44.35.607.csv,1,5,0,2,b,1,0,2,aud,A,27,1,0A,2A,1,0,b,1.58617470000036,1,0,1,1,0A,2A,A02,2.99573227355399,0.512713831541334,0.5,0.5,0.5,0.5,0.512713831541334,0.487286168458666,0.5,0.5,0.5,0.5,0.5,0.5,0.5,0.5,0.512713831541334,0.506277109655935,0.493722890344065,0.512713831541334,0.5,0.306849485938977,0.572112686536901,0.487286168458666,0.0123905485164113,0.5,0.0254276630826682,0.905633989651483,9.05543955755522,2.60231263710288,0.5,79.3349567202979
CBC_1037,CBC_1037_MSI_AV_v3_Vset3_Aset2_2024-01-04_12h44.35.607.csv,1,6,2,3,b,1,0,0,aud,C,63,1,2C,3C,1,0,z,3.48096060000034,0,1,0,0,3C,2C,C23,3.04452243772342,0.525104380057745,0.5,0.5,0.5,0.5,0.512713831541334,0.487286168458666,0.5,0.5,0.5,0.5,0.5,0.5,0.5,0.5,0.512713831541334,0.5,0.5,0.5,0.5,0.0710672144940041,0.50029624089495,-0.5,-0.0127138315413341,0.5,0.0254276630826682,0.905633989651483,9.05543955755522,2.60231263710288,0.5,79.3349567202979
CBC_1037,CBC_1037_MSI_AV_v3_Vset3_Aset2_2024-01-04_12h44.35.607.csv,1,7,1,3,z,0,1,3,aud,D,27,1,1D,3D,0,1,b,2.80498840000018,1,0,0,0,1D,3D,D13,3.09104245335832,0.525104380057745,0.5,0.5,0.5,0.5,0.512713831541334,0.487286168458666,0.5,0.5,0.5,0.5,0.487286168458666,0.5,0.5,0.5,0.512713831541334,0.493722890344065,0.506277109655935,0.5,0.512713831541334,0.099191280469367,0.427277019831818,-0.5,-0.0127138315413341,0.5,0.0254276630826682,0.905633989651483,9.05543955755522,2.60231263710288,0.5,79.3349567202979
CBC_1037,CBC_1037_MSI_AV_v3_Vset3_Aset2_2024-01-04_12h44.35.607.csv,1,8,1,0,z,0,1,2,aud,A,63,1,1A,0A,0,1,b,3.12122200000022,1,0,0,0,1A,0A,A10,3.13549421592915,0.525104380057745,0.5,0.5,0.5,0.5,0.512713831541334,0.487286168458666,0.5,0.5,0.5,0.5,0.487286168458666,0.5,0.487286168458666,0.5,0.512713831541334,0.487755207886083,0.512244792113917,0.5,0.525104380057745,0.0654853265926218,0.359495383039079,-0.5,-0.0127138315413341,0.5,0.0254276630826682,0.905633989651483,9.05543955755522,2.60231263710288,0.5,79.3349567202979
CBC_1037,CBC_1037_MSI_AV_v3_Vset3_Aset2_2024-01-04_12h44.35.607.csv,1,9,2,0,b,1,0,0,aud,C,27,1,2C,0C,1,0,b,1.45425579999983,1,0,1,1,2C,0C,C20,3.17805383034795,0.525104380057745,0.487286168458666,0.5,0.5,0.5,0.512713831541334,0.487286168458666,0.5,0.5,0.5,0.5,0.487286168458666,0.5,0.487286168458666,0.5,0.512713831541334,0.5,0.5,0.5,0.5,0.273656436462648,0.501131327222149,0.5,0.0127138315413341,0.5,0.0254276630826682,0.905633989651483,9.05543955755522,2.60231263710288,0.5,79.3349567202979
CBC_1037,CBC_1037_MSI_AV_v3_Vset3_Aset2_2024-01-04_12h44.35.607.csv,1,10,2,3,z,0,1,3,aud,D,63,1,2D,3D,0,1,z,3.03094710000005,0,1,1,1,3D,2D,D23,2.52572864430826,0.525104380057745,0.487286168458666,0.5,0.5,0.5,0.512713831541334,0.487286168458666,0.5,0.5,0.5,0.512713831541334,0.487286168458666,0.5,0.487286168458666,0.5,0.512713831541334,0.506277109655935,0.493722890344065,0.512713831541334,0.5,0.112716125658458,0.573267587773625,0.487286168458666,0.0123905485164113,0.5,0.0254276630826682,0.905633989651483,9.05543955755522,2.60231263710288,0.5,79.3349567202979
CBC_1037,CBC_1037_MSI_AV_v3_Vset3_Aset2_2024-01-04_12h44.35.607.csv,1,11,1,0,b,1,0,1,aud,B,63,1,1B,0B,1,0,b,2.91044550000015,1,0,1,1,1B,0B,B10,3.25809653802148,0.525104380057745,0.487286168458666,0.5,0.5,0.5,0.512713831541334,0.487286168458666,0.5,0.5,0.5,0.512713831541334,0.487286168458666,0.5,0.487286168458666,0.5,0.525104380057745,0.506277109655935,0.493722890344065,0.512713831541334,0.5,0.12334593570198,0.574186304874585,0.487286168458666,0.0123905485164113,0.5,0.0254276630826682,0.905633989651483,9.05543955755522,2.60231263710288,0.5,79.3349567202979
CBC_1037,CBC_1037_MSI_AV_v3_Vset3_Aset2_2024-01-04_12h44.35.607.csv,1,12,0,1,b,1,0,2,aud,A,63,1,0A,1A,1,0,z,2.46222609999995,0,1,0,0,1A,0A,A01,2.60268968544438,0.525104380057745,0.487286168458666,0.5,0.5,0.5,0.525104380057745,0.487286168458666,0.5,0.5,0.5,0.512713831541334,0.487286168458666,0.5,0.487286168458666,0.5,0.525104380057745,0.481322320889651,0.518677679110349,0.487286168458666,0.525104380057745,0.0879779692757076,0.293484923702869,-0.487286168458666,-0.0123905485164113,0.5,0.0254276630826682,0.905633989651483,9.05543955755522,2.60231263710288,0.5,79.3349567202979
CBC_1037,CBC_1037_MSI_AV_v3_Vset3_Aset2_2024-01-04_12h44.35.607.csv,1,13,2,3,z,0,1,3,aud,D,63,1,2D,3D,0,1,z,2.65568040000016,0,1,1,1,3D,2D,D23,2.23359222150709,0.525104380057745,0.474895619942255,0.5,0.5,0.5,0.525104380057745,0.487286168458666,0.5,0.5,0.5,0.512713831541334,0.487286168458666,0.5,0.487286168458666,0.5,0.525104380057745,0.512244792113917,0.487755207886083,0.525104380057745,0.5,0.165775554553854,0.640931684046555,0.474895619942255,0.0120754858233265,0.5,0.0254276630826682,0.905633989651483,9.05543955755522,2.60231263710288,0.5,79.3349567202979
CBC_1037,CBC_1037_MSI_AV_v3_Vset3_Aset2_2024-01-04_12h44.35.607.csv,1,14,2,0,b,1,0,0,aud,C,27,1,2C,0C,1,0,b,3.9499138000001,1,0,1,1,2C,0C,C20,2.67414864942653,0.525104380057745,0.474895619942255,0.5,0.5,0.5,0.525104380057745,0.487286168458666,0.5,0.5,0.5,0.512713831541334,0.487286168458666,0.5,0.487286168458666,0.5,0.537179865881072,0.506277109655935,0.493722890344065,0.512713831541334,0.5,0.0574776856011046,0.574656204173539,0.487286168458666,0.0123905485164113,0.5,0.0254276630826682,0.905633989651483,9.05543955755522,2.60231263710288,0.5,79.3349567202979
CBC_1037,CBC_1037_MSI_AV_v3_Vset3_Aset2_2024-01-04_12h44.35.607.csv,1,15,0,1,b,1,0,2,aud,A,63,1,0A,1A,1,0,z,1.73848790000011,0,1,0,0,1A,0A,A01,2.30258509299405,0.525104380057745,0.474895619942255,0.5,0.5,0.5,0.525104380057745,0.487286168458666,0.5,0.5,0.5,0.525104380057745,0.487286168458666,0.5,0.487286168458666,0.5,0.537179865881072,0.474895619942255,0.525104380057745,0.474895619942255,0.525104380057745,0.125465110152518,0.234636230797953,-0.474895619942255,-0.0120754858233265,0.5,0.0254276630826682,0.905633989651483,9.05543955755522,2.60231263710288,0.5,79.3349567202979
CBC_1037,CBC_1037_MSI_AV_v3_Vset3_Aset2_2024-01-04_12h44.35.607.csv,1,16,1,3,b,1,0,1,aud,B,27,1,1B,3B,1,0,z,2.38779150000028,0,1,0,0,3B,1B,B13,3.43398720448515,0.525104380057745,0.462820134118928,0.5,0.5,0.5,0.525104380057745,0.487286168458666,0.5,0.5,0.5,0.525104380057745,0.487286168458666,0.5,0.487286168458666,0.5,0.537179865881072,0.487755207886083,0.512244792113917,0.5,0.525104380057745,0.113471409637217,0.358662432901512,-0.5,-0.0127138315413341,0.5,0.0254276630826682,0.905633989651483,9.05543955755522,2.60231263710288,0.5,79.3349567202979
CBC_1037,CBC_1037_MSI_AV_v3_Vset3_Aset2_2024-01-04_12h44.35.607.csv,1,17,3,2,z,0,1,0,aud,C,63,1,3C,2C,0,1,b,2.7942807000004,1,0,0,0,3C,2C,C32,3.46573590279973,0.525104380057745,0.462820134118928,0.5,0.5,0.5,0.525104380057745,0.487286168458666,0.487286168458666,0.5,0.5,0.525104380057745,0.487286168458666,0.5,0.487286168458666,0.5,0.537179865881072,0.481322320889651,0.518677679110349,0.487286168458666,0.525104380057745,0.0677651401511818,0.293362052877139,-0.487286168458666,-0.0123905485164113,0.5,0.0254276630826682,0.905633989651483,9.05543955755522,2.60231263710288,0.5,79.3349567202979
CBC_1037,CBC_1037_MSI_AV_v3_Vset3_Aset2_2024-01-04_12h44.35.607.csv,1,18,2,3,z,0,1,3,aud,D,63,0,2D,3D,1,0,z,2.27751680000029,0,1,1,0,3D,2D,D23,2.11021320034659,0.525104380057745,0.462820134118928,0.5,0.5,0.5,0.525104380057745,0.487286168458666,0.487286168458666,0.5,0.5,0.525104380057745,0.474895619942255,0.5,0.487286168458666,0.5,0.537179865881072,0.517923538194356,0.482076461805645,0.537179865881072,0.5,0.242267052345348,0.700083382133958,-0.537179865881072,-0.0136592286444168,0.5,0.0254276630826682,0.905633989651483,9.05543955755522,2.60231263710288,0.5,79.3349567202979
CBC_1037,CBC_1037_MSI_AV_v3_Vset3_Aset2_2024-01-04_12h44.35.607.csv,1,19,1,0,b,1,0,1,aud,B,63,1,1B,0B,1,0,b,3.29981300000009,1,0,1,1,1B,0B,B10,2.83321334405622,0.525104380057745,0.462820134118928,0.5,0.5,0.5,0.525104380057745,0.487286168458666,0.487286168458666,0.5,0.5,0.525104380057745,0.474895619942255,0.5,0.487286168458666,0.5,0.523520637236655,0.512244792113917,0.487755207886083,0.525104380057745,0.5,0.102031926709221,0.64084594723509,0.474895619942255,0.0120754858233265,0.5,0.0254276630826682,0.905633989651483,9.05543955755522,2.60231263710288,0.5,79.3349567202979
CBC_1037,CBC_1037_MSI_AV_v3_Vset3_Aset2_2024-01-04_12h44.35.607.csv,1,20,2,0,z,0,1,2,aud,A,27,1,2A,0A,0,1,b,1.64875650000022,1,0,0,0,2A,0A,A20,3.55534806148941,0.525104380057745,0.462820134118928,0.5,0.5,0.5,0.537179865881072,0.487286168458666,0.487286168458666,0.5,0.5,0.525104380057745,0.474895619942255,0.5,0.487286168458666,0.5,0.523520637236655,0.487755207886083,0.512244792113917,0.5,0.525104380057745,0.190644781251008,0.359302526882167,-0.5,-0.0127138315413341,0.5,0.0254276630826682,0.905633989651483,9.05543955755522,2.60231263710288,0.5,79.3349567202979
CBC_1037,CBC_1037_MSI_AV_v3_Vset3_Aset2_2024-01-04_12h44.35.607.csv,1,21,0,3,z,0,1,3,aud,D,9,1,0D,3D,0,1,z,2.44854770000029,0,1,1,1,3D,0D,D03,3.58351893845611,0.525104380057745,0.462820134118928,0.487286168458666,0.5,0.5,0.537179865881072,0.487286168458666,0.487286168458666,0.5,0.5,0.525104380057745,0.474895619942255,0.5,0.487286168458666,0.5,0.523520637236655,0.511490064968381,0.488509935031619,0.523520637236655,0.5,0.191137395940963,0.632569222762008,0.476479362763345,0.0121157567021908,0.5,0.0254276630826682,0.905633989651483,9.05543955755522,2.60231263710288,0.5,79.3349567202979
CBC_1037,CBC_1037_MSI_AV_v3_Vset3_Aset2_2024-01-04_12h44.35.607.csv,1,22,2,3,b,1,0,0,aud,C,63,1,2C,3C,1,0,b,4.10239480000018,1,0,1,1,2C,3C,C23,2.91777073208428,0.525104380057745,0.462820134118928,0.487286168458666,0.5,0.5,0.537179865881072,0.487286168458666,0.487286168458666,0.5,0.5,0.525104380057745,0.474895619942255,0.5,0.487286168458666,0.5,0.535636393938846,0.525104380057745,0.474895619942255,0.525104380057745,0.474895619942255,0.0586315985046601,0.765800672214565,0.474895619942255,0.0120754858233265,0.5,0.0254276630826682,0.905633989651483,9.05543955755522,2.60231263710288,0.5,79.3349567202979
CBC_1037,CBC_1037_MSI_AV_v3_Vset3_Aset2_2024-01-04_12h44.35.607.csv,1,23,3,1,z,0,1,1,aud,B,27,1,3B,1B,0,1,b,2.74306550000028,1,0,0,0,3B,1B,B31,3.63758615972639,0.525104380057745,0.462820134118928,0.487286168458666,0.5,0.5,0.537179865881072,0.487286168458666,0.487286168458666,0.5,0.5,0.537179865881072,0.474895619942255,0.5,0.487286168458666,0.5,0.535636393938846,0.475648925513396,0.524351074486604,0.487286168458666,0.537179865881072,0.0573053992785799,0.240969832523431,-0.487286168458666,-0.0123905485164113,0.5,0.0254276630826682,0.905633989651483,9.05543955755522,2.60231263710288,0.5,79.3349567202979
CBC_1037,CBC_1037_MSI_AV_v3_Vset3_Aset2_2024-01-04_12h44.35.607.csv,1,24,3,2,z,0,1,0,aud,C,63,1,3C,2C,0,1,z,2.45797740000035,0,1,1,1,2C,3C,C32,2.9704144655697,0.525104380057745,0.462820134118928,0.487286168458666,0.5,0.5,0.537179865881072,0.487286168458666,0.474895619942255,0.5,0.5,0.537179865881072,0.474895619942255,0.5,0.487286168458666,0.5,0.535636393938846,0.530770553585807,0.469229446414193,0.537179865881072,0.474895619942255,0.242649786734303,0.809505068159478,0.462820134118928,0.0117684344382514,0.5,0.0254276630826682,0.905633989651483,9.05543955755522,2.60231263710288,0.5,79.3349567202979
CBC_1037,CBC_1037_MSI_AV_v3_Vset3_Aset2_2024-01-04_12h44.35.607.csv,1,25,2,3,z,0,1,3,aud,D,63,1,2D,3D,0,1,z,1.45681200000035,0,1,1,1,3D,2D,D23,2.07944154167984,0.525104380057745,0.462820134118928,0.487286168458666,0.5,0.5,0.537179865881072,0.487286168458666,0.474895619942255,0.5,0.5,0.548948300319323,0.474895619942255,0.5,0.487286168458666,0.5,0.535636393938846,0.517205070306244,0.482794929693756,0.535636393938846,0.5,0.398775166190479,0.692258711470209,0.464363606061154,0.0118076813227759,0.5,0.0254276630826682,0.905633989651483,9.05543955755522,2.60231263710288,0.5,79.3349567202979
CBC_1037,CBC_1037_MSI_AV_v3_Vset3_Aset2_2024-01-04_12h44.35.607.csv,1,26,1,0,b,1,0,1,aud,B,63,1,1B,0B,1,0,b,2.53054960000009,1,0,1,1,1B,0B,B10,2.6149597780362,0.525104380057745,0.462820134118928,0.487286168458666,0.5,0.5,0.537179865881072,0.487286168458666,0.474895619942255,0.5,0.5,0.548948300319323,0.474895619942255,0.5,0.487286168458666,0.5,0.547444075261622,0.517923538194356,0.482076461805645,0.537179865881072,0.5,0.198748898318488,0.69939976161384,0.462820134118928,0.0117684344382514,0.5,0.0254276630826682,0.905633989651483,9.05543955755522,2.60231263710288,0.5,79.3349567202979
CBC_1037,CBC_1037_MSI_AV_v3_Vset3_Aset2_2024-01-04_12h44.35.607.csv,1,27,0,3,b,1,0,2,aud,A,9,1,0A,3A,1,0,b,2.60734570000022,1,0,1,1,0A,3A,A03,3.73766961828337,0.525104380057745,0.462820134118928,0.487286168458666,0.5,0.5,0.548948300319323,0.487286168458666,0.474895619942255,0.5,0.5,0.548948300319323,0.474895619942255,0.5,0.487286168458666,0.5,0.547444075261622,0.512244792113917,0.487755207886083,0.525104380057745,0.5,0.171792059928668,0.640455575293529,0.474895619942255,0.0120754858233265,0.5,0.0254276630826682,0.905633989651483,9.05543955755522,2.60231263710288,0.5,79.3349567202979
CBC_1037,CBC_1037_MSI_AV_v3_Vset3_Aset2_2024-01-04_12h44.35.607.csv,1,28,2,3,z,0,1,3,aud,D,63,1,2D,3D,0,1,z,2.24100260000023,0,1,1,1,3D,2D,D23,1.96944064646551,0.537179865881072,0.462820134118928,0.487286168458666,0.5,0.5,0.548948300319323,0.487286168458666,0.474895619942255,0.5,0.5,0.548948300319323,0.474895619942255,0.5,0.487286168458666,0.5,0.547444075261622,0.522647545765043,0.477352454234957,0.547444075261622,0.5,0.266908362927904,0.744227578425014,0.452555924738378,0.0115074395803128,0.5,0.0254276630826682,0.905633989651483,9.05543955755522,2.60231263710288,0.5,79.3349567202979
CBC_1037,CBC_1037_MSI_AV_v3_Vset3_Aset2_2024-01-04_12h44.35.607.csv,1,29,2,0,b,1,0,0,aud,C,27,1,2C,0C,1,0,b,1.23141600000008,1,0,1,1,2C,0C,C20,2.68557734525015,0.537179865881072,0.462820134118928,0.487286168458666,0.5,0.5,0.548948300319323,0.487286168458666,0.474895619942255,0.5,0.5,0.548948300319323,0.474895619942255,0.5,0.487286168458666,0.5,0.558951514841935,0.523332084290724,0.476667915709276,0.548948300319323,0.5,0.349470357245812,0.750066586587908,0.451051699680677,0.0114691906523451,0.5,0.0254276630826682,0.905633989651483,9.05543955755522,2.60231263710288,0.5,79.3349567202979
CBC_1037,CBC_1037_MSI_AV_v3_Vset3_Aset2_2024-01-04_12h44.35.607.csv,1,30,1,0,z,0,1,2,aud,A,63,1,1A,0A,0,1,b,2.34548760000052,1,0,0,0,1A,0A,A10,3.11351530921037,0.537179865881072,0.462820134118928,0.487286168458666,0.5,0.5,0.548948300319323,0.487286168458666,0.474895619942255,0.5,0.5,0.560417490971668,0.474895619942255,0.5,0.487286168458666,0.5,0.558951514841935,0.462820134118928,0.537179865881072,0.462820134118928,0.537179865881072,0.048717472913601,0.147589473254512,-0.462820134118928,-0.0117684344382514,0.5,0.0254276630826682,0.905633989651483,9.05543955755522,2.60231263710288,0.5,79.3349567202979
CBC_1037,CBC_1037_MSI_AV_v3_Vset3_Aset2_2024-01-04_12h44.35.607.csv,1,31,1,0,b,1,0,1,aud,B,63,1,1B,0B,1,0,b,1.20901520000007,1,0,1,1,1B,0B,B10,2.4423470353692,0.537179865881072,0.451051699680677,0.487286168458666,0.5,0.5,0.548948300319323,0.487286168458666,0.474895619942255,0.5,0.5,0.560417490971668,0.474895619942255,0.5,0.487286168458666,0.5,0.558951514841935,0.523332084290724,0.476667915709276,0.548948300319323,0.5,0.321296374126367,0.749628379284213,0.451051699680677,0.0114691906523451,0.5,0.0254276630826682,0.905633989651483,9.05543955755522,2.60231263710288,0.5,79.3349567202979
CBC_1037,CBC_1037_MSI_AV_v3_Vset3_Aset2_2024-01-04_12h44.35.607.csv,1,32,3,1,b,1,0,3,aud,D,27,1,3D,1D,1,0,b,2.07323709999991,1,0,1,1,3D,1D,D31,3.85014760171006,0.537179865881072,0.451051699680677,0.487286168458666,0.5,0.5,0.560417490971668,0.487286168458666,0.474895619942255,0.5,0.5,0.560417490971668,0.474895619942255,0.5,0.487286168458666,0.5,0.558951514841935,0.534249075294814,0.465750924705186,0.558951514841935,0.487286168458666,0.353590332953936,0.834082567346342,0.441048485158065,0.0112148322837205,0.5,0.0254276630826682,0.905633989651483,9.05543955755522,2.60231263710288,0.5,79.3349567202979
CBC_1037,CBC_1037_MSI_AV_v3_Vset3_Aset2_2024-01-04_12h44.35.607.csv,1,33,3,2,z,0,1,0,aud,C,63,1,3C,2C,0,1,z,2.06896010000037,0,1,1,1,2C,3C,C32,2.77258872223978,0.537179865881072,0.451051699680677,0.487286168458666,0.5,0.5,0.560417490971668,0.487286168458666,0.474895619942255,0.5,0.5,0.560417490971668,0.474895619942255,0.5,0.487286168458666,0.5,0.570166347125655,0.541302418624796,0.458697581375204,0.560417490971668,0.474895619942255,0.37826951712871,0.874559207866971,0.439582509028332,0.0111775559366064,0.5,0.0254276630826682,0.905633989651483,9.05543955755522,2.60231263710288,0.5,79.3349567202979
CBC_1037,CBC_1037_MSI_AV_v3_Vset3_Aset2_2024-01-04_12h44.35.607.csv,1,34,1,0,b,1,0,1,aud,B,63,1,1B,0B,1,0,b,1.14666960000022,1,0,1,1,1B,0B,B10,2.28238238567653,0.537179865881072,0.451051699680677,0.487286168458666,0.5,0.5,0.560417490971668,0.487286168458666,0.474895619942255,0.5,0.5,0.571595046908275,0.474895619942255,0.5,0.487286168458666,0.5,0.570166347125655,0.528487596388243,0.471512403611757,0.560417490971668,0.5,0.248499522338891,0.79359895424105,0.439582509028332,0.0111775559366064,0.5,0.0254276630826682,0.905633989651483,9.05543955755522,2.60231263710288,0.5,79.3349567202979
CBC_1037,CBC_1037_MSI_AV_v3_Vset3_Aset2_2024-01-04_12h44.35.607.csv,1,35,0,1,b,1,0,2,aud,A,63,1,0A,1A,1,0,b,2.36981790000027,1,0,1,1,0A,1A,A01,2.52572864430826,0.537179865881072,0.451051699680677,0.487286168458666,0.5,0.5,0.571595046908275,0.487286168458666,0.474895619942255,0.5,0.5,0.571595046908275,0.474895619942255,0.5,0.487286168458666,0.5,0.570166347125655,0.54357691516939,0.45642308483061,0.537179865881072,0.451051699680677,0.282333306466185,0.886416279573843,0.462820134118928,0.0117684344382514,0.5,0.0254276630826682,0.905633989651483,9.05543955755522,2.60231263710288,0.5,79.3349567202979
CBC_1037,CBC_1037_MSI_AV_v3_Vset3_Aset2_2024-01-04_12h44.35.607.csv,1,36,1,2,z,0,1,0,aud,C,9,1,1C,2C,0,1,z,1.1326454,0,1,1,1,2C,1C,C12,3.93182563272433,0.548948300319323,0.451051699680677,0.487286168458666,0.5,0.5,0.571595046908275,0.487286168458666,0.474895619942255,0.5,0.5,0.571595046908275,0.474895619942255,0.5,0.487286168458666,0.5,0.570166347125655,0.533405831388843,0.466594168611157,0.571595046908275,0.5,0.243340836697575,0.828889755262101,0.428404953091725,0.0108933368101627,0.5,0.0254276630826682,0.905633989651483,9.05543955755522,2.60231263710288,0.5,79.3349567202979
CBC_1037,CBC_1037_MSI_AV_v3_Vset3_Aset2_2024-01-04_12h44.35.607.csv,1,37,1,0,z,0,1,2,aud,A,63,1,1A,0A,0,1,z,1.42759530000058,0,1,1,1,0A,1A,A10,2.85263142991332,0.548948300319323,0.451051699680677,0.487286168458666,0.5,0.5,0.571595046908275,0.487286168458666,0.474895619942255,0.5,0.5,0.582488383718437,0.474895619942255,0.5,0.487286168458666,0.5,0.570166347125655,0.548948300319323,0.451051699680677,0.548948300319323,0.451051699680677,0.70145825025937,0.909260640376956,0.451051699680677,0.0114691906523451,0.5,0.0254276630826682,0.905633989651483,9.05543955755522,2.60231263710288,0.5,79.3349567202979
CBC_1037,CBC_1037_MSI_AV_v3_Vset3_Aset2_2024-01-04_12h44.35.607.csv,1,38,3,1,b,1,0,3,aud,D,27,1,3D,1D,1,0,b,2.26829060000046,1,0,1,1,3D,1D,D31,3.27714473299218,0.560417490971668,0.451051699680677,0.487286168458666,0.5,0.5,0.571595046908275,0.487286168458666,0.474895619942255,0.5,0.5,0.582488383718437,0.474895619942255,0.5,0.487286168458666,0.5,0.570166347125655,0.539188605372598,0.460811394627402,0.570166347125655,0.487286168458666,0.306616497913676,0.86347256182689,0.429833652874345,0.0109296653068814,0.5,0.0254276630826682,0.905633989651483,9.05543955755522,2.60231263710288,0.5,79.3349567202979
CBC_1037,CBC_1037_MSI_AV_v3_Vset3_Aset2_2024-01-04_12h44.35.607.csv,1,39,0,1,z,0,1,1,aud,B,63,1,0B,1B,0,1,z,4.29734139999982,0,1,1,1,1B,0B,B01,3.29583686600433,0.560417490971668,0.451051699680677,0.487286168458666,0.5,0.5,0.571595046908275,0.487286168458666,0.474895619942255,0.5,0.5,0.582488383718437,0.474895619942255,0.5,0.487286168458666,0.5,0.581096012432537,0.533405831388843,0.466594168611157,0.571595046908275,0.5,0.046206866098221,0.829135349543142,0.428404953091725,0.0108933368101627,0.5,0.0254276630826682,0.905633989651483,9.05543955755522,2.60231263710288,0.5,79.3349567202979
CBC_1037,CBC_1037_MSI_AV_v3_Vset3_Aset2_2024-01-04_12h44.35.607.csv,1,40,2,3,b,1,0,0,aud,C,63,0,2C,3C,0,1,b,2.30824870000015,1,0,1,0,2C,3C,C23,2.90872089656436,0.560417490971668,0.451051699680677,0.487286168458666,0.5,0.5,0.582488383718437,0.487286168458666,0.474895619942255,0.5,0.5,0.582488383718437,0.474895619942255,0.5,0.487286168458666,0.5,0.581096012432537,0.550876863752286,0.449123136247714,0.582488383718437,0.474895619942255,0.30497863627463,0.916669234998826,-0.582488383718437,-0.0148113183707604,0.5,0.0254276630826682,0.905633989651483,9.05543955755522,2.60231263710288,0.5,79.3349567202979
CBC_1037,CBC_1037_MSI_AV_v3_Vset3_Aset2_2024-01-04_12h44.35.607.csv,1,41,2,0,z,0,1,2,aud,A,27,1,2A,0A,0,1,z,1.50020340000037,0,1,1,1,0A,2A,A20,3.3322045101752,0.560417490971668,0.451051699680677,0.487286168458666,0.5,0.5,0.582488383718437,0.487286168458666,0.474895619942255,0.5,0.5,0.567677065347677,0.474895619942255,0.5,0.487286168458666,0.5,0.581096012432537,0.534900766955785,0.465099233044215,0.560417490971668,0.487286168458666,0.551003011739438,0.83815495601892,0.439582509028332,0.0111775559366064,0.5,0.0254276630826682,0.905633989651483,9.05543955755522,2.60231263710288,0.5,79.3349567202979
CBC_1037,CBC_1037_MSI_AV_v3_Vset3_Aset2_2024-01-04_12h44.35.607.csv,1,42,3,2,b,1,0,3,aud,D,63,1,3D,2D,1,0,b,3.80007479999995,1,0,1,1,3D,2D,D32,4.04305126783455,0.571595046908275,0.451051699680677,0.487286168458666,0.5,0.5,0.582488383718437,0.487286168458666,0.474895619942255,0.5,0.5,0.567677065347677,0.474895619942255,0.5,0.487286168458666,0.5,0.581096012432537,0.53750638773057,0.46249361226943,0.581096012432537,0.5,0.0698905853546209,0.853993156567608,0.418903987567463,0.0106517494598517,0.5,0.0254276630826682,0.905633989651483,9.05543955755522,2.60231263710288,0.5,79.3349567202979
CBC_1037,CBC_1037_MSI_AV_v3_Vset3_Aset2_2024-01-04_12h44.35.607.csv,1,43,3,1,z,0,1,1,aud,B,27,1,3B,1B,0,1,z,3.00750860000016,0,1,1,1,1B,3B,B31,3.36729582998647,0.571595046908275,0.451051699680677,0.487286168458666,0.5,0.5,0.582488383718437,0.487286168458666,0.474895619942255,0.5,0.5,0.567677065347677,0.474895619942255,0.5,0.487286168458666,0.5,0.591747761892388,0.550876863752286,0.449123136247714,0.582488383718437,0.474895619942255,0.136480613095422,0.916187021122648,0.417511616281563,0.0106163447119078,0.5,0.0254276630826682,0.905633989651483,9.05543955755522,2.60231263710288,0.5,79.3349567202979
CBC_1037,CBC_1037_MSI_AV_v3_Vset3_Aset2_2024-01-04_12h44.35.607.csv,1,44,2,3,b,1,0,0,aud,C,63,1,2C,3C,1,0,b,2.45025440000018,1,0,1,1,2C,3C,C23,2.69124308278583,0.571595046908275,0.451051699680677,0.487286168458666,0.5,0.5,0.593104728430345,0.487286168458666,0.474895619942255,0.5,0.5,0.567677065347677,0.474895619942255,0.5,0.487286168458666,0.5,0.591747761892388,0.544496391817334,0.455503608182666,0.567677065347677,0.474895619942255,0.260004259983945,0.890394733659508,0.432322934652323,0.0109929619252496,0.5,0.0254276630826682,0.905633989651483,9.05543955755522,2.60231263710288,0.5,79.3349567202979
CBC_1037,CBC_1037_MSI_TV_v3_Vset1_Tset3_2024-01-04_13h52.51.148.csv,2,1,1,0,b,1,0,1,tac,B,63,1,1B,0B,1,0,z,3.14485270000023,0,1,0,0,0B,1B,B10,2.77258872223978,0.5,0.5,0.5,0.5,0.5,0.5,0.5,0.5,0.5,0.5,0.5,0.5,0.5,0.5,0.5,0.5,0.5,0.5,0.5,0.5,0.113418319234948,0.499619736899158,-0.5,-0.488089865480637,0.5,0.976179730961274,1.09910011642186,0.139984934087539,2.98404334030573,0.5,83.8634474584573
CBC_1037,CBC_1037_MSI_TV_v3_Vset1_Tset3_2024-01-04_13h52.51.148.csv,2,2,0,1,b,1,0,2,tac,A,63,1,0A,1A,1,0,b,3.23500080000031,1,0,1,1,0A,1A,A01,2.83321334405622,0.5,0.5,0.5,0.5,0.011910134519363,0.5,0.5,0.5,0.5,0.5,0.5,0.5,0.5,0.5,0.5,0.5,0.5,0.5,0.5,0.5,0.107981439911244,0.499980569868037,0.5,0.488089865480637,0.5,0.976179730961274,1.09910011642186,0.139984934087539,2.98404334030573,0.5,83.8634474584573
CBC_1037,CBC_1037_MSI_TV_v3_Vset1_Tset3_2024-01-04_13h52.51.148.csv,2,3,1,2,z,0,1,0,tac,C,9,1,1C,2C,0,1,z,3.69668710000042,0,1,1,1,2C,1C,C12,2.89037175789616,0.988089865480637,0.5,0.5,0.5,0.011910134519363,0.5,0.5,0.5,0.5,0.5,0.5,0.5,0.5,0.5,0.5,0.5,0.5,0.5,0.5,0.5,0.0835306474122393,0.499438449455334,0.5,0.488089865480637,0.5,0.976179730961274,1.09910011642186,0.139984934087539,2.98404334030573,0.5,83.8634474584573
CBC_1037,CBC_1037_MSI_TV_v3_Vset1_Tset3_2024-01-04_13h52.51.148.csv,2,4,1,0,z,0,1,2,tac,A,63,1,1A,0A,0,1,b,2.8860666999999,1,0,0,0,1A,0A,A10,2.94443897916644,0.988089865480637,0.5,0.5,0.5,0.011910134519363,0.5,0.5,0.5,0.5,0.5,0.988089865480637,0.5,0.5,0.5,0.5,0.5,0.336001213097776,0.663998786902224,0.5,0.988089865480637,0.122229236314076,0.466636057928834,-0.5,-0.488089865480637,0.5,0.976179730961274,1.09910011642186,0.139984934087539,2.98404334030573,0.5,83.8634474584573
CBC_1037,CBC_1037_MSI_TV_v3_Vset1_Tset3_2024-01-04_13h52.51.148.csv,2,5,3,1,b,1,0,3,tac,D,27,1,3D,1D,1,0,b,3.34571340000002,1,0,1,1,3D,1D,D31,2.99573227355399,0.988089865480637,0.011910134519363,0.5,0.5,0.011910134519363,0.5,0.5,0.5,0.5,0.5,0.988089865480637,0.5,0.5,0.5,0.5,0.5,0.5,0.5,0.5,0.5,0.101694779692013,0.500622325612587,0.5,0.488089865480637,0.5,0.976179730961274,1.09910011642186,0.139984934087539,2.98404334030573,0.5,83.8634474584573
CBC_1037,CBC_1037_MSI_TV_v3_Vset1_Tset3_2024-01-04_13h52.51.148.csv,2,6,0,1,z,0,1,1,tac,B,63,1,0B,1B,0,1,z,2.55904400000054,0,1,1,1,1B,0B,B01,3.04452243772342,0.988089865480637,0.011910134519363,0.5,0.5,0.011910134519363,0.5,0.5,0.5,0.5,0.5,0.988089865480637,0.5,0.5,0.5,0.5,0.988089865480637,0.976733934891628,0.0232660651083721,0.5,0.011910134519363,0.188532405110271,0.598794567183841,0.5,0.488089865480637,0.5,0.976179730961274,1.09910011642186,0.139984934087539,2.98404334030573,0.5,83.8634474584573
CBC_1037,CBC_1037_MSI_TV_v3_Vset1_Tset3_2024-01-04_13h52.51.148.csv,2,7,2,3,b,1,0,0,tac,C,63,1,2C,3C,1,0,b,3.66244240000015,1,0,1,1,2C,3C,C23,3.09104245335832,0.988089865480637,0.011910134519363,0.5,0.5,0.011910134519363,0.988089865480637,0.5,0.5,0.5,0.5,0.988089865480637,0.5,0.5,0.5,0.5,0.988089865480637,0.663998786902224,0.336001213097776,0.988089865480637,0.5,0.0910288846338507,0.53423313254843,0.0119101345193631,0.0116264319108244,0.5,0.976179730961274,1.09910011642186,0.139984934087539,2.98404334030573,0.5,83.8634474584573
CBC_1037,CBC_1037_MSI_TV_v3_Vset1_Tset3_2024-01-04_13h52.51.148.csv,2,8,2,0,z,0,1,2,tac,A,27,1,2A,0A,0,1,b,2.03260180000052,1,0,0,0,2A,0A,A20,3.13549421592915,0.988089865480637,0.011910134519363,0.5,0.5,0.011910134519363,0.988089865480637,0.5,0.5,0.5,0.5,0.999716297391461,0.5,0.5,0.5,0.5,0.988089865480637,0.336001213097776,0.663998786902224,0.5,0.988089865480637,0.186598884705072,0.465246087829036,-0.5,-0.488089865480637,0.5,0.976179730961274,1.09910011642186,0.139984934087539,2.98404334030573,0.5,83.8634474584573
CBC_1037,CBC_1037_MSI_TV_v3_Vset1_Tset3_2024-01-04_13h52.51.148.csv,2,9,3,2,b,1,0,3,tac,D,63,1,3D,2D,1,0,z,1.88300350000009,0,1,0,0,2D,3D,D32,3.17805383034795,0.988089865480637,0.011910134519363,0.011910134519363,0.5,0.011910134519363,0.988089865480637,0.5,0.5,0.5,0.5,0.999716297391461,0.5,0.5,0.5,0.5,0.988089865480637,0.336001213097776,0.663998786902224,0.5,0.988089865480637,0.193292010633543,0.46546825923432,-0.5,-0.488089865480637,0.5,0.976179730961274,1.09910011642186,0.139984934087539,2.98404334030573,0.5,83.8634474584573
CBC_1037,CBC_1037_MSI_TV_v3_Vset1_Tset3_2024-01-04_13h52.51.148.csv,2,10,3,1,z,0,1,1,tac,B,27,1,3B,1B,0,1,b,3.25806530000045,1,0,0,0,3B,1B,B31,3.2188758248682,0.988089865480637,0.011910134519363,0.011910134519363,0.5,0.011910134519363,0.988089865480637,0.5,0.5,0.5,0.5,0.999716297391461,0.5,0.5,0.5,0.011910134519363,0.988089865480637,0.336001213097776,0.663998786902224,0.5,0.988089865480637,0.0995312815474474,0.466741788892836,-0.5,-0.488089865480637,0.5,0.976179730961274,1.09910011642186,0.139984934087539,2.98404334030573,0.5,83.8634474584573
CBC_1037,CBC_1037_MSI_TV_v3_Vset1_Tset3_2024-01-04_13h52.51.148.csv,2,11,3,2,z,0,1,0,tac,C,63,0,3C,2C,1,0,z,2.61140310000064,0,1,1,0,2C,3C,C32,3.25809653802148,0.988089865480637,0.011910134519363,0.011910134519363,0.5,0.011910134519363,0.988089865480637,0.5,0.011910134519363,0.5,0.5,0.999716297391461,0.5,0.5,0.5,0.011910134519363,0.988089865480637,0.666603609716266,0.333396390283734,0.999716297391461,0.5,0.162751035684218,0.53481011467738,-0.999716297391461,-0.975902786225198,0.5,0.976179730961274,1.09910011642186,0.139984934087539,2.98404334030573,0.5,83.8634474584573
CBC_1037,CBC_1037_MSI_TV_v3_Vset1_Tset3_2024-01-04_13h52.51.148.csv,2,12,1,3,b,1,0,1,tac,B,27,1,1B,3B,1,0,b,2.72131879999961,1,0,1,1,1B,3B,B13,3.29583686600433,0.988089865480637,0.011910134519363,0.011910134519363,0.5,0.011910134519363,0.988089865480637,0.5,0.011910134519363,0.5,0.5,0.0238135111662636,0.5,0.5,0.5,0.011910134519363,0.988089865480637,0.988089865480637,0.011910134519363,0.988089865480637,0.011910134519363,0.172852462991177,0.600018831174233,0.0119101345193631,0.0116264319108244,0.5,0.976179730961274,1.09910011642186,0.139984934087539,2.98404334030573,0.5,83.8634474584573
CBC_1037,CBC_1037_MSI_TV_v3_Vset1_Tset3_2024-01-04_13h52.51.148.csv,2,13,3,2,z,0,1,0,tac,C,63,1,3C,2C,0,1,b,2.98550859999978,1,0,0,0,3C,2C,C32,2.63905732961526,0.988089865480637,0.011910134519363,0.011910134519363,0.5,0.011910134519363,0.999716297391461,0.5,0.011910134519363,0.5,0.5,0.0238135111662636,0.5,0.5,0.5,0.011910134519363,0.988089865480637,0.954538188384559,0.0454618116154415,0.5,0.0238135111662636,0.14756197814434,0.593728015570355,-0.5,-0.488089865480637,0.5,0.976179730961274,1.09910011642186,0.139984934087539,2.98404334030573,0.5,83.8634474584573
CBC_1037,CBC_1037_MSI_TV_v3_Vset1_Tset3_2024-01-04_13h52.51.148.csv,2,14,3,2,b,1,0,3,tac,D,63,1,3D,2D,1,0,z,2.74648040000011,0,1,0,0,2D,3D,D32,2.67414864942653,0.988089865480637,0.011910134519363,0.011910134519363,0.5,0.011910134519363,0.999716297391461,0.5,0.011910134519363,0.5,0.5,0.0238135111662636,0.011910134519363,0.5,0.5,0.011910134519363,0.988089865480637,0.011910134519363,0.988089865480637,0.011910134519363,0.988089865480637,0.113699565523528,0.4002327580329,-0.011910134519363,-0.0116264319108244,0.5,0.976179730961274,1.09910011642186,0.139984934087539,2.98404334030573,0.5,83.8634474584573
CBC_1037,CBC_1037_MSI_TV_v3_Vset1_Tset3_2024-01-04_13h52.51.148.csv,2,15,0,3,b,1,0,2,tac,A,9,1,0A,3A,1,0,z,4.61397350000061,0,1,0,0,3A,0A,A03,3.40119738166216,0.988089865480637,0.011910134519363,0.011910134519363,0.5,0.011910134519363,0.999716297391461,0.5,0.011910134519363,0.5,0.5,0.0238135111662636,0.011910134519363,0.5,0.5,0.000283702608538645,0.988089865480637,0.336001213097776,0.663998786902224,0.5,0.988089865480637,0.0468914330420865,0.466713911523805,-0.5,-0.488089865480637,0.5,0.976179730961274,1.09910011642186,0.139984934087539,2.98404334030573,0.5,83.8634474584573
CBC_1037,CBC_1037_MSI_TV_v3_Vset1_Tset3_2024-01-04_13h52.51.148.csv,2,16,0,1,z,0,1,1,tac,B,63,0,0B,1B,1,0,z,2.16315300000042,0,1,1,0,1B,0B,B01,2.7408400239252,0.988089865480637,0.011910134519363,0.011910134519363,0.011910134519363,0.011910134519363,0.999716297391461,0.5,0.011910134519363,0.5,0.5,0.0238135111662636,0.011910134519363,0.5,0.5,0.000283702608538645,0.988089865480637,0.988226746411849,0.0117732535881515,0.999716297391461,0.011910134519363,0.230987042252403,0.600206308398816,-0.999716297391461,-0.975902786225198,0.5,0.976179730961274,1.09910011642186,0.139984934087539,2.98404334030573,0.5,83.8634474584573
CBC_1037,CBC_1037_MSI_TV_v3_Vset1_Tset3_2024-01-04_13h52.51.148.csv,2,17,2,3,z,0,1,3,tac,D,63,1,2D,3D,NaN,NaN,None,NaN,NaN,NaN,NaN,NaN,,,D23,3.46573590279973,0.988089865480637,0.011910134519363,0.011910134519363,0.011910134519363,0.011910134519363,0.0238135111662636,0.5,0.011910134519363,0.5,0.5,0.0238135111662636,0.011910134519363,0.5,0.5,0.000283702608538645,0.988089865480637,0,0,0,0,NaN,0,0,0,0.5,0.976179730961274,1.09910011642186,0.139984934087539,2.98404334030573,0.5,83.8634474584573
CBC_1037,CBC_1037_MSI_TV_v3_Vset1_Tset3_2024-01-04_13h52.51.148.csv,2,18,0,2,z,0,1,0,tac,C,27,1,0C,2C,0,1,z,3.05373420000069,0,1,1,1,2C,0C,C02,3.49650756146648,0.988089865480637,0.011910134519363,0.011910134519363,0.011910134519363,0.011910134519363,0.0238135111662636,0.5,0.011910134519363,0.5,0.5,0.0238135111662636,0.011910134519363,0.5,0.5,0.000283702608538645,0.988089865480637,0.0454618116154415,0.954538188384559,0.0238135111662636,0.5,0.0970822208071522,0.405812021442029,0.976186488833736,0.952933464037747,0.5,0.976179730961274,1.09910011642186,0.139984934087539,2.98404334030573,0.5,83.8634474584573
CBC_1037,CBC_1037_MSI_TV_v3_Vset1_Tset3_2024-01-04_13h52.51.148.csv,2,19,0,1,b,1,0,2,tac,A,63,1,0A,1A,1,0,b,3.18643620000057,1,0,1,1,0A,1A,A01,2.83321334405622,0.988089865480637,0.011910134519363,0.011910134519363,0.011910134519363,0.011910134519363,0.0238135111662636,0.5,0.011910134519363,0.5,0.5,0.976746975204011,0.011910134519363,0.5,0.5,0.000283702608538645,0.988089865480637,0.988089865480637,0.011910134519363,0.988089865480637,0.011910134519363,0.133428611066408,0.600739106807499,0.0119101345193631,0.0116264319108244,0.5,0.976179730961274,1.09910011642186,0.139984934087539,2.98404334030573,0.5,83.8634474584573
CBC_1037,CBC_1037_MSI_TV_v3_Vset1_Tset3_2024-01-04_13h52.51.148.csv,2,20,1,0,b,1,0,1,tac,B,63,1,1B,0B,1,0,z,2.52955560000009,0,1,0,0,0B,1B,B10,2.86220088092947,0.999716297391461,0.011910134519363,0.011910134519363,0.011910134519363,0.011910134519363,0.0238135111662636,0.5,0.011910134519363,0.5,0.5,0.976746975204011,0.011910134519363,0.5,0.5,0.000283702608538645,0.988089865480637,0.333396390283734,0.666603609716266,0.011910134519363,0.0238135111662636,0.147829815046708,0.464938682134651,-0.011910134519363,-0.0116264319108244,0.5,0.976179730961274,1.09910011642186,0.139984934087539,2.98404334030573,0.5,83.8634474584573
CBC_1037,CBC_1037_MSI_TV_v3_Vset1_Tset3_2024-01-04_13h52.51.148.csv,2,21,1,3,z,0,1,3,tac,D,27,1,1D,3D,0,1,b,2.71956179999961,1,0,0,0,1D,3D,D13,3.58351893845611,0.999716297391461,0.011910134519363,0.011910134519363,0.011910134519363,0.000283702608538645,0.0238135111662636,0.5,0.011910134519363,0.5,0.5,0.976746975204011,0.011910134519363,0.5,0.5,0.000283702608538645,0.988089865480637,0.336001213097776,0.663998786902224,0.5,0.988089865480637,0.133655903609944,0.465743108890399,-0.5,-0.488089865480637,0.5,0.976179730961274,1.09910011642186,0.139984934087539,2.98404334030573,0.5,83.8634474584573
CBC_1037,CBC_1037_MSI_TV_v3_Vset1_Tset3_2024-01-04_13h52.51.148.csv,2,22,3,2,z,0,1,0,tac,C,63,1,3C,2C,0,1,z,3.6889955000006,0,1,1,1,2C,3C,C32,2.51230562397611,0.999716297391461,0.011910134519363,0.011910134519363,0.011910134519363,0.000283702608538645,0.0238135111662636,0.5,0.011910134519363,0.5,0.5,0.976746975204011,0.011910134519363,0.5,0.011910134519363,0.000283702608538645,0.988089865480637,0.98795322017894,0.01204677982106,0.976746975204011,0.011910134519363,0.100329218915958,0.599393448967979,0.0232530247959889,0.0226991314893843,0.5,0.976179730961274,1.09910011642186,0.139984934087539,2.98404334030573,0.5,83.8634474584573
CBC_1037,CBC_1037_MSI_TV_v3_Vset1_Tset3_2024-01-04_13h52.51.148.csv,2,23,0,1,b,1,0,2,tac,A,63,1,0A,1A,1,0,z,1.76973540000017,0,1,0,0,1A,0A,A01,2.53897387105828,0.999716297391461,0.011910134519363,0.011910134519363,0.011910134519363,0.000283702608538645,0.0238135111662636,0.5,0.011910134519363,0.5,0.5,0.999446106693395,0.011910134519363,0.5,0.011910134519363,0.000283702608538645,0.988089865480637,0.0117732535881515,0.988226746411849,0.011910134519363,0.999716297391461,0.166878350182606,0.398945184747827,-0.011910134519363,-0.0116264319108244,0.5,0.976179730961274,1.09910011642186,0.139984934087539,2.98404334030573,0.5,83.8634474584573
CBC_1037,CBC_1037_MSI_TV_v3_Vset1_Tset3_2024-01-04_13h52.51.148.csv,2,24,2,3,z,0,1,3,tac,D,63,1,2D,3D,0,1,z,3.52237640000021,0,1,1,1,3D,2D,D23,2.9704144655697,0.999716297391461,0.000283702608538645,0.011910134519363,0.011910134519363,0.000283702608538645,0.0238135111662636,0.5,0.011910134519363,0.5,0.5,0.999446106693395,0.011910134519363,0.5,0.011910134519363,0.000283702608538645,0.988089865480637,0.999712960142098,0.000287039857902238,0.988089865480637,0.000283702608538645,0.110673095645017,0.602045767666622,0.0119101345193631,0.0116264319108244,0.5,0.976179730961274,1.09910011642186,0.139984934087539,2.98404334030573,0.5,83.8634474584573
CBC_1037,CBC_1037_MSI_TV_v3_Vset1_Tset3_2024-01-04_13h52.51.148.csv,2,25,2,0,b,1,0,0,tac,C,27,1,2C,0C,1,0,z,3.32179900000028,0,1,0,0,0C,2C,C20,3.68887945411394,0.999716297391461,0.000283702608538645,0.011910134519363,0.011910134519363,0.000283702608538645,0.0238135111662636,0.5,0.011910134519363,0.5,0.5,0.999446106693395,0.011910134519363,0.5,0.011910134519363,0.000283702608538645,0.999716297391461,0.333456466203116,0.666543533796884,0.5,0.999446106693395,0.0957652864654446,0.465232457421778,-0.5,-0.488089865480637,0.5,0.976179730961274,1.09910011642186,0.139984934087539,2.98404334030573,0.5,83.8634474584573
CBC_1037,CBC_1037_MSI_TV_v3_Vset1_Tset3_2024-01-04_13h52.51.148.csv,2,26,0,1,b,1,0,2,tac,A,63,1,0A,1A,1,0,b,2.31792769999993,1,0,1,1,0A,1A,A01,2.32727770558442,0.999716297391461,0.000283702608538645,0.011910134519363,0.011910134519363,0.000283702608538645,0.0238135111662636,0.5,0.011910134519363,0.011910134519363,0.5,0.999446106693395,0.011910134519363,0.5,0.011910134519363,0.000283702608538645,0.999716297391461,0.999716297391461,0.000283702608538645,0.999716297391461,0.000283702608538645,0.215560312999568,0.602640366225495,0.000283702608538605,0.000276944736076227,0.5,0.976179730961274,1.09910011642186,0.139984934087539,2.98404334030573,0.5,83.8634474584573
CBC_1037,CBC_1037_MSI_TV_v3_Vset1_Tset3_2024-01-04_13h52.51.148.csv,2,27,1,3,b,1,0,1,tac,B,27,1,1B,3B,1,0,b,3.3032890000004,1,0,1,1,1B,3B,B13,3.04452243772342,0.999993242127538,0.000283702608538645,0.011910134519363,0.011910134519363,0.000283702608538645,0.0238135111662636,0.5,0.011910134519363,0.011910134519363,0.5,0.999446106693395,0.011910134519363,0.5,0.011910134519363,0.000283702608538645,0.999716297391461,0.666603609716266,0.333396390283734,0.0238135111662636,0.011910134519363,0.111051563974447,0.53398496753527,0.976186488833736,0.952933464037747,0.5,0.976179730961274,1.09910011642186,0.139984934087539,2.98404334030573,0.5,83.8634474584573
CBC_1037,CBC_1037_MSI_TV_v3_Vset1_Tset3_2024-01-04_13h52.51.148.csv,2,28,3,2,z,0,1,0,tac,C,63,1,3C,2C,NaN,NaN,None,NaN,NaN,NaN,NaN,NaN,,,C32,2.37490575457367,0.999993242127538,0.000283702608538645,0.011910134519363,0.011910134519363,0.000283702608538645,0.976746975204011,0.5,0.011910134519363,0.011910134519363,0.5,0.999446106693395,0.011910134519363,0.5,0.011910134519363,0.000283702608538645,0.999716297391461,0,0,0,0,NaN,0,0,0,0.5,0.976179730961274,1.09910011642186,0.139984934087539,2.98404334030573,0.5,83.8634474584573
CBC_1037,CBC_1037_MSI_TV_v3_Vset1_Tset3_2024-01-04_13h52.51.148.csv,2,29,3,2,b,1,0,3,tac,D,63,0,3D,2D,0,1,z,3.62977729999966,0,1,0,1,2D,3D,D32,2.68557734525015,0.999993242127538,0.000283702608538645,0.011910134519363,0.011910134519363,0.000283702608538645,0.976746975204011,0.5,0.011910134519363,0.011910134519363,0.5,0.999446106693395,0.011910134519363,0.5,0.011910134519363,0.000283702608538645,0.999716297391461,0.000283702608538645,0.999716297391461,0.000283702608538645,0.999716297391461,0.0688492939202341,0.397902013323565,0.999716297391461,0.975902786225198,0.5,0.976179730961274,1.09910011642186,0.139984934087539,2.98404334030573,0.5,83.8634474584573
CBC_1037,CBC_1037_MSI_TV_v3_Vset1_Tset3_2024-01-04_13h52.51.148.csv,2,30,0,1,z,0,1,1,tac,B,63,1,0B,1B,0,1,b,2.98036020000018,1,0,0,0,0B,1B,B01,2.70805020110221,0.999993242127538,0.000283702608538645,0.011910134519363,0.011910134519363,0.000283702608538645,0.976746975204011,0.5,0.011910134519363,0.011910134519363,0.5,0.999446106693395,0.011910134519363,0.5,0.011910134519363,0.976186488833736,0.999716297391461,0.00029037226259243,0.999709627737408,0.000283702608538645,0.976746975204011,0.0988925970678053,0.396531090517611,-0.000283702608538645,-0.000276944736076266,0.5,0.976179730961274,1.09910011642186,0.139984934087539,2.98404334030573,0.5,83.8634474584573
CBC_1037,CBC_1037_MSI_TV_v3_Vset1_Tset3_2024-01-04_13h52.51.148.csv,2,31,2,0,z,0,1,2,tac,A,27,1,2A,0A,0,1,z,1.99450419999994,0,1,1,1,0A,2A,A20,3.13549421592915,0.999993242127538,0.000283702608538645,0.011910134519363,0.011910134519363,6.7578724623789e-06,0.976746975204011,0.5,0.011910134519363,0.011910134519363,0.5,0.999446106693395,0.011910134519363,0.5,0.011910134519363,0.976186488833736,0.999716297391461,0.988229968597566,0.011770031402434,0.999993242127538,0.011910134519363,0.246654164695624,0.601087849185958,6.757872462404e-06,6.59689812222014e-06,0.5,0.976179730961274,1.09910011642186,0.139984934087539,2.98404334030573,0.5,83.8634474584573
CBC_1037,CBC_1037_MSI_TV_v3_Vset1_Tset3_2024-01-04_13h52.51.148.csv,2,32,3,0,b,1,0,3,tac,D,9,1,3D,0D,1,0,z,3.92737920000036,0,1,0,0,0D,3D,D30,3.85014760171006,0.99999983902566,0.000283702608538645,0.011910134519363,0.011910134519363,6.7578724623789e-06,0.976746975204011,0.5,0.011910134519363,0.011910134519363,0.5,0.999446106693395,0.011910134519363,0.5,0.011910134519363,0.976186488833736,0.999716297391461,0.333396390283734,0.666603609716266,0.5,0.999716297391461,0.0683339797278035,0.464605321259362,-0.5,-0.488089865480637,0.5,0.976179730961274,1.09910011642186,0.139984934087539,2.98404334030573,0.5,83.8634474584573
CBC_1037,CBC_1037_MSI_TV_v3_Vset1_Tset3_2024-01-04_13h52.51.148.csv,2,33,3,2,z,0,1,0,tac,C,63,1,3C,2C,0,1,z,2.6481889000006,0,1,1,1,2C,3C,C32,2.26176309847379,0.99999983902566,0.000283702608538645,0.011910134519363,0.011910134519363,6.7578724623789e-06,0.976746975204011,0.5,0.011910134519363,0.011910134519363,0.5,0.999446106693395,0.011910134519363,0.011910134519363,0.011910134519363,0.976186488833736,0.999716297391461,0.988223601107083,0.0117763988929174,0.999446106693395,0.011910134519363,0.180248751089244,0.600892612338118,0.000553893306604603,0.000540699419022531,0.5,0.976179730961274,1.09910011642186,0.139984934087539,2.98404334030573,0.5,83.8634474584573
CBC_1037,CBC_1037_MSI_TV_v3_Vset1_Tset3_2024-01-04_13h52.51.148.csv,2,34,0,1,z,0,1,1,tac,B,63,1,0B,1B,0,1,b,3.83199659999991,1,0,0,0,0B,1B,B01,2.50552593699074,0.99999983902566,0.000283702608538645,0.011910134519363,0.011910134519363,6.7578724623789e-06,0.976746975204011,0.5,0.011910134519363,0.011910134519363,0.5,0.999986806112418,0.011910134519363,0.011910134519363,0.011910134519363,0.976186488833736,0.999716297391461,6.91870656188197e-06,0.999993081293438,6.7578724623789e-06,0.976746975204011,0.0613485915067471,0.397384667513893,-6.7578724623789e-06,-6.59689812219564e-06,0.5,0.976179730961274,1.09910011642186,0.139984934087539,2.98404334030573,0.5,83.8634474584573
CBC_1037,CBC_1037_MSI_TV_v3_Vset1_Tset3_2024-01-04_13h52.51.148.csv,2,35,0,1,b,1,0,2,tac,A,63,0,0A,1A,0,1,b,0.117975099999967,1,0,1,0,0A,1A,A01,2.30258509299405,0.99999983902566,0.000283702608538645,0.011910134519363,0.011910134519363,1.60974340183264e-07,0.976746975204011,0.5,0.011910134519363,0.011910134519363,0.5,0.999986806112418,0.011910134519363,0.011910134519363,0.011910134519363,0.976186488833736,0.999716297391461,0.999716377810161,0.000283622189839443,0.99999983902566,0.000283702608538645,1e-20,0.5,-0.99999983902566,-0.976179573821386,0.5,0.976179730961274,1.09910011642186,0.139984934087539,2.98404334030573,0.5,83.8634474584573
CBC_1037,CBC_1037_MSI_TV_v3_Vset1_Tset3_2024-01-04_13h52.51.148.csv,2,36,2,3,z,0,1,3,tac,D,63,1,2D,3D,0,1,z,2.38881420000052,0,1,1,1,3D,2D,D23,2.83321334405622,0.0238202652042739,0.000283702608538645,0.011910134519363,0.011910134519363,1.60974340183264e-07,0.976746975204011,0.5,0.011910134519363,0.011910134519363,0.5,0.999986806112418,0.011910134519363,0.011910134519363,0.011910134519363,0.976186488833736,0.999716297391461,0.505954191856442,0.494045808143558,0.999716297391461,0.976186488833736,0.17135464031127,0.501233024753538,0.000283702608538605,0.000276944736076227,0.5,0.976179730961274,1.09910011642186,0.139984934087539,2.98404334030573,0.5,83.8634474584573
CBC_1037,CBC_1037_MSI_TV_v3_Vset1_Tset3_2024-01-04_13h52.51.148.csv,2,37,1,2,b,1,0,1,tac,B,9,1,1B,2B,1,0,z,3.3144811000011,0,1,0,0,2B,1B,B12,3.95124371858143,0.0238202652042739,0.000283702608538645,0.011910134519363,0.011910134519363,1.60974340183264e-07,0.976746975204011,0.5,0.011910134519363,0.011910134519363,0.5,0.999986806112418,0.011910134519363,0.011910134519363,0.011910134519363,0.976186488833736,0.999993242127538,0.338582037678408,0.661417962321592,0.5,0.976746975204011,0.0963242596306875,0.466052927485605,-0.5,-0.488089865480637,0.5,0.976179730961274,1.09910011642186,0.139984934087539,2.98404334030573,0.5,83.8634474584573
CBC_1037,CBC_1037_MSI_TV_v3_Vset1_Tset3_2024-01-04_13h52.51.148.csv,2,38,2,0,z,0,1,2,tac,A,27,1,2A,0A,0,1,b,4.72891400000026,1,0,0,0,2A,0A,A20,2.87167962488401,0.0238202652042739,0.000283702608538645,0.011910134519363,0.011910134519363,1.60974340183264e-07,0.976746975204011,0.011910134519363,0.011910134519363,0.011910134519363,0.5,0.999986806112418,0.011910134519363,0.011910134519363,0.011910134519363,0.976186488833736,0.999993242127538,0.333333369105413,0.666666630894587,0.011910134519363,0.0238202652042739,0.0437332205002211,0.464070210003397,-0.011910134519363,-0.0116264319108244,0.5,0.976179730961274,1.09910011642186,0.139984934087539,2.98404334030573,0.5,83.8634474584573
CBC_1037,CBC_1037_MSI_TV_v3_Vset1_Tset3_2024-01-04_13h52.51.148.csv,2,39,2,3,b,1,0,0,tac,C,63,1,2C,3C,1,0,z,2.59337419999974,0,1,0,0,3C,2C,C23,3.29583686600433,0.0238202652042739,0.000283702608538645,0.000283702608538645,0.011910134519363,1.60974340183264e-07,0.976746975204011,0.011910134519363,0.011910134519363,0.011910134519363,0.5,0.999986806112418,0.011910134519363,0.011910134519363,0.011910134519363,0.976186488833736,0.999993242127538,0.0117701062639115,0.988229893736088,0.011910134519363,0.999986806112418,0.123451935278811,0.399389383857095,-0.011910134519363,-0.0116264319108244,0.5,0.976179730961274,1.09910011642186,0.139984934087539,2.98404334030573,0.5,83.8634474584573
CBC_1037,CBC_1037_MSI_TV_v3_Vset1_Tset3_2024-01-04_13h52.51.148.csv,2,40,1,3,z,0,1,3,tac,D,27,1,1D,3D,0,1,z,3.13383630000044,0,1,1,1,3D,1D,D13,3.31418600467253,0.0238202652042739,0.000283702608538645,0.000283702608538645,0.011910134519363,1.60974340183264e-07,0.976746975204011,0.011910134519363,0.011910134519363,0.011910134519363,0.5,0.999986806112418,0.000283702608538645,0.011910134519363,0.011910134519363,0.976186488833736,0.999993242127538,0.988229968597566,0.011770031402434,0.999993242127538,0.011910134519363,0.137625016985094,0.60156431544409,6.757872462404e-06,6.59689812222014e-06,0.5,0.976179730961274,1.09910011642186,0.139984934087539,2.98404334030573,0.5,83.8634474584573
CBC_1037,CBC_1037_MSI_TV_v3_Vset1_Tset3_2024-01-04_13h52.51.148.csv,2,41,0,1,b,1,0,2,tac,A,63,1,0A,1A,1,0,b,2.28061070000058,1,0,1,1,0A,1A,A01,2.23359222150709,0.0238202652042739,0.000283702608538645,0.000283702608538645,0.011910134519363,1.60974340183264e-07,0.976746975204011,0.011910134519363,0.011910134519363,0.011910134519363,0.5,0.999986806112418,0.000283702608538645,0.011910134519363,0.011910134519363,0.976186488833736,0.99999983902566,0.98823004532939,0.0117699546706099,0.0238202652042739,0.000283702608538645,0.21893286739232,0.60099596746164,0.976179734795726,0.95292687088274,0.5,0.976179730961274,1.09910011642186,0.139984934087539,2.98404334030573,0.5,83.8634474584573
CBC_1037,CBC_1037_MSI_TV_v3_Vset1_Tset3_2024-01-04_13h52.51.148.csv,2,42,0,2,z,0,1,0,tac,C,27,1,0C,2C,NaN,NaN,None,NaN,NaN,NaN,NaN,NaN,,,C02,3.3499040872746,0.976747136087014,0.000283702608538645,0.000283702608538645,0.011910134519363,1.60974340183264e-07,0.976746975204011,0.011910134519363,0.011910134519363,0.011910134519363,0.5,0.999986806112418,0.000283702608538645,0.011910134519363,0.011910134519363,0.976186488833736,0.99999983902566,0,0,0,0,NaN,0,0,0,0.5,0.976179730961274,1.09910011642186,0.139984934087539,2.98404334030573,0.5,83.8634474584573
CBC_1037,CBC_1037_MSI_TV_v3_Vset1_Tset3_2024-01-04_13h52.51.148.csv,2,43,3,2,b,1,0,3,tac,D,63,1,3D,2D,1,0,z,2.65311810000003,0,1,0,0,2D,3D,D32,2.67414864942653,0.976747136087014,0.000283702608538645,0.000283702608538645,0.011910134519363,1.60974340183264e-07,0.976746975204011,0.011910134519363,0.011910134519363,0.011910134519363,0.5,0.999986806112418,0.000283702608538645,0.011910134519363,0.011910134519363,0.976186488833736,0.99999983902566,0.493974922846036,0.506025077153964,0.976186488833736,0.99999983902566,0.148300237360813,0.498798014796551,-0.976186488833736,-0.952933464037747,0.5,0.976179730961274,1.09910011642186,0.139984934087539,2.98404334030573,0.5,83.8634474584573
CBC_1037,CBC_1037_MSI_TV_v3_Vset1_Tset3_2024-01-04_13h52.51.148.csv,2,44,1,0,b,1,0,1,tac,B,63,1,1B,0B,1,0,b,2.78128379999998,1,0,1,1,1B,0B,B10,2.97892515523761,0.976747136087014,0.000283702608538645,0.000283702608538645,0.011910134519363,1.60974340183264e-07,0.976746975204011,0.011910134519363,0.011910134519363,0.011910134519363,0.5,0.999986806112418,0.000283702608538645,0.011910134519363,0.011910134519363,0.0232530247959889,0.99999983902566,0.999999835193435,1.64806564791269e-07,0.976746975204011,1.60974340183264e-07,0.168076593360404,0.602993157462874,0.0232530247959889,0.0226991314893843,0.5,0.976179730961274,1.09910011642186,0.139984934087539,2.98404334030573,0.5,83.8634474584573
