ID,filename,session,trial,visStimLeft,visStimRight,correctKey,leftCorrect,rightCorrect,secondStim,mod2Type,mod2Stim,frequency,rewardAccurate,stimPairLeft,stimPairRight,pCorrectLeft,pCorrectRight,key,reactionTime,choiceLeft,choiceRight,choiceAccurate,reward,chosenPair,otherPair,triplet,surprise,0A belief,1A belief,2A belief,3A belief,0B belief,1B belief,2B belief,3B belief,0C belief,1C belief,2C belief,3C belief,0D belief,1D belief,2D belief,3D belief,beliefPairNorm,beliefOtherPairNorm,beliefPair,beliefOtherPair,lik,corrLik,rewardPE,update2,fitCBCsimpleRW_CBCdriftDiffusionLR_pwBelief_startBelief,fitCBCsimpleRW_CBCdriftDiffusionLR_pwBelief_alpha1,fitCBCsimpleRW_CBCdriftDiffusionLR_pwBelief_nonDecisionTime,fitCBCsimpleRW_CBCdriftDiffusionLR_pwBelief_weight,fitCBCsimpleRW_CBCdriftDiffusionLR_pwBelief_startingBoundary,fitCBCsimpleRW_CBCdriftDiffusionLR_pwBelief_startingPoint,fit_CBCsimpleRW_CBCdriftDiffusionLR_pwBelief_NLL
CBC_1037,CBC_1037_MSI_AV_v3_Vset3_Aset2_2024-01-04_12h44.35.607.csv,1,1,0,1,z,0,1,1,aud,B,63,1,0B,1B,0,1,z,2.73296630000004,0,1,1,1,1B,0B,B01,2.77258872223978,0.5,0.5,0.5,0.5,0.5,0.5,0.5,0.5,0.5,0.5,0.5,0.5,0.5,0.5,0.5,0.5,0.5,0.5,0.5,0.5,0.122763938424113,0.499529611424587,0.5,0.0313322946659552,0.5,0.0626645893319104,0.910122778128661,1.98697638710466,2.60193771028914,0.5,79.3780718794315
CBC_1037,CBC_1037_MSI_AV_v3_Vset3_Aset2_2024-01-04_12h44.35.607.csv,1,2,0,1,b,1,0,2,aud,A,63,1,0A,1A,1,0,b,2.36574830000018,1,0,1,1,0A,1A,A01,2.83321334405622,0.5,0.5,0.5,0.5,0.5,0.531332294665955,0.5,0.5,0.5,0.5,0.5,0.5,0.5,0.5,0.5,0.5,0.5,0.5,0.5,0.5,0.16044362136236,0.499806621332344,0.5,0.0313322946659552,0.5,0.0626645893319104,0.910122778128661,1.98697638710466,2.60193771028914,0.5,79.3780718794315
CBC_1037,CBC_1037_MSI_AV_v3_Vset3_Aset2_2024-01-04_12h44.35.607.csv,1,3,2,3,z,0,1,3,aud,D,63,1,2D,3D,0,1,z,2.70481790000031,0,1,1,1,3D,2D,D23,2.89037175789616,0.531332294665955,0.5,0.5,0.5,0.5,0.531332294665955,0.5,0.5,0.5,0.5,0.5,0.5,0.5,0.5,0.5,0.5,0.5,0.5,0.5,0.5,0.125713185635223,0.501148216660447,0.5,0.0313322946659552,0.5,0.0626645893319104,0.910122778128661,1.98697638710466,2.60193771028914,0.5,79.3780718794315
CBC_1037,CBC_1037_MSI_AV_v3_Vset3_Aset2_2024-01-04_12h44.35.607.csv,1,4,2,1,z,0,1,1,aud,B,9,1,2B,1B,0,1,b,1.45200280000017,1,0,0,0,2B,1B,B21,2.94443897916644,0.531332294665955,0.5,0.5,0.5,0.5,0.531332294665955,0.5,0.5,0.5,0.5,0.5,0.5,0.5,0.5,0.5,0.531332294665955,0.468667705334045,0.531332294665955,0.5,0.531332294665955,0.230988121320869,0.419376060750246,-0.5,-0.0313322946659552,0.5,0.0626645893319104,0.910122778128661,1.98697638710466,2.60193771028914,0.5,79.3780718794315
CBC_1037,CBC_1037_MSI_AV_v3_Vset3_Aset2_2024-01-04_12h44.35.607.csv,1,5,0,2,b,1,0,2,aud,A,27,1,0A,2A,1,0,b,1.58617470000036,1,0,1,1,0A,2A,A02,2.99573227355399,0.531332294665955,0.5,0.5,0.5,0.5,0.531332294665955,0.468667705334045,0.5,0.5,0.5,0.5,0.5,0.5,0.5,0.5,0.531332294665955,0.531332294665955,0.468667705334045,0.531332294665955,0.5,0.312296410587198,0.580268609133614,0.468667705334045,0.0293688692878867,0.5,0.0626645893319104,0.910122778128661,1.98697638710466,2.60193771028914,0.5,79.3780718794315
CBC_1037,CBC_1037_MSI_AV_v3_Vset3_Aset2_2024-01-04_12h44.35.607.csv,1,6,2,3,b,1,0,0,aud,C,63,1,2C,3C,1,0,z,3.48096060000034,0,1,0,0,3C,2C,C23,3.04452243772342,0.560701163953842,0.5,0.5,0.5,0.5,0.531332294665955,0.468667705334045,0.5,0.5,0.5,0.5,0.5,0.5,0.5,0.5,0.531332294665955,0.5,0.5,0.5,0.5,0.071286073243013,0.500324093618163,-0.5,-0.0313322946659552,0.5,0.0626645893319104,0.910122778128661,1.98697638710466,2.60193771028914,0.5,79.3780718794315
CBC_1037,CBC_1037_MSI_AV_v3_Vset3_Aset2_2024-01-04_12h44.35.607.csv,1,7,1,3,z,0,1,3,aud,D,27,1,1D,3D,0,1,b,2.80498840000018,1,0,0,0,1D,3D,D13,3.09104245335832,0.560701163953842,0.5,0.5,0.5,0.5,0.531332294665955,0.468667705334045,0.5,0.5,0.5,0.5,0.468667705334045,0.5,0.5,0.5,0.531332294665955,0.468667705334045,0.531332294665955,0.5,0.531332294665955,0.0978415856150529,0.420241292919799,-0.5,-0.0313322946659552,0.5,0.0626645893319104,0.910122778128661,1.98697638710466,2.60193771028914,0.5,79.3780718794315
CBC_1037,CBC_1037_MSI_AV_v3_Vset3_Aset2_2024-01-04_12h44.35.607.csv,1,8,1,0,z,0,1,2,aud,A,63,1,1A,0A,0,1,b,3.12122200000022,1,0,0,0,1A,0A,A10,3.13549421592915,0.560701163953842,0.5,0.5,0.5,0.5,0.531332294665955,0.468667705334045,0.5,0.5,0.5,0.5,0.468667705334045,0.5,0.468667705334045,0.5,0.531332294665955,0.439298836046158,0.560701163953842,0.5,0.560701163953842,0.0633873576379248,0.34777190288114,-0.5,-0.0313322946659552,0.5,0.0626645893319104,0.910122778128661,1.98697638710466,2.60193771028914,0.5,79.3780718794315
CBC_1037,CBC_1037_MSI_AV_v3_Vset3_Aset2_2024-01-04_12h44.35.607.csv,1,9,2,0,b,1,0,0,aud,C,27,1,2C,0C,1,0,b,1.45425579999983,1,0,1,1,2C,0C,C20,3.17805383034795,0.560701163953842,0.468667705334045,0.5,0.5,0.5,0.531332294665955,0.468667705334045,0.5,0.5,0.5,0.5,0.468667705334045,0.5,0.468667705334045,0.5,0.531332294665955,0.5,0.5,0.5,0.5,0.272704927866283,0.499439384276173,0.5,0.0313322946659552,0.5,0.0626645893319104,0.910122778128661,1.98697638710466,2.60193771028914,0.5,79.3780718794315
CBC_1037,CBC_1037_MSI_AV_v3_Vset3_Aset2_2024-01-04_12h44.35.607.csv,1,10,2,3,z,0,1,3,aud,D,63,1,2D,3D,0,1,z,3.03094710000005,0,1,1,1,3D,2D,D23,2.52572864430826,0.560701163953842,0.468667705334045,0.5,0.5,0.5,0.531332294665955,0.468667705334045,0.5,0.5,0.5,0.531332294665955,0.468667705334045,0.5,0.468667705334045,0.5,0.531332294665955,0.531332294665955,0.468667705334045,0.531332294665955,0.5,0.11417018163036,0.579121372363176,0.468667705334045,0.0293688692878867,0.5,0.0626645893319104,0.910122778128661,1.98697638710466,2.60193771028914,0.5,79.3780718794315
CBC_1037,CBC_1037_MSI_AV_v3_Vset3_Aset2_2024-01-04_12h44.35.607.csv,1,11,1,0,b,1,0,1,aud,B,63,1,1B,0B,1,0,b,2.91044550000015,1,0,1,1,1B,0B,B10,3.25809653802148,0.560701163953842,0.468667705334045,0.5,0.5,0.5,0.531332294665955,0.468667705334045,0.5,0.5,0.5,0.531332294665955,0.468667705334045,0.5,0.468667705334045,0.5,0.560701163953842,0.531332294665955,0.468667705334045,0.531332294665955,0.5,0.12510392837222,0.580762193780083,0.468667705334045,0.0293688692878867,0.5,0.0626645893319104,0.910122778128661,1.98697638710466,2.60193771028914,0.5,79.3780718794315
CBC_1037,CBC_1037_MSI_AV_v3_Vset3_Aset2_2024-01-04_12h44.35.607.csv,1,12,0,1,b,1,0,2,aud,A,63,1,0A,1A,1,0,z,2.46222609999995,0,1,0,0,1A,0A,A01,2.60268968544438,0.560701163953842,0.468667705334045,0.5,0.5,0.5,0.560701163953842,0.468667705334045,0.5,0.5,0.5,0.531332294665955,0.468667705334045,0.5,0.468667705334045,0.5,0.560701163953842,0.408661411295805,0.591338588704195,0.468667705334045,0.560701163953842,0.0840699979538003,0.279398498502465,-0.468667705334045,-0.0293688692878867,0.5,0.0626645893319104,0.910122778128661,1.98697638710466,2.60193771028914,0.5,79.3780718794315
CBC_1037,CBC_1037_MSI_AV_v3_Vset3_Aset2_2024-01-04_12h44.35.607.csv,1,13,2,3,z,0,1,3,aud,D,63,1,2D,3D,0,1,z,2.65568040000016,0,1,1,1,3D,2D,D23,2.23359222150709,0.560701163953842,0.439298836046158,0.5,0.5,0.5,0.560701163953842,0.468667705334045,0.5,0.5,0.5,0.531332294665955,0.468667705334045,0.5,0.468667705334045,0.5,0.560701163953842,0.560701163953842,0.439298836046158,0.560701163953842,0.5,0.169186325325623,0.65226773437916,0.439298836046158,0.0275284811548187,0.5,0.0626645893319104,0.910122778128661,1.98697638710466,2.60193771028914,0.5,79.3780718794315
CBC_1037,CBC_1037_MSI_AV_v3_Vset3_Aset2_2024-01-04_12h44.35.607.csv,1,14,2,0,b,1,0,0,aud,C,27,1,2C,0C,1,0,b,3.9499138000001,1,0,1,1,2C,0C,C20,2.67414864942653,0.560701163953842,0.439298836046158,0.5,0.5,0.5,0.560701163953842,0.468667705334045,0.5,0.5,0.5,0.531332294665955,0.468667705334045,0.5,0.468667705334045,0.5,0.588229645108661,0.531332294665955,0.468667705334045,0.531332294665955,0.5,0.0581218493620189,0.580217225967607,0.468667705334045,0.0293688692878867,0.5,0.0626645893319104,0.910122778128661,1.98697638710466,2.60193771028914,0.5,79.3780718794315
CBC_1037,CBC_1037_MSI_AV_v3_Vset3_Aset2_2024-01-04_12h44.35.607.csv,1,15,0,1,b,1,0,2,aud,A,63,1,0A,1A,1,0,z,1.73848790000011,0,1,0,0,1A,0A,A01,2.30258509299405,0.560701163953842,0.439298836046158,0.5,0.5,0.5,0.560701163953842,0.468667705334045,0.5,0.5,0.5,0.560701163953842,0.468667705334045,0.5,0.468667705334045,0.5,0.588229645108661,0.38036097488149,0.61963902511851,0.439298836046158,0.560701163953842,0.121443339268369,0.224860350884597,-0.439298836046158,-0.0275284811548187,0.5,0.0626645893319104,0.910122778128661,1.98697638710466,2.60193771028914,0.5,79.3780718794315
CBC_1037,CBC_1037_MSI_AV_v3_Vset3_Aset2_2024-01-04_12h44.35.607.csv,1,16,1,3,b,1,0,1,aud,B,27,1,1B,3B,1,0,z,2.38779150000028,0,1,0,0,3B,1B,B13,3.43398720448515,0.560701163953842,0.411770354891339,0.5,0.5,0.5,0.560701163953842,0.468667705334045,0.5,0.5,0.5,0.560701163953842,0.468667705334045,0.5,0.468667705334045,0.5,0.588229645108661,0.439298836046158,0.560701163953842,0.5,0.560701163953842,0.110614485696703,0.348233047383148,-0.5,-0.0313322946659552,0.5,0.0626645893319104,0.910122778128661,1.98697638710466,2.60193771028914,0.5,79.3780718794315
CBC_1037,CBC_1037_MSI_AV_v3_Vset3_Aset2_2024-01-04_12h44.35.607.csv,1,17,3,2,z,0,1,0,aud,C,63,1,3C,2C,0,1,b,2.7942807000004,1,0,0,0,3C,2C,C32,3.46573590279973,0.560701163953842,0.411770354891339,0.5,0.5,0.5,0.560701163953842,0.468667705334045,0.468667705334045,0.5,0.5,0.560701163953842,0.468667705334045,0.5,0.468667705334045,0.5,0.588229645108661,0.408661411295805,0.591338588704195,0.468667705334045,0.560701163953842,0.0648272441011649,0.280409713890079,-0.468667705334045,-0.0293688692878867,0.5,0.0626645893319104,0.910122778128661,1.98697638710466,2.60193771028914,0.5,79.3780718794315
CBC_1037,CBC_1037_MSI_AV_v3_Vset3_Aset2_2024-01-04_12h44.35.607.csv,1,18,2,3,z,0,1,3,aud,D,63,0,2D,3D,1,0,z,2.27751680000029,0,1,1,0,3D,2D,D23,2.11021320034659,0.560701163953842,0.411770354891339,0.5,0.5,0.5,0.560701163953842,0.468667705334045,0.468667705334045,0.5,0.5,0.560701163953842,0.439298836046158,0.5,0.468667705334045,0.5,0.588229645108661,0.588229645108661,0.411770354891339,0.588229645108661,0.5,0.248273902183357,0.713604865853285,-0.588229645108661,-0.0368611691435896,0.5,0.0626645893319104,0.910122778128661,1.98697638710466,2.60193771028914,0.5,79.3780718794315
CBC_1037,CBC_1037_MSI_AV_v3_Vset3_Aset2_2024-01-04_12h44.35.607.csv,1,19,1,0,b,1,0,1,aud,B,63,1,1B,0B,1,0,b,3.29981300000009,1,0,1,1,1B,0B,B10,2.83321334405622,0.560701163953842,0.411770354891339,0.5,0.5,0.5,0.560701163953842,0.468667705334045,0.468667705334045,0.5,0.5,0.560701163953842,0.439298836046158,0.5,0.468667705334045,0.5,0.551368475965071,0.560701163953842,0.439298836046158,0.560701163953842,0.5,0.103724395734678,0.651424847412953,0.439298836046158,0.0275284811548187,0.5,0.0626645893319104,0.910122778128661,1.98697638710466,2.60193771028914,0.5,79.3780718794315
CBC_1037,CBC_1037_MSI_AV_v3_Vset3_Aset2_2024-01-04_12h44.35.607.csv,1,20,2,0,z,0,1,2,aud,A,27,1,2A,0A,0,1,b,1.64875650000022,1,0,0,0,2A,0A,A20,3.55534806148941,0.560701163953842,0.411770354891339,0.5,0.5,0.5,0.588229645108661,0.468667705334045,0.468667705334045,0.5,0.5,0.560701163953842,0.439298836046158,0.5,0.468667705334045,0.5,0.551368475965071,0.439298836046158,0.560701163953842,0.5,0.560701163953842,0.185986423195841,0.348305844832402,-0.5,-0.0313322946659552,0.5,0.0626645893319104,0.910122778128661,1.98697638710466,2.60193771028914,0.5,79.3780718794315
CBC_1037,CBC_1037_MSI_AV_v3_Vset3_Aset2_2024-01-04_12h44.35.607.csv,1,21,0,3,z,0,1,3,aud,D,9,1,0D,3D,0,1,z,2.44854770000029,0,1,1,1,3D,0D,D03,3.58351893845611,0.560701163953842,0.411770354891339,0.468667705334045,0.5,0.5,0.588229645108661,0.468667705334045,0.468667705334045,0.5,0.5,0.560701163953842,0.439298836046158,0.5,0.468667705334045,0.5,0.551368475965071,0.551368475965071,0.448631524034929,0.551368475965071,0.5,0.190903757947878,0.629773584608715,0.448631524034929,0.0281133102149979,0.5,0.0626645893319104,0.910122778128661,1.98697638710466,2.60193771028914,0.5,79.3780718794315
CBC_1037,CBC_1037_MSI_AV_v3_Vset3_Aset2_2024-01-04_12h44.35.607.csv,1,22,2,3,b,1,0,0,aud,C,63,1,2C,3C,1,0,b,4.10239480000018,1,0,1,1,2C,3C,C23,2.91777073208428,0.560701163953842,0.411770354891339,0.468667705334045,0.5,0.5,0.588229645108661,0.468667705334045,0.468667705334045,0.5,0.5,0.560701163953842,0.439298836046158,0.5,0.468667705334045,0.5,0.579481786180069,0.61963902511851,0.38036097488149,0.560701163953842,0.439298836046158,0.0586260281362086,0.774290001006879,0.439298836046158,0.0275284811548187,0.5,0.0626645893319104,0.910122778128661,1.98697638710466,2.60193771028914,0.5,79.3780718794315
CBC_1037,CBC_1037_MSI_AV_v3_Vset3_Aset2_2024-01-04_12h44.35.607.csv,1,23,3,1,z,0,1,1,aud,B,27,1,3B,1B,0,1,b,2.74306550000028,1,0,0,0,3B,1B,B31,3.63758615972639,0.560701163953842,0.411770354891339,0.468667705334045,0.5,0.5,0.588229645108661,0.468667705334045,0.468667705334045,0.5,0.5,0.588229645108661,0.439298836046158,0.5,0.468667705334045,0.5,0.579481786180069,0.381745686734353,0.618254313265647,0.468667705334045,0.588229645108661,0.0540149073190824,0.227280213258696,-0.468667705334045,-0.0293688692878867,0.5,0.0626645893319104,0.910122778128661,1.98697638710466,2.60193771028914,0.5,79.3780718794315
CBC_1037,CBC_1037_MSI_AV_v3_Vset3_Aset2_2024-01-04_12h44.35.607.csv,1,24,3,2,z,0,1,0,aud,C,63,1,3C,2C,0,1,z,2.45797740000035,0,1,1,1,2C,3C,C32,2.9704144655697,0.560701163953842,0.411770354891339,0.468667705334045,0.5,0.5,0.588229645108661,0.468667705334045,0.439298836046158,0.5,0.5,0.588229645108661,0.439298836046158,0.5,0.468667705334045,0.5,0.579481786180069,0.645807243386731,0.354192756613269,0.588229645108661,0.439298836046158,0.246069708354433,0.818972111870825,0.411770354891339,0.0258034201883208,0.5,0.0626645893319104,0.910122778128661,1.98697638710466,2.60193771028914,0.5,79.3780718794315
CBC_1037,CBC_1037_MSI_AV_v3_Vset3_Aset2_2024-01-04_12h44.35.607.csv,1,25,2,3,z,0,1,3,aud,D,63,1,2D,3D,0,1,z,1.45681200000035,0,1,1,1,3D,2D,D23,2.07944154167984,0.560701163953842,0.411770354891339,0.468667705334045,0.5,0.5,0.588229645108661,0.468667705334045,0.439298836046158,0.5,0.5,0.614033065296982,0.439298836046158,0.5,0.468667705334045,0.5,0.579481786180069,0.579481786180069,0.420518213819931,0.579481786180069,0.5,0.400375481584063,0.694137621151834,0.420518213819931,0.0263516011756145,0.5,0.0626645893319104,0.910122778128661,1.98697638710466,2.60193771028914,0.5,79.3780718794315
CBC_1037,CBC_1037_MSI_AV_v3_Vset3_Aset2_2024-01-04_12h44.35.607.csv,1,26,1,0,b,1,0,1,aud,B,63,1,1B,0B,1,0,b,2.53054960000009,1,0,1,1,1B,0B,B10,2.6149597780362,0.560701163953842,0.411770354891339,0.468667705334045,0.5,0.5,0.588229645108661,0.468667705334045,0.439298836046158,0.5,0.5,0.614033065296982,0.439298836046158,0.5,0.468667705334045,0.5,0.605833387355684,0.588229645108661,0.411770354891339,0.588229645108661,0.5,0.203590284877942,0.714182028459782,0.411770354891339,0.0258034201883208,0.5,0.0626645893319104,0.910122778128661,1.98697638710466,2.60193771028914,0.5,79.3780718794315
CBC_1037,CBC_1037_MSI_AV_v3_Vset3_Aset2_2024-01-04_12h44.35.607.csv,1,27,0,3,b,1,0,2,aud,A,9,1,0A,3A,1,0,b,2.60734570000022,1,0,1,1,0A,3A,A03,3.73766961828337,0.560701163953842,0.411770354891339,0.468667705334045,0.5,0.5,0.614033065296982,0.468667705334045,0.439298836046158,0.5,0.5,0.614033065296982,0.439298836046158,0.5,0.468667705334045,0.5,0.605833387355684,0.560701163953842,0.439298836046158,0.560701163953842,0.5,0.175317400425138,0.651599101462043,0.439298836046158,0.0275284811548187,0.5,0.0626645893319104,0.910122778128661,1.98697638710466,2.60193771028914,0.5,79.3780718794315
CBC_1037,CBC_1037_MSI_AV_v3_Vset3_Aset2_2024-01-04_12h44.35.607.csv,1,28,2,3,z,0,1,3,aud,D,63,1,2D,3D,0,1,z,2.24100260000023,0,1,1,1,3D,2D,D23,1.96944064646551,0.588229645108661,0.411770354891339,0.468667705334045,0.5,0.5,0.614033065296982,0.468667705334045,0.439298836046158,0.5,0.5,0.614033065296982,0.439298836046158,0.5,0.468667705334045,0.5,0.605833387355684,0.605833387355684,0.394166612644316,0.605833387355684,0.5,0.269452186732532,0.748100978881793,0.394166612644316,0.0247002889097063,0.5,0.0626645893319104,0.910122778128661,1.98697638710466,2.60193771028914,0.5,79.3780718794315
CBC_1037,CBC_1037_MSI_AV_v3_Vset3_Aset2_2024-01-04_12h44.35.607.csv,1,29,2,0,b,1,0,0,aud,C,27,1,2C,0C,1,0,b,1.23141600000008,1,0,1,1,2C,0C,C20,2.68557734525015,0.588229645108661,0.411770354891339,0.468667705334045,0.5,0.5,0.614033065296982,0.468667705334045,0.439298836046158,0.5,0.5,0.614033065296982,0.439298836046158,0.5,0.468667705334045,0.5,0.63053367626539,0.614033065296982,0.385966934703018,0.614033065296982,0.5,0.356830842533866,0.764620568515171,0.385966934703018,0.0241864594588609,0.5,0.0626645893319104,0.910122778128661,1.98697638710466,2.60193771028914,0.5,79.3780718794315
CBC_1037,CBC_1037_MSI_AV_v3_Vset3_Aset2_2024-01-04_12h44.35.607.csv,1,30,1,0,z,0,1,2,aud,A,63,1,1A,0A,0,1,b,2.34548760000052,1,0,0,0,1A,0A,A10,3.11351530921037,0.588229645108661,0.411770354891339,0.468667705334045,0.5,0.5,0.614033065296982,0.468667705334045,0.439298836046158,0.5,0.5,0.638219524755842,0.439298836046158,0.5,0.468667705334045,0.5,0.63053367626539,0.328869355446051,0.67113064455395,0.411770354891339,0.588229645108661,0.0481071705649785,0.145190919998573,-0.411770354891339,-0.0258034201883208,0.5,0.0626645893319104,0.910122778128661,1.98697638710466,2.60193771028914,0.5,79.3780718794315
CBC_1037,CBC_1037_MSI_AV_v3_Vset3_Aset2_2024-01-04_12h44.35.607.csv,1,31,1,0,b,1,0,1,aud,B,63,1,1B,0B,1,0,b,1.20901520000007,1,0,1,1,1B,0B,B10,2.4423470353692,0.588229645108661,0.385966934703019,0.468667705334045,0.5,0.5,0.614033065296982,0.468667705334045,0.439298836046158,0.5,0.5,0.638219524755842,0.439298836046158,0.5,0.468667705334045,0.5,0.63053367626539,0.614033065296982,0.385966934703018,0.614033065296982,0.5,0.326630462155326,0.763923814705224,0.385966934703018,0.0241864594588609,0.5,0.0626645893319104,0.910122778128661,1.98697638710466,2.60193771028914,0.5,79.3780718794315
CBC_1037,CBC_1037_MSI_AV_v3_Vset3_Aset2_2024-01-04_12h44.35.607.csv,1,32,3,1,b,1,0,3,aud,D,27,1,3D,1D,1,0,b,2.07323709999991,1,0,1,1,3D,1D,D31,3.85014760171006,0.588229645108661,0.385966934703019,0.468667705334045,0.5,0.5,0.638219524755842,0.468667705334045,0.439298836046158,0.5,0.5,0.638219524755842,0.439298836046158,0.5,0.468667705334045,0.5,0.63053367626539,0.659260520036271,0.340739479963729,0.63053367626539,0.468667705334045,0.357593714539648,0.838583185884371,0.36946632373461,0.0231524554488,0.5,0.0626645893319104,0.910122778128661,1.98697638710466,2.60193771028914,0.5,79.3780718794315
CBC_1037,CBC_1037_MSI_AV_v3_Vset3_Aset2_2024-01-04_12h44.35.607.csv,1,33,3,2,z,0,1,0,aud,C,63,1,3C,2C,0,1,z,2.06896010000037,0,1,1,1,2C,3C,C32,2.77258872223978,0.588229645108661,0.385966934703019,0.468667705334045,0.5,0.5,0.638219524755842,0.468667705334045,0.439298836046158,0.5,0.5,0.638219524755842,0.439298836046158,0.5,0.468667705334045,0.5,0.65368613171419,0.692461610817804,0.307538389182196,0.638219524755842,0.439298836046158,0.383166456230106,0.880146746804119,0.361780475244158,0.0226708249094785,0.5,0.0626645893319104,0.910122778128661,1.98697638710466,2.60193771028914,0.5,79.3780718794315
CBC_1037,CBC_1037_MSI_AV_v3_Vset3_Aset2_2024-01-04_12h44.35.607.csv,1,34,1,0,b,1,0,1,aud,B,63,1,1B,0B,1,0,b,1.14666960000022,1,0,1,1,1B,0B,B10,2.28238238567653,0.588229645108661,0.385966934703019,0.468667705334045,0.5,0.5,0.638219524755842,0.468667705334045,0.439298836046158,0.5,0.5,0.660890349665321,0.439298836046158,0.5,0.468667705334045,0.5,0.65368613171419,0.638219524755842,0.361780475244158,0.638219524755842,0.5,0.248024687040011,0.806024431500518,0.361780475244158,0.0226708249094785,0.5,0.0626645893319104,0.910122778128661,1.98697638710466,2.60193771028914,0.5,79.3780718794315
CBC_1037,CBC_1037_MSI_AV_v3_Vset3_Aset2_2024-01-04_12h44.35.607.csv,1,35,0,1,b,1,0,2,aud,A,63,1,0A,1A,1,0,b,2.36981790000027,1,0,1,1,0A,1A,A01,2.52572864430826,0.588229645108661,0.385966934703019,0.468667705334045,0.5,0.5,0.660890349665321,0.468667705334045,0.439298836046158,0.5,0.5,0.660890349665321,0.439298836046158,0.5,0.468667705334045,0.5,0.65368613171419,0.694437684865999,0.305562315134001,0.588229645108661,0.385966934703019,0.282746452749387,0.881400359086346,0.411770354891339,0.0258034201883208,0.5,0.0626645893319104,0.910122778128661,1.98697638710466,2.60193771028914,0.5,79.3780718794315
CBC_1037,CBC_1037_MSI_AV_v3_Vset3_Aset2_2024-01-04_12h44.35.607.csv,1,36,1,2,z,0,1,0,aud,C,9,1,1C,2C,0,1,z,1.1326454,0,1,1,1,2C,1C,C12,3.93182563272433,0.614033065296982,0.385966934703019,0.468667705334045,0.5,0.5,0.660890349665321,0.468667705334045,0.439298836046158,0.5,0.5,0.660890349665321,0.439298836046158,0.5,0.468667705334045,0.5,0.65368613171419,0.660890349665321,0.339109650334679,0.660890349665321,0.5,0.242336418253307,0.841028085388079,0.339109650334679,0.0212501669767104,0.5,0.0626645893319104,0.910122778128661,1.98697638710466,2.60193771028914,0.5,79.3780718794315
CBC_1037,CBC_1037_MSI_AV_v3_Vset3_Aset2_2024-01-04_12h44.35.607.csv,1,37,1,0,z,0,1,2,aud,A,63,1,1A,0A,0,1,z,1.42759530000058,0,1,1,1,0A,1A,A10,2.85263142991332,0.614033065296982,0.385966934703019,0.468667705334045,0.5,0.5,0.660890349665321,0.468667705334045,0.439298836046158,0.5,0.5,0.682140516642031,0.439298836046158,0.5,0.468667705334045,0.5,0.65368613171419,0.716789981810147,0.283210018189853,0.614033065296982,0.385966934703019,0.688064128247496,0.90402137974435,0.385966934703018,0.0241864594588609,0.5,0.0626645893319104,0.910122778128661,1.98697638710466,2.60193771028914,0.5,79.3780718794315
CBC_1037,CBC_1037_MSI_AV_v3_Vset3_Aset2_2024-01-04_12h44.35.607.csv,1,38,3,1,b,1,0,3,aud,D,27,1,3D,1D,1,0,b,2.26829060000046,1,0,1,1,3D,1D,D31,3.27714473299218,0.638219524755842,0.385966934703019,0.468667705334045,0.5,0.5,0.660890349665321,0.468667705334045,0.439298836046158,0.5,0.5,0.682140516642031,0.439298836046158,0.5,0.468667705334045,0.5,0.65368613171419,0.681522065141832,0.318477934858168,0.65368613171419,0.468667705334045,0.309122417524039,0.867020206990234,0.34631386828581,0.0217016163360756,0.5,0.0626645893319104,0.910122778128661,1.98697638710466,2.60193771028914,0.5,79.3780718794315
CBC_1037,CBC_1037_MSI_AV_v3_Vset3_Aset2_2024-01-04_12h44.35.607.csv,1,39,0,1,z,0,1,1,aud,B,63,1,0B,1B,0,1,z,4.29734139999982,0,1,1,1,1B,0B,B01,3.29583686600433,0.638219524755842,0.385966934703019,0.468667705334045,0.5,0.5,0.660890349665321,0.468667705334045,0.439298836046158,0.5,0.5,0.682140516642031,0.439298836046158,0.5,0.468667705334045,0.5,0.675387748050266,0.660890349665321,0.339109650334679,0.660890349665321,0.5,0.04523476161815,0.840146087365258,0.339109650334679,0.0212501669767104,0.5,0.0626645893319104,0.910122778128661,1.98697638710466,2.60193771028914,0.5,79.3780718794315
CBC_1037,CBC_1037_MSI_AV_v3_Vset3_Aset2_2024-01-04_12h44.35.607.csv,1,40,2,3,b,1,0,0,aud,C,63,0,2C,3C,0,1,b,2.30824870000015,1,0,1,0,2C,3C,C23,2.90872089656436,0.638219524755842,0.385966934703019,0.468667705334045,0.5,0.5,0.682140516642031,0.468667705334045,0.439298836046158,0.5,0.5,0.682140516642031,0.439298836046158,0.5,0.468667705334045,0.5,0.675387748050266,0.732556950516151,0.267443049483849,0.682140516642031,0.439298836046158,0.306509822499684,0.91719773010709,-0.682140516642031,-0.0427460553420301,0.5,0.0626645893319104,0.910122778128661,1.98697638710466,2.60193771028914,0.5,79.3780718794315
CBC_1037,CBC_1037_MSI_AV_v3_Vset3_Aset2_2024-01-04_12h44.35.607.csv,1,41,2,0,z,0,1,2,aud,A,27,1,2A,0A,0,1,z,1.50020340000037,0,1,1,1,0A,2A,A20,3.3322045101752,0.638219524755842,0.385966934703019,0.468667705334045,0.5,0.5,0.682140516642031,0.468667705334045,0.439298836046158,0.5,0.5,0.639394461300001,0.439298836046158,0.5,0.468667705334045,0.5,0.675387748050266,0.666664696957459,0.333335303042541,0.638219524755842,0.468667705334045,0.567807605981074,0.848758719939818,0.361780475244158,0.0226708249094785,0.5,0.0626645893319104,0.910122778128661,1.98697638710466,2.60193771028914,0.5,79.3780718794315
CBC_1037,CBC_1037_MSI_AV_v3_Vset3_Aset2_2024-01-04_12h44.35.607.csv,1,42,3,2,b,1,0,3,aud,D,63,1,3D,2D,1,0,b,3.80007479999995,1,0,1,1,3D,2D,D32,4.04305126783455,0.660890349665321,0.385966934703019,0.468667705334045,0.5,0.5,0.682140516642031,0.468667705334045,0.439298836046158,0.5,0.5,0.639394461300001,0.439298836046158,0.5,0.468667705334045,0.5,0.675387748050266,0.675387748050266,0.324612251949734,0.675387748050266,0.5,0.0692609711831813,0.859947917245303,0.324612251949734,0.0203416934605367,0.5,0.0626645893319104,0.910122778128661,1.98697638710466,2.60193771028914,0.5,79.3780718794315
CBC_1037,CBC_1037_MSI_AV_v3_Vset3_Aset2_2024-01-04_12h44.35.607.csv,1,43,3,1,z,0,1,1,aud,B,27,1,3B,1B,0,1,z,3.00750860000016,0,1,1,1,1B,3B,B31,3.36729582998647,0.660890349665321,0.385966934703019,0.468667705334045,0.5,0.5,0.682140516642031,0.468667705334045,0.439298836046158,0.5,0.5,0.639394461300001,0.439298836046158,0.5,0.468667705334045,0.5,0.695729441510802,0.732556950516152,0.267443049483848,0.682140516642031,0.439298836046158,0.136791695750147,0.916969563797947,0.317859483357969,0.0199185339898803,0.5,0.0626645893319104,0.910122778128661,1.98697638710466,2.60193771028914,0.5,79.3780718794315
CBC_1037,CBC_1037_MSI_AV_v3_Vset3_Aset2_2024-01-04_12h44.35.607.csv,1,44,2,3,b,1,0,0,aud,C,63,1,2C,3C,1,0,b,2.45025440000018,1,0,1,1,2C,3C,C23,2.69124308278583,0.660890349665321,0.385966934703019,0.468667705334045,0.5,0.5,0.702059050631912,0.468667705334045,0.439298836046158,0.5,0.5,0.639394461300001,0.439298836046158,0.5,0.468667705334045,0.5,0.695729441510802,0.693544974772192,0.306455025227808,0.639394461300001,0.439298836046158,0.260300085672298,0.880437575970365,0.360605538699999,0.0225971979934478,0.5,0.0626645893319104,0.910122778128661,1.98697638710466,2.60193771028914,0.5,79.3780718794315
CBC_1037,CBC_1037_MSI_TV_v3_Vset1_Tset3_2024-01-04_13h52.51.148.csv,2,1,1,0,b,1,0,1,tac,B,63,1,1B,0B,1,0,z,3.14485270000023,0,1,0,0,0B,1B,B10,2.77258872223978,0.5,0.5,0.5,0.5,0.5,0.5,0.5,0.5,0.5,0.5,0.5,0.5,0.5,0.5,0.5,0.5,0.5,0.5,0.5,0.5,0.11325982795489,0.499348249907756,-0.5,-0.00110834027224044,0.5,0.00221668054448088,1.09834767048405,2.0047918108225,2.97912022037325,0.5,84.1810857635962
CBC_1037,CBC_1037_MSI_TV_v3_Vset1_Tset3_2024-01-04_13h52.51.148.csv,2,2,0,1,b,1,0,2,tac,A,63,1,0A,1A,1,0,b,3.23500080000031,1,0,1,1,0A,1A,A01,2.83321334405622,0.5,0.5,0.5,0.5,0.49889165972776,0.5,0.5,0.5,0.5,0.5,0.5,0.5,0.5,0.5,0.5,0.5,0.5,0.5,0.5,0.5,0.107665848251906,0.499029805011513,0.5,0.00110834027224044,0.5,0.00221668054448088,1.09834767048405,2.0047918108225,2.97912022037325,0.5,84.1810857635962
CBC_1037,CBC_1037_MSI_TV_v3_Vset1_Tset3_2024-01-04_13h52.51.148.csv,2,3,1,2,z,0,1,0,tac,C,9,1,1C,2C,0,1,z,3.69668710000042,0,1,1,1,2C,1C,C12,2.89037175789616,0.50110834027224,0.5,0.5,0.5,0.49889165972776,0.5,0.5,0.5,0.5,0.5,0.5,0.5,0.5,0.5,0.5,0.5,0.5,0.5,0.5,0.5,0.0834214256292987,0.499722263215406,0.5,0.00110834027224044,0.5,0.00221668054448088,1.09834767048405,2.0047918108225,2.97912022037325,0.5,84.1810857635962
CBC_1037,CBC_1037_MSI_TV_v3_Vset1_Tset3_2024-01-04_13h52.51.148.csv,2,4,1,0,z,0,1,2,tac,A,63,1,1A,0A,0,1,b,2.8860666999999,1,0,0,0,1A,0A,A10,2.94443897916644,0.50110834027224,0.5,0.5,0.5,0.49889165972776,0.5,0.5,0.5,0.5,0.5,0.50110834027224,0.5,0.5,0.5,0.5,0.5,0.49889165972776,0.50110834027224,0.5,0.50110834027224,0.129992224290198,0.496667432261434,-0.5,-0.00110834027224044,0.5,0.00221668054448088,1.09834767048405,2.0047918108225,2.97912022037325,0.5,84.1810857635962
CBC_1037,CBC_1037_MSI_TV_v3_Vset1_Tset3_2024-01-04_13h52.51.148.csv,2,5,3,1,b,1,0,3,tac,D,27,1,3D,1D,1,0,b,3.34571340000002,1,0,1,1,3D,1D,D31,2.99573227355399,0.50110834027224,0.49889165972776,0.5,0.5,0.49889165972776,0.5,0.5,0.5,0.5,0.5,0.50110834027224,0.5,0.5,0.5,0.5,0.5,0.5,0.5,0.5,0.5,0.101488566712895,0.500221761275458,0.5,0.00110834027224044,0.5,0.00221668054448088,1.09834767048405,2.0047918108225,2.97912022037325,0.5,84.1810857635962
CBC_1037,CBC_1037_MSI_TV_v3_Vset1_Tset3_2024-01-04_13h52.51.148.csv,2,6,0,1,z,0,1,1,tac,B,63,1,0B,1B,0,1,z,2.55904400000054,0,1,1,1,1B,0B,B01,3.04452243772342,0.50110834027224,0.49889165972776,0.5,0.5,0.49889165972776,0.5,0.5,0.5,0.5,0.5,0.50110834027224,0.5,0.5,0.5,0.5,0.50110834027224,0.50110834027224,0.49889165972776,0.5,0.49889165972776,0.157633278554981,0.503888242306291,0.5,0.00110834027224044,0.5,0.00221668054448088,1.09834767048405,2.0047918108225,2.97912022037325,0.5,84.1810857635962
CBC_1037,CBC_1037_MSI_TV_v3_Vset1_Tset3_2024-01-04_13h52.51.148.csv,2,7,2,3,b,1,0,0,tac,C,63,1,2C,3C,1,0,b,3.66244240000015,1,0,1,1,2C,3C,C23,3.09104245335832,0.50110834027224,0.49889165972776,0.5,0.5,0.49889165972776,0.50110834027224,0.5,0.5,0.5,0.5,0.50110834027224,0.5,0.5,0.5,0.5,0.50110834027224,0.50110834027224,0.49889165972776,0.50110834027224,0.5,0.0858102068349133,0.504342163034374,0.49889165972776,0.0011058834359223,0.5,0.00221668054448088,1.09834767048405,2.0047918108225,2.97912022037325,0.5,84.1810857635962
CBC_1037,CBC_1037_MSI_TV_v3_Vset1_Tset3_2024-01-04_13h52.51.148.csv,2,8,2,0,z,0,1,2,tac,A,27,1,2A,0A,0,1,b,2.03260180000052,1,0,0,0,2A,0A,A20,3.13549421592915,0.50110834027224,0.49889165972776,0.5,0.5,0.49889165972776,0.50110834027224,0.5,0.5,0.5,0.5,0.502214223708163,0.5,0.5,0.5,0.5,0.50110834027224,0.49889165972776,0.50110834027224,0.5,0.50110834027224,0.199228283007617,0.49642235200177,-0.5,-0.00110834027224044,0.5,0.00221668054448088,1.09834767048405,2.0047918108225,2.97912022037325,0.5,84.1810857635962
CBC_1037,CBC_1037_MSI_TV_v3_Vset1_Tset3_2024-01-04_13h52.51.148.csv,2,9,3,2,b,1,0,3,tac,D,63,1,3D,2D,1,0,z,1.88300350000009,0,1,0,0,2D,3D,D32,3.17805383034795,0.50110834027224,0.49889165972776,0.49889165972776,0.5,0.49889165972776,0.50110834027224,0.5,0.5,0.5,0.5,0.502214223708163,0.5,0.5,0.5,0.5,0.50110834027224,0.49889165972776,0.50110834027224,0.5,0.50110834027224,0.206666828949329,0.496974999085752,-0.5,-0.00110834027224044,0.5,0.00221668054448088,1.09834767048405,2.0047918108225,2.97912022037325,0.5,84.1810857635962
CBC_1037,CBC_1037_MSI_TV_v3_Vset1_Tset3_2024-01-04_13h52.51.148.csv,2,10,3,1,z,0,1,1,tac,B,27,1,3B,1B,0,1,b,3.25806530000045,1,0,0,0,3B,1B,B31,3.2188758248682,0.50110834027224,0.49889165972776,0.49889165972776,0.5,0.49889165972776,0.50110834027224,0.5,0.5,0.5,0.5,0.502214223708163,0.5,0.5,0.5,0.49889165972776,0.50110834027224,0.49889165972776,0.50110834027224,0.5,0.50110834027224,0.105841070818554,0.496892743710602,-0.5,-0.00110834027224044,0.5,0.00221668054448088,1.09834767048405,2.0047918108225,2.97912022037325,0.5,84.1810857635962
CBC_1037,CBC_1037_MSI_TV_v3_Vset1_Tset3_2024-01-04_13h52.51.148.csv,2,11,3,2,z,0,1,0,tac,C,63,0,3C,2C,1,0,z,2.61140310000064,0,1,1,0,2C,3C,C32,3.25809653802148,0.50110834027224,0.49889165972776,0.49889165972776,0.5,0.49889165972776,0.50110834027224,0.5,0.49889165972776,0.5,0.5,0.502214223708163,0.5,0.5,0.5,0.49889165972776,0.50110834027224,0.502214223708163,0.497785776291837,0.502214223708163,0.5,0.153947936580587,0.506160326593415,-0.502214223708163,-0.00111324849885545,0.5,0.00221668054448088,1.09834767048405,2.0047918108225,2.97912022037325,0.5,84.1810857635962
CBC_1037,CBC_1037_MSI_TV_v3_Vset1_Tset3_2024-01-04_13h52.51.148.csv,2,12,1,3,b,1,0,1,tac,B,27,1,1B,3B,1,0,b,2.72131879999961,1,0,1,1,1B,3B,B13,3.29583686600433,0.50110834027224,0.49889165972776,0.49889165972776,0.5,0.49889165972776,0.50110834027224,0.5,0.49889165972776,0.5,0.5,0.501100975209307,0.5,0.5,0.5,0.49889165972776,0.50110834027224,0.502216669652492,0.497783330347508,0.50110834027224,0.49889165972776,0.145021951060641,0.506160759257909,0.49889165972776,0.0011058834359223,0.5,0.00221668054448088,1.09834767048405,2.0047918108225,2.97912022037325,0.5,84.1810857635962
CBC_1037,CBC_1037_MSI_TV_v3_Vset1_Tset3_2024-01-04_13h52.51.148.csv,2,13,3,2,z,0,1,0,tac,C,63,1,3C,2C,0,1,b,2.98550859999978,1,0,0,0,3C,2C,C32,2.63905732961526,0.50110834027224,0.49889165972776,0.49889165972776,0.5,0.49889165972776,0.502214223708163,0.5,0.49889165972776,0.5,0.5,0.501100975209307,0.5,0.5,0.5,0.49889165972776,0.50110834027224,0.498899024790693,0.501100975209307,0.5,0.501100975209307,0.122865132175986,0.495936077987411,-0.5,-0.00110834027224044,0.5,0.00221668054448088,1.09834767048405,2.0047918108225,2.97912022037325,0.5,84.1810857635962
CBC_1037,CBC_1037_MSI_TV_v3_Vset1_Tset3_2024-01-04_13h52.51.148.csv,2,14,3,2,b,1,0,3,tac,D,63,1,3D,2D,1,0,z,2.74648040000011,0,1,0,0,2D,3D,D32,2.67414864942653,0.50110834027224,0.49889165972776,0.49889165972776,0.5,0.49889165972776,0.502214223708163,0.5,0.49889165972776,0.5,0.5,0.501100975209307,0.49889165972776,0.5,0.5,0.49889165972776,0.50110834027224,0.497783330347508,0.502216669652492,0.49889165972776,0.50110834027224,0.139470335291296,0.493526871979694,-0.49889165972776,-0.0011058834359223,0.5,0.00221668054448088,1.09834767048405,2.0047918108225,2.97912022037325,0.5,84.1810857635962
CBC_1037,CBC_1037_MSI_TV_v3_Vset1_Tset3_2024-01-04_13h52.51.148.csv,2,15,0,3,b,1,0,2,tac,A,9,1,0A,3A,1,0,z,4.61397350000061,0,1,0,0,3A,0A,A03,3.40119738166216,0.50110834027224,0.49889165972776,0.49889165972776,0.5,0.49889165972776,0.502214223708163,0.5,0.49889165972776,0.5,0.5,0.501100975209307,0.49889165972776,0.5,0.5,0.497785776291837,0.50110834027224,0.49889165972776,0.50110834027224,0.5,0.50110834027224,0.0498497964644974,0.497291063458807,-0.5,-0.00110834027224044,0.5,0.00221668054448088,1.09834767048405,2.0047918108225,2.97912022037325,0.5,84.1810857635962
CBC_1037,CBC_1037_MSI_TV_v3_Vset1_Tset3_2024-01-04_13h52.51.148.csv,2,16,0,1,z,0,1,1,tac,B,63,0,0B,1B,1,0,z,2.16315300000042,0,1,1,0,1B,0B,B01,2.7408400239252,0.50110834027224,0.49889165972776,0.49889165972776,0.49889165972776,0.49889165972776,0.502214223708163,0.5,0.49889165972776,0.5,0.5,0.501100975209307,0.49889165972776,0.5,0.5,0.497785776291837,0.50110834027224,0.503322531364929,0.496677468635071,0.502214223708163,0.49889165972776,0.194579746524958,0.510212756152534,-0.502214223708163,-0.00111324849885545,0.5,0.00221668054448088,1.09834767048405,2.0047918108225,2.97912022037325,0.5,84.1810857635962
CBC_1037,CBC_1037_MSI_TV_v3_Vset1_Tset3_2024-01-04_13h52.51.148.csv,2,17,2,3,z,0,1,3,tac,D,63,1,2D,3D,NaN,NaN,None,NaN,NaN,NaN,NaN,NaN,,,D23,3.46573590279973,0.50110834027224,0.49889165972776,0.49889165972776,0.49889165972776,0.49889165972776,0.501100975209307,0.5,0.49889165972776,0.5,0.5,0.501100975209307,0.49889165972776,0.5,0.5,0.497785776291837,0.50110834027224,0,0,0,0,NaN,0,0,0,0.5,0.00221668054448088,1.09834767048405,2.0047918108225,2.97912022037325,0.5,84.1810857635962
CBC_1037,CBC_1037_MSI_TV_v3_Vset1_Tset3_2024-01-04_13h52.51.148.csv,2,18,0,2,z,0,1,0,tac,C,27,1,0C,2C,0,1,z,3.05373420000069,0,1,1,1,2C,0C,C02,3.49650756146648,0.50110834027224,0.49889165972776,0.49889165972776,0.49889165972776,0.49889165972776,0.501100975209307,0.5,0.49889165972776,0.5,0.5,0.501100975209307,0.49889165972776,0.5,0.5,0.497785776291837,0.50110834027224,0.501100975209307,0.498899024790693,0.501100975209307,0.5,0.120499324219179,0.505101851563596,0.498899024790693,0.00110589976191401,0.5,0.00221668054448088,1.09834767048405,2.0047918108225,2.97912022037325,0.5,84.1810857635962
CBC_1037,CBC_1037_MSI_TV_v3_Vset1_Tset3_2024-01-04_13h52.51.148.csv,2,19,0,1,b,1,0,2,tac,A,63,1,0A,1A,1,0,b,3.18643620000057,1,0,1,1,0A,1A,A01,2.83321334405622,0.50110834027224,0.49889165972776,0.49889165972776,0.49889165972776,0.49889165972776,0.501100975209307,0.5,0.49889165972776,0.5,0.5,0.502206874971221,0.49889165972776,0.5,0.5,0.497785776291837,0.50110834027224,0.502216669652492,0.497783330347508,0.50110834027224,0.49889165972776,0.112416690155395,0.50719250331749,0.49889165972776,0.0011058834359223,0.5,0.00221668054448088,1.09834767048405,2.0047918108225,2.97912022037325,0.5,84.1810857635962
CBC_1037,CBC_1037_MSI_TV_v3_Vset1_Tset3_2024-01-04_13h52.51.148.csv,2,20,1,0,b,1,0,1,tac,B,63,1,1B,0B,1,0,z,2.52955560000009,0,1,0,0,0B,1B,B10,2.86220088092947,0.502214223708163,0.49889165972776,0.49889165972776,0.49889165972776,0.49889165972776,0.501100975209307,0.5,0.49889165972776,0.5,0.5,0.502206874971221,0.49889165972776,0.5,0.5,0.497785776291837,0.50110834027224,0.497790695302114,0.502209304697886,0.49889165972776,0.501100975209307,0.156895762145659,0.493679935197176,-0.49889165972776,-0.0011058834359223,0.5,0.00221668054448088,1.09834767048405,2.0047918108225,2.97912022037325,0.5,84.1810857635962
CBC_1037,CBC_1037_MSI_TV_v3_Vset1_Tset3_2024-01-04_13h52.51.148.csv,2,21,1,3,z,0,1,3,tac,D,27,1,1D,3D,0,1,b,2.71956179999961,1,0,0,0,1D,3D,D13,3.58351893845611,0.502214223708163,0.49889165972776,0.49889165972776,0.49889165972776,0.497785776291837,0.501100975209307,0.5,0.49889165972776,0.5,0.5,0.502206874971221,0.49889165972776,0.5,0.5,0.497785776291837,0.50110834027224,0.49889165972776,0.50110834027224,0.5,0.50110834027224,0.142455998679014,0.496735336823431,-0.5,-0.00110834027224044,0.5,0.00221668054448088,1.09834767048405,2.0047918108225,2.97912022037325,0.5,84.1810857635962
CBC_1037,CBC_1037_MSI_TV_v3_Vset1_Tset3_2024-01-04_13h52.51.148.csv,2,22,3,2,z,0,1,0,tac,C,63,1,3C,2C,0,1,z,3.6889955000006,0,1,1,1,2C,3C,C32,2.51230562397611,0.502214223708163,0.49889165972776,0.49889165972776,0.49889165972776,0.497785776291837,0.501100975209307,0.5,0.49889165972776,0.5,0.5,0.502206874971221,0.49889165972776,0.5,0.49889165972776,0.497785776291837,0.50110834027224,0.503315182808132,0.496684817191868,0.502206874971221,0.49889165972776,0.0854540663640012,0.509730574855696,0.497793125028779,0.00110344833542763,0.5,0.00221668054448088,1.09834767048405,2.0047918108225,2.97912022037325,0.5,84.1810857635962
CBC_1037,CBC_1037_MSI_TV_v3_Vset1_Tset3_2024-01-04_13h52.51.148.csv,2,23,0,1,b,1,0,2,tac,A,63,1,0A,1A,1,0,z,1.76973540000017,0,1,0,0,1A,0A,A01,2.53897387105828,0.502214223708163,0.49889165972776,0.49889165972776,0.49889165972776,0.497785776291837,0.501100975209307,0.5,0.49889165972776,0.5,0.5,0.503310323306649,0.49889165972776,0.5,0.49889165972776,0.497785776291837,0.50110834027224,0.49667746863507,0.50332253136493,0.49889165972776,0.502214223708163,0.202624049080386,0.489454160151019,-0.49889165972776,-0.0011058834359223,0.5,0.00221668054448088,1.09834767048405,2.0047918108225,2.97912022037325,0.5,84.1810857635962
CBC_1037,CBC_1037_MSI_TV_v3_Vset1_Tset3_2024-01-04_13h52.51.148.csv,2,24,2,3,z,0,1,3,tac,D,63,1,2D,3D,0,1,z,3.52237640000021,0,1,1,1,3D,2D,D23,2.9704144655697,0.502214223708163,0.497785776291837,0.49889165972776,0.49889165972776,0.497785776291837,0.501100975209307,0.5,0.49889165972776,0.5,0.5,0.503310323306649,0.49889165972776,0.5,0.49889165972776,0.497785776291837,0.50110834027224,0.503322531364929,0.496677468635071,0.50110834027224,0.497785776291837,0.093583665636392,0.508838264377124,0.49889165972776,0.0011058834359223,0.5,0.00221668054448088,1.09834767048405,2.0047918108225,2.97912022037325,0.5,84.1810857635962
CBC_1037,CBC_1037_MSI_TV_v3_Vset1_Tset3_2024-01-04_13h52.51.148.csv,2,25,2,0,b,1,0,0,tac,C,27,1,2C,0C,1,0,z,3.32179900000028,0,1,0,0,0C,2C,C20,3.68887945411394,0.502214223708163,0.497785776291837,0.49889165972776,0.49889165972776,0.497785776291837,0.501100975209307,0.5,0.49889165972776,0.5,0.5,0.503310323306649,0.49889165972776,0.5,0.49889165972776,0.497785776291837,0.502214223708163,0.496689676693351,0.503310323306649,0.5,0.503310323306649,0.10083727211878,0.490454332840744,-0.5,-0.00110834027224044,0.5,0.00221668054448088,1.09834767048405,2.0047918108225,2.97912022037325,0.5,84.1810857635962
CBC_1037,CBC_1037_MSI_TV_v3_Vset1_Tset3_2024-01-04_13h52.51.148.csv,2,26,0,1,b,1,0,2,tac,A,63,1,0A,1A,1,0,b,2.31792769999993,1,0,1,1,0A,1A,A01,2.32727770558442,0.502214223708163,0.497785776291837,0.49889165972776,0.49889165972776,0.497785776291837,0.501100975209307,0.5,0.49889165972776,0.49889165972776,0.5,0.503310323306649,0.49889165972776,0.5,0.49889165972776,0.497785776291837,0.502214223708163,0.504428360571098,0.495571639428902,0.502214223708163,0.497785776291837,0.18176110024268,0.512525608785281,0.497785776291837,0.00110343204562542,0.5,0.00221668054448088,1.09834767048405,2.0047918108225,2.97912022037325,0.5,84.1810857635962
CBC_1037,CBC_1037_MSI_TV_v3_Vset1_Tset3_2024-01-04_13h52.51.148.csv,2,27,1,3,b,1,0,1,tac,B,27,1,1B,3B,1,0,b,3.3032890000004,1,0,1,1,1B,3B,B13,3.04452243772342,0.503317655753788,0.497785776291837,0.49889165972776,0.49889165972776,0.497785776291837,0.501100975209307,0.5,0.49889165972776,0.49889165972776,0.5,0.503310323306649,0.49889165972776,0.5,0.49889165972776,0.497785776291837,0.502214223708163,0.502209304697886,0.497790695302114,0.501100975209307,0.49889165972776,0.105240365153828,0.506635162229609,0.498899024790693,0.00110589976191401,0.5,0.00221668054448088,1.09834767048405,2.0047918108225,2.97912022037325,0.5,84.1810857635962
CBC_1037,CBC_1037_MSI_TV_v3_Vset1_Tset3_2024-01-04_13h52.51.148.csv,2,28,3,2,z,0,1,0,tac,C,63,1,3C,2C,NaN,NaN,None,NaN,NaN,NaN,NaN,NaN,,,C32,2.37490575457367,0.503317655753788,0.497785776291837,0.49889165972776,0.49889165972776,0.497785776291837,0.502206874971221,0.5,0.49889165972776,0.49889165972776,0.5,0.503310323306649,0.49889165972776,0.5,0.49889165972776,0.497785776291837,0.502214223708163,0,0,0,0,NaN,0,0,0,0.5,0.00221668054448088,1.09834767048405,2.0047918108225,2.97912022037325,0.5,84.1810857635962
CBC_1037,CBC_1037_MSI_TV_v3_Vset1_Tset3_2024-01-04_13h52.51.148.csv,2,29,3,2,b,1,0,3,tac,D,63,0,3D,2D,0,1,z,3.62977729999966,0,1,0,1,2D,3D,D32,2.68557734525015,0.503317655753788,0.497785776291837,0.49889165972776,0.49889165972776,0.497785776291837,0.502206874971221,0.5,0.49889165972776,0.49889165972776,0.5,0.503310323306649,0.49889165972776,0.5,0.49889165972776,0.497785776291837,0.502214223708163,0.495571639428902,0.504428360571098,0.497785776291837,0.502214223708163,0.0839814600765539,0.484741387772073,0.502214223708163,0.00111324849885545,0.5,0.00221668054448088,1.09834767048405,2.0047918108225,2.97912022037325,0.5,84.1810857635962
CBC_1037,CBC_1037_MSI_TV_v3_Vset1_Tset3_2024-01-04_13h52.51.148.csv,2,30,0,1,z,0,1,1,tac,B,63,1,0B,1B,0,1,b,2.98036020000018,1,0,0,0,0B,1B,B01,2.70805020110221,0.503317655753788,0.497785776291837,0.49889165972776,0.49889165972776,0.497785776291837,0.502206874971221,0.5,0.49889165972776,0.49889165972776,0.5,0.503310323306649,0.49889165972776,0.5,0.49889165972776,0.498899024790693,0.502214223708163,0.495578987733985,0.504421012266015,0.497785776291837,0.502206874971221,0.121059844564254,0.487238328383565,-0.497785776291837,-0.00110343204562543,0.5,0.00221668054448088,1.09834767048405,2.0047918108225,2.97912022037325,0.5,84.1810857635962
CBC_1037,CBC_1037_MSI_TV_v3_Vset1_Tset3_2024-01-04_13h52.51.148.csv,2,31,2,0,z,0,1,2,tac,A,27,1,2A,0A,0,1,z,1.99450419999994,0,1,1,1,0A,2A,A20,3.13549421592915,0.503317655753788,0.497785776291837,0.49889165972776,0.49889165972776,0.496682344246212,0.502206874971221,0.5,0.49889165972776,0.49889165972776,0.5,0.503310323306649,0.49889165972776,0.5,0.49889165972776,0.498899024790693,0.502214223708163,0.504425930927817,0.495574069072183,0.503317655753788,0.49889165972776,0.208477885014046,0.51315312969536,0.496682344246212,0.00110098608927773,0.5,0.00221668054448088,1.09834767048405,2.0047918108225,2.97912022037325,0.5,84.1810857635962
CBC_1037,CBC_1037_MSI_TV_v3_Vset1_Tset3_2024-01-04_13h52.51.148.csv,2,32,3,0,b,1,0,3,tac,D,9,1,3D,0D,1,0,z,3.92737920000036,0,1,0,0,0D,3D,D30,3.85014760171006,0.504418641843066,0.497785776291837,0.49889165972776,0.49889165972776,0.496682344246212,0.502206874971221,0.5,0.49889165972776,0.49889165972776,0.5,0.503310323306649,0.49889165972776,0.5,0.49889165972776,0.498899024790693,0.502214223708163,0.497785776291837,0.502214223708163,0.5,0.502214223708163,0.0725264059404936,0.49391839791496,-0.5,-0.00110834027224044,0.5,0.00221668054448088,1.09834767048405,2.0047918108225,2.97912022037325,0.5,84.1810857635962
CBC_1037,CBC_1037_MSI_TV_v3_Vset1_Tset3_2024-01-04_13h52.51.148.csv,2,33,3,2,z,0,1,0,tac,C,63,1,3C,2C,0,1,z,2.6481889000006,0,1,1,1,2C,3C,C32,2.26176309847379,0.504418641843066,0.497785776291837,0.49889165972776,0.49889165972776,0.496682344246212,0.502206874971221,0.5,0.49889165972776,0.49889165972776,0.5,0.503310323306649,0.49889165972776,0.49889165972776,0.49889165972776,0.498899024790693,0.502214223708163,0.50441859873216,0.49558140126784,0.503310323306649,0.49889165972776,0.153265339671655,0.514001844640145,0.496689676693351,0.00110100234297065,0.5,0.00221668054448088,1.09834767048405,2.0047918108225,2.97912022037325,0.5,84.1810857635962
CBC_1037,CBC_1037_MSI_TV_v3_Vset1_Tset3_2024-01-04_13h52.51.148.csv,2,34,0,1,z,0,1,1,tac,B,63,1,0B,1B,0,1,b,3.83199659999991,1,0,0,0,0B,1B,B01,2.50552593699074,0.504418641843066,0.497785776291837,0.49889165972776,0.49889165972776,0.496682344246212,0.502206874971221,0.5,0.49889165972776,0.49889165972776,0.5,0.50441132564962,0.49889165972776,0.49889165972776,0.49889165972776,0.498899024790693,0.502214223708163,0.494475631065006,0.505524368934994,0.496682344246212,0.502206874971221,0.0748669184996327,0.483575353896613,-0.496682344246212,-0.00110098608927773,0.5,0.00221668054448088,1.09834767048405,2.0047918108225,2.97912022037325,0.5,84.1810857635962
CBC_1037,CBC_1037_MSI_TV_v3_Vset1_Tset3_2024-01-04_13h52.51.148.csv,2,35,0,1,b,1,0,2,tac,A,63,0,0A,1A,0,1,b,0.117975099999967,1,0,1,0,0A,1A,A01,2.30258509299405,0.504418641843066,0.497785776291837,0.49889165972776,0.49889165972776,0.495581358156934,0.502206874971221,0.5,0.49889165972776,0.49889165972776,0.5,0.50441132564962,0.49889165972776,0.49889165972776,0.49889165972776,0.498899024790693,0.502214223708163,0.506632605981235,0.493367394018765,0.504418641843066,0.497785776291837,1e-20,0.5,-0.504418641843066,-0.00111813498964699,0.5,0.00221668054448088,1.09834767048405,2.0047918108225,2.97912022037325,0.5,84.1810857635962
CBC_1037,CBC_1037_MSI_TV_v3_Vset1_Tset3_2024-01-04_13h52.51.148.csv,2,36,2,3,z,0,1,3,tac,D,63,1,2D,3D,0,1,z,2.38881420000052,0,1,1,1,3D,2D,D23,2.83321334405622,0.503300506853419,0.497785776291837,0.49889165972776,0.49889165972776,0.495581358156934,0.502206874971221,0.5,0.49889165972776,0.49889165972776,0.5,0.50441132564962,0.49889165972776,0.49889165972776,0.49889165972776,0.498899024790693,0.502214223708163,0.503315166590546,0.496684833409454,0.502214223708163,0.498899024790693,0.174795435903245,0.510870243001205,0.497785776291837,0.00110343204562542,0.5,0.00221668054448088,1.09834767048405,2.0047918108225,2.97912022037325,0.5,84.1810857635962
CBC_1037,CBC_1037_MSI_TV_v3_Vset1_Tset3_2024-01-04_13h52.51.148.csv,2,37,1,2,b,1,0,1,tac,B,9,1,1B,2B,1,0,z,3.3144811000011,0,1,0,0,2B,1B,B12,3.95124371858143,0.503300506853419,0.497785776291837,0.49889165972776,0.49889165972776,0.495581358156934,0.502206874971221,0.5,0.49889165972776,0.49889165972776,0.5,0.50441132564962,0.49889165972776,0.49889165972776,0.49889165972776,0.498899024790693,0.503317655753788,0.497793125028779,0.502206874971221,0.5,0.502206874971221,0.101886719445809,0.493548598920546,-0.5,-0.00110834027224044,0.5,0.00221668054448088,1.09834767048405,2.0047918108225,2.97912022037325,0.5,84.1810857635962
CBC_1037,CBC_1037_MSI_TV_v3_Vset1_Tset3_2024-01-04_13h52.51.148.csv,2,38,2,0,z,0,1,2,tac,A,27,1,2A,0A,0,1,b,4.72891400000026,1,0,0,0,2A,0A,A20,2.87167962488401,0.503300506853419,0.497785776291837,0.49889165972776,0.49889165972776,0.495581358156934,0.502206874971221,0.49889165972776,0.49889165972776,0.49889165972776,0.5,0.50441132564962,0.49889165972776,0.49889165972776,0.49889165972776,0.498899024790693,0.503317655753788,0.495591217385141,0.504408782614859,0.49889165972776,0.503300506853419,0.0457319550065052,0.486430376434084,-0.49889165972776,-0.0011058834359223,0.5,0.00221668054448088,1.09834767048405,2.0047918108225,2.97912022037325,0.5,84.1810857635962
CBC_1037,CBC_1037_MSI_TV_v3_Vset1_Tset3_2024-01-04_13h52.51.148.csv,2,39,2,3,b,1,0,0,tac,C,63,1,2C,3C,1,0,z,2.59337419999974,0,1,0,0,3C,2C,C23,3.29583686600433,0.503300506853419,0.497785776291837,0.497785776291837,0.49889165972776,0.495581358156934,0.502206874971221,0.49889165972776,0.49889165972776,0.49889165972776,0.5,0.50441132564962,0.49889165972776,0.49889165972776,0.49889165972776,0.498899024790693,0.503317655753788,0.494480442024132,0.505519557975868,0.49889165972776,0.50441132564962,0.148540148898253,0.483580719143662,-0.49889165972776,-0.0011058834359223,0.5,0.00221668054448088,1.09834767048405,2.0047918108225,2.97912022037325,0.5,84.1810857635962
CBC_1037,CBC_1037_MSI_TV_v3_Vset1_Tset3_2024-01-04_13h52.51.148.csv,2,40,1,3,z,0,1,3,tac,D,27,1,1D,3D,0,1,z,3.13383630000044,0,1,1,1,3D,1D,D13,3.31418600467253,0.503300506853419,0.497785776291837,0.497785776291837,0.49889165972776,0.495581358156934,0.502206874971221,0.49889165972776,0.49889165972776,0.49889165972776,0.5,0.50441132564962,0.497785776291837,0.49889165972776,0.49889165972776,0.498899024790693,0.503317655753788,0.504425930927817,0.495574069072183,0.503317655753788,0.49889165972776,0.117466843373045,0.514724082099279,0.496682344246212,0.00110098608927773,0.5,0.00221668054448088,1.09834767048405,2.0047918108225,2.97912022037325,0.5,84.1810857635962
CBC_1037,CBC_1037_MSI_TV_v3_Vset1_Tset3_2024-01-04_13h52.51.148.csv,2,41,0,1,b,1,0,2,tac,A,63,1,0A,1A,1,0,b,2.28061070000058,1,0,1,1,0A,1A,A01,2.23359222150709,0.503300506853419,0.497785776291837,0.497785776291837,0.49889165972776,0.495581358156934,0.502206874971221,0.49889165972776,0.49889165972776,0.49889165972776,0.5,0.50441132564962,0.497785776291837,0.49889165972776,0.49889165972776,0.498899024790693,0.504418641843066,0.505514569358355,0.494485430641645,0.503300506853419,0.497785776291837,0.186461053858921,0.516176353788681,0.496699493146581,0.00110102410291154,0.5,0.00221668054448088,1.09834767048405,2.0047918108225,2.97912022037325,0.5,84.1810857635962
CBC_1037,CBC_1037_MSI_TV_v3_Vset1_Tset3_2024-01-04_13h52.51.148.csv,2,42,0,2,z,0,1,0,tac,C,27,1,0C,2C,NaN,NaN,None,NaN,NaN,NaN,NaN,NaN,,,C02,3.3499040872746,0.504401530956331,0.497785776291837,0.497785776291837,0.49889165972776,0.495581358156934,0.502206874971221,0.49889165972776,0.49889165972776,0.49889165972776,0.5,0.50441132564962,0.497785776291837,0.49889165972776,0.49889165972776,0.498899024790693,0.504418641843066,0,0,0,0,NaN,0,0,0,0.5,0.00221668054448088,1.09834767048405,2.0047918108225,2.97912022037325,0.5,84.1810857635962
CBC_1037,CBC_1037_MSI_TV_v3_Vset1_Tset3_2024-01-04_13h52.51.148.csv,2,43,3,2,b,1,0,3,tac,D,63,1,3D,2D,1,0,z,2.65311810000003,0,1,0,0,2D,3D,D32,2.67414864942653,0.504401530956331,0.497785776291837,0.497785776291837,0.49889165972776,0.495581358156934,0.502206874971221,0.49889165972776,0.49889165972776,0.49889165972776,0.5,0.50441132564962,0.497785776291837,0.49889165972776,0.49889165972776,0.498899024790693,0.504418641843066,0.494480490353203,0.505519509646797,0.498899024790693,0.504418641843066,0.143773663987644,0.483438984977323,-0.498899024790693,-0.00110589976191401,0.5,0.00221668054448088,1.09834767048405,2.0047918108225,2.97912022037325,0.5,84.1810857635962
CBC_1037,CBC_1037_MSI_TV_v3_Vset1_Tset3_2024-01-04_13h52.51.148.csv,2,44,1,0,b,1,0,1,tac,B,63,1,1B,0B,1,0,b,2.78128379999998,1,0,1,1,1B,0B,B10,2.97892515523761,0.504401530956331,0.497785776291837,0.497785776291837,0.49889165972776,0.495581358156934,0.502206874971221,0.49889165972776,0.49889165972776,0.49889165972776,0.5,0.50441132564962,0.497785776291837,0.49889165972776,0.49889165972776,0.497793125028779,0.504418641843066,0.506625258392371,0.493374741607629,0.502206874971221,0.495581358156934,0.143915708147431,0.518982388407431,0.497793125028779,0.00110344833542763,0.5,0.00221668054448088,1.09834767048405,2.0047918108225,2.97912022037325,0.5,84.1810857635962
