ID,filename,session,trial,visStimLeft,visStimRight,correctKey,leftCorrect,rightCorrect,secondStim,mod2Type,mod2Stim,frequency,rewardAccurate,stimPairLeft,stimPairRight,pCorrectLeft,pCorrectRight,key,reactionTime,choiceLeft,choiceRight,choiceAccurate,reward,chosenPair,otherPair,triplet,surprise,0A belief,1A belief,2A belief,3A belief,0B belief,1B belief,2B belief,3B belief,0C belief,1C belief,2C belief,3C belief,0D belief,1D belief,2D belief,3D belief,beliefPairNorm,beliefOtherPairNorm,beliefPair,beliefOtherPair,lik,corrLik,rewardPE,update2,fitCBCsimpleRW_CBCdriftDiffusionLR_pwBelief_startBelief,fitCBCsimpleRW_CBCdriftDiffusionLR_pwBelief_alpha1,fitCBCsimpleRW_CBCdriftDiffusionLR_pwBelief_nonDecisionTime,fitCBCsimpleRW_CBCdriftDiffusionLR_pwBelief_weight,fitCBCsimpleRW_CBCdriftDiffusionLR_pwBelief_startingBoundary,fitCBCsimpleRW_CBCdriftDiffusionLR_pwBelief_startingPoint,fit_CBCsimpleRW_CBCdriftDiffusionLR_pwBelief_NLL
CBC_1030,CBC_1030_MSI_TV_v3_Vset3_Tset1_2023-08-23_15h04.35.874.csv,1,1,0,2,z,0,1,2,tac,C,27,1,0C,2C,0,1,z,2.65799659999902,0,1,1,1,2C,0C,C02,2.77258872223978,0.5,0.5,0.5,0.5,0.5,0.5,0.5,0.5,0.5,0.5,0.5,0.5,0.5,0.5,0.5,0.5,0.5,0.5,0.5,0.5,0.135436578971284,0.500988775055133,0.5,0.465011837328212,0.5,0.930023674656425,1.08537526244803,0.392732073870328,3.45308829730501,0.5,90.4297337021499
CBC_1030,CBC_1030_MSI_TV_v3_Vset3_Tset1_2023-08-23_15h04.35.874.csv,1,2,2,3,z,0,1,1,tac,D,63,1,2D,3D,0,1,z,3.82927790000031,0,1,1,1,3D,2D,D23,2.83321334405622,0.5,0.5,0.5,0.5,0.5,0.5,0.5,0.5,0.5,0.5,0.965011837328212,0.5,0.5,0.5,0.5,0.5,0.5,0.5,0.5,0.5,0.084425101294076,0.498926940120818,0.5,0.465011837328212,0.5,0.930023674656425,1.08537526244803,0.392732073870328,3.45308829730501,0.5,90.4297337021499
CBC_1030,CBC_1030_MSI_TV_v3_Vset3_Tset1_2023-08-23_15h04.35.874.csv,1,3,0,1,b,1,0,0,tac,A,63,1,0A,1A,NaN,NaN,None,NaN,NaN,NaN,NaN,NaN,,,A01,2.89037175789616,0.5,0.5,0.5,0.5,0.5,0.5,0.5,0.5,0.5,0.5,0.965011837328212,0.5,0.5,0.5,0.5,0.965011837328212,0,0,0,0,NaN,0,0,0,0.5,0.930023674656425,1.08537526244803,0.392732073870328,3.45308829730501,0.5,90.4297337021499
CBC_1030,CBC_1030_MSI_TV_v3_Vset3_Tset1_2023-08-23_15h04.35.874.csv,1,4,3,2,z,0,1,2,tac,C,63,1,3C,2C,0,1,z,3.31901759999982,0,1,1,1,2C,3C,C32,2.94443897916644,0.5,0.5,0.5,0.5,0.5,0.5,0.5,0.5,0.5,0.5,0.965011837328212,0.5,0.5,0.5,0.5,0.965011837328212,0.965011837328212,0.0349881626717876,0.965011837328212,0.5,0.168664540427935,0.778325443388039,0.0349881626717876,0.0325398196174927,0.5,0.930023674656425,1.08537526244803,0.392732073870328,3.45308829730501,0.5,90.4297337021499
CBC_1030,CBC_1030_MSI_TV_v3_Vset3_Tset1_2023-08-23_15h04.35.874.csv,1,5,2,0,z,0,1,0,tac,A,27,1,2A,0A,0,1,z,4.80152899999939,0,1,1,1,0A,2A,A20,2.99573227355399,0.5,0.5,0.5,0.5,0.5,0.5,0.5,0.5,0.5,0.5,0.997551656945705,0.5,0.5,0.5,0.5,0.965011837328212,0.5,0.5,0.5,0.5,0.0566365812026115,0.500346239893282,0.5,0.465011837328212,0.5,0.930023674656425,1.08537526244803,0.392732073870328,3.45308829730501,0.5,90.4297337021499
CBC_1030,CBC_1030_MSI_TV_v3_Vset3_Tset1_2023-08-23_15h04.35.874.csv,1,6,3,2,b,1,0,1,tac,D,63,1,3D,2D,1,0,z,4.09624350000013,0,1,0,0,2D,3D,D32,3.04452243772342,0.965011837328212,0.5,0.5,0.5,0.5,0.5,0.5,0.5,0.5,0.5,0.997551656945705,0.5,0.5,0.5,0.5,0.965011837328212,0.0349881626717876,0.965011837328212,0.5,0.965011837328212,0.032988410235764,0.220736629601607,-0.5,-0.465011837328212,0.5,0.930023674656425,1.08537526244803,0.392732073870328,3.45308829730501,0.5,90.4297337021499
CBC_1030,CBC_1030_MSI_TV_v3_Vset3_Tset1_2023-08-23_15h04.35.874.csv,1,7,2,3,z,0,1,1,tac,D,63,1,2D,3D,0,1,z,3.10735099999965,0,1,1,1,3D,2D,D23,2.39789527279837,0.965011837328212,0.5,0.5,0.5,0.5,0.5,0.5,0.5,0.5,0.5,0.997551656945705,0.5,0.5,0.5,0.0349881626717877,0.965011837328212,0.998687176125507,0.00131282387449319,0.965011837328212,0.0349881626717877,0.191351203701529,0.794265110873983,0.0349881626717876,0.0325398196174927,0.5,0.930023674656425,1.08537526244803,0.392732073870328,3.45308829730501,0.5,90.4297337021499
CBC_1030,CBC_1030_MSI_TV_v3_Vset3_Tset1_2023-08-23_15h04.35.874.csv,1,8,1,3,b,1,0,3,tac,B,27,1,1B,3B,1,0,z,3.18399449999924,0,1,0,0,3B,1B,B13,3.13549421592915,0.965011837328212,0.5,0.5,0.5,0.5,0.5,0.5,0.5,0.5,0.5,0.997551656945705,0.5,0.5,0.5,0.0349881626717877,0.997551656945705,0.5,0.5,0.5,0.5,0.110200176697985,0.499886362215794,-0.5,-0.465011837328212,0.5,0.930023674656425,1.08537526244803,0.392732073870328,3.45308829730501,0.5,90.4297337021499
CBC_1030,CBC_1030_MSI_TV_v3_Vset3_Tset1_2023-08-23_15h04.35.874.csv,1,9,3,0,b,1,0,1,tac,D,9,1,3D,0D,1,0,b,3.76811709999947,1,0,1,1,3D,0D,D30,3.17805383034795,0.965011837328212,0.5,0.5,0.5,0.5,0.5,0.5,0.0349881626717877,0.5,0.5,0.997551656945705,0.5,0.5,0.5,0.0349881626717877,0.997551656945705,0.997551656945705,0.00244834305429498,0.997551656945705,0.5,0.138931138570146,0.794756708410775,0.00244834305429498,0.00227701700417495,0.5,0.930023674656425,1.08537526244803,0.392732073870328,3.45308829730501,0.5,90.4297337021499
CBC_1030,CBC_1030_MSI_TV_v3_Vset3_Tset1_2023-08-23_15h04.35.874.csv,1,10,0,1,z,0,1,3,tac,B,63,1,0B,1B,0,1,z,3.38835139999901,0,1,1,1,1B,0B,B01,3.2188758248682,0.965011837328212,0.5,0.5,0.5,0.5,0.5,0.5,0.0349881626717877,0.5,0.5,0.997551656945705,0.5,0.5,0.5,0.0349881626717877,0.99982867394988,0.5,0.5,0.5,0.5,0.101189040801833,0.498811358372206,0.5,0.465011837328212,0.5,0.930023674656425,1.08537526244803,0.392732073870328,3.45308829730501,0.5,90.4297337021499
CBC_1030,CBC_1030_MSI_TV_v3_Vset3_Tset1_2023-08-23_15h04.35.874.csv,1,11,0,1,b,1,0,0,tac,A,63,1,0A,1A,1,0,b,3.54360389999965,1,0,1,1,0A,1A,A01,2.56494935746154,0.965011837328212,0.5,0.5,0.5,0.5,0.965011837328212,0.5,0.0349881626717877,0.5,0.5,0.997551656945705,0.5,0.5,0.5,0.0349881626717877,0.99982867394988,0.965011837328212,0.0349881626717876,0.965011837328212,0.5,0.151611586935865,0.778500670603326,0.0349881626717876,0.0325398196174927,0.5,0.930023674656425,1.08537526244803,0.392732073870328,3.45308829730501,0.5,90.4297337021499
CBC_1030,CBC_1030_MSI_TV_v3_Vset3_Tset1_2023-08-23_15h04.35.874.csv,1,12,1,0,b,1,0,3,tac,B,63,1,1B,0B,1,0,b,3.30253819999962,1,0,1,1,1B,0B,B10,3.29583686600433,0.997551656945705,0.5,0.5,0.5,0.5,0.965011837328212,0.5,0.0349881626717877,0.5,0.5,0.997551656945705,0.5,0.5,0.5,0.0349881626717877,0.99982867394988,0.965011837328212,0.0349881626717876,0.965011837328212,0.5,0.17026527847078,0.779387293810808,0.0349881626717876,0.0325398196174927,0.5,0.930023674656425,1.08537526244803,0.392732073870328,3.45308829730501,0.5,90.4297337021499
CBC_1030,CBC_1030_MSI_TV_v3_Vset3_Tset1_2023-08-23_15h04.35.874.csv,1,13,3,2,b,1,0,1,tac,D,63,1,3D,2D,1,0,z,3.32220879999932,0,1,0,0,2D,3D,D32,2.63905732961526,0.997551656945705,0.5,0.5,0.5,0.5,0.997551656945705,0.5,0.0349881626717877,0.5,0.5,0.997551656945705,0.5,0.5,0.5,0.0349881626717877,0.99982867394988,6.21274620860035e-06,0.999993787253791,0.0349881626717877,0.99982867394988,0.0444993548411833,0.204795684277371,-0.0349881626717877,-0.0325398196174927,0.5,0.930023674656425,1.08537526244803,0.392732073870328,3.45308829730501,0.5,90.4297337021499
CBC_1030,CBC_1030_MSI_TV_v3_Vset3_Tset1_2023-08-23_15h04.35.874.csv,1,14,3,1,z,0,1,3,tac,B,27,1,3B,1B,0,1,b,3.52885199999946,1,0,0,0,3B,1B,B31,3.36729582998647,0.997551656945705,0.5,0.5,0.5,0.5,0.997551656945705,0.5,0.0349881626717877,0.5,0.5,0.997551656945705,0.5,0.5,0.5,0.00244834305429495,0.99982867394988,8.89788374239769e-05,0.999911021162576,0.0349881626717877,0.997551656945705,0.0404907435457937,0.206090006926366,-0.0349881626717877,-0.0325398196174927,0.5,0.930023674656425,1.08537526244803,0.392732073870328,3.45308829730501,0.5,90.4297337021499
CBC_1030,CBC_1030_MSI_TV_v3_Vset3_Tset1_2023-08-23_15h04.35.874.csv,1,15,2,3,b,1,0,2,tac,C,63,1,2C,3C,1,0,z,4.82137279999915,0,1,0,0,3C,2C,C23,3.40119738166216,0.997551656945705,0.5,0.5,0.5,0.5,0.997551656945705,0.5,0.00244834305429495,0.5,0.5,0.997551656945705,0.5,0.5,0.5,0.00244834305429495,0.99982867394988,0.00244834305429498,0.997551656945705,0.5,0.997551656945705,0.02148725224325,0.20590996944456,-0.5,-0.465011837328212,0.5,0.930023674656425,1.08537526244803,0.392732073870328,3.45308829730501,0.5,90.4297337021499
CBC_1030,CBC_1030_MSI_TV_v3_Vset3_Tset1_2023-08-23_15h04.35.874.csv,1,16,0,2,z,0,1,2,tac,C,27,1,0C,2C,0,1,z,2.72014369999943,0,1,1,1,2C,0C,C02,2.7408400239252,0.997551656945705,0.5,0.5,0.5,0.5,0.997551656945705,0.5,0.00244834305429495,0.5,0.5,0.997551656945705,0.0349881626717877,0.5,0.5,0.00244834305429495,0.99982867394988,0.997551656945705,0.00244834305429498,0.997551656945705,0.5,0.229290075538448,0.794654698366022,0.00244834305429498,0.00227701700417495,0.5,0.930023674656425,1.08537526244803,0.392732073870328,3.45308829730501,0.5,90.4297337021499
CBC_1030,CBC_1030_MSI_TV_v3_Vset3_Tset1_2023-08-23_15h04.35.874.csv,1,17,3,0,z,0,1,0,tac,A,9,1,3A,0A,0,1,z,3.60837859999992,0,1,1,1,0A,3A,A30,3.46573590279973,0.997551656945705,0.5,0.5,0.5,0.5,0.997551656945705,0.5,0.00244834305429495,0.5,0.5,0.99982867394988,0.0349881626717877,0.5,0.5,0.00244834305429495,0.99982867394988,0.997551656945705,0.00244834305429498,0.997551656945705,0.5,0.149948701008856,0.793398172078753,0.00244834305429498,0.00227701700417495,0.5,0.930023674656425,1.08537526244803,0.392732073870328,3.45308829730501,0.5,90.4297337021499
CBC_1030,CBC_1030_MSI_TV_v3_Vset3_Tset1_2023-08-23_15h04.35.874.csv,1,18,3,2,z,0,1,2,tac,C,63,0,3C,2C,1,0,z,2.88474479999968,0,1,1,0,2C,3C,C32,2.80336038090653,0.99982867394988,0.5,0.5,0.5,0.5,0.997551656945705,0.5,0.00244834305429495,0.5,0.5,0.99982867394988,0.0349881626717877,0.5,0.5,0.00244834305429495,0.99982867394988,0.999993787253791,6.21274620859899e-06,0.99982867394988,0.0349881626717877,0.212572700398777,0.794310256545365,-0.99982867394988,-0.929864337373728,0.5,0.930023674656425,1.08537526244803,0.392732073870328,3.45308829730501,0.5,90.4297337021499
CBC_1030,CBC_1030_MSI_TV_v3_Vset3_Tset1_2023-08-23_15h04.35.874.csv,1,19,0,1,b,1,0,0,tac,A,63,1,0A,1A,1,0,b,3.06108509999922,1,0,1,1,0A,1A,A01,2.42774823594805,0.99982867394988,0.5,0.5,0.5,0.5,0.997551656945705,0.5,0.00244834305429495,0.5,0.5,0.0699643365761523,0.0349881626717877,0.5,0.5,0.00244834305429495,0.99982867394988,0.99982867394988,0.000171326050120046,0.99982867394988,0.5,0.196222033169541,0.796079143963975,0.000171326050120046,0.000159337282697016,0.5,0.930023674656425,1.08537526244803,0.392732073870328,3.45308829730501,0.5,90.4297337021499
CBC_1030,CBC_1030_MSI_TV_v3_Vset3_Tset1_2023-08-23_15h04.35.874.csv,1,20,2,3,z,0,1,1,tac,D,63,1,2D,3D,0,1,z,4.62049269999989,0,1,1,1,3D,2D,D23,2.4567357728213,0.999988011232577,0.5,0.5,0.5,0.5,0.997551656945705,0.5,0.00244834305429495,0.5,0.5,0.0699643365761523,0.0349881626717877,0.5,0.5,0.00244834305429495,0.99982867394988,0.999999579433663,4.20566336643997e-07,0.99982867394988,0.00244834305429495,0.0914614804066781,0.794467104279007,0.000171326050120046,0.000159337282697016,0.5,0.930023674656425,1.08537526244803,0.392732073870328,3.45308829730501,0.5,90.4297337021499
CBC_1030,CBC_1030_MSI_TV_v3_Vset3_Tset1_2023-08-23_15h04.35.874.csv,1,21,2,3,b,1,0,2,tac,C,63,1,2C,3C,1,0,z,4.03609009999946,0,1,0,0,3C,2C,C23,2.89037175789616,0.999988011232577,0.5,0.5,0.5,0.5,0.997551656945705,0.5,0.00244834305429495,0.5,0.5,0.0699643365761523,0.0349881626717877,0.5,0.5,0.00244834305429495,0.999988011232577,0.325218148013982,0.674781851986018,0.0349881626717877,0.0699643365761523,0.0596618988141992,0.384016006274609,-0.0349881626717877,-0.0325398196174927,0.5,0.930023674656425,1.08537526244803,0.392732073870328,3.45308829730501,0.5,90.4297337021499
CBC_1030,CBC_1030_MSI_TV_v3_Vset3_Tset1_2023-08-23_15h04.35.874.csv,1,22,1,3,z,0,1,1,tac,D,27,1,1D,3D,0,1,z,2.94307369999933,0,1,1,1,3D,1D,D13,3.61091791264422,0.999988011232577,0.5,0.5,0.5,0.5,0.997551656945705,0.5,0.00244834305429495,0.5,0.5,0.0699643365761523,0.00244834305429495,0.5,0.5,0.00244834305429495,0.999988011232577,0.999988011232577,1.19887674230323e-05,0.999988011232577,0.5,0.207250444284983,0.795369147330946,1.19887674230323e-05,1.11498375333698e-05,0.5,0.930023674656425,1.08537526244803,0.392732073870328,3.45308829730501,0.5,90.4297337021499
CBC_1030,CBC_1030_MSI_TV_v3_Vset3_Tset1_2023-08-23_15h04.35.874.csv,1,23,1,0,z,0,1,0,tac,A,63,1,1A,0A,0,1,z,2.89216419999957,0,1,1,1,0A,1A,A10,3.63758615972639,0.999988011232577,0.5,0.5,0.5,0.5,0.997551656945705,0.5,0.00244834305429495,0.5,0.5,0.0699643365761523,0.00244834305429495,0.5,0.5,0.00244834305429495,0.99999916107011,0.999988011232577,1.19887674230323e-05,0.999988011232577,0.5,0.211993277675413,0.79470824540333,1.19887674230323e-05,1.11498375333698e-05,0.5,0.930023674656425,1.08537526244803,0.392732073870328,3.45308829730501,0.5,90.4297337021499
CBC_1030,CBC_1030_MSI_TV_v3_Vset3_Tset1_2023-08-23_15h04.35.874.csv,1,24,2,3,b,1,0,2,tac,C,63,1,2C,3C,1,0,b,2.66462099999899,1,0,1,1,2C,3C,C23,2.56494935746154,0.99999916107011,0.5,0.5,0.5,0.5,0.997551656945705,0.5,0.00244834305429495,0.5,0.5,0.0699643365761523,0.00244834305429495,0.5,0.5,0.00244834305429495,0.99999916107011,0.968405111250294,0.0315948887497057,0.0699643365761523,0.00244834305429495,0.228687258010232,0.780751793323146,0.930035663423848,0.864955185258973,0.5,0.930023674656425,1.08537526244803,0.392732073870328,3.45308829730501,0.5,90.4297337021499
CBC_1030,CBC_1030_MSI_TV_v3_Vset3_Tset1_2023-08-23_15h04.35.874.csv,1,25,2,0,z,0,1,0,tac,A,27,1,2A,0A,0,1,z,2.85461179999947,0,1,1,1,0A,2A,A20,2.99573227355399,0.99999916107011,0.5,0.5,0.5,0.5,0.997551656945705,0.5,0.00244834305429495,0.5,0.5,0.934919521835125,0.00244834305429495,0.5,0.5,0.00244834305429495,0.99999916107011,0.99999916107011,8.38929889668272e-07,0.99999916107011,0.5,0.215807986393883,0.794936463683409,8.38929889668272e-07,7.80224658768395e-07,0.5,0.930023674656425,1.08537526244803,0.392732073870328,3.45308829730501,0.5,90.4297337021499
CBC_1030,CBC_1030_MSI_TV_v3_Vset3_Tset1_2023-08-23_15h04.35.874.csv,1,26,0,1,z,0,1,3,tac,B,63,1,0B,1B,0,1,z,2.99075279999943,0,1,1,1,1B,0B,B01,3.02042488614436,0.999999941294769,0.5,0.5,0.5,0.5,0.997551656945705,0.5,0.00244834305429495,0.5,0.5,0.934919521835125,0.00244834305429495,0.5,0.5,0.00244834305429495,0.99999916107011,0.997551656945705,0.00244834305429498,0.997551656945705,0.5,0.201738913722527,0.792795083600139,0.00244834305429498,0.00227701700417495,0.5,0.930023674656425,1.08537526244803,0.392732073870328,3.45308829730501,0.5,90.4297337021499
CBC_1030,CBC_1030_MSI_TV_v3_Vset3_Tset1_2023-08-23_15h04.35.874.csv,1,27,1,0,b,1,0,3,tac,B,63,1,1B,0B,1,0,b,3.20957009999984,1,0,1,1,1B,0B,B10,3.04452243772342,0.999999941294769,0.5,0.5,0.5,0.5,0.99982867394988,0.5,0.00244834305429495,0.5,0.5,0.934919521835125,0.00244834305429495,0.5,0.5,0.00244834305429495,0.99999916107011,0.99982867394988,0.000171326050120046,0.99982867394988,0.5,0.182326832133257,0.794735734473348,0.000171326050120046,0.000159337282697016,0.5,0.930023674656425,1.08537526244803,0.392732073870328,3.45308829730501,0.5,90.4297337021499
CBC_1030,CBC_1030_MSI_TV_v3_Vset3_Tset1_2023-08-23_15h04.35.874.csv,1,28,2,3,b,1,0,2,tac,C,63,1,2C,3C,1,0,b,3.0989856999995,1,0,1,1,2C,3C,C23,2.37490575457367,0.999999941294769,0.5,0.5,0.5,0.5,0.999988011232577,0.5,0.00244834305429495,0.5,0.5,0.934919521835125,0.00244834305429495,0.5,0.5,0.00244834305429495,0.99999916107011,0.999829179814283,0.000170820185716902,0.934919521835125,0.00244834305429495,0.192709094936509,0.796112879559048,0.0650804781648751,0.0605263854512943,0.5,0.930023674656425,1.08537526244803,0.392732073870328,3.45308829730501,0.5,90.4297337021499
CBC_1030,CBC_1030_MSI_TV_v3_Vset3_Tset1_2023-08-23_15h04.35.874.csv,1,29,1,3,z,0,1,1,tac,D,27,1,1D,3D,0,1,b,3.4445541999994,1,0,0,0,1D,3D,D13,3.09104245335832,0.999999941294769,0.5,0.5,0.5,0.5,0.999988011232577,0.5,0.00244834305429495,0.5,0.5,0.995445907286419,0.00244834305429495,0.5,0.5,0.00244834305429495,0.99999916107011,8.38929889668272e-07,0.99999916107011,0.5,0.99999916107011,0.0419915523708219,0.205105588768393,-0.5,-0.465011837328212,0.5,0.930023674656425,1.08537526244803,0.392732073870328,3.45308829730501,0.5,90.4297337021499
CBC_1030,CBC_1030_MSI_TV_v3_Vset3_Tset1_2023-08-23_15h04.35.874.csv,1,30,2,1,b,1,0,2,tac,C,9,1,2C,1C,1,0,b,2.67003279999972,1,0,1,1,2C,1C,C21,3.80666248977032,0.999999941294769,0.5,0.5,0.5,0.5,0.999988011232577,0.5,0.00244834305429495,0.5,0.5,0.995445907286419,0.00244834305429495,0.5,0.0349881626717877,0.00244834305429495,0.99999916107011,0.995445907286419,0.00455409271358076,0.995445907286419,0.5,0.233825935415043,0.793355426127761,0.00455409271358076,0.00423541404021043,0.5,0.930023674656425,1.08537526244803,0.392732073870328,3.45308829730501,0.5,90.4297337021499
CBC_1030,CBC_1030_MSI_TV_v3_Vset3_Tset1_2023-08-23_15h04.35.874.csv,1,31,1,3,b,1,0,3,tac,B,27,1,1B,3B,1,0,b,2.9803839999995,1,0,1,1,1B,3B,B13,3.13549421592915,0.999999941294769,0.5,0.5,0.5,0.5,0.999988011232577,0.5,0.00244834305429495,0.5,0.5,0.99968132132663,0.00244834305429495,0.5,0.0349881626717877,0.00244834305429495,0.99999916107011,0.999999970574991,2.94250089849513e-08,0.999988011232577,0.00244834305429495,0.203637790656314,0.795364550086328,1.19887674230323e-05,1.11498375333698e-05,0.5,0.930023674656425,1.08537526244803,0.392732073870328,3.45308829730501,0.5,90.4297337021499
CBC_1030,CBC_1030_MSI_TV_v3_Vset3_Tset1_2023-08-23_15h04.35.874.csv,1,32,2,3,z,0,1,1,tac,D,63,1,2D,3D,0,1,b,3.4552206999997,1,0,0,0,2D,3D,D23,2.46385324059017,0.999999941294769,0.5,0.5,0.5,0.5,0.99999916107011,0.5,0.00244834305429495,0.5,0.5,0.99968132132663,0.00244834305429495,0.5,0.0349881626717877,0.00244834305429495,0.99999916107011,2.05903110183077e-09,0.999999997940969,0.00244834305429495,0.99999916107011,0.0417079368938941,0.204770164279432,-0.00244834305429495,-0.00227701700417492,0.5,0.930023674656425,1.08537526244803,0.392732073870328,3.45308829730501,0.5,90.4297337021499
CBC_1030,CBC_1030_MSI_TV_v3_Vset3_Tset1_2023-08-23_15h04.35.874.csv,1,33,1,0,b,1,0,3,tac,B,63,1,1B,0B,1,0,b,2.5816965999993,1,0,1,1,1B,0B,B10,2.77258872223978,0.999999941294769,0.5,0.5,0.5,0.5,0.99999916107011,0.5,0.00244834305429495,0.5,0.5,0.99968132132663,0.00244834305429495,0.5,0.0349881626717877,0.000171326050120026,0.99999916107011,0.99999916107011,8.38929889668272e-07,0.99999916107011,0.5,0.243991246769049,0.795707793933677,8.38929889668272e-07,7.80224658768395e-07,0.5,0.930023674656425,1.08537526244803,0.392732073870328,3.45308829730501,0.5,90.4297337021499
CBC_1030,CBC_1030_MSI_TV_v3_Vset3_Tset1_2023-08-23_15h04.35.874.csv,1,34,0,1,b,1,0,0,tac,A,63,0,0A,1A,0,1,z,2.77430359999926,0,1,0,1,1A,0A,A01,2.50552593699074,0.999999941294769,0.5,0.5,0.5,0.5,0.999999941294769,0.5,0.00244834305429495,0.5,0.5,0.99968132132663,0.00244834305429495,0.5,0.0349881626717877,0.000171326050120026,0.99999916107011,5.87052308986813e-08,0.999999941294769,0.5,0.999999941294769,0.0575829509624493,0.204357545283772,0.5,0.465011837328212,0.5,0.930023674656425,1.08537526244803,0.392732073870328,3.45308829730501,0.5,90.4297337021499
CBC_1030,CBC_1030_MSI_TV_v3_Vset3_Tset1_2023-08-23_15h04.35.874.csv,1,35,3,2,z,0,1,2,tac,C,63,1,3C,2C,0,1,z,3.77891179999915,0,1,1,1,2C,3C,C32,2.81341071676004,0.999999941294769,0.965011837328212,0.5,0.5,0.5,0.999999941294769,0.5,0.00244834305429495,0.5,0.5,0.99968132132663,0.00244834305429495,0.5,0.0349881626717877,0.000171326050120026,0.99999916107011,0.999999217601591,7.82398408986709e-07,0.99968132132663,0.00244834305429495,0.138246877473847,0.795046834120374,0.000318678673370321,0.0002963787108425,0.5,0.930023674656425,1.08537526244803,0.392732073870328,3.45308829730501,0.5,90.4297337021499
CBC_1030,CBC_1030_MSI_TV_v3_Vset3_Tset1_2023-08-23_15h04.35.874.csv,1,36,2,0,z,0,1,0,tac,A,27,1,2A,0A,0,1,z,2.8373002999997,0,1,1,1,0A,2A,A20,2.83321334405622,0.999999941294769,0.965011837328212,0.5,0.5,0.5,0.999999941294769,0.5,0.00244834305429495,0.5,0.5,0.999977700037472,0.00244834305429495,0.5,0.0349881626717877,0.000171326050120026,0.99999916107011,0.999999941294769,5.87052308986813e-08,0.999999941294769,0.5,0.217622270738416,0.795144878631427,5.87052308986813e-08,5.45972545619455e-08,0.5,0.930023674656425,1.08537526244803,0.392732073870328,3.45308829730501,0.5,90.4297337021499
CBC_1030,CBC_1030_MSI_TV_v3_Vset3_Tset1_2023-08-23_15h04.35.874.csv,1,37,1,0,b,1,0,3,tac,B,63,1,1B,0B,1,0,b,2.81495669999913,1,0,1,1,1B,0B,B10,2.56494935746154,0.999999995892024,0.965011837328212,0.5,0.5,0.5,0.999999941294769,0.5,0.00244834305429495,0.5,0.5,0.999977700037472,0.00244834305429495,0.5,0.0349881626717877,0.000171326050120026,0.99999916107011,0.999999941294769,5.87052308986813e-08,0.999999941294769,0.5,0.219804391012552,0.794989314331548,5.87052308986813e-08,5.45972545619455e-08,0.5,0.930023674656425,1.08537526244803,0.392732073870328,3.45308829730501,0.5,90.4297337021499
CBC_1030,CBC_1030_MSI_TV_v3_Vset3_Tset1_2023-08-23_15h04.35.874.csv,1,38,3,2,b,1,0,1,tac,D,63,1,3D,2D,1,0,z,3.16375239999888,0,1,0,0,2D,3D,D32,2.87167962488401,0.999999995892024,0.965011837328212,0.5,0.5,0.5,0.999999995892024,0.5,0.00244834305429495,0.5,0.5,0.999977700037472,0.00244834305429495,0.5,0.0349881626717877,0.000171326050120026,0.99999916107011,1.43755340964447e-10,0.999999999856245,0.000171326050120026,0.99999916107011,0.0481604121643358,0.205352901746446,-0.000171326050120026,-0.000159337282696998,0.5,0.930023674656425,1.08537526244803,0.392732073870328,3.45308829730501,0.5,90.4297337021499
CBC_1030,CBC_1030_MSI_TV_v3_Vset3_Tset1_2023-08-23_15h04.35.874.csv,1,39,2,1,z,0,1,3,tac,B,9,1,2B,1B,0,1,b,3.38953579999998,1,0,0,0,2B,1B,B21,3.98898404656427,0.999999995892024,0.965011837328212,0.5,0.5,0.5,0.999999995892024,0.5,0.00244834305429495,0.5,0.5,0.999977700037472,0.00244834305429495,0.5,0.0349881626717877,1.19887674230287e-05,0.99999916107011,4.10797629246673e-09,0.999999995892024,0.5,0.999999995892024,0.0430681224323704,0.204796369769255,-0.5,-0.465011837328212,0.5,0.930023674656425,1.08537526244803,0.392732073870328,3.45308829730501,0.5,90.4297337021499
CBC_1030,CBC_1030_MSI_TV_v3_Vset3_Tset1_2023-08-23_15h04.35.874.csv,1,40,3,1,b,1,0,1,tac,D,27,1,3D,1D,1,0,b,4.23893239999961,1,0,1,1,3D,1D,D31,4.00733318523247,0.999999995892024,0.965011837328212,0.5,0.5,0.5,0.999999995892024,0.0349881626717877,0.00244834305429495,0.5,0.5,0.999977700037472,0.00244834305429495,0.5,0.0349881626717877,1.19887674230287e-05,0.99999916107011,0.99999996958313,3.04168695786089e-08,0.99999916107011,0.0349881626717877,0.110381751493659,0.795535297644948,8.38929889668272e-07,7.80224658768395e-07,0.5,0.930023674656425,1.08537526244803,0.392732073870328,3.45308829730501,0.5,90.4297337021499
CBC_1030,CBC_1030_MSI_TV_v3_Vset3_Tset1_2023-08-23_15h04.35.874.csv,1,41,0,1,b,1,0,0,tac,A,63,1,0A,1A,1,0,b,2.32349269999941,1,0,1,1,0A,1A,A01,2.41591377830105,0.999999995892024,0.965011837328212,0.5,0.5,0.5,0.999999995892024,0.0349881626717877,0.00244834305429495,0.5,0.5,0.999977700037472,0.00244834305429495,0.5,0.0349881626717877,1.19887674230287e-05,0.999999941294769,0.999999886697528,1.13302471960175e-07,0.999999995892024,0.965011837328212,0.268758566676137,0.795448283318661,4.10797629246673e-09,3.82051520692138e-09,0.5,0.930023674656425,1.08537526244803,0.392732073870328,3.45308829730501,0.5,90.4297337021499
CBC_1030,CBC_1030_MSI_TV_v3_Vset3_Tset1_2023-08-23_15h04.35.874.csv,1,42,1,0,z,0,1,0,tac,A,63,1,1A,0A,0,1,z,3.03826749999917,0,1,1,1,0A,1A,A10,3.3499040872746,0.999999999712539,0.965011837328212,0.5,0.5,0.5,0.999999995892024,0.0349881626717877,0.00244834305429495,0.5,0.5,0.999977700037472,0.00244834305429495,0.5,0.0349881626717877,1.19887674230287e-05,0.999999941294769,0.999999992071509,7.92849059522047e-09,0.999999999712539,0.965011837328212,0.19832153007195,0.795941828729935,2.87461054959692e-10,2.67345586654226e-10,0.5,0.930023674656425,1.08537526244803,0.392732073870328,3.45308829730501,0.5,90.4297337021499
CBC_1030,CBC_1030_MSI_TV_v3_Vset3_Tset1_2023-08-23_15h04.35.874.csv,1,43,0,2,z,0,1,2,tac,C,27,1,0C,2C,0,1,z,2.25521599999956,0,1,1,1,2C,0C,C02,2.96183072187831,0.999999999979885,0.965011837328212,0.5,0.5,0.5,0.999999995892024,0.0349881626717877,0.00244834305429495,0.5,0.5,0.999977700037472,0.00244834305429495,0.5,0.0349881626717877,1.19887674230287e-05,0.999999941294769,0.999977700037472,2.22999625277831e-05,0.999977700037472,0.5,0.274056553482321,0.795150635562553,2.22999625277831e-05,2.07394930947894e-05,0.5,0.930023674656425,1.08537526244803,0.392732073870328,3.45308829730501,0.5,90.4297337021499
CBC_1030,CBC_1030_MSI_TV_v3_Vset3_Tset1_2023-08-23_15h04.35.874.csv,1,44,1,0,b,1,0,3,tac,B,63,1,1B,0B,1,0,b,3.51958119999927,1,0,1,1,1B,0B,B10,2.46809953147162,0.999999999979885,0.965011837328212,0.5,0.5,0.5,0.999999995892024,0.0349881626717877,0.00244834305429495,0.5,0.5,0.999998439530567,0.00244834305429495,0.5,0.0349881626717877,1.19887674230287e-05,0.999999941294769,0.999999995892024,4.10797629246673e-09,0.999999995892024,0.5,0.156938825997261,0.795084082875985,4.10797629246673e-09,3.82051520692138e-09,0.5,0.930023674656425,1.08537526244803,0.392732073870328,3.45308829730501,0.5,90.4297337021499
CBC_1030,CBC_1030_MSI_AV_v3_Vset6_Aset3_2023-08-23_15h13.18.002.csv,2,1,0,1,z,0,1,3,aud,B,63,1,0B,1B,0,1,z,3.57081709999966,0,1,1,1,1B,0B,B01,2.77258872223978,0.5,0.5,0.5,0.5,0.5,0.5,0.5,0.5,0.5,0.5,0.5,0.5,0.5,0.5,0.5,0.5,0.5,0.5,0.5,0.5,0.068820884902461,0.500084984135393,0.5,0.142972117524269,0.5,0.285944235048538,1.08439169476003,0.77643483624408,2.46813522928973,0.5,67.7241634680404
CBC_1030,CBC_1030_MSI_AV_v3_Vset6_Aset3_2023-08-23_15h13.18.002.csv,2,2,0,1,b,1,0,0,aud,A,63,1,0A,1A,1,0,b,2.90535200000068,1,0,1,1,0A,1A,A01,2.83321334405622,0.5,0.5,0.5,0.5,0.5,0.642972117524269,0.5,0.5,0.5,0.5,0.5,0.5,0.5,0.5,0.5,0.5,0.5,0.5,0.5,0.5,0.118010671693274,0.500187580428448,0.5,0.142972117524269,0.5,0.285944235048538,1.08439169476003,0.77643483624408,2.46813522928973,0.5,67.7241634680404
CBC_1030,CBC_1030_MSI_AV_v3_Vset6_Aset3_2023-08-23_15h13.18.002.csv,2,3,2,3,z,0,1,1,aud,D,63,1,2D,3D,0,1,z,4.19915309999942,0,1,1,1,3D,2D,D23,2.89037175789616,0.642972117524269,0.5,0.5,0.5,0.5,0.642972117524269,0.5,0.5,0.5,0.5,0.5,0.5,0.5,0.5,0.5,0.5,0.5,0.5,0.5,0.5,0.0413750502960476,0.500173802372375,0.5,0.142972117524269,0.5,0.285944235048538,1.08439169476003,0.77643483624408,2.46813522928973,0.5,67.7241634680404
CBC_1030,CBC_1030_MSI_AV_v3_Vset6_Aset3_2023-08-23_15h13.18.002.csv,2,4,2,1,z,0,1,3,aud,B,9,1,2B,1B,0,1,z,3.15123990000029,0,1,1,1,1B,2B,B21,2.94443897916644,0.642972117524269,0.5,0.5,0.5,0.5,0.642972117524269,0.5,0.5,0.5,0.5,0.5,0.5,0.5,0.5,0.5,0.642972117524269,0.642972117524269,0.357027882475731,0.642972117524269,0.5,0.12088566156744,0.634087841569811,0.357027882475731,0.102090064745522,0.5,0.285944235048538,1.08439169476003,0.77643483624408,2.46813522928973,0.5,67.7241634680404
CBC_1030,CBC_1030_MSI_AV_v3_Vset6_Aset3_2023-08-23_15h13.18.002.csv,2,5,0,2,b,1,0,0,aud,A,27,1,0A,2A,1,0,b,2.82154639999953,1,0,1,1,0A,2A,A02,2.99573227355399,0.642972117524269,0.5,0.5,0.5,0.5,0.745062182269791,0.5,0.5,0.5,0.5,0.5,0.5,0.5,0.5,0.5,0.642972117524269,0.642972117524269,0.357027882475731,0.642972117524269,0.5,0.159093848071714,0.63369791154876,0.357027882475731,0.102090064745522,0.5,0.285944235048538,1.08439169476003,0.77643483624408,2.46813522928973,0.5,67.7241634680404
CBC_1030,CBC_1030_MSI_AV_v3_Vset6_Aset3_2023-08-23_15h13.18.002.csv,2,6,2,3,b,1,0,2,aud,C,63,1,2C,3C,1,0,b,2.56850959999974,1,0,1,1,2C,3C,C23,3.04452243772342,0.745062182269791,0.5,0.5,0.5,0.5,0.745062182269791,0.5,0.5,0.5,0.5,0.5,0.5,0.5,0.5,0.5,0.642972117524269,0.5,0.5,0.5,0.5,0.154769284992006,0.499420749740739,0.5,0.142972117524269,0.5,0.285944235048538,1.08439169476003,0.77643483624408,2.46813522928973,0.5,67.7241634680404
CBC_1030,CBC_1030_MSI_AV_v3_Vset6_Aset3_2023-08-23_15h13.18.002.csv,2,7,1,3,z,0,1,1,aud,D,27,1,1D,3D,0,1,z,2.63923350000005,0,1,1,1,3D,1D,D13,3.09104245335832,0.745062182269791,0.5,0.5,0.5,0.5,0.745062182269791,0.5,0.5,0.5,0.5,0.642972117524269,0.5,0.5,0.5,0.5,0.642972117524269,0.642972117524269,0.357027882475731,0.642972117524269,0.5,0.185168062617523,0.633486553506096,0.357027882475731,0.102090064745522,0.5,0.285944235048538,1.08439169476003,0.77643483624408,2.46813522928973,0.5,67.7241634680404
CBC_1030,CBC_1030_MSI_AV_v3_Vset6_Aset3_2023-08-23_15h13.18.002.csv,2,8,1,0,z,0,1,0,aud,A,63,1,1A,0A,0,1,b,3.15233340000032,1,0,0,0,1A,0A,A10,3.13549421592915,0.745062182269791,0.5,0.5,0.5,0.5,0.745062182269791,0.5,0.5,0.5,0.5,0.642972117524269,0.5,0.5,0.5,0.5,0.745062182269791,0.254937817730209,0.745062182269791,0.5,0.745062182269791,0.0519082093513562,0.280681709866622,-0.5,-0.142972117524269,0.5,0.285944235048538,1.08439169476003,0.77643483624408,2.46813522928973,0.5,67.7241634680404
CBC_1030,CBC_1030_MSI_AV_v3_Vset6_Aset3_2023-08-23_15h13.18.002.csv,2,9,2,0,b,1,0,2,aud,C,27,1,2C,0C,1,0,b,3.54034969999975,1,0,1,1,2C,0C,C20,3.17805383034795,0.745062182269791,0.357027882475731,0.5,0.5,0.5,0.745062182269791,0.5,0.5,0.5,0.5,0.642972117524269,0.5,0.5,0.5,0.5,0.745062182269791,0.642972117524269,0.357027882475731,0.642972117524269,0.5,0.0873331102677993,0.633877199587726,0.357027882475731,0.102090064745522,0.5,0.285944235048538,1.08439169476003,0.77643483624408,2.46813522928973,0.5,67.7241634680404
CBC_1030,CBC_1030_MSI_AV_v3_Vset6_Aset3_2023-08-23_15h13.18.002.csv,2,10,2,3,z,0,1,1,aud,D,63,1,2D,3D,0,1,z,2.56369679999989,0,1,1,1,3D,2D,D23,2.52572864430826,0.745062182269791,0.357027882475731,0.5,0.5,0.5,0.745062182269791,0.5,0.5,0.5,0.5,0.745062182269791,0.5,0.5,0.5,0.5,0.745062182269791,0.745062182269791,0.254937817730209,0.745062182269791,0.5,0.223537050359976,0.719007972517232,0.254937817730209,0.0728979992758082,0.5,0.285944235048538,1.08439169476003,0.77643483624408,2.46813522928973,0.5,67.7241634680404
CBC_1030,CBC_1030_MSI_AV_v3_Vset6_Aset3_2023-08-23_15h13.18.002.csv,2,11,1,0,b,1,0,3,aud,B,63,1,1B,0B,1,0,b,3.40481339999951,1,0,1,1,1B,0B,B10,3.25809653802148,0.745062182269791,0.357027882475731,0.5,0.5,0.5,0.745062182269791,0.5,0.5,0.5,0.5,0.745062182269791,0.5,0.5,0.5,0.5,0.817960181545599,0.745062182269791,0.254937817730209,0.745062182269791,0.5,0.106447194671824,0.71927547187712,0.254937817730209,0.0728979992758082,0.5,0.285944235048538,1.08439169476003,0.77643483624408,2.46813522928973,0.5,67.7241634680404
CBC_1030,CBC_1030_MSI_AV_v3_Vset6_Aset3_2023-08-23_15h13.18.002.csv,2,12,0,1,b,1,0,0,aud,A,63,1,0A,1A,1,0,z,2.74725699999999,0,1,0,0,1A,0A,A01,2.60268968544438,0.745062182269791,0.357027882475731,0.5,0.5,0.5,0.817960181545599,0.5,0.5,0.5,0.5,0.745062182269791,0.5,0.5,0.5,0.5,0.817960181545599,0.159663289936503,0.840336710063497,0.357027882475731,0.745062182269791,0.0554855312136493,0.213841169624746,-0.357027882475731,-0.102090064745522,0.5,0.285944235048538,1.08439169476003,0.77643483624408,2.46813522928973,0.5,67.7241634680404
CBC_1030,CBC_1030_MSI_AV_v3_Vset6_Aset3_2023-08-23_15h13.18.002.csv,2,13,2,3,z,0,1,1,aud,D,63,1,2D,3D,0,1,z,2.37779729999966,0,1,1,1,3D,2D,D23,2.23359222150709,0.745062182269791,0.254937817730209,0.5,0.5,0.5,0.817960181545599,0.5,0.5,0.5,0.5,0.745062182269791,0.5,0.5,0.5,0.5,0.817960181545599,0.817960181545599,0.182039818454401,0.817960181545599,0.5,0.284051275932457,0.772110721295517,0.182039818454401,0.0520532366363183,0.5,0.285944235048538,1.08439169476003,0.77643483624408,2.46813522928973,0.5,67.7241634680404
CBC_1030,CBC_1030_MSI_AV_v3_Vset6_Aset3_2023-08-23_15h13.18.002.csv,2,14,2,0,b,1,0,2,aud,C,27,1,2C,0C,1,0,b,2.21796530000029,1,0,1,1,2C,0C,C20,2.67414864942653,0.745062182269791,0.254937817730209,0.5,0.5,0.5,0.817960181545599,0.5,0.5,0.5,0.5,0.745062182269791,0.5,0.5,0.5,0.5,0.870013418181918,0.745062182269791,0.254937817730209,0.745062182269791,0.5,0.302659146904532,0.718783193535377,0.254937817730209,0.0728979992758082,0.5,0.285944235048538,1.08439169476003,0.77643483624408,2.46813522928973,0.5,67.7241634680404
CBC_1030,CBC_1030_MSI_AV_v3_Vset6_Aset3_2023-08-23_15h13.18.002.csv,2,15,0,1,b,1,0,0,aud,A,63,1,0A,1A,1,0,z,1.35207600000012,0,1,0,0,1A,0A,A01,2.30258509299405,0.745062182269791,0.254937817730209,0.5,0.5,0.5,0.817960181545599,0.5,0.5,0.5,0.5,0.817960181545599,0.5,0.5,0.5,0.5,0.870013418181918,0.104809133415224,0.895190866584776,0.254937817730209,0.745062182269791,0.0921986061175535,0.180315296945019,-0.254937817730209,-0.0728979992758081,0.5,0.285944235048538,1.08439169476003,0.77643483624408,2.46813522928973,0.5,67.7241634680404
CBC_1030,CBC_1030_MSI_AV_v3_Vset6_Aset3_2023-08-23_15h13.18.002.csv,2,16,1,3,b,1,0,3,aud,B,27,1,1B,3B,1,0,b,1.90645200000017,1,0,1,1,1B,3B,B13,3.43398720448515,0.745062182269791,0.182039818454401,0.5,0.5,0.5,0.817960181545599,0.5,0.5,0.5,0.5,0.817960181545599,0.5,0.5,0.5,0.5,0.870013418181918,0.817960181545599,0.182039818454401,0.817960181545599,0.5,0.434274103134818,0.771622751542749,0.182039818454401,0.0520532366363183,0.5,0.285944235048538,1.08439169476003,0.77643483624408,2.46813522928973,0.5,67.7241634680404
CBC_1030,CBC_1030_MSI_AV_v3_Vset6_Aset3_2023-08-23_15h13.18.002.csv,2,17,3,2,z,0,1,2,aud,C,63,1,3C,2C,0,1,z,1.7627007000001,0,1,1,1,2C,3C,C32,3.46573590279973,0.745062182269791,0.182039818454401,0.5,0.5,0.5,0.870013418181918,0.5,0.5,0.5,0.5,0.817960181545599,0.5,0.5,0.5,0.5,0.870013418181918,0.817960181545599,0.182039818454401,0.817960181545599,0.5,0.485510721857889,0.771905179232489,0.182039818454401,0.0520532366363183,0.5,0.285944235048538,1.08439169476003,0.77643483624408,2.46813522928973,0.5,67.7241634680404
CBC_1030,CBC_1030_MSI_AV_v3_Vset6_Aset3_2023-08-23_15h13.18.002.csv,2,18,2,3,z,0,1,1,aud,D,63,0,2D,3D,1,0,z,1.34483790000013,0,1,1,0,3D,2D,D23,2.11021320034659,0.745062182269791,0.182039818454401,0.5,0.5,0.5,0.870013418181918,0.5,0.5,0.5,0.5,0.870013418181918,0.5,0.5,0.5,0.5,0.870013418181918,0.870013418181918,0.129986581818082,0.870013418181918,0.5,0.387478192175195,0.805079185678589,-0.870013418181918,-0.248775321343992,0.5,0.285944235048538,1.08439169476003,0.77643483624408,2.46813522928973,0.5,67.7241634680404
CBC_1030,CBC_1030_MSI_AV_v3_Vset6_Aset3_2023-08-23_15h13.18.002.csv,2,19,1,0,b,1,0,3,aud,B,63,1,1B,0B,1,0,b,3.81663939999999,1,0,1,1,1B,0B,B10,2.83321334405622,0.745062182269791,0.182039818454401,0.5,0.5,0.5,0.870013418181918,0.5,0.5,0.5,0.5,0.870013418181918,0.5,0.5,0.5,0.5,0.621238096837926,0.870013418181918,0.129986581818082,0.870013418181918,0.5,0.0729645129994659,0.80537113922889,0.129986581818082,0.0371689137045458,0.5,0.285944235048538,1.08439169476003,0.77643483624408,2.46813522928973,0.5,67.7241634680404
CBC_1030,CBC_1030_MSI_AV_v3_Vset6_Aset3_2023-08-23_15h13.18.002.csv,2,20,2,0,z,0,1,0,aud,A,27,1,2A,0A,0,1,b,1.90802429999985,1,0,0,0,2A,0A,A20,3.55534806148941,0.745062182269791,0.182039818454401,0.5,0.5,0.5,0.907182331886463,0.5,0.5,0.5,0.5,0.870013418181918,0.5,0.5,0.5,0.5,0.621238096837926,0.254937817730209,0.745062182269791,0.5,0.745062182269791,0.153330819608292,0.280421313837231,-0.5,-0.142972117524269,0.5,0.285944235048538,1.08439169476003,0.77643483624408,2.46813522928973,0.5,67.7241634680404
CBC_1030,CBC_1030_MSI_AV_v3_Vset6_Aset3_2023-08-23_15h13.18.002.csv,2,21,0,3,z,0,1,1,aud,D,9,1,0D,3D,0,1,z,1.3165199999994,0,1,1,1,3D,0D,D03,3.58351893845611,0.745062182269791,0.182039818454401,0.357027882475731,0.5,0.5,0.907182331886463,0.5,0.5,0.5,0.5,0.870013418181918,0.5,0.5,0.5,0.5,0.621238096837926,0.621238096837926,0.378761903162074,0.621238096837926,0.5,0.20817657176484,0.61445685468517,0.378761903162074,0.108304782665208,0.5,0.285944235048538,1.08439169476003,0.77643483624408,2.46813522928973,0.5,67.7241634680404
CBC_1030,CBC_1030_MSI_AV_v3_Vset6_Aset3_2023-08-23_15h13.18.002.csv,2,22,2,3,b,1,0,2,aud,C,63,1,2C,3C,1,0,b,1.73865409999962,1,0,1,1,2C,3C,C23,2.91777073208428,0.745062182269791,0.182039818454401,0.357027882475731,0.5,0.5,0.907182331886463,0.5,0.5,0.5,0.5,0.870013418181918,0.5,0.5,0.5,0.5,0.729542879503133,0.870013418181918,0.129986581818082,0.870013418181918,0.5,0.529323556934511,0.804660758369755,0.129986581818082,0.0371689137045458,0.5,0.285944235048538,1.08439169476003,0.77643483624408,2.46813522928973,0.5,67.7241634680404
CBC_1030,CBC_1030_MSI_AV_v3_Vset6_Aset3_2023-08-23_15h13.18.002.csv,2,23,3,1,z,0,1,3,aud,B,27,1,3B,1B,0,1,z,2.13869630000045,0,1,1,1,1B,3B,B31,3.63758615972639,0.745062182269791,0.182039818454401,0.357027882475731,0.5,0.5,0.907182331886463,0.5,0.5,0.5,0.5,0.907182331886463,0.5,0.5,0.5,0.5,0.729542879503133,0.907182331886463,0.0928176681135366,0.907182331886463,0.5,0.386867671211783,0.826625460516856,0.0928176681135366,0.0265406771077143,0.5,0.285944235048538,1.08439169476003,0.77643483624408,2.46813522928973,0.5,67.7241634680404
CBC_1030,CBC_1030_MSI_AV_v3_Vset6_Aset3_2023-08-23_15h13.18.002.csv,2,24,3,2,z,0,1,2,aud,C,63,1,3C,2C,0,1,z,1.69232639999973,0,1,1,1,2C,3C,C32,2.9704144655697,0.745062182269791,0.182039818454401,0.357027882475731,0.5,0.5,0.933723008994178,0.5,0.5,0.5,0.5,0.907182331886463,0.5,0.5,0.5,0.5,0.729542879503133,0.907182331886463,0.0928176681135366,0.907182331886463,0.5,0.572819723235805,0.825941382610865,0.0928176681135366,0.0265406771077143,0.5,0.285944235048538,1.08439169476003,0.77643483624408,2.46813522928973,0.5,67.7241634680404
CBC_1030,CBC_1030_MSI_AV_v3_Vset6_Aset3_2023-08-23_15h13.18.002.csv,2,25,2,3,z,0,1,1,aud,D,63,1,2D,3D,NaN,NaN,[],NaN,NaN,NaN,NaN,NaN,,,D23,2.07944154167984,0.745062182269791,0.182039818454401,0.357027882475731,0.5,0.5,0.933723008994178,0.5,0.5,0.5,0.5,0.933723008994178,0.5,0.5,0.5,0.5,0.729542879503133,0,0,0,0,NaN,0,0,0,0.5,0.285944235048538,1.08439169476003,0.77643483624408,2.46813522928973,0.5,67.7241634680404
CBC_1030,CBC_1030_MSI_AV_v3_Vset6_Aset3_2023-08-23_15h13.18.002.csv,2,26,1,0,b,1,0,3,aud,B,63,1,1B,0B,1,0,b,2.05809119999958,1,0,1,1,1B,0B,B10,2.6149597780362,0.745062182269791,0.182039818454401,0.357027882475731,0.5,0.5,0.933723008994178,0.5,0.5,0.5,0.5,0.933723008994178,0.5,0.5,0.5,0.5,0.729542879503133,0.933723008994178,0.0662769910058223,0.933723008994178,0.5,0.429464563848203,0.841071740465001,0.0662769910058223,0.0189515234944787,0.5,0.285944235048538,1.08439169476003,0.77643483624408,2.46813522928973,0.5,67.7241634680404
CBC_1030,CBC_1030_MSI_AV_v3_Vset6_Aset3_2023-08-23_15h13.18.002.csv,2,27,0,3,b,1,0,0,aud,A,9,1,0A,3A,1,0,b,1.72294079999938,1,0,1,1,0A,3A,A03,3.73766961828337,0.745062182269791,0.182039818454401,0.357027882475731,0.5,0.5,0.952674532488656,0.5,0.5,0.5,0.5,0.933723008994178,0.5,0.5,0.5,0.5,0.729542879503133,0.745062182269791,0.254937817730209,0.745062182269791,0.5,0.446810103182407,0.718686823201509,0.254937817730209,0.0728979992758082,0.5,0.285944235048538,1.08439169476003,0.77643483624408,2.46813522928973,0.5,67.7241634680404
CBC_1030,CBC_1030_MSI_AV_v3_Vset6_Aset3_2023-08-23_15h13.18.002.csv,2,28,2,3,z,0,1,1,aud,D,63,1,2D,3D,0,1,z,1.38513059999968,0,1,1,1,3D,2D,D23,1.96944064646551,0.817960181545599,0.182039818454401,0.357027882475731,0.5,0.5,0.952674532488656,0.5,0.5,0.5,0.5,0.933723008994178,0.5,0.5,0.5,0.5,0.729542879503133,0.729542879503133,0.270457120496867,0.729542879503133,0.5,0.36121243660052,0.706435692843339,0.270457120496867,0.0773356544339068,0.5,0.285944235048538,1.08439169476003,0.77643483624408,2.46813522928973,0.5,67.7241634680404
CBC_1030,CBC_1030_MSI_AV_v3_Vset6_Aset3_2023-08-23_15h13.18.002.csv,2,29,2,0,b,1,0,2,aud,C,27,1,2C,0C,1,0,b,1.93444400000044,1,0,1,1,2C,0C,C20,2.68557734525015,0.817960181545599,0.182039818454401,0.357027882475731,0.5,0.5,0.952674532488656,0.5,0.5,0.5,0.5,0.933723008994178,0.5,0.5,0.5,0.5,0.80687853393704,0.933723008994178,0.0662769910058223,0.933723008994178,0.5,0.484271081588322,0.84033287205396,0.0662769910058223,0.0189515234944787,0.5,0.285944235048538,1.08439169476003,0.77643483624408,2.46813522928973,0.5,67.7241634680404
CBC_1030,CBC_1030_MSI_AV_v3_Vset6_Aset3_2023-08-23_15h13.18.002.csv,2,30,1,0,z,0,1,0,aud,A,63,1,1A,0A,0,1,z,2.62728990000051,0,1,1,1,0A,1A,A10,3.11351530921037,0.817960181545599,0.182039818454401,0.357027882475731,0.5,0.5,0.952674532488656,0.5,0.5,0.5,0.5,0.952674532488656,0.5,0.5,0.5,0.5,0.80687853393704,0.952807433252828,0.0471925667471719,0.817960181545599,0.182039818454401,0.240324613571169,0.850396403960075,0.182039818454401,0.0520532366363183,0.5,0.285944235048538,1.08439169476003,0.77643483624408,2.46813522928973,0.5,67.7241634680404
CBC_1030,CBC_1030_MSI_AV_v3_Vset6_Aset3_2023-08-23_15h13.18.002.csv,2,31,1,0,b,1,0,3,aud,B,63,1,1B,0B,1,0,b,2.13929090000056,1,0,1,1,1B,0B,B10,2.4423470353692,0.870013418181918,0.182039818454401,0.357027882475731,0.5,0.5,0.952674532488656,0.5,0.5,0.5,0.5,0.952674532488656,0.5,0.5,0.5,0.5,0.80687853393704,0.952674532488656,0.0473254675113436,0.952674532488656,0.5,0.400977930325808,0.849587835926218,0.0473254675113436,0.0135324446058456,0.5,0.285944235048538,1.08439169476003,0.77643483624408,2.46813522928973,0.5,67.7241634680404
CBC_1030,CBC_1030_MSI_AV_v3_Vset6_Aset3_2023-08-23_15h13.18.002.csv,2,32,3,1,b,1,0,1,aud,D,27,1,3D,1D,1,0,b,1.77224209999986,1,0,1,1,3D,1D,D31,3.85014760171006,0.870013418181918,0.182039818454401,0.357027882475731,0.5,0.5,0.966206977094502,0.5,0.5,0.5,0.5,0.952674532488656,0.5,0.5,0.5,0.5,0.80687853393704,0.80687853393704,0.19312146606296,0.80687853393704,0.5,0.475499130885046,0.764953996270486,0.19312146606296,0.0552219698848253,0.5,0.285944235048538,1.08439169476003,0.77643483624408,2.46813522928973,0.5,67.7241634680404
CBC_1030,CBC_1030_MSI_AV_v3_Vset6_Aset3_2023-08-23_15h13.18.002.csv,2,33,3,2,z,0,1,2,aud,C,63,1,3C,2C,0,1,z,1.54088709999996,0,1,1,1,2C,3C,C32,2.77258872223978,0.870013418181918,0.182039818454401,0.357027882475731,0.5,0.5,0.966206977094502,0.5,0.5,0.5,0.5,0.952674532488656,0.5,0.5,0.5,0.5,0.862100503821865,0.952674532488656,0.0473254675113436,0.952674532488656,0.5,0.639893666512777,0.849795085200849,0.0473254675113436,0.0135324446058456,0.5,0.285944235048538,1.08439169476003,0.77643483624408,2.46813522928973,0.5,67.7241634680404
CBC_1030,CBC_1030_MSI_AV_v3_Vset6_Aset3_2023-08-23_15h13.18.002.csv,2,34,1,0,b,1,0,3,aud,B,63,1,1B,0B,1,0,b,2.08089500000006,1,0,1,1,1B,0B,B10,2.28238238567653,0.870013418181918,0.182039818454401,0.357027882475731,0.5,0.5,0.966206977094502,0.5,0.5,0.5,0.5,0.966206977094502,0.5,0.5,0.5,0.5,0.862100503821865,0.966206977094502,0.033793022905498,0.966206977094502,0.5,0.430842696907802,0.856467452413006,0.033793022905498,0.00966292008469035,0.5,0.285944235048538,1.08439169476003,0.77643483624408,2.46813522928973,0.5,67.7241634680404
CBC_1030,CBC_1030_MSI_AV_v3_Vset6_Aset3_2023-08-23_15h13.18.002.csv,2,35,0,1,b,1,0,0,aud,A,63,1,0A,1A,1,0,z,2.03564200000073,0,1,0,0,1A,0A,A01,2.52572864430826,0.870013418181918,0.182039818454401,0.357027882475731,0.5,0.5,0.975869897179192,0.5,0.5,0.5,0.5,0.966206977094502,0.5,0.5,0.5,0.5,0.862100503821865,0.0321811012824053,0.967818898717595,0.182039818454401,0.870013418181918,0.0753237909449587,0.142809968983396,-0.182039818454401,-0.0520532366363183,0.5,0.285944235048538,1.08439169476003,0.77643483624408,2.46813522928973,0.5,67.7241634680404
CBC_1030,CBC_1030_MSI_AV_v3_Vset6_Aset3_2023-08-23_15h13.18.002.csv,2,36,1,2,z,0,1,2,aud,C,9,1,1C,2C,0,1,b,2.02647440000055,1,0,0,0,1C,2C,C12,3.93182563272433,0.870013418181918,0.129986581818082,0.357027882475731,0.5,0.5,0.975869897179192,0.5,0.5,0.5,0.5,0.966206977094502,0.5,0.5,0.5,0.5,0.862100503821865,0.033793022905498,0.966206977094502,0.5,0.966206977094502,0.0762074736487631,0.143158336244192,-0.5,-0.142972117524269,0.5,0.285944235048538,1.08439169476003,0.77643483624408,2.46813522928973,0.5,67.7241634680404
CBC_1030,CBC_1030_MSI_AV_v3_Vset6_Aset3_2023-08-23_15h13.18.002.csv,2,37,1,0,z,0,1,0,aud,A,63,1,1A,0A,0,1,b,2.62332409999999,1,0,0,0,1A,0A,A10,2.85263142991332,0.870013418181918,0.129986581818082,0.357027882475731,0.5,0.5,0.975869897179192,0.5,0.5,0.5,0.357027882475731,0.966206977094502,0.5,0.5,0.5,0.5,0.862100503821865,0.0218352000796455,0.978164799920354,0.129986581818082,0.870013418181918,0.0387191616620503,0.137694545605587,-0.129986581818082,-0.0371689137045458,0.5,0.285944235048538,1.08439169476003,0.77643483624408,2.46813522928973,0.5,67.7241634680404
CBC_1030,CBC_1030_MSI_AV_v3_Vset6_Aset3_2023-08-23_15h13.18.002.csv,2,38,3,1,b,1,0,1,aud,D,27,1,3D,1D,1,0,b,2.05309169999964,1,0,1,1,3D,1D,D31,3.27714473299218,0.870013418181918,0.0928176681135367,0.357027882475731,0.5,0.5,0.975869897179192,0.5,0.5,0.5,0.357027882475731,0.966206977094502,0.5,0.5,0.5,0.5,0.862100503821865,0.862100503821865,0.137899496178135,0.862100503821865,0.5,0.40175412331429,0.800181233414273,0.137899496178135,0.0394315659482355,0.5,0.285944235048538,1.08439169476003,0.77643483624408,2.46813522928973,0.5,67.7241634680404
CBC_1030,CBC_1030_MSI_AV_v3_Vset6_Aset3_2023-08-23_15h13.18.002.csv,2,39,0,1,z,0,1,3,aud,B,63,1,0B,1B,0,1,z,2.34915910000018,0,1,1,1,1B,0B,B01,3.29583686600433,0.870013418181918,0.0928176681135367,0.357027882475731,0.5,0.5,0.975869897179192,0.5,0.5,0.5,0.357027882475731,0.966206977094502,0.5,0.5,0.5,0.5,0.901532069770101,0.975869897179192,0.0241301028208076,0.975869897179192,0.5,0.325926594564613,0.860935211516242,0.0241301028208076,0.0068998637927384,0.5,0.285944235048538,1.08439169476003,0.77643483624408,2.46813522928973,0.5,67.7241634680404
CBC_1030,CBC_1030_MSI_AV_v3_Vset6_Aset3_2023-08-23_15h13.18.002.csv,2,40,2,3,b,1,0,2,aud,C,63,0,2C,3C,0,1,b,2.66689700000006,1,0,1,0,2C,3C,C23,2.90872089656436,0.870013418181918,0.0928176681135367,0.357027882475731,0.5,0.5,0.982769760971931,0.5,0.5,0.5,0.357027882475731,0.966206977094502,0.5,0.5,0.5,0.5,0.901532069770101,0.966206977094502,0.033793022905498,0.966206977094502,0.5,0.230966951219176,0.856823503742582,-0.966206977094502,-0.276281314963848,0.5,0.285944235048538,1.08439169476003,0.77643483624408,2.46813522928973,0.5,67.7241634680404
CBC_1030,CBC_1030_MSI_AV_v3_Vset6_Aset3_2023-08-23_15h13.18.002.csv,2,41,2,0,z,0,1,0,aud,A,27,1,2A,0A,0,1,b,2.38613139999961,1,0,0,0,2A,0A,A20,3.3322045101752,0.870013418181918,0.0928176681135367,0.357027882475731,0.5,0.5,0.982769760971931,0.5,0.5,0.5,0.357027882475731,0.689925662130654,0.5,0.5,0.5,0.5,0.901532069770101,0.0766071122835772,0.923392887716423,0.357027882475731,0.870013418181918,0.0602444439675974,0.164949211156763,-0.357027882475731,-0.102090064745522,0.5,0.285944235048538,1.08439169476003,0.77643483624408,2.46813522928973,0.5,67.7241634680404
CBC_1030,CBC_1030_MSI_AV_v3_Vset6_Aset3_2023-08-23_15h13.18.002.csv,2,42,3,2,b,1,0,1,aud,D,63,1,3D,2D,1,0,b,5.42694920000031,1,0,1,1,3D,2D,D32,4.04305126783455,0.870013418181918,0.0928176681135367,0.254937817730209,0.5,0.5,0.982769760971931,0.5,0.5,0.5,0.357027882475731,0.689925662130654,0.5,0.5,0.5,0.5,0.901532069770101,0.901532069770101,0.0984679302298993,0.901532069770101,0.5,0.0141835751191018,0.823539540973043,0.0984679302298993,0.0281563369864014,0.5,0.285944235048538,1.08439169476003,0.77643483624408,2.46813522928973,0.5,67.7241634680404
CBC_1030,CBC_1030_MSI_AV_v3_Vset6_Aset3_2023-08-23_15h13.18.002.csv,2,43,3,1,z,0,1,3,aud,B,27,1,3B,1B,0,1,z,2.28746349999983,0,1,1,1,1B,3B,B31,3.36729582998647,0.870013418181918,0.0928176681135367,0.254937817730209,0.5,0.5,0.982769760971931,0.5,0.5,0.5,0.357027882475731,0.689925662130654,0.5,0.5,0.5,0.5,0.929688406756502,0.982769760971931,0.0172302390280692,0.982769760971931,0.5,0.349590343881554,0.864119494813409,0.0172302390280692,0.00492688751858471,0.5,0.285944235048538,1.08439169476003,0.77643483624408,2.46813522928973,0.5,67.7241634680404
CBC_1030,CBC_1030_MSI_AV_v3_Vset6_Aset3_2023-08-23_15h13.18.002.csv,2,44,2,3,b,1,0,2,aud,C,63,1,2C,3C,1,0,b,2.06176149999919,1,0,1,1,2C,3C,C23,2.69124308278583,0.870013418181918,0.0928176681135367,0.254937817730209,0.5,0.5,0.987696648490516,0.5,0.5,0.5,0.357027882475731,0.689925662130654,0.5,0.5,0.5,0.5,0.929688406756502,0.689925662130654,0.310074337869346,0.689925662130654,0.5,0.320597773459978,0.67450246425206,0.310074337869346,0.0886639693502319,0.5,0.285944235048538,1.08439169476003,0.77643483624408,2.46813522928973,0.5,67.7241634680404
CBC_1030,CBC_1030_MSI_TV_v3_Vset4_Tset3_2023-08-23_15h54.43.458.csv,3,1,1,0,z,0,1,0,tac,A,63,1,1A,0A,0,1,z,2.66768869999942,0,1,1,1,0A,1A,A10,2.77258872223978,0.5,0.5,0.5,0.5,0.5,0.5,0.5,0.5,0.5,0.5,0.5,0.5,0.5,0.5,0.5,0.5,0.5,0.5,0.5,0.5,0.144010064683669,0.500963263713984,0.5,0.299239245411066,0.5,0.598478490822132,1.09993316723972,0.248989399551161,3.17474426369513,0.5,88.7868271904754
CBC_1030,CBC_1030_MSI_TV_v3_Vset4_Tset3_2023-08-23_15h54.43.458.csv,3,2,2,3,b,1,0,2,tac,C,63,1,2C,3C,1,0,z,3.19693619999998,0,1,0,0,3C,2C,C23,2.83321334405622,0.799239245411066,0.5,0.5,0.5,0.5,0.5,0.5,0.5,0.5,0.5,0.5,0.5,0.5,0.5,0.5,0.5,0.5,0.5,0.5,0.5,0.111822842909434,0.501209328262237,-0.5,-0.299239245411066,0.5,0.598478490822132,1.09993316723972,0.248989399551161,3.17474426369513,0.5,88.7868271904754
CBC_1030,CBC_1030_MSI_TV_v3_Vset4_Tset3_2023-08-23_15h54.43.458.csv,3,3,2,0,z,0,1,0,tac,A,27,1,2A,0A,0,1,z,3.68225439999878,0,1,1,1,0A,2A,A20,2.89037175789616,0.799239245411066,0.5,0.5,0.5,0.5,0.5,0.5,0.5,0.5,0.5,0.5,0.200760754588934,0.5,0.5,0.5,0.5,0.799239245411066,0.200760754588934,0.799239245411066,0.5,0.10825461227603,0.615515124066817,0.200760754588934,0.120150993422698,0.5,0.598478490822132,1.09993316723972,0.248989399551161,3.17474426369513,0.5,88.7868271904754
CBC_1030,CBC_1030_MSI_TV_v3_Vset4_Tset3_2023-08-23_15h54.43.458.csv,3,4,0,1,z,0,1,3,tac,B,63,1,0B,1B,0,1,z,2.73428719999902,0,1,1,1,1B,0B,B01,2.94443897916644,0.919390238833764,0.5,0.5,0.5,0.5,0.5,0.5,0.5,0.5,0.5,0.5,0.200760754588934,0.5,0.5,0.5,0.5,0.5,0.5,0.5,0.5,0.139396155505421,0.50023891376155,0.5,0.299239245411066,0.5,0.598478490822132,1.09993316723972,0.248989399551161,3.17474426369513,0.5,88.7868271904754
CBC_1030,CBC_1030_MSI_TV_v3_Vset4_Tset3_2023-08-23_15h54.43.458.csv,3,5,1,0,b,1,0,3,tac,B,63,1,1B,0B,NaN,NaN,None,NaN,NaN,NaN,NaN,NaN,,,B10,2.99573227355399,0.919390238833764,0.5,0.5,0.5,0.5,0.799239245411066,0.5,0.5,0.5,0.5,0.5,0.200760754588934,0.5,0.5,0.5,0.5,0,0,0,0,NaN,0,0,0,0.5,0.598478490822132,1.09993316723972,0.248989399551161,3.17474426369513,0.5,88.7868271904754
CBC_1030,CBC_1030_MSI_TV_v3_Vset4_Tset3_2023-08-23_15h54.43.458.csv,3,6,2,3,b,1,0,2,tac,C,63,1,2C,3C,1,0,b,2.44490620000033,1,0,1,1,2C,3C,C23,2.35137525716348,0.919390238833764,0.5,0.5,0.5,0.5,0.799239245411066,0.5,0.5,0.5,0.5,0.5,0.200760754588934,0.5,0.5,0.5,0.5,0.799239245411066,0.200760754588934,0.5,0.200760754588934,0.198065693363448,0.615601183062893,0.5,0.299239245411066,0.5,0.598478490822132,1.09993316723972,0.248989399551161,3.17474426369513,0.5,88.7868271904754
CBC_1030,CBC_1030_MSI_TV_v3_Vset4_Tset3_2023-08-23_15h54.43.458.csv,3,7,1,3,z,0,1,1,tac,D,27,1,1D,3D,0,1,z,3.44500729999891,0,1,1,1,3D,1D,D13,3.09104245335832,0.919390238833764,0.5,0.5,0.5,0.5,0.799239245411066,0.5,0.5,0.5,0.5,0.799239245411066,0.200760754588934,0.5,0.5,0.5,0.5,0.5,0.5,0.5,0.5,0.0988710990036696,0.500135296990204,0.5,0.299239245411066,0.5,0.598478490822132,1.09993316723972,0.248989399551161,3.17474426369513,0.5,88.7868271904754
CBC_1030,CBC_1030_MSI_TV_v3_Vset4_Tset3_2023-08-23_15h54.43.458.csv,3,8,2,1,b,1,0,2,tac,C,9,1,2C,1C,1,0,b,2.89321449999807,1,0,1,1,2C,1C,C21,3.13549421592915,0.919390238833764,0.5,0.5,0.5,0.5,0.799239245411066,0.5,0.5,0.5,0.5,0.799239245411066,0.200760754588934,0.5,0.5,0.5,0.799239245411066,0.799239245411066,0.200760754588934,0.799239245411066,0.5,0.16071442286817,0.617053920672039,0.200760754588934,0.120150993422698,0.5,0.598478490822132,1.09993316723972,0.248989399551161,3.17474426369513,0.5,88.7868271904754
CBC_1030,CBC_1030_MSI_TV_v3_Vset4_Tset3_2023-08-23_15h54.43.458.csv,3,9,1,3,b,1,0,3,tac,B,27,1,1B,3B,1,0,z,5.12003369999911,0,1,0,0,3B,1B,B13,3.17805383034795,0.919390238833764,0.5,0.5,0.5,0.5,0.799239245411066,0.5,0.5,0.5,0.5,0.919390238833764,0.200760754588934,0.5,0.5,0.5,0.799239245411066,0.200760754588934,0.799239245411066,0.5,0.799239245411066,0.0328036897806985,0.383192572917872,-0.5,-0.299239245411066,0.5,0.598478490822132,1.09993316723972,0.248989399551161,3.17474426369513,0.5,88.7868271904754
CBC_1030,CBC_1030_MSI_TV_v3_Vset4_Tset3_2023-08-23_15h54.43.458.csv,3,10,2,3,z,0,1,1,tac,D,63,1,2D,3D,0,1,z,3.20889949999946,0,1,1,1,3D,2D,D23,3.2188758248682,0.919390238833764,0.5,0.5,0.5,0.5,0.799239245411066,0.5,0.200760754588934,0.5,0.5,0.919390238833764,0.200760754588934,0.5,0.5,0.5,0.799239245411066,0.799239245411066,0.200760754588934,0.799239245411066,0.5,0.137200840939261,0.61590089954676,0.200760754588934,0.120150993422698,0.5,0.598478490822132,1.09993316723972,0.248989399551161,3.17474426369513,0.5,88.7868271904754
CBC_1030,CBC_1030_MSI_TV_v3_Vset4_Tset3_2023-08-23_15h54.43.458.csv,3,11,0,1,z,0,1,3,tac,B,63,1,0B,1B,0,1,z,4.48920019999969,0,1,1,1,1B,0B,B01,2.56494935746154,0.919390238833764,0.5,0.5,0.5,0.5,0.799239245411066,0.5,0.200760754588934,0.5,0.5,0.919390238833764,0.200760754588934,0.5,0.5,0.5,0.919390238833764,0.799239245411066,0.200760754588934,0.799239245411066,0.5,0.0723891819927876,0.616492222820278,0.200760754588934,0.120150993422698,0.5,0.598478490822132,1.09993316723972,0.248989399551161,3.17474426369513,0.5,88.7868271904754
CBC_1030,CBC_1030_MSI_TV_v3_Vset4_Tset3_2023-08-23_15h54.43.458.csv,3,12,2,0,b,1,0,2,tac,C,27,1,2C,0C,1,0,z,2.78980929999852,0,1,0,0,0C,2C,C20,3.29583686600433,0.919390238833764,0.5,0.5,0.5,0.5,0.919390238833764,0.5,0.200760754588934,0.5,0.5,0.919390238833764,0.200760754588934,0.5,0.5,0.5,0.919390238833764,0.0806097611662362,0.919390238833764,0.5,0.919390238833764,0.0936066450169941,0.338898714640711,-0.5,-0.299239245411066,0.5,0.598478490822132,1.09993316723972,0.248989399551161,3.17474426369513,0.5,88.7868271904754
CBC_1030,CBC_1030_MSI_TV_v3_Vset4_Tset3_2023-08-23_15h54.43.458.csv,3,13,2,3,z,0,1,1,tac,D,63,0,2D,3D,1,0,z,3.06049910000002,0,1,1,0,3D,2D,D23,2.63905732961526,0.919390238833764,0.5,0.5,0.5,0.5,0.919390238833764,0.5,0.200760754588934,0.200760754588934,0.5,0.919390238833764,0.200760754588934,0.5,0.5,0.5,0.919390238833764,0.919390238833764,0.0806097611662362,0.919390238833764,0.5,0.158945550445528,0.659382488810424,-0.919390238833764,-0.550235282613831,0.5,0.598478490822132,1.09993316723972,0.248989399551161,3.17474426369513,0.5,88.7868271904754
CBC_1030,CBC_1030_MSI_TV_v3_Vset4_Tset3_2023-08-23_15h54.43.458.csv,3,14,0,1,b,1,0,0,tac,A,63,1,0A,1A,NaN,NaN,None,NaN,NaN,NaN,NaN,NaN,,,A01,3.36729582998647,0.919390238833764,0.5,0.5,0.5,0.5,0.919390238833764,0.5,0.200760754588934,0.200760754588934,0.5,0.919390238833764,0.200760754588934,0.5,0.5,0.5,0.369154956219933,0,0,0,0,NaN,0,0,0,0.5,0.598478490822132,1.09993316723972,0.248989399551161,3.17474426369513,0.5,88.7868271904754
CBC_1030,CBC_1030_MSI_TV_v3_Vset4_Tset3_2023-08-23_15h54.43.458.csv,3,15,3,2,z,0,1,2,tac,C,63,1,3C,2C,0,1,z,2.29179319999821,0,1,1,1,2C,3C,C32,3.40119738166216,0.919390238833764,0.5,0.5,0.5,0.5,0.919390238833764,0.5,0.200760754588934,0.200760754588934,0.5,0.919390238833764,0.200760754588934,0.5,0.5,0.5,0.369154956219933,0.978450916280138,0.0215490837198625,0.919390238833764,0.200760754588934,0.238285075414752,0.68013540569497,0.0806097611662362,0.0482432082083016,0.5,0.598478490822132,1.09993316723972,0.248989399551161,3.17474426369513,0.5,88.7868271904754
CBC_1030,CBC_1030_MSI_TV_v3_Vset4_Tset3_2023-08-23_15h54.43.458.csv,3,16,2,0,z,0,1,0,tac,A,27,1,2A,0A,0,1,z,2.67767259999891,0,1,1,1,0A,2A,A20,2.7408400239252,0.919390238833764,0.5,0.5,0.5,0.5,0.919390238833764,0.5,0.200760754588934,0.200760754588934,0.5,0.967633447042065,0.200760754588934,0.5,0.5,0.5,0.369154956219933,0.919390238833764,0.0806097611662362,0.919390238833764,0.5,0.192312034395986,0.65920044976352,0.0806097611662362,0.0482432082083016,0.5,0.598478490822132,1.09993316723972,0.248989399551161,3.17474426369513,0.5,88.7868271904754
CBC_1030,CBC_1030_MSI_TV_v3_Vset4_Tset3_2023-08-23_15h54.43.458.csv,3,17,3,2,b,1,0,1,tac,D,63,1,3D,2D,1,0,b,4.78233139999793,1,0,1,1,3D,2D,D32,3.46573590279973,0.967633447042065,0.5,0.5,0.5,0.5,0.919390238833764,0.5,0.200760754588934,0.200760754588934,0.5,0.967633447042065,0.200760754588934,0.5,0.5,0.5,0.369154956219933,0.369154956219933,0.630845043780067,0.369154956219933,0.5,0.0459916514529654,0.448737168821415,0.630845043780067,0.377547189744117,0.5,0.598478490822132,1.09993316723972,0.248989399551161,3.17474426369513,0.5,88.7868271904754
CBC_1030,CBC_1030_MSI_TV_v3_Vset4_Tset3_2023-08-23_15h54.43.458.csv,3,18,2,3,z,0,1,1,tac,D,63,1,2D,3D,0,1,b,2.70271599999796,1,0,0,0,2D,3D,D23,2.39789527279837,0.967633447042065,0.5,0.5,0.5,0.5,0.919390238833764,0.5,0.200760754588934,0.200760754588934,0.5,0.967633447042065,0.200760754588934,0.5,0.5,0.5,0.746702145964049,0.253297854035951,0.746702145964049,0.5,0.746702145964049,0.114793384580057,0.40311210976949,-0.5,-0.299239245411066,0.5,0.598478490822132,1.09993316723972,0.248989399551161,3.17474426369513,0.5,88.7868271904754
CBC_1030,CBC_1030_MSI_TV_v3_Vset4_Tset3_2023-08-23_15h54.43.458.csv,3,19,1,3,b,1,0,3,tac,B,27,1,1B,3B,1,0,b,2.41699609999887,1,0,1,1,1B,3B,B13,2.83321334405622,0.967633447042065,0.5,0.5,0.5,0.5,0.919390238833764,0.5,0.200760754588934,0.200760754588934,0.5,0.967633447042065,0.200760754588934,0.5,0.5,0.200760754588934,0.746702145964049,0.978450916280137,0.0215490837198625,0.919390238833764,0.200760754588934,0.226192689672725,0.680996234417873,0.0806097611662362,0.0482432082083016,0.5,0.598478490822132,1.09993316723972,0.248989399551161,3.17474426369513,0.5,88.7868271904754
CBC_1030,CBC_1030_MSI_TV_v3_Vset4_Tset3_2023-08-23_15h54.43.458.csv,3,20,3,0,b,1,0,1,tac,D,9,1,3D,0D,1,0,z,3.68610909999734,0,1,0,0,0D,3D,D30,3.55534806148941,0.967633447042065,0.5,0.5,0.5,0.5,0.967633447042065,0.5,0.200760754588934,0.200760754588934,0.5,0.967633447042065,0.200760754588934,0.5,0.5,0.200760754588934,0.746702145964049,0.253297854035951,0.746702145964049,0.5,0.746702145964049,0.0709129488087659,0.4038291416294,-0.5,-0.299239245411066,0.5,0.598478490822132,1.09993316723972,0.248989399551161,3.17474426369513,0.5,88.7868271904754
CBC_1030,CBC_1030_MSI_TV_v3_Vset4_Tset3_2023-08-23_15h54.43.458.csv,3,21,0,1,z,0,1,3,tac,B,63,1,0B,1B,0,1,b,2.63318059999801,1,0,0,0,0B,1B,B01,2.484906649788,0.967633447042065,0.5,0.5,0.5,0.5,0.967633447042065,0.5,0.200760754588934,0.200760754588934,0.5,0.967633447042065,0.200760754588934,0.200760754588934,0.5,0.200760754588934,0.746702145964049,0.0323665529579347,0.967633447042065,0.5,0.967633447042065,0.0969864876637583,0.323830032532483,-0.5,-0.299239245411066,0.5,0.598478490822132,1.09993316723972,0.248989399551161,3.17474426369513,0.5,88.7868271904754
CBC_1030,CBC_1030_MSI_TV_v3_Vset4_Tset3_2023-08-23_15h54.43.458.csv,3,22,0,1,b,1,0,0,tac,A,63,1,0A,1A,1,0,b,2.48531219999859,1,0,1,1,0A,1A,A01,2.91777073208428,0.967633447042065,0.5,0.5,0.5,0.200760754588934,0.967633447042065,0.5,0.200760754588934,0.200760754588934,0.5,0.967633447042065,0.200760754588934,0.200760754588934,0.5,0.200760754588934,0.746702145964049,0.967633447042065,0.0323665529579347,0.967633447042065,0.5,0.217848433617991,0.677537047995022,0.0323665529579347,0.0193706857673794,0.5,0.598478490822132,1.09993316723972,0.248989399551161,3.17474426369513,0.5,88.7868271904754
CBC_1030,CBC_1030_MSI_TV_v3_Vset4_Tset3_2023-08-23_15h54.43.458.csv,3,23,3,2,z,0,1,2,tac,C,63,1,3C,2C,0,1,b,2.57223409999824,1,0,0,0,3C,2C,C32,2.94443897916644,0.987004132809445,0.5,0.5,0.5,0.200760754588934,0.967633447042065,0.5,0.200760754588934,0.200760754588934,0.5,0.967633447042065,0.200760754588934,0.200760754588934,0.5,0.200760754588934,0.746702145964049,0.00833208816399328,0.991667911836007,0.200760754588934,0.967633447042065,0.0971809961846454,0.3140637262604,-0.200760754588934,-0.120150993422698,0.5,0.598478490822132,1.09993316723972,0.248989399551161,3.17474426369513,0.5,88.7868271904754
CBC_1030,CBC_1030_MSI_TV_v3_Vset4_Tset3_2023-08-23_15h54.43.458.csv,3,24,2,0,z,0,1,0,tac,A,27,1,2A,0A,NaN,NaN,None,NaN,NaN,NaN,NaN,NaN,,,A20,2.56494935746154,0.987004132809445,0.5,0.5,0.5,0.200760754588934,0.967633447042065,0.5,0.200760754588934,0.200760754588934,0.5,0.967633447042065,0.0806097611662362,0.200760754588934,0.5,0.200760754588934,0.746702145964049,0,0,0,0,NaN,0,0,0,0.5,0.598478490822132,1.09993316723972,0.248989399551161,3.17474426369513,0.5,88.7868271904754
CBC_1030,CBC_1030_MSI_TV_v3_Vset4_Tset3_2023-08-23_15h54.43.458.csv,3,25,0,1,z,0,1,3,tac,B,63,1,0B,1B,0,1,z,2.91159479999806,0,1,1,1,1B,0B,B01,2.30258509299405,0.987004132809445,0.5,0.5,0.5,0.200760754588934,0.967633447042065,0.5,0.200760754588934,0.200760754588934,0.5,0.967633447042065,0.0806097611662362,0.200760754588934,0.5,0.200760754588934,0.746702145964049,0.991667911836007,0.00833208816399328,0.967633447042065,0.200760754588934,0.178834323390297,0.684846119908634,0.0323665529579347,0.0193706857673794,0.5,0.598478490822132,1.09993316723972,0.248989399551161,3.17474426369513,0.5,88.7868271904754
CBC_1030,CBC_1030_MSI_TV_v3_Vset4_Tset3_2023-08-23_15h54.43.458.csv,3,26,3,2,b,1,0,1,tac,D,63,1,3D,2D,1,0,b,1.50209339999856,1,0,1,1,3D,2D,D32,3.02042488614436,0.987004132809445,0.5,0.5,0.5,0.200760754588934,0.987004132809445,0.5,0.200760754588934,0.200760754588934,0.5,0.967633447042065,0.0806097611662362,0.200760754588934,0.5,0.200760754588934,0.746702145964049,0.921481374137379,0.0785186258626213,0.746702145964049,0.200760754588934,0.150182698458957,0.662129227427334,0.253297854035951,0.15159331741192,0.5,0.598478490822132,1.09993316723972,0.248989399551161,3.17474426369513,0.5,88.7868271904754
CBC_1030,CBC_1030_MSI_TV_v3_Vset4_Tset3_2023-08-23_15h54.43.458.csv,3,27,2,1,z,0,1,3,tac,B,9,1,2B,1B,0,1,b,3.39773159999822,1,0,0,0,2B,1B,B21,3.73766961828337,0.987004132809445,0.5,0.5,0.5,0.200760754588934,0.987004132809445,0.5,0.200760754588934,0.200760754588934,0.5,0.967633447042065,0.0806097611662362,0.200760754588934,0.5,0.200760754588934,0.89829546337597,0.0129958671905553,0.987004132809445,0.5,0.987004132809445,0.064338354018047,0.316514225476301,-0.5,-0.299239245411066,0.5,0.598478490822132,1.09993316723972,0.248989399551161,3.17474426369513,0.5,88.7868271904754
CBC_1030,CBC_1030_MSI_TV_v3_Vset4_Tset3_2023-08-23_15h54.43.458.csv,3,28,3,1,b,1,0,1,tac,D,27,1,3D,1D,1,0,z,3.31211330000042,0,1,0,0,1D,3D,D31,3.76120011569356,0.987004132809445,0.5,0.5,0.5,0.200760754588934,0.987004132809445,0.200760754588934,0.200760754588934,0.200760754588934,0.5,0.967633447042065,0.0806097611662362,0.200760754588934,0.5,0.200760754588934,0.89829546337597,0.10170453662403,0.89829546337597,0.5,0.89829546337597,0.0736774350288811,0.347457391832035,-0.5,-0.299239245411066,0.5,0.598478490822132,1.09993316723972,0.248989399551161,3.17474426369513,0.5,88.7868271904754
CBC_1030,CBC_1030_MSI_TV_v3_Vset4_Tset3_2023-08-23_15h54.43.458.csv,3,29,0,1,b,1,0,0,tac,A,63,1,0A,1A,1,0,b,2.83368489999884,1,0,1,1,0A,1A,A01,2.68557734525015,0.987004132809445,0.5,0.5,0.5,0.200760754588934,0.987004132809445,0.200760754588934,0.200760754588934,0.200760754588934,0.5,0.967633447042065,0.0806097611662362,0.200760754588934,0.200760754588934,0.200760754588934,0.89829546337597,0.987004132809445,0.0129958671905553,0.987004132809445,0.5,0.18578373284283,0.683985894504091,0.0129958671905553,0.00777774698312843,0.5,0.598478490822132,1.09993316723972,0.248989399551161,3.17474426369513,0.5,88.7868271904754
CBC_1030,CBC_1030_MSI_TV_v3_Vset4_Tset3_2023-08-23_15h54.43.458.csv,3,30,1,0,z,0,1,0,tac,A,63,1,1A,0A,0,1,z,2.57900779999909,0,1,1,1,0A,1A,A10,3.11351530921037,0.994781879792573,0.5,0.5,0.5,0.200760754588934,0.987004132809445,0.200760754588934,0.200760754588934,0.200760754588934,0.5,0.967633447042065,0.0806097611662362,0.200760754588934,0.200760754588934,0.200760754588934,0.89829546337597,0.994781879792573,0.00521812020742696,0.994781879792573,0.5,0.212271545170247,0.687823488474643,0.00521812020742696,0.00312293270666936,0.5,0.598478490822132,1.09993316723972,0.248989399551161,3.17474426369513,0.5,88.7868271904754
CBC_1030,CBC_1030_MSI_TV_v3_Vset4_Tset3_2023-08-23_15h54.43.458.csv,3,31,2,0,b,1,0,2,tac,C,27,1,2C,0C,1,0,b,2.71633129999827,1,0,1,1,2C,0C,C20,3.13549421592915,0.997904812499242,0.5,0.5,0.5,0.200760754588934,0.987004132809445,0.200760754588934,0.200760754588934,0.200760754588934,0.5,0.967633447042065,0.0806097611662362,0.200760754588934,0.200760754588934,0.200760754588934,0.89829546337597,0.991667911836007,0.00833208816399322,0.967633447042065,0.200760754588934,0.197324786809998,0.684741678355857,0.0323665529579347,0.0193706857673794,0.5,0.598478490822132,1.09993316723972,0.248989399551161,3.17474426369513,0.5,88.7868271904754
CBC_1030,CBC_1030_MSI_TV_v3_Vset4_Tset3_2023-08-23_15h54.43.458.csv,3,32,0,1,b,1,0,0,tac,A,63,1,0A,1A,1,0,b,3.27788879999753,1,0,1,1,0A,1A,A01,2.46385324059017,0.997904812499242,0.5,0.5,0.5,0.200760754588934,0.987004132809445,0.200760754588934,0.200760754588934,0.200760754588934,0.5,0.987004132809445,0.0806097611662362,0.200760754588934,0.200760754588934,0.200760754588934,0.89829546337597,0.997904812499242,0.00209518750075754,0.997904812499242,0.5,0.148905734582874,0.688260907472235,0.00209518750075754,0.00125392465344277,0.5,0.598478490822132,1.09993316723972,0.248989399551161,3.17474426369513,0.5,88.7868271904754
CBC_1030,CBC_1030_MSI_TV_v3_Vset4_Tset3_2023-08-23_15h54.43.458.csv,3,33,0,1,z,0,1,3,tac,B,63,1,0B,1B,0,1,z,4.31170190000012,0,1,1,1,1B,0B,B01,2.26176309847379,0.999158737152685,0.5,0.5,0.5,0.200760754588934,0.987004132809445,0.200760754588934,0.200760754588934,0.200760754588934,0.5,0.987004132809445,0.0806097611662362,0.200760754588934,0.200760754588934,0.200760754588934,0.89829546337597,0.996703490809223,0.00329650919077653,0.987004132809445,0.200760754588934,0.0868225674748255,0.686799863821791,0.0129958671905553,0.00777774698312843,0.5,0.598478490822132,1.09993316723972,0.248989399551161,3.17474426369513,0.5,88.7868271904754
CBC_1030,CBC_1030_MSI_TV_v3_Vset4_Tset3_2023-08-23_15h54.43.458.csv,3,34,2,3,z,0,1,1,tac,D,63,1,2D,3D,0,1,z,2.91034169999875,0,1,1,1,3D,2D,D23,2.50552593699074,0.999158737152685,0.5,0.5,0.5,0.200760754588934,0.994781879792573,0.200760754588934,0.200760754588934,0.200760754588934,0.5,0.987004132809445,0.0806097611662362,0.200760754588934,0.200760754588934,0.200760754588934,0.89829546337597,0.972346866126073,0.0276531338739269,0.89829546337597,0.200760754588934,0.176773446644989,0.677542159228761,0.10170453662403,0.0608679775885138,0.5,0.598478490822132,1.09993316723972,0.248989399551161,3.17474426369513,0.5,88.7868271904754
CBC_1030,CBC_1030_MSI_TV_v3_Vset4_Tset3_2023-08-23_15h54.43.458.csv,3,35,1,3,b,1,0,3,tac,B,27,1,1B,3B,1,0,z,4.11516069999925,0,1,0,0,3B,1B,B13,2.81341071676004,0.999158737152685,0.5,0.5,0.5,0.200760754588934,0.994781879792573,0.200760754588934,0.200760754588934,0.200760754588934,0.5,0.987004132809445,0.0806097611662362,0.200760754588934,0.200760754588934,0.200760754588934,0.959163440964484,0.00131588027234375,0.998684119727656,0.200760754588934,0.994781879792573,0.0437118115654242,0.312242917086238,-0.200760754588934,-0.120150993422698,0.5,0.598478490822132,1.09993316723972,0.248989399551161,3.17474426369513,0.5,88.7868271904754
CBC_1030,CBC_1030_MSI_TV_v3_Vset4_Tset3_2023-08-23_15h54.43.458.csv,3,36,2,3,b,1,0,2,tac,C,63,1,2C,3C,1,0,z,3.25359359999857,0,1,0,0,3C,2C,C23,2.83321334405622,0.999158737152685,0.5,0.5,0.5,0.200760754588934,0.994781879792573,0.200760754588934,0.0806097611662362,0.200760754588934,0.5,0.987004132809445,0.0806097611662362,0.200760754588934,0.200760754588934,0.200760754588934,0.959163440964484,0.00115311589421663,0.998846884105783,0.0806097611662362,0.987004132809445,0.0683539729872482,0.311994246188549,-0.0806097611662362,-0.0482432082083016,0.5,0.598478490822132,1.09993316723972,0.248989399551161,3.17474426369513,0.5,88.7868271904754
CBC_1030,CBC_1030_MSI_TV_v3_Vset4_Tset3_2023-08-23_15h54.43.458.csv,3,37,0,2,z,0,1,2,tac,C,27,1,0C,2C,0,1,b,5.56151299999874,1,0,0,0,0C,2C,C02,3.95124371858143,0.999158737152685,0.5,0.5,0.5,0.200760754588934,0.994781879792573,0.200760754588934,0.0806097611662362,0.200760754588934,0.5,0.987004132809445,0.0323665529579346,0.200760754588934,0.200760754588934,0.200760754588934,0.959163440964484,0.00329650919077653,0.996703490809223,0.200760754588934,0.987004132809445,0.0207287867235818,0.313961650779461,-0.200760754588934,-0.120150993422698,0.5,0.598478490822132,1.09993316723972,0.248989399551161,3.17474426369513,0.5,88.7868271904754
CBC_1030,CBC_1030_MSI_TV_v3_Vset4_Tset3_2023-08-23_15h54.43.458.csv,3,38,0,1,z,0,1,3,tac,B,63,1,0B,1B,0,1,z,4.05673919999754,0,1,1,1,1B,0B,B01,2.17853244432407,0.999158737152685,0.5,0.5,0.5,0.200760754588934,0.994781879792573,0.200760754588934,0.0806097611662362,0.0806097611662362,0.5,0.987004132809445,0.0323665529579346,0.200760754588934,0.200760754588934,0.200760754588934,0.959163440964484,0.998684119727656,0.0013158802723438,0.994781879792573,0.200760754588934,0.0992257965194833,0.687533186416,0.00521812020742696,0.00312293270666936,0.5,0.598478490822132,1.09993316723972,0.248989399551161,3.17474426369513,0.5,88.7868271904754
CBC_1030,CBC_1030_MSI_TV_v3_Vset4_Tset3_2023-08-23_15h54.43.458.csv,3,39,0,3,b,1,0,0,tac,A,9,1,0A,3A,1,0,b,2.29824739999822,1,0,1,1,0A,3A,A03,3.98898404656427,0.999158737152685,0.5,0.5,0.5,0.200760754588934,0.997904812499242,0.200760754588934,0.0806097611662362,0.0806097611662362,0.5,0.987004132809445,0.0323665529579346,0.200760754588934,0.200760754588934,0.200760754588934,0.959163440964484,0.999158737152685,0.000841262847314783,0.999158737152685,0.5,0.241267190961411,0.6881076891956,0.000841262847314783,0.000503477719245681,0.5,0.598478490822132,1.09993316723972,0.248989399551161,3.17474426369513,0.5,88.7868271904754
CBC_1030,CBC_1030_MSI_TV_v3_Vset4_Tset3_2023-08-23_15h54.43.458.csv,3,40,2,3,b,1,0,2,tac,C,63,0,2C,3C,0,1,z,2.90397259999736,0,1,0,1,3C,2C,C23,2.62103882411258,0.999662214871931,0.5,0.5,0.5,0.200760754588934,0.997904812499242,0.200760754588934,0.0806097611662362,0.0806097611662362,0.5,0.987004132809445,0.0323665529579346,0.200760754588934,0.200760754588934,0.200760754588934,0.959163440964484,0.000440231018061454,0.999559768981939,0.0323665529579346,0.987004132809445,0.0818030713569493,0.31182770288006,0.967633447042065,0.579107805054753,0.5,0.598478490822132,1.09993316723972,0.248989399551161,3.17474426369513,0.5,88.7868271904754
CBC_1030,CBC_1030_MSI_TV_v3_Vset4_Tset3_2023-08-23_15h54.43.458.csv,3,41,0,1,b,1,0,0,tac,A,63,1,0A,1A,1,0,b,2.98605279999902,1,0,1,1,0A,1A,A01,2.41591377830105,0.999662214871931,0.5,0.5,0.5,0.200760754588934,0.997904812499242,0.200760754588934,0.0806097611662362,0.0806097611662362,0.5,0.987004132809445,0.611474358012688,0.200760754588934,0.200760754588934,0.200760754588934,0.959163440964484,0.999662214871931,0.000337785128069146,0.999662214871931,0.5,0.173308407695214,0.688906117389969,0.000337785128069146,0.000202157133668983,0.5,0.598478490822132,1.09993316723972,0.248989399551161,3.17474426369513,0.5,88.7868271904754
CBC_1030,CBC_1030_MSI_TV_v3_Vset4_Tset3_2023-08-23_15h54.43.458.csv,3,42,2,3,z,0,1,1,tac,D,63,1,2D,3D,0,1,z,2.70282089999819,0,1,1,1,3D,2D,D23,2.43361335540045,0.9998643720056,0.5,0.5,0.5,0.200760754588934,0.997904812499242,0.200760754588934,0.0806097611662362,0.0806097611662362,0.5,0.987004132809445,0.611474358012688,0.200760754588934,0.200760754588934,0.200760754588934,0.959163440964484,0.989418708959004,0.0105812910409961,0.959163440964484,0.200760754588934,0.198122960173298,0.683200508024836,0.0408365590355163,0.0244398022219447,0.5,0.598478490822132,1.09993316723972,0.248989399551161,3.17474426369513,0.5,88.7868271904754
CBC_1030,CBC_1030_MSI_TV_v3_Vset4_Tset3_2023-08-23_15h54.43.458.csv,3,43,3,2,z,0,1,2,tac,C,63,1,3C,2C,0,1,b,3.30596249999871,1,0,0,0,3C,2C,C32,2.96183072187831,0.9998643720056,0.5,0.5,0.5,0.200760754588934,0.997904812499242,0.200760754588934,0.0806097611662362,0.0806097611662362,0.5,0.987004132809445,0.611474358012688,0.200760754588934,0.200760754588934,0.200760754588934,0.983603243186428,0.0203019200534218,0.979698079946578,0.611474358012688,0.987004132809445,0.0681949824113771,0.32001118640322,-0.611474358012688,-0.365954250959866,0.5,0.598478490822132,1.09993316723972,0.248989399551161,3.17474426369513,0.5,88.7868271904754
CBC_1030,CBC_1030_MSI_TV_v3_Vset4_Tset3_2023-08-23_15h54.43.458.csv,3,44,3,1,b,1,0,1,tac,D,27,1,3D,1D,1,0,b,3.34643699999833,1,0,1,1,3D,1D,D31,3.38439026334577,0.9998643720056,0.5,0.5,0.5,0.200760754588934,0.997904812499242,0.200760754588934,0.0806097611662362,0.0806097611662362,0.5,0.987004132809445,0.245520107052822,0.200760754588934,0.200760754588934,0.200760754588934,0.983603243186428,0.995830103530275,0.00416989646972488,0.983603243186428,0.200760754588934,0.143508458911702,0.687356876912277,0.0163967568135716,0.00981310627216382,0.5,0.598478490822132,1.09993316723972,0.248989399551161,3.17474426369513,0.5,88.7868271904754
