ID,filename,session,trial,visStimLeft,visStimRight,correctKey,leftCorrect,rightCorrect,secondStim,mod2Type,mod2Stim,frequency,rewardAccurate,stimPairLeft,stimPairRight,pCorrectLeft,pCorrectRight,key,reactionTime,choiceLeft,choiceRight,choiceAccurate,reward,chosenPair,otherPair,triplet,surprise,0A belief,1A belief,2A belief,3A belief,0B belief,1B belief,2B belief,3B belief,0C belief,1C belief,2C belief,3C belief,0D belief,1D belief,2D belief,3D belief,beliefPairNorm,beliefOtherPairNorm,beliefPair,beliefOtherPair,lik,corrLik,rewardPE,update2,fitCBCsimpleRW_CBCdriftDiffusionLR_startBelief,fitCBCsimpleRW_CBCdriftDiffusionLR_alpha1,fitCBCsimpleRW_CBCdriftDiffusionLR_nonDecisionTime,fitCBCsimpleRW_CBCdriftDiffusionLR_weight,fitCBCsimpleRW_CBCdriftDiffusionLR_startingBoundary,fitCBCsimpleRW_CBCdriftDiffusionLR_startingPoint,fit_CBCsimpleRW_CBCdriftDiffusionLR_NLL
CBC_1030,CBC_1030_MSI_TV_v3_Vset3_Tset1_2023-08-23_15h04.35.874.csv,1,1,0,2,z,0,1,2,tac,C,27,1,0C,2C,0,1,z,2.65799659999902,0,1,1,1,2C,0C,C02,2.77258872223978,0.5,0.5,0.5,0.5,0.5,0.5,0.5,0.5,0.5,0.5,0.5,0.5,0.5,0.5,0.5,0.5,0.5,0.5,0.5,0.5,0.137529073544878,0.499631420663146,0.5,0.0128683834948422,0.5,0.0257367669896844,1.09920228860019,5.68884110291366,3.40081583066827,0.5,92.5264101693973
CBC_1030,CBC_1030_MSI_TV_v3_Vset3_Tset1_2023-08-23_15h04.35.874.csv,1,2,2,3,z,0,1,1,tac,D,63,1,2D,3D,0,1,z,3.82927790000031,0,1,1,1,3D,2D,D23,2.83321334405622,0.5,0.5,0.5,0.5,0.5,0.5,0.5,0.5,0.5,0.5,0.512868383494842,0.5,0.5,0.5,0.5,0.5,0.5,0.5,0.5,0.5,0.0847305119205086,0.50008122826981,0.5,0.0128683834948422,0.5,0.0257367669896844,1.09920228860019,5.68884110291366,3.40081583066827,0.5,92.5264101693973
CBC_1030,CBC_1030_MSI_TV_v3_Vset3_Tset1_2023-08-23_15h04.35.874.csv,1,3,0,1,b,1,0,0,tac,A,63,1,0A,1A,NaN,NaN,None,NaN,NaN,NaN,NaN,NaN,,,A01,2.89037175789616,0.5,0.5,0.5,0.5,0.5,0.5,0.5,0.5,0.5,0.5,0.512868383494842,0.5,0.5,0.5,0.5,0.512868383494842,0,0,0,0,NaN,0,0,0,0.5,0.0257367669896844,1.09920228860019,5.68884110291366,3.40081583066827,0.5,92.5264101693973
CBC_1030,CBC_1030_MSI_TV_v3_Vset3_Tset1_2023-08-23_15h04.35.874.csv,1,4,3,2,z,0,1,2,tac,C,63,1,3C,2C,0,1,z,3.31901759999982,0,1,1,1,2C,3C,C32,2.94443897916644,0.5,0.5,0.5,0.5,0.5,0.5,0.5,0.5,0.5,0.5,0.512868383494842,0.5,0.5,0.5,0.5,0.512868383494842,0.506352446035703,0.493647553964297,0.512868383494842,0.5,0.118433866405762,0.561952614705788,0.487131616505158,0.0125371929073016,0.5,0.0257367669896844,1.09920228860019,5.68884110291366,3.40081583066827,0.5,92.5264101693973
CBC_1030,CBC_1030_MSI_TV_v3_Vset3_Tset1_2023-08-23_15h04.35.874.csv,1,5,2,0,z,0,1,0,tac,A,27,1,2A,0A,0,1,z,4.80152899999939,0,1,1,1,0A,2A,A20,2.99573227355399,0.5,0.5,0.5,0.5,0.5,0.5,0.5,0.5,0.5,0.5,0.525405576402144,0.5,0.5,0.5,0.5,0.512868383494842,0.5,0.5,0.5,0.5,0.056071255659571,0.500947069835218,0.5,0.0128683834948422,0.5,0.0257367669896844,1.09920228860019,5.68884110291366,3.40081583066827,0.5,92.5264101693973
CBC_1030,CBC_1030_MSI_TV_v3_Vset3_Tset1_2023-08-23_15h04.35.874.csv,1,6,3,2,b,1,0,1,tac,D,63,1,3D,2D,1,0,z,4.09624350000013,0,1,0,0,2D,3D,D32,3.04452243772342,0.512868383494842,0.5,0.5,0.5,0.5,0.5,0.5,0.5,0.5,0.5,0.525405576402144,0.5,0.5,0.5,0.5,0.512868383494842,0.493647553964297,0.506352446035703,0.5,0.512868383494842,0.0665499501196328,0.440220958933665,-0.5,-0.0128683834948422,0.5,0.0257367669896844,1.09920228860019,5.68884110291366,3.40081583066827,0.5,92.5264101693973
CBC_1030,CBC_1030_MSI_TV_v3_Vset3_Tset1_2023-08-23_15h04.35.874.csv,1,7,2,3,z,0,1,1,tac,D,63,1,2D,3D,0,1,z,3.10735099999965,0,1,1,1,3D,2D,D23,2.39789527279837,0.512868383494842,0.5,0.5,0.5,0.5,0.5,0.5,0.5,0.5,0.5,0.525405576402144,0.5,0.5,0.5,0.487131616505158,0.512868383494842,0.512868383494842,0.487131616505158,0.512868383494842,0.487131616505158,0.144152094985687,0.62139403570293,0.487131616505158,0.0125371929073016,0.5,0.0257367669896844,1.09920228860019,5.68884110291366,3.40081583066827,0.5,92.5264101693973
CBC_1030,CBC_1030_MSI_TV_v3_Vset3_Tset1_2023-08-23_15h04.35.874.csv,1,8,1,3,b,1,0,3,tac,B,27,1,1B,3B,1,0,z,3.18399449999924,0,1,0,0,3B,1B,B13,3.13549421592915,0.512868383494842,0.5,0.5,0.5,0.5,0.5,0.5,0.5,0.5,0.5,0.525405576402144,0.5,0.5,0.5,0.487131616505158,0.525405576402144,0.5,0.5,0.5,0.5,0.111266552833817,0.499727100506119,-0.5,-0.0128683834948422,0.5,0.0257367669896844,1.09920228860019,5.68884110291366,3.40081583066827,0.5,92.5264101693973
CBC_1030,CBC_1030_MSI_TV_v3_Vset3_Tset1_2023-08-23_15h04.35.874.csv,1,9,3,0,b,1,0,1,tac,D,9,1,3D,0D,1,0,b,3.76811709999947,1,0,1,1,3D,0D,D30,3.17805383034795,0.512868383494842,0.5,0.5,0.5,0.5,0.5,0.5,0.487131616505158,0.5,0.5,0.525405576402144,0.5,0.5,0.5,0.487131616505158,0.525405576402144,0.512388062336897,0.487611937663103,0.525405576402144,0.5,0.107400640184834,0.616416480179794,0.474594423597856,0.0122145260947416,0.5,0.0257367669896844,1.09920228860019,5.68884110291366,3.40081583066827,0.5,92.5264101693973
CBC_1030,CBC_1030_MSI_TV_v3_Vset3_Tset1_2023-08-23_15h04.35.874.csv,1,10,0,1,z,0,1,3,tac,B,63,1,0B,1B,0,1,z,3.38835139999901,0,1,1,1,1B,0B,B01,3.2188758248682,0.512868383494842,0.5,0.5,0.5,0.5,0.5,0.5,0.487131616505158,0.5,0.5,0.525405576402144,0.5,0.5,0.5,0.487131616505158,0.537620102496885,0.5,0.5,0.5,0.5,0.102247575120024,0.500446418368739,0.5,0.0128683834948422,0.5,0.0257367669896844,1.09920228860019,5.68884110291366,3.40081583066827,0.5,92.5264101693973
CBC_1030,CBC_1030_MSI_TV_v3_Vset3_Tset1_2023-08-23_15h04.35.874.csv,1,11,0,1,b,1,0,0,tac,A,63,1,0A,1A,1,0,b,3.54360389999965,1,0,1,1,0A,1A,A01,2.56494935746154,0.512868383494842,0.5,0.5,0.5,0.5,0.512868383494842,0.5,0.487131616505158,0.5,0.5,0.525405576402144,0.5,0.5,0.5,0.487131616505158,0.537620102496885,0.506352446035703,0.493647553964297,0.512868383494842,0.5,0.107567810668219,0.56160747442136,0.487131616505158,0.0125371929073016,0.5,0.0257367669896844,1.09920228860019,5.68884110291366,3.40081583066827,0.5,92.5264101693973
CBC_1030,CBC_1030_MSI_TV_v3_Vset3_Tset1_2023-08-23_15h04.35.874.csv,1,12,1,0,b,1,0,3,tac,B,63,1,1B,0B,1,0,b,3.30253819999962,1,0,1,1,1B,0B,B10,3.29583686600433,0.525405576402144,0.5,0.5,0.5,0.5,0.512868383494842,0.5,0.487131616505158,0.5,0.5,0.525405576402144,0.5,0.5,0.5,0.487131616505158,0.537620102496885,0.506352446035703,0.493647553964297,0.512868383494842,0.5,0.1191576760783,0.561466614744987,0.487131616505158,0.0125371929073016,0.5,0.0257367669896844,1.09920228860019,5.68884110291366,3.40081583066827,0.5,92.5264101693973
CBC_1030,CBC_1030_MSI_TV_v3_Vset3_Tset1_2023-08-23_15h04.35.874.csv,1,13,3,2,b,1,0,1,tac,D,63,1,3D,2D,1,0,z,3.32220879999932,0,1,0,0,2D,3D,D32,2.63905732961526,0.525405576402144,0.5,0.5,0.5,0.5,0.525405576402144,0.5,0.487131616505158,0.5,0.5,0.525405576402144,0.5,0.5,0.5,0.487131616505158,0.537620102496885,0.475365503147974,0.524634496852026,0.487131616505158,0.537620102496885,0.0596584572967351,0.277694605161289,-0.487131616505158,-0.0125371929073016,0.5,0.0257367669896844,1.09920228860019,5.68884110291366,3.40081583066827,0.5,92.5264101693973
CBC_1030,CBC_1030_MSI_TV_v3_Vset3_Tset1_2023-08-23_15h04.35.874.csv,1,14,3,1,z,0,1,3,tac,B,27,1,3B,1B,0,1,b,3.52885199999946,1,0,0,0,3B,1B,B31,3.36729582998647,0.525405576402144,0.5,0.5,0.5,0.5,0.525405576402144,0.5,0.487131616505158,0.5,0.5,0.525405576402144,0.5,0.5,0.5,0.474594423597856,0.537620102496885,0.481099973331799,0.518900026668201,0.487131616505158,0.525405576402144,0.0631599063528558,0.325069377609067,-0.487131616505158,-0.0125371929073016,0.5,0.0257367669896844,1.09920228860019,5.68884110291366,3.40081583066827,0.5,92.5264101693973
CBC_1030,CBC_1030_MSI_TV_v3_Vset3_Tset1_2023-08-23_15h04.35.874.csv,1,15,2,3,b,1,0,2,tac,C,63,1,2C,3C,1,0,z,4.82137279999915,0,1,0,0,3C,2C,C23,3.40119738166216,0.525405576402144,0.5,0.5,0.5,0.5,0.525405576402144,0.5,0.474594423597856,0.5,0.5,0.525405576402144,0.5,0.5,0.5,0.474594423597856,0.537620102496885,0.487611937663103,0.512388062336897,0.5,0.525405576402144,0.0422179999219151,0.383574129663281,-0.5,-0.0128683834948422,0.5,0.0257367669896844,1.09920228860019,5.68884110291366,3.40081583066827,0.5,92.5264101693973
CBC_1030,CBC_1030_MSI_TV_v3_Vset3_Tset1_2023-08-23_15h04.35.874.csv,1,16,0,2,z,0,1,2,tac,C,27,1,0C,2C,0,1,z,2.72014369999943,0,1,1,1,2C,0C,C02,2.7408400239252,0.525405576402144,0.5,0.5,0.5,0.5,0.525405576402144,0.5,0.474594423597856,0.5,0.5,0.525405576402144,0.487131616505158,0.5,0.5,0.474594423597856,0.537620102496885,0.512388062336897,0.487611937663103,0.525405576402144,0.5,0.168412728410912,0.618657675453437,0.474594423597856,0.0122145260947416,0.5,0.0257367669896844,1.09920228860019,5.68884110291366,3.40081583066827,0.5,92.5264101693973
CBC_1030,CBC_1030_MSI_TV_v3_Vset3_Tset1_2023-08-23_15h04.35.874.csv,1,17,3,0,z,0,1,0,tac,A,9,1,3A,0A,0,1,z,3.60837859999992,0,1,1,1,0A,3A,A30,3.46573590279973,0.525405576402144,0.5,0.5,0.5,0.5,0.525405576402144,0.5,0.474594423597856,0.5,0.5,0.537620102496885,0.487131616505158,0.5,0.5,0.474594423597856,0.537620102496885,0.512388062336897,0.487611937663103,0.525405576402144,0.5,0.115406416748393,0.617860637268184,0.474594423597856,0.0122145260947416,0.5,0.0257367669896844,1.09920228860019,5.68884110291366,3.40081583066827,0.5,92.5264101693973
CBC_1030,CBC_1030_MSI_TV_v3_Vset3_Tset1_2023-08-23_15h04.35.874.csv,1,18,3,2,z,0,1,2,tac,C,63,0,3C,2C,1,0,z,2.88474479999968,0,1,1,0,2C,3C,C32,2.80336038090653,0.537620102496885,0.5,0.5,0.5,0.5,0.525405576402144,0.5,0.474594423597856,0.5,0.5,0.537620102496885,0.487131616505158,0.5,0.5,0.474594423597856,0.537620102496885,0.524634496852026,0.475365503147974,0.537620102496885,0.487131616505158,0.189257506411694,0.722232894207079,-0.537620102496885,-0.0138366033069326,0.5,0.0257367669896844,1.09920228860019,5.68884110291366,3.40081583066827,0.5,92.5264101693973
CBC_1030,CBC_1030_MSI_TV_v3_Vset3_Tset1_2023-08-23_15h04.35.874.csv,1,19,0,1,b,1,0,0,tac,A,63,1,0A,1A,1,0,b,3.06108509999922,1,0,1,1,0A,1A,A01,2.42774823594805,0.537620102496885,0.5,0.5,0.5,0.5,0.525405576402144,0.5,0.474594423597856,0.5,0.5,0.523783499189953,0.487131616505158,0.5,0.5,0.474594423597856,0.537620102496885,0.518128071346323,0.481871928653677,0.537620102496885,0.5,0.159465631942319,0.668038755155459,0.462379897503115,0.0119001636827518,0.5,0.0257367669896844,1.09920228860019,5.68884110291366,3.40081583066827,0.5,92.5264101693973
CBC_1030,CBC_1030_MSI_TV_v3_Vset3_Tset1_2023-08-23_15h04.35.874.csv,1,20,2,3,z,0,1,1,tac,D,63,1,2D,3D,0,1,z,4.62049269999989,0,1,1,1,3D,2D,D23,2.4567357728213,0.549520266179637,0.5,0.5,0.5,0.5,0.525405576402144,0.5,0.474594423597856,0.5,0.5,0.523783499189953,0.487131616505158,0.5,0.5,0.474594423597856,0.537620102496885,0.531132569862532,0.468867430137468,0.537620102496885,0.474594423597856,0.0885172722494388,0.769112682570659,0.462379897503115,0.0119001636827518,0.5,0.0257367669896844,1.09920228860019,5.68884110291366,3.40081583066827,0.5,92.5264101693973
CBC_1030,CBC_1030_MSI_TV_v3_Vset3_Tset1_2023-08-23_15h04.35.874.csv,1,21,2,3,b,1,0,2,tac,C,63,1,2C,3C,1,0,z,4.03609009999946,0,1,0,0,3C,2C,C23,2.89037175789616,0.549520266179637,0.5,0.5,0.5,0.5,0.525405576402144,0.5,0.474594423597856,0.5,0.5,0.523783499189953,0.487131616505158,0.5,0.5,0.474594423597856,0.549520266179637,0.481871928653677,0.518128071346323,0.487131616505158,0.523783499189953,0.0513112759813637,0.331458363528538,-0.487131616505158,-0.0125371929073016,0.5,0.0257367669896844,1.09920228860019,5.68884110291366,3.40081583066827,0.5,92.5264101693973
CBC_1030,CBC_1030_MSI_TV_v3_Vset3_Tset1_2023-08-23_15h04.35.874.csv,1,22,1,3,z,0,1,1,tac,D,27,1,1D,3D,0,1,z,2.94307369999933,0,1,1,1,3D,1D,D13,3.61091791264422,0.549520266179637,0.5,0.5,0.5,0.5,0.525405576402144,0.5,0.474594423597856,0.5,0.5,0.523783499189953,0.474594423597856,0.5,0.5,0.474594423597856,0.549520266179637,0.523591858001893,0.476408141998107,0.549520266179637,0.5,0.181920696466841,0.714401578746484,0.450479733820363,0.0115938919429097,0.5,0.0257367669896844,1.09920228860019,5.68884110291366,3.40081583066827,0.5,92.5264101693973
CBC_1030,CBC_1030_MSI_TV_v3_Vset3_Tset1_2023-08-23_15h04.35.874.csv,1,23,1,0,z,0,1,0,tac,A,63,1,1A,0A,0,1,z,2.89216419999957,0,1,1,1,0A,1A,A10,3.63758615972639,0.549520266179637,0.5,0.5,0.5,0.5,0.525405576402144,0.5,0.474594423597856,0.5,0.5,0.523783499189953,0.474594423597856,0.5,0.5,0.474594423597856,0.561114158122547,0.523591858001893,0.476408141998107,0.549520266179637,0.5,0.186074081434072,0.714435795527461,0.450479733820363,0.0115938919429097,0.5,0.0257367669896844,1.09920228860019,5.68884110291366,3.40081583066827,0.5,92.5264101693973
CBC_1030,CBC_1030_MSI_TV_v3_Vset3_Tset1_2023-08-23_15h04.35.874.csv,1,24,2,3,b,1,0,2,tac,C,63,1,2C,3C,1,0,b,2.66462099999899,1,0,1,1,2C,3C,C23,2.56494935746154,0.561114158122547,0.5,0.5,0.5,0.5,0.525405576402144,0.5,0.474594423597856,0.5,0.5,0.523783499189953,0.474594423597856,0.5,0.5,0.474594423597856,0.561114158122547,0.524634496852026,0.475365503147974,0.523783499189953,0.474594423597856,0.207926444101441,0.721755703295923,0.476216500810047,0.012256273117991,0.5,0.0257367669896844,1.09920228860019,5.68884110291366,3.40081583066827,0.5,92.5264101693973
CBC_1030,CBC_1030_MSI_TV_v3_Vset3_Tset1_2023-08-23_15h04.35.874.csv,1,25,2,0,z,0,1,0,tac,A,27,1,2A,0A,0,1,z,2.85461179999947,0,1,1,1,0A,2A,A20,2.99573227355399,0.561114158122547,0.5,0.5,0.5,0.5,0.525405576402144,0.5,0.474594423597856,0.5,0.5,0.536039772307944,0.474594423597856,0.5,0.5,0.474594423597856,0.561114158122547,0.528797164590979,0.471202835409021,0.561114158122547,0.5,0.202855769555161,0.753854415550834,0.438885841877453,0.0112955026474715,0.5,0.0257367669896844,1.09920228860019,5.68884110291366,3.40081583066827,0.5,92.5264101693973
CBC_1030,CBC_1030_MSI_TV_v3_Vset3_Tset1_2023-08-23_15h04.35.874.csv,1,26,0,1,z,0,1,3,tac,B,63,1,0B,1B,0,1,z,2.99075279999943,0,1,1,1,1B,0B,B01,3.02042488614436,0.572409660770018,0.5,0.5,0.5,0.5,0.525405576402144,0.5,0.474594423597856,0.5,0.5,0.536039772307944,0.474594423597856,0.5,0.5,0.474594423597856,0.561114158122547,0.512388062336897,0.487611937663103,0.525405576402144,0.5,0.150698987258291,0.618577777084815,0.474594423597856,0.0122145260947416,0.5,0.0257367669896844,1.09920228860019,5.68884110291366,3.40081583066827,0.5,92.5264101693973
CBC_1030,CBC_1030_MSI_TV_v3_Vset3_Tset1_2023-08-23_15h04.35.874.csv,1,27,1,0,b,1,0,3,tac,B,63,1,1B,0B,1,0,b,3.20957009999984,1,0,1,1,1B,0B,B10,3.04452243772342,0.572409660770018,0.5,0.5,0.5,0.5,0.537620102496885,0.5,0.474594423597856,0.5,0.5,0.536039772307944,0.474594423597856,0.5,0.5,0.474594423597856,0.561114158122547,0.518128071346323,0.481871928653677,0.537620102496885,0.5,0.149354671818375,0.667748897573662,0.462379897503115,0.0119001636827518,0.5,0.0257367669896844,1.09920228860019,5.68884110291366,3.40081583066827,0.5,92.5264101693973
CBC_1030,CBC_1030_MSI_TV_v3_Vset3_Tset1_2023-08-23_15h04.35.874.csv,1,28,2,3,b,1,0,2,tac,C,63,1,2C,3C,1,0,b,3.0989856999995,1,0,1,1,2C,3C,C23,2.37490575457367,0.572409660770018,0.5,0.5,0.5,0.5,0.549520266179637,0.5,0.474594423597856,0.5,0.5,0.536039772307944,0.474594423597856,0.5,0.5,0.474594423597856,0.561114158122547,0.530399401167609,0.469600598832392,0.536039772307944,0.474594423597856,0.184505966208012,0.765030859760236,0.463960227692056,0.0119408362725914,0.5,0.0257367669896844,1.09920228860019,5.68884110291366,3.40081583066827,0.5,92.5264101693973
CBC_1030,CBC_1030_MSI_TV_v3_Vset3_Tset1_2023-08-23_15h04.35.874.csv,1,29,1,3,z,0,1,1,tac,D,27,1,1D,3D,0,1,b,3.4445541999994,1,0,0,0,1D,3D,D13,3.09104245335832,0.572409660770018,0.5,0.5,0.5,0.5,0.549520266179637,0.5,0.474594423597856,0.5,0.5,0.547980608580535,0.474594423597856,0.5,0.5,0.474594423597856,0.561114158122547,0.471202835409021,0.528797164590979,0.5,0.561114158122547,0.0505642493739292,0.24798313891681,-0.5,-0.0128683834948422,0.5,0.0257367669896844,1.09920228860019,5.68884110291366,3.40081583066827,0.5,92.5264101693973
CBC_1030,CBC_1030_MSI_TV_v3_Vset3_Tset1_2023-08-23_15h04.35.874.csv,1,30,2,1,b,1,0,2,tac,C,9,1,2C,1C,1,0,b,2.67003279999972,1,0,1,1,2C,1C,C21,3.80666248977032,0.572409660770018,0.5,0.5,0.5,0.5,0.549520266179637,0.5,0.474594423597856,0.5,0.5,0.547980608580535,0.474594423597856,0.5,0.487131616505158,0.474594423597856,0.561114158122547,0.522891935302851,0.477108064697149,0.547980608580535,0.5,0.202642495826749,0.70899842105881,0.452019391419465,0.0116335177517817,0.5,0.0257367669896844,1.09920228860019,5.68884110291366,3.40081583066827,0.5,92.5264101693973
CBC_1030,CBC_1030_MSI_TV_v3_Vset3_Tset1_2023-08-23_15h04.35.874.csv,1,31,1,3,b,1,0,3,tac,B,27,1,1B,3B,1,0,b,2.9803839999995,1,0,1,1,1B,3B,B13,3.13549421592915,0.572409660770018,0.5,0.5,0.5,0.5,0.549520266179637,0.5,0.474594423597856,0.5,0.5,0.559614126332317,0.474594423597856,0.5,0.487131616505158,0.474594423597856,0.561114158122547,0.536580786961497,0.463419213038503,0.549520266179637,0.474594423597856,0.208982534072204,0.80495396463431,0.450479733820363,0.0115938919429097,0.5,0.0257367669896844,1.09920228860019,5.68884110291366,3.40081583066827,0.5,92.5264101693973
CBC_1030,CBC_1030_MSI_TV_v3_Vset3_Tset1_2023-08-23_15h04.35.874.csv,1,32,2,3,z,0,1,1,tac,D,63,1,2D,3D,0,1,b,3.4552206999997,1,0,0,0,2D,3D,D23,2.46385324059017,0.572409660770018,0.5,0.5,0.5,0.5,0.561114158122547,0.5,0.474594423597856,0.5,0.5,0.559614126332317,0.474594423597856,0.5,0.487131616505158,0.474594423597856,0.561114158122547,0.458231622267253,0.541768377732747,0.474594423597856,0.561114158122547,0.0341017851267241,0.166613398296022,-0.474594423597856,-0.0122145260947416,0.5,0.0257367669896844,1.09920228860019,5.68884110291366,3.40081583066827,0.5,92.5264101693973
CBC_1030,CBC_1030_MSI_TV_v3_Vset3_Tset1_2023-08-23_15h04.35.874.csv,1,33,1,0,b,1,0,3,tac,B,63,1,1B,0B,1,0,b,2.5816965999993,1,0,1,1,1B,0B,B10,2.77258872223978,0.572409660770018,0.5,0.5,0.5,0.5,0.561114158122547,0.5,0.474594423597856,0.5,0.5,0.559614126332317,0.474594423597856,0.5,0.487131616505158,0.462379897503115,0.561114158122547,0.528797164590979,0.471202835409021,0.561114158122547,0.5,0.228214766033678,0.752943121987029,0.438885841877453,0.0112955026474715,0.5,0.0257367669896844,1.09920228860019,5.68884110291366,3.40081583066827,0.5,92.5264101693973
CBC_1030,CBC_1030_MSI_TV_v3_Vset3_Tset1_2023-08-23_15h04.35.874.csv,1,34,0,1,b,1,0,0,tac,A,63,0,0A,1A,0,1,z,2.77430359999926,0,1,0,1,1A,0A,A01,2.50552593699074,0.572409660770018,0.5,0.5,0.5,0.5,0.572409660770018,0.5,0.474594423597856,0.5,0.5,0.559614126332317,0.474594423597856,0.5,0.487131616505158,0.462379897503115,0.561114158122547,0.466239738684363,0.533760261315637,0.5,0.572409660770018,0.0605351662424005,0.213140253581963,0.5,0.0128683834948422,0.5,0.0257367669896844,1.09920228860019,5.68884110291366,3.40081583066827,0.5,92.5264101693973
CBC_1030,CBC_1030_MSI_TV_v3_Vset3_Tset1_2023-08-23_15h04.35.874.csv,1,35,3,2,z,0,1,2,tac,C,63,1,3C,2C,0,1,z,3.77891179999915,0,1,1,1,2C,3C,C32,2.81341071676004,0.572409660770018,0.512868383494842,0.5,0.5,0.5,0.572409660770018,0.5,0.474594423597856,0.5,0.5,0.559614126332317,0.474594423597856,0.5,0.487131616505158,0.462379897503115,0.561114158122547,0.541103751627368,0.458896248372632,0.559614126332317,0.474594423597856,0.143031129023625,0.830815658725363,0.440385873667683,0.0113341086161338,0.5,0.0257367669896844,1.09920228860019,5.68884110291366,3.40081583066827,0.5,92.5264101693973
CBC_1030,CBC_1030_MSI_TV_v3_Vset3_Tset1_2023-08-23_15h04.35.874.csv,1,36,2,0,z,0,1,0,tac,A,27,1,2A,0A,0,1,z,2.8373002999997,0,1,1,1,0A,2A,A20,2.83321334405622,0.572409660770018,0.512868383494842,0.5,0.5,0.5,0.572409660770018,0.5,0.474594423597856,0.5,0.5,0.570948234948451,0.474594423597856,0.5,0.487131616505158,0.462379897503115,0.561114158122547,0.533760261315637,0.466239738684363,0.572409660770018,0.5,0.217171787924065,0.787392674007888,0.427590339229982,0.0110047929278021,0.5,0.0257367669896844,1.09920228860019,5.68884110291366,3.40081583066827,0.5,92.5264101693973
CBC_1030,CBC_1030_MSI_TV_v3_Vset3_Tset1_2023-08-23_15h04.35.874.csv,1,37,1,0,b,1,0,3,tac,B,63,1,1B,0B,1,0,b,2.81495669999913,1,0,1,1,1B,0B,B10,2.56494935746154,0.583414453697821,0.512868383494842,0.5,0.5,0.5,0.572409660770018,0.5,0.474594423597856,0.5,0.5,0.570948234948451,0.474594423597856,0.5,0.487131616505158,0.462379897503115,0.561114158122547,0.533760261315637,0.466239738684363,0.572409660770018,0.5,0.219137244153905,0.786546907822596,0.427590339229982,0.0110047929278021,0.5,0.0257367669896844,1.09920228860019,5.68884110291366,3.40081583066827,0.5,92.5264101693973
CBC_1030,CBC_1030_MSI_TV_v3_Vset3_Tset1_2023-08-23_15h04.35.874.csv,1,38,3,2,b,1,0,1,tac,D,63,1,3D,2D,1,0,z,3.16375239999888,0,1,0,0,2D,3D,D32,2.87167962488401,0.583414453697821,0.512868383494842,0.5,0.5,0.5,0.583414453697821,0.5,0.474594423597856,0.5,0.5,0.570948234948451,0.474594423597856,0.5,0.487131616505158,0.462379897503115,0.561114158122547,0.451766080087746,0.548233919912254,0.462379897503115,0.561114158122547,0.0323702343064953,0.134016659544339,-0.462379897503115,-0.0119001636827518,0.5,0.0257367669896844,1.09920228860019,5.68884110291366,3.40081583066827,0.5,92.5264101693973
CBC_1030,CBC_1030_MSI_TV_v3_Vset3_Tset1_2023-08-23_15h04.35.874.csv,1,39,2,1,z,0,1,3,tac,B,9,1,2B,1B,0,1,b,3.38953579999998,1,0,0,0,2B,1B,B21,3.98898404656427,0.583414453697821,0.512868383494842,0.5,0.5,0.5,0.583414453697821,0.5,0.474594423597856,0.5,0.5,0.570948234948451,0.474594423597856,0.5,0.487131616505158,0.450479733820363,0.561114158122547,0.461503903970859,0.538496096029141,0.5,0.583414453697821,0.0389111873557994,0.183940923057188,-0.5,-0.0128683834948422,0.5,0.0257367669896844,1.09920228860019,5.68884110291366,3.40081583066827,0.5,92.5264101693973
CBC_1030,CBC_1030_MSI_TV_v3_Vset3_Tset1_2023-08-23_15h04.35.874.csv,1,40,3,1,b,1,0,1,tac,D,27,1,3D,1D,1,0,b,4.23893239999961,1,0,1,1,3D,1D,D31,4.00733318523247,0.583414453697821,0.512868383494842,0.5,0.5,0.5,0.583414453697821,0.487131616505158,0.474594423597856,0.5,0.5,0.570948234948451,0.474594423597856,0.5,0.487131616505158,0.450479733820363,0.561114158122547,0.535288738294063,0.464711261705937,0.561114158122547,0.487131616505158,0.10927820284421,0.796046783298428,0.438885841877453,0.0112955026474715,0.5,0.0257367669896844,1.09920228860019,5.68884110291366,3.40081583066827,0.5,92.5264101693973
CBC_1030,CBC_1030_MSI_TV_v3_Vset3_Tset1_2023-08-23_15h04.35.874.csv,1,41,0,1,b,1,0,0,tac,A,63,1,0A,1A,1,0,b,2.32349269999941,1,0,1,1,0A,1A,A01,2.41591377830105,0.583414453697821,0.512868383494842,0.5,0.5,0.5,0.583414453697821,0.487131616505158,0.474594423597856,0.5,0.5,0.570948234948451,0.474594423597856,0.5,0.487131616505158,0.450479733820363,0.572409660770018,0.532175122974483,0.467824877025517,0.583414453697821,0.512868383494842,0.26401213645595,0.776655330154684,0.416585546302179,0.0107215651364496,0.5,0.0257367669896844,1.09920228860019,5.68884110291366,3.40081583066827,0.5,92.5264101693973
CBC_1030,CBC_1030_MSI_TV_v3_Vset3_Tset1_2023-08-23_15h04.35.874.csv,1,42,1,0,z,0,1,0,tac,A,63,1,1A,0A,0,1,z,3.03826749999917,0,1,1,1,0A,1A,A10,3.3499040872746,0.59413601883427,0.512868383494842,0.5,0.5,0.5,0.583414453697821,0.487131616505158,0.474594423597856,0.5,0.5,0.570948234948451,0.474594423597856,0.5,0.487131616505158,0.450479733820363,0.572409660770018,0.536706103050919,0.46329389694908,0.59413601883427,0.512868383494842,0.20322126096983,0.805487952028888,0.40586398116573,0.0104456267127681,0.5,0.0257367669896844,1.09920228860019,5.68884110291366,3.40081583066827,0.5,92.5264101693973
CBC_1030,CBC_1030_MSI_TV_v3_Vset3_Tset1_2023-08-23_15h04.35.874.csv,1,43,0,2,z,0,1,2,tac,C,27,1,0C,2C,0,1,z,2.25521599999956,0,1,1,1,2C,0C,C02,2.96183072187831,0.604581645547038,0.512868383494842,0.5,0.5,0.5,0.583414453697821,0.487131616505158,0.474594423597856,0.5,0.5,0.570948234948451,0.474594423597856,0.5,0.487131616505158,0.450479733820363,0.572409660770018,0.533124026275586,0.466875973724414,0.570948234948451,0.5,0.273882272934292,0.783858206147929,0.429051765051549,0.0110424053036445,0.5,0.0257367669896844,1.09920228860019,5.68884110291366,3.40081583066827,0.5,92.5264101693973
CBC_1030,CBC_1030_MSI_TV_v3_Vset3_Tset1_2023-08-23_15h04.35.874.csv,1,44,1,0,b,1,0,3,tac,B,63,1,1B,0B,1,0,b,3.51958119999927,1,0,1,1,1B,0B,B10,2.46809953147162,0.604581645547038,0.512868383494842,0.5,0.5,0.5,0.583414453697821,0.487131616505158,0.474594423597856,0.5,0.5,0.581990640252095,0.474594423597856,0.5,0.487131616505158,0.450479733820363,0.572409660770018,0.538496096029141,0.461503903970859,0.583414453697821,0.5,0.161211639964216,0.815340741596871,0.416585546302179,0.0107215651364496,0.5,0.0257367669896844,1.09920228860019,5.68884110291366,3.40081583066827,0.5,92.5264101693973
CBC_1030,CBC_1030_MSI_AV_v3_Vset6_Aset3_2023-08-23_15h13.18.002.csv,2,1,0,1,z,0,1,3,aud,B,63,1,0B,1B,0,1,z,3.57081709999966,0,1,1,1,1B,0B,B01,2.77258872223978,0.5,0.5,0.5,0.5,0.5,0.5,0.5,0.5,0.5,0.5,0.5,0.5,0.5,0.5,0.5,0.5,0.5,0.5,0.5,0.5,0.0651369907375451,0.500266607839978,0.5,0.0130293170149311,0.5,0.0260586340298622,1.09901731127413,8.88072377401252,2.39158186131554,0.5,68.0314650773389
CBC_1030,CBC_1030_MSI_AV_v3_Vset6_Aset3_2023-08-23_15h13.18.002.csv,2,2,0,1,b,1,0,0,aud,A,63,1,0A,1A,1,0,b,2.90535200000068,1,0,1,1,0A,1A,A01,2.83321334405622,0.5,0.5,0.5,0.5,0.5,0.513029317014931,0.5,0.5,0.5,0.5,0.5,0.5,0.5,0.5,0.5,0.5,0.5,0.5,0.5,0.5,0.115807325422651,0.500916423422735,0.5,0.0130293170149311,0.5,0.0260586340298622,1.09901731127413,8.88072377401252,2.39158186131554,0.5,68.0314650773389
CBC_1030,CBC_1030_MSI_AV_v3_Vset6_Aset3_2023-08-23_15h13.18.002.csv,2,3,2,3,z,0,1,1,aud,D,63,1,2D,3D,0,1,z,4.19915309999942,0,1,1,1,3D,2D,D23,2.89037175789616,0.513029317014931,0.5,0.5,0.5,0.5,0.513029317014931,0.5,0.5,0.5,0.5,0.5,0.5,0.5,0.5,0.5,0.5,0.5,0.5,0.5,0.5,0.0378211606486643,0.499512372234112,0.5,0.0130293170149311,0.5,0.0260586340298622,1.09901731127413,8.88072377401252,2.39158186131554,0.5,68.0314650773389
CBC_1030,CBC_1030_MSI_AV_v3_Vset6_Aset3_2023-08-23_15h13.18.002.csv,2,4,2,1,z,0,1,3,aud,B,9,1,2B,1B,0,1,z,3.15123990000029,0,1,1,1,1B,2B,B21,2.94443897916644,0.513029317014931,0.5,0.5,0.5,0.5,0.513029317014931,0.5,0.5,0.5,0.5,0.5,0.5,0.5,0.5,0.5,0.513029317014931,0.506430868680743,0.493569131319257,0.513029317014931,0.5,0.105874674380679,0.568542257529622,0.486970682985069,0.0126897908111799,0.5,0.0260586340298622,1.09901731127413,8.88072377401252,2.39158186131554,0.5,68.0314650773389
CBC_1030,CBC_1030_MSI_AV_v3_Vset6_Aset3_2023-08-23_15h13.18.002.csv,2,5,0,2,b,1,0,0,aud,A,27,1,0A,2A,1,0,b,2.82154639999953,1,0,1,1,0A,2A,A02,2.99573227355399,0.513029317014931,0.5,0.5,0.5,0.5,0.525719107826111,0.5,0.5,0.5,0.5,0.5,0.5,0.5,0.5,0.5,0.513029317014931,0.506430868680743,0.493569131319257,0.513029317014931,0.5,0.140847194437304,0.567831842484004,0.486970682985069,0.0126897908111799,0.5,0.0260586340298622,1.09901731127413,8.88072377401252,2.39158186131554,0.5,68.0314650773389
CBC_1030,CBC_1030_MSI_AV_v3_Vset6_Aset3_2023-08-23_15h13.18.002.csv,2,6,2,3,b,1,0,2,aud,C,63,1,2C,3C,1,0,b,2.56850959999974,1,0,1,1,2C,3C,C23,3.04452243772342,0.525719107826111,0.5,0.5,0.5,0.5,0.525719107826111,0.5,0.5,0.5,0.5,0.5,0.5,0.5,0.5,0.5,0.513029317014931,0.5,0.5,0.5,0.5,0.154632689032633,0.500220882176275,0.5,0.0130293170149311,0.5,0.0260586340298622,1.09901731127413,8.88072377401252,2.39158186131554,0.5,68.0314650773389
CBC_1030,CBC_1030_MSI_AV_v3_Vset6_Aset3_2023-08-23_15h13.18.002.csv,2,7,1,3,z,0,1,1,aud,D,27,1,1D,3D,0,1,z,2.63923350000005,0,1,1,1,3D,1D,D13,3.09104245335832,0.525719107826111,0.5,0.5,0.5,0.5,0.525719107826111,0.5,0.5,0.5,0.5,0.513029317014931,0.5,0.5,0.5,0.5,0.513029317014931,0.506430868680743,0.493569131319257,0.513029317014931,0.5,0.165346687825211,0.568947768532019,0.486970682985069,0.0126897908111799,0.5,0.0260586340298622,1.09901731127413,8.88072377401252,2.39158186131554,0.5,68.0314650773389
CBC_1030,CBC_1030_MSI_AV_v3_Vset6_Aset3_2023-08-23_15h13.18.002.csv,2,8,1,0,z,0,1,0,aud,A,63,1,1A,0A,0,1,b,3.15233340000032,1,0,0,0,1A,0A,A10,3.13549421592915,0.525719107826111,0.5,0.5,0.5,0.5,0.525719107826111,0.5,0.5,0.5,0.5,0.513029317014931,0.5,0.5,0.5,0.5,0.525719107826111,0.487462889386637,0.512537110613362,0.5,0.525719107826111,0.0678726533046561,0.369180938652111,-0.5,-0.0130293170149311,0.5,0.0260586340298622,1.09901731127413,8.88072377401252,2.39158186131554,0.5,68.0314650773389
CBC_1030,CBC_1030_MSI_AV_v3_Vset6_Aset3_2023-08-23_15h13.18.002.csv,2,9,2,0,b,1,0,2,aud,C,27,1,2C,0C,1,0,b,3.54034969999975,1,0,1,1,2C,0C,C20,3.17805383034795,0.525719107826111,0.486970682985069,0.5,0.5,0.5,0.525719107826111,0.5,0.5,0.5,0.5,0.513029317014931,0.5,0.5,0.5,0.5,0.525719107826111,0.506430868680743,0.493569131319257,0.513029317014931,0.5,0.0753365491407624,0.567269829132585,0.486970682985069,0.0126897908111799,0.5,0.0260586340298622,1.09901731127413,8.88072377401252,2.39158186131554,0.5,68.0314650773389
CBC_1030,CBC_1030_MSI_AV_v3_Vset6_Aset3_2023-08-23_15h13.18.002.csv,2,10,2,3,z,0,1,1,aud,D,63,1,2D,3D,0,1,z,2.56369679999989,0,1,1,1,3D,2D,D23,2.52572864430826,0.525719107826111,0.486970682985069,0.5,0.5,0.5,0.525719107826111,0.5,0.5,0.5,0.5,0.525719107826111,0.5,0.5,0.5,0.5,0.525719107826111,0.512537110613362,0.487462889386637,0.525719107826111,0.5,0.195223499025447,0.629708474404806,0.474280892173889,0.0123591121965159,0.5,0.0260586340298622,1.09901731127413,8.88072377401252,2.39158186131554,0.5,68.0314650773389
CBC_1030,CBC_1030_MSI_AV_v3_Vset6_Aset3_2023-08-23_15h13.18.002.csv,2,11,1,0,b,1,0,3,aud,B,63,1,1B,0B,1,0,b,3.40481339999951,1,0,1,1,1B,0B,B10,3.25809653802148,0.525719107826111,0.486970682985069,0.5,0.5,0.5,0.525719107826111,0.5,0.5,0.5,0.5,0.525719107826111,0.5,0.5,0.5,0.5,0.538078220022627,0.512537110613362,0.487462889386637,0.525719107826111,0.5,0.0925365662969413,0.629516015181646,0.474280892173889,0.0123591121965159,0.5,0.0260586340298622,1.09901731127413,8.88072377401252,2.39158186131554,0.5,68.0314650773389
CBC_1030,CBC_1030_MSI_AV_v3_Vset6_Aset3_2023-08-23_15h13.18.002.csv,2,12,0,1,b,1,0,0,aud,A,63,1,0A,1A,1,0,z,2.74725699999999,0,1,0,0,1A,0A,A01,2.60268968544438,0.525719107826111,0.486970682985069,0.5,0.5,0.5,0.538078220022627,0.5,0.5,0.5,0.5,0.525719107826111,0.5,0.5,0.5,0.5,0.538078220022627,0.48086856153156,0.51913143846844,0.486970682985069,0.525719107826111,0.0802967915068548,0.307538828301583,-0.486970682985069,-0.01268979081118,0.5,0.0260586340298622,1.09901731127413,8.88072377401252,2.39158186131554,0.5,68.0314650773389
CBC_1030,CBC_1030_MSI_AV_v3_Vset6_Aset3_2023-08-23_15h13.18.002.csv,2,13,2,3,z,0,1,1,aud,D,63,1,2D,3D,0,1,z,2.37779729999966,0,1,1,1,3D,2D,D23,2.23359222150709,0.525719107826111,0.474280892173889,0.5,0.5,0.5,0.538078220022627,0.5,0.5,0.5,0.5,0.525719107826111,0.5,0.5,0.5,0.5,0.538078220022627,0.518340727744869,0.481659272255131,0.538078220022627,0.5,0.251462956568189,0.685995654714824,0.461921779977373,0.0120370506148529,0.5,0.0260586340298622,1.09901731127413,8.88072377401252,2.39158186131554,0.5,68.0314650773389
CBC_1030,CBC_1030_MSI_AV_v3_Vset6_Aset3_2023-08-23_15h13.18.002.csv,2,14,2,0,b,1,0,2,aud,C,27,1,2C,0C,1,0,b,2.21796530000029,1,0,1,1,2C,0C,C20,2.67414864942653,0.525719107826111,0.474280892173889,0.5,0.5,0.5,0.538078220022627,0.5,0.5,0.5,0.5,0.525719107826111,0.5,0.5,0.5,0.5,0.55011527063748,0.512537110613362,0.487462889386637,0.525719107826111,0.5,0.26543246707137,0.630657332470839,0.474280892173889,0.0123591121965159,0.5,0.0260586340298622,1.09901731127413,8.88072377401252,2.39158186131554,0.5,68.0314650773389
CBC_1030,CBC_1030_MSI_AV_v3_Vset6_Aset3_2023-08-23_15h13.18.002.csv,2,15,0,1,b,1,0,0,aud,A,63,1,0A,1A,1,0,z,1.35207600000012,0,1,0,0,1A,0A,A01,2.30258509299405,0.525719107826111,0.474280892173889,0.5,0.5,0.5,0.538078220022627,0.5,0.5,0.5,0.5,0.538078220022627,0.5,0.5,0.5,0.5,0.55011527063748,0.474280892173889,0.525719107826111,0.474280892173889,0.525719107826111,0.12508892924627,0.250503171830403,-0.474280892173889,-0.0123591121965159,0.5,0.0260586340298622,1.09901731127413,8.88072377401252,2.39158186131554,0.5,68.0314650773389
CBC_1030,CBC_1030_MSI_AV_v3_Vset6_Aset3_2023-08-23_15h13.18.002.csv,2,16,1,3,b,1,0,3,aud,B,27,1,1B,3B,1,0,b,1.90645200000017,1,0,1,1,1B,3B,B13,3.43398720448515,0.525719107826111,0.461921779977373,0.5,0.5,0.5,0.538078220022627,0.5,0.5,0.5,0.5,0.538078220022627,0.5,0.5,0.5,0.5,0.55011527063748,0.518340727744869,0.481659272255131,0.538078220022627,0.5,0.382240028619272,0.684859451313254,0.461921779977373,0.0120370506148529,0.5,0.0260586340298622,1.09901731127413,8.88072377401252,2.39158186131554,0.5,68.0314650773389
CBC_1030,CBC_1030_MSI_AV_v3_Vset6_Aset3_2023-08-23_15h13.18.002.csv,2,17,3,2,z,0,1,2,aud,C,63,1,3C,2C,0,1,z,1.7627007000001,0,1,1,1,2C,3C,C32,3.46573590279973,0.525719107826111,0.461921779977373,0.5,0.5,0.5,0.55011527063748,0.5,0.5,0.5,0.5,0.538078220022627,0.5,0.5,0.5,0.5,0.55011527063748,0.518340727744869,0.481659272255131,0.538078220022627,0.5,0.428580964492617,0.68622117761669,0.461921779977373,0.0120370506148529,0.5,0.0260586340298622,1.09901731127413,8.88072377401252,2.39158186131554,0.5,68.0314650773389
CBC_1030,CBC_1030_MSI_AV_v3_Vset6_Aset3_2023-08-23_15h13.18.002.csv,2,18,2,3,z,0,1,1,aud,D,63,0,2D,3D,1,0,z,1.34483790000013,0,1,1,0,3D,2D,D23,2.11021320034659,0.525719107826111,0.461921779977373,0.5,0.5,0.5,0.55011527063748,0.5,0.5,0.5,0.5,0.55011527063748,0.5,0.5,0.5,0.5,0.55011527063748,0.523861795004208,0.476138204995792,0.55011527063748,0.5,0.346615779927471,0.7335504007694,-0.55011527063748,-0.0143352525117807,0.5,0.0260586340298622,1.09901731127413,8.88072377401252,2.39158186131554,0.5,68.0314650773389
CBC_1030,CBC_1030_MSI_AV_v3_Vset6_Aset3_2023-08-23_15h13.18.002.csv,2,19,1,0,b,1,0,3,aud,B,63,1,1B,0B,1,0,b,3.81663939999999,1,0,1,1,1B,0B,B10,2.83321334405622,0.525719107826111,0.461921779977373,0.5,0.5,0.5,0.55011527063748,0.5,0.5,0.5,0.5,0.55011527063748,0.5,0.5,0.5,0.5,0.535780018125699,0.523861795004208,0.476138204995792,0.55011527063748,0.5,0.0684861908968333,0.734124232194296,0.44988472936252,0.0117233815180815,0.5,0.0260586340298622,1.09901731127413,8.88072377401252,2.39158186131554,0.5,68.0314650773389
CBC_1030,CBC_1030_MSI_AV_v3_Vset6_Aset3_2023-08-23_15h13.18.002.csv,2,20,2,0,z,0,1,0,aud,A,27,1,2A,0A,0,1,b,1.90802429999985,1,0,0,0,2A,0A,A20,3.55534806148941,0.525719107826111,0.461921779977373,0.5,0.5,0.5,0.561838652155561,0.5,0.5,0.5,0.5,0.55011527063748,0.5,0.5,0.5,0.5,0.535780018125699,0.487462889386637,0.512537110613362,0.5,0.525719107826111,0.202838629558713,0.369719197939549,-0.5,-0.0130293170149311,0.5,0.0260586340298622,1.09901731127413,8.88072377401252,2.39158186131554,0.5,68.0314650773389
CBC_1030,CBC_1030_MSI_AV_v3_Vset6_Aset3_2023-08-23_15h13.18.002.csv,2,21,0,3,z,0,1,1,aud,D,9,1,0D,3D,0,1,z,1.3165199999994,0,1,1,1,3D,0D,D03,3.58351893845611,0.525719107826111,0.461921779977373,0.486970682985069,0.5,0.5,0.561838652155561,0.5,0.5,0.5,0.5,0.55011527063748,0.5,0.5,0.5,0.5,0.535780018125699,0.517272016016705,0.482727983983296,0.535780018125699,0.5,0.251013678214897,0.675651286691975,0.464219981874301,0.0120969386170117,0.5,0.0260586340298622,1.09901731127413,8.88072377401252,2.39158186131554,0.5,68.0314650773389
CBC_1030,CBC_1030_MSI_AV_v3_Vset6_Aset3_2023-08-23_15h13.18.002.csv,2,22,2,3,b,1,0,2,aud,C,63,1,2C,3C,1,0,b,1.73865409999962,1,0,1,1,2C,3C,C23,2.91777073208428,0.525719107826111,0.461921779977373,0.486970682985069,0.5,0.5,0.561838652155561,0.5,0.5,0.5,0.5,0.55011527063748,0.5,0.5,0.5,0.5,0.547876956742711,0.523861795004208,0.476138204995792,0.55011527063748,0.5,0.478533250348056,0.734539516629271,0.44988472936252,0.0117233815180815,0.5,0.0260586340298622,1.09901731127413,8.88072377401252,2.39158186131554,0.5,68.0314650773389
CBC_1030,CBC_1030_MSI_AV_v3_Vset6_Aset3_2023-08-23_15h13.18.002.csv,2,23,3,1,z,0,1,3,aud,B,27,1,3B,1B,0,1,z,2.13869630000045,0,1,1,1,1B,3B,B31,3.63758615972639,0.525719107826111,0.461921779977373,0.486970682985069,0.5,0.5,0.561838652155561,0.5,0.5,0.5,0.5,0.561838652155561,0.5,0.5,0.5,0.5,0.547876956742711,0.529118666960384,0.470881333039616,0.561838652155561,0.5,0.361232406803065,0.775565530635309,0.438161347844439,0.0114178862095094,0.5,0.0260586340298622,1.09901731127413,8.88072377401252,2.39158186131554,0.5,68.0314650773389
CBC_1030,CBC_1030_MSI_AV_v3_Vset6_Aset3_2023-08-23_15h13.18.002.csv,2,24,3,2,z,0,1,2,aud,C,63,1,3C,2C,0,1,z,1.69232639999973,0,1,1,1,2C,3C,C32,2.9704144655697,0.525719107826111,0.461921779977373,0.486970682985069,0.5,0.5,0.573256538365071,0.5,0.5,0.5,0.5,0.561838652155561,0.5,0.5,0.5,0.5,0.547876956742711,0.529118666960384,0.470881333039616,0.561838652155561,0.5,0.536383768907058,0.775162749876682,0.438161347844439,0.0114178862095094,0.5,0.0260586340298622,1.09901731127413,8.88072377401252,2.39158186131554,0.5,68.0314650773389
CBC_1030,CBC_1030_MSI_AV_v3_Vset6_Aset3_2023-08-23_15h13.18.002.csv,2,25,2,3,z,0,1,1,aud,D,63,1,2D,3D,NaN,NaN,[],NaN,NaN,NaN,NaN,NaN,,,D23,2.07944154167984,0.525719107826111,0.461921779977373,0.486970682985069,0.5,0.5,0.573256538365071,0.5,0.5,0.5,0.5,0.573256538365071,0.5,0.5,0.5,0.5,0.547876956742711,0,0,0,0,NaN,0,0,0,0.5,0.0260586340298622,1.09901731127413,8.88072377401252,2.39158186131554,0.5,68.0314650773389
CBC_1030,CBC_1030_MSI_AV_v3_Vset6_Aset3_2023-08-23_15h13.18.002.csv,2,26,1,0,b,1,0,3,aud,B,63,1,1B,0B,1,0,b,2.05809119999958,1,0,1,1,1B,0B,B10,2.6149597780362,0.525719107826111,0.461921779977373,0.486970682985069,0.5,0.5,0.573256538365071,0.5,0.5,0.5,0.5,0.573256538365071,0.5,0.5,0.5,0.5,0.547876956742711,0.534128158434825,0.465871841565175,0.573256538365071,0.5,0.413769255761974,0.809689627999477,0.426743461634929,0.0111203516913812,0.5,0.0260586340298622,1.09901731127413,8.88072377401252,2.39158186131554,0.5,68.0314650773389
CBC_1030,CBC_1030_MSI_AV_v3_Vset6_Aset3_2023-08-23_15h13.18.002.csv,2,27,0,3,b,1,0,0,aud,A,9,1,0A,3A,1,0,b,1.72294079999938,1,0,1,1,0A,3A,A03,3.73766961828337,0.525719107826111,0.461921779977373,0.486970682985069,0.5,0.5,0.584376890056452,0.5,0.5,0.5,0.5,0.573256538365071,0.5,0.5,0.5,0.5,0.547876956742711,0.512537110613362,0.487462889386637,0.525719107826111,0.5,0.395858909643523,0.630739772458377,0.474280892173889,0.0123591121965159,0.5,0.0260586340298622,1.09901731127413,8.88072377401252,2.39158186131554,0.5,68.0314650773389
CBC_1030,CBC_1030_MSI_AV_v3_Vset6_Aset3_2023-08-23_15h13.18.002.csv,2,28,2,3,z,0,1,1,aud,D,63,1,2D,3D,0,1,z,1.38513059999968,0,1,1,1,3D,2D,D23,1.96944064646551,0.538078220022627,0.461921779977373,0.486970682985069,0.5,0.5,0.584376890056452,0.5,0.5,0.5,0.5,0.573256538365071,0.5,0.5,0.5,0.5,0.547876956742711,0.522844741662959,0.47715525833704,0.547876956742711,0.5,0.40703302018304,0.725832071529949,0.452123043257289,0.0117817089207093,0.5,0.0260586340298622,1.09901731127413,8.88072377401252,2.39158186131554,0.5,68.0314650773389
CBC_1030,CBC_1030_MSI_AV_v3_Vset6_Aset3_2023-08-23_15h13.18.002.csv,2,29,2,0,b,1,0,2,aud,C,27,1,2C,0C,1,0,b,1.93444400000044,1,0,1,1,2C,0C,C20,2.68557734525015,0.538078220022627,0.461921779977373,0.486970682985069,0.5,0.5,0.584376890056452,0.5,0.5,0.5,0.5,0.573256538365071,0.5,0.5,0.5,0.5,0.55965866566342,0.534128158434825,0.465871841565175,0.573256538365071,0.5,0.468469052082477,0.809821692670225,0.426743461634929,0.0111203516913812,0.5,0.0260586340298622,1.09901731127413,8.88072377401252,2.39158186131554,0.5,68.0314650773389
CBC_1030,CBC_1030_MSI_AV_v3_Vset6_Aset3_2023-08-23_15h13.18.002.csv,2,30,1,0,z,0,1,0,aud,A,63,1,1A,0A,0,1,z,2.62728990000051,0,1,1,1,0A,1A,A10,3.11351530921037,0.538078220022627,0.461921779977373,0.486970682985069,0.5,0.5,0.584376890056452,0.5,0.5,0.5,0.5,0.584376890056452,0.5,0.5,0.5,0.5,0.55965866566342,0.538078220022627,0.461921779977373,0.538078220022627,0.461921779977373,0.232606972847334,0.834855156542714,0.461921779977373,0.0120370506148529,0.5,0.0260586340298622,1.09901731127413,8.88072377401252,2.39158186131554,0.5,68.0314650773389
CBC_1030,CBC_1030_MSI_AV_v3_Vset6_Aset3_2023-08-23_15h13.18.002.csv,2,31,1,0,b,1,0,3,aud,B,63,1,1B,0B,1,0,b,2.13929090000056,1,0,1,1,1B,0B,B10,2.4423470353692,0.55011527063748,0.461921779977373,0.486970682985069,0.5,0.5,0.584376890056452,0.5,0.5,0.5,0.5,0.584376890056452,0.5,0.5,0.5,0.5,0.55965866566342,0.538905702818906,0.461094297181094,0.584376890056452,0.5,0.398017961782901,0.839103621733502,0.415623109943548,0.0108305705163721,0.5,0.0260586340298622,1.09901731127413,8.88072377401252,2.39158186131554,0.5,68.0314650773389
CBC_1030,CBC_1030_MSI_AV_v3_Vset6_Aset3_2023-08-23_15h13.18.002.csv,2,32,3,1,b,1,0,1,aud,D,27,1,3D,1D,1,0,b,1.77224209999986,1,0,1,1,3D,1D,D31,3.85014760171006,0.55011527063748,0.461921779977373,0.486970682985069,0.5,0.5,0.595207460572824,0.5,0.5,0.5,0.5,0.584376890056452,0.5,0.5,0.5,0.5,0.55965866566342,0.528149944692836,0.471850055307164,0.55965866566342,0.5,0.498976215986409,0.767914395151379,0.44034133433658,0.0114746936796981,0.5,0.0260586340298622,1.09901731127413,8.88072377401252,2.39158186131554,0.5,68.0314650773389
CBC_1030,CBC_1030_MSI_AV_v3_Vset6_Aset3_2023-08-23_15h13.18.002.csv,2,33,3,2,z,0,1,2,aud,C,63,1,3C,2C,0,1,z,1.54088709999996,0,1,1,1,2C,3C,C32,2.77258872223978,0.55011527063748,0.461921779977373,0.486970682985069,0.5,0.5,0.595207460572824,0.5,0.5,0.5,0.5,0.584376890056452,0.5,0.5,0.5,0.5,0.571133359343118,0.538905702818906,0.461094297181094,0.584376890056452,0.5,0.662089340965183,0.839204472806386,0.415623109943548,0.0108305705163721,0.5,0.0260586340298622,1.09901731127413,8.88072377401252,2.39158186131554,0.5,68.0314650773389
CBC_1030,CBC_1030_MSI_AV_v3_Vset6_Aset3_2023-08-23_15h13.18.002.csv,2,34,1,0,b,1,0,3,aud,B,63,1,1B,0B,1,0,b,2.08089500000006,1,0,1,1,1B,0B,B10,2.28238238567653,0.55011527063748,0.461921779977373,0.486970682985069,0.5,0.5,0.595207460572824,0.5,0.5,0.5,0.5,0.595207460572824,0.5,0.5,0.5,0.5,0.571133359343118,0.543465491242649,0.456534508757351,0.595207460572824,0.5,0.440576709984807,0.863382192730819,0.404792539427176,0.0105483406429513,0.5,0.0260586340298622,1.09901731127413,8.88072377401252,2.39158186131554,0.5,68.0314650773389
CBC_1030,CBC_1030_MSI_AV_v3_Vset6_Aset3_2023-08-23_15h13.18.002.csv,2,35,0,1,b,1,0,0,aud,A,63,1,0A,1A,1,0,z,2.03564200000073,0,1,0,0,1A,0A,A01,2.52572864430826,0.55011527063748,0.461921779977373,0.486970682985069,0.5,0.5,0.605755801215775,0.5,0.5,0.5,0.5,0.595207460572824,0.5,0.5,0.5,0.5,0.571133359343118,0.456427736214536,0.543572263785464,0.461921779977373,0.55011527063748,0.0727316523790497,0.135319918862791,-0.461921779977373,-0.0120370506148529,0.5,0.0260586340298622,1.09901731127413,8.88072377401252,2.39158186131554,0.5,68.0314650773389
CBC_1030,CBC_1030_MSI_AV_v3_Vset6_Aset3_2023-08-23_15h13.18.002.csv,2,36,1,2,z,0,1,2,aud,C,9,1,1C,2C,0,1,b,2.02647440000055,1,0,0,0,1C,2C,C12,3.93182563272433,0.55011527063748,0.44988472936252,0.486970682985069,0.5,0.5,0.605755801215775,0.5,0.5,0.5,0.5,0.595207460572824,0.5,0.5,0.5,0.5,0.571133359343118,0.456534508757351,0.543465491242649,0.5,0.595207460572824,0.0741496630613148,0.136634425651009,-0.5,-0.0130293170149311,0.5,0.0260586340298622,1.09901731127413,8.88072377401252,2.39158186131554,0.5,68.0314650773389
CBC_1030,CBC_1030_MSI_AV_v3_Vset6_Aset3_2023-08-23_15h13.18.002.csv,2,37,1,0,z,0,1,0,aud,A,63,1,1A,0A,0,1,b,2.62332409999999,1,0,0,0,1A,0A,A10,2.85263142991332,0.55011527063748,0.44988472936252,0.486970682985069,0.5,0.5,0.605755801215775,0.5,0.5,0.5,0.486970682985069,0.595207460572824,0.5,0.5,0.5,0.5,0.571133359343118,0.44988472936252,0.55011527063748,0.44988472936252,0.55011527063748,0.0277114203844476,0.106040675363523,-0.44988472936252,-0.0117233815180815,0.5,0.0260586340298622,1.09901731127413,8.88072377401252,2.39158186131554,0.5,68.0314650773389
CBC_1030,CBC_1030_MSI_AV_v3_Vset6_Aset3_2023-08-23_15h13.18.002.csv,2,38,3,1,b,1,0,1,aud,D,27,1,3D,1D,1,0,b,2.05309169999964,1,0,1,1,3D,1D,D31,3.27714473299218,0.55011527063748,0.438161347844439,0.486970682985069,0.5,0.5,0.605755801215775,0.5,0.5,0.5,0.486970682985069,0.595207460572824,0.5,0.5,0.5,0.5,0.571133359343118,0.533204716631523,0.466795283368477,0.571133359343118,0.5,0.411592085746866,0.803513575830422,0.428866640656882,0.0111756788364941,0.5,0.0260586340298622,1.09901731127413,8.88072377401252,2.39158186131554,0.5,68.0314650773389
CBC_1030,CBC_1030_MSI_AV_v3_Vset6_Aset3_2023-08-23_15h13.18.002.csv,2,39,0,1,z,0,1,3,aud,B,63,1,0B,1B,0,1,z,2.34915910000018,0,1,1,1,1B,0B,B01,3.29583686600433,0.55011527063748,0.438161347844439,0.486970682985069,0.5,0.5,0.605755801215775,0.5,0.5,0.5,0.486970682985069,0.595207460572824,0.5,0.5,0.5,0.5,0.582309038179612,0.547820595243316,0.452179404756684,0.605755801215775,0.5,0.32844522477563,0.884421221203207,0.394244198784225,0.0102734652945144,0.5,0.0260586340298622,1.09901731127413,8.88072377401252,2.39158186131554,0.5,68.0314650773389
CBC_1030,CBC_1030_MSI_AV_v3_Vset6_Aset3_2023-08-23_15h13.18.002.csv,2,40,2,3,b,1,0,2,aud,C,63,0,2C,3C,0,1,b,2.66689700000006,1,0,1,0,2C,3C,C23,2.90872089656436,0.55011527063748,0.438161347844439,0.486970682985069,0.5,0.5,0.61602926651029,0.5,0.5,0.5,0.486970682985069,0.595207460572824,0.5,0.5,0.5,0.5,0.582309038179612,0.543465491242649,0.456534508757351,0.595207460572824,0.5,0.224015582896983,0.863729715385597,-0.595207460572824,-0.0155102933869109,0.5,0.0260586340298622,1.09901731127413,8.88072377401252,2.39158186131554,0.5,68.0314650773389
CBC_1030,CBC_1030_MSI_AV_v3_Vset6_Aset3_2023-08-23_15h13.18.002.csv,2,41,2,0,z,0,1,0,aud,A,27,1,2A,0A,0,1,b,2.38613139999961,1,0,0,0,2A,0A,A20,3.3322045101752,0.55011527063748,0.438161347844439,0.486970682985069,0.5,0.5,0.61602926651029,0.5,0.5,0.5,0.486970682985069,0.579697167185913,0.5,0.5,0.5,0.5,0.582309038179612,0.469556724092229,0.530443275907771,0.486970682985069,0.55011527063748,0.07816682488341,0.214448346239235,-0.486970682985069,-0.01268979081118,0.5,0.0260586340298622,1.09901731127413,8.88072377401252,2.39158186131554,0.5,68.0314650773389
CBC_1030,CBC_1030_MSI_AV_v3_Vset6_Aset3_2023-08-23_15h13.18.002.csv,2,42,3,2,b,1,0,1,aud,D,63,1,3D,2D,1,0,b,5.42694920000031,1,0,1,1,3D,2D,D32,4.04305126783455,0.55011527063748,0.438161347844439,0.474280892173889,0.5,0.5,0.61602926651029,0.5,0.5,0.5,0.486970682985069,0.579697167185913,0.5,0.5,0.5,0.5,0.582309038179612,0.538024739365594,0.461975260634406,0.582309038179612,0.5,0.0109553384648942,0.834374511936217,0.417690961820388,0.0108844559116586,0.5,0.0260586340298622,1.09901731127413,8.88072377401252,2.39158186131554,0.5,68.0314650773389
CBC_1030,CBC_1030_MSI_AV_v3_Vset6_Aset3_2023-08-23_15h13.18.002.csv,2,43,3,1,z,0,1,3,aud,B,27,1,3B,1B,0,1,z,2.28746349999983,0,1,1,1,1B,3B,B31,3.36729582998647,0.55011527063748,0.438161347844439,0.474280892173889,0.5,0.5,0.61602926651029,0.5,0.5,0.5,0.486970682985069,0.579697167185913,0.5,0.5,0.5,0.5,0.593193494091271,0.55198307517199,0.44801692482801,0.61602926651029,0.5,0.357865210049548,0.90154996322013,0.38397073348971,0.0100057528221861,0.5,0.0260586340298622,1.09901731127413,8.88072377401252,2.39158186131554,0.5,68.0314650773389
CBC_1030,CBC_1030_MSI_AV_v3_Vset6_Aset3_2023-08-23_15h13.18.002.csv,2,44,2,3,b,1,0,2,aud,C,63,1,2C,3C,1,0,b,2.06176149999919,1,0,1,1,2C,3C,C23,2.69124308278583,0.55011527063748,0.438161347844439,0.474280892173889,0.5,0.5,0.626035019332476,0.5,0.5,0.5,0.486970682985069,0.579697167185913,0.5,0.5,0.5,0.5,0.593193494091271,0.536907185462769,0.463092814537231,0.579697167185913,0.5,0.42506430846253,0.828181105618067,0.420302832814087,0.0109525177020166,0.5,0.0260586340298622,1.09901731127413,8.88072377401252,2.39158186131554,0.5,68.0314650773389
CBC_1030,CBC_1030_MSI_TV_v3_Vset4_Tset3_2023-08-23_15h54.43.458.csv,3,1,1,0,z,0,1,0,tac,A,63,1,1A,0A,0,1,z,2.66768869999942,0,1,1,1,0A,1A,A10,2.77258872223978,0.5,0.5,0.5,0.5,0.5,0.5,0.5,0.5,0.5,0.5,0.5,0.5,0.5,0.5,0.5,0.5,0.5,0.5,0.5,0.5,0.143349113036011,0.499747486305464,0.5,0.00661072231132848,0.5,0.013221444622657,1.08822644921041,6.2574747058247,3.15475692239036,0.5,89.6026525425098
CBC_1030,CBC_1030_MSI_TV_v3_Vset4_Tset3_2023-08-23_15h54.43.458.csv,3,2,2,3,b,1,0,2,tac,C,63,1,2C,3C,1,0,z,3.19693619999998,0,1,0,0,3C,2C,C23,2.83321334405622,0.506610722311329,0.5,0.5,0.5,0.5,0.5,0.5,0.5,0.5,0.5,0.5,0.5,0.5,0.5,0.5,0.5,0.5,0.5,0.5,0.5,0.110377956616828,0.497764889504947,-0.5,-0.00661072231132848,0.5,0.013221444622657,1.08822644921041,6.2574747058247,3.15475692239036,0.5,89.6026525425098
CBC_1030,CBC_1030_MSI_TV_v3_Vset4_Tset3_2023-08-23_15h54.43.458.csv,3,3,2,0,z,0,1,0,tac,A,27,1,2A,0A,0,1,z,3.68225439999878,0,1,1,1,0A,2A,A20,2.89037175789616,0.506610722311329,0.5,0.5,0.5,0.5,0.5,0.5,0.5,0.5,0.5,0.5,0.493389277688672,0.5,0.5,0.5,0.5,0.503283653832014,0.496716346167986,0.506610722311329,0.5,0.0929427305770444,0.532901919697667,0.493389277688671,0.00652331901237348,0.5,0.013221444622657,1.08822644921041,6.2574747058247,3.15475692239036,0.5,89.6026525425098
CBC_1030,CBC_1030_MSI_TV_v3_Vset4_Tset3_2023-08-23_15h54.43.458.csv,3,4,0,1,z,0,1,3,tac,B,63,1,0B,1B,0,1,z,2.73428719999902,0,1,1,1,1B,0B,B01,2.94443897916644,0.513134041323702,0.5,0.5,0.5,0.5,0.5,0.5,0.5,0.5,0.5,0.5,0.493389277688672,0.5,0.5,0.5,0.5,0.5,0.5,0.5,0.5,0.139147095179972,0.5007176046687,0.5,0.00661072231132848,0.5,0.013221444622657,1.08822644921041,6.2574747058247,3.15475692239036,0.5,89.6026525425098
CBC_1030,CBC_1030_MSI_TV_v3_Vset4_Tset3_2023-08-23_15h54.43.458.csv,3,5,1,0,b,1,0,3,tac,B,63,1,1B,0B,NaN,NaN,None,NaN,NaN,NaN,NaN,NaN,,,B10,2.99573227355399,0.513134041323702,0.5,0.5,0.5,0.5,0.506610722311329,0.5,0.5,0.5,0.5,0.5,0.493389277688672,0.5,0.5,0.5,0.5,0,0,0,0,NaN,0,0,0,0.5,0.013221444622657,1.08822644921041,6.2574747058247,3.15475692239036,0.5,89.6026525425098
CBC_1030,CBC_1030_MSI_TV_v3_Vset4_Tset3_2023-08-23_15h54.43.458.csv,3,6,2,3,b,1,0,2,tac,C,63,1,2C,3C,1,0,b,2.44490620000033,1,0,1,1,2C,3C,C23,2.35137525716348,0.513134041323702,0.5,0.5,0.5,0.5,0.506610722311329,0.5,0.5,0.5,0.5,0.5,0.493389277688672,0.5,0.5,0.5,0.5,0.503327357391409,0.496672642608591,0.5,0.493389277688672,0.169470944135899,0.53284649125222,0.5,0.00661072231132848,0.5,0.013221444622657,1.08822644921041,6.2574747058247,3.15475692239036,0.5,89.6026525425098
CBC_1030,CBC_1030_MSI_TV_v3_Vset4_Tset3_2023-08-23_15h54.43.458.csv,3,7,1,3,z,0,1,1,tac,D,27,1,1D,3D,0,1,z,3.44500729999891,0,1,1,1,3D,1D,D13,3.09104245335832,0.513134041323702,0.5,0.5,0.5,0.5,0.506610722311329,0.5,0.5,0.5,0.5,0.506610722311329,0.493389277688672,0.5,0.5,0.5,0.5,0.5,0.5,0.5,0.5,0.0981108399024201,0.50013670645751,0.5,0.00661072231132848,0.5,0.013221444622657,1.08822644921041,6.2574747058247,3.15475692239036,0.5,89.6026525425098
CBC_1030,CBC_1030_MSI_TV_v3_Vset4_Tset3_2023-08-23_15h54.43.458.csv,3,8,2,1,b,1,0,2,tac,C,9,1,2C,1C,1,0,b,2.89321449999807,1,0,1,1,2C,1C,C21,3.13549421592915,0.513134041323702,0.5,0.5,0.5,0.5,0.506610722311329,0.5,0.5,0.5,0.5,0.506610722311329,0.493389277688672,0.5,0.5,0.5,0.506610722311329,0.503283653832014,0.496716346167986,0.506610722311329,0.5,0.137094367540799,0.532376899933707,0.493389277688671,0.00652331901237348,0.5,0.013221444622657,1.08822644921041,6.2574747058247,3.15475692239036,0.5,89.6026525425098
CBC_1030,CBC_1030_MSI_TV_v3_Vset4_Tset3_2023-08-23_15h54.43.458.csv,3,9,1,3,b,1,0,3,tac,B,27,1,1B,3B,1,0,z,5.12003369999911,0,1,0,0,3B,1B,B13,3.17805383034795,0.513134041323702,0.5,0.5,0.5,0.5,0.506610722311329,0.5,0.5,0.5,0.5,0.513134041323702,0.493389277688672,0.5,0.5,0.5,0.506610722311329,0.496716346167986,0.503283653832014,0.5,0.506610722311329,0.0399194525255649,0.46742842927835,-0.5,-0.00661072231132848,0.5,0.013221444622657,1.08822644921041,6.2574747058247,3.15475692239036,0.5,89.6026525425098
CBC_1030,CBC_1030_MSI_TV_v3_Vset4_Tset3_2023-08-23_15h54.43.458.csv,3,10,2,3,z,0,1,1,tac,D,63,1,2D,3D,0,1,z,3.20889949999946,0,1,1,1,3D,2D,D23,3.2188758248682,0.513134041323702,0.5,0.5,0.5,0.5,0.506610722311329,0.5,0.493389277688672,0.5,0.5,0.513134041323702,0.493389277688672,0.5,0.5,0.5,0.506610722311329,0.503283653832014,0.496716346167986,0.506610722311329,0.5,0.11719511616095,0.531480435703672,0.493389277688671,0.00652331901237348,0.5,0.013221444622657,1.08822644921041,6.2574747058247,3.15475692239036,0.5,89.6026525425098
CBC_1030,CBC_1030_MSI_TV_v3_Vset4_Tset3_2023-08-23_15h54.43.458.csv,3,11,0,1,z,0,1,3,tac,B,63,1,0B,1B,0,1,z,4.48920019999969,0,1,1,1,1B,0B,B01,2.56494935746154,0.513134041323702,0.5,0.5,0.5,0.5,0.506610722311329,0.5,0.493389277688672,0.5,0.5,0.513134041323702,0.493389277688672,0.5,0.5,0.5,0.513134041323702,0.503283653832014,0.496716346167986,0.506610722311329,0.5,0.0619957560330246,0.530612085863151,0.493389277688671,0.00652331901237348,0.5,0.013221444622657,1.08822644921041,6.2574747058247,3.15475692239036,0.5,89.6026525425098
CBC_1030,CBC_1030_MSI_TV_v3_Vset4_Tset3_2023-08-23_15h54.43.458.csv,3,12,2,0,b,1,0,2,tac,C,27,1,2C,0C,1,0,z,2.78980929999852,0,1,0,0,0C,2C,C20,3.29583686600433,0.513134041323702,0.5,0.5,0.5,0.5,0.513134041323702,0.5,0.493389277688672,0.5,0.5,0.513134041323702,0.493389277688672,0.5,0.5,0.5,0.513134041323702,0.493518112713624,0.506481887286376,0.5,0.513134041323702,0.118839587073995,0.438132426459131,-0.5,-0.00661072231132848,0.5,0.013221444622657,1.08822644921041,6.2574747058247,3.15475692239036,0.5,89.6026525425098
CBC_1030,CBC_1030_MSI_TV_v3_Vset4_Tset3_2023-08-23_15h54.43.458.csv,3,13,2,3,z,0,1,1,tac,D,63,0,2D,3D,1,0,z,3.06049910000002,0,1,1,0,3D,2D,D23,2.63905732961526,0.513134041323702,0.5,0.5,0.5,0.5,0.513134041323702,0.5,0.493389277688672,0.493389277688672,0.5,0.513134041323702,0.493389277688672,0.5,0.5,0.5,0.513134041323702,0.506481887286376,0.493518112713624,0.513134041323702,0.5,0.133946247241623,0.563868991767573,-0.513134041323702,-0.00678437331136149,0.5,0.013221444622657,1.08822644921041,6.2574747058247,3.15475692239036,0.5,89.6026525425098
CBC_1030,CBC_1030_MSI_TV_v3_Vset4_Tset3_2023-08-23_15h54.43.458.csv,3,14,0,1,b,1,0,0,tac,A,63,1,0A,1A,NaN,NaN,None,NaN,NaN,NaN,NaN,NaN,,,A01,3.36729582998647,0.513134041323702,0.5,0.5,0.5,0.5,0.513134041323702,0.5,0.493389277688672,0.493389277688672,0.5,0.513134041323702,0.493389277688672,0.5,0.5,0.5,0.50634966801234,0,0,0,0,NaN,0,0,0,0.5,0.013221444622657,1.08822644921041,6.2574747058247,3.15475692239036,0.5,89.6026525425098
CBC_1030,CBC_1030_MSI_TV_v3_Vset4_Tset3_2023-08-23_15h54.43.458.csv,3,15,3,2,z,0,1,2,tac,C,63,1,3C,2C,0,1,z,2.29179319999821,0,1,1,1,2C,3C,C32,3.40119738166216,0.513134041323702,0.5,0.5,0.5,0.5,0.513134041323702,0.5,0.493389277688672,0.493389277688672,0.5,0.513134041323702,0.493389277688672,0.5,0.5,0.5,0.50634966801234,0.509808398505066,0.490191601494934,0.513134041323702,0.493389277688672,0.203939178437948,0.596169206579647,0.486865958676298,0.00643707131129546,0.5,0.013221444622657,1.08822644921041,6.2574747058247,3.15475692239036,0.5,89.6026525425098
CBC_1030,CBC_1030_MSI_TV_v3_Vset4_Tset3_2023-08-23_15h54.43.458.csv,3,16,2,0,z,0,1,0,tac,A,27,1,2A,0A,0,1,z,2.67767259999891,0,1,1,1,0A,2A,A20,2.7408400239252,0.513134041323702,0.5,0.5,0.5,0.5,0.513134041323702,0.5,0.493389277688672,0.493389277688672,0.5,0.519571112634997,0.493389277688672,0.5,0.5,0.5,0.50634966801234,0.506481887286376,0.493518112713624,0.513134041323702,0.5,0.161523532056183,0.564094011704732,0.486865958676298,0.00643707131129546,0.5,0.013221444622657,1.08822644921041,6.2574747058247,3.15475692239036,0.5,89.6026525425098
CBC_1030,CBC_1030_MSI_TV_v3_Vset4_Tset3_2023-08-23_15h54.43.458.csv,3,17,3,2,b,1,0,1,tac,D,63,1,3D,2D,1,0,b,4.78233139999793,1,0,1,1,3D,2D,D32,3.46573590279973,0.519571112634997,0.5,0.5,0.5,0.5,0.513134041323702,0.5,0.493389277688672,0.493389277688672,0.5,0.519571112634997,0.493389277688672,0.5,0.5,0.5,0.50634966801234,0.503154802060442,0.496845197939558,0.50634966801234,0.5,0.0536839951932215,0.531496898217121,0.49365033198766,0.00652677052733106,0.5,0.013221444622657,1.08822644921041,6.2574747058247,3.15475692239036,0.5,89.6026525425098
CBC_1030,CBC_1030_MSI_TV_v3_Vset4_Tset3_2023-08-23_15h54.43.458.csv,3,18,2,3,z,0,1,1,tac,D,63,1,2D,3D,0,1,b,2.70271599999796,1,0,0,0,2D,3D,D23,2.39789527279837,0.519571112634997,0.5,0.5,0.5,0.5,0.513134041323702,0.5,0.493389277688672,0.493389277688672,0.5,0.519571112634997,0.493389277688672,0.5,0.5,0.5,0.512876438539672,0.493643628161478,0.506356371838522,0.5,0.512876438539672,0.123992146377885,0.438335251523793,-0.5,-0.00661072231132848,0.5,0.013221444622657,1.08822644921041,6.2574747058247,3.15475692239036,0.5,89.6026525425098
CBC_1030,CBC_1030_MSI_TV_v3_Vset4_Tset3_2023-08-23_15h54.43.458.csv,3,19,1,3,b,1,0,3,tac,B,27,1,1B,3B,1,0,b,2.41699609999887,1,0,1,1,1B,3B,B13,2.83321334405622,0.519571112634997,0.5,0.5,0.5,0.5,0.513134041323702,0.5,0.493389277688672,0.493389277688672,0.5,0.519571112634997,0.493389277688672,0.5,0.5,0.493389277688672,0.512876438539672,0.509808398505066,0.490191601494934,0.513134041323702,0.493389277688672,0.193283523145677,0.595766163777782,0.486865958676298,0.00643707131129546,0.5,0.013221444622657,1.08822644921041,6.2574747058247,3.15475692239036,0.5,89.6026525425098
CBC_1030,CBC_1030_MSI_TV_v3_Vset4_Tset3_2023-08-23_15h54.43.458.csv,3,20,3,0,b,1,0,1,tac,D,9,1,3D,0D,1,0,z,3.68610909999734,0,1,0,0,0D,3D,D30,3.55534806148941,0.519571112634997,0.5,0.5,0.5,0.5,0.519571112634997,0.5,0.493389277688672,0.493389277688672,0.5,0.519571112634997,0.493389277688672,0.5,0.5,0.493389277688672,0.512876438539672,0.493643628161478,0.506356371838522,0.5,0.512876438539672,0.0763153883675561,0.438517849404881,-0.5,-0.00661072231132848,0.5,0.013221444622657,1.08822644921041,6.2574747058247,3.15475692239036,0.5,89.6026525425098
CBC_1030,CBC_1030_MSI_TV_v3_Vset4_Tset3_2023-08-23_15h54.43.458.csv,3,21,0,1,z,0,1,3,tac,B,63,1,0B,1B,0,1,b,2.63318059999801,1,0,0,0,0B,1B,B01,2.484906649788,0.519571112634997,0.5,0.5,0.5,0.5,0.519571112634997,0.5,0.493389277688672,0.493389277688672,0.5,0.519571112634997,0.493389277688672,0.493389277688672,0.5,0.493389277688672,0.512876438539672,0.490402281708229,0.509597718291772,0.5,0.519571112634997,0.11931046663646,0.406506843003462,-0.5,-0.00661072231132848,0.5,0.013221444622657,1.08822644921041,6.2574747058247,3.15475692239036,0.5,89.6026525425098
CBC_1030,CBC_1030_MSI_TV_v3_Vset4_Tset3_2023-08-23_15h54.43.458.csv,3,22,0,1,b,1,0,0,tac,A,63,1,0A,1A,1,0,b,2.48531219999859,1,0,1,1,0A,1A,A01,2.91777073208428,0.519571112634997,0.5,0.5,0.5,0.493389277688672,0.519571112634997,0.5,0.493389277688672,0.493389277688672,0.5,0.519571112634997,0.493389277688672,0.493389277688672,0.5,0.493389277688672,0.512876438539672,0.509597718291772,0.490402281708229,0.519571112634997,0.5,0.185987711242689,0.59155606245361,0.480428887365003,0.00635196392942108,0.5,0.013221444622657,1.08822644921041,6.2574747058247,3.15475692239036,0.5,89.6026525425098
CBC_1030,CBC_1030_MSI_TV_v3_Vset4_Tset3_2023-08-23_15h54.43.458.csv,3,23,3,2,z,0,1,2,tac,C,63,1,3C,2C,0,1,b,2.57223409999824,1,0,0,0,3C,2C,C32,2.94443897916644,0.525923076564419,0.5,0.5,0.5,0.493389277688672,0.519571112634997,0.5,0.493389277688672,0.493389277688672,0.5,0.519571112634997,0.493389277688672,0.493389277688672,0.5,0.493389277688672,0.512876438539672,0.487076575157119,0.512923424842881,0.493389277688672,0.519571112634997,0.114148991069491,0.375772644852019,-0.493389277688672,-0.00652331901237348,0.5,0.013221444622657,1.08822644921041,6.2574747058247,3.15475692239036,0.5,89.6026525425098
CBC_1030,CBC_1030_MSI_TV_v3_Vset4_Tset3_2023-08-23_15h54.43.458.csv,3,24,2,0,z,0,1,0,tac,A,27,1,2A,0A,NaN,NaN,None,NaN,NaN,NaN,NaN,NaN,,,A20,2.56494935746154,0.525923076564419,0.5,0.5,0.5,0.493389277688672,0.519571112634997,0.5,0.493389277688672,0.493389277688672,0.5,0.519571112634997,0.486865958676298,0.493389277688672,0.5,0.493389277688672,0.512876438539672,0,0,0,0,NaN,0,0,0,0.5,0.013221444622657,1.08822644921041,6.2574747058247,3.15475692239036,0.5,89.6026525425098
CBC_1030,CBC_1030_MSI_TV_v3_Vset4_Tset3_2023-08-23_15h54.43.458.csv,3,25,0,1,z,0,1,3,tac,B,63,1,0B,1B,0,1,z,2.91159479999806,0,1,1,1,1B,0B,B01,2.30258509299405,0.525923076564419,0.5,0.5,0.5,0.493389277688672,0.519571112634997,0.5,0.493389277688672,0.493389277688672,0.5,0.519571112634997,0.486865958676298,0.493389277688672,0.5,0.493389277688672,0.512876438539672,0.512923424842881,0.487076575157119,0.519571112634997,0.493389277688672,0.160657338792086,0.624632945369373,0.480428887365003,0.00635196392942108,0.5,0.013221444622657,1.08822644921041,6.2574747058247,3.15475692239036,0.5,89.6026525425098
CBC_1030,CBC_1030_MSI_TV_v3_Vset4_Tset3_2023-08-23_15h54.43.458.csv,3,26,3,2,b,1,0,1,tac,D,63,1,3D,2D,1,0,b,1.50209339999856,1,0,1,1,3D,2D,D32,3.02042488614436,0.525923076564419,0.5,0.5,0.5,0.493389277688672,0.525923076564419,0.5,0.493389277688672,0.493389277688672,0.5,0.519571112634997,0.486865958676298,0.493389277688672,0.5,0.493389277688672,0.512876438539672,0.509682910058807,0.490317089941193,0.512876438539672,0.493389277688672,0.141255526192118,0.594680434055836,0.487123561460328,0.00644047719223916,0.5,0.013221444622657,1.08822644921041,6.2574747058247,3.15475692239036,0.5,89.6026525425098
CBC_1030,CBC_1030_MSI_TV_v3_Vset4_Tset3_2023-08-23_15h54.43.458.csv,3,27,2,1,z,0,1,3,tac,B,9,1,2B,1B,0,1,b,3.39773159999822,1,0,0,0,2B,1B,B21,3.73766961828337,0.525923076564419,0.5,0.5,0.5,0.493389277688672,0.525923076564419,0.5,0.493389277688672,0.493389277688672,0.5,0.519571112634997,0.486865958676298,0.493389277688672,0.5,0.493389277688672,0.519316915731911,0.487365974527433,0.512634025472567,0.5,0.525923076564419,0.0762233824964369,0.378864180671878,-0.5,-0.00661072231132848,0.5,0.013221444622657,1.08822644921041,6.2574747058247,3.15475692239036,0.5,89.6026525425098
CBC_1030,CBC_1030_MSI_TV_v3_Vset4_Tset3_2023-08-23_15h54.43.458.csv,3,28,3,1,b,1,0,1,tac,D,27,1,3D,1D,1,0,z,3.31211330000042,0,1,0,0,1D,3D,D31,3.76120011569356,0.525923076564419,0.5,0.5,0.5,0.493389277688672,0.525923076564419,0.493389277688672,0.493389277688672,0.493389277688672,0.5,0.519571112634997,0.486865958676298,0.493389277688672,0.5,0.493389277688672,0.519316915731911,0.490524578061162,0.509475421938839,0.5,0.519316915731911,0.0857499091285448,0.408621275531026,-0.5,-0.00661072231132848,0.5,0.013221444622657,1.08822644921041,6.2574747058247,3.15475692239036,0.5,89.6026525425098
CBC_1030,CBC_1030_MSI_TV_v3_Vset4_Tset3_2023-08-23_15h54.43.458.csv,3,29,0,1,b,1,0,0,tac,A,63,1,0A,1A,1,0,b,2.83368489999884,1,0,1,1,0A,1A,A01,2.68557734525015,0.525923076564419,0.5,0.5,0.5,0.493389277688672,0.525923076564419,0.493389277688672,0.493389277688672,0.493389277688672,0.5,0.519571112634997,0.486865958676298,0.493389277688672,0.493389277688672,0.493389277688672,0.519316915731911,0.512634025472567,0.487365974527433,0.525923076564419,0.5,0.166378097285548,0.622425628287259,0.474076923435581,0.00626798179008312,0.5,0.013221444622657,1.08822644921041,6.2574747058247,3.15475692239036,0.5,89.6026525425098
CBC_1030,CBC_1030_MSI_TV_v3_Vset4_Tset3_2023-08-23_15h54.43.458.csv,3,30,1,0,z,0,1,0,tac,A,63,1,1A,0A,0,1,z,2.57900779999909,0,1,1,1,0A,1A,A10,3.11351530921037,0.532191058354502,0.5,0.5,0.5,0.493389277688672,0.525923076564419,0.493389277688672,0.493389277688672,0.493389277688672,0.5,0.519571112634997,0.486865958676298,0.493389277688672,0.493389277688672,0.493389277688672,0.519316915731911,0.515593556102792,0.484406443897208,0.532191058354502,0.5,0.19774215664292,0.649333534755083,0.467808941645498,0.00618511001594971,0.5,0.013221444622657,1.08822644921041,6.2574747058247,3.15475692239036,0.5,89.6026525425098
CBC_1030,CBC_1030_MSI_TV_v3_Vset4_Tset3_2023-08-23_15h54.43.458.csv,3,31,2,0,b,1,0,2,tac,C,27,1,2C,0C,1,0,b,2.71633129999827,1,0,1,1,2C,0C,C20,3.13549421592915,0.538376168370451,0.5,0.5,0.5,0.493389277688672,0.525923076564419,0.493389277688672,0.493389277688672,0.493389277688672,0.5,0.519571112634997,0.486865958676298,0.493389277688672,0.493389277688672,0.493389277688672,0.519316915731911,0.512923424842881,0.487076575157119,0.519571112634997,0.493389277688672,0.177330915311352,0.625716499896206,0.480428887365003,0.00635196392942108,0.5,0.013221444622657,1.08822644921041,6.2574747058247,3.15475692239036,0.5,89.6026525425098
CBC_1030,CBC_1030_MSI_TV_v3_Vset4_Tset3_2023-08-23_15h54.43.458.csv,3,32,0,1,b,1,0,0,tac,A,63,1,0A,1A,1,0,b,3.27788879999753,1,0,1,1,0A,1A,A01,2.46385324059017,0.538376168370451,0.5,0.5,0.5,0.493389277688672,0.525923076564419,0.493389277688672,0.493389277688672,0.493389277688672,0.5,0.525923076564419,0.486865958676298,0.493389277688672,0.493389277688672,0.493389277688672,0.519316915731911,0.518478933521113,0.481521066478887,0.538376168370451,0.5,0.144676133710511,0.6745969116818,0.461623831629549,0.00610333392638879,0.5,0.013221444622657,1.08822644921041,6.2574747058247,3.15475692239036,0.5,89.6026525425098
CBC_1030,CBC_1030_MSI_TV_v3_Vset4_Tset3_2023-08-23_15h54.43.458.csv,3,33,0,1,z,0,1,3,tac,B,63,1,0B,1B,0,1,z,4.31170190000012,0,1,1,1,1B,0B,B01,2.26176309847379,0.54447950229684,0.5,0.5,0.5,0.493389277688672,0.525923076564419,0.493389277688672,0.493389277688672,0.493389277688672,0.5,0.525923076564419,0.486865958676298,0.493389277688672,0.493389277688672,0.493389277688672,0.519316915731911,0.51595869938199,0.48404130061801,0.525923076564419,0.493389277688672,0.0821008459042386,0.653167895562816,0.474076923435581,0.00626798179008312,0.5,0.013221444622657,1.08822644921041,6.2574747058247,3.15475692239036,0.5,89.6026525425098
CBC_1030,CBC_1030_MSI_TV_v3_Vset4_Tset3_2023-08-23_15h54.43.458.csv,3,34,2,3,z,0,1,1,tac,D,63,1,2D,3D,0,1,z,2.91034169999875,0,1,1,1,3D,2D,D23,2.50552593699074,0.54447950229684,0.5,0.5,0.5,0.493389277688672,0.532191058354502,0.493389277688672,0.493389277688672,0.493389277688672,0.5,0.525923076564419,0.486865958676298,0.493389277688672,0.493389277688672,0.493389277688672,0.519316915731911,0.512801164943834,0.487198835056166,0.519316915731911,0.493389277688672,0.160554009374352,0.623901003126264,0.480683084268089,0.00635532477969849,0.5,0.013221444622657,1.08822644921041,6.2574747058247,3.15475692239036,0.5,89.6026525425098
CBC_1030,CBC_1030_MSI_TV_v3_Vset4_Tset3_2023-08-23_15h54.43.458.csv,3,35,1,3,b,1,0,3,tac,B,27,1,1B,3B,1,0,z,4.11516069999925,0,1,0,0,3B,1B,B13,2.81341071676004,0.54447950229684,0.5,0.5,0.5,0.493389277688672,0.532191058354502,0.493389277688672,0.493389277688672,0.493389277688672,0.5,0.525923076564419,0.486865958676298,0.493389277688672,0.493389277688672,0.493389277688672,0.525672240511609,0.481083012562657,0.518916987437343,0.493389277688672,0.532191058354502,0.0444100065362994,0.320887851853461,-0.493389277688672,-0.00652331901237348,0.5,0.013221444622657,1.08822644921041,6.2574747058247,3.15475692239036,0.5,89.6026525425098
CBC_1030,CBC_1030_MSI_TV_v3_Vset4_Tset3_2023-08-23_15h54.43.458.csv,3,36,2,3,b,1,0,2,tac,C,63,1,2C,3C,1,0,z,3.25359359999857,0,1,0,0,3C,2C,C23,2.83321334405622,0.54447950229684,0.5,0.5,0.5,0.493389277688672,0.532191058354502,0.493389277688672,0.486865958676298,0.493389277688672,0.5,0.525923076564419,0.486865958676298,0.493389277688672,0.493389277688672,0.493389277688672,0.525672240511609,0.480718038738029,0.519281961261971,0.486865958676298,0.525923076564419,0.0692026753969978,0.318462505895598,-0.486865958676298,-0.00643707131129546,0.5,0.013221444622657,1.08822644921041,6.2574747058247,3.15475692239036,0.5,89.6026525425098
CBC_1030,CBC_1030_MSI_TV_v3_Vset4_Tset3_2023-08-23_15h54.43.458.csv,3,37,0,2,z,0,1,2,tac,C,27,1,0C,2C,0,1,b,5.56151299999874,1,0,0,0,0C,2C,C02,3.95124371858143,0.54447950229684,0.5,0.5,0.5,0.493389277688672,0.532191058354502,0.493389277688672,0.486865958676298,0.493389277688672,0.5,0.525923076564419,0.480428887365003,0.493389277688672,0.493389277688672,0.493389277688672,0.525672240511609,0.48404130061801,0.51595869938199,0.493389277688672,0.525923076564419,0.0228913495457271,0.347021399965488,-0.493389277688672,-0.00652331901237348,0.5,0.013221444622657,1.08822644921041,6.2574747058247,3.15475692239036,0.5,89.6026525425098
CBC_1030,CBC_1030_MSI_TV_v3_Vset4_Tset3_2023-08-23_15h54.43.458.csv,3,38,0,1,z,0,1,3,tac,B,63,1,0B,1B,0,1,z,4.05673919999754,0,1,1,1,1B,0B,B01,2.17853244432407,0.54447950229684,0.5,0.5,0.5,0.493389277688672,0.532191058354502,0.493389277688672,0.486865958676298,0.486865958676298,0.5,0.525923076564419,0.480428887365003,0.493389277688672,0.493389277688672,0.493389277688672,0.525672240511609,0.518916987437343,0.481083012562657,0.532191058354502,0.493389277688672,0.0969921830026445,0.679789929511413,0.467808941645498,0.00618511001594971,0.5,0.013221444622657,1.08822644921041,6.2574747058247,3.15475692239036,0.5,89.6026525425098
CBC_1030,CBC_1030_MSI_TV_v3_Vset4_Tset3_2023-08-23_15h54.43.458.csv,3,39,0,3,b,1,0,0,tac,A,9,1,0A,3A,1,0,b,2.29824739999822,1,0,1,1,0A,3A,A03,3.98898404656427,0.54447950229684,0.5,0.5,0.5,0.493389277688672,0.538376168370451,0.493389277688672,0.486865958676298,0.486865958676298,0.5,0.525923076564419,0.480428887365003,0.493389277688672,0.493389277688672,0.493389277688672,0.525672240511609,0.521292664048949,0.478707335951051,0.54447950229684,0.5,0.246529056242485,0.698827625736297,0.45552049770316,0.00602263903486746,0.5,0.013221444622657,1.08822644921041,6.2574747058247,3.15475692239036,0.5,89.6026525425098
CBC_1030,CBC_1030_MSI_TV_v3_Vset4_Tset3_2023-08-23_15h54.43.458.csv,3,40,2,3,b,1,0,2,tac,C,63,0,2C,3C,0,1,z,2.90397259999736,0,1,0,1,3C,2C,C23,2.62103882411258,0.550502141331708,0.5,0.5,0.5,0.493389277688672,0.538376168370451,0.493389277688672,0.486865958676298,0.486865958676298,0.5,0.525923076564419,0.480428887365003,0.493389277688672,0.493389277688672,0.493389277688672,0.525672240511609,0.477396482130477,0.522603517869523,0.480428887365003,0.525923076564419,0.0763077447872303,0.291083914941518,0.519571112634997,0.00686948069323588,0.5,0.013221444622657,1.08822644921041,6.2574747058247,3.15475692239036,0.5,89.6026525425098
CBC_1030,CBC_1030_MSI_TV_v3_Vset4_Tset3_2023-08-23_15h54.43.458.csv,3,41,0,1,b,1,0,0,tac,A,63,1,0A,1A,1,0,b,2.98605279999902,1,0,1,1,0A,1A,A01,2.41591377830105,0.550502141331708,0.5,0.5,0.5,0.493389277688672,0.538376168370451,0.493389277688672,0.486865958676298,0.486865958676298,0.5,0.525923076564419,0.487298368058239,0.493389277688672,0.493389277688672,0.493389277688672,0.525672240511609,0.524037143450125,0.475962856549875,0.550502141331708,0.5,0.181463992370805,0.721158188406015,0.449497858668292,0.00594301104638571,0.5,0.013221444622657,1.08822644921041,6.2574747058247,3.15475692239036,0.5,89.6026525425098
CBC_1030,CBC_1030_MSI_TV_v3_Vset4_Tset3_2023-08-23_15h54.43.458.csv,3,42,2,3,z,0,1,1,tac,D,63,1,2D,3D,0,1,z,2.70282089999819,0,1,1,1,3D,2D,D23,2.43361335540045,0.556445152378093,0.5,0.5,0.5,0.493389277688672,0.538376168370451,0.493389277688672,0.486865958676298,0.486865958676298,0.5,0.525923076564419,0.487298368058239,0.493389277688672,0.493389277688672,0.493389277688672,0.525672240511609,0.515839555437218,0.484160444562782,0.525672240511609,0.493389277688672,0.186915383040729,0.651769286432647,0.474327759488391,0.0062712982050647,0.5,0.013221444622657,1.08822644921041,6.2574747058247,3.15475692239036,0.5,89.6026525425098
CBC_1030,CBC_1030_MSI_TV_v3_Vset4_Tset3_2023-08-23_15h54.43.458.csv,3,43,3,2,z,0,1,2,tac,C,63,1,3C,2C,0,1,b,3.30596249999871,1,0,0,0,3C,2C,C32,2.96183072187831,0.556445152378093,0.5,0.5,0.5,0.493389277688672,0.538376168370451,0.493389277688672,0.486865958676298,0.486865958676298,0.5,0.525923076564419,0.487298368058239,0.493389277688672,0.493389277688672,0.493389277688672,0.531943538716674,0.480939651094453,0.519060348905547,0.487298368058239,0.525923076564419,0.0677798612735618,0.320612709154697,-0.487298368058239,-0.00644278838799311,0.5,0.013221444622657,1.08822644921041,6.2574747058247,3.15475692239036,0.5,89.6026525425098
CBC_1030,CBC_1030_MSI_TV_v3_Vset4_Tset3_2023-08-23_15h54.43.458.csv,3,44,3,1,b,1,0,1,tac,D,27,1,3D,1D,1,0,b,3.34643699999833,1,0,1,1,3D,1D,D31,3.38439026334577,0.556445152378093,0.5,0.5,0.5,0.493389277688672,0.538376168370451,0.493389277688672,0.486865958676298,0.486865958676298,0.5,0.525923076564419,0.480855579670245,0.493389277688672,0.493389277688672,0.493389277688672,0.531943538716674,0.518800851982465,0.481199148017535,0.531943538716674,0.493389277688672,0.140096334891693,0.67691757851027,0.468056461283326,0.00618838258313427,0.5,0.013221444622657,1.08822644921041,6.2574747058247,3.15475692239036,0.5,89.6026525425098
