ID,session,trialNr,mod2Stim,visStimLeft,visStimRight,correctKey,frequency,rewardAccurate,probFB,stimPairLeft,stimPairRight,leftCorrect,rightCorrect,pCorrectLeft,pCorrectRight,triplet,rt,surprise,0A belief,1A belief,2A belief,3A belief,0B belief,1B belief,2B belief,3B belief,0C belief,1C belief,2C belief,3C belief,0D belief,1D belief,2D belief,3D belief,reactionTime,choice,choiceLeft,choiceRight,chosenPair,otherPair,beliefPair,beliefOtherPair,beliefPairNorm,beliefOtherPairNorm,choiceAccurate,reward,rewardPE,update2,sim_CBCsimpleRW_CBCdriftDiffusionLR_startBelief,sim_CBCsimpleRW_CBCdriftDiffusionLR_alpha1,sim_CBCsimpleRW_CBCdriftDiffusionLR_nonDecisionTime,sim_CBCsimpleRW_CBCdriftDiffusionLR_weight,sim_CBCsimpleRW_CBCdriftDiffusionLR_startingBoundary,sim_CBCsimpleRW_CBCdriftDiffusionLR_startingPoint,lik,corrLik,fitCBCsimpleRW_CBCdriftDiffusionLR_startBelief,fitCBCsimpleRW_CBCdriftDiffusionLR_alpha1,fitCBCsimpleRW_CBCdriftDiffusionLR_nonDecisionTime,fitCBCsimpleRW_CBCdriftDiffusionLR_weight,fitCBCsimpleRW_CBCdriftDiffusionLR_startingBoundary,fitCBCsimpleRW_CBCdriftDiffusionLR_startingPoint,fit_CBCsimpleRW_CBCdriftDiffusionLR_NLL
127,1,1,B,1,0,a,63,1,0.91,1B,0B,1,0,1,0,B10,0.768635238304622,2.77258872223978,0.5,0.5,0.5,0.5,0.5,0.5,0.5,0.5,0.5,0.5,0.5,0.5,0.5,0.5,0.5,0.5,2.50795135563544,0,0,1,0B,1B,0.5,0.5,0.5,0.5,0,0,-0.5,-0.486692790888494,0.5,0.920296557916233,0.84995135563544,9.52305988408594,3.0149083158572,0.5,0.138895127603354,0.499984518232698,0.5,0.973385581776989,0.890695717476042,10.0446535272807,2.46180108266764,0.5,-34.3399123304106
127,1,2,A,1,0,l,63,1,0.91,1A,0A,0,1,0,1,A10,2.83240542858753,2.83321334405622,0.5,0.5,0.5,0.5,0.0133072091115056,0.5,0.5,0.5,0.5,0.5,0.5,0.5,0.5,0.5,0.5,0.5,4.93995135563544,0,0,1,0A,1A,0.5,0.5,0.5,0.5,1,1,0.5,0.486692790888494,0.5,0.920296557916233,0.84995135563544,9.52305988408594,3.0149083158572,0.5,0.0191834088539833,0.500249932827386,0.5,0.973385581776989,0.890695717476042,10.0446535272807,2.46180108266764,0.5,-34.3399123304106
127,1,3,D,3,2,a,63,1,0.91,3D,2D,1,0,1,0,D32,0.219780310351143,2.89037175789616,0.986692790888494,0.5,0.5,0.5,0.0133072091115056,0.5,0.5,0.5,0.5,0.5,0.5,0.5,0.5,0.5,0.5,0.5,2.39395135563544,0,0,1,2D,3D,0.5,0.5,0.5,0.5,0,0,-0.5,-0.486692790888494,0.5,0.920296557916233,0.84995135563544,9.52305988408594,3.0149083158572,0.5,0.152368530752578,0.499907044449193,0.5,0.973385581776989,0.890695717476042,10.0446535272807,2.46180108266764,0.5,-34.3399123304106
127,1,4,B,1,2,a,9,1,0.91,1B,2B,1,0,1,0,B12,2.33749539854956,2.94443897916644,0.986692790888494,0.5,0.5,0.5,0.0133072091115056,0.5,0.5,0.5,0.5,0.5,0.5,0.5,0.5,0.5,0.0133072091115056,0.5,4.88095135563544,1,1,0,1B,2B,0.5,0.5,0.5,0.5,1,1,0.5,0.486692790888494,0.5,0.920296557916233,0.84995135563544,9.52305988408594,3.0149083158572,0.5,0.0201542045762042,0.500914832115935,0.5,0.973385581776989,0.890695717476042,10.0446535272807,2.46180108266764,0.5,-34.3399123304106
127,1,5,A,2,0,l,27,1,0.91,2A,0A,0,1,0,1,A20,0.298111902825649,2.99573227355399,0.986692790888494,0.5,0.5,0.5,0.0133072091115056,0.986692790888494,0.5,0.5,0.5,0.5,0.5,0.5,0.5,0.5,0.0133072091115056,0.5,0.99295135563544,0,0,1,0A,2A,0.986692790888494,0.5,0.663683039923006,0.336316960076994,1,1,0.0133072091115056,0.0129530454828309,0.5,0.920296557916233,0.84995135563544,9.52305988408594,3.0149083158572,0.5,0.299883165767709,0.999695204490367,0.5,0.973385581776989,0.890695717476042,10.0446535272807,2.46180108266764,0.5,-34.3399123304106
127,1,6,C,3,2,l,63,1,0.91,3C,2C,0,1,0,1,C32,0.493812131046326,3.04452243772342,0.999645836371325,0.5,0.5,0.5,0.0133072091115056,0.986692790888494,0.5,0.5,0.5,0.5,0.5,0.5,0.5,0.5,0.0133072091115056,0.5,1.63495135563544,1,1,0,3C,2C,0.5,0.5,0.5,0.5,0,0,-0.5,-0.486692790888494,0.5,0.920296557916233,0.84995135563544,9.52305988408594,3.0149083158572,0.5,0.275755739767932,0.49932161560621,0.5,0.973385581776989,0.890695717476042,10.0446535272807,2.46180108266764,0.5,-34.3399123304106
127,1,7,D,3,1,a,27,1,0.91,3D,1D,1,0,1,0,D31,2.00720732807729,3.09104245335832,0.999645836371325,0.5,0.5,0.5,0.0133072091115056,0.986692790888494,0.5,0.5,0.5,0.5,0.5,0.0133072091115056,0.5,0.5,0.0133072091115056,0.5,1.38895135563544,0,0,1,1D,3D,0.5,0.5,0.5,0.5,0,0,-0.5,-0.486692790888494,0.5,0.920296557916233,0.84995135563544,9.52305988408594,3.0149083158572,0.5,0.305216903371065,0.499966503315314,0.5,0.973385581776989,0.890695717476042,10.0446535272807,2.46180108266764,0.5,-34.3399123304106
127,1,8,A,0,1,a,63,1,0.91,0A,1A,1,0,1,0,A01,3.24067663669016,3.13549421592915,0.999645836371325,0.5,0.5,0.5,0.0133072091115056,0.986692790888494,0.5,0.5,0.5,0.5,0.5,0.0133072091115056,0.5,0.0133072091115056,0.0133072091115056,0.5,1.54495135563544,1,1,0,0A,1A,0.999645836371325,0.5,0.666587945051184,0.333412054948816,1,1,0.000354163628674686,0.000344737769741759,0.5,0.920296557916233,0.84995135563544,9.52305988408594,3.0149083158572,0.5,0.45934469169523,0.999736210661336,0.5,0.973385581776989,0.890695717476042,10.0446535272807,2.46180108266764,0.5,-34.3399123304106
127,1,9,C,0,2,l,27,1,0.91,0C,2C,0,1,0,1,C02,1.34746955326071,3.17805383034795,0.999990574141067,0.5,0.5,0.5,0.0133072091115056,0.986692790888494,0.5,0.5,0.5,0.5,0.5,0.0133072091115056,0.5,0.0133072091115056,0.0133072091115056,0.5,1.85695135563544,1,1,0,0C,2C,0.5,0.5,0.5,0.5,0,0,-0.5,-0.486692790888494,0.5,0.920296557916233,0.84995135563544,9.52305988408594,3.0149083158572,0.5,0.23486027767127,0.500316371860239,0.5,0.973385581776989,0.890695717476042,10.0446535272807,2.46180108266764,0.5,-34.3399123304106
127,1,10,D,3,2,a,63,1,0.91,3D,2D,1,0,1,0,D32,1.89735051750342,2.52572864430826,0.999990574141067,0.5,0.5,0.5,0.0133072091115056,0.986692790888494,0.5,0.5,0.0133072091115056,0.5,0.5,0.0133072091115056,0.5,0.0133072091115056,0.0133072091115056,0.5,1.02895135563544,1,1,0,3D,2D,0.5,0.0133072091115056,0.974075546036964,0.0259244539630358,1,1,0.5,0.486692790888494,0.5,0.920296557916233,0.84995135563544,9.52305988408594,3.0149083158572,0.5,9.30193764379548,0.999999999934146,0.5,0.973385581776989,0.890695717476042,10.0446535272807,2.46180108266764,0.5,-34.3399123304106
127,1,11,B,0,1,l,63,0,0.91,0B,1B,0,1,1,0,B01,0.972673195868754,3.25809653802148,0.999990574141067,0.5,0.5,0.5,0.0133072091115056,0.986692790888494,0.5,0.5,0.0133072091115056,0.5,0.5,0.0133072091115056,0.5,0.0133072091115056,0.0133072091115056,0.986692790888494,1.05895135563544,0,0,1,1B,0B,0.986692790888494,0.0133072091115056,0.986692790888494,0.0133072091115056,1,0,-0.986692790888494,-0.960432536294158,0.5,0.920296557916233,0.84995135563544,9.52305988408594,3.0149083158572,0.5,4.27373467720372,0.99999999996478,0.5,0.973385581776989,0.890695717476042,10.0446535272807,2.46180108266764,0.5,-34.3399123304106
127,1,12,A,1,0,l,63,1,0.91,1A,0A,0,1,0,1,A10,3.15815434860017,2.60268968544438,0.999990574141067,0.5,0.5,0.5,0.0133072091115056,0.0262602545943366,0.5,0.5,0.0133072091115056,0.5,0.5,0.0133072091115056,0.5,0.0133072091115056,0.0133072091115056,0.986692790888494,1.35595135563544,0,0,1,0A,1A,0.999990574141067,0.5,0.666664572018186,0.333335427981814,1,1,9.42585893293213e-06,9.17499518117997e-06,0.5,0.920296557916233,0.84995135563544,9.52305988408594,3.0149083158572,0.5,1.38015373472623,0.999735950309479,0.5,0.973385581776989,0.890695717476042,10.0446535272807,2.46180108266764,0.5,-34.3399123304106
127,1,13,D,3,2,a,63,1,0.91,3D,2D,1,0,1,0,D32,1.80747162668546,2.23359222150709,0.999999749136248,0.5,0.5,0.5,0.0133072091115056,0.0262602545943366,0.5,0.5,0.0133072091115056,0.5,0.5,0.0133072091115056,0.5,0.0133072091115056,0.0133072091115056,0.986692790888494,0.96095135563544,1,1,0,3D,2D,0.986692790888494,0.0133072091115056,0.986692790888494,0.0133072091115056,1,1,0.0133072091115056,0.0129530454828309,0.5,0.920296557916233,0.84995135563544,9.52305988408594,3.0149083158572,0.5,3.20882482316228,0.999999999964751,0.5,0.973385581776989,0.890695717476042,10.0446535272807,2.46180108266764,0.5,-34.3399123304106
127,1,14,C,0,2,l,27,1,0.91,0C,2C,0,1,0,1,C02,0.40081331591561,2.67414864942653,0.999999749136248,0.5,0.5,0.5,0.0133072091115056,0.0262602545943366,0.5,0.5,0.0133072091115056,0.5,0.5,0.0133072091115056,0.5,0.0133072091115056,0.0133072091115056,0.999645836371325,1.00995135563544,0,0,1,2C,0C,0.5,0.0133072091115056,0.974075546036964,0.0259244539630358,1,1,0.5,0.486692790888494,0.5,0.920296557916233,0.84995135563544,9.52305988408594,3.0149083158572,0.5,11.4799266632473,0.999999999934301,0.5,0.973385581776989,0.890695717476042,10.0446535272807,2.46180108266764,0.5,-34.3399123304106
127,1,15,A,1,0,l,63,1,0.91,1A,0A,0,1,0,1,A10,2.05576407841054,2.30258509299405,0.999999749136248,0.5,0.5,0.5,0.0133072091115056,0.0262602545943366,0.5,0.5,0.0133072091115056,0.5,0.986692790888494,0.0133072091115056,0.5,0.0133072091115056,0.0133072091115056,0.999645836371325,1.19895135563544,0,0,1,0A,1A,0.999999749136248,0.5,0.666666610919157,0.333333389080843,1,1,2.50863751771746e-07,2.44187158965099e-07,0.5,0.920296557916233,0.84995135563544,9.52305988408594,3.0149083158572,0.5,2.69069071564683,0.999736401580122,0.5,0.973385581776989,0.890695717476042,10.0446535272807,2.46180108266764,0.5,-34.3399123304106
127,1,16,B,3,1,l,27,1,0.91,3B,1B,0,1,0,1,B31,3.01644040261803,3.43398720448515,0.999999993323407,0.5,0.5,0.5,0.0133072091115056,0.0262602545943366,0.5,0.5,0.0133072091115056,0.5,0.986692790888494,0.0133072091115056,0.5,0.0133072091115056,0.0133072091115056,0.999645836371325,0.98595135563544,1,1,0,3B,1B,0.5,0.0262602545943366,0.950100251035338,0.0498997489646621,0,0,-0.5,-0.486692790888494,0.5,0.920296557916233,0.84995135563544,9.52305988408594,3.0149083158572,0.5,8.15479614143216,0.999999999784902,0.5,0.973385581776989,0.890695717476042,10.0446535272807,2.46180108266764,0.5,-34.3399123304106
127,1,17,C,2,3,a,63,1,0.91,2C,3C,1,0,1,0,C23,1.28815862571035,3.46573590279973,0.999999993323407,0.5,0.5,0.5,0.0133072091115056,0.0262602545943366,0.5,0.0133072091115056,0.0133072091115056,0.5,0.986692790888494,0.0133072091115056,0.5,0.0133072091115056,0.0133072091115056,0.999645836371325,0.99295135563544,1,1,0,2C,3C,0.986692790888494,0.0133072091115056,0.986692790888494,0.0133072091115056,1,1,0.0133072091115056,0.0129530454828309,0.5,0.920296557916233,0.84995135563544,9.52305988408594,3.0149083158572,0.5,11.5638822376842,0.999999999964734,0.5,0.973385581776989,0.890695717476042,10.0446535272807,2.46180108266764,0.5,-34.3399123304106
127,1,18,D,3,2,a,63,0,0.91,3D,2D,1,0,0,1,D32,1.81428878076869,2.11021320034659,0.999999993323407,0.5,0.5,0.5,0.0133072091115056,0.0262602545943366,0.5,0.0133072091115056,0.0133072091115056,0.5,0.999645836371325,0.0133072091115056,0.5,0.0133072091115056,0.0133072091115056,0.999645836371325,1.02895135563544,1,1,0,3D,2D,0.999645836371325,0.0133072091115056,0.986862955621835,0.0131370443781653,1,0,-0.999645836371325,-0.973040844007247,0.5,0.920296557916233,0.84995135563544,9.52305988408594,3.0149083158572,0.5,9.0585460359796,0.999999999964966,0.5,0.973385581776989,0.890695717476042,10.0446535272807,2.46180108266764,0.5,-34.3399123304106
127,1,19,B,0,1,l,63,1,0.91,0B,1B,0,1,0,1,B01,3.29807160853679,2.83321334405622,0.999999993323407,0.5,0.5,0.5,0.0133072091115056,0.0262602545943366,0.5,0.0133072091115056,0.0133072091115056,0.5,0.999645836371325,0.0133072091115056,0.5,0.0133072091115056,0.0133072091115056,0.0266049923640783,1.40695135563544,0,0,1,1B,0B,0.0262602545943366,0.0133072091115056,0.663683039923006,0.336316960076994,1,1,0.973739745405663,0.947824228581069,0.5,0.920296557916233,0.84995135563544,9.52305988408594,3.0149083158572,0.5,1.07310100450409,0.999693473438476,0.5,0.973385581776989,0.890695717476042,10.0446535272807,2.46180108266764,0.5,-34.3399123304106
127,1,20,A,0,2,a,27,1,0.91,0A,2A,1,0,1,0,A02,0.563437558052092,3.55534806148941,0.999999993323407,0.5,0.5,0.5,0.0133072091115056,0.974084483175405,0.5,0.0133072091115056,0.0133072091115056,0.5,0.999645836371325,0.0133072091115056,0.5,0.0133072091115056,0.0133072091115056,0.0266049923640783,1.27395135563544,1,1,0,0A,2A,0.999999993323407,0.5,0.666666665182979,0.333333334817021,1,1,6.67659283415389e-09,6.49889920016096e-09,0.5,0.920296557916233,0.84995135563544,9.52305988408594,3.0149083158572,0.5,2.06243409956123,0.999735987589634,0.5,0.973385581776989,0.890695717476042,10.0446535272807,2.46180108266764,0.5,-34.3399123304106
127,1,21,D,3,0,a,9,1,0.91,3D,0D,1,0,1,0,D30,3.42623352656918,3.58351893845611,0.999999999822306,0.5,0.5,0.5,0.0133072091115056,0.974084483175405,0.5,0.0133072091115056,0.0133072091115056,0.5,0.999645836371325,0.0133072091115056,0.5,0.0133072091115056,0.0133072091115056,0.0266049923640783,1.09995135563544,0,0,1,0D,3D,0.5,0.0266049923640783,0.949478275462902,0.0505217245370975,0,0,-0.5,-0.486692790888494,0.5,0.920296557916233,0.84995135563544,9.52305988408594,3.0149083158572,0.5,1.82172016299391,0.999999999777267,0.5,0.973385581776989,0.890695717476042,10.0446535272807,2.46180108266764,0.5,-34.3399123304106
127,1,22,C,3,2,l,63,1,0.91,3C,2C,0,1,0,1,C32,2.82089653405776,2.91777073208428,0.999999999822306,0.5,0.5,0.5,0.0133072091115056,0.974084483175405,0.5,0.0133072091115056,0.0133072091115056,0.5,0.999645836371325,0.0133072091115056,0.0133072091115056,0.0133072091115056,0.0133072091115056,0.0266049923640783,0.99195135563544,0,0,1,2C,3C,0.999645836371325,0.0133072091115056,0.986862955621835,0.0131370443781653,1,1,0.000354163628674686,0.000344737769741759,0.5,0.920296557916233,0.84995135563544,9.52305988408594,3.0149083158572,0.5,11.4518689531782,0.999999999965057,0.5,0.973385581776989,0.890695717476042,10.0446535272807,2.46180108266764,0.5,-34.3399123304106
127,1,23,B,1,3,a,27,1,0.91,1B,3B,1,0,1,0,B13,2.94324285865615,3.63758615972639,0.999999999822306,0.5,0.5,0.5,0.0133072091115056,0.974084483175405,0.5,0.0133072091115056,0.0133072091115056,0.5,0.999990574141067,0.0133072091115056,0.0133072091115056,0.0133072091115056,0.0133072091115056,0.0266049923640783,1.03895135563544,1,1,0,1B,3B,0.974084483175405,0.0133072091115056,0.98652286704916,0.01347713295084,1,1,0.0259155168245948,0.0252257904213596,0.5,0.920296557916233,0.84995135563544,9.52305988408594,3.0149083158572,0.5,7.32977558161644,0.999999999964341,0.5,0.973385581776989,0.890695717476042,10.0446535272807,2.46180108266764,0.5,-34.3399123304106
127,1,24,C,2,3,a,63,1,0.91,2C,3C,1,0,1,0,C23,1.01708369211425,2.9704144655697,0.999999999822306,0.5,0.5,0.5,0.0133072091115056,0.999310273596765,0.5,0.0133072091115056,0.0133072091115056,0.5,0.999990574141067,0.0133072091115056,0.0133072091115056,0.0133072091115056,0.0133072091115056,0.0266049923640783,1.02295135563544,1,1,0,2C,3C,0.999990574141067,0.0133072091115056,0.986867425024072,0.0131325749759276,1,1,9.42585893293213e-06,9.17499518117997e-06,0.5,0.920296557916233,0.84995135563544,9.52305988408594,3.0149083158572,0.5,10.059267103336,0.999999999965088,0.5,0.973385581776989,0.890695717476042,10.0446535272807,2.46180108266764,0.5,-34.3399123304106
127,1,25,D,3,2,a,63,1,0.91,3D,2D,1,0,1,0,D32,2.23342185190813,2.07944154167984,0.999999999822306,0.5,0.5,0.5,0.0133072091115056,0.999310273596765,0.5,0.0133072091115056,0.0133072091115056,0.5,0.999999749136248,0.0133072091115056,0.0133072091115056,0.0133072091115056,0.0133072091115056,0.0266049923640783,1.32895135563544,1,1,0,3D,2D,0.0266049923640783,0.0133072091115056,0.666587945051184,0.333412054948816,1,1,0.973395007635922,0.947488665806508,0.5,0.920296557916233,0.84995135563544,9.52305988408594,3.0149083158572,0.5,1.588629331621,0.99973568239526,0.5,0.973385581776989,0.890695717476042,10.0446535272807,2.46180108266764,0.5,-34.3399123304106
127,1,26,B,0,1,l,63,1,0.91,0B,1B,0,1,0,1,B01,1.40016104180412,2.6149597780362,0.999999999822306,0.5,0.5,0.5,0.0133072091115056,0.999310273596765,0.5,0.0133072091115056,0.0133072091115056,0.5,0.999999749136248,0.0133072091115056,0.0133072091115056,0.0133072091115056,0.0133072091115056,0.974093658170586,0.98395135563544,0,0,1,1B,0B,0.999310273596765,0.0133072091115056,0.9868586022474,0.0131413977525997,1,1,0.00068972640323528,0.000671369736280123,0.5,0.920296557916233,0.84995135563544,9.52305988408594,3.0149083158572,0.5,10.0003075317381,0.999999999965111,0.5,0.973385581776989,0.890695717476042,10.0446535272807,2.46180108266764,0.5,-34.3399123304106
127,1,27,A,3,0,l,9,1,0.91,3A,0A,0,1,0,1,A30,1.67556024129721,3.73766961828337,0.999999999822306,0.5,0.5,0.5,0.0133072091115056,0.999981643333045,0.5,0.0133072091115056,0.0133072091115056,0.5,0.999999749136248,0.0133072091115056,0.0133072091115056,0.0133072091115056,0.0133072091115056,0.974093658170586,1.25595135563544,0,0,1,0A,3A,0.999999999822306,0.5,0.666666666627179,0.333333333372821,1,1,1.7769363758191e-10,1.72964424795737e-10,0.5,0.920296557916233,0.84995135563544,9.52305988408594,3.0149083158572,0.5,2.22431406283672,0.999736164179116,0.5,0.973385581776989,0.890695717476042,10.0446535272807,2.46180108266764,0.5,-34.3399123304106
127,1,28,D,3,2,a,63,1,0.91,3D,2D,1,0,1,0,D32,3.07639668782439,1.96944064646551,0.999999999995271,0.5,0.5,0.5,0.0133072091115056,0.999981643333045,0.5,0.0133072091115056,0.0133072091115056,0.5,0.999999749136248,0.0133072091115056,0.0133072091115056,0.0133072091115056,0.0133072091115056,0.974093658170586,1.00995135563544,1,1,0,3D,2D,0.974093658170586,0.0133072091115056,0.986522992279585,0.0134770077204154,1,1,0.0259063418294136,0.0252168596133373,0.5,0.920296557916233,0.84995135563544,9.52305988408594,3.0149083158572,0.5,11.7133360429521,0.999999999964596,0.5,0.973385581776989,0.890695717476042,10.0446535272807,2.46180108266764,0.5,-34.3399123304106
127,1,29,C,0,2,l,27,1,0.91,0C,2C,0,1,0,1,C02,2.66710322721746,2.68557734525015,0.999999999995271,0.5,0.5,0.5,0.0133072091115056,0.999981643333045,0.5,0.0133072091115056,0.0133072091115056,0.5,0.999999749136248,0.0133072091115056,0.0133072091115056,0.0133072091115056,0.0133072091115056,0.999310517783924,1.08795135563544,0,0,1,2C,0C,0.999999749136248,0.0133072091115056,0.986867543933068,0.0131324560669325,1,1,2.50863751771746e-07,2.44187158965099e-07,0.5,0.920296557916233,0.84995135563544,9.52305988408594,3.0149083158572,0.5,1.62948895821014,0.99999999996497,0.5,0.973385581776989,0.890695717476042,10.0446535272807,2.46180108266764,0.5,-34.3399123304106
127,1,30,A,0,1,a,63,0,0.91,0A,1A,1,0,0,1,A01,2.01835201765896,3.11351530921037,0.999999999995271,0.5,0.5,0.5,0.0133072091115056,0.999981643333045,0.5,0.0133072091115056,0.0133072091115056,0.5,0.999999993323407,0.0133072091115056,0.0133072091115056,0.0133072091115056,0.0133072091115056,0.999310517783924,1.08295135563544,1,1,0,0A,1A,0.999999999995271,0.5,0.666666666665616,0.333333333334384,1,0,-0.999999999995271,-0.973385581772385,0.5,0.920296557916233,0.84995135563544,9.52305988408594,3.0149083158572,0.5,2.37373701452083,0.999735729208322,0.5,0.973385581776989,0.890695717476042,10.0446535272807,2.46180108266764,0.5,-34.3399123304106
127,1,31,B,0,1,l,63,1,0.91,0B,1B,0,1,0,1,B01,1.45860088359533,2.4423470353692,0.0266144182228853,0.5,0.5,0.5,0.0133072091115056,0.999981643333045,0.5,0.0133072091115056,0.0133072091115056,0.5,0.999999993323407,0.0133072091115056,0.0133072091115056,0.0133072091115056,0.0133072091115056,0.999310517783924,0.97295135563544,0,0,1,1B,0B,0.999981643333045,0.0133072091115056,0.986867309277703,0.0131326907222971,1,1,1.83566669551549e-05,1.78681149436299e-05,0.5,0.920296557916233,0.84995135563544,9.52305988408594,3.0149083158572,0.5,6.88956979877599,0.999999999964969,0.5,0.973385581776989,0.890695717476042,10.0446535272807,2.46180108266764,0.5,-34.3399123304106
127,1,32,D,1,3,l,27,1,0.91,1D,3D,0,1,0,1,D13,3.12009031117731,3.85014760171006,0.0266144182228853,0.5,0.5,0.5,0.0133072091115056,0.999999511447988,0.5,0.0133072091115056,0.0133072091115056,0.5,0.999999993323407,0.0133072091115056,0.0133072091115056,0.0133072091115056,0.0133072091115056,0.999310517783924,1.03795135563544,0,0,1,3D,1D,0.999310517783924,0.0133072091115056,0.986858605416376,0.0131413945836244,1,1,0.000689482216076343,0.000671132048020358,0.5,0.920296557916233,0.84995135563544,9.52305988408594,3.0149083158572,0.5,7.48925540679882,0.999999999965038,0.5,0.973385581776989,0.890695717476042,10.0446535272807,2.46180108266764,0.5,-34.3399123304106
127,1,33,C,2,3,a,63,1,0.91,2C,3C,1,0,1,0,C23,2.84073774524197,2.77258872223978,0.0266144182228853,0.5,0.5,0.5,0.0133072091115056,0.999999511447988,0.5,0.0133072091115056,0.0133072091115056,0.5,0.999999993323407,0.0133072091115056,0.0133072091115056,0.0133072091115056,0.0133072091115056,0.999981649831944,0.99295135563544,1,1,0,2C,3C,0.999999993323407,0.0133072091115056,0.986867547097732,0.0131324529022682,1,1,6.67659283415389e-09,6.49889920016096e-09,0.5,0.920296557916233,0.84995135563544,9.52305988408594,3.0149083158572,0.5,11.5677291012576,0.999999999964859,0.5,0.973385581776989,0.890695717476042,10.0446535272807,2.46180108266764,0.5,-34.3399123304106
127,1,34,B,0,1,l,63,1,0.91,0B,1B,0,1,0,1,B01,3.07822821810709,2.28238238567653,0.0266144182228853,0.5,0.5,0.5,0.0133072091115056,0.999999511447988,0.5,0.0133072091115056,0.0133072091115056,0.5,0.999999999822306,0.0133072091115056,0.0133072091115056,0.0133072091115056,0.0133072091115056,0.999981649831944,1.09295135563544,0,0,1,1B,0B,0.999999511447988,0.0133072091115056,0.986867540852627,0.0131324591473726,1,1,4.88552011512766e-07,4.75549483954672e-07,0.5,0.920296557916233,0.84995135563544,9.52305988408594,3.0149083158572,0.5,1.35855345377962,0.999999999964988,0.5,0.973385581776989,0.890695717476042,10.0446535272807,2.46180108266764,0.5,-34.3399123304106
127,1,35,A,1,0,l,63,1,0.91,1A,0A,0,1,0,1,A10,1.26856889402806,2.52572864430826,0.0266144182228853,0.5,0.5,0.5,0.0133072091115056,0.999999986997472,0.5,0.0133072091115056,0.0133072091115056,0.5,0.999999999822306,0.0133072091115056,0.0133072091115056,0.0133072091115056,0.0133072091115056,0.999981649831944,0.95095135563544,1,1,0,1A,0A,0.5,0.0266144182228853,0.949461280774084,0.0505387192259157,0,0,-0.5,-0.486692790888494,0.5,0.920296557916233,0.84995135563544,9.52305988408594,3.0149083158572,0.5,0.662598064356189,0.999999999778291,0.5,0.973385581776989,0.890695717476042,10.0446535272807,2.46180108266764,0.5,-34.3399123304106
127,1,36,C,2,1,a,9,1,0.91,2C,1C,1,0,1,0,C21,2.08156796521645,3.93182563272433,0.0266144182228853,0.0133072091115056,0.5,0.5,0.0133072091115056,0.999999986997472,0.5,0.0133072091115056,0.0133072091115056,0.5,0.999999999822306,0.0133072091115056,0.0133072091115056,0.0133072091115056,0.0133072091115056,0.999981649831944,1.10695135563544,1,1,0,2C,1C,0.999999999822306,0.5,0.666666666627179,0.333333333372821,1,1,1.7769363758191e-10,1.72964424795737e-10,0.5,0.920296557916233,0.84995135563544,9.52305988408594,3.0149083158572,0.5,2.69606910417552,0.999736836572256,0.5,0.973385581776989,0.890695717476042,10.0446535272807,2.46180108266764,0.5,-34.3399123304106
127,1,37,A,0,1,a,63,1,0.91,0A,1A,1,0,1,0,A01,1.06775913155683,2.85263142991332,0.0266144182228853,0.0133072091115056,0.5,0.5,0.0133072091115056,0.999999986997472,0.5,0.0133072091115056,0.0133072091115056,0.5,0.999999999995271,0.0133072091115056,0.0133072091115056,0.0133072091115056,0.0133072091115056,0.999981649831944,1.23695135563544,1,1,0,0A,1A,0.0266144182228853,0.0133072091115056,0.666666666665615,0.333333333334385,1,1,0.973385581777115,0.947479490811449,0.5,0.920296557916233,0.84995135563544,9.52305988408594,3.0149083158572,0.5,2.39184092506505,0.999734933078946,0.5,0.973385581776989,0.890695717476042,10.0446535272807,2.46180108266764,0.5,-34.3399123304106
127,1,38,D,1,3,l,27,1,0.91,1D,3D,0,1,0,1,D13,0.213261237960096,3.27714473299218,0.974093909034335,0.0133072091115056,0.5,0.5,0.0133072091115056,0.999999986997472,0.5,0.0133072091115056,0.0133072091115056,0.5,0.999999999995271,0.0133072091115056,0.0133072091115056,0.0133072091115056,0.0133072091115056,0.999981649831944,1.00595135563544,0,0,1,3D,1D,0.999981649831944,0.0133072091115056,0.986867309361932,0.0131326906380684,1,1,1.83501680559583e-05,1.78617890088545e-05,0.5,0.920296557916233,0.84995135563544,9.52305988408594,3.0149083158572,0.5,11.9778349041463,0.999999999965024,0.5,0.973385581776989,0.890695717476042,10.0446535272807,2.46180108266764,0.5,-34.3399123304106
127,1,39,B,1,0,a,63,1,0.91,1B,0B,1,0,1,0,B10,2.26342624469648,3.29583686600433,0.974093909034335,0.0133072091115056,0.5,0.5,0.0133072091115056,0.999999986997472,0.5,0.0133072091115056,0.0133072091115056,0.5,0.999999999995271,0.0133072091115056,0.0133072091115056,0.0133072091115056,0.0133072091115056,0.999999511620953,1.00595135563544,1,1,0,1B,0B,0.999999986997472,0.0133072091115056,0.986867547015748,0.0131324529842522,1,1,1.3002527610162e-08,1.26564729023889e-08,0.5,0.920296557916233,0.84995135563544,9.52305988408594,3.0149083158572,0.5,11.9774837350431,0.999999999965,0.5,0.973385581776989,0.890695717476042,10.0446535272807,2.46180108266764,0.5,-34.3399123304106
127,1,40,C,3,2,l,63,0,0.91,3C,2C,0,1,1,0,C32,2.83922451166636,2.90872089656436,0.974093909034335,0.0133072091115056,0.5,0.5,0.0133072091115056,0.999999999653945,0.5,0.0133072091115056,0.0133072091115056,0.5,0.999999999995271,0.0133072091115056,0.0133072091115056,0.0133072091115056,0.0133072091115056,0.999999511620953,1.06395135563544,0,0,1,2C,3C,0.999999999995271,0.0133072091115056,0.986867547184199,0.0131324528158009,1,0,-0.999999999995271,-0.973385581772385,0.5,0.920296557916233,0.84995135563544,9.52305988408594,3.0149083158572,0.5,3.66024801913239,0.999999999965149,0.5,0.973385581776989,0.890695717476042,10.0446535272807,2.46180108266764,0.5,-34.3399123304106
127,1,41,A,0,2,a,27,1,0.91,0A,2A,1,0,1,0,A02,3.22743450729615,3.3322045101752,0.974093909034335,0.0133072091115056,0.5,0.5,0.0133072091115056,0.999999999653945,0.5,0.0133072091115056,0.0133072091115056,0.5,0.0266144182228853,0.0133072091115056,0.0133072091115056,0.0133072091115056,0.0133072091115056,0.999999511620953,1.28495135563544,1,1,0,0A,2A,0.974093909034335,0.5,0.660808584218664,0.339191415781336,1,1,0.0259060909656652,0.0252166154261816,0.5,0.920296557916233,0.84995135563544,9.52305988408594,3.0149083158572,0.5,1.97919563093851,0.999647097787268,0.5,0.973385581776989,0.890695717476042,10.0446535272807,2.46180108266764,0.5,-34.3399123304106
127,1,42,D,2,3,l,63,1,0.91,2D,3D,0,1,0,1,D23,0.506353053921258,4.04305126783455,0.999310524460516,0.0133072091115056,0.5,0.5,0.0133072091115056,0.999999999653945,0.5,0.0133072091115056,0.0133072091115056,0.5,0.0266144182228853,0.0133072091115056,0.0133072091115056,0.0133072091115056,0.0133072091115056,0.999999511620953,1.01195135563544,0,0,1,3D,2D,0.999999511620953,0.0133072091115056,0.986867540854869,0.0131324591451309,1,1,4.88379047092202e-07,4.75381122881535e-07,0.5,0.920296557916233,0.84995135563544,9.52305988408594,3.0149083158572,0.5,11.5333801845803,0.999999999965053,0.5,0.973385581776989,0.890695717476042,10.0446535272807,2.46180108266764,0.5,-34.3399123304106
127,1,43,B,1,3,a,27,1,0.91,1B,3B,1,0,1,0,B13,0.96963987516207,3.36729582998647,0.999310524460516,0.0133072091115056,0.5,0.5,0.0133072091115056,0.999999999653945,0.5,0.0133072091115056,0.0133072091115056,0.5,0.0266144182228853,0.0133072091115056,0.0133072091115056,0.0133072091115056,0.0133072091115056,0.999999987002076,1.00395135563544,1,1,0,1B,3B,0.999999999653945,0.0133072091115056,0.986867547179776,0.0131324528202245,1,1,3.46054740418822e-10,3.3684469482926e-10,0.5,0.920296557916233,0.84995135563544,9.52305988408594,3.0149083158572,0.5,12.048594456025,0.999999999965063,0.5,0.973385581776989,0.890695717476042,10.0446535272807,2.46180108266764,0.5,-34.3399123304106
127,1,44,C,3,2,l,63,1,0.91,3C,2C,0,1,0,1,C32,1.6299361518276,2.69124308278583,0.999310524460516,0.0133072091115056,0.5,0.5,0.0133072091115056,0.99999999999079,0.5,0.0133072091115056,0.0133072091115056,0.5,0.0266144182228853,0.0133072091115056,0.0133072091115056,0.0133072091115056,0.0133072091115056,0.999999987002076,1.14495135563544,0,0,1,2C,3C,0.0266144182228853,0.0133072091115056,0.666666666665615,0.333333333334385,1,1,0.973385581777115,0.947479490811449,0.5,0.920296557916233,0.84995135563544,9.52305988408594,3.0149083158572,0.5,2.88736893816866,0.999738210866844,0.5,0.973385581776989,0.890695717476042,10.0446535272807,2.46180108266764,0.5,-34.3399123304106
