ID,filename,session,trial,visStimLeft,visStimRight,correctKey,leftCorrect,rightCorrect,secondStim,mod2Type,mod2Stim,frequency,rewardAccurate,stimPairLeft,stimPairRight,pCorrectLeft,pCorrectRight,key,reactionTime,choiceLeft,choiceRight,choiceAccurate,reward,chosenPair,otherPair,triplet,surprise,0A belief,1A belief,2A belief,3A belief,0B belief,1B belief,2B belief,3B belief,0C belief,1C belief,2C belief,3C belief,0D belief,1D belief,2D belief,3D belief,beliefPairNorm,beliefOtherPairNorm,beliefPair,beliefOtherPair,lik,corrLik,rewardPE,update2,fitCBCsimpleRW_CBCdriftDiffusionLR_startBelief,fitCBCsimpleRW_CBCdriftDiffusionLR_alpha1,fitCBCsimpleRW_CBCdriftDiffusionLR_nonDecisionTime,fitCBCsimpleRW_CBCdriftDiffusionLR_weight,fitCBCsimpleRW_CBCdriftDiffusionLR_startingBoundary,fitCBCsimpleRW_CBCdriftDiffusionLR_startingPoint,fit_CBCsimpleRW_CBCdriftDiffusionLR_NLL
CBC_1005,CBC_1005_MSI_AV_v3_Vset5_Aset2_2023-06-03_12h46.50.942.csv,1,1,2,0,b,1,0,2,aud,C,27,1,2C,0C,1,0,z,1.67739559999973,0,1,0,0,0C,2C,C20,2.77258872223978,0.5,0.5,0.5,0.5,0.5,0.5,0.5,0.5,0.5,0.5,0.5,0.5,0.5,0.5,0.5,0.5,0.5,0.5,0.5,0.5,0.263124399339747,0.500613823229477,-0.5,-0.00103286310162615,0.5,0.00206572620325229,1.09717738510741,0.0295374005859947,2.65318726901126,0.5,77.5020845203661
CBC_1005,CBC_1005_MSI_AV_v3_Vset5_Aset2_2023-06-03_12h46.50.942.csv,1,2,3,2,b,1,0,3,aud,D,63,1,3D,2D,1,0,b,2.50123630000053,1,0,1,1,3D,2D,D32,2.83321334405622,0.5,0.5,0.5,0.5,0.5,0.5,0.5,0.5,0.498967136898374,0.5,0.5,0.5,0.5,0.5,0.5,0.5,0.5,0.5,0.5,0.5,0.166853491587396,0.500789278772762,0.5,0.00103286310162615,0.5,0.00206572620325229,1.09717738510741,0.0295374005859947,2.65318726901126,0.5,77.5020845203661
CBC_1005,CBC_1005_MSI_AV_v3_Vset5_Aset2_2023-06-03_12h46.50.942.csv,1,3,1,0,z,0,1,1,aud,A,63,1,1A,0A,0,1,b,2.53934029999982,1,0,0,0,1A,0A,A10,2.89037175789616,0.5,0.5,0.5,0.5,0.5,0.5,0.5,0.5,0.498967136898374,0.5,0.5,0.5,0.5,0.5,0.5,0.501032863101626,0.5,0.5,0.5,0.5,0.161675990838747,0.498276334034646,-0.5,-0.00103286310162615,0.5,0.00206572620325229,1.09717738510741,0.0295374005859947,2.65318726901126,0.5,77.5020845203661
CBC_1005,CBC_1005_MSI_AV_v3_Vset5_Aset2_2023-06-03_12h46.50.942.csv,1,4,2,3,b,1,0,2,aud,C,63,1,2C,3C,1,0,z,5.27325980000023,0,1,0,0,3C,2C,C23,2.94443897916644,0.5,0.498967136898374,0.5,0.5,0.5,0.5,0.5,0.5,0.498967136898374,0.5,0.5,0.5,0.5,0.5,0.5,0.501032863101626,0.5,0.5,0.5,0.5,0.0238751944023735,0.499709843115793,-0.5,-0.00103286310162615,0.5,0.00206572620325229,1.09717738510741,0.0295374005859947,2.65318726901126,0.5,77.5020845203661
CBC_1005,CBC_1005_MSI_AV_v3_Vset5_Aset2_2023-06-03_12h46.50.942.csv,1,5,0,2,b,1,0,1,aud,A,27,1,0A,2A,1,0,b,3.06709689999843,1,0,1,1,0A,2A,A02,2.99573227355399,0.5,0.498967136898374,0.5,0.5,0.5,0.5,0.5,0.5,0.498967136898374,0.5,0.5,0.498967136898374,0.5,0.5,0.5,0.501032863101626,0.5,0.5,0.5,0.5,0.11240330103767,0.501073008001449,0.5,0.00103286310162615,0.5,0.00206572620325229,1.09717738510741,0.0295374005859947,2.65318726901126,0.5,77.5020845203661
CBC_1005,CBC_1005_MSI_AV_v3_Vset5_Aset2_2023-06-03_12h46.50.942.csv,1,6,2,3,z,0,1,3,aud,D,63,1,2D,3D,0,1,z,3.24123200000031,0,1,1,1,3D,2D,D23,3.04452243772342,0.501032863101626,0.498967136898374,0.5,0.5,0.5,0.5,0.5,0.5,0.498967136898374,0.5,0.5,0.498967136898374,0.5,0.5,0.5,0.501032863101626,0.500515898698084,0.499484101301916,0.501032863101626,0.5,0.0993681959004102,0.50046307956903,0.498967136898374,0.00103072948925275,0.5,0.00206572620325229,1.09717738510741,0.0295374005859947,2.65318726901126,0.5,77.5020845203661
CBC_1005,CBC_1005_MSI_AV_v3_Vset5_Aset2_2023-06-03_12h46.50.942.csv,1,7,3,2,b,1,0,3,aud,D,63,1,3D,2D,1,0,b,2.80879760000062,1,0,1,1,3D,2D,D32,2.39789527279837,0.501032863101626,0.498967136898374,0.5,0.5,0.5,0.5,0.5,0.5,0.498967136898374,0.5,0.5,0.498967136898374,0.5,0.5,0.5,0.502063592590879,0.501029671473017,0.498970328526983,0.502063592590879,0.5,0.134385075330975,0.499920345162564,0.497936407409121,0.00102860028433833,0.5,0.00206572620325229,1.09717738510741,0.0295374005859947,2.65318726901126,0.5,77.5020845203661
CBC_1005,CBC_1005_MSI_AV_v3_Vset5_Aset2_2023-06-03_12h46.50.942.csv,1,8,3,1,z,0,1,0,aud,B,27,1,3B,1B,0,1,z,2.27630219999992,0,1,1,1,1B,3B,B31,3.13549421592915,0.501032863101626,0.498967136898374,0.5,0.5,0.5,0.5,0.5,0.5,0.498967136898374,0.5,0.5,0.498967136898374,0.5,0.5,0.5,0.503092192875217,0.5,0.5,0.5,0.5,0.194865036092445,0.500990446612793,0.5,0.00103286310162615,0.5,0.00206572620325229,1.09717738510741,0.0295374005859947,2.65318726901126,0.5,77.5020845203661
CBC_1005,CBC_1005_MSI_AV_v3_Vset5_Aset2_2023-06-03_12h46.50.942.csv,1,9,0,3,z,0,1,3,aud,D,9,1,0D,3D,0,1,z,2.4888977999999,0,1,1,1,3D,0D,D03,3.17805383034795,0.501032863101626,0.498967136898374,0.5,0.5,0.5,0.501032863101626,0.5,0.5,0.498967136898374,0.5,0.5,0.498967136898374,0.5,0.5,0.5,0.503092192875217,0.501541330346892,0.498458669653108,0.503092192875217,0.5,0.168193175027597,0.500503631061751,0.496907807124783,0.0010264754777783,0.5,0.00206572620325229,1.09717738510741,0.0295374005859947,2.65318726901126,0.5,77.5020845203661
CBC_1005,CBC_1005_MSI_AV_v3_Vset5_Aset2_2023-06-03_12h46.50.942.csv,1,10,1,0,b,1,0,0,aud,B,63,1,1B,0B,1,0,z,3.21889609999926,0,1,0,0,0B,1B,B10,3.2188758248682,0.501032863101626,0.498967136898374,0.5,0.5,0.5,0.501032863101626,0.5,0.5,0.498967136898374,0.5,0.5,0.498967136898374,0.5,0.5,0.5,0.504118668352996,0.499484101301916,0.500515898698084,0.5,0.501032863101626,0.10075300303563,0.499555190262174,-0.5,-0.00103286310162615,0.5,0.00206572620325229,1.09717738510741,0.0295374005859947,2.65318726901126,0.5,77.5020845203661
CBC_1005,CBC_1005_MSI_AV_v3_Vset5_Aset2_2023-06-03_12h46.50.942.csv,1,11,1,0,z,0,1,1,aud,A,63,1,1A,0A,0,1,b,2.90202439999848,1,0,0,0,1A,0A,A10,2.56494935746154,0.501032863101626,0.498967136898374,0.5,0.5,0.498967136898374,0.501032863101626,0.5,0.5,0.498967136898374,0.5,0.5,0.498967136898374,0.5,0.5,0.5,0.504118668352996,0.498967136898374,0.501032863101626,0.498967136898374,0.501032863101626,0.126239814407055,0.501294844716604,-0.498967136898374,-0.00103072948925275,0.5,0.00206572620325229,1.09717738510741,0.0295374005859947,2.65318726901126,0.5,77.5020845203661
CBC_1005,CBC_1005_MSI_AV_v3_Vset5_Aset2_2023-06-03_12h46.50.942.csv,1,12,0,1,z,0,1,0,aud,B,63,1,0B,1B,0,1,z,2.25599349999902,0,1,1,1,1B,0B,B01,3.29583686600433,0.501032863101626,0.497936407409121,0.5,0.5,0.498967136898374,0.501032863101626,0.5,0.5,0.498967136898374,0.5,0.5,0.498967136898374,0.5,0.5,0.5,0.504118668352996,0.501032863101626,0.498967136898374,0.501032863101626,0.498967136898374,0.1970037999104,0.499573438237414,0.498967136898374,0.00103072948925275,0.5,0.00206572620325229,1.09717738510741,0.0295374005859947,2.65318726901126,0.5,77.5020845203661
CBC_1005,CBC_1005_MSI_AV_v3_Vset5_Aset2_2023-06-03_12h46.50.942.csv,1,13,2,3,z,0,1,3,aud,D,63,1,2D,3D,0,1,z,3.23586460000115,0,1,1,1,3D,2D,D23,2.63905732961526,0.501032863101626,0.497936407409121,0.5,0.5,0.498967136898374,0.502063592590879,0.5,0.5,0.498967136898374,0.5,0.5,0.498967136898374,0.5,0.5,0.5,0.504118668352996,0.502050887252077,0.497949112747923,0.504118668352996,0.5,0.0996899820244778,0.500198342961955,0.495881331647004,0.00102435506048686,0.5,0.00206572620325229,1.09717738510741,0.0295374005859947,2.65318726901126,0.5,77.5020845203661
CBC_1005,CBC_1005_MSI_AV_v3_Vset5_Aset2_2023-06-03_12h46.50.942.csv,1,14,1,3,b,1,0,0,aud,B,27,1,1B,3B,1,0,b,2.45550560000083,1,0,1,1,1B,3B,B13,3.36729582998647,0.501032863101626,0.497936407409121,0.5,0.5,0.498967136898374,0.502063592590879,0.5,0.5,0.498967136898374,0.5,0.5,0.498967136898374,0.5,0.5,0.5,0.505143023413482,0.501029671473017,0.498970328526983,0.502063592590879,0.5,0.172168350595591,0.500605234323208,0.497936407409121,0.00102860028433833,0.5,0.00206572620325229,1.09717738510741,0.0295374005859947,2.65318726901126,0.5,77.5020845203661
CBC_1005,CBC_1005_MSI_AV_v3_Vset5_Aset2_2023-06-03_12h46.50.942.csv,1,15,3,2,z,0,1,2,aud,C,63,1,3C,2C,0,1,z,1.74428199999966,0,1,1,1,2C,3C,C32,3.40119738166216,0.501032863101626,0.497936407409121,0.5,0.5,0.498967136898374,0.503092192875217,0.5,0.5,0.498967136898374,0.5,0.5,0.498967136898374,0.5,0.5,0.5,0.505143023413482,0.500516965505408,0.499483034494592,0.5,0.498967136898374,0.261220346612757,0.500453614340595,0.5,0.00103286310162615,0.5,0.00206572620325229,1.09717738510741,0.0295374005859947,2.65318726901126,0.5,77.5020845203661
CBC_1005,CBC_1005_MSI_AV_v3_Vset5_Aset2_2023-06-03_12h46.50.942.csv,1,16,2,0,b,1,0,2,aud,C,27,1,2C,0C,1,0,z,1.84134079999967,0,1,0,0,0C,2C,C20,2.7408400239252,0.501032863101626,0.497936407409121,0.5,0.5,0.498967136898374,0.503092192875217,0.5,0.5,0.498967136898374,0.5,0.501032863101626,0.498967136898374,0.5,0.5,0.5,0.505143023413482,0.498967136898374,0.501032863101626,0.498967136898374,0.501032863101626,0.253112935587701,0.500916408552848,-0.498967136898374,-0.00103072948925275,0.5,0.00206572620325229,1.09717738510741,0.0295374005859947,2.65318726901126,0.5,77.5020845203661
CBC_1005,CBC_1005_MSI_AV_v3_Vset5_Aset2_2023-06-03_12h46.50.942.csv,1,17,0,3,b,1,0,1,aud,A,9,1,0A,3A,1,0,b,3.01164740000058,1,0,1,1,0A,3A,A03,3.46573590279973,0.501032863101626,0.497936407409121,0.5,0.5,0.498967136898374,0.503092192875217,0.5,0.5,0.497936407409121,0.5,0.501032863101626,0.498967136898374,0.5,0.5,0.5,0.505143023413482,0.500515898698084,0.499484101301916,0.501032863101626,0.5,0.116673413965042,0.50028745732031,0.498967136898374,0.00103072948925275,0.5,0.00206572620325229,1.09717738510741,0.0295374005859947,2.65318726901126,0.5,77.5020845203661
CBC_1005,CBC_1005_MSI_AV_v3_Vset5_Aset2_2023-06-03_12h46.50.942.csv,1,18,2,3,b,1,0,2,aud,C,63,0,2C,3C,0,1,z,2.32952279999881,0,1,0,1,3C,2C,C23,2.80336038090653,0.502063592590879,0.497936407409121,0.5,0.5,0.498967136898374,0.503092192875217,0.5,0.5,0.497936407409121,0.5,0.501032863101626,0.498967136898374,0.5,0.5,0.5,0.505143023413482,0.498967136898374,0.501032863101626,0.498967136898374,0.501032863101626,0.187929129375141,0.5010021527672,0.501032863101626,0.00103499671399955,0.5,0.00206572620325229,1.09717738510741,0.0295374005859947,2.65318726901126,0.5,77.5020845203661
CBC_1005,CBC_1005_MSI_AV_v3_Vset5_Aset2_2023-06-03_12h46.50.942.csv,1,19,1,0,z,0,1,1,aud,A,63,1,1A,0A,0,1,b,2.70831840000028,1,0,0,0,1A,0A,A10,2.42774823594805,0.502063592590879,0.497936407409121,0.5,0.5,0.498967136898374,0.503092192875217,0.5,0.5,0.497936407409121,0.5,0.501032863101626,0.500002133612373,0.5,0.5,0.5,0.505143023413482,0.497936407409121,0.502063592590879,0.497936407409121,0.502063592590879,0.144345983596229,0.500530176096217,-0.497936407409121,-0.00102860028433833,0.5,0.00206572620325229,1.09717738510741,0.0295374005859947,2.65318726901126,0.5,77.5020845203661
CBC_1005,CBC_1005_MSI_AV_v3_Vset5_Aset2_2023-06-03_12h46.50.942.csv,1,20,3,2,b,1,0,3,aud,D,63,1,3D,2D,1,0,z,2.68972179999946,0,1,0,0,2D,3D,D32,2.4567357728213,0.502063592590879,0.496907807124783,0.5,0.5,0.498967136898374,0.503092192875217,0.5,0.5,0.497936407409121,0.5,0.501032863101626,0.500002133612373,0.5,0.5,0.5,0.505143023413482,0.497441645967946,0.502558354032054,0.5,0.505143023413482,0.145985618863885,0.499678826696581,-0.5,-0.00103286310162615,0.5,0.00206572620325229,1.09717738510741,0.0295374005859947,2.65318726901126,0.5,77.5020845203661
CBC_1005,CBC_1005_MSI_AV_v3_Vset5_Aset2_2023-06-03_12h46.50.942.csv,1,21,3,2,z,0,1,2,aud,C,63,1,3C,2C,0,1,z,2.76160509999863,0,1,1,1,2C,3C,C32,2.89037175789616,0.502063592590879,0.496907807124783,0.5,0.5,0.498967136898374,0.503092192875217,0.5,0.5,0.497936407409121,0.5,0.501032863101626,0.500002133612373,0.5,0.5,0.498967136898374,0.505143023413482,0.500514831895306,0.499485168104694,0.501032863101626,0.500002133612373,0.138934135174461,0.500054879635676,0.498967136898374,0.00103072948925275,0.5,0.00206572620325229,1.09717738510741,0.0295374005859947,2.65318726901126,0.5,77.5020845203661
CBC_1005,CBC_1005_MSI_AV_v3_Vset5_Aset2_2023-06-03_12h46.50.942.csv,1,22,3,1,b,1,0,3,aud,D,27,1,3D,1D,1,0,z,1.87488090000079,0,1,0,0,1D,3D,D31,3.61091791264422,0.502063592590879,0.496907807124783,0.5,0.5,0.498967136898374,0.503092192875217,0.5,0.5,0.497936407409121,0.5,0.502063592590879,0.500002133612373,0.5,0.5,0.498967136898374,0.505143023413482,0.497441645967946,0.502558354032054,0.5,0.505143023413482,0.248655550973282,0.499657460323813,-0.5,-0.00103286310162615,0.5,0.00206572620325229,1.09717738510741,0.0295374005859947,2.65318726901126,0.5,77.5020845203661
CBC_1005,CBC_1005_MSI_AV_v3_Vset5_Aset2_2023-06-03_12h46.50.942.csv,1,23,0,1,b,1,0,1,aud,A,63,1,0A,1A,1,0,z,2.6624797000004,0,1,0,0,1A,0A,A01,3.63758615972639,0.502063592590879,0.496907807124783,0.5,0.5,0.498967136898374,0.503092192875217,0.5,0.5,0.497936407409121,0.5,0.502063592590879,0.500002133612373,0.5,0.498967136898374,0.498967136898374,0.505143023413482,0.497419452915487,0.502580547084513,0.496907807124783,0.502063592590879,0.148727926942597,0.499468285456518,-0.496907807124783,-0.0010264754777783,0.5,0.00206572620325229,1.09717738510741,0.0295374005859947,2.65318726901126,0.5,77.5020845203661
CBC_1005,CBC_1005_MSI_AV_v3_Vset5_Aset2_2023-06-03_12h46.50.942.csv,1,24,3,2,z,0,1,2,aud,C,63,1,3C,2C,0,1,b,2.09615459999986,1,0,0,0,3C,2C,C32,2.56494935746154,0.502063592590879,0.495881331647004,0.5,0.5,0.498967136898374,0.503092192875217,0.5,0.5,0.497936407409121,0.5,0.502063592590879,0.500002133612373,0.5,0.498967136898374,0.498967136898374,0.505143023413482,0.498971395326374,0.501028604673626,0.500002133612373,0.502063592590879,0.218790805658803,0.499295565380096,-0.500002133612373,-0.00103286750908513,0.5,0.00206572620325229,1.09717738510741,0.0295374005859947,2.65318726901126,0.5,77.5020845203661
CBC_1005,CBC_1005_MSI_AV_v3_Vset5_Aset2_2023-06-03_12h46.50.942.csv,1,25,0,2,b,1,0,1,aud,A,27,1,0A,2A,1,0,z,2.6287984999999,0,1,0,0,2A,0A,A02,2.99573227355399,0.502063592590879,0.495881331647004,0.5,0.5,0.498967136898374,0.503092192875217,0.5,0.5,0.497936407409121,0.5,0.502063592590879,0.498969266103288,0.5,0.498967136898374,0.498967136898374,0.505143023413482,0.498970328526983,0.501029671473017,0.5,0.502063592590879,0.152486807063685,0.500190143463854,-0.5,-0.00103286310162615,0.5,0.00206572620325229,1.09717738510741,0.0295374005859947,2.65318726901126,0.5,77.5020845203661
CBC_1005,CBC_1005_MSI_AV_v3_Vset5_Aset2_2023-06-03_12h46.50.942.csv,1,26,1,0,b,1,0,0,aud,B,63,1,1B,0B,1,0,z,2.26941439999973,0,1,0,0,0B,1B,B10,3.02042488614436,0.502063592590879,0.495881331647004,0.498967136898374,0.5,0.498967136898374,0.503092192875217,0.5,0.5,0.497936407409121,0.5,0.502063592590879,0.498969266103288,0.5,0.498967136898374,0.498967136898374,0.505143023413482,0.497941710708,0.502058289292,0.498967136898374,0.503092192875217,0.195544880450078,0.500396666625443,-0.498967136898374,-0.00103072948925275,0.5,0.00206572620325229,1.09717738510741,0.0295374005859947,2.65318726901126,0.5,77.5020845203661
CBC_1005,CBC_1005_MSI_AV_v3_Vset5_Aset2_2023-06-03_12h46.50.942.csv,1,27,0,1,z,0,1,0,aud,B,63,1,0B,1B,0,1,b,2.32489919999898,1,0,0,0,0B,1B,B01,3.04452243772342,0.502063592590879,0.495881331647004,0.498967136898374,0.5,0.497936407409121,0.503092192875217,0.5,0.5,0.497936407409121,0.5,0.502063592590879,0.498969266103288,0.5,0.498967136898374,0.498967136898374,0.505143023413482,0.497424756163494,0.502575243836506,0.497936407409121,0.503092192875217,0.188625153682814,0.501269732949625,-0.497936407409121,-0.00102860028433833,0.5,0.00206572620325229,1.09717738510741,0.0295374005859947,2.65318726901126,0.5,77.5020845203661
CBC_1005,CBC_1005_MSI_AV_v3_Vset5_Aset2_2023-06-03_12h46.50.942.csv,1,28,3,2,z,0,1,2,aud,C,63,1,3C,2C,0,1,b,2.41856229999939,1,0,0,0,3C,2C,C32,2.37490575457367,0.502063592590879,0.495881331647004,0.498967136898374,0.5,0.496907807124783,0.503092192875217,0.5,0.5,0.497936407409121,0.5,0.502063592590879,0.498969266103288,0.5,0.498967136898374,0.498967136898374,0.505143023413482,0.498454433108406,0.501545566891594,0.498969266103288,0.502063592590879,0.176399163819112,0.499964210125826,-0.498969266103288,-0.00103073388760713,0.5,0.00206572620325229,1.09717738510741,0.0295374005859947,2.65318726901126,0.5,77.5020845203661
CBC_1005,CBC_1005_MSI_AV_v3_Vset5_Aset2_2023-06-03_12h46.50.942.csv,1,29,3,1,b,1,0,3,aud,D,27,1,3D,1D,1,0,z,2.53521189999992,0,1,0,0,1D,3D,D31,3.09104245335832,0.502063592590879,0.495881331647004,0.498967136898374,0.5,0.496907807124783,0.503092192875217,0.5,0.5,0.497936407409121,0.5,0.502063592590879,0.497938532215681,0.5,0.498967136898374,0.498967136898374,0.505143023413482,0.496924696731885,0.503075303268115,0.498967136898374,0.505143023413482,0.162595554139634,0.499673515755196,-0.498967136898374,-0.00103072948925275,0.5,0.00206572620325229,1.09717738510741,0.0295374005859947,2.65318726901126,0.5,77.5020845203661
CBC_1005,CBC_1005_MSI_AV_v3_Vset5_Aset2_2023-06-03_12h46.50.942.csv,1,30,1,2,z,0,1,2,aud,C,9,1,1C,2C,NaN,NaN,[],NaN,NaN,NaN,NaN,NaN,,,C12,3.80666248977032,0.502063592590879,0.495881331647004,0.498967136898374,0.5,0.496907807124783,0.503092192875217,0.5,0.5,0.497936407409121,0.5,0.502063592590879,0.497938532215681,0.5,0.497936407409121,0.498967136898374,0.505143023413482,0,0,0,0,NaN,0,0,0,0.5,0.00206572620325229,1.09717738510741,0.0295374005859947,2.65318726901126,0.5,77.5020845203661
CBC_1005,CBC_1005_MSI_AV_v3_Vset5_Aset2_2023-06-03_12h46.50.942.csv,1,31,3,1,z,0,1,0,aud,B,27,1,3B,1B,0,1,b,2.07530410000072,1,0,0,0,3B,1B,B31,3.13549421592915,0.502063592590879,0.495881331647004,0.498967136898374,0.5,0.496907807124783,0.503092192875217,0.5,0.5,0.497936407409121,0.5,0.502063592590879,0.497938532215681,0.5,0.497936407409121,0.498967136898374,0.505143023413482,0.498458669653108,0.501541330346892,0.5,0.503092192875217,0.222510461104237,0.501111098431963,-0.5,-0.00103286310162615,0.5,0.00206572620325229,1.09717738510741,0.0295374005859947,2.65318726901126,0.5,77.5020845203661
CBC_1005,CBC_1005_MSI_AV_v3_Vset5_Aset2_2023-06-03_12h46.50.942.csv,1,32,3,2,b,1,0,3,aud,D,63,1,3D,2D,1,0,b,3.03599029999896,1,0,1,1,3D,2D,D32,2.46385324059017,0.502063592590879,0.495881331647004,0.498967136898374,0.5,0.496907807124783,0.503092192875217,0.5,0.498967136898374,0.497936407409121,0.5,0.502063592590879,0.497938532215681,0.5,0.497936407409121,0.498967136898374,0.505143023413482,0.503075303268115,0.496924696731885,0.505143023413482,0.498967136898374,0.114658350128134,0.500104788767654,0.494856976586518,0.00102223902339698,0.5,0.00206572620325229,1.09717738510741,0.0295374005859947,2.65318726901126,0.5,77.5020845203661
CBC_1005,CBC_1005_MSI_AV_v3_Vset5_Aset2_2023-06-03_12h46.50.942.csv,1,33,0,1,z,0,1,0,aud,B,63,1,0B,1B,0,1,z,2.43764489999921,0,1,1,1,1B,0B,B01,2.77258872223978,0.502063592590879,0.495881331647004,0.498967136898374,0.5,0.496907807124783,0.503092192875217,0.5,0.498967136898374,0.497936407409121,0.5,0.502063592590879,0.497938532215681,0.5,0.497936407409121,0.498967136898374,0.506165262436879,0.503092192875217,0.496907807124783,0.503092192875217,0.496907807124783,0.173967586356918,0.499620578883994,0.496907807124783,0.0010264754777783,0.5,0.00206572620325229,1.09717738510741,0.0295374005859947,2.65318726901126,0.5,77.5020845203661
CBC_1005,CBC_1005_MSI_AV_v3_Vset5_Aset2_2023-06-03_12h46.50.942.csv,1,34,1,0,z,0,1,1,aud,A,63,0,1A,0A,1,0,b,3.1622126000002,1,0,0,1,1A,0A,A10,2.50552593699074,0.502063592590879,0.495881331647004,0.498967136898374,0.5,0.496907807124783,0.504118668352996,0.5,0.498967136898374,0.497936407409121,0.5,0.502063592590879,0.497938532215681,0.5,0.497936407409121,0.498967136898374,0.506165262436879,0.496902503938985,0.503097496061016,0.495881331647004,0.502063592590879,0.104829320017902,0.499521489161967,0.504118668352995,0.00104137114276544,0.5,0.00206572620325229,1.09717738510741,0.0295374005859947,2.65318726901126,0.5,77.5020845203661
CBC_1005,CBC_1005_MSI_AV_v3_Vset5_Aset2_2023-06-03_12h46.50.942.csv,1,35,2,3,b,1,0,2,aud,C,63,1,2C,3C,1,0,z,2.37133899999935,0,1,0,0,3C,2C,C23,2.81341071676004,0.502063592590879,0.49692270278977,0.498967136898374,0.5,0.496907807124783,0.504118668352996,0.5,0.498967136898374,0.497936407409121,0.5,0.502063592590879,0.497938532215681,0.5,0.497936407409121,0.498967136898374,0.506165262436879,0.49793747419487,0.50206252580513,0.497938532215681,0.502063592590879,0.182338581180271,0.500245485419102,-0.497938532215681,-0.00102860467360692,0.5,0.00206572620325229,1.09717738510741,0.0295374005859947,2.65318726901126,0.5,77.5020845203661
CBC_1005,CBC_1005_MSI_AV_v3_Vset5_Aset2_2023-06-03_12h46.50.942.csv,1,36,0,2,b,1,0,1,aud,A,27,1,0A,2A,1,0,b,2.94735179999952,1,0,1,1,0A,2A,A02,2.83321334405622,0.502063592590879,0.49692270278977,0.498967136898374,0.5,0.496907807124783,0.504118668352996,0.5,0.498967136898374,0.497936407409121,0.5,0.502063592590879,0.496909927542074,0.5,0.497936407409121,0.498967136898374,0.506165262436879,0.501546633685304,0.498453366314696,0.502063592590879,0.498967136898374,0.121746486297652,0.499047144645136,0.497936407409121,0.00102860028433833,0.5,0.00206572620325229,1.09717738510741,0.0295374005859947,2.65318726901126,0.5,77.5020845203661
CBC_1005,CBC_1005_MSI_AV_v3_Vset5_Aset2_2023-06-03_12h46.50.942.csv,1,37,0,1,z,0,1,0,aud,B,63,1,0B,1B,0,1,z,2.23317390000011,0,1,1,1,1B,0B,B01,2.56494935746154,0.503092192875217,0.49692270278977,0.498967136898374,0.5,0.496907807124783,0.504118668352996,0.5,0.498967136898374,0.497936407409121,0.5,0.502063592590879,0.496909927542074,0.5,0.497936407409121,0.498967136898374,0.506165262436879,0.503601733522968,0.496398266477032,0.504118668352996,0.496907807124783,0.200436522508301,0.500521947663095,0.495881331647004,0.00102435506048686,0.5,0.00206572620325229,1.09717738510741,0.0295374005859947,2.65318726901126,0.5,77.5020845203661
CBC_1005,CBC_1005_MSI_AV_v3_Vset5_Aset2_2023-06-03_12h46.50.942.csv,1,38,2,3,z,0,1,3,aud,D,63,1,2D,3D,0,1,z,2.4342488000002,0,1,1,1,3D,2D,D23,2.87167962488401,0.503092192875217,0.49692270278977,0.498967136898374,0.5,0.496907807124783,0.505143023413482,0.5,0.498967136898374,0.497936407409121,0.5,0.502063592590879,0.496909927542074,0.5,0.497936407409121,0.498967136898374,0.506165262436879,0.503580685262591,0.496419314737409,0.506165262436879,0.498967136898374,0.17448231988233,0.499923007344164,0.493834737563121,0.00102012735746036,0.5,0.00206572620325229,1.09717738510741,0.0295374005859947,2.65318726901126,0.5,77.5020845203661
CBC_1005,CBC_1005_MSI_AV_v3_Vset5_Aset2_2023-06-03_12h46.50.942.csv,1,39,1,2,b,1,0,0,aud,B,9,1,1B,2B,1,0,z,3.48200990000078,0,1,0,0,2B,1B,B12,3.98898404656427,0.503092192875217,0.49692270278977,0.498967136898374,0.5,0.496907807124783,0.505143023413482,0.5,0.498967136898374,0.497936407409121,0.5,0.502063592590879,0.496909927542074,0.5,0.497936407409121,0.498967136898374,0.50718538979434,0.497441645967946,0.502558354032054,0.5,0.505143023413482,0.0840300346494781,0.501024417439444,-0.5,-0.00103286310162615,0.5,0.00206572620325229,1.09717738510741,0.0295374005859947,2.65318726901126,0.5,77.5020845203661
CBC_1005,CBC_1005_MSI_AV_v3_Vset5_Aset2_2023-06-03_12h46.50.942.csv,1,40,1,3,z,0,1,3,aud,D,27,1,1D,3D,0,1,b,2.92567120000058,1,0,0,0,1D,3D,D13,4.00733318523247,0.503092192875217,0.49692270278977,0.498967136898374,0.5,0.496907807124783,0.505143023413482,0.498967136898374,0.498967136898374,0.497936407409121,0.5,0.502063592590879,0.496909927542074,0.5,0.497936407409121,0.498967136898374,0.50718538979434,0.495399073818242,0.504600926181758,0.497936407409121,0.50718538979434,0.123791800951882,0.499783068051787,-0.497936407409121,-0.00102860028433833,0.5,0.00206572620325229,1.09717738510741,0.0295374005859947,2.65318726901126,0.5,77.5020845203661
CBC_1005,CBC_1005_MSI_AV_v3_Vset5_Aset2_2023-06-03_12h46.50.942.csv,1,41,1,0,z,0,1,1,aud,A,63,1,1A,0A,0,1,b,2.51321159999861,1,0,0,0,1A,0A,A10,2.41591377830105,0.503092192875217,0.49692270278977,0.498967136898374,0.5,0.496907807124783,0.505143023413482,0.498967136898374,0.498967136898374,0.497936407409121,0.5,0.502063592590879,0.496909927542074,0.5,0.496907807124783,0.498967136898374,0.50718538979434,0.496915300905921,0.503084699094079,0.49692270278977,0.503092192875217,0.165190877387216,0.499941929641251,-0.49692270278977,-0.00102650624814378,0.5,0.00206572620325229,1.09717738510741,0.0295374005859947,2.65318726901126,0.5,77.5020845203661
CBC_1005,CBC_1005_MSI_AV_v3_Vset5_Aset2_2023-06-03_12h46.50.942.csv,1,42,0,1,b,1,0,1,aud,A,63,1,0A,1A,1,0,z,2.69645429999946,0,1,0,0,1A,0A,A01,3.3499040872746,0.503092192875217,0.495896196541626,0.498967136898374,0.5,0.496907807124783,0.505143023413482,0.498967136898374,0.498967136898374,0.497936407409121,0.5,0.502063592590879,0.496909927542074,0.5,0.496907807124783,0.498967136898374,0.50718538979434,0.496398358374419,0.503601641625581,0.495896196541626,0.503092192875217,0.145390802563316,0.499989807065496,-0.495896196541626,-0.00102438576728919,0.5,0.00206572620325229,1.09717738510741,0.0295374005859947,2.65318726901126,0.5,77.5020845203661
CBC_1005,CBC_1005_MSI_AV_v3_Vset5_Aset2_2023-06-03_12h46.50.942.csv,1,43,2,0,b,1,0,2,aud,C,27,1,2C,0C,1,0,z,2.4130710999998,0,1,0,0,0C,2C,C20,2.96183072187831,0.503092192875217,0.494871810774337,0.498967136898374,0.5,0.496907807124783,0.505143023413482,0.498967136898374,0.498967136898374,0.497936407409121,0.5,0.502063592590879,0.496909927542074,0.5,0.496907807124783,0.498967136898374,0.50718538979434,0.497936407409121,0.502063592590879,0.497936407409121,0.502063592590879,0.177015873292329,0.499812926912257,-0.497936407409121,-0.00102860028433833,0.5,0.00206572620325229,1.09717738510741,0.0295374005859947,2.65318726901126,0.5,77.5020845203661
CBC_1005,CBC_1005_MSI_AV_v3_Vset5_Aset2_2023-06-03_12h46.50.942.csv,1,44,0,1,z,0,1,0,aud,B,63,1,0B,1B,0,1,b,2.5182406999993,1,0,0,0,0B,1B,B01,2.46809953147162,0.503092192875217,0.494871810774337,0.498967136898374,0.5,0.496907807124783,0.505143023413482,0.498967136898374,0.498967136898374,0.496907807124783,0.5,0.502063592590879,0.496909927542074,0.5,0.496907807124783,0.498967136898374,0.50718538979434,0.495890819089349,0.504109180910651,0.496907807124783,0.505143023413482,0.164559703891726,0.499775781791887,-0.496907807124783,-0.0010264754777783,0.5,0.00206572620325229,1.09717738510741,0.0295374005859947,2.65318726901126,0.5,77.5020845203661
CBC_1005,CBC_1005_MSI_TV_v3_Vset2_Tset1_2023-06-03_12h55.30.379.csv,2,1,3,1,z,0,1,0,tac,B,27,1,3B,1B,0,1,z,3.13610419999895,0,1,1,1,1B,3B,B31,2.77258872223978,0.5,0.5,0.5,0.5,0.5,0.5,0.5,0.5,0.5,0.5,0.5,0.5,0.5,0.5,0.5,0.5,0.5,0.5,0.5,0.5,0.113194802056679,0.502122683038777,0.5,0.00575005623724523,0.5,0.0115001124744905,1.09948122512442,0.0232478037527497,2.87900767203723,0.5,85.7302697527772
CBC_1005,CBC_1005_MSI_TV_v3_Vset2_Tset1_2023-06-03_12h55.30.379.csv,2,2,2,3,b,1,0,2,tac,C,63,1,2C,3C,1,0,b,2.41326809999919,1,0,1,1,2C,3C,C23,2.83321334405622,0.5,0.5,0.5,0.5,0.5,0.505750056237245,0.5,0.5,0.5,0.5,0.5,0.5,0.5,0.5,0.5,0.5,0.5,0.5,0.5,0.5,0.172238689542949,0.499618291454126,0.5,0.00575005623724523,0.5,0.0115001124744905,1.09948122512442,0.0232478037527497,2.87900767203723,0.5,85.7302697527772
CBC_1005,CBC_1005_MSI_TV_v3_Vset2_Tset1_2023-06-03_12h55.30.379.csv,2,3,2,3,z,0,1,3,tac,D,63,1,2D,3D,0,1,z,3.28943840000102,0,1,1,1,3D,2D,D23,2.89037175789616,0.5,0.5,0.5,0.5,0.5,0.505750056237245,0.5,0.5,0.5,0.5,0.505750056237245,0.5,0.5,0.5,0.5,0.5,0.5,0.5,0.5,0.5,0.102896346518862,0.500021573190283,0.5,0.00575005623724523,0.5,0.0115001124744905,1.09948122512442,0.0232478037527497,2.87900767203723,0.5,85.7302697527772
CBC_1005,CBC_1005_MSI_TV_v3_Vset2_Tset1_2023-06-03_12h55.30.379.csv,2,4,1,0,b,1,0,0,tac,B,63,0,1B,0B,0,1,z,2.63165809999919,0,1,0,1,0B,1B,B10,2.94443897916644,0.5,0.5,0.5,0.5,0.5,0.505750056237245,0.5,0.5,0.5,0.5,0.505750056237245,0.5,0.5,0.5,0.5,0.505750056237245,0.497141408940728,0.502858591059273,0.5,0.505750056237245,0.151657237167238,0.49913493955967,0.5,0.00575005623724523,0.5,0.0115001124744905,1.09948122512442,0.0232478037527497,2.87900767203723,0.5,85.7302697527772
CBC_1005,CBC_1005_MSI_TV_v3_Vset2_Tset1_2023-06-03_12h55.30.379.csv,2,5,3,0,z,0,1,1,tac,A,9,1,3A,0A,0,1,z,2.55308129999867,0,1,1,1,0A,3A,A30,2.99573227355399,0.5,0.5,0.5,0.5,0.505750056237245,0.505750056237245,0.5,0.5,0.5,0.5,0.505750056237245,0.5,0.5,0.5,0.5,0.505750056237245,0.5,0.5,0.5,0.5,0.159271859589848,0.500700727623433,0.5,0.00575005623724523,0.5,0.0115001124744905,1.09948122512442,0.0232478037527497,2.87900767203723,0.5,85.7302697527772
CBC_1005,CBC_1005_MSI_TV_v3_Vset2_Tset1_2023-06-03_12h55.30.379.csv,2,6,2,3,z,0,1,3,tac,D,63,1,2D,3D,0,1,b,2.46786449999854,1,0,0,0,2D,3D,D23,2.35137525716348,0.505750056237245,0.5,0.5,0.5,0.505750056237245,0.505750056237245,0.5,0.5,0.5,0.5,0.505750056237245,0.5,0.5,0.5,0.5,0.505750056237245,0.497141408940728,0.502858591059273,0.5,0.505750056237245,0.167026034590929,0.499843394893357,-0.5,-0.00575005623724523,0.5,0.0115001124744905,1.09948122512442,0.0232478037527497,2.87900767203723,0.5,85.7302697527772
CBC_1005,CBC_1005_MSI_TV_v3_Vset2_Tset1_2023-06-03_12h55.30.379.csv,2,7,2,0,b,1,0,2,tac,C,27,1,2C,0C,1,0,z,2.4683612000008,0,1,0,0,0C,2C,C20,3.09104245335832,0.505750056237245,0.5,0.5,0.5,0.505750056237245,0.505750056237245,0.5,0.5,0.5,0.5,0.505750056237245,0.5,0.5,0.5,0.494249943762755,0.505750056237245,0.497141408940728,0.502858591059273,0.5,0.505750056237245,0.167378251850668,0.501039959438721,-0.5,-0.00575005623724523,0.5,0.0115001124744905,1.09948122512442,0.0232478037527497,2.87900767203723,0.5,85.7302697527772
CBC_1005,CBC_1005_MSI_TV_v3_Vset2_Tset1_2023-06-03_12h55.30.379.csv,2,8,1,0,z,0,1,1,tac,A,63,1,1A,0A,0,1,z,2.4764266000002,0,1,1,1,0A,1A,A10,3.13549421592915,0.505750056237245,0.5,0.5,0.5,0.505750056237245,0.505750056237245,0.5,0.5,0.494249943762755,0.5,0.505750056237245,0.5,0.5,0.5,0.494249943762755,0.505750056237245,0.502858591059273,0.497141408940728,0.505750056237245,0.5,0.166642778582067,0.501155505546502,0.494249943762755,0.00568392994378226,0.5,0.0115001124744905,1.09948122512442,0.0232478037527497,2.87900767203723,0.5,85.7302697527772
CBC_1005,CBC_1005_MSI_TV_v3_Vset2_Tset1_2023-06-03_12h55.30.379.csv,2,9,0,1,z,0,1,0,tac,B,63,1,0B,1B,0,1,z,2.61041750000004,0,1,1,1,1B,0B,B01,3.17805383034795,0.511433986181028,0.5,0.5,0.5,0.505750056237245,0.505750056237245,0.5,0.5,0.494249943762755,0.5,0.505750056237245,0.5,0.5,0.5,0.494249943762755,0.505750056237245,0.5,0.5,0.505750056237245,0.505750056237245,0.153980738409487,0.500522263368741,0.494249943762755,0.00568392994378226,0.5,0.0115001124744905,1.09948122512442,0.0232478037527497,2.87900767203723,0.5,85.7302697527772
CBC_1005,CBC_1005_MSI_TV_v3_Vset2_Tset1_2023-06-03_12h55.30.379.csv,2,10,3,1,b,1,0,3,tac,D,27,1,3D,1D,1,0,b,3.33101069999975,1,0,1,1,3D,1D,D31,3.2188758248682,0.511433986181028,0.5,0.5,0.5,0.505750056237245,0.511433986181028,0.5,0.5,0.494249943762755,0.5,0.505750056237245,0.5,0.5,0.5,0.494249943762755,0.505750056237245,0.502858591059273,0.497141408940728,0.505750056237245,0.5,0.100363029305447,0.499924878566467,0.494249943762755,0.00568392994378226,0.5,0.0115001124744905,1.09948122512442,0.0232478037527497,2.87900767203723,0.5,85.7302697527772
CBC_1005,CBC_1005_MSI_TV_v3_Vset2_Tset1_2023-06-03_12h55.30.379.csv,2,11,2,3,b,1,0,2,tac,C,63,1,2C,3C,1,0,z,2.63340199999948,0,1,0,0,3C,2C,C23,2.56494935746154,0.511433986181028,0.5,0.5,0.5,0.505750056237245,0.511433986181028,0.5,0.5,0.494249943762755,0.5,0.505750056237245,0.5,0.5,0.5,0.494249943762755,0.511433986181028,0.497141408940728,0.502858591059273,0.5,0.505750056237245,0.151833046643081,0.500224425636959,-0.5,-0.00575005623724523,0.5,0.0115001124744905,1.09948122512442,0.0232478037527497,2.87900767203723,0.5,85.7302697527772
CBC_1005,CBC_1005_MSI_TV_v3_Vset2_Tset1_2023-06-03_12h55.30.379.csv,2,12,0,1,z,0,1,0,tac,B,63,1,0B,1B,0,1,b,2.98522539999976,1,0,0,0,0B,1B,B01,2.60268968544438,0.511433986181028,0.5,0.5,0.5,0.505750056237245,0.511433986181028,0.5,0.5,0.494249943762755,0.5,0.505750056237245,0.494249943762755,0.5,0.5,0.494249943762755,0.511433986181028,0.497206046444521,0.502793953555479,0.505750056237245,0.511433986181028,0.123402802665585,0.500472865888447,-0.505750056237245,-0.00581618253070819,0.5,0.0115001124744905,1.09948122512442,0.0232478037527497,2.87900767203723,0.5,85.7302697527772
CBC_1005,CBC_1005_MSI_TV_v3_Vset2_Tset1_2023-06-03_12h55.30.379.csv,2,13,1,0,z,0,1,1,tac,A,63,1,1A,0A,0,1,b,3.28987309999866,1,0,0,0,1A,0A,A10,2.63905732961526,0.511433986181028,0.5,0.5,0.5,0.499933873706537,0.511433986181028,0.5,0.5,0.494249943762755,0.5,0.505750056237245,0.494249943762755,0.5,0.5,0.494249943762755,0.511433986181028,0.494347635961789,0.505652364038211,0.5,0.511433986181028,0.102786078991482,0.499614934970012,-0.5,-0.00575005623724523,0.5,0.0115001124744905,1.09948122512442,0.0232478037527497,2.87900767203723,0.5,85.7302697527772
CBC_1005,CBC_1005_MSI_TV_v3_Vset2_Tset1_2023-06-03_12h55.30.379.csv,2,14,2,1,b,1,0,2,tac,C,9,1,2C,1C,1,0,b,2.73018709999997,1,0,1,1,2C,1C,C21,3.36729582998647,0.511433986181028,0.494249943762755,0.5,0.5,0.499933873706537,0.511433986181028,0.5,0.5,0.494249943762755,0.5,0.505750056237245,0.494249943762755,0.5,0.5,0.494249943762755,0.511433986181028,0.502858591059273,0.497141408940728,0.505750056237245,0.5,0.143347235404295,0.499907222899407,0.494249943762755,0.00568392994378226,0.5,0.0115001124744905,1.09948122512442,0.0232478037527497,2.87900767203723,0.5,85.7302697527772
CBC_1005,CBC_1005_MSI_TV_v3_Vset2_Tset1_2023-06-03_12h55.30.379.csv,2,15,0,1,b,1,0,1,tac,A,63,1,0A,1A,1,0,b,2.4738011999998,1,0,1,1,0A,1A,A01,3.40119738166216,0.511433986181028,0.494249943762755,0.5,0.5,0.499933873706537,0.511433986181028,0.5,0.5,0.494249943762755,0.5,0.511433986181028,0.494249943762755,0.5,0.5,0.494249943762755,0.511433986181028,0.508543460776605,0.491456539223395,0.511433986181028,0.494249943762755,0.166569967218635,0.500181476833228,0.488566013818972,0.00561856411013164,0.5,0.0115001124744905,1.09948122512442,0.0232478037527497,2.87900767203723,0.5,85.7302697527772
CBC_1005,CBC_1005_MSI_TV_v3_Vset2_Tset1_2023-06-03_12h55.30.379.csv,2,16,1,3,z,0,1,3,tac,D,27,1,1D,3D,0,1,z,2.31028789999982,0,1,1,1,3D,1D,D13,3.43398720448515,0.517052550291159,0.494249943762755,0.5,0.5,0.499933873706537,0.511433986181028,0.5,0.5,0.494249943762755,0.5,0.511433986181028,0.494249943762755,0.5,0.5,0.494249943762755,0.511433986181028,0.505652364038211,0.494347635961789,0.511433986181028,0.5,0.182704987598717,0.500292006206406,0.488566013818972,0.00561856411013164,0.5,0.0115001124744905,1.09948122512442,0.0232478037527497,2.87900767203723,0.5,85.7302697527772
CBC_1005,CBC_1005_MSI_TV_v3_Vset2_Tset1_2023-06-03_12h55.30.379.csv,2,17,1,0,b,1,0,0,tac,B,63,1,1B,0B,1,0,z,2.59273929999836,0,1,0,0,0B,1B,B10,2.77258872223978,0.517052550291159,0.494249943762755,0.5,0.5,0.499933873706537,0.511433986181028,0.5,0.5,0.494249943762755,0.5,0.511433986181028,0.494249943762755,0.5,0.5,0.494249943762755,0.517052550291159,0.494314574878932,0.505685425121068,0.499933873706537,0.511433986181028,0.155843489576238,0.501372229794735,-0.499933873706537,-0.00574929577743288,0.5,0.0115001124744905,1.09948122512442,0.0232478037527497,2.87900767203723,0.5,85.7302697527772
CBC_1005,CBC_1005_MSI_TV_v3_Vset2_Tset1_2023-06-03_12h55.30.379.csv,2,18,3,2,z,0,1,2,tac,C,63,0,3C,2C,1,0,b,2.61747560000003,1,0,0,1,3C,2C,C32,3.49650756146648,0.517052550291159,0.494249943762755,0.5,0.5,0.494184577929104,0.511433986181028,0.5,0.5,0.494249943762755,0.5,0.511433986181028,0.494249943762755,0.5,0.5,0.494249943762755,0.517052550291159,0.491456539223395,0.508543460776605,0.494249943762755,0.511433986181028,0.15302388823133,0.499469374809793,0.505750056237245,0.00581618253070819,0.5,0.0115001124744905,1.09948122512442,0.0232478037527497,2.87900767203723,0.5,85.7302697527772
CBC_1005,CBC_1005_MSI_TV_v3_Vset2_Tset1_2023-06-03_12h55.30.379.csv,2,19,0,2,b,1,0,1,tac,A,27,1,0A,2A,1,0,b,3.02194259999851,1,0,1,1,0A,2A,A02,3.52636052461616,0.517052550291159,0.494249943762755,0.5,0.5,0.494184577929104,0.511433986181028,0.5,0.5,0.494249943762755,0.5,0.511433986181028,0.500066126293463,0.5,0.5,0.494249943762755,0.517052550291159,0.508383318190529,0.491616681809471,0.517052550291159,0.5,0.120828552074378,0.500832528736088,0.482947449708841,0.00555394999091999,0.5,0.0115001124744905,1.09948122512442,0.0232478037527497,2.87900767203723,0.5,85.7302697527772
CBC_1005,CBC_1005_MSI_TV_v3_Vset2_Tset1_2023-06-03_12h55.30.379.csv,2,20,2,3,z,0,1,3,tac,D,63,1,2D,3D,0,1,z,2.44911270000011,0,1,1,1,3D,2D,D23,2.4567357728213,0.522606500282079,0.494249943762755,0.5,0.5,0.494184577929104,0.511433986181028,0.5,0.5,0.494249943762755,0.5,0.511433986181028,0.500066126293463,0.5,0.5,0.494249943762755,0.517052550291159,0.511273880299156,0.488726119700844,0.517052550291159,0.494249943762755,0.16894288428795,0.500174794551481,0.482947449708841,0.00555394999091999,0.5,0.0115001124744905,1.09948122512442,0.0232478037527497,2.87900767203723,0.5,85.7302697527772
CBC_1005,CBC_1005_MSI_TV_v3_Vset2_Tset1_2023-06-03_12h55.30.379.csv,2,21,1,3,b,1,0,0,tac,B,27,1,1B,3B,1,0,b,3.63242469999932,1,0,1,1,1B,3B,B13,3.58351893845611,0.522606500282079,0.494249943762755,0.5,0.5,0.494184577929104,0.511433986181028,0.5,0.5,0.494249943762755,0.5,0.511433986181028,0.500066126293463,0.5,0.5,0.494249943762755,0.522606500282079,0.505652364038211,0.494347635961789,0.511433986181028,0.5,0.0839350079833964,0.500247548592521,0.488566013818972,0.00561856411013164,0.5,0.0115001124744905,1.09948122512442,0.0232478037527497,2.87900767203723,0.5,85.7302697527772
CBC_1005,CBC_1005_MSI_TV_v3_Vset2_Tset1_2023-06-03_12h55.30.379.csv,2,22,2,3,b,1,0,2,tac,C,63,1,2C,3C,1,0,z,3.60844439999892,0,1,0,0,3C,2C,C23,2.51230562397611,0.522606500282079,0.494249943762755,0.5,0.5,0.494184577929104,0.517052550291159,0.5,0.5,0.494249943762755,0.5,0.511433986181028,0.500066126293463,0.5,0.5,0.494249943762755,0.522606500282079,0.494380692721944,0.505619307278056,0.500066126293463,0.511433986181028,0.0851856179231159,0.500505214948822,-0.500066126293463,-0.00575081669705757,0.5,0.0115001124744905,1.09948122512442,0.0232478037527497,2.87900767203723,0.5,85.7302697527772
CBC_1005,CBC_1005_MSI_TV_v3_Vset2_Tset1_2023-06-03_12h55.30.379.csv,2,23,1,0,z,0,1,1,tac,A,63,0,1A,0A,1,0,b,2.37175000000025,1,0,0,1,1A,0A,A10,2.53897387105828,0.522606500282079,0.494249943762755,0.5,0.5,0.494184577929104,0.517052550291159,0.5,0.5,0.494249943762755,0.5,0.511433986181028,0.494315309596405,0.5,0.5,0.494249943762755,0.522606500282079,0.486056755265016,0.513943244734983,0.494249943762755,0.522606500282079,0.176422199321494,0.499890800002795,0.505750056237245,0.00581618253070819,0.5,0.0115001124744905,1.09948122512442,0.0232478037527497,2.87900767203723,0.5,85.7302697527772
CBC_1005,CBC_1005_MSI_TV_v3_Vset2_Tset1_2023-06-03_12h55.30.379.csv,2,24,1,2,b,1,0,0,tac,B,9,1,1B,2B,1,0,z,3.49749900000097,0,1,0,0,2B,1B,B12,3.66356164612965,0.522606500282079,0.500066126293463,0.5,0.5,0.494184577929104,0.517052550291159,0.5,0.5,0.494249943762755,0.5,0.511433986181028,0.494315309596405,0.5,0.5,0.494249943762755,0.522606500282079,0.491616681809471,0.508383318190529,0.5,0.517052550291159,0.0907836821591016,0.499309110502273,-0.5,-0.00575005623724523,0.5,0.0115001124744905,1.09948122512442,0.0232478037527497,2.87900767203723,0.5,85.7302697527772
CBC_1005,CBC_1005_MSI_TV_v3_Vset2_Tset1_2023-06-03_12h55.30.379.csv,2,25,3,2,z,0,1,2,tac,C,63,1,3C,2C,0,1,b,2.64172399999916,1,0,0,0,3C,2C,C32,2.99573227355399,0.522606500282079,0.500066126293463,0.5,0.5,0.494184577929104,0.517052550291159,0.494249943762755,0.5,0.494249943762755,0.5,0.511433986181028,0.494315309596405,0.5,0.5,0.494249943762755,0.522606500282079,0.491489590568696,0.508510409431303,0.494315309596405,0.511433986181028,0.150909055471943,0.499610514080755,-0.494315309596405,-0.00568468165822123,0.5,0.0115001124744905,1.09948122512442,0.0232478037527497,2.87900767203723,0.5,85.7302697527772
CBC_1005,CBC_1005_MSI_TV_v3_Vset2_Tset1_2023-06-03_12h55.30.379.csv,2,26,3,2,b,1,0,3,tac,D,63,1,3D,2D,1,0,b,2.90075939999952,1,0,1,1,3D,2D,D32,3.71357206670431,0.522606500282079,0.500066126293463,0.5,0.5,0.494184577929104,0.517052550291159,0.494249943762755,0.5,0.494249943762755,0.5,0.511433986181028,0.488630627938184,0.5,0.5,0.494249943762755,0.522606500282079,0.513943244734983,0.486056755265016,0.522606500282079,0.494249943762755,0.129642944319181,0.500087127414279,0.477393499717921,0.00549007894134672,0.5,0.0115001124744905,1.09948122512442,0.0232478037527497,2.87900767203723,0.5,85.7302697527772
CBC_1005,CBC_1005_MSI_TV_v3_Vset2_Tset1_2023-06-03_12h55.30.379.csv,2,27,1,0,b,1,0,0,tac,B,63,1,1B,0B,1,0,z,2.12158330000057,0,1,0,0,0B,1B,B10,2.63905732961526,0.522606500282079,0.500066126293463,0.5,0.5,0.494184577929104,0.517052550291159,0.494249943762755,0.5,0.494249943762755,0.5,0.511433986181028,0.488630627938184,0.5,0.5,0.494249943762755,0.528096579223426,0.488693071227368,0.511306928772632,0.494184577929104,0.517052550291159,0.20105831427468,0.498928288695462,-0.494184577929104,-0.00568317822934329,0.5,0.0115001124744905,1.09948122512442,0.0232478037527497,2.87900767203723,0.5,85.7302697527772
CBC_1005,CBC_1005_MSI_TV_v3_Vset2_Tset1_2023-06-03_12h55.30.379.csv,2,28,2,0,z,0,1,1,tac,A,27,1,2A,0A,0,1,b,2.80322359999991,1,0,0,0,2A,0A,A20,3.76120011569356,0.522606500282079,0.500066126293463,0.5,0.5,0.488501399699761,0.517052550291159,0.494249943762755,0.5,0.494249943762755,0.5,0.511433986181028,0.488630627938184,0.5,0.5,0.494249943762755,0.528096579223426,0.488946627918049,0.511053372081951,0.5,0.522606500282079,0.137574972946648,0.500912339966924,-0.5,-0.00575005623724523,0.5,0.0115001124744905,1.09948122512442,0.0232478037527497,2.87900767203723,0.5,85.7302697527772
CBC_1005,CBC_1005_MSI_TV_v3_Vset2_Tset1_2023-06-03_12h55.30.379.csv,2,29,3,1,b,1,0,3,tac,D,27,1,3D,1D,1,0,b,3.46269959999881,1,0,1,1,3D,1D,D31,3.09104245335832,0.522606500282079,0.500066126293463,0.494249943762755,0.5,0.488501399699761,0.517052550291159,0.494249943762755,0.5,0.494249943762755,0.5,0.511433986181028,0.488630627938184,0.5,0.5,0.494249943762755,0.528096579223426,0.513664367624221,0.486335632375779,0.528096579223426,0.5,0.0926492631761324,0.499123926309088,0.471903420776574,0.0054269424160274,0.5,0.0115001124744905,1.09948122512442,0.0232478037527497,2.87900767203723,0.5,85.7302697527772
CBC_1005,CBC_1005_MSI_TV_v3_Vset2_Tset1_2023-06-03_12h55.30.379.csv,2,30,0,1,b,1,0,1,tac,A,63,1,0A,1A,1,0,z,3.23807429999943,0,1,0,0,1A,0A,A01,3.11351530921037,0.522606500282079,0.500066126293463,0.494249943762755,0.5,0.488501399699761,0.517052550291159,0.494249943762755,0.5,0.494249943762755,0.5,0.511433986181028,0.488630627938184,0.5,0.5,0.494249943762755,0.533523521639453,0.488979672769724,0.511020327230276,0.500066126293463,0.522606500282079,0.105868756009736,0.498983709627194,-0.500066126293463,-0.00575081669705757,0.5,0.0115001124744905,1.09948122512442,0.0232478037527497,2.87900767203723,0.5,85.7302697527772
CBC_1005,CBC_1005_MSI_TV_v3_Vset2_Tset1_2023-06-03_12h55.30.379.csv,2,31,0,2,z,0,1,2,tac,C,27,1,0C,2C,0,1,b,2.57596740000008,1,0,0,0,0C,2C,C02,3.8286413964891,0.522606500282079,0.494315309596405,0.494249943762755,0.5,0.488501399699761,0.517052550291159,0.494249943762755,0.5,0.494249943762755,0.5,0.511433986181028,0.488630627938184,0.5,0.5,0.494249943762755,0.533523521639453,0.491456539223395,0.508543460776605,0.494249943762755,0.511433986181028,0.157020775825808,0.500243082818824,-0.494249943762755,-0.00568392994378226,0.5,0.0115001124744905,1.09948122512442,0.0232478037527497,2.87900767203723,0.5,85.7302697527772
CBC_1005,CBC_1005_MSI_TV_v3_Vset2_Tset1_2023-06-03_12h55.30.379.csv,2,32,3,2,b,1,0,3,tac,D,63,1,3D,2D,1,0,z,3.62927660000059,0,1,0,0,2D,3D,D32,3.15700042115011,0.522606500282079,0.494315309596405,0.494249943762755,0.5,0.488501399699761,0.517052550291159,0.494249943762755,0.5,0.488566013818973,0.5,0.511433986181028,0.488630627938184,0.5,0.5,0.494249943762755,0.533523521639453,0.480893854920973,0.519106145079027,0.494249943762755,0.533523521639453,0.0839752017826976,0.49955009225274,-0.494249943762755,-0.00568392994378226,0.5,0.0115001124744905,1.09948122512442,0.0232478037527497,2.87900767203723,0.5,85.7302697527772
CBC_1005,CBC_1005_MSI_TV_v3_Vset2_Tset1_2023-06-03_12h55.30.379.csv,2,33,0,1,z,0,1,0,tac,B,63,1,0B,1B,0,1,b,1.92301380000026,1,0,0,0,0B,1B,B01,2.77258872223978,0.522606500282079,0.494315309596405,0.494249943762755,0.5,0.488501399699761,0.517052550291159,0.494249943762755,0.5,0.488566013818973,0.5,0.511433986181028,0.488630627938184,0.5,0.5,0.488566013818973,0.533523521639453,0.485803272618214,0.514196727381786,0.488501399699761,0.517052550291159,0.218097971718403,0.499413987727016,-0.488501399699761,-0.00561782104049327,0.5,0.0115001124744905,1.09948122512442,0.0232478037527497,2.87900767203723,0.5,85.7302697527772
CBC_1005,CBC_1005_MSI_TV_v3_Vset2_Tset1_2023-06-03_12h55.30.379.csv,2,34,1,0,z,0,1,1,tac,A,63,1,1A,0A,0,1,z,3.71179299999858,0,1,1,1,0A,1A,A10,2.50552593699074,0.522606500282079,0.494315309596405,0.494249943762755,0.5,0.482883578659268,0.517052550291159,0.494249943762755,0.5,0.488566013818973,0.5,0.511433986181028,0.488630627938184,0.5,0.5,0.488566013818973,0.533523521639453,0.513910209423601,0.486089790576399,0.522606500282079,0.494315309596405,0.0800856847296755,0.500398718946734,0.477393499717921,0.00549007894134672,0.5,0.0115001124744905,1.09948122512442,0.0232478037527497,2.87900767203723,0.5,85.7302697527772
CBC_1005,CBC_1005_MSI_TV_v3_Vset2_Tset1_2023-06-03_12h55.30.379.csv,2,35,3,2,b,1,0,3,tac,D,63,0,3D,2D,0,1,z,2.43123679999917,0,1,0,1,2D,3D,D32,2.81341071676004,0.528096579223426,0.494315309596405,0.494249943762755,0.5,0.482883578659268,0.517052550291159,0.494249943762755,0.5,0.488566013818973,0.5,0.511433986181028,0.488630627938184,0.5,0.5,0.488566013818973,0.533523521639453,0.478007059919503,0.521992940080497,0.488566013818973,0.533523521639453,0.170324015294159,0.49914127788998,0.511433986181028,0.00588154836435881,0.5,0.0115001124744905,1.09948122512442,0.0232478037527497,2.87900767203723,0.5,85.7302697527772
CBC_1005,CBC_1005_MSI_TV_v3_Vset2_Tset1_2023-06-03_12h55.30.379.csv,2,36,0,2,z,0,1,2,tac,C,27,1,0C,2C,0,1,b,2.93198809999922,1,0,0,0,0C,2C,C02,3.23867845216438,0.528096579223426,0.494315309596405,0.494249943762755,0.5,0.482883578659268,0.517052550291159,0.494249943762755,0.5,0.488566013818973,0.5,0.511433986181028,0.488630627938184,0.5,0.5,0.494447562183331,0.533523521639453,0.488566013818973,0.511433986181028,0.488566013818973,0.511433986181028,0.127247229278971,0.500018288297901,-0.488566013818973,-0.00561856411013164,0.5,0.0115001124744905,1.09948122512442,0.0232478037527497,2.87900767203723,0.5,85.7302697527772
CBC_1005,CBC_1005_MSI_TV_v3_Vset2_Tset1_2023-06-03_12h55.30.379.csv,2,37,1,0,z,0,1,1,tac,A,63,1,1A,0A,0,1,z,3.84742909999841,0,1,1,1,0A,1A,A10,2.34180580614733,0.528096579223426,0.494315309596405,0.494249943762755,0.5,0.482883578659268,0.517052550291159,0.494249943762755,0.5,0.482947449708841,0.5,0.511433986181028,0.488630627938184,0.5,0.5,0.494447562183331,0.533523521639453,0.516520381852178,0.483479618147822,0.528096579223426,0.494315309596405,0.0741293308560319,0.502135383242253,0.471903420776574,0.0054269424160274,0.5,0.0115001124744905,1.09948122512442,0.0232478037527497,2.87900767203723,0.5,85.7302697527772
CBC_1005,CBC_1005_MSI_TV_v3_Vset2_Tset1_2023-06-03_12h55.30.379.csv,2,38,3,1,z,0,1,0,tac,B,27,1,3B,1B,0,1,z,2.9715228999994,0,1,1,1,1B,3B,B31,3.27714473299218,0.533523521639453,0.494315309596405,0.494249943762755,0.5,0.482883578659268,0.517052550291159,0.494249943762755,0.5,0.482947449708841,0.5,0.511433986181028,0.488630627938184,0.5,0.5,0.494447562183331,0.533523521639453,0.508383318190529,0.491616681809471,0.517052550291159,0.5,0.124385858953366,0.500373845260773,0.482947449708841,0.00555394999091999,0.5,0.0115001124744905,1.09948122512442,0.0232478037527497,2.87900767203723,0.5,85.7302697527772
CBC_1005,CBC_1005_MSI_TV_v3_Vset2_Tset1_2023-06-03_12h55.30.379.csv,2,39,2,3,b,1,0,2,tac,C,63,1,2C,3C,1,0,z,2.83914969999933,0,1,0,0,3C,2C,C23,2.60268968544438,0.533523521639453,0.494315309596405,0.494249943762755,0.5,0.482883578659268,0.522606500282079,0.494249943762755,0.5,0.482947449708841,0.5,0.511433986181028,0.488630627938184,0.5,0.5,0.494447562183331,0.533523521639453,0.488599057540434,0.511400942459567,0.488630627938184,0.511433986181028,0.13418731453576,0.499070193860746,-0.488630627938184,-0.00561930717977001,0.5,0.0115001124744905,1.09948122512442,0.0232478037527497,2.87900767203723,0.5,85.7302697527772
CBC_1005,CBC_1005_MSI_TV_v3_Vset2_Tset1_2023-06-03_12h55.30.379.csv,2,40,2,3,z,0,1,3,tac,D,63,1,2D,3D,NaN,NaN,None,NaN,NaN,NaN,NaN,NaN,,,D23,2.62103882411258,0.533523521639453,0.494315309596405,0.494249943762755,0.5,0.482883578659268,0.522606500282079,0.494249943762755,0.5,0.482947449708841,0.5,0.511433986181028,0.483011320758414,0.5,0.5,0.494447562183331,0.533523521639453,0,0,0,0,NaN,0,0,0,0.5,0.0115001124744905,1.09948122512442,0.0232478037527497,2.87900767203723,0.5,85.7302697527772
CBC_1005,CBC_1005_MSI_TV_v3_Vset2_Tset1_2023-06-03_12h55.30.379.csv,2,41,1,0,b,1,0,0,tac,B,63,1,1B,0B,1,0,b,2.25367709999955,1,0,1,1,1B,0B,B10,2.63905732961526,0.533523521639453,0.494315309596405,0.494249943762755,0.5,0.482883578659268,0.522606500282079,0.494249943762755,0.5,0.482947449708841,0.5,0.511433986181028,0.483011320758414,0.5,0.5,0.494447562183331,0.533523521639453,0.519753015198636,0.480246984801364,0.522606500282079,0.482883578659268,0.188019162326641,0.499244228870237,0.477393499717921,0.00549007894134672,0.5,0.0115001124744905,1.09948122512442,0.0232478037527497,2.87900767203723,0.5,85.7302697527772
CBC_1005,CBC_1005_MSI_TV_v3_Vset2_Tset1_2023-06-03_12h55.30.379.csv,2,42,0,2,b,1,0,1,tac,A,27,1,0A,2A,1,0,z,2.50974179999866,0,1,0,0,2A,0A,A02,3.3499040872746,0.533523521639453,0.494315309596405,0.494249943762755,0.5,0.482883578659268,0.528096579223426,0.494249943762755,0.5,0.482947449708841,0.5,0.511433986181028,0.483011320758414,0.5,0.5,0.494447562183331,0.533523521639453,0.480893854920973,0.519106145079027,0.494249943762755,0.533523521639453,0.162639084618326,0.498600470149203,-0.494249943762755,-0.00568392994378226,0.5,0.0115001124744905,1.09948122512442,0.0232478037527497,2.87900767203723,0.5,85.7302697527772
CBC_1005,CBC_1005_MSI_TV_v3_Vset2_Tset1_2023-06-03_12h55.30.379.csv,2,43,0,3,z,0,1,3,tac,D,9,1,0D,3D,0,1,z,2.20677239999895,0,1,1,1,3D,0D,D03,4.06044301054642,0.533523521639453,0.494315309596405,0.488566013818973,0.5,0.482883578659268,0.528096579223426,0.494249943762755,0.5,0.482947449708841,0.5,0.511433986181028,0.483011320758414,0.5,0.5,0.494447562183331,0.533523521639453,0.516218073869415,0.483781926130585,0.533523521639453,0.5,0.193118716833444,0.500221830582436,0.466476478360547,0.0053645319678505,0.5,0.0115001124744905,1.09948122512442,0.0232478037527497,2.87900767203723,0.5,85.7302697527772
CBC_1005,CBC_1005_MSI_TV_v3_Vset2_Tset1_2023-06-03_12h55.30.379.csv,2,44,2,3,b,1,0,2,tac,C,63,1,2C,3C,1,0,b,2.30718490000072,1,0,1,1,2C,3C,C23,2.46809953147162,0.533523521639453,0.494315309596405,0.488566013818973,0.5,0.482883578659268,0.528096579223426,0.494249943762755,0.5,0.482947449708841,0.5,0.511433986181028,0.483011320758414,0.5,0.5,0.494447562183331,0.538888053607304,0.514290713236954,0.485709286763046,0.511433986181028,0.483011320758414,0.1827846719958,0.499656885244016,0.488566013818972,0.00561856411013164,0.5,0.0115001124744905,1.09948122512442,0.0232478037527497,2.87900767203723,0.5,85.7302697527772
CBC_1005,CBC_1005_MSI_AV_v3_Vset6_Aset3_2023-06-03_14h15.22.631.csv,3,1,0,1,b,1,0,1,aud,A,63,1,0A,1A,1,0,b,2.65012910000041,1,0,1,1,0A,1A,A01,2.77258872223978,0.5,0.5,0.5,0.5,0.5,0.5,0.5,0.5,0.5,0.5,0.5,0.5,0.5,0.5,0.5,0.5,0.5,0.5,0.5,0.5,0.0987165120001252,0.498537722844808,0.5,0.00460478314192292,0.5,0.00920956628384584,0.312579799082009,3.35503619811568,3.15316363119506,0.5,103.734924298043
CBC_1005,CBC_1005_MSI_AV_v3_Vset6_Aset3_2023-06-03_14h15.22.631.csv,3,2,3,2,z,0,1,2,aud,C,63,1,3C,2C,0,1,b,2.78154659999927,1,0,0,0,3C,2C,C32,2.83321334405622,0.504604783141923,0.5,0.5,0.5,0.5,0.5,0.5,0.5,0.5,0.5,0.5,0.5,0.5,0.5,0.5,0.5,0.5,0.5,0.5,0.5,0.0927469536241481,0.499903924683136,-0.5,-0.00460478314192292,0.5,0.00920956628384584,0.312579799082009,3.35503619811568,3.15316363119506,0.5,103.734924298043
CBC_1005,CBC_1005_MSI_AV_v3_Vset6_Aset3_2023-06-03_14h15.22.631.csv,3,3,0,2,b,1,0,1,aud,A,27,1,0A,2A,1,0,z,3.39125649999914,0,1,0,0,2A,0A,A02,2.89037175789616,0.504604783141923,0.5,0.5,0.5,0.5,0.5,0.5,0.5,0.5,0.5,0.5,0.495395216858077,0.5,0.5,0.5,0.5,0.497708161846731,0.502291838153269,0.5,0.504604783141923,0.0667969727967163,0.487235334441767,-0.5,-0.00460478314192292,0.5,0.00920956628384584,0.312579799082009,3.35503619811568,3.15316363119506,0.5,103.734924298043
CBC_1005,CBC_1005_MSI_AV_v3_Vset6_Aset3_2023-06-03_14h15.22.631.csv,3,4,1,0,b,1,0,0,aud,B,63,1,1B,0B,1,0,z,2.42638019999868,0,1,0,0,0B,1B,B10,2.94443897916644,0.504604783141923,0.5,0.495395216858077,0.5,0.5,0.5,0.5,0.5,0.5,0.5,0.5,0.495395216858077,0.5,0.5,0.5,0.5,0.5,0.5,0.5,0.5,0.110504786714765,0.499611711204943,-0.5,-0.00460478314192292,0.5,0.00920956628384584,0.312579799082009,3.35503619811568,3.15316363119506,0.5,103.734924298043
CBC_1005,CBC_1005_MSI_AV_v3_Vset6_Aset3_2023-06-03_14h15.22.631.csv,3,5,0,1,z,0,1,0,aud,B,63,1,0B,1B,0,1,z,2.55997249999928,0,1,1,1,1B,0B,B01,2.99573227355399,0.504604783141923,0.5,0.495395216858077,0.5,0.495395216858077,0.5,0.5,0.5,0.5,0.5,0.5,0.495395216858077,0.5,0.5,0.5,0.5,0.502313042630674,0.497686957369326,0.5,0.495395216858077,0.1060539889681,0.512202100988438,0.5,0.00460478314192292,0.5,0.00920956628384584,0.312579799082009,3.35503619811568,3.15316363119506,0.5,103.734924298043
CBC_1005,CBC_1005_MSI_AV_v3_Vset6_Aset3_2023-06-03_14h15.22.631.csv,3,6,3,2,z,0,1,2,aud,C,63,1,3C,2C,0,1,z,3.13771240000096,0,1,1,1,2C,3C,C32,2.35137525716348,0.504604783141923,0.5,0.495395216858077,0.5,0.495395216858077,0.504604783141923,0.5,0.5,0.5,0.5,0.5,0.495395216858077,0.5,0.5,0.5,0.5,0.502313042630674,0.497686957369326,0.5,0.495395216858077,0.0795465513643917,0.511615408011762,0.5,0.00460478314192292,0.5,0.00920956628384584,0.312579799082009,3.35503619811568,3.15316363119506,0.5,103.734924298043
CBC_1005,CBC_1005_MSI_AV_v3_Vset6_Aset3_2023-06-03_14h15.22.631.csv,3,7,3,1,b,1,0,3,aud,D,27,1,3D,1D,1,0,b,3.11800229999972,1,0,1,1,3D,1D,D31,3.09104245335832,0.504604783141923,0.5,0.495395216858077,0.5,0.495395216858077,0.504604783141923,0.5,0.5,0.5,0.5,0.504604783141923,0.495395216858077,0.5,0.5,0.5,0.5,0.5,0.5,0.5,0.5,0.0788258307532171,0.502028112449683,0.5,0.00460478314192292,0.5,0.00920956628384584,0.312579799082009,3.35503619811568,3.15316363119506,0.5,103.734924298043
CBC_1005,CBC_1005_MSI_AV_v3_Vset6_Aset3_2023-06-03_14h15.22.631.csv,3,8,1,2,z,0,1,2,aud,C,9,1,1C,2C,0,1,z,3.29575549999936,0,1,1,1,2C,1C,C12,3.13549421592915,0.504604783141923,0.5,0.495395216858077,0.5,0.495395216858077,0.504604783141923,0.5,0.5,0.5,0.5,0.504604783141923,0.495395216858077,0.5,0.5,0.5,0.504604783141923,0.502291838153269,0.497708161846731,0.504604783141923,0.5,0.0735793175056887,0.511853283575342,0.495395216858077,0.00456237508635464,0.5,0.00920956628384584,0.312579799082009,3.35503619811568,3.15316363119506,0.5,103.734924298043
CBC_1005,CBC_1005_MSI_AV_v3_Vset6_Aset3_2023-06-03_14h15.22.631.csv,3,9,3,1,z,0,1,0,aud,B,27,1,3B,1B,0,1,z,3.41922239999985,0,1,1,1,1B,3B,B31,3.17805383034795,0.504604783141923,0.5,0.495395216858077,0.5,0.495395216858077,0.504604783141923,0.5,0.5,0.5,0.5,0.509167158228278,0.495395216858077,0.5,0.5,0.5,0.504604783141923,0.502291838153269,0.497708161846731,0.504604783141923,0.5,0.0691783558110508,0.511652948930746,0.495395216858077,0.00456237508635464,0.5,0.00920956628384584,0.312579799082009,3.35503619811568,3.15316363119506,0.5,103.734924298043
CBC_1005,CBC_1005_MSI_AV_v3_Vset6_Aset3_2023-06-03_14h15.22.631.csv,3,10,3,2,b,1,0,3,aud,D,63,1,3D,2D,1,0,b,3.3393472000007,1,0,1,1,3D,2D,D32,3.2188758248682,0.504604783141923,0.5,0.495395216858077,0.5,0.495395216858077,0.509167158228278,0.5,0.5,0.5,0.5,0.509167158228278,0.495395216858077,0.5,0.5,0.5,0.504604783141923,0.502291838153269,0.497708161846731,0.504604783141923,0.5,0.0721151257703074,0.512645214116976,0.495395216858077,0.00456237508635464,0.5,0.00920956628384584,0.312579799082009,3.35503619811568,3.15316363119506,0.5,103.734924298043
CBC_1005,CBC_1005_MSI_AV_v3_Vset6_Aset3_2023-06-03_14h15.22.631.csv,3,11,1,0,b,1,0,0,aud,B,63,1,1B,0B,1,0,z,2.76462150000043,0,1,0,0,0B,1B,B10,2.56494935746154,0.504604783141923,0.5,0.495395216858077,0.5,0.495395216858077,0.509167158228278,0.5,0.5,0.5,0.5,0.509167158228278,0.495395216858077,0.5,0.5,0.5,0.509167158228278,0.493145303013655,0.506854696986345,0.495395216858077,0.509167158228278,0.0866986850270078,0.463384344891313,-0.495395216858077,-0.00456237508635464,0.5,0.00920956628384584,0.312579799082009,3.35503619811568,3.15316363119506,0.5,103.734924298043
CBC_1005,CBC_1005_MSI_AV_v3_Vset6_Aset3_2023-06-03_14h15.22.631.csv,3,12,0,2,z,0,1,2,aud,C,27,1,0C,2C,0,1,z,3.2121860999996,0,1,1,1,2C,0C,C02,3.29583686600433,0.504604783141923,0.5,0.495395216858077,0.5,0.490832841771722,0.509167158228278,0.5,0.5,0.5,0.5,0.509167158228278,0.495395216858077,0.5,0.5,0.5,0.509167158228278,0.504541942409408,0.495458057590592,0.509167158228278,0.5,0.0785536699519789,0.524333398282281,0.490832841771722,0.00452035759058509,0.5,0.00920956628384584,0.312579799082009,3.35503619811568,3.15316363119506,0.5,103.734924298043
CBC_1005,CBC_1005_MSI_AV_v3_Vset6_Aset3_2023-06-03_14h15.22.631.csv,3,13,3,2,b,1,0,3,aud,D,63,0,3D,2D,0,1,b,2.81930420000026,1,0,1,0,3D,2D,D32,2.63905732961526,0.504604783141923,0.5,0.495395216858077,0.5,0.490832841771722,0.509167158228278,0.5,0.5,0.5,0.5,0.513687515818863,0.495395216858077,0.5,0.5,0.5,0.509167158228278,0.504541942409408,0.495458057590592,0.509167158228278,0.5,0.0954288647655531,0.524082913896879,-0.509167158228278,-0.00468920869326074,0.5,0.00920956628384584,0.312579799082009,3.35503619811568,3.15316363119506,0.5,103.734924298043
CBC_1005,CBC_1005_MSI_AV_v3_Vset6_Aset3_2023-06-03_14h15.22.631.csv,3,14,1,0,z,0,1,1,aud,A,63,1,1A,0A,0,1,z,2.46334999999999,0,1,1,1,0A,1A,A10,3.36729582998647,0.504604783141923,0.5,0.495395216858077,0.5,0.490832841771722,0.509167158228278,0.5,0.5,0.5,0.5,0.513687515818863,0.495395216858077,0.5,0.5,0.5,0.504477949535017,0.502291838153269,0.497708161846731,0.504604783141923,0.5,0.111189652543072,0.511950521948118,0.495395216858077,0.00456237508635464,0.5,0.00920956628384584,0.312579799082009,3.35503619811568,3.15316363119506,0.5,103.734924298043
CBC_1005,CBC_1005_MSI_AV_v3_Vset6_Aset3_2023-06-03_14h15.22.631.csv,3,15,2,3,b,1,0,2,aud,C,63,1,2C,3C,1,0,z,2.41484060000039,0,1,0,0,3C,2C,C23,3.40119738166216,0.509167158228278,0.5,0.495395216858077,0.5,0.490832841771722,0.509167158228278,0.5,0.5,0.5,0.5,0.513687515818863,0.495395216858077,0.5,0.5,0.5,0.504477949535017,0.490936174820741,0.509063825179259,0.495395216858077,0.513687515818863,0.100714614746394,0.452448006140455,-0.495395216858077,-0.00456237508635464,0.5,0.00920956628384584,0.312579799082009,3.35503619811568,3.15316363119506,0.5,103.734924298043
CBC_1005,CBC_1005_MSI_AV_v3_Vset6_Aset3_2023-06-03_14h15.22.631.csv,3,16,0,2,b,1,0,1,aud,A,27,1,0A,2A,1,0,z,3.88092140000117,0,1,0,0,2A,0A,A02,2.7408400239252,0.509167158228278,0.5,0.495395216858077,0.5,0.490832841771722,0.509167158228278,0.5,0.5,0.5,0.5,0.513687515818863,0.490832841771722,0.5,0.5,0.5,0.504477949535017,0.493145303013655,0.506854696986345,0.495395216858077,0.509167158228278,0.0498768617232707,0.464381437178534,-0.495395216858077,-0.00456237508635464,0.5,0.00920956628384584,0.312579799082009,3.35503619811568,3.15316363119506,0.5,103.734924298043
CBC_1005,CBC_1005_MSI_AV_v3_Vset6_Aset3_2023-06-03_14h15.22.631.csv,3,17,2,3,z,0,1,3,aud,D,63,1,2D,3D,NaN,NaN,[],NaN,NaN,NaN,NaN,NaN,,,D23,3.46573590279973,0.509167158228278,0.5,0.490832841771722,0.5,0.490832841771722,0.509167158228278,0.5,0.5,0.5,0.5,0.513687515818863,0.490832841771722,0.5,0.5,0.5,0.504477949535017,0,0,0,0,NaN,0,0,0,0.5,0.00920956628384584,0.312579799082009,3.35503619811568,3.15316363119506,0.5,103.734924298043
CBC_1005,CBC_1005_MSI_AV_v3_Vset6_Aset3_2023-06-03_14h15.22.631.csv,3,18,3,2,b,1,0,3,aud,D,63,1,3D,2D,1,0,z,2.30253550000089,0,1,0,0,2D,3D,D32,2.39789527279837,0.509167158228278,0.5,0.490832841771722,0.5,0.490832841771722,0.509167158228278,0.5,0.5,0.5,0.5,0.513687515818863,0.490832841771722,0.5,0.5,0.5,0.504477949535017,0.497771006552663,0.502228993447337,0.5,0.504477949535017,0.114891867194842,0.488664245178114,-0.5,-0.00460478314192292,0.5,0.00920956628384584,0.312579799082009,3.35503619811568,3.15316363119506,0.5,103.734924298043
CBC_1005,CBC_1005_MSI_AV_v3_Vset6_Aset3_2023-06-03_14h15.22.631.csv,3,19,3,1,z,0,1,0,aud,B,27,1,3B,1B,0,1,b,2.34732380000059,1,0,0,0,3B,1B,B31,2.83321334405622,0.509167158228278,0.5,0.490832841771722,0.5,0.490832841771722,0.509167158228278,0.5,0.5,0.5,0.5,0.513687515818863,0.490832841771722,0.5,0.5,0.495395216858077,0.504477949535017,0.495458057590592,0.504541942409408,0.5,0.509167158228278,0.109460984698556,0.475868475038992,-0.5,-0.00460478314192292,0.5,0.00920956628384584,0.312579799082009,3.35503619811568,3.15316363119506,0.5,103.734924298043
CBC_1005,CBC_1005_MSI_AV_v3_Vset6_Aset3_2023-06-03_14h15.22.631.csv,3,20,0,3,z,0,1,3,aud,D,9,1,0D,3D,0,1,z,0.429054500000348,0,1,1,1,3D,0D,D03,3.55534806148941,0.509167158228278,0.5,0.490832841771722,0.5,0.490832841771722,0.509167158228278,0.5,0.495395216858077,0.5,0.5,0.513687515818863,0.490832841771722,0.5,0.5,0.495395216858077,0.504477949535017,0.502228993447337,0.497771006552663,0.504477949535017,0.5,0.000375683522842257,0.510987062865602,0.495522050464983,0.00456354316886447,0.5,0.00920956628384584,0.312579799082009,3.35503619811568,3.15316363119506,0.5,103.734924298043
CBC_1005,CBC_1005_MSI_AV_v3_Vset6_Aset3_2023-06-03_14h15.22.631.csv,3,21,1,0,b,1,0,0,aud,B,63,1,1B,0B,1,0,z,2.68989939999847,0,1,0,0,0B,1B,B10,2.484906649788,0.509167158228278,0.5,0.490832841771722,0.5,0.490832841771722,0.509167158228278,0.5,0.495395216858077,0.5,0.5,0.513687515818863,0.490832841771722,0.5,0.5,0.495395216858077,0.509041492703881,0.490832841771722,0.509167158228278,0.490832841771722,0.509167158228278,0.0879148780985467,0.452734512713572,-0.490832841771722,-0.00452035759058509,0.5,0.00920956628384584,0.312579799082009,3.35503619811568,3.15316363119506,0.5,103.734924298043
CBC_1005,CBC_1005_MSI_AV_v3_Vset6_Aset3_2023-06-03_14h15.22.631.csv,3,22,1,0,z,0,1,1,aud,A,63,1,1A,0A,0,1,z,2.38199689999965,0,1,1,1,0A,1A,A10,2.91777073208428,0.509167158228278,0.5,0.490832841771722,0.5,0.486312484181137,0.509167158228278,0.5,0.495395216858077,0.5,0.5,0.513687515818863,0.490832841771722,0.5,0.5,0.495395216858077,0.509041492703881,0.504541942409408,0.495458057590592,0.509167158228278,0.5,0.118426232172449,0.523729928931122,0.490832841771722,0.00452035759058509,0.5,0.00920956628384584,0.312579799082009,3.35503619811568,3.15316363119506,0.5,103.734924298043
CBC_1005,CBC_1005_MSI_AV_v3_Vset6_Aset3_2023-06-03_14h15.22.631.csv,3,23,2,3,b,1,0,2,aud,C,63,1,2C,3C,1,0,b,3.06116020000081,1,0,1,1,2C,3C,C23,2.94443897916644,0.513687515818863,0.5,0.490832841771722,0.5,0.486312484181137,0.509167158228278,0.5,0.495395216858077,0.5,0.5,0.513687515818863,0.490832841771722,0.5,0.5,0.495395216858077,0.509041492703881,0.511375913825161,0.488624086174839,0.513687515818863,0.490832841771722,0.0902877729837887,0.559468328510311,0.486312484181137,0.00447872705772792,0.5,0.00920956628384584,0.312579799082009,3.35503619811568,3.15316363119506,0.5,103.734924298043
CBC_1005,CBC_1005_MSI_AV_v3_Vset6_Aset3_2023-06-03_14h15.22.631.csv,3,24,0,2,b,1,0,1,aud,A,27,1,0A,2A,1,0,z,3.06049929999972,0,1,0,0,2A,0A,A02,2.56494935746154,0.513687515818863,0.5,0.490832841771722,0.5,0.486312484181137,0.509167158228278,0.5,0.495395216858077,0.5,0.5,0.518166242876591,0.490832841771722,0.5,0.5,0.495395216858077,0.509041492703881,0.488624086174839,0.511375913825161,0.490832841771722,0.513687515818863,0.07117973906133,0.440915426833029,-0.490832841771722,-0.00452035759058509,0.5,0.00920956628384584,0.312579799082009,3.35503619811568,3.15316363119506,0.5,103.734924298043
CBC_1005,CBC_1005_MSI_AV_v3_Vset6_Aset3_2023-06-03_14h15.22.631.csv,3,25,1,0,b,1,0,0,aud,B,63,1,1B,0B,1,0,b,3.22926329999973,1,0,1,1,1B,0B,B10,2.30258509299405,0.513687515818863,0.5,0.486312484181137,0.5,0.486312484181137,0.509167158228278,0.5,0.495395216858077,0.5,0.5,0.518166242876591,0.490832841771722,0.5,0.5,0.495395216858077,0.509041492703881,0.511479227235538,0.488520772764462,0.509167158228278,0.486312484181137,0.0830005297748986,0.559317603186581,0.490832841771722,0.00452035759058509,0.5,0.00920956628384584,0.312579799082009,3.35503619811568,3.15316363119506,0.5,103.734924298043
CBC_1005,CBC_1005_MSI_AV_v3_Vset6_Aset3_2023-06-03_14h15.22.631.csv,3,26,2,3,z,0,1,3,aud,D,63,1,2D,3D,0,1,z,3.11050580000119,0,1,1,1,3D,2D,D23,3.02042488614436,0.513687515818863,0.5,0.486312484181137,0.5,0.486312484181137,0.513687515818863,0.5,0.495395216858077,0.5,0.5,0.518166242876591,0.490832841771722,0.5,0.5,0.495395216858077,0.509041492703881,0.506792999357698,0.493207000642303,0.509041492703881,0.495395216858077,0.0844556267395785,0.536062810308759,0.490958507296119,0.00452151491556162,0.5,0.00920956628384584,0.312579799082009,3.35503619811568,3.15316363119506,0.5,103.734924298043
CBC_1005,CBC_1005_MSI_AV_v3_Vset6_Aset3_2023-06-03_14h15.22.631.csv,3,27,1,2,b,1,0,0,aud,B,9,1,1B,2B,1,0,z,2.68969759999891,0,1,0,0,2B,1B,B12,3.73766961828337,0.513687515818863,0.5,0.486312484181137,0.5,0.486312484181137,0.513687515818863,0.5,0.495395216858077,0.5,0.5,0.518166242876591,0.490832841771722,0.5,0.5,0.495395216858077,0.513563007619443,0.493248651282932,0.506751348717068,0.5,0.513687515818863,0.0901030105694429,0.463992427135262,-0.5,-0.00460478314192292,0.5,0.00920956628384584,0.312579799082009,3.35503619811568,3.15316363119506,0.5,103.734924298043
CBC_1005,CBC_1005_MSI_AV_v3_Vset6_Aset3_2023-06-03_14h15.22.631.csv,3,28,1,3,z,0,1,3,aud,D,27,1,1D,3D,NaN,NaN,[],NaN,NaN,NaN,NaN,NaN,,,D13,3.76120011569356,0.513687515818863,0.5,0.486312484181137,0.5,0.486312484181137,0.513687515818863,0.495395216858077,0.495395216858077,0.5,0.5,0.518166242876591,0.490832841771722,0.5,0.5,0.495395216858077,0.513563007619443,0,0,0,0,NaN,0,0,0,0.5,0.00920956628384584,0.312579799082009,3.35503619811568,3.15316363119506,0.5,103.734924298043
CBC_1005,CBC_1005_MSI_AV_v3_Vset6_Aset3_2023-06-03_14h15.22.631.csv,3,29,1,0,z,0,1,1,aud,A,63,1,1A,0A,0,1,z,2.46423110000069,0,1,1,1,0A,1A,A10,2.68557734525015,0.513687515818863,0.5,0.486312484181137,0.5,0.486312484181137,0.513687515818863,0.495395216858077,0.495395216858077,0.5,0.5,0.518166242876591,0.490832841771722,0.5,0.5,0.495395216858077,0.513563007619443,0.506751348717068,0.493248651282932,0.513687515818863,0.5,0.116294592886234,0.535527785462017,0.486312484181137,0.00447872705772792,0.5,0.00920956628384584,0.312579799082009,3.35503619811568,3.15316363119506,0.5,103.734924298043
CBC_1005,CBC_1005_MSI_AV_v3_Vset6_Aset3_2023-06-03_14h15.22.631.csv,3,30,0,1,b,1,0,1,aud,A,63,1,0A,1A,1,0,b,2.16007340000033,1,0,1,1,0A,1A,A01,3.11351530921037,0.518166242876591,0.5,0.486312484181137,0.5,0.486312484181137,0.513687515818863,0.495395216858077,0.495395216858077,0.5,0.5,0.518166242876591,0.490832841771722,0.5,0.5,0.495395216858077,0.513563007619443,0.508921059308186,0.491078940691814,0.518166242876591,0.5,0.138115227751075,0.54720116578551,0.481833757123409,0.00443747992402252,0.5,0.00920956628384584,0.312579799082009,3.35503619811568,3.15316363119506,0.5,103.734924298043
CBC_1005,CBC_1005_MSI_AV_v3_Vset6_Aset3_2023-06-03_14h15.22.631.csv,3,31,0,2,z,0,1,2,aud,C,27,1,0C,2C,0,1,z,2.55165209999905,0,1,1,1,2C,0C,C02,3.13549421592915,0.522603722800613,0.5,0.486312484181137,0.5,0.486312484181137,0.513687515818863,0.495395216858077,0.495395216858077,0.5,0.5,0.518166242876591,0.490832841771722,0.5,0.5,0.495395216858077,0.513563007619443,0.508921059308186,0.491078940691814,0.518166242876591,0.5,0.113591941925043,0.546140970038982,0.481833757123409,0.00443747992402252,0.5,0.00920956628384584,0.312579799082009,3.35503619811568,3.15316363119506,0.5,103.734924298043
CBC_1005,CBC_1005_MSI_AV_v3_Vset6_Aset3_2023-06-03_14h15.22.631.csv,3,32,1,0,z,0,1,1,aud,A,63,1,1A,0A,0,1,z,2.24302259999968,0,1,1,1,0A,1A,A10,2.46385324059017,0.522603722800613,0.5,0.486312484181137,0.5,0.486312484181137,0.513687515818863,0.495395216858077,0.495395216858077,0.5,0.5,0.522603722800613,0.490832841771722,0.5,0.5,0.495395216858077,0.513563007619443,0.511052044059994,0.488947955940006,0.522603722800613,0.5,0.135096173767096,0.557252098924848,0.477396277199387,0.004396612658529,0.5,0.00920956628384584,0.312579799082009,3.35503619811568,3.15316363119506,0.5,103.734924298043
CBC_1005,CBC_1005_MSI_AV_v3_Vset6_Aset3_2023-06-03_14h15.22.631.csv,3,33,1,0,b,1,0,0,aud,B,63,1,1B,0B,1,0,z,2.82098500000029,0,1,0,0,0B,1B,B10,2.26176309847379,0.527000335459142,0.5,0.486312484181137,0.5,0.486312484181137,0.513687515818863,0.495395216858077,0.495395216858077,0.5,0.5,0.522603722800613,0.490832841771722,0.5,0.5,0.495395216858077,0.513563007619443,0.486312484181137,0.513687515818863,0.486312484181137,0.513687515818863,0.0780912118310954,0.429274418394831,-0.486312484181137,-0.00447872705772791,0.5,0.00920956628384584,0.312579799082009,3.35503619811568,3.15316363119506,0.5,103.734924298043
CBC_1005,CBC_1005_MSI_AV_v3_Vset6_Aset3_2023-06-03_14h15.22.631.csv,3,34,3,2,b,1,0,3,aud,D,63,1,3D,2D,1,0,b,2.82704270000067,1,0,1,1,3D,2D,D32,2.50552593699074,0.527000335459142,0.5,0.486312484181137,0.5,0.481833757123409,0.513687515818863,0.495395216858077,0.495395216858077,0.5,0.5,0.522603722800613,0.490832841771722,0.5,0.5,0.495395216858077,0.513563007619443,0.509003242315,0.490996757685,0.513563007619443,0.495395216858077,0.0991733761763394,0.546766686612837,0.486436992380557,0.00447987372424335,0.5,0.00920956628384584,0.312579799082009,3.35503619811568,3.15316363119506,0.5,103.734924298043
CBC_1005,CBC_1005_MSI_AV_v3_Vset6_Aset3_2023-06-03_14h15.22.631.csv,3,35,3,1,z,0,1,0,aud,B,27,1,3B,1B,0,1,z,3.81100909999986,0,1,1,1,1B,3B,B31,2.81341071676004,0.527000335459142,0.5,0.486312484181137,0.5,0.481833757123409,0.513687515818863,0.495395216858077,0.495395216858077,0.5,0.5,0.522603722800613,0.490832841771722,0.5,0.5,0.495395216858077,0.518042881343686,0.509063825179259,0.490936174820741,0.513687515818863,0.495395216858077,0.0608937767859777,0.548051918580101,0.486312484181137,0.00447872705772792,0.5,0.00920956628384584,0.312579799082009,3.35503619811568,3.15316363119506,0.5,103.734924298043
CBC_1005,CBC_1005_MSI_AV_v3_Vset6_Aset3_2023-06-03_14h15.22.631.csv,3,36,3,2,z,0,1,2,aud,C,63,1,3C,2C,0,1,b,3.59548419999919,1,0,0,0,3C,2C,C32,2.83321334405622,0.527000335459142,0.5,0.486312484181137,0.5,0.481833757123409,0.518166242876591,0.495395216858077,0.495395216858077,0.5,0.5,0.522603722800613,0.490832841771722,0.5,0.5,0.495395216858077,0.518042881343686,0.484325175280064,0.515674824719936,0.490832841771722,0.522603722800613,0.0514494720118523,0.417179540001508,-0.490832841771722,-0.00452035759058509,0.5,0.00920956628384584,0.312579799082009,3.35503619811568,3.15316363119506,0.5,103.734924298043
CBC_1005,CBC_1005_MSI_AV_v3_Vset6_Aset3_2023-06-03_14h15.22.631.csv,3,37,2,0,b,1,0,2,aud,C,27,1,2C,0C,1,0,z,2.51970280000023,0,1,0,0,0C,2C,C20,3.95124371858143,0.527000335459142,0.5,0.486312484181137,0.5,0.481833757123409,0.518166242876591,0.495395216858077,0.495395216858077,0.5,0.5,0.522603722800613,0.486312484181137,0.5,0.5,0.495395216858077,0.518042881343686,0.488947955940006,0.511052044059994,0.5,0.522603722800613,0.0931071286408494,0.440472316705293,-0.5,-0.00460478314192292,0.5,0.00920956628384584,0.312579799082009,3.35503619811568,3.15316363119506,0.5,103.734924298043
CBC_1005,CBC_1005_MSI_AV_v3_Vset6_Aset3_2023-06-03_14h15.22.631.csv,3,38,1,0,b,1,0,0,aud,B,63,1,1B,0B,1,0,b,3.61079529999915,1,0,1,1,1B,0B,B10,2.17853244432407,0.527000335459142,0.5,0.486312484181137,0.5,0.481833757123409,0.518166242876591,0.495395216858077,0.495395216858077,0.495395216858077,0.5,0.522603722800613,0.486312484181137,0.5,0.5,0.495395216858077,0.518042881343686,0.518166242876591,0.481833757123409,0.518166242876591,0.481833757123409,0.0727079653643452,0.595011550296569,0.481833757123409,0.00443747992402252,0.5,0.00920956628384584,0.312579799082009,3.35503619811568,3.15316363119506,0.5,103.734924298043
CBC_1005,CBC_1005_MSI_AV_v3_Vset6_Aset3_2023-06-03_14h15.22.631.csv,3,39,3,0,z,0,1,1,aud,A,9,1,3A,0A,NaN,NaN,[],NaN,NaN,NaN,NaN,NaN,,,A30,3.98898404656427,0.527000335459142,0.5,0.486312484181137,0.5,0.481833757123409,0.522603722800613,0.495395216858077,0.495395216858077,0.495395216858077,0.5,0.522603722800613,0.486312484181137,0.5,0.5,0.495395216858077,0.518042881343686,0,0,0,0,NaN,0,0,0,0.5,0.00920956628384584,0.312579799082009,3.35503619811568,3.15316363119506,0.5,103.734924298043
CBC_1005,CBC_1005_MSI_AV_v3_Vset6_Aset3_2023-06-03_14h15.22.631.csv,3,40,3,2,z,0,1,2,aud,C,63,0,3C,2C,1,0,b,2.33121220000066,1,0,0,1,3C,2C,C32,2.62103882411258,0.527000335459142,0.5,0.486312484181137,0.5,0.481833757123409,0.522603722800613,0.495395216858077,0.495395216858077,0.495395216858077,0.5,0.522603722800613,0.486312484181137,0.5,0.5,0.495395216858077,0.518042881343686,0.482014740982284,0.517985259017716,0.486312484181137,0.522603722800613,0.0943285115292704,0.405577054621808,0.513687515818863,0.00473083922611792,0.5,0.00920956628384584,0.312579799082009,3.35503619811568,3.15316363119506,0.5,103.734924298043
CBC_1005,CBC_1005_MSI_AV_v3_Vset6_Aset3_2023-06-03_14h15.22.631.csv,3,41,1,0,z,0,1,1,aud,A,63,1,1A,0A,0,1,z,2.43428440000025,0,1,1,1,0A,1A,A10,2.41591377830105,0.527000335459142,0.5,0.486312484181137,0.5,0.481833757123409,0.522603722800613,0.495395216858077,0.495395216858077,0.495395216858077,0.5,0.522603722800613,0.491043323407255,0.5,0.5,0.495395216858077,0.518042881343686,0.513145241791509,0.486854758208491,0.527000335459142,0.5,0.125491490588558,0.568805777523055,0.472999664540858,0.00435612176282588,0.5,0.00920956628384584,0.312579799082009,3.35503619811568,3.15316363119506,0.5,103.734924298043
CBC_1005,CBC_1005_MSI_AV_v3_Vset6_Aset3_2023-06-03_14h15.22.631.csv,3,42,3,2,b,1,0,3,aud,D,63,1,3D,2D,1,0,b,2.76831579999998,1,0,1,1,3D,2D,D32,2.43361335540045,0.531356457221968,0.5,0.486312484181137,0.5,0.481833757123409,0.522603722800613,0.495395216858077,0.495395216858077,0.495395216858077,0.5,0.522603722800613,0.491043323407255,0.5,0.5,0.495395216858077,0.518042881343686,0.511173679243851,0.488826320756149,0.518042881343686,0.495395216858077,0.104115645625654,0.557476294415708,0.481957118656314,0.00443861603023668,0.5,0.00920956628384584,0.312579799082009,3.35503619811568,3.15316363119506,0.5,103.734924298043
CBC_1005,CBC_1005_MSI_AV_v3_Vset6_Aset3_2023-06-03_14h15.22.631.csv,3,43,2,3,b,1,0,2,aud,C,63,1,2C,3C,1,0,z,2.49257770000077,0,1,0,0,3C,2C,C23,2.96183072187831,0.531356457221968,0.5,0.486312484181137,0.5,0.481833757123409,0.522603722800613,0.495395216858077,0.495395216858077,0.495395216858077,0.5,0.522603722800613,0.491043323407255,0.5,0.5,0.495395216858077,0.522481497373923,0.484432254051631,0.515567745948369,0.491043323407255,0.522603722800613,0.0898119472920921,0.418887407074465,-0.491043323407255,-0.00452229603515907,0.5,0.00920956628384584,0.312579799082009,3.35503619811568,3.15316363119506,0.5,103.734924298043
CBC_1005,CBC_1005_MSI_AV_v3_Vset6_Aset3_2023-06-03_14h15.22.631.csv,3,44,1,3,z,0,1,3,aud,D,27,1,1D,3D,0,1,z,1.90218040000036,0,1,1,1,3D,1D,D13,3.38439026334577,0.531356457221968,0.5,0.486312484181137,0.5,0.481833757123409,0.522603722800613,0.495395216858077,0.495395216858077,0.495395216858077,0.5,0.522603722800613,0.486521027372096,0.5,0.5,0.495395216858077,0.522481497373923,0.510993596183238,0.489006403816762,0.522481497373923,0.5,0.159949139208227,0.558766279928178,0.477518502626077,0.00439773830169767,0.5,0.00920956628384584,0.312579799082009,3.35503619811568,3.15316363119506,0.5,103.734924298043
CBC_1005,CBC_1005_MSI_TV_v3_Vset3_Tset2_2023-06-03_14h23.46.710.csv,4,1,1,0,b,1,0,0,tac,B,63,1,1B,0B,1,0,z,2.42232589999912,0,1,0,0,0B,1B,B10,2.77258872223978,0.5,0.5,0.5,0.5,0.5,0.5,0.5,0.5,0.5,0.5,0.5,0.5,0.5,0.5,0.5,0.5,0.5,0.5,0.5,0.5,0.174314397085117,0.501093614519165,-0.5,-0.212617864535671,0.5,0.425235729071343,1.09706390206404,1.46732777415939,2.77398053747145,0.5,70.97765643206
CBC_1005,CBC_1005_MSI_TV_v3_Vset3_Tset2_2023-06-03_14h23.46.710.csv,4,2,1,0,z,0,1,1,tac,A,63,1,1A,0A,0,1,b,2.37121479999951,1,0,0,0,1A,0A,A10,2.83321334405622,0.5,0.5,0.5,0.5,0.287382135464329,0.5,0.5,0.5,0.5,0.5,0.5,0.5,0.5,0.5,0.5,0.5,0.5,0.5,0.5,0.5,0.179438915184101,0.49969440957255,-0.5,-0.212617864535671,0.5,0.425235729071343,1.09706390206404,1.46732777415939,2.77398053747145,0.5,70.97765643206
CBC_1005,CBC_1005_MSI_TV_v3_Vset3_Tset2_2023-06-03_14h23.46.710.csv,4,3,3,2,b,1,0,3,tac,D,63,1,3D,2D,1,0,z,3.08157009999923,0,1,0,0,2D,3D,D32,2.89037175789616,0.5,0.287382135464329,0.5,0.5,0.287382135464329,0.5,0.5,0.5,0.5,0.5,0.5,0.5,0.5,0.5,0.5,0.5,0.5,0.5,0.5,0.5,0.114313368330836,0.499903691566061,-0.5,-0.212617864535671,0.5,0.425235729071343,1.09706390206404,1.46732777415939,2.77398053747145,0.5,70.97765643206
CBC_1005,CBC_1005_MSI_TV_v3_Vset3_Tset2_2023-06-03_14h23.46.710.csv,4,4,1,2,b,1,0,0,tac,B,9,1,1B,2B,1,0,b,3.17967949999911,1,0,1,1,1B,2B,B12,2.94443897916644,0.5,0.287382135464329,0.5,0.5,0.287382135464329,0.5,0.5,0.5,0.5,0.5,0.5,0.5,0.5,0.5,0.287382135464329,0.5,0.5,0.5,0.5,0.5,0.107025018254454,0.49840243411628,0.5,0.212617864535671,0.5,0.425235729071343,1.09706390206404,1.46732777415939,2.77398053747145,0.5,70.97765643206
CBC_1005,CBC_1005_MSI_TV_v3_Vset3_Tset2_2023-06-03_14h23.46.710.csv,4,5,2,0,z,0,1,1,tac,A,27,1,2A,0A,0,1,z,2.24389179999889,0,1,1,1,0A,2A,A20,2.99573227355399,0.5,0.287382135464329,0.5,0.5,0.287382135464329,0.712617864535671,0.5,0.5,0.5,0.5,0.5,0.5,0.5,0.5,0.287382135464329,0.5,0.5,0.5,0.5,0.5,0.193976496398974,0.499835182763395,0.5,0.212617864535671,0.5,0.425235729071343,1.09706390206404,1.46732777415939,2.77398053747145,0.5,70.97765643206
CBC_1005,CBC_1005_MSI_TV_v3_Vset3_Tset2_2023-06-03_14h23.46.710.csv,4,6,3,2,z,0,1,2,tac,C,63,1,3C,2C,0,1,z,2.3985952999974,0,1,1,1,2C,3C,C32,3.04452243772342,0.712617864535671,0.287382135464329,0.5,0.5,0.287382135464329,0.712617864535671,0.5,0.5,0.5,0.5,0.5,0.5,0.5,0.5,0.287382135464329,0.5,0.5,0.5,0.5,0.5,0.176492999276545,0.499911138114188,0.5,0.212617864535671,0.5,0.425235729071343,1.09706390206404,1.46732777415939,2.77398053747145,0.5,70.97765643206
CBC_1005,CBC_1005_MSI_TV_v3_Vset3_Tset2_2023-06-03_14h23.46.710.csv,4,7,3,1,b,1,0,3,tac,D,27,1,3D,1D,1,0,z,2.64048319999711,0,1,0,0,1D,3D,D31,3.09104245335832,0.712617864535671,0.287382135464329,0.5,0.5,0.287382135464329,0.712617864535671,0.5,0.5,0.5,0.5,0.712617864535671,0.5,0.5,0.5,0.287382135464329,0.5,0.5,0.5,0.5,0.5,0.151632314641281,0.500215669225602,-0.5,-0.212617864535671,0.5,0.425235729071343,1.09706390206404,1.46732777415939,2.77398053747145,0.5,70.97765643206
CBC_1005,CBC_1005_MSI_TV_v3_Vset3_Tset2_2023-06-03_14h23.46.710.csv,4,8,0,1,b,1,0,1,tac,A,63,1,0A,1A,1,0,z,2.4962934999985,0,1,0,0,1A,0A,A01,3.13549421592915,0.712617864535671,0.287382135464329,0.5,0.5,0.287382135464329,0.712617864535671,0.5,0.5,0.5,0.5,0.712617864535671,0.5,0.5,0.287382135464329,0.287382135464329,0.5,0.287382135464329,0.712617864535671,0.287382135464329,0.712617864535671,0.0532124578799588,0.150446967685974,-0.287382135464329,-0.122205151896253,0.5,0.425235729071343,1.09706390206404,1.46732777415939,2.77398053747145,0.5,70.97765643206
CBC_1005,CBC_1005_MSI_TV_v3_Vset3_Tset2_2023-06-03_14h23.46.710.csv,4,9,0,2,z,0,1,2,tac,C,27,1,0C,2C,0,1,z,2.74149129999932,0,1,1,1,2C,0C,C02,3.17805383034795,0.712617864535671,0.165176983568075,0.5,0.5,0.287382135464329,0.712617864535671,0.5,0.5,0.5,0.5,0.712617864535671,0.5,0.5,0.287382135464329,0.287382135464329,0.5,0.587668947800421,0.412331052199579,0.712617864535671,0.5,0.192184469383307,0.670798808113508,0.287382135464329,0.122205151896253,0.5,0.425235729071343,1.09706390206404,1.46732777415939,2.77398053747145,0.5,70.97765643206
CBC_1005,CBC_1005_MSI_TV_v3_Vset3_Tset2_2023-06-03_14h23.46.710.csv,4,10,3,2,b,1,0,3,tac,D,63,1,3D,2D,1,0,b,2.58149959999901,1,0,1,1,3D,2D,D32,2.52572864430826,0.712617864535671,0.165176983568075,0.5,0.5,0.287382135464329,0.712617864535671,0.5,0.5,0.5,0.5,0.834823016431925,0.5,0.5,0.287382135464329,0.287382135464329,0.5,0.635015677241831,0.364984322758169,0.5,0.287382135464329,0.242555323291765,0.74991708118066,0.5,0.212617864535671,0.5,0.425235729071343,1.09706390206404,1.46732777415939,2.77398053747145,0.5,70.97765643206
CBC_1005,CBC_1005_MSI_TV_v3_Vset3_Tset2_2023-06-03_14h23.46.710.csv,4,11,0,1,z,0,1,0,tac,B,63,1,0B,1B,0,1,z,3.12481649999972,0,1,1,1,1B,0B,B01,3.25809653802148,0.712617864535671,0.165176983568075,0.5,0.5,0.287382135464329,0.712617864535671,0.5,0.5,0.5,0.5,0.834823016431925,0.5,0.5,0.287382135464329,0.287382135464329,0.712617864535671,0.712617864535671,0.287382135464329,0.712617864535671,0.287382135464329,0.178047115705422,0.849305484142545,0.287382135464329,0.122205151896253,0.5,0.425235729071343,1.09706390206404,1.46732777415939,2.77398053747145,0.5,70.97765643206
CBC_1005,CBC_1005_MSI_TV_v3_Vset3_Tset2_2023-06-03_14h23.46.710.csv,4,12,1,0,z,0,1,1,tac,A,63,1,1A,0A,0,1,z,1.89035219999823,0,1,1,1,0A,1A,A10,2.60268968544438,0.712617864535671,0.165176983568075,0.5,0.5,0.287382135464329,0.834823016431925,0.5,0.5,0.5,0.5,0.834823016431925,0.5,0.5,0.287382135464329,0.287382135464329,0.712617864535671,0.811827349038447,0.188172650961553,0.712617864535671,0.165176983568075,0.594788003420723,0.926940944537144,0.287382135464329,0.122205151896253,0.5,0.425235729071343,1.09706390206404,1.46732777415939,2.77398053747145,0.5,70.97765643206
CBC_1005,CBC_1005_MSI_TV_v3_Vset3_Tset2_2023-06-03_14h23.46.710.csv,4,13,3,2,b,1,0,3,tac,D,63,1,3D,2D,1,0,z,2.86223849999806,0,1,0,0,2D,3D,D32,2.23359222150709,0.834823016431925,0.165176983568075,0.5,0.5,0.287382135464329,0.834823016431925,0.5,0.5,0.5,0.5,0.834823016431925,0.5,0.5,0.287382135464329,0.287382135464329,0.712617864535671,0.287382135464329,0.712617864535671,0.287382135464329,0.712617864535671,0.0393476449968378,0.150752301996833,-0.287382135464329,-0.122205151896253,0.5,0.425235729071343,1.09706390206404,1.46732777415939,2.77398053747145,0.5,70.97765643206
CBC_1005,CBC_1005_MSI_TV_v3_Vset3_Tset2_2023-06-03_14h23.46.710.csv,4,14,0,2,z,0,1,2,tac,C,27,1,0C,2C,0,1,b,2.5765367999993,1,0,0,0,0C,2C,C02,2.67414864942653,0.834823016431925,0.165176983568075,0.5,0.5,0.287382135464329,0.834823016431925,0.5,0.5,0.5,0.5,0.834823016431925,0.5,0.5,0.287382135464329,0.165176983568075,0.712617864535671,0.374581494209274,0.625418505790726,0.5,0.834823016431925,0.0856567377851933,0.264678513291802,-0.5,-0.212617864535671,0.5,0.425235729071343,1.09706390206404,1.46732777415939,2.77398053747145,0.5,70.97765643206
CBC_1005,CBC_1005_MSI_TV_v3_Vset3_Tset2_2023-06-03_14h23.46.710.csv,4,15,1,0,z,0,1,1,tac,A,63,1,1A,0A,0,1,z,2.37798589999875,0,1,1,1,0A,1A,A10,2.30258509299405,0.834823016431925,0.165176983568075,0.5,0.5,0.287382135464329,0.834823016431925,0.5,0.5,0.287382135464329,0.5,0.834823016431925,0.5,0.5,0.287382135464329,0.165176983568075,0.712617864535671,0.834823016431925,0.165176983568075,0.834823016431925,0.165176983568075,0.376416854652367,0.93847037548487,0.165176983568075,0.0702391550333758,0.5,0.425235729071343,1.09706390206404,1.46732777415939,2.77398053747145,0.5,70.97765643206
CBC_1005,CBC_1005_MSI_TV_v3_Vset3_Tset2_2023-06-03_14h23.46.710.csv,4,16,3,1,z,0,1,0,tac,B,27,1,3B,1B,0,1,z,2.25372179999795,0,1,1,1,1B,3B,B31,3.43398720448515,0.9050621714653,0.165176983568075,0.5,0.5,0.287382135464329,0.834823016431925,0.5,0.5,0.287382135464329,0.5,0.834823016431925,0.5,0.5,0.287382135464329,0.165176983568075,0.712617864535671,0.625418505790726,0.374581494209274,0.834823016431925,0.5,0.297135352366704,0.735087230766397,0.165176983568075,0.0702391550333758,0.5,0.425235729071343,1.09706390206404,1.46732777415939,2.77398053747145,0.5,70.97765643206
CBC_1005,CBC_1005_MSI_TV_v3_Vset3_Tset2_2023-06-03_14h23.46.710.csv,4,17,2,3,b,1,0,2,tac,C,63,1,2C,3C,1,0,b,2.75973389999854,1,0,1,1,2C,3C,C23,3.46573590279973,0.9050621714653,0.165176983568075,0.5,0.5,0.287382135464329,0.9050621714653,0.5,0.5,0.287382135464329,0.5,0.834823016431925,0.5,0.5,0.287382135464329,0.165176983568075,0.712617864535671,0.625418505790726,0.374581494209274,0.834823016431925,0.5,0.209126839950933,0.73517472770083,0.165176983568075,0.0702391550333758,0.5,0.425235729071343,1.09706390206404,1.46732777415939,2.77398053747145,0.5,70.97765643206
CBC_1005,CBC_1005_MSI_TV_v3_Vset3_Tset2_2023-06-03_14h23.46.710.csv,4,18,3,2,b,1,0,3,tac,D,63,0,3D,2D,0,1,b,2.34154529999978,1,0,1,0,3D,2D,D32,2.11021320034659,0.9050621714653,0.165176983568075,0.5,0.5,0.287382135464329,0.9050621714653,0.5,0.5,0.287382135464329,0.5,0.9050621714653,0.5,0.5,0.287382135464329,0.165176983568075,0.712617864535671,0.811827349038447,0.188172650961553,0.712617864535671,0.165176983568075,0.386307391665245,0.926577525637511,-0.712617864535671,-0.30303057717509,0.5,0.425235729071343,1.09706390206404,1.46732777415939,2.77398053747145,0.5,70.97765643206
CBC_1005,CBC_1005_MSI_TV_v3_Vset3_Tset2_2023-06-03_14h23.46.710.csv,4,19,0,1,z,0,1,0,tac,B,63,1,0B,1B,0,1,z,2.39185859999816,0,1,1,1,1B,0B,B01,2.83321334405622,0.9050621714653,0.165176983568075,0.5,0.5,0.287382135464329,0.9050621714653,0.5,0.5,0.287382135464329,0.5,0.9050621714653,0.5,0.5,0.287382135464329,0.165176983568075,0.409587287360582,0.758997435943742,0.241002564056258,0.9050621714653,0.287382135464329,0.349912152664011,0.891607244176081,0.0949378285346997,0.0403709567334031,0.5,0.425235729071343,1.09706390206404,1.46732777415939,2.77398053747145,0.5,70.97765643206
CBC_1005,CBC_1005_MSI_TV_v3_Vset3_Tset2_2023-06-03_14h23.46.710.csv,4,20,0,2,b,1,0,1,tac,A,27,1,0A,2A,1,0,b,3.01952079999865,1,0,1,1,0A,2A,A02,3.55534806148941,0.9050621714653,0.165176983568075,0.5,0.5,0.287382135464329,0.945433128198704,0.5,0.5,0.287382135464329,0.5,0.9050621714653,0.5,0.5,0.287382135464329,0.165176983568075,0.409587287360582,0.644143860567704,0.355856139432296,0.9050621714653,0.5,0.180067055746207,0.763529584266042,0.0949378285346997,0.0403709567334031,0.5,0.425235729071343,1.09706390206404,1.46732777415939,2.77398053747145,0.5,70.97765643206
CBC_1005,CBC_1005_MSI_TV_v3_Vset3_Tset2_2023-06-03_14h23.46.710.csv,4,21,3,0,b,1,0,3,tac,D,9,1,3D,0D,1,0,b,2.61203189999833,1,0,1,1,3D,0D,D30,3.58351893845611,0.945433128198704,0.165176983568075,0.5,0.5,0.287382135464329,0.945433128198704,0.5,0.5,0.287382135464329,0.5,0.9050621714653,0.5,0.5,0.287382135464329,0.165176983568075,0.409587287360582,0.450300144969167,0.549699855030833,0.409587287360582,0.5,0.124351183481269,0.401212090392118,0.590412712639418,0.251064580312212,0.5,0.425235729071343,1.09706390206404,1.46732777415939,2.77398053747145,0.5,70.97765643206
CBC_1005,CBC_1005_MSI_TV_v3_Vset3_Tset2_2023-06-03_14h23.46.710.csv,4,22,3,2,z,0,1,2,tac,C,63,1,3C,2C,0,1,z,2.43700839999838,0,1,1,1,2C,3C,C32,2.91777073208428,0.945433128198704,0.165176983568075,0.5,0.5,0.287382135464329,0.945433128198704,0.5,0.5,0.287382135464329,0.5,0.9050621714653,0.5,0.5,0.287382135464329,0.165176983568075,0.660651867672794,0.644143860567704,0.355856139432296,0.9050621714653,0.5,0.274839174170888,0.763675043925367,0.0949378285346997,0.0403709567334031,0.5,0.425235729071343,1.09706390206404,1.46732777415939,2.77398053747145,0.5,70.97765643206
CBC_1005,CBC_1005_MSI_TV_v3_Vset3_Tset2_2023-06-03_14h23.46.710.csv,4,23,1,3,b,1,0,0,tac,B,27,1,1B,3B,1,0,b,2.21256989999893,1,0,1,1,1B,3B,B13,3.63758615972639,0.945433128198704,0.165176983568075,0.5,0.5,0.287382135464329,0.945433128198704,0.5,0.5,0.287382135464329,0.5,0.945433128198704,0.5,0.5,0.287382135464329,0.165176983568075,0.660651867672794,0.654082924871731,0.345917075128269,0.945433128198704,0.5,0.329986657352876,0.777637917972321,0.0545668718012965,0.0232037835135668,0.5,0.425235729071343,1.09706390206404,1.46732777415939,2.77398053747145,0.5,70.97765643206
CBC_1005,CBC_1005_MSI_TV_v3_Vset3_Tset2_2023-06-03_14h23.46.710.csv,4,24,2,3,b,1,0,2,tac,C,63,1,2C,3C,1,0,b,2.28485659999933,1,0,1,1,2C,3C,C23,2.9704144655697,0.945433128198704,0.165176983568075,0.5,0.5,0.287382135464329,0.96863691171227,0.5,0.5,0.287382135464329,0.5,0.945433128198704,0.5,0.5,0.287382135464329,0.165176983568075,0.660651867672794,0.654082924871731,0.345917075128269,0.945433128198704,0.5,0.313889455858481,0.778000624182592,0.0545668718012965,0.0232037835135668,0.5,0.425235729071343,1.09706390206404,1.46732777415939,2.77398053747145,0.5,70.97765643206
CBC_1005,CBC_1005_MSI_TV_v3_Vset3_Tset2_2023-06-03_14h23.46.710.csv,4,25,3,2,b,1,0,3,tac,D,63,1,3D,2D,1,0,b,2.91770089999955,1,0,1,1,3D,2D,D32,2.07944154167984,0.945433128198704,0.165176983568075,0.5,0.5,0.287382135464329,0.96863691171227,0.5,0.5,0.287382135464329,0.5,0.96863691171227,0.5,0.5,0.287382135464329,0.165176983568075,0.660651867672794,0.799986421738736,0.200013578261264,0.660651867672794,0.165176983568075,0.212720894908245,0.919617354717626,0.339348132327206,0.144302950459158,0.5,0.425235729071343,1.09706390206404,1.46732777415939,2.77398053747145,0.5,70.97765643206
CBC_1005,CBC_1005_MSI_TV_v3_Vset3_Tset2_2023-06-03_14h23.46.710.csv,4,26,0,1,z,0,1,0,tac,B,63,1,0B,1B,0,1,z,2.94525900000008,0,1,1,1,1B,0B,B01,2.6149597780362,0.945433128198704,0.165176983568075,0.5,0.5,0.287382135464329,0.96863691171227,0.5,0.5,0.287382135464329,0.5,0.96863691171227,0.5,0.5,0.287382135464329,0.165176983568075,0.804954818131952,0.771196037106018,0.228803962893982,0.96863691171227,0.287382135464329,0.209551631009168,0.90094073779946,0.0313630882877297,0.0133367057139616,0.5,0.425235729071343,1.09706390206404,1.46732777415939,2.77398053747145,0.5,70.97765643206
CBC_1005,CBC_1005_MSI_TV_v3_Vset3_Tset2_2023-06-03_14h23.46.710.csv,4,27,3,0,z,0,1,1,tac,A,9,1,3A,0A,0,1,z,2.76583169999867,0,1,1,1,0A,3A,A30,3.73766961828337,0.945433128198704,0.165176983568075,0.5,0.5,0.287382135464329,0.981973617426232,0.5,0.5,0.287382135464329,0.5,0.96863691171227,0.5,0.5,0.287382135464329,0.165176983568075,0.804954818131952,0.654082924871731,0.345917075128269,0.945433128198704,0.5,0.220901059950279,0.778042392945815,0.0545668718012965,0.0232037835135668,0.5,0.425235729071343,1.09706390206404,1.46732777415939,2.77398053747145,0.5,70.97765643206
CBC_1005,CBC_1005_MSI_TV_v3_Vset3_Tset2_2023-06-03_14h23.46.710.csv,4,28,3,2,b,1,0,3,tac,D,63,1,3D,2D,1,0,b,2.32892019999781,1,0,1,1,3D,2D,D32,1.96944064646551,0.96863691171227,0.165176983568075,0.5,0.5,0.287382135464329,0.981973617426232,0.5,0.5,0.287382135464329,0.5,0.96863691171227,0.5,0.5,0.287382135464329,0.165176983568075,0.804954818131952,0.82973758485329,0.17026241514671,0.804954818131952,0.165176983568075,0.396305403629397,0.936325012914634,0.195045181868048,0.0829401801135121,0.5,0.425235729071343,1.09706390206404,1.46732777415939,2.77398053747145,0.5,70.97765643206
CBC_1005,CBC_1005_MSI_TV_v3_Vset3_Tset2_2023-06-03_14h23.46.710.csv,4,29,0,2,z,0,1,2,tac,C,27,1,0C,2C,0,1,z,2.42537259999881,0,1,1,1,2C,0C,C02,2.68557734525015,0.96863691171227,0.165176983568075,0.5,0.5,0.287382135464329,0.981973617426232,0.5,0.5,0.287382135464329,0.5,0.96863691171227,0.5,0.5,0.287382135464329,0.165176983568075,0.887894998245464,0.771196037106018,0.228803962893982,0.96863691171227,0.287382135464329,0.343732431539536,0.90087216891676,0.0313630882877297,0.0133367057139616,0.5,0.425235729071343,1.09706390206404,1.46732777415939,2.77398053747145,0.5,70.97765643206
CBC_1005,CBC_1005_MSI_TV_v3_Vset3_Tset2_2023-06-03_14h23.46.710.csv,4,30,0,1,b,1,0,1,tac,A,63,1,0A,1A,1,0,b,3.00066029999834,1,0,1,1,0A,1A,A01,3.11351530921037,0.96863691171227,0.165176983568075,0.5,0.5,0.287382135464329,0.981973617426232,0.5,0.5,0.287382135464329,0.5,0.981973617426232,0.5,0.5,0.287382135464329,0.165176983568075,0.887894998245464,0.854317375844795,0.145682624155205,0.96863691171227,0.165176983568075,0.182079062670002,0.946986293129968,0.0313630882877297,0.0133367057139616,0.5,0.425235729071343,1.09706390206404,1.46732777415939,2.77398053747145,0.5,70.97765643206
CBC_1005,CBC_1005_MSI_TV_v3_Vset3_Tset2_2023-06-03_14h23.46.710.csv,4,31,0,1,z,0,1,0,tac,B,63,1,0B,1B,0,1,z,2.31552119999833,0,1,1,1,1B,0B,B01,2.4423470353692,0.981973617426232,0.165176983568075,0.5,0.5,0.287382135464329,0.981973617426232,0.5,0.5,0.287382135464329,0.5,0.981973617426232,0.5,0.5,0.287382135464329,0.165176983568075,0.887894998245464,0.773600005506805,0.226399994493195,0.981973617426232,0.287382135464329,0.382292446618235,0.903021407336489,0.0180263825737681,0.00766546193627523,0.5,0.425235729071343,1.09706390206404,1.46732777415939,2.77398053747145,0.5,70.97765643206
CBC_1005,CBC_1005_MSI_TV_v3_Vset3_Tset2_2023-06-03_14h23.46.710.csv,4,32,1,3,z,0,1,3,tac,D,27,1,1D,3D,0,1,z,1.47683849999885,0,1,1,1,3D,1D,D13,3.85014760171006,0.981973617426232,0.165176983568075,0.5,0.5,0.287382135464329,0.989639079362507,0.5,0.5,0.287382135464329,0.5,0.981973617426232,0.5,0.5,0.287382135464329,0.165176983568075,0.887894998245464,0.755477131970398,0.244522868029602,0.887894998245464,0.287382135464329,0.47765990918778,0.88898965745953,0.112105001754536,0.0476710521536343,0.5,0.425235729071343,1.09706390206404,1.46732777415939,2.77398053747145,0.5,70.97765643206
CBC_1005,CBC_1005_MSI_TV_v3_Vset3_Tset2_2023-06-03_14h23.46.710.csv,4,33,2,3,b,1,0,2,tac,C,63,1,2C,3C,1,0,z,3.20414059999894,0,1,0,0,3C,2C,C23,2.77258872223978,0.981973617426232,0.165176983568075,0.5,0.5,0.287382135464329,0.989639079362507,0.5,0.5,0.287382135464329,0.5,0.981973617426232,0.5,0.5,0.287382135464329,0.165176983568075,0.935566050399098,0.337387922511305,0.662612077488695,0.5,0.981973617426232,0.0429062890794196,0.210237981803792,-0.5,-0.212617864535671,0.5,0.425235729071343,1.09706390206404,1.46732777415939,2.77398053747145,0.5,70.97765643206
CBC_1005,CBC_1005_MSI_TV_v3_Vset3_Tset2_2023-06-03_14h23.46.710.csv,4,34,0,1,z,0,1,0,tac,B,63,1,0B,1B,0,1,z,2.23241149999922,0,1,1,1,1B,0B,B01,2.28238238567653,0.981973617426232,0.165176983568075,0.5,0.5,0.287382135464329,0.989639079362507,0.5,0.5,0.287382135464329,0.5,0.981973617426232,0.287382135464329,0.5,0.287382135464329,0.165176983568075,0.935566050399098,0.7749589966653,0.2250410033347,0.989639079362507,0.287382135464329,0.413386436293496,0.903591457715037,0.0103609206374928,0.00440583364113459,0.5,0.425235729071343,1.09706390206404,1.46732777415939,2.77398053747145,0.5,70.97765643206
CBC_1005,CBC_1005_MSI_TV_v3_Vset3_Tset2_2023-06-03_14h23.46.710.csv,4,35,1,0,z,0,1,1,tac,A,63,1,1A,0A,0,1,z,2.64682929999981,0,1,1,1,0A,1A,A10,2.52572864430826,0.981973617426232,0.165176983568075,0.5,0.5,0.287382135464329,0.994044913003642,0.5,0.5,0.287382135464329,0.5,0.981973617426232,0.287382135464329,0.5,0.287382135464329,0.165176983568075,0.935566050399098,0.85601107350255,0.14398892649745,0.981973617426232,0.165176983568075,0.275982896028988,0.947708983331855,0.0180263825737681,0.00766546193627523,0.5,0.425235729071343,1.09706390206404,1.46732777415939,2.77398053747145,0.5,70.97765643206
CBC_1005,CBC_1005_MSI_TV_v3_Vset3_Tset2_2023-06-03_14h23.46.710.csv,4,36,2,1,b,1,0,2,tac,C,9,1,2C,1C,1,0,z,2.86717479999788,0,1,0,0,1C,2C,C21,3.93182563272433,0.989639079362507,0.165176983568075,0.5,0.5,0.287382135464329,0.994044913003642,0.5,0.5,0.287382135464329,0.5,0.981973617426232,0.287382135464329,0.5,0.287382135464329,0.165176983568075,0.935566050399098,0.337387922511305,0.662612077488695,0.5,0.981973617426232,0.0553721851838626,0.210421856363079,-0.5,-0.212617864535671,0.5,0.425235729071343,1.09706390206404,1.46732777415939,2.77398053747145,0.5,70.97765643206
CBC_1005,CBC_1005_MSI_TV_v3_Vset3_Tset2_2023-06-03_14h23.46.710.csv,4,37,0,1,b,1,0,1,tac,A,63,1,0A,1A,1,0,b,2.14299459999893,1,0,1,1,0A,1A,A01,2.85263142991332,0.989639079362507,0.165176983568075,0.5,0.5,0.287382135464329,0.994044913003642,0.5,0.5,0.287382135464329,0.287382135464329,0.981973617426232,0.287382135464329,0.5,0.287382135464329,0.165176983568075,0.935566050399098,0.856966846175568,0.143033153824432,0.989639079362507,0.165176983568075,0.49579462251848,0.948163397392615,0.0103609206374928,0.00440583364113459,0.5,0.425235729071343,1.09706390206404,1.46732777415939,2.77398053747145,0.5,70.97765643206
CBC_1005,CBC_1005_MSI_TV_v3_Vset3_Tset2_2023-06-03_14h23.46.710.csv,4,38,1,3,z,0,1,3,tac,D,27,1,1D,3D,0,1,z,1.28372919999856,0,1,1,1,3D,1D,D13,3.27714473299218,0.994044913003642,0.165176983568075,0.5,0.5,0.287382135464329,0.994044913003642,0.5,0.5,0.287382135464329,0.287382135464329,0.981973617426232,0.287382135464329,0.5,0.287382135464329,0.165176983568075,0.935566050399098,0.765008739710889,0.234991260289111,0.935566050399098,0.287382135464329,0.110257528033346,0.896333361520637,0.0644339496009017,0.0273996175354856,0.5,0.425235729071343,1.09706390206404,1.46732777415939,2.77398053747145,0.5,70.97765643206
CBC_1005,CBC_1005_MSI_TV_v3_Vset3_Tset2_2023-06-03_14h23.46.710.csv,4,39,1,0,b,1,0,0,tac,B,63,1,1B,0B,1,0,b,2.31315439999889,1,0,1,1,1B,0B,B10,3.29583686600433,0.994044913003642,0.165176983568075,0.5,0.5,0.287382135464329,0.994044913003642,0.5,0.5,0.287382135464329,0.287382135464329,0.981973617426232,0.287382135464329,0.5,0.287382135464329,0.165176983568075,0.962965667934584,0.775732738115749,0.224267261884251,0.994044913003642,0.287382135464329,0.383903930161878,0.904208480412941,0.00595508699635827,0.00253231576057968,0.5,0.425235729071343,1.09706390206404,1.46732777415939,2.77398053747145,0.5,70.97765643206
CBC_1005,CBC_1005_MSI_TV_v3_Vset3_Tset2_2023-06-03_14h23.46.710.csv,4,40,3,2,z,0,1,2,tac,C,63,0,3C,2C,1,0,b,2.15238399999907,1,0,0,1,3C,2C,C32,2.90872089656436,0.994044913003642,0.165176983568075,0.5,0.5,0.287382135464329,0.996577228764221,0.5,0.5,0.287382135464329,0.287382135464329,0.981973617426232,0.287382135464329,0.5,0.287382135464329,0.165176983568075,0.962965667934584,0.226399994493195,0.773600005506805,0.287382135464329,0.981973617426232,0.047944266163621,0.0975631078945777,0.712617864535671,0.30303057717509,0.5,0.425235729071343,1.09706390206404,1.46732777415939,2.77398053747145,0.5,70.97765643206
CBC_1005,CBC_1005_MSI_TV_v3_Vset3_Tset2_2023-06-03_14h23.46.710.csv,4,41,0,2,b,1,0,1,tac,A,27,1,0A,2A,1,0,z,2.35802469999726,0,1,0,0,2A,0A,A02,3.3322045101752,0.994044913003642,0.165176983568075,0.5,0.5,0.287382135464329,0.996577228764221,0.5,0.5,0.287382135464329,0.287382135464329,0.981973617426232,0.590412712639418,0.5,0.287382135464329,0.165176983568075,0.962965667934584,0.334661960727001,0.665338039272999,0.5,0.994044913003642,0.0798498759433261,0.207206319739227,-0.5,-0.212617864535671,0.5,0.425235729071343,1.09706390206404,1.46732777415939,2.77398053747145,0.5,70.97765643206
CBC_1005,CBC_1005_MSI_TV_v3_Vset3_Tset2_2023-06-03_14h23.46.710.csv,4,42,2,3,z,0,1,3,tac,D,63,1,2D,3D,0,1,z,1.80041809999966,0,1,1,1,3D,2D,D23,4.04305126783455,0.994044913003642,0.165176983568075,0.287382135464329,0.5,0.287382135464329,0.996577228764221,0.5,0.5,0.287382135464329,0.287382135464329,0.981973617426232,0.590412712639418,0.5,0.287382135464329,0.165176983568075,0.962965667934584,0.853585020167384,0.146414979832616,0.962965667934584,0.165176983568075,0.689754268197794,0.946681795843572,0.0370343320654161,0.0157483211965074,0.5,0.425235729071343,1.09706390206404,1.46732777415939,2.77398053747145,0.5,70.97765643206
CBC_1005,CBC_1005_MSI_TV_v3_Vset3_Tset2_2023-06-03_14h23.46.710.csv,4,43,1,3,b,1,0,0,tac,B,27,1,1B,3B,1,0,b,2.37010819999887,1,0,1,1,1B,3B,B13,3.36729582998647,0.994044913003642,0.165176983568075,0.287382135464329,0.5,0.287382135464329,0.996577228764221,0.5,0.5,0.287382135464329,0.287382135464329,0.981973617426232,0.590412712639418,0.5,0.287382135464329,0.165176983568075,0.978713989131091,0.665904311257717,0.334095688742283,0.996577228764221,0.5,0.303478825509728,0.79409225405924,0.00342277123577861,0.00145548462189074,0.5,0.425235729071343,1.09706390206404,1.46732777415939,2.77398053747145,0.5,70.97765643206
