ID,filename,session,trial,visStimLeft,visStimRight,correctKey,leftCorrect,rightCorrect,secondStim,mod2Type,mod2Stim,frequency,rewardAccurate,stimPairLeft,stimPairRight,pCorrectLeft,pCorrectRight,key,reactionTime,choiceLeft,choiceRight,choiceAccurate,reward,chosenPair,otherPair,triplet,surprise,0A belief,1A belief,2A belief,3A belief,0B belief,1B belief,2B belief,3B belief,0C belief,1C belief,2C belief,3C belief,0D belief,1D belief,2D belief,3D belief,beliefPairNorm,beliefOtherPairNorm,beliefPair,beliefOtherPair,lik,corrLik,rewardPE,update2,fitCBCsimpleRW_CBCdriftDiffusionLR_pwBelief_startBelief,fitCBCsimpleRW_CBCdriftDiffusionLR_pwBelief_alpha1,fitCBCsimpleRW_CBCdriftDiffusionLR_pwBelief_nonDecisionTime,fitCBCsimpleRW_CBCdriftDiffusionLR_pwBelief_weight,fitCBCsimpleRW_CBCdriftDiffusionLR_pwBelief_startingBoundary,fitCBCsimpleRW_CBCdriftDiffusionLR_pwBelief_startingPoint,fit_CBCsimpleRW_CBCdriftDiffusionLR_pwBelief_NLL
CBC_1005,CBC_1005_MSI_AV_v3_Vset5_Aset2_2023-06-03_12h46.50.942.csv,1,1,2,0,b,1,0,2,aud,C,27,1,2C,0C,1,0,z,1.67739559999973,0,1,0,0,0C,2C,C20,2.77258872223978,0.5,0.5,0.5,0.5,0.5,0.5,0.5,0.5,0.5,0.5,0.5,0.5,0.5,0.5,0.5,0.5,0.5,0.5,0.5,0.5,0.265789417951989,0.499899050164378,-0.5,-0.00671549159330637,0.5,0.0134309831866127,1.08885812778623,0.0268870900441318,2.6378608433849,0.5,77.7512883388295
CBC_1005,CBC_1005_MSI_AV_v3_Vset5_Aset2_2023-06-03_12h46.50.942.csv,1,2,3,2,b,1,0,3,aud,D,63,1,3D,2D,1,0,b,2.50123630000053,1,0,1,1,3D,2D,D32,2.83321334405622,0.5,0.5,0.5,0.5,0.5,0.5,0.5,0.5,0.493284508406694,0.5,0.5,0.5,0.5,0.5,0.5,0.5,0.5,0.5,0.5,0.5,0.165873071409897,0.500660479933767,0.5,0.00671549159330637,0.5,0.0134309831866127,1.08885812778623,0.0268870900441318,2.6378608433849,0.5,77.7512883388295
CBC_1005,CBC_1005_MSI_AV_v3_Vset5_Aset2_2023-06-03_12h46.50.942.csv,1,3,1,0,z,0,1,1,aud,A,63,1,1A,0A,0,1,b,2.53934029999982,1,0,0,0,1A,0A,A10,2.89037175789616,0.5,0.5,0.5,0.5,0.5,0.5,0.5,0.5,0.493284508406694,0.5,0.5,0.5,0.5,0.5,0.5,0.506715491593306,0.5,0.5,0.5,0.5,0.161519509419919,0.500777127683467,-0.5,-0.00671549159330637,0.5,0.0134309831866127,1.08885812778623,0.0268870900441318,2.6378608433849,0.5,77.7512883388295
CBC_1005,CBC_1005_MSI_AV_v3_Vset5_Aset2_2023-06-03_12h46.50.942.csv,1,4,2,3,b,1,0,2,aud,C,63,1,2C,3C,1,0,z,5.27325980000023,0,1,0,0,3C,2C,C23,2.94443897916644,0.5,0.493284508406694,0.5,0.5,0.5,0.5,0.5,0.5,0.493284508406694,0.5,0.5,0.5,0.5,0.5,0.5,0.506715491593306,0.5,0.5,0.5,0.5,0.023180554037612,0.499163745118929,-0.5,-0.00671549159330637,0.5,0.0134309831866127,1.08885812778623,0.0268870900441318,2.6378608433849,0.5,77.7512883388295
CBC_1005,CBC_1005_MSI_AV_v3_Vset5_Aset2_2023-06-03_12h46.50.942.csv,1,5,0,2,b,1,0,1,aud,A,27,1,0A,2A,1,0,b,3.06709689999843,1,0,1,1,0A,2A,A02,2.99573227355399,0.5,0.493284508406694,0.5,0.5,0.5,0.5,0.5,0.5,0.493284508406694,0.5,0.5,0.493284508406694,0.5,0.5,0.5,0.506715491593306,0.5,0.5,0.5,0.5,0.110874873569131,0.499426319847651,0.5,0.00671549159330637,0.5,0.0134309831866127,1.08885812778623,0.0268870900441318,2.6378608433849,0.5,77.7512883388295
CBC_1005,CBC_1005_MSI_AV_v3_Vset5_Aset2_2023-06-03_12h46.50.942.csv,1,6,2,3,z,0,1,3,aud,D,63,1,2D,3D,0,1,z,3.24123200000031,0,1,1,1,3D,2D,D23,3.04452243772342,0.506715491593306,0.493284508406694,0.5,0.5,0.5,0.5,0.5,0.5,0.493284508406694,0.5,0.5,0.493284508406694,0.5,0.5,0.5,0.506715491593306,0.506715491593306,0.493284508406694,0.506715491593306,0.5,0.0981905100223581,0.500415137430187,0.493284508406694,0.00662529593862683,0.5,0.0134309831866127,1.08885812778623,0.0268870900441318,2.6378608433849,0.5,77.7512883388295
CBC_1005,CBC_1005_MSI_AV_v3_Vset5_Aset2_2023-06-03_12h46.50.942.csv,1,7,3,2,b,1,0,3,aud,D,63,1,3D,2D,1,0,b,2.80879760000062,1,0,1,1,3D,2D,D32,2.39789527279837,0.506715491593306,0.493284508406694,0.5,0.5,0.5,0.5,0.5,0.5,0.493284508406694,0.5,0.5,0.493284508406694,0.5,0.5,0.5,0.513340787531933,0.513340787531933,0.486659212468067,0.513340787531933,0.5,0.133525874362399,0.500847492312841,0.486659212468067,0.0065363117002688,0.5,0.0134309831866127,1.08885812778623,0.0268870900441318,2.6378608433849,0.5,77.7512883388295
CBC_1005,CBC_1005_MSI_AV_v3_Vset5_Aset2_2023-06-03_12h46.50.942.csv,1,8,3,1,z,0,1,0,aud,B,27,1,3B,1B,0,1,z,2.27630219999992,0,1,1,1,1B,3B,B31,3.13549421592915,0.506715491593306,0.493284508406694,0.5,0.5,0.5,0.5,0.5,0.5,0.493284508406694,0.5,0.5,0.493284508406694,0.5,0.5,0.5,0.519877099232202,0.5,0.5,0.5,0.5,0.193745054423023,0.499844717257209,0.5,0.00671549159330637,0.5,0.0134309831866127,1.08885812778623,0.0268870900441318,2.6378608433849,0.5,77.7512883388295
CBC_1005,CBC_1005_MSI_AV_v3_Vset5_Aset2_2023-06-03_12h46.50.942.csv,1,9,0,3,z,0,1,3,aud,D,9,1,0D,3D,0,1,z,2.4888977999999,0,1,1,1,3D,0D,D03,3.17805383034795,0.506715491593306,0.493284508406694,0.5,0.5,0.5,0.506715491593306,0.5,0.5,0.493284508406694,0.5,0.5,0.493284508406694,0.5,0.5,0.5,0.519877099232202,0.519877099232202,0.480122900767798,0.519877099232202,0.5,0.167077032366805,0.499937026172433,0.480122900767798,0.00644852260772003,0.5,0.0134309831866127,1.08885812778623,0.0268870900441318,2.6378608433849,0.5,77.7512883388295
CBC_1005,CBC_1005_MSI_AV_v3_Vset5_Aset2_2023-06-03_12h46.50.942.csv,1,10,1,0,b,1,0,0,aud,B,63,1,1B,0B,1,0,z,3.21889609999926,0,1,0,0,0B,1B,B10,3.2188758248682,0.506715491593306,0.493284508406694,0.5,0.5,0.5,0.506715491593306,0.5,0.5,0.493284508406694,0.5,0.5,0.493284508406694,0.5,0.5,0.5,0.526325621839922,0.493284508406694,0.506715491593306,0.5,0.506715491593306,0.0997114448711659,0.500181158000371,-0.5,-0.00671549159330637,0.5,0.0134309831866127,1.08885812778623,0.0268870900441318,2.6378608433849,0.5,77.7512883388295
CBC_1005,CBC_1005_MSI_AV_v3_Vset5_Aset2_2023-06-03_12h46.50.942.csv,1,11,1,0,z,0,1,1,aud,A,63,1,1A,0A,0,1,b,2.90202439999848,1,0,0,0,1A,0A,A10,2.56494935746154,0.506715491593306,0.493284508406694,0.5,0.5,0.493284508406694,0.506715491593306,0.5,0.5,0.493284508406694,0.5,0.5,0.493284508406694,0.5,0.5,0.5,0.526325621839922,0.486571439209051,0.513428560790949,0.493284508406694,0.506715491593306,0.124315571894669,0.498136791162488,-0.493284508406694,-0.00662529593862683,0.5,0.0134309831866127,1.08885812778623,0.0268870900441318,2.6378608433849,0.5,77.7512883388295
CBC_1005,CBC_1005_MSI_AV_v3_Vset5_Aset2_2023-06-03_12h46.50.942.csv,1,12,0,1,z,0,1,0,aud,B,63,1,0B,1B,0,1,z,2.25599349999902,0,1,1,1,1B,0B,B01,3.29583686600433,0.506715491593306,0.486659212468067,0.5,0.5,0.493284508406694,0.506715491593306,0.5,0.5,0.493284508406694,0.5,0.5,0.493284508406694,0.5,0.5,0.5,0.526325621839922,0.513428560790949,0.486571439209051,0.506715491593306,0.493284508406694,0.196908480550838,0.500959961826752,0.493284508406694,0.00662529593862683,0.5,0.0134309831866127,1.08885812778623,0.0268870900441318,2.6378608433849,0.5,77.7512883388295
CBC_1005,CBC_1005_MSI_AV_v3_Vset5_Aset2_2023-06-03_12h46.50.942.csv,1,13,2,3,z,0,1,3,aud,D,63,1,2D,3D,0,1,z,3.23586460000115,0,1,1,1,3D,2D,D23,2.63905732961526,0.506715491593306,0.486659212468067,0.5,0.5,0.493284508406694,0.513340787531933,0.5,0.5,0.493284508406694,0.5,0.5,0.493284508406694,0.5,0.5,0.5,0.526325621839922,0.526325621839922,0.473674378160078,0.526325621839922,0.5,0.0986110208043672,0.500649134993662,0.473674378160078,0.00636191260899725,0.5,0.0134309831866127,1.08885812778623,0.0268870900441318,2.6378608433849,0.5,77.7512883388295
CBC_1005,CBC_1005_MSI_AV_v3_Vset5_Aset2_2023-06-03_12h46.50.942.csv,1,14,1,3,b,1,0,0,aud,B,27,1,1B,3B,1,0,b,2.45550560000083,1,0,1,1,1B,3B,B13,3.36729582998647,0.506715491593306,0.486659212468067,0.5,0.5,0.493284508406694,0.513340787531933,0.5,0.5,0.493284508406694,0.5,0.5,0.493284508406694,0.5,0.5,0.5,0.532687534448919,0.513340787531933,0.486659212468067,0.513340787531933,0.5,0.171341772038746,0.500810588180068,0.486659212468067,0.0065363117002688,0.5,0.0134309831866127,1.08885812778623,0.0268870900441318,2.6378608433849,0.5,77.7512883388295
CBC_1005,CBC_1005_MSI_AV_v3_Vset5_Aset2_2023-06-03_12h46.50.942.csv,1,15,3,2,z,0,1,2,aud,C,63,1,3C,2C,0,1,z,1.74428199999966,0,1,1,1,2C,3C,C32,3.40119738166216,0.506715491593306,0.486659212468067,0.5,0.5,0.493284508406694,0.519877099232202,0.5,0.5,0.493284508406694,0.5,0.5,0.493284508406694,0.5,0.5,0.5,0.532687534448919,0.506715491593306,0.493284508406694,0.5,0.493284508406694,0.263048902152097,0.500064437567584,0.5,0.00671549159330637,0.5,0.0134309831866127,1.08885812778623,0.0268870900441318,2.6378608433849,0.5,77.7512883388295
CBC_1005,CBC_1005_MSI_AV_v3_Vset5_Aset2_2023-06-03_12h46.50.942.csv,1,16,2,0,b,1,0,2,aud,C,27,1,2C,0C,1,0,z,1.84134079999967,0,1,0,0,0C,2C,C20,2.7408400239252,0.506715491593306,0.486659212468067,0.5,0.5,0.493284508406694,0.519877099232202,0.5,0.5,0.493284508406694,0.5,0.506715491593306,0.493284508406694,0.5,0.5,0.5,0.532687534448919,0.486571439209051,0.513428560790949,0.493284508406694,0.506715491593306,0.253142921929289,0.498966287092919,-0.493284508406694,-0.00662529593862683,0.5,0.0134309831866127,1.08885812778623,0.0268870900441318,2.6378608433849,0.5,77.7512883388295
CBC_1005,CBC_1005_MSI_AV_v3_Vset5_Aset2_2023-06-03_12h46.50.942.csv,1,17,0,3,b,1,0,1,aud,A,9,1,0A,3A,1,0,b,3.01164740000058,1,0,1,1,0A,3A,A03,3.46573590279973,0.506715491593306,0.486659212468067,0.5,0.5,0.493284508406694,0.519877099232202,0.5,0.5,0.486659212468067,0.5,0.506715491593306,0.493284508406694,0.5,0.5,0.5,0.532687534448919,0.506715491593306,0.493284508406694,0.506715491593306,0.5,0.115393992863317,0.499746152816707,0.493284508406694,0.00662529593862683,0.5,0.0134309831866127,1.08885812778623,0.0268870900441318,2.6378608433849,0.5,77.7512883388295
CBC_1005,CBC_1005_MSI_AV_v3_Vset5_Aset2_2023-06-03_12h46.50.942.csv,1,18,2,3,b,1,0,2,aud,C,63,0,2C,3C,0,1,z,2.32952279999881,0,1,0,1,3C,2C,C23,2.80336038090653,0.513340787531933,0.486659212468067,0.5,0.5,0.493284508406694,0.519877099232202,0.5,0.5,0.486659212468067,0.5,0.506715491593306,0.493284508406694,0.5,0.5,0.5,0.532687534448919,0.486571439209051,0.513428560790949,0.493284508406694,0.506715491593306,0.186487643858254,0.499162878715916,0.506715491593306,0.0068056872479859,0.5,0.0134309831866127,1.08885812778623,0.0268870900441318,2.6378608433849,0.5,77.7512883388295
CBC_1005,CBC_1005_MSI_AV_v3_Vset5_Aset2_2023-06-03_12h46.50.942.csv,1,19,1,0,z,0,1,1,aud,A,63,1,1A,0A,0,1,b,2.70831840000028,1,0,0,0,1A,0A,A10,2.42774823594805,0.513340787531933,0.486659212468067,0.5,0.5,0.493284508406694,0.519877099232202,0.5,0.5,0.486659212468067,0.5,0.506715491593306,0.500090195654679,0.5,0.5,0.5,0.532687534448919,0.473337406208571,0.526662593791429,0.486659212468067,0.513340787531933,0.143077132273919,0.499828067978732,-0.486659212468067,-0.0065363117002688,0.5,0.0134309831866127,1.08885812778623,0.0268870900441318,2.6378608433849,0.5,77.7512883388295
CBC_1005,CBC_1005_MSI_AV_v3_Vset5_Aset2_2023-06-03_12h46.50.942.csv,1,20,3,2,b,1,0,3,aud,D,63,1,3D,2D,1,0,z,2.68972179999946,0,1,0,0,2D,3D,D32,2.4567357728213,0.513340787531933,0.480122900767798,0.5,0.5,0.493284508406694,0.519877099232202,0.5,0.5,0.486659212468067,0.5,0.506715491593306,0.500090195654679,0.5,0.5,0.5,0.532687534448919,0.467312465551081,0.532687534448919,0.5,0.532687534448919,0.14464460601022,0.498700291996736,-0.5,-0.00671549159330637,0.5,0.0134309831866127,1.08885812778623,0.0268870900441318,2.6378608433849,0.5,77.7512883388295
CBC_1005,CBC_1005_MSI_AV_v3_Vset5_Aset2_2023-06-03_12h46.50.942.csv,1,21,3,2,z,0,1,2,aud,C,63,1,3C,2C,0,1,z,2.76160509999863,0,1,1,1,2C,3C,C32,2.89037175789616,0.513340787531933,0.480122900767798,0.5,0.5,0.493284508406694,0.519877099232202,0.5,0.5,0.486659212468067,0.5,0.506715491593306,0.500090195654679,0.5,0.5,0.493284508406694,0.532687534448919,0.506625311990649,0.493374688009351,0.506715491593306,0.500090195654679,0.137971046428194,0.500513604467349,0.493284508406694,0.00662529593862683,0.5,0.0134309831866127,1.08885812778623,0.0268870900441318,2.6378608433849,0.5,77.7512883388295
CBC_1005,CBC_1005_MSI_AV_v3_Vset5_Aset2_2023-06-03_12h46.50.942.csv,1,22,3,1,b,1,0,3,aud,D,27,1,3D,1D,1,0,z,1.87488090000079,0,1,0,0,1D,3D,D31,3.61091791264422,0.513340787531933,0.480122900767798,0.5,0.5,0.493284508406694,0.519877099232202,0.5,0.5,0.486659212468067,0.5,0.513340787531933,0.500090195654679,0.5,0.5,0.493284508406694,0.532687534448919,0.467312465551081,0.532687534448919,0.5,0.532687534448919,0.248594642754485,0.498016790361783,-0.5,-0.00671549159330637,0.5,0.0134309831866127,1.08885812778623,0.0268870900441318,2.6378608433849,0.5,77.7512883388295
CBC_1005,CBC_1005_MSI_AV_v3_Vset5_Aset2_2023-06-03_12h46.50.942.csv,1,23,0,1,b,1,0,1,aud,A,63,1,0A,1A,1,0,z,2.6624797000004,0,1,0,0,1A,0A,A01,3.63758615972639,0.513340787531933,0.480122900767798,0.5,0.5,0.493284508406694,0.519877099232202,0.5,0.5,0.486659212468067,0.5,0.513340787531933,0.500090195654679,0.5,0.493284508406694,0.493284508406694,0.532687534448919,0.466817310268513,0.533182689731487,0.480122900767798,0.513340787531933,0.147464118570398,0.498721297682995,-0.480122900767798,-0.00644852260772003,0.5,0.0134309831866127,1.08885812778623,0.0268870900441318,2.6378608433849,0.5,77.7512883388295
CBC_1005,CBC_1005_MSI_AV_v3_Vset5_Aset2_2023-06-03_12h46.50.942.csv,1,24,3,2,z,0,1,2,aud,C,63,1,3C,2C,0,1,b,2.09615459999986,1,0,0,0,3C,2C,C32,2.56494935746154,0.513340787531933,0.473674378160078,0.5,0.5,0.493284508406694,0.519877099232202,0.5,0.5,0.486659212468067,0.5,0.513340787531933,0.500090195654679,0.5,0.493284508406694,0.493284508406694,0.532687534448919,0.486749344345694,0.513250655654306,0.500090195654679,0.513340787531933,0.218868315751632,0.500114865417144,-0.500090195654679,-0.00671670300962787,0.5,0.0134309831866127,1.08885812778623,0.0268870900441318,2.6378608433849,0.5,77.7512883388295
CBC_1005,CBC_1005_MSI_AV_v3_Vset5_Aset2_2023-06-03_12h46.50.942.csv,1,25,0,2,b,1,0,1,aud,A,27,1,0A,2A,1,0,z,2.6287984999999,0,1,0,0,2A,0A,A02,2.99573227355399,0.513340787531933,0.473674378160078,0.5,0.5,0.493284508406694,0.519877099232202,0.5,0.5,0.486659212468067,0.5,0.513340787531933,0.493373492645052,0.5,0.493284508406694,0.493284508406694,0.532687534448919,0.486659212468067,0.513340787531933,0.5,0.513340787531933,0.151191428020087,0.499299822041395,-0.5,-0.00671549159330637,0.5,0.0134309831866127,1.08885812778623,0.0268870900441318,2.6378608433849,0.5,77.7512883388295
CBC_1005,CBC_1005_MSI_AV_v3_Vset5_Aset2_2023-06-03_12h46.50.942.csv,1,26,1,0,b,1,0,0,aud,B,63,1,1B,0B,1,0,z,2.26941439999973,0,1,0,0,0B,1B,B10,3.02042488614436,0.513340787531933,0.473674378160078,0.493284508406694,0.5,0.493284508406694,0.519877099232202,0.5,0.5,0.486659212468067,0.5,0.513340787531933,0.493373492645052,0.5,0.493284508406694,0.493284508406694,0.532687534448919,0.473421600391256,0.526578399608744,0.493284508406694,0.519877099232202,0.194521547609036,0.499473553757922,-0.493284508406694,-0.00662529593862683,0.5,0.0134309831866127,1.08885812778623,0.0268870900441318,2.6378608433849,0.5,77.7512883388295
CBC_1005,CBC_1005_MSI_AV_v3_Vset5_Aset2_2023-06-03_12h46.50.942.csv,1,27,0,1,z,0,1,0,aud,B,63,1,0B,1B,0,1,b,2.32489919999898,1,0,0,0,0B,1B,B01,3.04452243772342,0.513340787531933,0.473674378160078,0.493284508406694,0.5,0.486659212468067,0.519877099232202,0.5,0.5,0.486659212468067,0.5,0.513340787531933,0.493373492645052,0.5,0.493284508406694,0.493284508406694,0.532687534448919,0.466817310268513,0.533182689731487,0.486659212468067,0.519877099232202,0.1870280271143,0.499005372689433,-0.486659212468067,-0.0065363117002688,0.5,0.0134309831866127,1.08885812778623,0.0268870900441318,2.6378608433849,0.5,77.7512883388295
CBC_1005,CBC_1005_MSI_AV_v3_Vset5_Aset2_2023-06-03_12h46.50.942.csv,1,28,3,2,z,0,1,2,aud,C,63,1,3C,2C,0,1,b,2.41856229999939,1,0,0,0,3C,2C,C32,2.37490575457367,0.513340787531933,0.473674378160078,0.493284508406694,0.5,0.480122900767798,0.519877099232202,0.5,0.5,0.486659212468067,0.5,0.513340787531933,0.493373492645052,0.5,0.493284508406694,0.493284508406694,0.532687534448919,0.48003976327851,0.51996023672149,0.493373492645052,0.513340787531933,0.175544026424537,0.499975198529546,-0.493373492645052,-0.00662649108443609,0.5,0.0134309831866127,1.08885812778623,0.0268870900441318,2.6378608433849,0.5,77.7512883388295
CBC_1005,CBC_1005_MSI_AV_v3_Vset5_Aset2_2023-06-03_12h46.50.942.csv,1,29,3,1,b,1,0,3,aud,D,27,1,3D,1D,1,0,z,2.53521189999992,0,1,0,0,1D,3D,D31,3.09104245335832,0.513340787531933,0.473674378160078,0.493284508406694,0.5,0.480122900767798,0.519877099232202,0.5,0.5,0.486659212468067,0.5,0.513340787531933,0.486747001560616,0.5,0.493284508406694,0.493284508406694,0.532687534448919,0.4606315414899,0.5393684585101,0.493284508406694,0.532687534448919,0.161175654261954,0.49825914540869,-0.493284508406694,-0.00662529593862683,0.5,0.0134309831866127,1.08885812778623,0.0268870900441318,2.6378608433849,0.5,77.7512883388295
CBC_1005,CBC_1005_MSI_AV_v3_Vset5_Aset2_2023-06-03_12h46.50.942.csv,1,30,1,2,z,0,1,2,aud,C,9,1,1C,2C,NaN,NaN,[],NaN,NaN,NaN,NaN,NaN,,,C12,3.80666248977032,0.513340787531933,0.473674378160078,0.493284508406694,0.5,0.480122900767798,0.519877099232202,0.5,0.5,0.486659212468067,0.5,0.513340787531933,0.486747001560616,0.5,0.486659212468067,0.493284508406694,0.532687534448919,0,0,0,0,NaN,0,0,0,0.5,0.0134309831866127,1.08885812778623,0.0268870900441318,2.6378608433849,0.5,77.7512883388295
CBC_1005,CBC_1005_MSI_AV_v3_Vset5_Aset2_2023-06-03_12h46.50.942.csv,1,31,3,1,z,0,1,0,aud,B,27,1,3B,1B,0,1,b,2.07530410000072,1,0,0,0,3B,1B,B31,3.13549421592915,0.513340787531933,0.473674378160078,0.493284508406694,0.5,0.480122900767798,0.519877099232202,0.5,0.5,0.486659212468067,0.5,0.513340787531933,0.486747001560616,0.5,0.486659212468067,0.493284508406694,0.532687534448919,0.480122900767798,0.519877099232202,0.5,0.519877099232202,0.221563472432892,0.499468371127686,-0.5,-0.00671549159330637,0.5,0.0134309831866127,1.08885812778623,0.0268870900441318,2.6378608433849,0.5,77.7512883388295
CBC_1005,CBC_1005_MSI_AV_v3_Vset5_Aset2_2023-06-03_12h46.50.942.csv,1,32,3,2,b,1,0,3,aud,D,63,1,3D,2D,1,0,b,3.03599029999896,1,0,1,1,3D,2D,D32,2.46385324059017,0.513340787531933,0.473674378160078,0.493284508406694,0.5,0.480122900767798,0.519877099232202,0.5,0.493284508406694,0.486659212468067,0.5,0.513340787531933,0.486747001560616,0.5,0.486659212468067,0.493284508406694,0.532687534448919,0.5393684585101,0.4606315414899,0.532687534448919,0.493284508406694,0.113780299315818,0.501335017744627,0.467312465551081,0.00627646586771111,0.5,0.0134309831866127,1.08885812778623,0.0268870900441318,2.6378608433849,0.5,77.7512883388295
CBC_1005,CBC_1005_MSI_AV_v3_Vset5_Aset2_2023-06-03_12h46.50.942.csv,1,33,0,1,z,0,1,0,aud,B,63,1,0B,1B,0,1,z,2.43764489999921,0,1,1,1,1B,0B,B01,2.77258872223978,0.513340787531933,0.473674378160078,0.493284508406694,0.5,0.480122900767798,0.519877099232202,0.5,0.493284508406694,0.486659212468067,0.5,0.513340787531933,0.486747001560616,0.5,0.486659212468067,0.493284508406694,0.53896400031663,0.539691470211916,0.460308529788084,0.519877099232202,0.480122900767798,0.173630001593514,0.501179714583411,0.480122900767798,0.00644852260772003,0.5,0.0134309831866127,1.08885812778623,0.0268870900441318,2.6378608433849,0.5,77.7512883388295
CBC_1005,CBC_1005_MSI_AV_v3_Vset5_Aset2_2023-06-03_12h46.50.942.csv,1,34,1,0,z,0,1,1,aud,A,63,0,1A,0A,1,0,b,3.1622126000002,1,0,0,1,1A,0A,A10,2.50552593699074,0.513340787531933,0.473674378160078,0.493284508406694,0.5,0.480122900767798,0.526325621839922,0.5,0.493284508406694,0.486659212468067,0.5,0.513340787531933,0.486747001560616,0.5,0.486659212468067,0.493284508406694,0.53896400031663,0.460389236546014,0.539610763453986,0.473674378160078,0.513340787531933,0.103461825628891,0.498548126853824,0.526325621839922,0.00706907057761548,0.5,0.0134309831866127,1.08885812778623,0.0268870900441318,2.6378608433849,0.5,77.7512883388295
CBC_1005,CBC_1005_MSI_AV_v3_Vset5_Aset2_2023-06-03_12h46.50.942.csv,1,35,2,3,b,1,0,2,aud,C,63,1,2C,3C,1,0,z,2.37133899999935,0,1,0,0,3C,2C,C23,2.81341071676004,0.513340787531933,0.480743448737693,0.493284508406694,0.5,0.480122900767798,0.526325621839922,0.5,0.493284508406694,0.486659212468067,0.5,0.513340787531933,0.486747001560616,0.5,0.486659212468067,0.493284508406694,0.53896400031663,0.473425008440596,0.526574991559404,0.486747001560616,0.513340787531933,0.180856003257284,0.49838183314885,-0.486747001560616,-0.00653749079409479,0.5,0.0134309831866127,1.08885812778623,0.0268870900441318,2.6378608433849,0.5,77.7512883388295
CBC_1005,CBC_1005_MSI_AV_v3_Vset5_Aset2_2023-06-03_12h46.50.942.csv,1,36,0,2,b,1,0,1,aud,A,27,1,0A,2A,1,0,b,2.94735179999952,1,0,1,1,0A,2A,A02,2.83321334405622,0.513340787531933,0.480743448737693,0.493284508406694,0.5,0.480122900767798,0.526325621839922,0.5,0.493284508406694,0.486659212468067,0.5,0.513340787531933,0.480209510766521,0.5,0.486659212468067,0.493284508406694,0.53896400031663,0.520049094336082,0.479950905663918,0.513340787531933,0.493284508406694,0.121256739896562,0.501741225243785,0.486659212468067,0.0065363117002688,0.5,0.0134309831866127,1.08885812778623,0.0268870900441318,2.6378608433849,0.5,77.7512883388295
CBC_1005,CBC_1005_MSI_AV_v3_Vset5_Aset2_2023-06-03_12h46.50.942.csv,1,37,0,1,z,0,1,0,aud,B,63,1,0B,1B,0,1,z,2.23317390000011,0,1,1,1,1B,0B,B01,2.56494935746154,0.519877099232202,0.480743448737693,0.493284508406694,0.5,0.480122900767798,0.526325621839922,0.5,0.493284508406694,0.486659212468067,0.5,0.513340787531933,0.480209510766521,0.5,0.486659212468067,0.493284508406694,0.53896400031663,0.546106215783449,0.453893784216551,0.526325621839922,0.480122900767798,0.200496356226644,0.502176321590411,0.473674378160078,0.00636191260899725,0.5,0.0134309831866127,1.08885812778623,0.0268870900441318,2.6378608433849,0.5,77.7512883388295
CBC_1005,CBC_1005_MSI_AV_v3_Vset5_Aset2_2023-06-03_12h46.50.942.csv,1,38,2,3,z,0,1,3,aud,D,63,1,2D,3D,0,1,z,2.4342488000002,0,1,1,1,3D,2D,D23,2.87167962488401,0.519877099232202,0.480743448737693,0.493284508406694,0.5,0.480122900767798,0.532687534448919,0.5,0.493284508406694,0.486659212468067,0.5,0.513340787531933,0.480209510766521,0.5,0.486659212468067,0.493284508406694,0.53896400031663,0.545631731473418,0.454368268526581,0.53896400031663,0.493284508406694,0.174421646608833,0.502266733179331,0.46103599968337,0.00619216676017053,0.5,0.0134309831866127,1.08885812778623,0.0268870900441318,2.6378608433849,0.5,77.7512883388295
CBC_1005,CBC_1005_MSI_AV_v3_Vset5_Aset2_2023-06-03_12h46.50.942.csv,1,39,1,2,b,1,0,0,aud,B,9,1,1B,2B,1,0,z,3.48200990000078,0,1,0,0,2B,1B,B12,3.98898404656427,0.519877099232202,0.480743448737693,0.493284508406694,0.5,0.480122900767798,0.532687534448919,0.5,0.493284508406694,0.486659212468067,0.5,0.513340787531933,0.480209510766521,0.5,0.486659212468067,0.493284508406694,0.545156167076801,0.467312465551081,0.532687534448919,0.5,0.532687534448919,0.0827105799717968,0.500007650530796,-0.5,-0.00671549159330637,0.5,0.0134309831866127,1.08885812778623,0.0268870900441318,2.6378608433849,0.5,77.7512883388295
CBC_1005,CBC_1005_MSI_AV_v3_Vset5_Aset2_2023-06-03_12h46.50.942.csv,1,40,1,3,z,0,1,3,aud,D,27,1,1D,3D,0,1,b,2.92567120000058,1,0,0,0,1D,3D,D13,4.00733318523247,0.519877099232202,0.480743448737693,0.493284508406694,0.5,0.480122900767798,0.532687534448919,0.493284508406694,0.493284508406694,0.486659212468067,0.5,0.513340787531933,0.480209510766521,0.5,0.486659212468067,0.493284508406694,0.545156167076801,0.441643665211142,0.558356334788858,0.486659212468067,0.545156167076801,0.122108792924482,0.497562704210122,-0.486659212468067,-0.0065363117002688,0.5,0.0134309831866127,1.08885812778623,0.0268870900441318,2.6378608433849,0.5,77.7512883388295
CBC_1005,CBC_1005_MSI_AV_v3_Vset5_Aset2_2023-06-03_12h46.50.942.csv,1,41,1,0,z,0,1,1,aud,A,63,1,1A,0A,0,1,b,2.51321159999861,1,0,0,0,1A,0A,A10,2.41591377830105,0.519877099232202,0.480743448737693,0.493284508406694,0.5,0.480122900767798,0.532687534448919,0.493284508406694,0.493284508406694,0.486659212468067,0.5,0.513340787531933,0.480209510766521,0.5,0.480122900767798,0.493284508406694,0.545156167076801,0.460926173781008,0.539073826218992,0.480743448737693,0.519877099232202,0.163891446875537,0.498865662928411,-0.480743448737693,-0.00645685717707018,0.5,0.0134309831866127,1.08885812778623,0.0268870900441318,2.6378608433849,0.5,77.7512883388295
CBC_1005,CBC_1005_MSI_AV_v3_Vset5_Aset2_2023-06-03_12h46.50.942.csv,1,42,0,1,b,1,0,1,aud,A,63,1,0A,1A,1,0,z,2.69645429999946,0,1,0,0,1A,0A,A01,3.3499040872746,0.519877099232202,0.474286591560623,0.493284508406694,0.5,0.480122900767798,0.532687534448919,0.493284508406694,0.493284508406694,0.486659212468067,0.5,0.513340787531933,0.480209510766521,0.5,0.480122900767798,0.493284508406694,0.545156167076801,0.454502508849997,0.545497491150003,0.474286591560623,0.519877099232202,0.143812998935378,0.498199725394878,-0.474286591560623,-0.00637013523688659,0.5,0.0134309831866127,1.08885812778623,0.0268870900441318,2.6378608433849,0.5,77.7512883388295
CBC_1005,CBC_1005_MSI_AV_v3_Vset5_Aset2_2023-06-03_12h46.50.942.csv,1,43,2,0,b,1,0,2,aud,C,27,1,2C,0C,1,0,z,2.4130710999998,0,1,0,0,0C,2C,C20,2.96183072187831,0.519877099232202,0.467916456323737,0.493284508406694,0.5,0.480122900767798,0.532687534448919,0.493284508406694,0.493284508406694,0.486659212468067,0.5,0.513340787531933,0.480209510766521,0.5,0.480122900767798,0.493284508406694,0.545156167076801,0.473337406208571,0.526662593791429,0.486659212468067,0.513340787531933,0.175553209910787,0.498082156614336,-0.486659212468067,-0.0065363117002688,0.5,0.0134309831866127,1.08885812778623,0.0268870900441318,2.6378608433849,0.5,77.7512883388295
CBC_1005,CBC_1005_MSI_AV_v3_Vset5_Aset2_2023-06-03_12h46.50.942.csv,1,44,0,1,z,0,1,0,aud,B,63,1,0B,1B,0,1,b,2.5182406999993,1,0,0,0,0B,1B,B01,2.46809953147162,0.519877099232202,0.467916456323737,0.493284508406694,0.5,0.480122900767798,0.532687534448919,0.493284508406694,0.493284508406694,0.480122900767798,0.5,0.513340787531933,0.480209510766521,0.5,0.480122900767798,0.493284508406694,0.545156167076801,0.447571624179241,0.552428375820759,0.480122900767798,0.532687534448919,0.163480539824705,0.499379998692336,-0.480122900767798,-0.00644852260772003,0.5,0.0134309831866127,1.08885812778623,0.0268870900441318,2.6378608433849,0.5,77.7512883388295
CBC_1005,CBC_1005_MSI_TV_v3_Vset2_Tset1_2023-06-03_12h55.30.379.csv,2,1,3,1,z,0,1,0,tac,B,27,1,3B,1B,0,1,z,3.13610419999895,0,1,1,1,1B,3B,B31,2.77258872223978,0.5,0.5,0.5,0.5,0.5,0.5,0.5,0.5,0.5,0.5,0.5,0.5,0.5,0.5,0.5,0.5,0.5,0.5,0.5,0.5,0.111796301236762,0.499100538796576,0.5,0.5,0.5,1,1.09403380585473,0.00199307099686641,2.8586870790025,0.5,77.1761241270842
CBC_1005,CBC_1005_MSI_TV_v3_Vset2_Tset1_2023-06-03_12h55.30.379.csv,2,2,2,3,b,1,0,2,tac,C,63,1,2C,3C,1,0,b,2.41326809999919,1,0,1,1,2C,3C,C23,2.83321334405622,0.5,0.5,0.5,0.5,0.5,1,0.5,0.5,0.5,0.5,0.5,0.5,0.5,0.5,0.5,0.5,0.5,0.5,0.5,0.5,0.172005592621611,0.498767933177557,0.5,0.5,0.5,1,1.09403380585473,0.00199307099686641,2.8586870790025,0.5,77.1761241270842
CBC_1005,CBC_1005_MSI_TV_v3_Vset2_Tset1_2023-06-03_12h55.30.379.csv,2,3,2,3,z,0,1,3,tac,D,63,1,2D,3D,0,1,z,3.28943840000102,0,1,1,1,3D,2D,D23,2.89037175789616,0.5,0.5,0.5,0.5,0.5,1,0.5,0.5,0.5,0.5,1,0.5,0.5,0.5,0.5,0.5,0.5,0.5,0.5,0.5,0.102063974387807,0.499815869998898,0.5,0.5,0.5,1,1.09403380585473,0.00199307099686641,2.8586870790025,0.5,77.1761241270842
CBC_1005,CBC_1005_MSI_TV_v3_Vset2_Tset1_2023-06-03_12h55.30.379.csv,2,4,1,0,b,1,0,0,tac,B,63,0,1B,0B,0,1,z,2.63165809999919,0,1,0,1,0B,1B,B10,2.94443897916644,0.5,0.5,0.5,0.5,0.5,1,0.5,0.5,0.5,0.5,1,0.5,0.5,0.5,0.5,1,0,1,0.5,1,0.15104519990825,0.498059735460966,0.5,0.5,0.5,1,1.09403380585473,0.00199307099686641,2.8586870790025,0.5,77.1761241270842
CBC_1005,CBC_1005_MSI_TV_v3_Vset2_Tset1_2023-06-03_12h55.30.379.csv,2,5,3,0,z,0,1,1,tac,A,9,1,3A,0A,0,1,z,2.55308129999867,0,1,1,1,0A,3A,A30,2.99573227355399,0.5,0.5,0.5,0.5,1,1,0.5,0.5,0.5,0.5,1,0.5,0.5,0.5,0.5,1,0.5,0.5,0.5,0.5,0.159150948680767,0.500882231442023,0.5,0.5,0.5,1,1.09403380585473,0.00199307099686641,2.8586870790025,0.5,77.1761241270842
CBC_1005,CBC_1005_MSI_TV_v3_Vset2_Tset1_2023-06-03_12h55.30.379.csv,2,6,2,3,z,0,1,3,tac,D,63,1,2D,3D,0,1,b,2.46786449999854,1,0,0,0,2D,3D,D23,2.35137525716348,1,0.5,0.5,0.5,1,1,0.5,0.5,0.5,0.5,1,0.5,0.5,0.5,0.5,1,0,1,0.5,1,0.166626652251648,0.498770347999278,-0.5,-0.5,0.5,1,1.09403380585473,0.00199307099686641,2.8586870790025,0.5,77.1761241270842
CBC_1005,CBC_1005_MSI_TV_v3_Vset2_Tset1_2023-06-03_12h55.30.379.csv,2,7,2,0,b,1,0,2,tac,C,27,1,2C,0C,1,0,z,2.4683612000008,0,1,0,0,0C,2C,C20,3.09104245335832,1,0.5,0.5,0.5,1,1,0.5,0.5,0.5,0.5,1,0.5,0.5,0.5,0,1,0,1,0.5,1,0.166573158454538,0.49875506469948,-0.5,-0.5,0.5,1,1.09403380585473,0.00199307099686641,2.8586870790025,0.5,77.1761241270842
CBC_1005,CBC_1005_MSI_TV_v3_Vset2_Tset1_2023-06-03_12h55.30.379.csv,2,8,1,0,z,0,1,1,tac,A,63,1,1A,0A,0,1,z,2.4764266000002,0,1,1,1,0A,1A,A10,3.13549421592915,1,0.5,0.5,0.5,1,1,0.5,0.5,0,0.5,1,0.5,0.5,0.5,0,1,1,0,1,0.5,0.166927134447034,0.502178534001004,0,0,0.5,1,1.09403380585473,0.00199307099686641,2.8586870790025,0.5,77.1761241270842
CBC_1005,CBC_1005_MSI_TV_v3_Vset2_Tset1_2023-06-03_12h55.30.379.csv,2,9,0,1,z,0,1,0,tac,B,63,1,0B,1B,0,1,z,2.61041750000004,0,1,1,1,1B,0B,B01,3.17805383034795,1,0.5,0.5,0.5,1,1,0.5,0.5,0,0.5,1,0.5,0.5,0.5,0,1,NaN,NaN,1,1,NaN,NaN,0,0,0.5,1,1.09403380585473,0.00199307099686641,2.8586870790025,0.5,77.1761241270842
CBC_1005,CBC_1005_MSI_TV_v3_Vset2_Tset1_2023-06-03_12h55.30.379.csv,2,10,3,1,b,1,0,3,tac,D,27,1,3D,1D,1,0,b,3.33101069999975,1,0,1,1,3D,1D,D31,3.2188758248682,1,0.5,0.5,0.5,1,1,0.5,0.5,0,0.5,1,0.5,0.5,0.5,0,1,1,0,1,0.5,0.0996246354236713,0.500265911544186,0,0,0.5,1,1.09403380585473,0.00199307099686641,2.8586870790025,0.5,77.1761241270842
CBC_1005,CBC_1005_MSI_TV_v3_Vset2_Tset1_2023-06-03_12h55.30.379.csv,2,11,2,3,b,1,0,2,tac,C,63,1,2C,3C,1,0,z,2.63340199999948,0,1,0,0,3C,2C,C23,2.56494935746154,1,0.5,0.5,0.5,1,1,0.5,0.5,0,0.5,1,0.5,0.5,0.5,0,1,0,1,0.5,1,0.151229084936656,0.499184776087321,-0.5,-0.5,0.5,1,1.09403380585473,0.00199307099686641,2.8586870790025,0.5,77.1761241270842
CBC_1005,CBC_1005_MSI_TV_v3_Vset2_Tset1_2023-06-03_12h55.30.379.csv,2,12,0,1,z,0,1,0,tac,B,63,1,0B,1B,0,1,b,2.98522539999976,1,0,0,0,0B,1B,B01,2.60268968544438,1,0.5,0.5,0.5,1,1,0.5,0.5,0,0.5,1,0,0.5,0.5,0,1,NaN,NaN,1,1,NaN,NaN,-1,-1,0.5,1,1.09403380585473,0.00199307099686641,2.8586870790025,0.5,77.1761241270842
CBC_1005,CBC_1005_MSI_TV_v3_Vset2_Tset1_2023-06-03_12h55.30.379.csv,2,13,1,0,z,0,1,1,tac,A,63,1,1A,0A,0,1,b,3.28987309999866,1,0,0,0,1A,0A,A10,2.63905732961526,1,0.5,0.5,0.5,0,1,0.5,0.5,0,0.5,1,0,0.5,0.5,0,1,0,1,0.5,1,0.101853405045977,0.498915648878358,-0.5,-0.5,0.5,1,1.09403380585473,0.00199307099686641,2.8586870790025,0.5,77.1761241270842
CBC_1005,CBC_1005_MSI_TV_v3_Vset2_Tset1_2023-06-03_12h55.30.379.csv,2,14,2,1,b,1,0,2,tac,C,9,1,2C,1C,1,0,b,2.73018709999997,1,0,1,1,2C,1C,C21,3.36729582998647,1,0,0.5,0.5,0,1,0.5,0.5,0,0.5,1,0,0.5,0.5,0,1,1,0,1,0.5,0.143526414884175,0.501940641493125,0,0,0.5,1,1.09403380585473,0.00199307099686641,2.8586870790025,0.5,77.1761241270842
CBC_1005,CBC_1005_MSI_TV_v3_Vset2_Tset1_2023-06-03_12h55.30.379.csv,2,15,0,1,b,1,0,1,tac,A,63,1,0A,1A,1,0,b,2.4738011999998,1,0,1,1,0A,1A,A01,3.40119738166216,1,0,0.5,0.5,0,1,0.5,0.5,0,0.5,1,0,0.5,0.5,0,1,1,0,1,0,0.166949623481675,0.501475650750187,0,0,0.5,1,1.09403380585473,0.00199307099686641,2.8586870790025,0.5,77.1761241270842
CBC_1005,CBC_1005_MSI_TV_v3_Vset2_Tset1_2023-06-03_12h55.30.379.csv,2,16,1,3,z,0,1,3,tac,D,27,1,1D,3D,0,1,z,2.31028789999982,0,1,1,1,3D,1D,D13,3.43398720448515,1,0,0.5,0.5,0,1,0.5,0.5,0,0.5,1,0,0.5,0.5,0,1,1,0,1,0.5,0.183097392910425,0.500581510099833,0,0,0.5,1,1.09403380585473,0.00199307099686641,2.8586870790025,0.5,77.1761241270842
CBC_1005,CBC_1005_MSI_TV_v3_Vset2_Tset1_2023-06-03_12h55.30.379.csv,2,17,1,0,b,1,0,0,tac,B,63,1,1B,0B,1,0,z,2.59273929999836,0,1,0,0,0B,1B,B10,2.77258872223978,1,0,0.5,0.5,0,1,0.5,0.5,0,0.5,1,0,0.5,0.5,0,1,0,1,0,1,0.154812919227066,0.498811080476931,0,0,0.5,1,1.09403380585473,0.00199307099686641,2.8586870790025,0.5,77.1761241270842
CBC_1005,CBC_1005_MSI_TV_v3_Vset2_Tset1_2023-06-03_12h55.30.379.csv,2,18,3,2,z,0,1,2,tac,C,63,0,3C,2C,1,0,b,2.61747560000003,1,0,0,1,3C,2C,C32,3.49650756146648,1,0,0.5,0.5,0,1,0.5,0.5,0,0.5,1,0,0.5,0.5,0,1,0,1,0,1,0.152526306211648,0.498718308602092,1,1,0.5,1,1.09403380585473,0.00199307099686641,2.8586870790025,0.5,77.1761241270842
CBC_1005,CBC_1005_MSI_TV_v3_Vset2_Tset1_2023-06-03_12h55.30.379.csv,2,19,0,2,b,1,0,1,tac,A,27,1,0A,2A,1,0,b,3.02194259999851,1,0,1,1,0A,2A,A02,3.52636052461616,1,0,0.5,0.5,0,1,0.5,0.5,0,0.5,1,1,0.5,0.5,0,1,1,0,1,0.5,0.120524463646535,0.502280292204998,0,0,0.5,1,1.09403380585473,0.00199307099686641,2.8586870790025,0.5,77.1761241270842
CBC_1005,CBC_1005_MSI_TV_v3_Vset2_Tset1_2023-06-03_12h55.30.379.csv,2,20,2,3,z,0,1,3,tac,D,63,1,2D,3D,0,1,z,2.44911270000011,0,1,1,1,3D,2D,D23,2.4567357728213,1,0,0.5,0.5,0,1,0.5,0.5,0,0.5,1,1,0.5,0.5,0,1,1,0,1,0,0.169321594236068,0.501318068598529,0,0,0.5,1,1.09403380585473,0.00199307099686641,2.8586870790025,0.5,77.1761241270842
CBC_1005,CBC_1005_MSI_TV_v3_Vset2_Tset1_2023-06-03_12h55.30.379.csv,2,21,1,3,b,1,0,0,tac,B,27,1,1B,3B,1,0,b,3.63242469999932,1,0,1,1,1B,3B,B13,3.58351893845611,1,0,0.5,0.5,0,1,0.5,0.5,0,0.5,1,1,0.5,0.5,0,1,1,0,1,0.5,0.0832734951401913,0.50161214443162,0,0,0.5,1,1.09403380585473,0.00199307099686641,2.8586870790025,0.5,77.1761241270842
CBC_1005,CBC_1005_MSI_TV_v3_Vset2_Tset1_2023-06-03_12h55.30.379.csv,2,22,2,3,b,1,0,2,tac,C,63,1,2C,3C,1,0,z,3.60844439999892,0,1,0,0,3C,2C,C23,2.51230562397611,1,0,0.5,0.5,0,1,0.5,0.5,0,0.5,1,1,0.5,0.5,0,1,NaN,NaN,1,1,NaN,NaN,-1,-1,0.5,1,1.09403380585473,0.00199307099686641,2.8586870790025,0.5,77.1761241270842
CBC_1005,CBC_1005_MSI_TV_v3_Vset2_Tset1_2023-06-03_12h55.30.379.csv,2,23,1,0,z,0,1,1,tac,A,63,0,1A,0A,1,0,b,2.37175000000025,1,0,0,1,1A,0A,A10,2.53897387105828,1,0,0.5,0.5,0,1,0.5,0.5,0,0.5,1,0,0.5,0.5,0,1,0,1,0,1,0.176240206183079,0.498964393999068,1,1,0.5,1,1.09403380585473,0.00199307099686641,2.8586870790025,0.5,77.1761241270842
CBC_1005,CBC_1005_MSI_TV_v3_Vset2_Tset1_2023-06-03_12h55.30.379.csv,2,24,1,2,b,1,0,0,tac,B,9,1,1B,2B,1,0,z,3.49749900000097,0,1,0,0,2B,1B,B12,3.66356164612965,1,1,0.5,0.5,0,1,0.5,0.5,0,0.5,1,0,0.5,0.5,0,1,0,1,0.5,1,0.0898841091236932,0.499073730263206,-0.5,-0.5,0.5,1,1.09403380585473,0.00199307099686641,2.8586870790025,0.5,77.1761241270842
CBC_1005,CBC_1005_MSI_TV_v3_Vset2_Tset1_2023-06-03_12h55.30.379.csv,2,25,3,2,z,0,1,2,tac,C,63,1,3C,2C,0,1,b,2.64172399999916,1,0,0,0,3C,2C,C32,2.99573227355399,1,1,0.5,0.5,0,1,0,0.5,0,0.5,1,0,0.5,0.5,0,1,0,1,0,1,0.150946185878234,0.500726232754675,0,0,0.5,1,1.09403380585473,0.00199307099686641,2.8586870790025,0.5,77.1761241270842
CBC_1005,CBC_1005_MSI_TV_v3_Vset2_Tset1_2023-06-03_12h55.30.379.csv,2,26,3,2,b,1,0,3,tac,D,63,1,3D,2D,1,0,b,2.90075939999952,1,0,1,1,3D,2D,D32,3.71357206670431,1,1,0.5,0.5,0,1,0,0.5,0,0.5,1,0,0.5,0.5,0,1,1,0,1,0,0.129444298070946,0.501495166269945,0,0,0.5,1,1.09403380585473,0.00199307099686641,2.8586870790025,0.5,77.1761241270842
CBC_1005,CBC_1005_MSI_TV_v3_Vset2_Tset1_2023-06-03_12h55.30.379.csv,2,27,1,0,b,1,0,0,tac,B,63,1,1B,0B,1,0,z,2.12158330000057,0,1,0,0,0B,1B,B10,2.63905732961526,1,1,0.5,0.5,0,1,0,0.5,0,0.5,1,0,0.5,0.5,0,1,0,1,0,1,0.201900757374088,0.498845052650993,0,0,0.5,1,1.09403380585473,0.00199307099686641,2.8586870790025,0.5,77.1761241270842
CBC_1005,CBC_1005_MSI_TV_v3_Vset2_Tset1_2023-06-03_12h55.30.379.csv,2,28,2,0,z,0,1,1,tac,A,27,1,2A,0A,0,1,b,2.80322359999991,1,0,0,0,2A,0A,A20,3.76120011569356,1,1,0.5,0.5,0,1,0,0.5,0,0.5,1,0,0.5,0.5,0,1,0,1,0.5,1,0.136507281484907,0.498755468343041,-0.5,-0.5,0.5,1,1.09403380585473,0.00199307099686641,2.8586870790025,0.5,77.1761241270842
CBC_1005,CBC_1005_MSI_TV_v3_Vset2_Tset1_2023-06-03_12h55.30.379.csv,2,29,3,1,b,1,0,3,tac,D,27,1,3D,1D,1,0,b,3.46269959999881,1,0,1,1,3D,1D,D31,3.09104245335832,1,1,0,0.5,0,1,0,0.5,0,0.5,1,0,0.5,0.5,0,1,1,0,1,0.5,0.0921575938700927,0.501058981648317,0,0,0.5,1,1.09403380585473,0.00199307099686641,2.8586870790025,0.5,77.1761241270842
CBC_1005,CBC_1005_MSI_TV_v3_Vset2_Tset1_2023-06-03_12h55.30.379.csv,2,30,0,1,b,1,0,1,tac,A,63,1,0A,1A,1,0,z,3.23807429999943,0,1,0,0,1A,0A,A01,3.11351530921037,1,1,0,0.5,0,1,0,0.5,0,0.5,1,0,0.5,0.5,0,1,NaN,NaN,1,1,NaN,NaN,-1,-1,0.5,1,1.09403380585473,0.00199307099686641,2.8586870790025,0.5,77.1761241270842
CBC_1005,CBC_1005_MSI_TV_v3_Vset2_Tset1_2023-06-03_12h55.30.379.csv,2,31,0,2,z,0,1,2,tac,C,27,1,0C,2C,0,1,b,2.57596740000008,1,0,0,0,0C,2C,C02,3.8286413964891,1,0,0,0.5,0,1,0,0.5,0,0.5,1,0,0.5,0.5,0,1,0,1,0,1,0.156061223371927,0.497855937299602,0,0,0.5,1,1.09403380585473,0.00199307099686641,2.8586870790025,0.5,77.1761241270842
CBC_1005,CBC_1005_MSI_TV_v3_Vset2_Tset1_2023-06-03_12h55.30.379.csv,2,32,3,2,b,1,0,3,tac,D,63,1,3D,2D,1,0,z,3.62927660000059,0,1,0,0,2D,3D,D32,3.15700042115011,1,0,0,0.5,0,1,0,0.5,0,0.5,1,0,0.5,0.5,0,1,0,1,0,1,0.0830119319609169,0.499086580947115,0,0,0.5,1,1.09403380585473,0.00199307099686641,2.8586870790025,0.5,77.1761241270842
CBC_1005,CBC_1005_MSI_TV_v3_Vset2_Tset1_2023-06-03_12h55.30.379.csv,2,33,0,1,z,0,1,0,tac,B,63,1,0B,1B,0,1,b,1.92301380000026,1,0,0,0,0B,1B,B01,2.77258872223978,1,0,0,0.5,0,1,0,0.5,0,0.5,1,0,0.5,0.5,0,1,0,1,0,1,0.21952274860913,0.498247758686897,0,0,0.5,1,1.09403380585473,0.00199307099686641,2.8586870790025,0.5,77.1761241270842
CBC_1005,CBC_1005_MSI_TV_v3_Vset2_Tset1_2023-06-03_12h55.30.379.csv,2,34,1,0,z,0,1,1,tac,A,63,1,1A,0A,0,1,z,3.71179299999858,0,1,1,1,0A,1A,A10,2.50552593699074,1,0,0,0.5,0,1,0,0.5,0,0.5,1,0,0.5,0.5,0,1,1,0,1,0,0.0793533822446201,0.501463467085834,0,0,0.5,1,1.09403380585473,0.00199307099686641,2.8586870790025,0.5,77.1761241270842
CBC_1005,CBC_1005_MSI_TV_v3_Vset2_Tset1_2023-06-03_12h55.30.379.csv,2,35,3,2,b,1,0,3,tac,D,63,0,3D,2D,0,1,z,2.43123679999917,0,1,0,1,2D,3D,D32,2.81341071676004,1,0,0,0.5,0,1,0,0.5,0,0.5,1,0,0.5,0.5,0,1,0,1,0,1,0.170412596571985,0.499326385841457,1,1,0.5,1,1.09403380585473,0.00199307099686641,2.8586870790025,0.5,77.1761241270842
CBC_1005,CBC_1005_MSI_TV_v3_Vset2_Tset1_2023-06-03_12h55.30.379.csv,2,36,0,2,z,0,1,2,tac,C,27,1,0C,2C,0,1,b,2.93198809999922,1,0,0,0,0C,2C,C02,3.23867845216438,1,0,0,0.5,0,1,0,0.5,0,0.5,1,0,0.5,0.5,1,1,0,1,0,1,0.125965618597546,0.497273927065104,0,0,0.5,1,1.09403380585473,0.00199307099686641,2.8586870790025,0.5,77.1761241270842
CBC_1005,CBC_1005_MSI_TV_v3_Vset2_Tset1_2023-06-03_12h55.30.379.csv,2,37,1,0,z,0,1,1,tac,A,63,1,1A,0A,0,1,z,3.84742909999841,0,1,1,1,0A,1A,A10,2.34180580614733,1,0,0,0.5,0,1,0,0.5,0,0.5,1,0,0.5,0.5,1,1,1,0,1,0,0.07292367568925,0.500162214485565,0,0,0.5,1,1.09403380585473,0.00199307099686641,2.8586870790025,0.5,77.1761241270842
CBC_1005,CBC_1005_MSI_TV_v3_Vset2_Tset1_2023-06-03_12h55.30.379.csv,2,38,3,1,z,0,1,0,tac,B,27,1,3B,1B,0,1,z,2.9715228999994,0,1,1,1,1B,3B,B31,3.27714473299218,1,0,0,0.5,0,1,0,0.5,0,0.5,1,0,0.5,0.5,1,1,1,0,1,0.5,0.124060488121017,0.501549953323778,0,0,0.5,1,1.09403380585473,0.00199307099686641,2.8586870790025,0.5,77.1761241270842
CBC_1005,CBC_1005_MSI_TV_v3_Vset2_Tset1_2023-06-03_12h55.30.379.csv,2,39,2,3,b,1,0,2,tac,C,63,1,2C,3C,1,0,z,2.83914969999933,0,1,0,0,3C,2C,C23,2.60268968544438,1,0,0,0.5,0,1,0,0.5,0,0.5,1,0,0.5,0.5,1,1,0,1,0,1,0.133858632050016,0.499742496313721,0,0,0.5,1,1.09403380585473,0.00199307099686641,2.8586870790025,0.5,77.1761241270842
CBC_1005,CBC_1005_MSI_TV_v3_Vset2_Tset1_2023-06-03_12h55.30.379.csv,2,40,2,3,z,0,1,3,tac,D,63,1,2D,3D,NaN,NaN,None,NaN,NaN,NaN,NaN,NaN,,,D23,2.62103882411258,1,0,0,0.5,0,1,0,0.5,0,0.5,1,0,0.5,0.5,1,1,0,0,0,0,NaN,0,0,0,0.5,1,1.09403380585473,0.00199307099686641,2.8586870790025,0.5,77.1761241270842
CBC_1005,CBC_1005_MSI_TV_v3_Vset2_Tset1_2023-06-03_12h55.30.379.csv,2,41,1,0,b,1,0,0,tac,B,63,1,1B,0B,1,0,b,2.25367709999955,1,0,1,1,1B,0B,B10,2.63905732961526,1,0,0,0.5,0,1,0,0.5,0,0.5,1,0,0.5,0.5,1,1,1,0,1,0,0.189016441433424,0.500734375811008,0,0,0.5,1,1.09403380585473,0.00199307099686641,2.8586870790025,0.5,77.1761241270842
CBC_1005,CBC_1005_MSI_TV_v3_Vset2_Tset1_2023-06-03_12h55.30.379.csv,2,42,0,2,b,1,0,1,tac,A,27,1,0A,2A,1,0,z,2.50974179999866,0,1,0,0,2A,0A,A02,3.3499040872746,1,0,0,0.5,0,1,0,0.5,0,0.5,1,0,0.5,0.5,1,1,0,1,0,1,0.162206878923098,0.497614224743545,0,0,0.5,1,1.09403380585473,0.00199307099686641,2.8586870790025,0.5,77.1761241270842
CBC_1005,CBC_1005_MSI_TV_v3_Vset2_Tset1_2023-06-03_12h55.30.379.csv,2,43,0,3,z,0,1,3,tac,D,9,1,0D,3D,0,1,z,2.20677239999895,0,1,1,1,3D,0D,D03,4.06044301054642,1,0,0,0.5,0,1,0,0.5,0,0.5,1,0,0.5,0.5,1,1,1,0,1,0.5,0.194084621618528,0.501228419843361,0,0,0.5,1,1.09403380585473,0.00199307099686641,2.8586870790025,0.5,77.1761241270842
CBC_1005,CBC_1005_MSI_TV_v3_Vset2_Tset1_2023-06-03_12h55.30.379.csv,2,44,2,3,b,1,0,2,tac,C,63,1,2C,3C,1,0,b,2.30718490000072,1,0,1,1,2C,3C,C23,2.46809953147162,1,0,0,0.5,0,1,0,0.5,0,0.5,1,0,0.5,0.5,1,1,1,0,1,0,0.183577810498299,0.501019372520768,0,0,0.5,1,1.09403380585473,0.00199307099686641,2.8586870790025,0.5,77.1761241270842
CBC_1005,CBC_1005_MSI_AV_v3_Vset6_Aset3_2023-06-03_14h15.22.631.csv,3,1,0,1,b,1,0,1,aud,A,63,1,0A,1A,1,0,b,2.65012910000041,1,0,1,1,0A,1A,A01,2.77258872223978,0.5,0.5,0.5,0.5,0.5,0.5,0.5,0.5,0.5,0.5,0.5,0.5,0.5,0.5,0.5,0.5,0.5,0.5,0.5,0.5,0.0984829795060759,0.49913962993762,0.5,0.00271139941375603,0.5,0.00542279882751207,0.302215719437371,2.9184020034632,3.1688476720935,0.5,103.188896341619
CBC_1005,CBC_1005_MSI_AV_v3_Vset6_Aset3_2023-06-03_14h15.22.631.csv,3,2,3,2,z,0,1,2,aud,C,63,1,3C,2C,0,1,b,2.78154659999927,1,0,0,0,3C,2C,C32,2.83321334405622,0.502711399413756,0.5,0.5,0.5,0.5,0.5,0.5,0.5,0.5,0.5,0.5,0.5,0.5,0.5,0.5,0.5,0.5,0.5,0.5,0.5,0.0926531270812399,0.500861489366696,-0.5,-0.00271139941375603,0.5,0.00542279882751207,0.302215719437371,2.9184020034632,3.1688476720935,0.5,103.188896341619
CBC_1005,CBC_1005_MSI_AV_v3_Vset6_Aset3_2023-06-03_14h15.22.631.csv,3,3,0,2,b,1,0,1,aud,A,27,1,0A,2A,1,0,z,3.39125649999914,0,1,0,0,2A,0A,A02,2.89037175789616,0.502711399413756,0.5,0.5,0.5,0.5,0.5,0.5,0.5,0.5,0.5,0.5,0.497288600586244,0.5,0.5,0.5,0.5,0.497288600586244,0.502711399413756,0.5,0.502711399413756,0.066794619680462,0.487182739116813,-0.5,-0.00271139941375603,0.5,0.00542279882751207,0.302215719437371,2.9184020034632,3.1688476720935,0.5,103.188896341619
CBC_1005,CBC_1005_MSI_AV_v3_Vset6_Aset3_2023-06-03_14h15.22.631.csv,3,4,1,0,b,1,0,0,aud,B,63,1,1B,0B,1,0,z,2.42638019999868,0,1,0,0,0B,1B,B10,2.94443897916644,0.502711399413756,0.5,0.497288600586244,0.5,0.5,0.5,0.5,0.5,0.5,0.5,0.5,0.497288600586244,0.5,0.5,0.5,0.5,0.5,0.5,0.5,0.5,0.109928599515056,0.499341162527935,-0.5,-0.00271139941375603,0.5,0.00542279882751207,0.302215719437371,2.9184020034632,3.1688476720935,0.5,103.188896341619
CBC_1005,CBC_1005_MSI_AV_v3_Vset6_Aset3_2023-06-03_14h15.22.631.csv,3,5,0,1,z,0,1,0,aud,B,63,1,0B,1B,0,1,z,2.55997249999928,0,1,1,1,1B,0B,B01,2.99573227355399,0.502711399413756,0.5,0.497288600586244,0.5,0.497288600586244,0.5,0.5,0.5,0.5,0.5,0.5,0.497288600586244,0.5,0.5,0.5,0.5,0.502711399413756,0.497288600586244,0.5,0.497288600586244,0.105627459303292,0.512197121079436,0.5,0.00271139941375603,0.5,0.00542279882751207,0.302215719437371,2.9184020034632,3.1688476720935,0.5,103.188896341619
CBC_1005,CBC_1005_MSI_AV_v3_Vset6_Aset3_2023-06-03_14h15.22.631.csv,3,6,3,2,z,0,1,2,aud,C,63,1,3C,2C,0,1,z,3.13771240000096,0,1,1,1,2C,3C,C32,2.35137525716348,0.502711399413756,0.5,0.497288600586244,0.5,0.497288600586244,0.502711399413756,0.5,0.5,0.5,0.5,0.5,0.497288600586244,0.5,0.5,0.5,0.5,0.502711399413756,0.497288600586244,0.5,0.497288600586244,0.0795829646736337,0.512452373652947,0.5,0.00271139941375603,0.5,0.00542279882751207,0.302215719437371,2.9184020034632,3.1688476720935,0.5,103.188896341619
CBC_1005,CBC_1005_MSI_AV_v3_Vset6_Aset3_2023-06-03_14h15.22.631.csv,3,7,3,1,b,1,0,3,aud,D,27,1,3D,1D,1,0,b,3.11800229999972,1,0,1,1,3D,1D,D31,3.09104245335832,0.502711399413756,0.5,0.497288600586244,0.5,0.497288600586244,0.502711399413756,0.5,0.5,0.5,0.5,0.502711399413756,0.497288600586244,0.5,0.5,0.5,0.5,0.5,0.5,0.5,0.5,0.0783764137527322,0.499799883253218,0.5,0.00271139941375603,0.5,0.00542279882751207,0.302215719437371,2.9184020034632,3.1688476720935,0.5,103.188896341619
CBC_1005,CBC_1005_MSI_AV_v3_Vset6_Aset3_2023-06-03_14h15.22.631.csv,3,8,1,2,z,0,1,2,aud,C,9,1,1C,2C,0,1,z,3.29575549999936,0,1,1,1,2C,1C,C12,3.13549421592915,0.502711399413756,0.5,0.497288600586244,0.5,0.497288600586244,0.502711399413756,0.5,0.5,0.5,0.5,0.502711399413756,0.497288600586244,0.5,0.5,0.5,0.502711399413756,0.502711399413756,0.497288600586244,0.502711399413756,0.5,0.0737584178702053,0.513309497354567,0.497288600586244,0.0026966960401942,0.5,0.00542279882751207,0.302215719437371,2.9184020034632,3.1688476720935,0.5,103.188896341619
CBC_1005,CBC_1005_MSI_AV_v3_Vset6_Aset3_2023-06-03_14h15.22.631.csv,3,9,3,1,z,0,1,0,aud,B,27,1,3B,1B,0,1,z,3.41922239999985,0,1,1,1,1B,3B,B31,3.17805383034795,0.502711399413756,0.5,0.497288600586244,0.5,0.497288600586244,0.502711399413756,0.5,0.5,0.5,0.5,0.50540809545395,0.497288600586244,0.5,0.5,0.5,0.502711399413756,0.502711399413756,0.497288600586244,0.502711399413756,0.5,0.0693523723682744,0.512839451713102,0.497288600586244,0.0026966960401942,0.5,0.00542279882751207,0.302215719437371,2.9184020034632,3.1688476720935,0.5,103.188896341619
CBC_1005,CBC_1005_MSI_AV_v3_Vset6_Aset3_2023-06-03_14h15.22.631.csv,3,10,3,2,b,1,0,3,aud,D,63,1,3D,2D,1,0,b,3.3393472000007,1,0,1,1,3D,2D,D32,3.2188758248682,0.502711399413756,0.5,0.497288600586244,0.5,0.497288600586244,0.50540809545395,0.5,0.5,0.5,0.5,0.50540809545395,0.497288600586244,0.5,0.5,0.5,0.502711399413756,0.502711399413756,0.497288600586244,0.502711399413756,0.5,0.0721682181143023,0.513118342650945,0.497288600586244,0.0026966960401942,0.5,0.00542279882751207,0.302215719437371,2.9184020034632,3.1688476720935,0.5,103.188896341619
CBC_1005,CBC_1005_MSI_AV_v3_Vset6_Aset3_2023-06-03_14h15.22.631.csv,3,11,1,0,b,1,0,0,aud,B,63,1,1B,0B,1,0,z,2.76462150000043,0,1,0,0,0B,1B,B10,2.56494935746154,0.502711399413756,0.5,0.497288600586244,0.5,0.497288600586244,0.50540809545395,0.5,0.5,0.5,0.5,0.50540809545395,0.497288600586244,0.5,0.5,0.5,0.50540809545395,0.491880981345436,0.508119018654564,0.497288600586244,0.50540809545395,0.0863138124143215,0.462709873158317,-0.497288600586244,-0.0026966960401942,0.5,0.00542279882751207,0.302215719437371,2.9184020034632,3.1688476720935,0.5,103.188896341619
CBC_1005,CBC_1005_MSI_AV_v3_Vset6_Aset3_2023-06-03_14h15.22.631.csv,3,12,0,2,z,0,1,2,aud,C,27,1,0C,2C,0,1,z,3.2121860999996,0,1,1,1,2C,0C,C02,3.29583686600433,0.502711399413756,0.5,0.497288600586244,0.5,0.49459190454605,0.50540809545395,0.5,0.5,0.5,0.5,0.50540809545395,0.497288600586244,0.5,0.5,0.5,0.50540809545395,0.50540809545395,0.49459190454605,0.50540809545395,0.5,0.0786536542083544,0.525429730002208,0.49459190454605,0.00268207240006928,0.5,0.00542279882751207,0.302215719437371,2.9184020034632,3.1688476720935,0.5,103.188896341619
CBC_1005,CBC_1005_MSI_AV_v3_Vset6_Aset3_2023-06-03_14h15.22.631.csv,3,13,3,2,b,1,0,3,aud,D,63,0,3D,2D,0,1,b,2.81930420000026,1,0,1,0,3D,2D,D32,2.63905732961526,0.502711399413756,0.5,0.497288600586244,0.5,0.49459190454605,0.50540809545395,0.5,0.5,0.5,0.5,0.508090167854019,0.497288600586244,0.5,0.5,0.5,0.50540809545395,0.50540809545395,0.49459190454605,0.50540809545395,0.5,0.095423423798208,0.525487434152789,-0.50540809545395,-0.00274072642744279,0.5,0.00542279882751207,0.302215719437371,2.9184020034632,3.1688476720935,0.5,103.188896341619
CBC_1005,CBC_1005_MSI_AV_v3_Vset6_Aset3_2023-06-03_14h15.22.631.csv,3,14,1,0,z,0,1,1,aud,A,63,1,1A,0A,0,1,z,2.46334999999999,0,1,1,1,0A,1A,A10,3.36729582998647,0.502711399413756,0.5,0.497288600586244,0.5,0.49459190454605,0.50540809545395,0.5,0.5,0.5,0.5,0.508090167854019,0.497288600586244,0.5,0.5,0.5,0.502667369026507,0.502711399413756,0.497288600586244,0.502711399413756,0.5,0.110615427843061,0.511605150080758,0.497288600586244,0.0026966960401942,0.5,0.00542279882751207,0.302215719437371,2.9184020034632,3.1688476720935,0.5,103.188896341619
CBC_1005,CBC_1005_MSI_AV_v3_Vset6_Aset3_2023-06-03_14h15.22.631.csv,3,15,2,3,b,1,0,2,aud,C,63,1,2C,3C,1,0,z,2.41484060000039,0,1,0,0,3C,2C,C23,3.40119738166216,0.50540809545395,0.5,0.497288600586244,0.5,0.49459190454605,0.50540809545395,0.5,0.5,0.5,0.5,0.508090167854019,0.497288600586244,0.5,0.5,0.5,0.502667369026507,0.489199380407809,0.510800619592191,0.497288600586244,0.508090167854019,0.0999750207517662,0.451235848181972,-0.497288600586244,-0.0026966960401942,0.5,0.00542279882751207,0.302215719437371,2.9184020034632,3.1688476720935,0.5,103.188896341619
CBC_1005,CBC_1005_MSI_AV_v3_Vset6_Aset3_2023-06-03_14h15.22.631.csv,3,16,0,2,b,1,0,1,aud,A,27,1,0A,2A,1,0,z,3.88092140000117,0,1,0,0,2A,0A,A02,2.7408400239252,0.50540809545395,0.5,0.497288600586244,0.5,0.49459190454605,0.50540809545395,0.5,0.5,0.5,0.5,0.508090167854019,0.49459190454605,0.5,0.5,0.5,0.502667369026507,0.491880981345436,0.508119018654564,0.497288600586244,0.50540809545395,0.0496706660028183,0.4613962672029,-0.497288600586244,-0.0026966960401942,0.5,0.00542279882751207,0.302215719437371,2.9184020034632,3.1688476720935,0.5,103.188896341619
CBC_1005,CBC_1005_MSI_AV_v3_Vset6_Aset3_2023-06-03_14h15.22.631.csv,3,17,2,3,z,0,1,3,aud,D,63,1,2D,3D,NaN,NaN,[],NaN,NaN,NaN,NaN,NaN,,,D23,3.46573590279973,0.50540809545395,0.5,0.49459190454605,0.5,0.49459190454605,0.50540809545395,0.5,0.5,0.5,0.5,0.508090167854019,0.49459190454605,0.5,0.5,0.5,0.502667369026507,0,0,0,0,NaN,0,0,0,0.5,0.00542279882751207,0.302215719437371,2.9184020034632,3.1688476720935,0.5,103.188896341619
CBC_1005,CBC_1005_MSI_AV_v3_Vset6_Aset3_2023-06-03_14h15.22.631.csv,3,18,3,2,b,1,0,3,aud,D,63,1,3D,2D,1,0,z,2.30253550000089,0,1,0,0,2D,3D,D32,2.39789527279837,0.50540809545395,0.5,0.49459190454605,0.5,0.49459190454605,0.50540809545395,0.5,0.5,0.5,0.5,0.508090167854019,0.49459190454605,0.5,0.5,0.5,0.502667369026507,0.497332630973493,0.502667369026507,0.5,0.502667369026507,0.114015454284482,0.48751070677438,-0.5,-0.00271139941375603,0.5,0.00542279882751207,0.302215719437371,2.9184020034632,3.1688476720935,0.5,103.188896341619
CBC_1005,CBC_1005_MSI_AV_v3_Vset6_Aset3_2023-06-03_14h15.22.631.csv,3,19,3,1,z,0,1,0,aud,B,27,1,3B,1B,0,1,b,2.34732380000059,1,0,0,0,3B,1B,B31,2.83321334405622,0.50540809545395,0.5,0.49459190454605,0.5,0.49459190454605,0.50540809545395,0.5,0.5,0.5,0.5,0.508090167854019,0.49459190454605,0.5,0.5,0.497288600586244,0.502667369026507,0.49459190454605,0.50540809545395,0.5,0.50540809545395,0.108618819922217,0.474599636571509,-0.5,-0.00271139941375603,0.5,0.00542279882751207,0.302215719437371,2.9184020034632,3.1688476720935,0.5,103.188896341619
CBC_1005,CBC_1005_MSI_AV_v3_Vset6_Aset3_2023-06-03_14h15.22.631.csv,3,20,0,3,z,0,1,3,aud,D,9,1,0D,3D,0,1,z,0.429054500000348,0,1,1,1,3D,0D,D03,3.55534806148941,0.50540809545395,0.5,0.49459190454605,0.5,0.49459190454605,0.50540809545395,0.5,0.497288600586244,0.5,0.5,0.508090167854019,0.49459190454605,0.5,0.5,0.497288600586244,0.502667369026507,0.502667369026507,0.497332630973493,0.502667369026507,0.5,0.000723148038743431,0.512798529866693,0.497332630973493,0.00269693480812655,0.5,0.00542279882751207,0.302215719437371,2.9184020034632,3.1688476720935,0.5,103.188896341619
CBC_1005,CBC_1005_MSI_AV_v3_Vset6_Aset3_2023-06-03_14h15.22.631.csv,3,21,1,0,b,1,0,0,aud,B,63,1,1B,0B,1,0,z,2.68989939999847,0,1,0,0,0B,1B,B10,2.484906649788,0.50540809545395,0.5,0.49459190454605,0.5,0.49459190454605,0.50540809545395,0.5,0.497288600586244,0.5,0.5,0.508090167854019,0.49459190454605,0.5,0.5,0.497288600586244,0.505364303834634,0.4891850743301,0.5108149256699,0.49459190454605,0.50540809545395,0.0870188818906585,0.449613423264613,-0.49459190454605,-0.00268207240006928,0.5,0.00542279882751207,0.302215719437371,2.9184020034632,3.1688476720935,0.5,103.188896341619
CBC_1005,CBC_1005_MSI_AV_v3_Vset6_Aset3_2023-06-03_14h15.22.631.csv,3,22,1,0,z,0,1,1,aud,A,63,1,1A,0A,0,1,z,2.38199689999965,0,1,1,1,0A,1A,A10,2.91777073208428,0.50540809545395,0.5,0.49459190454605,0.5,0.49190983214598,0.50540809545395,0.5,0.497288600586244,0.5,0.5,0.508090167854019,0.49459190454605,0.5,0.5,0.497288600586244,0.505364303834634,0.50540809545395,0.49459190454605,0.50540809545395,0.5,0.11793797629104,0.524130900704694,0.49459190454605,0.00268207240006928,0.5,0.00542279882751207,0.302215719437371,2.9184020034632,3.1688476720935,0.5,103.188896341619
CBC_1005,CBC_1005_MSI_AV_v3_Vset6_Aset3_2023-06-03_14h15.22.631.csv,3,23,2,3,b,1,0,2,aud,C,63,1,2C,3C,1,0,b,3.06116020000081,1,0,1,1,2C,3C,C23,2.94443897916644,0.508090167854019,0.5,0.49459190454605,0.5,0.49190983214598,0.50540809545395,0.5,0.497288600586244,0.5,0.5,0.508090167854019,0.49459190454605,0.5,0.5,0.497288600586244,0.505364303834634,0.513495901395665,0.486504098604335,0.508090167854019,0.49459190454605,0.0905813596007561,0.562169946199342,0.491909832145981,0.00266752806100288,0.5,0.00542279882751207,0.302215719437371,2.9184020034632,3.1688476720935,0.5,103.188896341619
CBC_1005,CBC_1005_MSI_AV_v3_Vset6_Aset3_2023-06-03_14h15.22.631.csv,3,24,0,2,b,1,0,1,aud,A,27,1,0A,2A,1,0,z,3.06049929999972,0,1,0,0,2A,0A,A02,2.56494935746154,0.508090167854019,0.5,0.49459190454605,0.5,0.49190983214598,0.50540809545395,0.5,0.497288600586244,0.5,0.5,0.510757695915022,0.49459190454605,0.5,0.5,0.497288600586244,0.505364303834634,0.486504098604335,0.513495901395665,0.49459190454605,0.508090167854019,0.0709447647407343,0.44013048952362,-0.49459190454605,-0.00268207240006928,0.5,0.00542279882751207,0.302215719437371,2.9184020034632,3.1688476720935,0.5,103.188896341619
CBC_1005,CBC_1005_MSI_AV_v3_Vset6_Aset3_2023-06-03_14h15.22.631.csv,3,25,1,0,b,1,0,0,aud,B,63,1,1B,0B,1,0,b,3.22926329999973,1,0,1,1,1B,0B,B10,2.30258509299405,0.508090167854019,0.5,0.49190983214598,0.5,0.49190983214598,0.50540809545395,0.5,0.497288600586244,0.5,0.5,0.510757695915022,0.49459190454605,0.5,0.5,0.497288600586244,0.505364303834634,0.513495901395665,0.486504098604335,0.50540809545395,0.49190983214598,0.0833214129190772,0.561918682647904,0.49459190454605,0.00268207240006928,0.5,0.00542279882751207,0.302215719437371,2.9184020034632,3.1688476720935,0.5,103.188896341619
CBC_1005,CBC_1005_MSI_AV_v3_Vset6_Aset3_2023-06-03_14h15.22.631.csv,3,26,2,3,z,0,1,3,aud,D,63,1,2D,3D,0,1,z,3.11050580000119,0,1,1,1,3D,2D,D23,3.02042488614436,0.508090167854019,0.5,0.49190983214598,0.5,0.49190983214598,0.508090167854019,0.5,0.497288600586244,0.5,0.5,0.510757695915022,0.49459190454605,0.5,0.5,0.497288600586244,0.505364303834634,0.508075233438729,0.491924766561271,0.505364303834634,0.497288600586244,0.0843667047863382,0.536190302487977,0.494635696165366,0.00268230987321116,0.5,0.00542279882751207,0.302215719437371,2.9184020034632,3.1688476720935,0.5,103.188896341619
CBC_1005,CBC_1005_MSI_AV_v3_Vset6_Aset3_2023-06-03_14h15.22.631.csv,3,27,1,2,b,1,0,0,aud,B,9,1,1B,2B,1,0,z,2.68969759999891,0,1,0,0,2B,1B,B12,3.73766961828337,0.508090167854019,0.5,0.49190983214598,0.5,0.49190983214598,0.508090167854019,0.5,0.497288600586244,0.5,0.5,0.510757695915022,0.49459190454605,0.5,0.5,0.497288600586244,0.508046613707845,0.491909832145981,0.508090167854019,0.5,0.508090167854019,0.0892665139126277,0.461225423517501,-0.5,-0.00271139941375603,0.5,0.00542279882751207,0.302215719437371,2.9184020034632,3.1688476720935,0.5,103.188896341619
CBC_1005,CBC_1005_MSI_AV_v3_Vset6_Aset3_2023-06-03_14h15.22.631.csv,3,28,1,3,z,0,1,3,aud,D,27,1,1D,3D,NaN,NaN,[],NaN,NaN,NaN,NaN,NaN,,,D13,3.76120011569356,0.508090167854019,0.5,0.49190983214598,0.5,0.49190983214598,0.508090167854019,0.497288600586244,0.497288600586244,0.5,0.5,0.510757695915022,0.49459190454605,0.5,0.5,0.497288600586244,0.508046613707845,0,0,0,0,NaN,0,0,0,0.5,0.00542279882751207,0.302215719437371,2.9184020034632,3.1688476720935,0.5,103.188896341619
CBC_1005,CBC_1005_MSI_AV_v3_Vset6_Aset3_2023-06-03_14h15.22.631.csv,3,29,1,0,z,0,1,1,aud,A,63,1,1A,0A,0,1,z,2.46423110000069,0,1,1,1,0A,1A,A10,2.68557734525015,0.508090167854019,0.5,0.49190983214598,0.5,0.49190983214598,0.508090167854019,0.497288600586244,0.497288600586244,0.5,0.5,0.510757695915022,0.49459190454605,0.5,0.5,0.497288600586244,0.508046613707845,0.508090167854019,0.491909832145981,0.508090167854019,0.5,0.116027405453716,0.536687419155399,0.491909832145981,0.00266752806100288,0.5,0.00542279882751207,0.302215719437371,2.9184020034632,3.1688476720935,0.5,103.188896341619
CBC_1005,CBC_1005_MSI_AV_v3_Vset6_Aset3_2023-06-03_14h15.22.631.csv,3,30,0,1,b,1,0,1,aud,A,63,1,0A,1A,1,0,b,2.16007340000033,1,0,1,1,0A,1A,A01,3.11351530921037,0.510757695915022,0.5,0.49190983214598,0.5,0.49190983214598,0.508090167854019,0.497288600586244,0.497288600586244,0.5,0.5,0.510757695915022,0.49459190454605,0.5,0.5,0.497288600586244,0.508046613707845,0.510757695915022,0.489242304084978,0.510757695915022,0.5,0.13794011659811,0.549732093172417,0.489242304084978,0.00265306259296132,0.5,0.00542279882751207,0.302215719437371,2.9184020034632,3.1688476720935,0.5,103.188896341619
CBC_1005,CBC_1005_MSI_AV_v3_Vset6_Aset3_2023-06-03_14h15.22.631.csv,3,31,0,2,z,0,1,2,aud,C,27,1,0C,2C,0,1,z,2.55165209999905,0,1,1,1,2C,0C,C02,3.13549421592915,0.513410758507984,0.5,0.49190983214598,0.5,0.49190983214598,0.508090167854019,0.497288600586244,0.497288600586244,0.5,0.5,0.510757695915022,0.49459190454605,0.5,0.5,0.497288600586244,0.508046613707845,0.510757695915022,0.489242304084978,0.510757695915022,0.5,0.114045205149819,0.550493999235378,0.489242304084978,0.00265306259296132,0.5,0.00542279882751207,0.302215719437371,2.9184020034632,3.1688476720935,0.5,103.188896341619
CBC_1005,CBC_1005_MSI_AV_v3_Vset6_Aset3_2023-06-03_14h15.22.631.csv,3,32,1,0,z,0,1,1,aud,A,63,1,1A,0A,0,1,z,2.24302259999968,0,1,1,1,0A,1A,A10,2.46385324059017,0.513410758507984,0.5,0.49190983214598,0.5,0.49190983214598,0.508090167854019,0.497288600586244,0.497288600586244,0.5,0.5,0.513410758507984,0.49459190454605,0.5,0.5,0.497288600586244,0.508046613707845,0.513410758507984,0.486589241492016,0.513410758507984,0.5,0.1354205973155,0.561586223124361,0.486589241492016,0.00263867556824289,0.5,0.00542279882751207,0.302215719437371,2.9184020034632,3.1688476720935,0.5,103.188896341619
CBC_1005,CBC_1005_MSI_AV_v3_Vset6_Aset3_2023-06-03_14h15.22.631.csv,3,33,1,0,b,1,0,0,aud,B,63,1,1B,0B,1,0,z,2.82098500000029,0,1,0,0,0B,1B,B10,2.26176309847379,0.516049434076226,0.5,0.49190983214598,0.5,0.49190983214598,0.508090167854019,0.497288600586244,0.497288600586244,0.5,0.5,0.513410758507984,0.49459190454605,0.5,0.5,0.497288600586244,0.508046613707845,0.483823899247931,0.516176100752069,0.49190983214598,0.508090167854019,0.077301393686618,0.426073946703657,-0.49190983214598,-0.00266752806100288,0.5,0.00542279882751207,0.302215719437371,2.9184020034632,3.1688476720935,0.5,103.188896341619
CBC_1005,CBC_1005_MSI_AV_v3_Vset6_Aset3_2023-06-03_14h15.22.631.csv,3,34,3,2,b,1,0,3,aud,D,63,1,3D,2D,1,0,b,2.82704270000067,1,0,1,1,3D,2D,D32,2.50552593699074,0.516049434076226,0.5,0.49190983214598,0.5,0.489242304084978,0.508090167854019,0.497288600586244,0.497288600586244,0.5,0.5,0.513410758507984,0.49459190454605,0.5,0.5,0.497288600586244,0.508046613707845,0.510757074348122,0.489242925651878,0.508046613707845,0.497288600586244,0.0992282334404634,0.54853655520567,0.491953386292155,0.00266776424637569,0.5,0.00542279882751207,0.302215719437371,2.9184020034632,3.1688476720935,0.5,103.188896341619
CBC_1005,CBC_1005_MSI_AV_v3_Vset6_Aset3_2023-06-03_14h15.22.631.csv,3,35,3,1,z,0,1,0,aud,B,27,1,3B,1B,0,1,z,3.81100909999986,0,1,1,1,1B,3B,B31,2.81341071676004,0.516049434076226,0.5,0.49190983214598,0.5,0.489242304084978,0.508090167854019,0.497288600586244,0.497288600586244,0.5,0.5,0.513410758507984,0.49459190454605,0.5,0.5,0.497288600586244,0.510714377954221,0.510800619592191,0.489199380407809,0.508090167854019,0.497288600586244,0.0612227103087876,0.549896297256407,0.491909832145981,0.00266752806100288,0.5,0.00542279882751207,0.302215719437371,2.9184020034632,3.1688476720935,0.5,103.188896341619
CBC_1005,CBC_1005_MSI_AV_v3_Vset6_Aset3_2023-06-03_14h15.22.631.csv,3,36,3,2,z,0,1,2,aud,C,63,1,3C,2C,0,1,b,3.59548419999919,1,0,0,0,3C,2C,C32,2.83321334405622,0.516049434076226,0.5,0.49190983214598,0.5,0.489242304084978,0.510757695915022,0.497288600586244,0.497288600586244,0.5,0.5,0.513410758507984,0.49459190454605,0.5,0.5,0.497288600586244,0.510714377954221,0.481186603929347,0.518813396070653,0.49459190454605,0.513410758507984,0.0510135543334454,0.413330353296869,-0.49459190454605,-0.00268207240006928,0.5,0.00542279882751207,0.302215719437371,2.9184020034632,3.1688476720935,0.5,103.188896341619
CBC_1005,CBC_1005_MSI_AV_v3_Vset6_Aset3_2023-06-03_14h15.22.631.csv,3,37,2,0,b,1,0,2,aud,C,27,1,2C,0C,1,0,z,2.51970280000023,0,1,0,0,0C,2C,C20,3.95124371858143,0.516049434076226,0.5,0.49190983214598,0.5,0.489242304084978,0.510757695915022,0.497288600586244,0.497288600586244,0.5,0.5,0.513410758507984,0.49190983214598,0.5,0.5,0.497288600586244,0.510714377954221,0.486589241492016,0.513410758507984,0.5,0.513410758507984,0.0920842883705473,0.437424773213777,-0.5,-0.00271139941375603,0.5,0.00542279882751207,0.302215719437371,2.9184020034632,3.1688476720935,0.5,103.188896341619
CBC_1005,CBC_1005_MSI_AV_v3_Vset6_Aset3_2023-06-03_14h15.22.631.csv,3,38,1,0,b,1,0,0,aud,B,63,1,1B,0B,1,0,b,3.61079529999915,1,0,1,1,1B,0B,B10,2.17853244432407,0.516049434076226,0.5,0.49190983214598,0.5,0.489242304084978,0.510757695915022,0.497288600586244,0.497288600586244,0.497288600586244,0.5,0.513410758507984,0.49190983214598,0.5,0.5,0.497288600586244,0.510714377954221,0.521505436703489,0.478494563296511,0.510757695915022,0.489242304084978,0.0730632752757636,0.597318628380192,0.489242304084978,0.00265306259296132,0.5,0.00542279882751207,0.302215719437371,2.9184020034632,3.1688476720935,0.5,103.188896341619
CBC_1005,CBC_1005_MSI_AV_v3_Vset6_Aset3_2023-06-03_14h15.22.631.csv,3,39,3,0,z,0,1,1,aud,A,9,1,3A,0A,NaN,NaN,[],NaN,NaN,NaN,NaN,NaN,,,A30,3.98898404656427,0.516049434076226,0.5,0.49190983214598,0.5,0.489242304084978,0.513410758507984,0.497288600586244,0.497288600586244,0.497288600586244,0.5,0.513410758507984,0.49190983214598,0.5,0.5,0.497288600586244,0.510714377954221,0,0,0,0,NaN,0,0,0,0.5,0.00542279882751207,0.302215719437371,2.9184020034632,3.1688476720935,0.5,103.188896341619
CBC_1005,CBC_1005_MSI_AV_v3_Vset6_Aset3_2023-06-03_14h15.22.631.csv,3,40,3,2,z,0,1,2,aud,C,63,0,3C,2C,1,0,b,2.33121220000066,1,0,0,1,3C,2C,C32,2.62103882411258,0.516049434076226,0.5,0.49190983214598,0.5,0.489242304084978,0.513410758507984,0.497288600586244,0.497288600586244,0.497288600586244,0.5,0.513410758507984,0.49190983214598,0.5,0.5,0.497288600586244,0.510714377954221,0.478508400587015,0.521491599412985,0.49190983214598,0.513410758507984,0.0928595542908505,0.401170138325754,0.50809016785402,0.00275527076650919,0.5,0.00542279882751207,0.302215719437371,2.9184020034632,3.1688476720935,0.5,103.188896341619
CBC_1005,CBC_1005_MSI_AV_v3_Vset6_Aset3_2023-06-03_14h15.22.631.csv,3,41,1,0,z,0,1,1,aud,A,63,1,1A,0A,0,1,z,2.43428440000025,0,1,1,1,0A,1A,A10,2.41591377830105,0.516049434076226,0.5,0.49190983214598,0.5,0.489242304084978,0.513410758507984,0.497288600586244,0.497288600586244,0.497288600586244,0.5,0.513410758507984,0.49466510291249,0.5,0.5,0.497288600586244,0.510714377954221,0.516049434076226,0.483950565923774,0.516049434076226,0.5,0.126126078357548,0.574190340494303,0.483950565923774,0.00262436656146524,0.5,0.00542279882751207,0.302215719437371,2.9184020034632,3.1688476720935,0.5,103.188896341619
CBC_1005,CBC_1005_MSI_AV_v3_Vset6_Aset3_2023-06-03_14h15.22.631.csv,3,42,3,2,b,1,0,3,aud,D,63,1,3D,2D,1,0,b,2.76831579999998,1,0,1,1,3D,2D,D32,2.43361335540045,0.518673800637692,0.5,0.49190983214598,0.5,0.489242304084978,0.513410758507984,0.497288600586244,0.497288600586244,0.497288600586244,0.5,0.513410758507984,0.49466510291249,0.5,0.5,0.497288600586244,0.510714377954221,0.513424217422465,0.486575782577535,0.510714377954221,0.497288600586244,0.104737712487967,0.562457142441084,0.489285622045779,0.00265329749754836,0.5,0.00542279882751207,0.302215719437371,2.9184020034632,3.1688476720935,0.5,103.188896341619
CBC_1005,CBC_1005_MSI_AV_v3_Vset6_Aset3_2023-06-03_14h15.22.631.csv,3,43,2,3,b,1,0,2,aud,C,63,1,2C,3C,1,0,z,2.49257770000077,0,1,0,0,3C,2C,C23,2.96183072187831,0.518673800637692,0.5,0.49190983214598,0.5,0.489242304084978,0.513410758507984,0.497288600586244,0.497288600586244,0.497288600586244,0.5,0.513410758507984,0.49466510291249,0.5,0.5,0.497288600586244,0.513367675451769,0.48125970750265,0.51874029249735,0.49466510291249,0.513410758507984,0.0882385977089309,0.413224592317336,-0.49466510291249,-0.00268246934008498,0.5,0.00542279882751207,0.302215719437371,2.9184020034632,3.1688476720935,0.5,103.188896341619
CBC_1005,CBC_1005_MSI_AV_v3_Vset6_Aset3_2023-06-03_14h15.22.631.csv,3,44,1,3,z,0,1,3,aud,D,27,1,1D,3D,0,1,z,1.90218040000036,0,1,1,1,3D,1D,D13,3.38439026334577,0.518673800637692,0.5,0.49190983214598,0.5,0.489242304084978,0.513410758507984,0.497288600586244,0.497288600586244,0.497288600586244,0.5,0.513410758507984,0.491982633572405,0.5,0.5,0.497288600586244,0.513367675451769,0.513367675451769,0.486632324548231,0.513367675451769,0.5,0.159950911864646,0.562687844715467,0.486632324548231,0.00263890919898962,0.5,0.00542279882751207,0.302215719437371,2.9184020034632,3.1688476720935,0.5,103.188896341619
CBC_1005,CBC_1005_MSI_TV_v3_Vset3_Tset2_2023-06-03_14h23.46.710.csv,4,1,1,0,b,1,0,0,tac,B,63,1,1B,0B,1,0,z,2.42232589999912,0,1,0,0,0B,1B,B10,2.77258872223978,0.5,0.5,0.5,0.5,0.5,0.5,0.5,0.5,0.5,0.5,0.5,0.5,0.5,0.5,0.5,0.5,0.5,0.5,0.5,0.5,0.16997824899659,0.499264402387912,-0.5,-0.5,0.5,1,1.05792638111039,0.531244753735645,2.74336516796691,0.5,72.43324977149
CBC_1005,CBC_1005_MSI_TV_v3_Vset3_Tset2_2023-06-03_14h23.46.710.csv,4,2,1,0,z,0,1,1,tac,A,63,1,1A,0A,0,1,b,2.37121479999951,1,0,0,0,1A,0A,A10,2.83321334405622,0.5,0.5,0.5,0.5,0,0.5,0.5,0.5,0.5,0.5,0.5,0.5,0.5,0.5,0.5,0.5,0.5,0.5,0.5,0.5,0.176313048707298,0.501164022258791,-0.5,-0.5,0.5,1,1.05792638111039,0.531244753735645,2.74336516796691,0.5,72.43324977149
CBC_1005,CBC_1005_MSI_TV_v3_Vset3_Tset2_2023-06-03_14h23.46.710.csv,4,3,3,2,b,1,0,3,tac,D,63,1,3D,2D,1,0,z,3.08157009999923,0,1,0,0,2D,3D,D32,2.89037175789616,0.5,0,0.5,0.5,0,0.5,0.5,0.5,0.5,0.5,0.5,0.5,0.5,0.5,0.5,0.5,0.5,0.5,0.5,0.5,0.110799303480043,0.50028740162324,-0.5,-0.5,0.5,1,1.05792638111039,0.531244753735645,2.74336516796691,0.5,72.43324977149
CBC_1005,CBC_1005_MSI_TV_v3_Vset3_Tset2_2023-06-03_14h23.46.710.csv,4,4,1,2,b,1,0,0,tac,B,9,1,1B,2B,1,0,b,3.17967949999911,1,0,1,1,1B,2B,B12,2.94443897916644,0.5,0,0.5,0.5,0,0.5,0.5,0.5,0.5,0.5,0.5,0.5,0.5,0.5,0,0.5,0.5,0.5,0.5,0.5,0.103893823262894,0.500262029047396,0.5,0.5,0.5,1,1.05792638111039,0.531244753735645,2.74336516796691,0.5,72.43324977149
CBC_1005,CBC_1005_MSI_TV_v3_Vset3_Tset2_2023-06-03_14h23.46.710.csv,4,5,2,0,z,0,1,1,tac,A,27,1,2A,0A,0,1,z,2.24389179999889,0,1,1,1,0A,2A,A20,2.99573227355399,0.5,0,0.5,0.5,0,1,0.5,0.5,0.5,0.5,0.5,0.5,0.5,0.5,0,0.5,0.5,0.5,0.5,0.5,0.190709492192191,0.500124370692898,0.5,0.5,0.5,1,1.05792638111039,0.531244753735645,2.74336516796691,0.5,72.43324977149
CBC_1005,CBC_1005_MSI_TV_v3_Vset3_Tset2_2023-06-03_14h23.46.710.csv,4,6,3,2,z,0,1,2,tac,C,63,1,3C,2C,0,1,z,2.3985952999974,0,1,1,1,2C,3C,C32,3.04452243772342,1,0,0.5,0.5,0,1,0.5,0.5,0.5,0.5,0.5,0.5,0.5,0.5,0,0.5,0.5,0.5,0.5,0.5,0.173293701957272,0.501299218861749,0.5,0.5,0.5,1,1.05792638111039,0.531244753735645,2.74336516796691,0.5,72.43324977149
CBC_1005,CBC_1005_MSI_TV_v3_Vset3_Tset2_2023-06-03_14h23.46.710.csv,4,7,3,1,b,1,0,3,tac,D,27,1,3D,1D,1,0,z,2.64048319999711,0,1,0,0,1D,3D,D31,3.09104245335832,1,0,0.5,0.5,0,1,0.5,0.5,0.5,0.5,1,0.5,0.5,0.5,0,0.5,0.5,0.5,0.5,0.5,0.147679345369501,0.499674952972698,-0.5,-0.5,0.5,1,1.05792638111039,0.531244753735645,2.74336516796691,0.5,72.43324977149
CBC_1005,CBC_1005_MSI_TV_v3_Vset3_Tset2_2023-06-03_14h23.46.710.csv,4,8,0,1,b,1,0,1,tac,A,63,1,0A,1A,1,0,z,2.4962934999985,0,1,0,0,1A,0A,A01,3.13549421592915,1,0,0.5,0.5,0,1,0.5,0.5,0.5,0.5,1,0.5,0.5,0,0,0.5,0,1,0,1,0.063917726423652,0.188839793098782,0,0,0.5,1,1.05792638111039,0.531244753735645,2.74336516796691,0.5,72.43324977149
CBC_1005,CBC_1005_MSI_TV_v3_Vset3_Tset2_2023-06-03_14h23.46.710.csv,4,9,0,2,z,0,1,2,tac,C,27,1,0C,2C,0,1,z,2.74149129999932,0,1,1,1,2C,0C,C02,3.17805383034795,1,0,0.5,0.5,0,1,0.5,0.5,0.5,0.5,1,0.5,0.5,0,0,0.5,1,0,1,0.5,0.226093749364293,0.811178318595707,0,0,0.5,1,1.05792638111039,0.531244753735645,2.74336516796691,0.5,72.43324977149
CBC_1005,CBC_1005_MSI_TV_v3_Vset3_Tset2_2023-06-03_14h23.46.710.csv,4,10,3,2,b,1,0,3,tac,D,63,1,3D,2D,1,0,b,2.58149959999901,1,0,1,1,3D,2D,D32,2.52572864430826,1,0,0.5,0.5,0,1,0.5,0.5,0.5,0.5,1,0.5,0.5,0,0,0.5,1,0,0.5,0,0.256462716936816,0.810520187470131,0.5,0.5,0.5,1,1.05792638111039,0.531244753735645,2.74336516796691,0.5,72.43324977149
CBC_1005,CBC_1005_MSI_TV_v3_Vset3_Tset2_2023-06-03_14h23.46.710.csv,4,11,0,1,z,0,1,0,tac,B,63,1,0B,1B,0,1,z,3.12481649999972,0,1,1,1,1B,0B,B01,3.25809653802148,1,0,0.5,0.5,0,1,0.5,0.5,0.5,0.5,1,0.5,0.5,0,0,1,1,0,1,0,0.166659653230165,0.811303756127263,0,0,0.5,1,1.05792638111039,0.531244753735645,2.74336516796691,0.5,72.43324977149
CBC_1005,CBC_1005_MSI_TV_v3_Vset3_Tset2_2023-06-03_14h23.46.710.csv,4,12,1,0,z,0,1,1,tac,A,63,1,1A,0A,0,1,z,1.89035219999823,0,1,1,1,0A,1A,A10,2.60268968544438,1,0,0.5,0.5,0,1,0.5,0.5,0.5,0.5,1,0.5,0.5,0,0,1,1,0,1,0,0.42840354989686,0.810841716492653,0,0,0.5,1,1.05792638111039,0.531244753735645,2.74336516796691,0.5,72.43324977149
CBC_1005,CBC_1005_MSI_TV_v3_Vset3_Tset2_2023-06-03_14h23.46.710.csv,4,13,3,2,b,1,0,3,tac,D,63,1,3D,2D,1,0,z,2.86223849999806,0,1,0,0,2D,3D,D32,2.23359222150709,1,0,0.5,0.5,0,1,0.5,0.5,0.5,0.5,1,0.5,0.5,0,0,1,0,1,0,1,0.0475869690731112,0.187977627939469,0,0,0.5,1,1.05792638111039,0.531244753735645,2.74336516796691,0.5,72.43324977149
CBC_1005,CBC_1005_MSI_TV_v3_Vset3_Tset2_2023-06-03_14h23.46.710.csv,4,14,0,2,z,0,1,2,tac,C,27,1,0C,2C,0,1,b,2.5765367999993,1,0,0,0,0C,2C,C02,2.67414864942653,1,0,0.5,0.5,0,1,0.5,0.5,0.5,0.5,1,0.5,0.5,0,0,1,0,1,0.5,1,0.0599906067209782,0.18883720882093,-0.5,-0.5,0.5,1,1.05792638111039,0.531244753735645,2.74336516796691,0.5,72.43324977149
CBC_1005,CBC_1005_MSI_TV_v3_Vset3_Tset2_2023-06-03_14h23.46.710.csv,4,15,1,0,z,0,1,1,tac,A,63,1,1A,0A,0,1,z,2.37798589999875,0,1,1,1,0A,1A,A10,2.30258509299405,1,0,0.5,0.5,0,1,0.5,0.5,0,0.5,1,0.5,0.5,0,0,1,1,0,1,0,0.300936915653033,0.810428452698046,0,0,0.5,1,1.05792638111039,0.531244753735645,2.74336516796691,0.5,72.43324977149
CBC_1005,CBC_1005_MSI_TV_v3_Vset3_Tset2_2023-06-03_14h23.46.710.csv,4,16,3,1,z,0,1,0,tac,B,27,1,3B,1B,0,1,z,2.25372179999795,0,1,1,1,1B,3B,B31,3.43398720448515,1,0,0.5,0.5,0,1,0.5,0.5,0,0.5,1,0.5,0.5,0,0,1,1,0,1,0.5,0.331922116174598,0.811466589527703,0,0,0.5,1,1.05792638111039,0.531244753735645,2.74336516796691,0.5,72.43324977149
CBC_1005,CBC_1005_MSI_TV_v3_Vset3_Tset2_2023-06-03_14h23.46.710.csv,4,17,2,3,b,1,0,2,tac,C,63,1,2C,3C,1,0,b,2.75973389999854,1,0,1,1,2C,3C,C23,3.46573590279973,1,0,0.5,0.5,0,1,0.5,0.5,0,0.5,1,0.5,0.5,0,0,1,1,0,1,0.5,0.222794526545089,0.810995932893512,0,0,0.5,1,1.05792638111039,0.531244753735645,2.74336516796691,0.5,72.43324977149
CBC_1005,CBC_1005_MSI_TV_v3_Vset3_Tset2_2023-06-03_14h23.46.710.csv,4,18,3,2,b,1,0,3,tac,D,63,0,3D,2D,0,1,b,2.34154529999978,1,0,1,0,3D,2D,D32,2.11021320034659,1,0,0.5,0.5,0,1,0.5,0.5,0,0.5,1,0.5,0.5,0,0,1,1,0,1,0,0.310170991156016,0.811551246798655,-1,-1,0.5,1,1.05792638111039,0.531244753735645,2.74336516796691,0.5,72.43324977149
CBC_1005,CBC_1005_MSI_TV_v3_Vset3_Tset2_2023-06-03_14h23.46.710.csv,4,19,0,1,z,0,1,0,tac,B,63,1,0B,1B,0,1,z,2.39185859999816,0,1,1,1,1B,0B,B01,2.83321334405622,1,0,0.5,0.5,0,1,0.5,0.5,0,0.5,1,0.5,0.5,0,0,0,1,0,1,0,0.298032357522404,0.811147863403544,0,0,0.5,1,1.05792638111039,0.531244753735645,2.74336516796691,0.5,72.43324977149
CBC_1005,CBC_1005_MSI_TV_v3_Vset3_Tset2_2023-06-03_14h23.46.710.csv,4,20,0,2,b,1,0,1,tac,A,27,1,0A,2A,1,0,b,3.01952079999865,1,0,1,1,0A,2A,A02,3.55534806148941,1,0,0.5,0.5,0,1,0.5,0.5,0,0.5,1,0.5,0.5,0,0,0,1,0,1,0.5,0.181295422083854,0.811680720000714,0,0,0.5,1,1.05792638111039,0.531244753735645,2.74336516796691,0.5,72.43324977149
CBC_1005,CBC_1005_MSI_TV_v3_Vset3_Tset2_2023-06-03_14h23.46.710.csv,4,21,3,0,b,1,0,3,tac,D,9,1,3D,0D,1,0,b,2.61203189999833,1,0,1,1,3D,0D,D30,3.58351893845611,1,0,0.5,0.5,0,1,0.5,0.5,0,0.5,1,0.5,0.5,0,0,0,0,1,0,0.5,0.0582556951137757,0.188600390451896,1,1,0.5,1,1.05792638111039,0.531244753735645,2.74336516796691,0.5,72.43324977149
CBC_1005,CBC_1005_MSI_TV_v3_Vset3_Tset2_2023-06-03_14h23.46.710.csv,4,22,3,2,z,0,1,2,tac,C,63,1,3C,2C,0,1,z,2.43700839999838,0,1,1,1,2C,3C,C32,2.91777073208428,1,0,0.5,0.5,0,1,0.5,0.5,0,0.5,1,0.5,0.5,0,0,1,1,0,1,0.5,0.287927258643585,0.811741467769627,0,0,0.5,1,1.05792638111039,0.531244753735645,2.74336516796691,0.5,72.43324977149
CBC_1005,CBC_1005_MSI_TV_v3_Vset3_Tset2_2023-06-03_14h23.46.710.csv,4,23,1,3,b,1,0,0,tac,B,27,1,1B,3B,1,0,b,2.21256989999893,1,0,1,1,1B,3B,B13,3.63758615972639,1,0,0.5,0.5,0,1,0.5,0.5,0,0.5,1,0.5,0.5,0,0,1,1,0,1,0.5,0.342120872690004,0.810817662800007,0,0,0.5,1,1.05792638111039,0.531244753735645,2.74336516796691,0.5,72.43324977149
CBC_1005,CBC_1005_MSI_TV_v3_Vset3_Tset2_2023-06-03_14h23.46.710.csv,4,24,2,3,b,1,0,2,tac,C,63,1,2C,3C,1,0,b,2.28485659999933,1,0,1,1,2C,3C,C23,2.9704144655697,1,0,0.5,0.5,0,1,0.5,0.5,0,0.5,1,0.5,0.5,0,0,1,1,0,1,0.5,0.323882401235881,0.811142018176554,0,0,0.5,1,1.05792638111039,0.531244753735645,2.74336516796691,0.5,72.43324977149
CBC_1005,CBC_1005_MSI_TV_v3_Vset3_Tset2_2023-06-03_14h23.46.710.csv,4,25,3,2,b,1,0,3,tac,D,63,1,3D,2D,1,0,b,2.91770089999955,1,0,1,1,3D,2D,D32,2.07944154167984,1,0,0.5,0.5,0,1,0.5,0.5,0,0.5,1,0.5,0.5,0,0,1,1,0,1,0,0.196491382295408,0.810980262729222,0,0,0.5,1,1.05792638111039,0.531244753735645,2.74336516796691,0.5,72.43324977149
CBC_1005,CBC_1005_MSI_TV_v3_Vset3_Tset2_2023-06-03_14h23.46.710.csv,4,26,0,1,z,0,1,0,tac,B,63,1,0B,1B,0,1,z,2.94525900000008,0,1,1,1,1B,0B,B01,2.6149597780362,1,0,0.5,0.5,0,1,0.5,0.5,0,0.5,1,0.5,0.5,0,0,1,1,0,1,0,0.192303032544053,0.811417268030094,0,0,0.5,1,1.05792638111039,0.531244753735645,2.74336516796691,0.5,72.43324977149
CBC_1005,CBC_1005_MSI_TV_v3_Vset3_Tset2_2023-06-03_14h23.46.710.csv,4,27,3,0,z,0,1,1,tac,A,9,1,3A,0A,0,1,z,2.76583169999867,0,1,1,1,0A,3A,A30,3.73766961828337,1,0,0.5,0.5,0,1,0.5,0.5,0,0.5,1,0.5,0.5,0,0,1,1,0,1,0.5,0.221855657111686,0.811559421594356,0,0,0.5,1,1.05792638111039,0.531244753735645,2.74336516796691,0.5,72.43324977149
CBC_1005,CBC_1005_MSI_TV_v3_Vset3_Tset2_2023-06-03_14h23.46.710.csv,4,28,3,2,b,1,0,3,tac,D,63,1,3D,2D,1,0,b,2.32892019999781,1,0,1,1,3D,2D,D32,1.96944064646551,1,0,0.5,0.5,0,1,0.5,0.5,0,0.5,1,0.5,0.5,0,0,1,1,0,1,0,0.313307928598821,0.811697178859231,0,0,0.5,1,1.05792638111039,0.531244753735645,2.74336516796691,0.5,72.43324977149
CBC_1005,CBC_1005_MSI_TV_v3_Vset3_Tset2_2023-06-03_14h23.46.710.csv,4,29,0,2,z,0,1,2,tac,C,27,1,0C,2C,0,1,z,2.42537259999881,0,1,1,1,2C,0C,C02,2.68557734525015,1,0,0.5,0.5,0,1,0.5,0.5,0,0.5,1,0.5,0.5,0,0,1,1,0,1,0,0.290493429642686,0.811564993199997,0,0,0.5,1,1.05792638111039,0.531244753735645,2.74336516796691,0.5,72.43324977149
CBC_1005,CBC_1005_MSI_TV_v3_Vset3_Tset2_2023-06-03_14h23.46.710.csv,4,30,0,1,b,1,0,1,tac,A,63,1,0A,1A,1,0,b,3.00066029999834,1,0,1,1,0A,1A,A01,3.11351530921037,1,0,0.5,0.5,0,1,0.5,0.5,0,0.5,1,0.5,0.5,0,0,1,1,0,1,0,0.184012317159561,0.811487097945066,0,0,0.5,1,1.05792638111039,0.531244753735645,2.74336516796691,0.5,72.43324977149
CBC_1005,CBC_1005_MSI_TV_v3_Vset3_Tset2_2023-06-03_14h23.46.710.csv,4,31,0,1,z,0,1,0,tac,B,63,1,0B,1B,0,1,z,2.31552119999833,0,1,1,1,1B,0B,B01,2.4423470353692,1,0,0.5,0.5,0,1,0.5,0.5,0,0.5,1,0.5,0.5,0,0,1,1,0,1,0,0.316297393804121,0.811153230298273,0,0,0.5,1,1.05792638111039,0.531244753735645,2.74336516796691,0.5,72.43324977149
CBC_1005,CBC_1005_MSI_TV_v3_Vset3_Tset2_2023-06-03_14h23.46.710.csv,4,32,1,3,z,0,1,3,tac,D,27,1,1D,3D,0,1,z,1.47683849999885,0,1,1,1,3D,1D,D13,3.85014760171006,1,0,0.5,0.5,0,1,0.5,0.5,0,0.5,1,0.5,0.5,0,0,1,1,0,1,0,0.417383984975165,0.811184796359322,0,0,0.5,1,1.05792638111039,0.531244753735645,2.74336516796691,0.5,72.43324977149
CBC_1005,CBC_1005_MSI_TV_v3_Vset3_Tset2_2023-06-03_14h23.46.710.csv,4,33,2,3,b,1,0,2,tac,C,63,1,2C,3C,1,0,z,3.20414059999894,0,1,0,0,3C,2C,C23,2.77258872223978,1,0,0.5,0.5,0,1,0.5,0.5,0,0.5,1,0.5,0.5,0,0,1,0,1,0.5,1,0.0364531267295891,0.188994105174684,-0.5,-0.5,0.5,1,1.05792638111039,0.531244753735645,2.74336516796691,0.5,72.43324977149
CBC_1005,CBC_1005_MSI_TV_v3_Vset3_Tset2_2023-06-03_14h23.46.710.csv,4,34,0,1,z,0,1,0,tac,B,63,1,0B,1B,0,1,z,2.23241149999922,0,1,1,1,1B,0B,B01,2.28238238567653,1,0,0.5,0.5,0,1,0.5,0.5,0,0.5,1,0,0.5,0,0,1,1,0,1,0,0.337071432880595,0.810948972775933,0,0,0.5,1,1.05792638111039,0.531244753735645,2.74336516796691,0.5,72.43324977149
CBC_1005,CBC_1005_MSI_TV_v3_Vset3_Tset2_2023-06-03_14h23.46.710.csv,4,35,1,0,z,0,1,1,tac,A,63,1,1A,0A,0,1,z,2.64682929999981,0,1,1,1,0A,1A,A10,2.52572864430826,1,0,0.5,0.5,0,1,0.5,0.5,0,0.5,1,0,0.5,0,0,1,1,0,1,0,0.243914985774713,0.811752033997428,0,0,0.5,1,1.05792638111039,0.531244753735645,2.74336516796691,0.5,72.43324977149
CBC_1005,CBC_1005_MSI_TV_v3_Vset3_Tset2_2023-06-03_14h23.46.710.csv,4,36,2,1,b,1,0,2,tac,C,9,1,2C,1C,1,0,z,2.86717479999788,0,1,0,0,1C,2C,C21,3.93182563272433,1,0,0.5,0.5,0,1,0.5,0.5,0,0.5,1,0,0.5,0,0,1,0,1,0.5,1,0.0476237370682589,0.18882296630648,-0.5,-0.5,0.5,1,1.05792638111039,0.531244753735645,2.74336516796691,0.5,72.43324977149
CBC_1005,CBC_1005_MSI_TV_v3_Vset3_Tset2_2023-06-03_14h23.46.710.csv,4,37,0,1,b,1,0,1,tac,A,63,1,0A,1A,1,0,b,2.14299459999893,1,0,1,1,0A,1A,A01,2.85263142991332,1,0,0.5,0.5,0,1,0.5,0.5,0,0,1,0,0.5,0,0,1,1,0,1,0,0.360751883962941,0.811207379146366,0,0,0.5,1,1.05792638111039,0.531244753735645,2.74336516796691,0.5,72.43324977149
CBC_1005,CBC_1005_MSI_TV_v3_Vset3_Tset2_2023-06-03_14h23.46.710.csv,4,38,1,3,z,0,1,3,tac,D,27,1,1D,3D,0,1,z,1.28372919999856,0,1,1,1,3D,1D,D13,3.27714473299218,1,0,0.5,0.5,0,1,0.5,0.5,0,0,1,0,0.5,0,0,1,1,0,1,0,0.158849668362234,0.811269464933958,0,0,0.5,1,1.05792638111039,0.531244753735645,2.74336516796691,0.5,72.43324977149
CBC_1005,CBC_1005_MSI_TV_v3_Vset3_Tset2_2023-06-03_14h23.46.710.csv,4,39,1,0,b,1,0,0,tac,B,63,1,1B,0B,1,0,b,2.31315439999889,1,0,1,1,1B,0B,B10,3.29583686600433,1,0,0.5,0.5,0,1,0.5,0.5,0,0,1,0,0.5,0,0,1,1,0,1,0,0.316785522009155,0.810978820231738,0,0,0.5,1,1.05792638111039,0.531244753735645,2.74336516796691,0.5,72.43324977149
CBC_1005,CBC_1005_MSI_TV_v3_Vset3_Tset2_2023-06-03_14h23.46.710.csv,4,40,3,2,z,0,1,2,tac,C,63,0,3C,2C,1,0,b,2.15238399999907,1,0,0,1,3C,2C,C32,2.90872089656436,1,0,0.5,0.5,0,1,0.5,0.5,0,0,1,0,0.5,0,0,1,0,1,0,1,0.0837163711776097,0.189678751026111,1,1,0.5,1,1.05792638111039,0.531244753735645,2.74336516796691,0.5,72.43324977149
CBC_1005,CBC_1005_MSI_TV_v3_Vset3_Tset2_2023-06-03_14h23.46.710.csv,4,41,0,2,b,1,0,1,tac,A,27,1,0A,2A,1,0,z,2.35802469999726,0,1,0,0,2A,0A,A02,3.3322045101752,1,0,0.5,0.5,0,1,0.5,0.5,0,0,1,1,0.5,0,0,1,0,1,0.5,1,0.0713348684908335,0.189105777515536,-0.5,-0.5,0.5,1,1.05792638111039,0.531244753735645,2.74336516796691,0.5,72.43324977149
CBC_1005,CBC_1005_MSI_TV_v3_Vset3_Tset2_2023-06-03_14h23.46.710.csv,4,42,2,3,z,0,1,3,tac,D,63,1,2D,3D,0,1,z,1.80041809999966,0,1,1,1,3D,2D,D23,4.04305126783455,1,0,0,0.5,0,1,0.5,0.5,0,0,1,1,0.5,0,0,1,1,0,1,0,0.449300729574233,0.810894222107321,0,0,0.5,1,1.05792638111039,0.531244753735645,2.74336516796691,0.5,72.43324977149
CBC_1005,CBC_1005_MSI_TV_v3_Vset3_Tset2_2023-06-03_14h23.46.710.csv,4,43,1,3,b,1,0,0,tac,B,27,1,1B,3B,1,0,b,2.37010819999887,1,0,1,1,1B,3B,B13,3.36729582998647,1,0,0,0.5,0,1,0.5,0.5,0,0,1,1,0.5,0,0,1,1,0,1,0.5,0.303110726284147,0.811083934280942,0,0,0.5,1,1.05792638111039,0.531244753735645,2.74336516796691,0.5,72.43324977149
CBC_1005,CBC_1005_MSI_TV_v3_Vset3_Tset2_2023-06-03_14h23.46.710.csv,4,44,3,2,z,0,1,2,tac,C,63,1,3C,2C,0,1,z,2.78501399999914,0,1,1,1,2C,3C,C32,2.69124308278583,1,0,0,0.5,0,1,0.5,0.5,0,0,1,1,0.5,0,0,1,NaN,NaN,1,1,NaN,NaN,0,0,0.5,1,1.05792638111039,0.531244753735645,2.74336516796691,0.5,72.43324977149
