ID,session,trialNr,mod2Stim,visStimLeft,visStimRight,correctKey,frequency,rewardAccurate,probFB,stimPairLeft,stimPairRight,leftCorrect,rightCorrect,pCorrectLeft,pCorrectRight,triplet,rt,surprise,0A belief,1A belief,2A belief,3A belief,0B belief,1B belief,2B belief,3B belief,0C belief,1C belief,2C belief,3C belief,0D belief,1D belief,2D belief,3D belief,reactionTime,choice,choiceLeft,choiceRight,chosenPair,otherPair,beliefPair,beliefOtherPair,beliefPairNorm,beliefOtherPairNorm,choiceAccurate,reward,rewardPE,update2,sim_CBCsimpleRW_CBCdriftDiffusionLR_startBelief,sim_CBCsimpleRW_CBCdriftDiffusionLR_alpha1,sim_CBCsimpleRW_CBCdriftDiffusionLR_nonDecisionTime,sim_CBCsimpleRW_CBCdriftDiffusionLR_weight,sim_CBCsimpleRW_CBCdriftDiffusionLR_startingBoundary,sim_CBCsimpleRW_CBCdriftDiffusionLR_startingPoint,lik,corrLik,fitCBCsimpleRW_CBCdriftDiffusionLR_startBelief,fitCBCsimpleRW_CBCdriftDiffusionLR_alpha1,fitCBCsimpleRW_CBCdriftDiffusionLR_nonDecisionTime,fitCBCsimpleRW_CBCdriftDiffusionLR_weight,fitCBCsimpleRW_CBCdriftDiffusionLR_startingBoundary,fitCBCsimpleRW_CBCdriftDiffusionLR_startingPoint,fit_CBCsimpleRW_CBCdriftDiffusionLR_NLL
180,1,1,B,0,1,l,63,1,1,0B,1B,0,1,0,1,B01,2.97340795871342,2.77258872223978,0.5,0.5,0.5,0.5,0.5,0.5,0.5,0.5,0.5,0.5,0.5,0.5,0.5,0.5,0.5,0.5,0.944931536026009,1,1,0,0B,1B,0.5,0.5,0.5,0.5,0,0,-0.5,-0.464196557700006,0.5,0.658665770370034,0.710931536026009,0.0899278971202583,1.0577423307212,0.5,1.03323751755015,0.499954311736415,0.5,0.928393115400013,0.726338245272104,0.356352603194214,1.1801694828803,0.5,20.0382121617415
180,1,2,A,0,1,a,63,1,1,0A,1A,1,0,1,0,A01,1.27759649468225,2.83321334405622,0.5,0.5,0.5,0.5,0.0358034422999937,0.5,0.5,0.5,0.5,0.5,0.5,0.5,0.5,0.5,0.5,0.5,1.36293153602601,1,1,0,0A,1A,0.5,0.5,0.5,0.5,1,1,0.5,0.464196557700006,0.5,0.658665770370034,0.710931536026009,0.0899278971202583,1.0577423307212,0.5,0.23658133093978,0.500312254428298,0.5,0.928393115400013,0.726338245272104,0.356352603194214,1.1801694828803,0.5,20.0382121617415
180,1,3,D,2,3,l,63,1,1,2D,3D,0,1,0,1,D23,1.48743346891495,2.89037175789616,0.964196557700006,0.5,0.5,0.5,0.0358034422999937,0.5,0.5,0.5,0.5,0.5,0.5,0.5,0.5,0.5,0.5,0.5,0.932931536026009,1,1,0,2D,3D,0.5,0.5,0.5,0.5,0,0,-0.5,-0.464196557700006,0.5,0.658665770370034,0.710931536026009,0.0899278971202583,1.0577423307212,0.5,1.07480501875806,0.499664422724772,0.5,0.928393115400013,0.726338245272104,0.356352603194214,1.1801694828803,0.5,20.0382121617415
180,1,4,B,2,1,l,9,1,1,2B,1B,0,1,0,1,B21,3.06438952309584,2.94443897916644,0.964196557700006,0.5,0.5,0.5,0.0358034422999937,0.5,0.5,0.5,0.5,0.5,0.5,0.5,0.5,0.5,0.0358034422999937,0.5,0.904931536026009,0,0,1,1B,2B,0.5,0.5,0.5,0.5,1,1,0.5,0.464196557700006,0.5,0.658665770370034,0.710931536026009,0.0899278971202583,1.0577423307212,0.5,1.17469890875982,0.499772749383866,0.5,0.928393115400013,0.726338245272104,0.356352603194214,1.1801694828803,0.5,20.0382121617415
180,1,5,A,0,2,a,27,1,1,0A,2A,1,0,1,0,A02,2.90604936942763,2.99573227355399,0.964196557700006,0.5,0.5,0.5,0.0358034422999937,0.964196557700006,0.5,0.5,0.5,0.5,0.5,0.5,0.5,0.5,0.0358034422999937,0.5,1.03093153602601,1,1,0,0A,2A,0.964196557700006,0.5,0.658515793272037,0.341484206727962,1,1,0.0358034422999938,0.0332396693389358,0.5,0.658665770370034,0.710931536026009,0.0899278971202583,1.0577423307212,0.5,0.817915130096728,0.533601007897227,0.5,0.928393115400013,0.726338245272104,0.356352603194214,1.1801694828803,0.5,20.0382121617415
180,1,6,C,2,3,a,63,1,1,2C,3C,1,0,1,0,C23,0.807965103867913,3.04452243772342,0.997436227038942,0.5,0.5,0.5,0.0358034422999937,0.964196557700006,0.5,0.5,0.5,0.5,0.5,0.5,0.5,0.5,0.0358034422999937,0.5,0.791931536026009,0,0,1,3C,2C,0.5,0.5,0.5,0.5,0,0,-0.5,-0.464196557700006,0.5,0.658665770370034,0.710931536026009,0.0899278971202583,1.0577423307212,0.5,0.98571301875916,0.499924867389175,0.5,0.928393115400013,0.726338245272104,0.356352603194214,1.1801694828803,0.5,20.0382121617415
180,1,7,D,1,3,l,27,1,1,1D,3D,0,1,0,1,D13,3.07939471615289,3.09104245335832,0.997436227038942,0.5,0.5,0.5,0.0358034422999937,0.964196557700006,0.5,0.5,0.5,0.5,0.5,0.0358034422999937,0.5,0.5,0.0358034422999937,0.5,1.09793153602601,0,0,1,3D,1D,0.5,0.5,0.5,0.5,1,1,0.5,0.464196557700006,0.5,0.658665770370034,0.710931536026009,0.0899278971202583,1.0577423307212,0.5,0.604415193121315,0.499878577749589,0.5,0.928393115400013,0.726338245272104,0.356352603194214,1.1801694828803,0.5,20.0382121617415
180,1,8,A,1,0,l,63,1,1,1A,0A,0,1,0,1,A10,1.04305810602429,3.13549421592915,0.997436227038942,0.5,0.5,0.5,0.0358034422999937,0.964196557700006,0.5,0.5,0.5,0.5,0.5,0.0358034422999937,0.5,0.5,0.0358034422999937,0.964196557700006,0.890931536026009,1,1,0,1A,0A,0.5,0.997436227038942,0.333904036092882,0.666095963907118,0,0,-0.5,-0.464196557700006,0.5,0.658665770370034,0.710931536026009,0.0899278971202583,1.0577423307212,0.5,1.14029567352073,0.465466402269749,0.5,0.928393115400013,0.726338245272104,0.356352603194214,1.1801694828803,0.5,20.0382121617415
180,1,9,C,2,0,a,27,1,1,2C,0C,1,0,1,0,C20,2.12892935474367,3.17805383034795,0.997436227038942,0.0358034422999937,0.5,0.5,0.0358034422999937,0.964196557700006,0.5,0.5,0.5,0.5,0.5,0.0358034422999937,0.5,0.5,0.0358034422999937,0.964196557700006,1.29093153602601,1,1,0,2C,0C,0.5,0.5,0.5,0.5,1,1,0.5,0.464196557700006,0.5,0.658665770370034,0.710931536026009,0.0899278971202583,1.0577423307212,0.5,0.305411903961157,0.500446320240345,0.5,0.928393115400013,0.726338245272104,0.356352603194214,1.1801694828803,0.5,20.0382121617415
180,1,10,D,2,3,l,63,1,1,2D,3D,0,1,0,1,D23,0.962344527383786,2.52572864430826,0.997436227038942,0.0358034422999937,0.5,0.5,0.0358034422999937,0.964196557700006,0.5,0.5,0.5,0.5,0.964196557700006,0.0358034422999937,0.5,0.5,0.0358034422999937,0.964196557700006,1.07093153602601,0,0,1,3D,2D,0.964196557700006,0.0358034422999937,0.964196557700006,0.0358034422999937,1,1,0.0358034422999938,0.0332396693389358,0.5,0.658665770370034,0.710931536026009,0.0899278971202583,1.0577423307212,0.5,0.793746611039157,0.596583677623459,0.5,0.928393115400013,0.726338245272104,0.356352603194214,1.1801694828803,0.5,20.0382121617415
180,1,11,B,1,0,a,63,1,1,1B,0B,1,0,1,0,B10,2.49436416568624,3.25809653802148,0.997436227038942,0.0358034422999937,0.5,0.5,0.0358034422999937,0.964196557700006,0.5,0.5,0.5,0.5,0.964196557700006,0.0358034422999937,0.5,0.5,0.0358034422999937,0.997436227038942,0.896931536026009,1,1,0,1B,0B,0.964196557700006,0.0358034422999937,0.964196557700006,0.0358034422999937,1,1,0.0358034422999938,0.0332396693389358,0.5,0.658665770370034,0.710931536026009,0.0899278971202583,1.0577423307212,0.5,1.4484212374767,0.596238650310493,0.5,0.928393115400013,0.726338245272104,0.356352603194214,1.1801694828803,0.5,20.0382121617415
180,1,12,A,0,1,a,63,1,1,0A,1A,1,0,1,0,A01,2.16367389795667,2.60268968544438,0.997436227038942,0.0358034422999937,0.5,0.5,0.0358034422999937,0.997436227038942,0.5,0.5,0.5,0.5,0.964196557700006,0.0358034422999937,0.5,0.5,0.0358034422999937,0.997436227038942,2.33693153602601,1,1,0,0A,1A,0.997436227038942,0.0358034422999937,0.965348366538326,0.0346516334616737,1,1,0.00256377296105792,0.00238018916649488,0.5,0.658665770370034,0.710931536026009,0.0899278971202583,1.0577423307212,0.5,0.00834634187147867,0.596569456474238,0.5,0.928393115400013,0.726338245272104,0.356352603194214,1.1801694828803,0.5,20.0382121617415
180,1,13,D,2,3,l,63,1,1,2D,3D,0,1,0,1,D23,3.27059122959166,2.23359222150709,0.999816416205437,0.0358034422999937,0.5,0.5,0.0358034422999937,0.997436227038942,0.5,0.5,0.5,0.5,0.964196557700006,0.0358034422999937,0.5,0.5,0.0358034422999937,0.997436227038942,1.47793153602601,1,1,0,2D,3D,0.0358034422999937,0.997436227038942,0.0346516334616737,0.965348366538326,0,0,-0.0358034422999937,-0.0332396693389358,0.5,0.658665770370034,0.710931536026009,0.0899278971202583,1.0577423307212,0.5,0.124205681288856,0.403637308355384,0.5,0.928393115400013,0.726338245272104,0.356352603194214,1.1801694828803,0.5,20.0382121617415
180,1,14,C,2,0,a,27,1,1,2C,0C,1,0,1,0,C20,2.00830600424391,2.67414864942653,0.999816416205437,0.0358034422999937,0.5,0.5,0.0358034422999937,0.997436227038942,0.5,0.5,0.5,0.5,0.964196557700006,0.0358034422999937,0.5,0.5,0.00256377296105796,0.997436227038942,1.09193153602601,1,1,0,2C,0C,0.964196557700006,0.5,0.658515793272037,0.341484206727962,1,1,0.0358034422999938,0.0332396693389358,0.5,0.658665770370034,0.710931536026009,0.0899278971202583,1.0577423307212,0.5,0.658948662052087,0.533586164266874,0.5,0.928393115400013,0.726338245272104,0.356352603194214,1.1801694828803,0.5,20.0382121617415
180,1,15,A,0,1,a,63,1,1,0A,1A,1,0,1,0,A01,3.16650293279786,2.30258509299405,0.999816416205437,0.0358034422999937,0.5,0.5,0.0358034422999937,0.997436227038942,0.5,0.5,0.5,0.5,0.997436227038942,0.0358034422999937,0.5,0.5,0.00256377296105796,0.997436227038942,0.937931536026009,0,0,1,1A,0A,0.0358034422999937,0.999816416205437,0.0345719928079247,0.965428007192075,0,0,-0.0358034422999937,-0.0332396693389358,0.5,0.658665770370034,0.710931536026009,0.0899278971202583,1.0577423307212,0.5,0.85924667048447,0.403121431757838,0.5,0.928393115400013,0.726338245272104,0.356352603194214,1.1801694828803,0.5,20.0382121617415
180,1,16,B,1,3,a,27,1,1,1B,3B,1,0,1,0,B13,3.0524631117159,3.43398720448515,0.999816416205437,0.00256377296105796,0.5,0.5,0.0358034422999937,0.997436227038942,0.5,0.5,0.5,0.5,0.997436227038942,0.0358034422999937,0.5,0.5,0.00256377296105796,0.997436227038942,0.971931536026009,0,0,1,3B,1B,0.5,0.997436227038942,0.333904036092882,0.666095963907118,0,0,-0.5,-0.464196557700006,0.5,0.658665770370034,0.710931536026009,0.0899278971202583,1.0577423307212,0.5,0.877541177142833,0.465383059878484,0.5,0.928393115400013,0.726338245272104,0.356352603194214,1.1801694828803,0.5,20.0382121617415
180,1,17,C,3,2,l,63,1,1,3C,2C,0,1,0,1,C32,2.91383667063468,3.46573590279973,0.999816416205437,0.00256377296105796,0.5,0.5,0.0358034422999937,0.997436227038942,0.5,0.0358034422999937,0.5,0.5,0.997436227038942,0.0358034422999937,0.5,0.5,0.00256377296105796,0.997436227038942,0.889931536026009,0,0,1,2C,3C,0.997436227038942,0.0358034422999937,0.965348366538326,0.0346516334616737,1,1,0.00256377296105792,0.00238018916649488,0.5,0.658665770370034,0.710931536026009,0.0899278971202583,1.0577423307212,0.5,1.47771866302903,0.5963508994988,0.5,0.928393115400013,0.726338245272104,0.356352603194214,1.1801694828803,0.5,20.0382121617415
180,1,18,D,2,3,l,63,1,1,2D,3D,0,1,0,1,D23,3.16041973021481,2.11021320034659,0.999816416205437,0.00256377296105796,0.5,0.5,0.0358034422999937,0.997436227038942,0.5,0.0358034422999937,0.5,0.5,0.999816416205437,0.0358034422999937,0.5,0.5,0.00256377296105796,0.997436227038942,1.17193153602601,1,1,0,2D,3D,0.00256377296105796,0.997436227038942,0.00256377296105796,0.997436227038942,0,0,-0.00256377296105796,-0.00238018916649492,0.5,0.658665770370034,0.710931536026009,0.0899278971202583,1.0577423307212,0.5,0.366800498524998,0.396761705585985,0.5,0.928393115400013,0.726338245272104,0.356352603194214,1.1801694828803,0.5,20.0382121617415
180,1,19,B,1,0,a,63,1,1,1B,0B,1,0,1,0,B10,3.33433843760232,2.83321334405622,0.999816416205437,0.00256377296105796,0.5,0.5,0.0358034422999937,0.997436227038942,0.5,0.0358034422999937,0.5,0.5,0.999816416205437,0.0358034422999937,0.5,0.5,0.000183583794563045,0.997436227038942,0.842931536026009,1,1,0,1B,0B,0.997436227038942,0.0358034422999937,0.965348366538326,0.0346516334616737,1,1,0.00256377296105792,0.00238018916649488,0.5,0.658665770370034,0.710931536026009,0.0899278971202583,1.0577423307212,0.5,1.60516353846499,0.596627066154315,0.5,0.928393115400013,0.726338245272104,0.356352603194214,1.1801694828803,0.5,20.0382121617415
180,1,20,A,2,0,l,27,1,1,2A,0A,0,1,0,1,A20,1.27170802194567,3.55534806148941,0.999816416205437,0.00256377296105796,0.5,0.5,0.0358034422999937,0.999816416205437,0.5,0.0358034422999937,0.5,0.5,0.999816416205437,0.0358034422999937,0.5,0.5,0.000183583794563045,0.997436227038942,1.35293153602601,1,1,0,2A,0A,0.5,0.999816416205437,0.333374134725775,0.666625865274225,0,0,-0.5,-0.464196557700006,0.5,0.658665770370034,0.710931536026009,0.0899278971202583,1.0577423307212,0.5,0.227481697692956,0.465224994623033,0.5,0.928393115400013,0.726338245272104,0.356352603194214,1.1801694828803,0.5,20.0382121617415
180,1,21,D,0,3,l,9,1,1,0D,3D,0,1,0,1,D03,1.2194939538434,3.58351893845611,0.999816416205437,0.00256377296105796,0.0358034422999937,0.5,0.0358034422999937,0.999816416205437,0.5,0.0358034422999937,0.5,0.5,0.999816416205437,0.0358034422999937,0.5,0.5,0.000183583794563045,0.997436227038942,1.34393153602601,1,1,0,0D,3D,0.5,0.997436227038942,0.333904036092882,0.666095963907118,0,0,-0.5,-0.464196557700006,0.5,0.658665770370034,0.710931536026009,0.0899278971202583,1.0577423307212,0.5,0.235141733522835,0.465742829188516,0.5,0.928393115400013,0.726338245272104,0.356352603194214,1.1801694828803,0.5,20.0382121617415
180,1,22,C,2,3,a,63,1,1,2C,3C,1,0,1,0,C23,1.9104025408306,2.91777073208428,0.999816416205437,0.00256377296105796,0.0358034422999937,0.5,0.0358034422999937,0.999816416205437,0.5,0.0358034422999937,0.5,0.5,0.999816416205437,0.0358034422999937,0.0358034422999937,0.5,0.000183583794563045,0.997436227038942,0.932931536026009,0,0,1,3C,2C,0.0358034422999937,0.999816416205437,0.0345719928079247,0.965428007192075,0,0,-0.0358034422999937,-0.0332396693389358,0.5,0.658665770370034,0.710931536026009,0.0899278971202583,1.0577423307212,0.5,0.873538623367514,0.402969973790663,0.5,0.928393115400013,0.726338245272104,0.356352603194214,1.1801694828803,0.5,20.0382121617415
180,1,23,B,3,1,l,27,1,1,3B,1B,0,1,0,1,B31,3.39306343073802,3.63758615972639,0.999816416205437,0.00256377296105796,0.0358034422999937,0.5,0.0358034422999937,0.999816416205437,0.5,0.0358034422999937,0.5,0.5,0.999816416205437,0.00256377296105796,0.0358034422999937,0.5,0.000183583794563045,0.997436227038942,0.863931536026009,0,0,1,1B,3B,0.999816416205437,0.0358034422999937,0.965428007192075,0.0345719928079247,1,1,0.000183583794563069,0.000170437930971364,0.5,0.658665770370034,0.710931536026009,0.0899278971202583,1.0577423307212,0.5,1.57029091929732,0.596525591798882,0.5,0.928393115400013,0.726338245272104,0.356352603194214,1.1801694828803,0.5,20.0382121617415
180,1,24,C,3,2,l,63,1,1,3C,2C,0,1,0,1,C32,0.201542735819651,2.9704144655697,0.999816416205437,0.00256377296105796,0.0358034422999937,0.5,0.0358034422999937,0.999986854136408,0.5,0.0358034422999937,0.5,0.5,0.999816416205437,0.00256377296105796,0.0358034422999937,0.5,0.000183583794563045,0.997436227038942,1.80993153602601,0,0,1,2C,3C,0.999816416205437,0.00256377296105796,0.997442314813514,0.00255768518648578,1,1,0.000183583794563069,0.000170437930971364,0.5,0.658665770370034,0.710931536026009,0.0899278971202583,1.0577423307212,0.5,0.0558847162939794,0.603482068204026,0.5,0.928393115400013,0.726338245272104,0.356352603194214,1.1801694828803,0.5,20.0382121617415
180,1,25,D,2,3,l,63,1,1,2D,3D,0,1,0,1,D23,0.251415089920699,2.07944154167984,0.999816416205437,0.00256377296105796,0.0358034422999937,0.5,0.0358034422999937,0.999986854136408,0.5,0.0358034422999937,0.5,0.5,0.999986854136408,0.00256377296105796,0.0358034422999937,0.5,0.000183583794563045,0.997436227038942,0.864931536026009,0,0,1,3D,2D,0.997436227038942,0.000183583794563045,0.999815978198739,0.000184021801260805,1,1,0.00256377296105792,0.00238018916649488,0.5,0.658665770370034,0.710931536026009,0.0899278971202583,1.0577423307212,0.5,1.58972389692004,0.603885538673039,0.5,0.928393115400013,0.726338245272104,0.356352603194214,1.1801694828803,0.5,20.0382121617415
180,1,26,B,1,0,a,63,1,1,1B,0B,1,0,1,0,B10,1.92956371830938,2.6149597780362,0.999816416205437,0.00256377296105796,0.0358034422999937,0.5,0.0358034422999937,0.999986854136408,0.5,0.0358034422999937,0.5,0.5,0.999986854136408,0.00256377296105796,0.0358034422999937,0.5,0.000183583794563045,0.999816416205437,1.37493153602601,0,0,1,0B,1B,0.0358034422999937,0.999986854136408,0.0345663040319784,0.965433695968022,0,0,-0.0358034422999937,-0.0332396693389358,0.5,0.658665770370034,0.710931536026009,0.0899278971202583,1.0577423307212,0.5,0.179774747045386,0.403353194276176,0.5,0.928393115400013,0.726338245272104,0.356352603194214,1.1801694828803,0.5,20.0382121617415
180,1,27,A,0,3,a,9,1,1,0A,3A,1,0,1,0,A03,1.75799058257476,3.73766961828337,0.999816416205437,0.00256377296105796,0.0358034422999937,0.5,0.00256377296105796,0.999986854136408,0.5,0.0358034422999937,0.5,0.5,0.999986854136408,0.00256377296105796,0.0358034422999937,0.5,0.000183583794563045,0.999816416205437,0.766931536026009,0,0,1,3A,0A,0.5,0.999816416205437,0.333374134725775,0.666625865274225,0,0,-0.5,-0.464196557700006,0.5,0.658665770370034,0.710931536026009,0.0899278971202583,1.0577423307212,0.5,0.367827238030057,0.464676462440598,0.5,0.928393115400013,0.726338245272104,0.356352603194214,1.1801694828803,0.5,20.0382121617415
180,1,28,D,2,3,l,63,1,1,2D,3D,0,1,0,1,D23,0.698750366817802,1.96944064646551,0.999816416205437,0.00256377296105796,0.0358034422999937,0.0358034422999937,0.00256377296105796,0.999986854136408,0.5,0.0358034422999937,0.5,0.5,0.999986854136408,0.00256377296105796,0.0358034422999937,0.5,0.000183583794563045,0.999816416205437,1.14393153602601,0,0,1,3D,2D,0.999816416205437,0.000183583794563045,0.999816416205437,0.000183583794563045,1,1,0.000183583794563069,0.000170437930971364,0.5,0.658665770370034,0.710931536026009,0.0899278971202583,1.0577423307212,0.5,0.616819291084962,0.603124973896167,0.5,0.928393115400013,0.726338245272104,0.356352603194214,1.1801694828803,0.5,20.0382121617415
180,1,29,C,2,0,a,27,1,1,2C,0C,1,0,1,0,C20,2.12287135234379,2.68557734525015,0.999816416205437,0.00256377296105796,0.0358034422999937,0.0358034422999937,0.00256377296105796,0.999986854136408,0.5,0.0358034422999937,0.5,0.5,0.999986854136408,0.00256377296105796,0.0358034422999937,0.5,0.000183583794563045,0.999986854136408,1.27693153602601,0,0,1,0C,2C,0.5,0.999986854136408,0.333336254661956,0.666663745338044,0,0,-0.5,-0.464196557700006,0.5,0.658665770370034,0.710931536026009,0.0899278971202583,1.0577423307212,0.5,0.297767032037328,0.464973362477564,0.5,0.928393115400013,0.726338245272104,0.356352603194214,1.1801694828803,0.5,20.0382121617415
180,1,30,A,1,0,l,63,1,1,1A,0A,0,1,0,1,A10,2.56968179600279,3.11351530921037,0.999816416205437,0.00256377296105796,0.0358034422999937,0.0358034422999937,0.00256377296105796,0.999986854136408,0.5,0.0358034422999937,0.0358034422999937,0.5,0.999986854136408,0.00256377296105796,0.0358034422999937,0.5,0.000183583794563045,0.999986854136408,1.09093153602601,0,0,1,0A,1A,0.999816416205437,0.00256377296105796,0.997442314813514,0.00255768518648578,1,1,0.000183583794563069,0.000170437930971364,0.5,0.658665770370034,0.710931536026009,0.0899278971202583,1.0577423307212,0.5,0.74659040022086,0.603064149417319,0.5,0.928393115400013,0.726338245272104,0.356352603194214,1.1801694828803,0.5,20.0382121617415
180,1,31,B,1,0,a,63,1,1,1B,0B,1,0,1,0,B10,1.9864969242264,2.4423470353692,0.999986854136408,0.00256377296105796,0.0358034422999937,0.0358034422999937,0.00256377296105796,0.999986854136408,0.5,0.0358034422999937,0.0358034422999937,0.5,0.999986854136408,0.00256377296105796,0.0358034422999937,0.5,0.000183583794563045,0.999986854136408,0.842931536026009,1,1,0,1B,0B,0.999986854136408,0.00256377296105796,0.997442749631028,0.00255725036897186,1,1,1.31458635916903e-05,1.2204529254513e-05,0.5,0.658665770370034,0.710931536026009,0.0899278971202583,1.0577423307212,0.5,1.62551062339013,0.603113632905109,0.5,0.928393115400013,0.726338245272104,0.356352603194214,1.1801694828803,0.5,20.0382121617415
180,1,32,D,3,1,a,27,1,1,3D,1D,1,0,1,0,D31,1.22565937473235,3.85014760171006,0.999986854136408,0.00256377296105796,0.0358034422999937,0.0358034422999937,0.00256377296105796,0.999999058665663,0.5,0.0358034422999937,0.0358034422999937,0.5,0.999986854136408,0.00256377296105796,0.0358034422999937,0.5,0.000183583794563045,0.999986854136408,1.00593153602601,1,1,0,3D,1D,0.999986854136408,0.5,0.666663745338044,0.333336254661956,1,1,1.31458635916903e-05,1.2204529254513e-05,0.5,0.658665770370034,0.710931536026009,0.0899278971202583,1.0577423307212,0.5,0.895469068500814,0.534865323863386,0.5,0.928393115400013,0.726338245272104,0.356352603194214,1.1801694828803,0.5,20.0382121617415
180,1,33,C,3,2,l,63,1,1,3C,2C,0,1,0,1,C32,1.91704354261322,2.77258872223978,0.999986854136408,0.00256377296105796,0.0358034422999937,0.0358034422999937,0.00256377296105796,0.999999058665663,0.5,0.0358034422999937,0.0358034422999937,0.5,0.999986854136408,0.00256377296105796,0.0358034422999937,0.5,0.000183583794563045,0.999999058665663,0.889931536026009,1,1,0,3C,2C,0.00256377296105796,0.999986854136408,0.00255725036897186,0.997442749631028,0,0,-0.00256377296105796,-0.00238018916649492,0.5,0.658665770370034,0.710931536026009,0.0899278971202583,1.0577423307212,0.5,0.986103862674456,0.397415990289765,0.5,0.928393115400013,0.726338245272104,0.356352603194214,1.1801694828803,0.5,20.0382121617415
180,1,34,B,1,0,a,63,1,1,1B,0B,1,0,1,0,B10,1.94219398222913,2.28238238567653,0.999986854136408,0.00256377296105796,0.0358034422999937,0.0358034422999937,0.00256377296105796,0.999999058665663,0.5,0.0358034422999937,0.0358034422999937,0.5,0.999986854136408,0.000183583794563045,0.0358034422999937,0.5,0.000183583794563045,0.999999058665663,0.808931536026009,1,1,0,1B,0B,0.999999058665663,0.00256377296105796,0.997442780761284,0.00255721923871652,1,1,9.41334337145605e-07,8.73928317895614e-07,0.5,0.658665770370034,0.710931536026009,0.0899278971202583,1.0577423307212,0.5,1.47727771871084,0.602998809701857,0.5,0.928393115400013,0.726338245272104,0.356352603194214,1.1801694828803,0.5,20.0382121617415
180,1,35,A,0,1,a,63,1,1,0A,1A,1,0,1,0,A01,2.7913648044148,2.52572864430826,0.999986854136408,0.00256377296105796,0.0358034422999937,0.0358034422999937,0.00256377296105796,0.999999932593981,0.5,0.0358034422999937,0.0358034422999937,0.5,0.999986854136408,0.000183583794563045,0.0358034422999937,0.5,0.000183583794563045,0.999999058665663,0.823931536026009,1,1,0,0A,1A,0.999986854136408,0.00256377296105796,0.997442749631028,0.00255725036897186,1,1,1.31458635916903e-05,1.2204529254513e-05,0.5,0.658665770370034,0.710931536026009,0.0899278971202583,1.0577423307212,0.5,1.59010951147234,0.603446092654193,0.5,0.928393115400013,0.726338245272104,0.356352603194214,1.1801694828803,0.5,20.0382121617415
180,1,36,C,1,2,l,9,1,1,1C,2C,0,1,0,1,C12,3.05180106015602,3.93182563272433,0.999999058665663,0.00256377296105796,0.0358034422999937,0.0358034422999937,0.00256377296105796,0.999999932593981,0.5,0.0358034422999937,0.0358034422999937,0.5,0.999986854136408,0.000183583794563045,0.0358034422999937,0.5,0.000183583794563045,0.999999058665663,1.05793153602601,0,0,1,2C,1C,0.999986854136408,0.5,0.666663745338044,0.333336254661956,1,1,1.31458635916903e-05,1.2204529254513e-05,0.5,0.658665770370034,0.710931536026009,0.0899278971202583,1.0577423307212,0.5,0.745327951812145,0.534995481510428,0.5,0.928393115400013,0.726338245272104,0.356352603194214,1.1801694828803,0.5,20.0382121617415
180,1,37,A,1,0,l,63,1,1,1A,0A,0,1,0,1,A10,2.88486706117216,2.85263142991332,0.999999058665663,0.00256377296105796,0.0358034422999937,0.0358034422999937,0.00256377296105796,0.999999932593981,0.5,0.0358034422999937,0.0358034422999937,0.5,0.999999058665663,0.000183583794563045,0.0358034422999937,0.5,0.000183583794563045,0.999999058665663,1.29893153602601,0,0,1,0A,1A,0.999999058665663,0.00256377296105796,0.997442780761284,0.00255721923871652,1,1,9.41334337145605e-07,8.73928317895614e-07,0.5,0.658665770370034,0.710931536026009,0.0899278971202583,1.0577423307212,0.5,0.352869041034427,0.603433584690403,0.5,0.928393115400013,0.726338245272104,0.356352603194214,1.1801694828803,0.5,20.0382121617415
180,1,38,D,3,1,a,27,1,1,3D,1D,1,0,1,0,D31,0.792579495233487,3.27714473299218,0.999999932593981,0.00256377296105796,0.0358034422999937,0.0358034422999937,0.00256377296105796,0.999999932593981,0.5,0.0358034422999937,0.0358034422999937,0.5,0.999999058665663,0.000183583794563045,0.0358034422999937,0.5,0.000183583794563045,0.999999058665663,0.851931536026009,1,1,0,3D,1D,0.999999058665663,0.5,0.666666457481127,0.333333542518873,1,1,9.41334337145605e-07,8.73928317895614e-07,0.5,0.658665770370034,0.710931536026009,0.0899278971202583,1.0577423307212,0.5,1.4160486530816,0.534630779071851,0.5,0.928393115400013,0.726338245272104,0.356352603194214,1.1801694828803,0.5,20.0382121617415
180,1,39,B,0,1,l,63,1,1,0B,1B,0,1,0,1,B01,1.42080878823049,3.29583686600433,0.999999932593981,0.00256377296105796,0.0358034422999937,0.0358034422999937,0.00256377296105796,0.999999932593981,0.5,0.0358034422999937,0.0358034422999937,0.5,0.999999058665663,0.000183583794563045,0.0358034422999937,0.5,0.000183583794563045,0.999999932593981,0.835931536026009,0,0,1,1B,0B,0.999999932593981,0.00256377296105796,0.997442782990395,0.002557217009605,1,1,6.74060192107362e-08,6.25792841717685e-08,0.5,0.658665770370034,0.710931536026009,0.0899278971202583,1.0577423307212,0.5,1.62196748976352,0.603047102846282,0.5,0.928393115400013,0.726338245272104,0.356352603194214,1.1801694828803,0.5,20.0382121617415
180,1,40,C,2,3,a,63,1,1,2C,3C,1,0,1,0,C23,2.83520763003383,2.90872089656436,0.999999932593981,0.00256377296105796,0.0358034422999937,0.0358034422999937,0.00256377296105796,0.999999995173265,0.5,0.0358034422999937,0.0358034422999937,0.5,0.999999058665663,0.000183583794563045,0.0358034422999937,0.5,0.000183583794563045,0.999999932593981,0.860931536026009,0,0,1,3C,2C,0.000183583794563045,0.999999058665663,0.000183550270490068,0.99981644972951,0,0,-0.000183583794563045,-0.000170437930971342,0.5,0.658665770370034,0.710931536026009,0.0899278971202583,1.0577423307212,0.5,1.05186939127486,0.396913495128288,0.5,0.928393115400013,0.726338245272104,0.356352603194214,1.1801694828803,0.5,20.0382121617415
180,1,41,A,2,0,l,27,1,1,2A,0A,0,1,0,1,A20,0.801861102895462,3.3322045101752,0.999999932593981,0.00256377296105796,0.0358034422999937,0.0358034422999937,0.00256377296105796,0.999999995173265,0.5,0.0358034422999937,0.0358034422999937,0.5,0.999999058665663,1.31458635917038e-05,0.0358034422999937,0.5,0.000183583794563045,0.999999932593981,1.15293153602601,0,0,1,0A,2A,0.999999932593981,0.0358034422999937,0.965434132415664,0.0345658675843362,1,1,6.74060192107362e-08,6.25792841717685e-08,0.5,0.658665770370034,0.710931536026009,0.0899278971202583,1.0577423307212,0.5,0.591272537116272,0.596834725279027,0.5,0.928393115400013,0.726338245272104,0.356352603194214,1.1801694828803,0.5,20.0382121617415
180,1,42,D,3,2,a,63,1,1,3D,2D,1,0,1,0,D32,0.37780709528612,4.04305126783455,0.999999995173265,0.00256377296105796,0.0358034422999937,0.0358034422999937,0.00256377296105796,0.999999995173265,0.5,0.0358034422999937,0.0358034422999937,0.5,0.999999058665663,1.31458635917038e-05,0.0358034422999937,0.5,0.000183583794563045,0.999999932593981,0.825931536026009,0,0,1,2D,3D,0.000183583794563045,0.999999932593981,0.000183550110109721,0.99981644988989,0,0,-0.000183583794563045,-0.000170437930971342,0.5,0.658665770370034,0.710931536026009,0.0899278971202583,1.0577423307212,0.5,1.05010648160153,0.396402803946823,0.5,0.928393115400013,0.726338245272104,0.356352603194214,1.1801694828803,0.5,20.0382121617415
180,1,43,B,3,1,l,27,1,1,3B,1B,0,1,0,1,B31,2.64621413051868,3.36729582998647,0.999999995173265,0.00256377296105796,0.0358034422999937,0.0358034422999937,0.00256377296105796,0.999999995173265,0.5,0.0358034422999937,0.0358034422999937,0.5,0.999999058665663,1.31458635917038e-05,0.0358034422999937,0.5,1.31458635917038e-05,0.999999932593981,0.814931536026009,1,1,0,3B,1B,0.0358034422999937,0.999999995173265,0.0345658654959987,0.965434134504001,0,0,-0.0358034422999937,-0.0332396693389358,0.5,0.658665770370034,0.710931536026009,0.0899278971202583,1.0577423307212,0.5,1.02323518558874,0.403188251928187,0.5,0.928393115400013,0.726338245272104,0.356352603194214,1.1801694828803,0.5,20.0382121617415
180,1,44,C,2,3,a,63,1,1,2C,3C,1,0,1,0,C23,0.566856400639298,2.69124308278583,0.999999995173265,0.00256377296105796,0.0358034422999937,0.0358034422999937,0.00256377296105796,0.999999995173265,0.5,0.00256377296105796,0.0358034422999937,0.5,0.999999058665663,1.31458635917038e-05,0.0358034422999937,0.5,1.31458635917038e-05,0.999999932593981,0.916931536026009,0,0,1,3C,2C,1.31458635917038e-05,0.999999058665663,1.31457031545851e-05,0.999986854296845,0,0,-1.31458635917038e-05,-1.22045292545255e-05,0.5,0.658665770370034,0.710931536026009,0.0899278971202583,1.0577423307212,0.5,0.907216922296205,0.396593885311545,0.5,0.928393115400013,0.726338245272104,0.356352603194214,1.1801694828803,0.5,20.0382121617415
