ID,filename,session,trial,visStimLeft,visStimRight,correctKey,leftCorrect,rightCorrect,secondStim,mod2Type,mod2Stim,frequency,rewardAccurate,stimPairLeft,stimPairRight,pCorrectLeft,pCorrectRight,key,reactionTime,choiceLeft,choiceRight,choiceAccurate,reward,chosenPair,otherPair,triplet,surprise,0A belief,1A belief,2A belief,3A belief,0B belief,1B belief,2B belief,3B belief,0C belief,1C belief,2C belief,3C belief,0D belief,1D belief,2D belief,3D belief,beliefPairNorm,beliefOtherPairNorm,beliefPair,beliefOtherPair,lik,corrLik,rewardPE,update2,fitCBCsimpleRW_CBCdriftDiffusionLR_startBelief,fitCBCsimpleRW_CBCdriftDiffusionLR_alpha1,fitCBCsimpleRW_CBCdriftDiffusionLR_nonDecisionTime,fitCBCsimpleRW_CBCdriftDiffusionLR_weight,fitCBCsimpleRW_CBCdriftDiffusionLR_startingBoundary,fitCBCsimpleRW_CBCdriftDiffusionLR_startingPoint,fit_CBCsimpleRW_CBCdriftDiffusionLR_NLL
CBC_1110,CBC_1110_MSI_AV_v3_Vset4_Aset1_2024-08-25_14h33.39.375.csv,1,1,0,1,b,1,0,2,aud,A,63,1,0A,1A,NaN,NaN,[],NaN,NaN,NaN,NaN,NaN,,,A01,2.77258872223978,0.5,0.5,0.5,0.5,0.5,0.5,0.5,0.5,0.5,0.5,0.5,0.5,0.5,0.5,0.5,0.5,0,0,0,0,NaN,0,0,0,0.5,0.00940023728906825,1.09793779565682,7.50134513237627,3.03520056643526,0.5,88.2818861405795
CBC_1110,CBC_1110_MSI_AV_v3_Vset4_Aset1_2024-08-25_14h33.39.375.csv,1,2,2,3,b,1,0,3,aud,C,63,1,2C,3C,1,0,z,2.95397609999873,0,1,0,0,3C,2C,C23,2.83321334405622,0.5,0.5,0.5,0.5,0.5,0.5,0.5,0.5,0.5,0.5,0.5,0.5,0.5,0.5,0.5,0.5,0.5,0.5,0.5,0.5,0.125813915887442,0.499074199720632,-0.5,-0.00470011864453412,0.5,0.00940023728906825,1.09793779565682,7.50134513237627,3.03520056643526,0.5,88.2818861405795
CBC_1110,CBC_1110_MSI_AV_v3_Vset4_Aset1_2024-08-25_14h33.39.375.csv,1,3,2,0,z,0,1,2,aud,A,27,1,2A,0A,0,1,b,2.80658979999953,1,0,0,0,2A,0A,A20,2.89037175789616,0.5,0.5,0.5,0.5,0.5,0.5,0.5,0.5,0.5,0.5,0.5,0.495299881355466,0.5,0.5,0.5,0.5,0.5,0.5,0.5,0.5,0.13653132333999,0.500939021556822,-0.5,-0.00470011864453412,0.5,0.00940023728906825,1.09793779565682,7.50134513237627,3.03520056643526,0.5,88.2818861405795
CBC_1110,CBC_1110_MSI_AV_v3_Vset4_Aset1_2024-08-25_14h33.39.375.csv,1,4,0,1,z,0,1,1,aud,B,63,1,0B,1B,0,1,z,3.20481169999857,0,1,1,1,1B,0B,B01,2.94443897916644,0.5,0.5,0.495299881355466,0.5,0.5,0.5,0.5,0.5,0.5,0.5,0.5,0.495299881355466,0.5,0.5,0.5,0.5,0.5,0.5,0.5,0.5,0.110182480927821,0.499575460592636,0.5,0.00470011864453412,0.5,0.00940023728906825,1.09793779565682,7.50134513237627,3.03520056643526,0.5,88.2818861405795
CBC_1110,CBC_1110_MSI_AV_v3_Vset4_Aset1_2024-08-25_14h33.39.375.csv,1,5,3,2,b,1,0,0,aud,D,63,1,3D,2D,1,0,b,3.53867889999947,1,0,1,1,3D,2D,D32,2.99573227355399,0.5,0.5,0.495299881355466,0.5,0.5,0.504700118644534,0.5,0.5,0.5,0.5,0.5,0.495299881355466,0.5,0.5,0.5,0.5,0.5,0.5,0.5,0.5,0.0922752423395059,0.500178249067657,0.5,0.00470011864453412,0.5,0.00940023728906825,1.09793779565682,7.50134513237627,3.03520056643526,0.5,88.2818861405795
CBC_1110,CBC_1110_MSI_AV_v3_Vset4_Aset1_2024-08-25_14h33.39.375.csv,1,6,2,1,z,0,1,1,aud,B,9,1,2B,1B,0,1,z,2.66887829999905,0,1,1,1,1B,2B,B21,3.04452243772342,0.5,0.5,0.495299881355466,0.5,0.5,0.504700118644534,0.5,0.5,0.5,0.5,0.5,0.495299881355466,0.5,0.5,0.5,0.504700118644534,0.502339065437195,0.497660934562805,0.504700118644534,0.5,0.154280984811654,0.526416915554129,0.495299881355466,0.00465593641398873,0.5,0.00940023728906825,1.09793779565682,7.50134513237627,3.03520056643526,0.5,88.2818861405795
CBC_1110,CBC_1110_MSI_AV_v3_Vset4_Aset1_2024-08-25_14h33.39.375.csv,1,7,3,1,b,1,0,0,aud,D,27,1,3D,1D,1,0,z,4.63620529999935,0,1,0,0,1D,3D,D31,3.09104245335832,0.5,0.5,0.495299881355466,0.5,0.5,0.509356055058523,0.5,0.5,0.5,0.5,0.5,0.495299881355466,0.5,0.5,0.5,0.504700118644534,0.497660934562805,0.502339065437195,0.5,0.504700118644534,0.048472240296919,0.473318788528368,-0.5,-0.00470011864453412,0.5,0.00940023728906825,1.09793779565682,7.50134513237627,3.03520056643526,0.5,88.2818861405795
CBC_1110,CBC_1110_MSI_AV_v3_Vset4_Aset1_2024-08-25_14h33.39.375.csv,1,8,0,1,b,1,0,2,aud,A,63,1,0A,1A,1,0,b,2.78023069999927,1,0,1,1,0A,1A,A01,2.4423470353692,0.5,0.5,0.495299881355466,0.5,0.5,0.509356055058523,0.5,0.5,0.5,0.5,0.5,0.495299881355466,0.5,0.495299881355466,0.5,0.504700118644534,0.5,0.5,0.5,0.5,0.138585671754565,0.501466173953244,0.5,0.00470011864453412,0.5,0.00940023728906825,1.09793779565682,7.50134513237627,3.03520056643526,0.5,88.2818861405795
CBC_1110,CBC_1110_MSI_AV_v3_Vset4_Aset1_2024-08-25_14h33.39.375.csv,1,9,1,0,z,0,1,2,aud,A,63,1,1A,0A,0,1,z,2.47896799999853,0,1,1,1,0A,1A,A10,3.17805383034795,0.504700118644534,0.5,0.495299881355466,0.5,0.5,0.509356055058523,0.5,0.5,0.5,0.5,0.5,0.495299881355466,0.5,0.495299881355466,0.5,0.504700118644534,0.502339065437195,0.497660934562805,0.504700118644534,0.5,0.169715472071346,0.525399910643192,0.495299881355466,0.00465593641398873,0.5,0.00940023728906825,1.09793779565682,7.50134513237627,3.03520056643526,0.5,88.2818861405795
CBC_1110,CBC_1110_MSI_AV_v3_Vset4_Aset1_2024-08-25_14h33.39.375.csv,1,10,0,2,z,0,1,3,aud,C,27,1,0C,2C,0,1,b,3.08037589999913,1,0,0,0,0C,2C,C02,3.2188758248682,0.509356055058523,0.5,0.495299881355466,0.5,0.5,0.509356055058523,0.5,0.5,0.5,0.5,0.5,0.495299881355466,0.5,0.495299881355466,0.5,0.504700118644534,0.5,0.5,0.5,0.5,0.11792595070326,0.500333584358478,-0.5,-0.00470011864453412,0.5,0.00940023728906825,1.09793779565682,7.50134513237627,3.03520056643526,0.5,88.2818861405795
CBC_1110,CBC_1110_MSI_AV_v3_Vset4_Aset1_2024-08-25_14h33.39.375.csv,1,11,1,0,b,1,0,1,aud,B,63,1,1B,0B,1,0,z,2.92947249999906,0,1,0,0,0B,1B,B10,3.25809653802148,0.509356055058523,0.5,0.495299881355466,0.5,0.5,0.509356055058523,0.5,0.5,0.495299881355466,0.5,0.5,0.495299881355466,0.5,0.495299881355466,0.5,0.504700118644534,0.495365334654885,0.504634665345115,0.5,0.509356055058523,0.11438786874497,0.447378593399047,-0.5,-0.00470011864453412,0.5,0.00940023728906825,1.09793779565682,7.50134513237627,3.03520056643526,0.5,88.2818861405795
CBC_1110,CBC_1110_MSI_AV_v3_Vset4_Aset1_2024-08-25_14h33.39.375.csv,1,12,1,0,z,0,1,2,aud,A,63,1,1A,0A,0,1,b,3.26646179999898,1,0,0,0,1A,0A,A10,2.60268968544438,0.509356055058523,0.5,0.495299881355466,0.5,0.495299881355466,0.509356055058523,0.5,0.5,0.495299881355466,0.5,0.5,0.495299881355466,0.5,0.495299881355466,0.5,0.504700118644534,0.495365334654885,0.504634665345115,0.5,0.509356055058523,0.0955127414270342,0.447423533031709,-0.5,-0.00470011864453412,0.5,0.00940023728906825,1.09793779565682,7.50134513237627,3.03520056643526,0.5,88.2818861405795
CBC_1110,CBC_1110_MSI_AV_v3_Vset4_Aset1_2024-08-25_14h33.39.375.csv,1,13,2,3,b,1,0,3,aud,C,63,1,2C,3C,1,0,z,2.55814739999914,0,1,0,0,3C,2C,C23,2.63905732961526,0.509356055058523,0.495299881355466,0.495299881355466,0.5,0.495299881355466,0.509356055058523,0.5,0.5,0.495299881355466,0.5,0.5,0.495299881355466,0.5,0.495299881355466,0.5,0.504700118644534,0.497638842959504,0.502361157040496,0.495299881355466,0.5,0.146835611665009,0.473150994256578,-0.495299881355466,-0.00465593641398873,0.5,0.00940023728906825,1.09793779565682,7.50134513237627,3.03520056643526,0.5,88.2818861405795
CBC_1110,CBC_1110_MSI_AV_v3_Vset4_Aset1_2024-08-25_14h33.39.375.csv,1,14,2,0,z,0,1,2,aud,A,27,1,2A,0A,0,1,b,3.60257069999898,1,0,0,0,2A,0A,A20,2.67414864942653,0.509356055058523,0.495299881355466,0.495299881355466,0.5,0.495299881355466,0.509356055058523,0.5,0.5,0.495299881355466,0.5,0.5,0.490643944941477,0.5,0.495299881355466,0.5,0.504700118644534,0.493004483826956,0.506995516173044,0.495299881355466,0.509356055058523,0.0748419127799336,0.420295110384019,-0.495299881355466,-0.00465593641398873,0.5,0.00940023728906825,1.09793779565682,7.50134513237627,3.03520056643526,0.5,88.2818861405795
CBC_1110,CBC_1110_MSI_AV_v3_Vset4_Aset1_2024-08-25_14h33.39.375.csv,1,15,0,1,z,0,1,1,aud,B,63,1,0B,1B,0,1,z,3.35227759999907,0,1,1,1,1B,0B,B01,2.70805020110221,0.509356055058523,0.495299881355466,0.490643944941477,0.5,0.495299881355466,0.509356055058523,0.5,0.5,0.495299881355466,0.5,0.5,0.490643944941477,0.5,0.495299881355466,0.5,0.504700118644534,0.506995516173044,0.493004483826956,0.509356055058523,0.495299881355466,0.118132374747711,0.579423372881944,0.490643944941477,0.00461216950689442,0.5,0.00940023728906825,1.09793779565682,7.50134513237627,3.03520056643526,0.5,88.2818861405795
CBC_1110,CBC_1110_MSI_AV_v3_Vset4_Aset1_2024-08-25_14h33.39.375.csv,1,16,1,0,b,1,0,1,aud,B,63,1,1B,0B,1,0,b,3.17933809999886,1,0,1,1,1B,0B,B10,2.7408400239252,0.509356055058523,0.495299881355466,0.490643944941477,0.5,0.495299881355466,0.513968224565417,0.5,0.5,0.495299881355466,0.5,0.5,0.490643944941477,0.5,0.495299881355466,0.5,0.504700118644534,0.509248455935759,0.490751544064241,0.513968224565417,0.495299881355466,0.135374914265232,0.60430139120509,0.486031775434583,0.00456881401911221,0.5,0.00940023728906825,1.09793779565682,7.50134513237627,3.03520056643526,0.5,88.2818861405795
CBC_1110,CBC_1110_MSI_AV_v3_Vset4_Aset1_2024-08-25_14h33.39.375.csv,1,17,2,3,b,1,0,3,aud,C,63,1,2C,3C,1,0,z,2.96407269999963,0,1,0,0,3C,2C,C23,2.36712361413162,0.509356055058523,0.495299881355466,0.490643944941477,0.5,0.495299881355466,0.51853703858453,0.5,0.5,0.495299881355466,0.5,0.5,0.490643944941477,0.5,0.495299881355466,0.5,0.504700118644534,0.495277791225446,0.504722208774554,0.490643944941477,0.5,0.112225128443325,0.447090993177038,-0.490643944941477,-0.00461216950689442,0.5,0.00940023728906825,1.09793779565682,7.50134513237627,3.03520056643526,0.5,88.2818861405795
CBC_1110,CBC_1110_MSI_AV_v3_Vset4_Aset1_2024-08-25_14h33.39.375.csv,1,18,1,3,z,0,1,0,aud,D,27,1,1D,3D,0,1,b,3.90335029999915,1,0,0,0,1D,3D,D13,3.49650756146648,0.509356055058523,0.495299881355466,0.490643944941477,0.5,0.495299881355466,0.51853703858453,0.5,0.5,0.495299881355466,0.5,0.5,0.486031775434583,0.5,0.495299881355466,0.5,0.504700118644534,0.495299881355466,0.504700118644534,0.495299881355466,0.504700118644534,0.0677446071761872,0.44695385227924,-0.495299881355466,-0.00465593641398873,0.5,0.00940023728906825,1.09793779565682,7.50134513237627,3.03520056643526,0.5,88.2818861405795
CBC_1110,CBC_1110_MSI_AV_v3_Vset4_Aset1_2024-08-25_14h33.39.375.csv,1,19,2,1,b,1,0,3,aud,C,9,1,2C,1C,1,0,z,2.53194489999896,0,1,0,0,1C,2C,C21,3.52636052461616,0.509356055058523,0.495299881355466,0.490643944941477,0.5,0.495299881355466,0.51853703858453,0.5,0.5,0.495299881355466,0.5,0.5,0.486031775434583,0.5,0.490643944941477,0.5,0.504700118644534,0.5,0.5,0.5,0.5,0.157152813111932,0.499945430494649,-0.5,-0.00470011864453412,0.5,0.00940023728906825,1.09793779565682,7.50134513237627,3.03520056643526,0.5,88.2818861405795
CBC_1110,CBC_1110_MSI_AV_v3_Vset4_Aset1_2024-08-25_14h33.39.375.csv,1,20,1,3,b,1,0,1,aud,B,27,1,1B,3B,1,0,z,3.0324056999998,0,1,0,0,3B,1B,B13,3.55534806148941,0.509356055058523,0.495299881355466,0.490643944941477,0.5,0.495299881355466,0.51853703858453,0.5,0.5,0.495299881355466,0.495299881355466,0.5,0.486031775434583,0.5,0.490643944941477,0.5,0.504700118644534,0.490900164705699,0.509099835294301,0.5,0.51853703858453,0.0967666339666236,0.39891436917345,-0.5,-0.00470011864453412,0.5,0.00940023728906825,1.09793779565682,7.50134513237627,3.03520056643526,0.5,88.2818861405795
CBC_1110,CBC_1110_MSI_AV_v3_Vset4_Aset1_2024-08-25_14h33.39.375.csv,1,21,2,3,z,0,1,0,aud,D,63,1,2D,3D,0,1,b,3.15227909999976,1,0,0,0,2D,3D,D23,3.58351893845611,0.509356055058523,0.495299881355466,0.490643944941477,0.5,0.495299881355466,0.51853703858453,0.5,0.495299881355466,0.495299881355466,0.495299881355466,0.5,0.486031775434583,0.5,0.490643944941477,0.5,0.504700118644534,0.497660934562805,0.502339065437195,0.5,0.504700118644534,0.107370886222896,0.47328937661399,-0.5,-0.00470011864453412,0.5,0.00940023728906825,1.09793779565682,7.50134513237627,3.03520056643526,0.5,88.2818861405795
CBC_1110,CBC_1110_MSI_AV_v3_Vset4_Aset1_2024-08-25_14h33.39.375.csv,1,22,0,1,z,0,1,1,aud,B,63,0,0B,1B,1,0,z,2.87182129999928,0,1,1,0,1B,0B,B01,2.51230562397611,0.509356055058523,0.495299881355466,0.490643944941477,0.5,0.495299881355466,0.51853703858453,0.5,0.495299881355466,0.495299881355466,0.495299881355466,0.5,0.486031775434583,0.5,0.490643944941477,0.495299881355466,0.504700118644534,0.511460007409495,0.488539992590505,0.51853703858453,0.495299881355466,0.166578202231767,0.627895869974555,-0.51853703858453,-0.00487437120586532,0.5,0.00940023728906825,1.09793779565682,7.50134513237627,3.03520056643526,0.5,88.2818861405795
CBC_1110,CBC_1110_MSI_AV_v3_Vset4_Aset1_2024-08-25_14h33.39.375.csv,1,23,0,3,b,1,0,2,aud,A,9,1,0A,3A,1,0,b,3.5223447999997,1,0,1,1,0A,3A,A03,3.63758615972639,0.509356055058523,0.495299881355466,0.490643944941477,0.5,0.495299881355466,0.513662667378664,0.5,0.495299881355466,0.495299881355466,0.495299881355466,0.5,0.486031775434583,0.5,0.490643944941477,0.495299881355466,0.504700118644534,0.504634665345115,0.495365334654885,0.509356055058523,0.5,0.102878291061502,0.552968079647361,0.490643944941477,0.00461216950689442,0.5,0.00940023728906825,1.09793779565682,7.50134513237627,3.03520056643526,0.5,88.2818861405795
CBC_1110,CBC_1110_MSI_AV_v3_Vset4_Aset1_2024-08-25_14h33.39.375.csv,1,24,3,2,b,1,0,0,aud,D,63,1,3D,2D,1,0,z,3.13621189999958,0,1,0,0,2D,3D,D32,2.9704144655697,0.513968224565417,0.495299881355466,0.490643944941477,0.5,0.495299881355466,0.513662667378664,0.5,0.495299881355466,0.495299881355466,0.495299881355466,0.5,0.486031775434583,0.5,0.490643944941477,0.495299881355466,0.504700118644534,0.495299881355466,0.504700118644534,0.495299881355466,0.504700118644534,0.102297583566915,0.446857391742219,-0.495299881355466,-0.00465593641398873,0.5,0.00940023728906825,1.09793779565682,7.50134513237627,3.03520056643526,0.5,88.2818861405795
CBC_1110,CBC_1110_MSI_AV_v3_Vset4_Aset1_2024-08-25_14h33.39.375.csv,1,25,3,1,z,0,1,1,aud,B,27,1,3B,1B,0,1,b,2.62745189999896,1,0,0,0,3B,1B,B31,3.68887945411394,0.513968224565417,0.495299881355466,0.490643944941477,0.5,0.495299881355466,0.513662667378664,0.5,0.495299881355466,0.495299881355466,0.495299881355466,0.5,0.486031775434583,0.5,0.490643944941477,0.490643944941477,0.504700118644534,0.490900164705699,0.509099835294301,0.495299881355466,0.513662667378664,0.11993845436872,0.397897533652479,-0.495299881355466,-0.00465593641398873,0.5,0.00940023728906825,1.09793779565682,7.50134513237627,3.03520056643526,0.5,88.2818861405795
CBC_1110,CBC_1110_MSI_AV_v3_Vset4_Aset1_2024-08-25_14h33.39.375.csv,1,26,3,2,z,0,1,3,aud,C,63,1,3C,2C,0,1,z,2.4197882999988,0,1,1,1,2C,3C,C32,3.71357206670431,0.513968224565417,0.495299881355466,0.490643944941477,0.5,0.495299881355466,0.513662667378664,0.5,0.490643944941477,0.495299881355466,0.495299881355466,0.5,0.486031775434583,0.5,0.490643944941477,0.490643944941477,0.504700118644534,0.507083049914523,0.492916950085477,0.5,0.486031775434583,0.193874506019658,0.579943348282233,0.5,0.00470011864453412,0.5,0.00940023728906825,1.09793779565682,7.50134513237627,3.03520056643526,0.5,88.2818861405795
CBC_1110,CBC_1110_MSI_AV_v3_Vset4_Aset1_2024-08-25_14h33.39.375.csv,1,27,0,2,z,0,1,3,aud,C,27,1,0C,2C,0,1,b,3.01676109999971,1,0,0,0,0C,2C,C02,3.04452243772342,0.513968224565417,0.495299881355466,0.490643944941477,0.5,0.495299881355466,0.513662667378664,0.5,0.490643944941477,0.495299881355466,0.495299881355466,0.504700118644534,0.486031775434583,0.5,0.490643944941477,0.490643944941477,0.504700118644534,0.495299881355466,0.504700118644534,0.495299881355466,0.504700118644534,0.108961679588949,0.446472568669258,-0.495299881355466,-0.00465593641398873,0.5,0.00940023728906825,1.09793779565682,7.50134513237627,3.03520056643526,0.5,88.2818861405795
CBC_1110,CBC_1110_MSI_AV_v3_Vset4_Aset1_2024-08-25_14h33.39.375.csv,1,28,1,0,b,1,0,1,aud,B,63,1,1B,0B,1,0,z,3.67635979999886,0,1,0,0,0B,1B,B10,2.66258782702545,0.513968224565417,0.495299881355466,0.490643944941477,0.5,0.495299881355466,0.513662667378664,0.5,0.490643944941477,0.490643944941477,0.495299881355466,0.504700118644534,0.486031775434583,0.5,0.490643944941477,0.490643944941477,0.504700118644534,0.490900164705699,0.509099835294301,0.495299881355466,0.513662667378664,0.0679571140774682,0.397625095337327,-0.495299881355466,-0.00465593641398873,0.5,0.00940023728906825,1.09793779565682,7.50134513237627,3.03520056643526,0.5,88.2818861405795
CBC_1110,CBC_1110_MSI_AV_v3_Vset4_Aset1_2024-08-25_14h33.39.375.csv,1,29,3,2,z,0,1,3,aud,C,63,1,3C,2C,0,1,b,6.12223610000001,1,0,0,0,3C,2C,C32,3.09104245335832,0.513968224565417,0.495299881355466,0.490643944941477,0.5,0.490643944941477,0.513662667378664,0.5,0.490643944941477,0.490643944941477,0.495299881355466,0.504700118644534,0.486031775434583,0.5,0.490643944941477,0.490643944941477,0.504700118644534,0.490578509018677,0.509421490981323,0.486031775434583,0.504700118644534,0.0177099279391849,0.393790728627695,-0.486031775434583,-0.00456881401911221,0.5,0.00940023728906825,1.09793779565682,7.50134513237627,3.03520056643526,0.5,88.2818861405795
CBC_1110,CBC_1110_MSI_AV_v3_Vset4_Aset1_2024-08-25_14h33.39.375.csv,1,30,0,1,b,1,0,2,aud,A,63,1,0A,1A,1,0,b,4.21842779999952,1,0,1,1,0A,1A,A01,2.70805020110221,0.513968224565417,0.495299881355466,0.490643944941477,0.5,0.490643944941477,0.513662667378664,0.5,0.490643944941477,0.490643944941477,0.495299881355466,0.504700118644534,0.481462961415471,0.5,0.490643944941477,0.490643944941477,0.504700118644534,0.509248455935759,0.490751544064241,0.513968224565417,0.495299881355466,0.0768190739395308,0.604117237101896,0.486031775434583,0.00456881401911221,0.5,0.00940023728906825,1.09793779565682,7.50134513237627,3.03520056643526,0.5,88.2818861405795
CBC_1110,CBC_1110_MSI_AV_v3_Vset4_Aset1_2024-08-25_14h33.39.375.csv,1,31,3,2,b,1,0,0,aud,D,63,1,3D,2D,1,0,b,6.0054798000001,1,0,1,1,3D,2D,D32,2.73002910782099,0.51853703858453,0.495299881355466,0.490643944941477,0.5,0.490643944941477,0.513662667378664,0.5,0.490643944941477,0.490643944941477,0.495299881355466,0.504700118644534,0.481462961415471,0.5,0.490643944941477,0.490643944941477,0.504700118644534,0.507060962242752,0.492939037757248,0.504700118644534,0.490643944941477,0.0280989800423308,0.579240330821733,0.495299881355466,0.00465593641398873,0.5,0.00940023728906825,1.09793779565682,7.50134513237627,3.03520056643526,0.5,88.2818861405795
CBC_1110,CBC_1110_MSI_AV_v3_Vset4_Aset1_2024-08-25_14h33.39.375.csv,1,32,3,2,z,0,1,3,aud,C,63,1,3C,2C,NaN,NaN,[],NaN,NaN,NaN,NaN,NaN,,,C32,2.75153531304195,0.51853703858453,0.495299881355466,0.490643944941477,0.5,0.490643944941477,0.513662667378664,0.5,0.490643944941477,0.490643944941477,0.495299881355466,0.504700118644534,0.481462961415471,0.5,0.490643944941477,0.490643944941477,0.509356055058523,0,0,0,0,NaN,0,0,0,0.5,0.00940023728906825,1.09793779565682,7.50134513237627,3.03520056643526,0.5,88.2818861405795
CBC_1110,CBC_1110_MSI_AV_v3_Vset4_Aset1_2024-08-25_14h33.39.375.csv,1,33,1,3,z,0,1,0,aud,D,27,1,1D,3D,0,1,z,2.93638949999877,0,1,1,1,3D,1D,D13,3.17805383034795,0.51853703858453,0.495299881355466,0.490643944941477,0.5,0.490643944941477,0.513662667378664,0.5,0.490643944941477,0.490643944941477,0.495299881355466,0.504700118644534,0.481462961415471,0.5,0.490643944941477,0.490643944941477,0.509356055058523,0.509356055058523,0.490643944941477,0.509356055058523,0.490643944941477,0.154538756441033,0.604663501774356,0.490643944941477,0.00461216950689442,0.5,0.00940023728906825,1.09793779565682,7.50134513237627,3.03520056643526,0.5,88.2818861405795
CBC_1110,CBC_1110_MSI_AV_v3_Vset4_Aset1_2024-08-25_14h33.39.375.csv,1,34,2,0,b,1,0,3,aud,C,27,1,2C,0C,1,0,z,1.32407269999931,0,1,0,0,0C,2C,C20,3.89182029811063,0.51853703858453,0.495299881355466,0.490643944941477,0.5,0.490643944941477,0.513662667378664,0.5,0.490643944941477,0.490643944941477,0.495299881355466,0.504700118644534,0.481462961415471,0.5,0.490643944941477,0.490643944941477,0.513968224565417,0.492939037757248,0.507060962242752,0.490643944941477,0.504700118644534,0.0294231894217978,0.420433570838978,-0.490643944941477,-0.00461216950689442,0.5,0.00940023728906825,1.09793779565682,7.50134513237627,3.03520056643526,0.5,88.2818861405795
CBC_1110,CBC_1110_MSI_AV_v3_Vset4_Aset1_2024-08-25_14h33.39.375.csv,1,35,3,2,b,1,0,0,aud,D,63,0,3D,2D,0,1,z,4.53502839999874,0,1,0,1,2D,3D,D32,2.52572864430826,0.51853703858453,0.495299881355466,0.490643944941477,0.5,0.490643944941477,0.513662667378664,0.5,0.490643944941477,0.486031775434583,0.495299881355466,0.504700118644534,0.481462961415471,0.5,0.490643944941477,0.490643944941477,0.513968224565417,0.48839140101429,0.51160859898571,0.490643944941477,0.513968224565417,0.0393985017537626,0.370629206377664,0.509356055058523,0.00478806778217382,0.5,0.00940023728906825,1.09793779565682,7.50134513237627,3.03520056643526,0.5,88.2818861405795
CBC_1110,CBC_1110_MSI_AV_v3_Vset4_Aset1_2024-08-25_14h33.39.375.csv,1,36,0,1,b,1,0,2,aud,A,63,1,0A,1A,1,0,b,3.07916489999934,1,0,1,1,0A,1A,A01,2.54553127160444,0.51853703858453,0.495299881355466,0.490643944941477,0.5,0.490643944941477,0.513662667378664,0.5,0.490643944941477,0.486031775434583,0.495299881355466,0.504700118644534,0.481462961415471,0.5,0.490643944941477,0.495432012723651,0.513968224565417,0.511460007409495,0.488539992590505,0.51853703858453,0.495299881355466,0.148590871160063,0.627290780214768,0.48146296141547,0.00452586608320293,0.5,0.00940023728906825,1.09793779565682,7.50134513237627,3.03520056643526,0.5,88.2818861405795
CBC_1110,CBC_1110_MSI_AV_v3_Vset4_Aset1_2024-08-25_14h33.39.375.csv,1,37,3,2,z,0,1,3,aud,C,63,1,3C,2C,0,1,z,2.51941979999901,0,1,1,1,2C,3C,C32,2.56494935746154,0.523062904667733,0.495299881355466,0.490643944941477,0.5,0.490643944941477,0.513662667378664,0.5,0.490643944941477,0.486031775434583,0.495299881355466,0.504700118644534,0.481462961415471,0.5,0.490643944941477,0.495432012723651,0.513968224565417,0.511781599665874,0.488218400334126,0.504700118644534,0.481462961415471,0.202228788628827,0.630816959425273,0.495299881355466,0.00465593641398873,0.5,0.00940023728906825,1.09793779565682,7.50134513237627,3.03520056643526,0.5,88.2818861405795
CBC_1110,CBC_1110_MSI_AV_v3_Vset4_Aset1_2024-08-25_14h33.39.375.csv,1,38,2,0,z,0,1,2,aud,A,27,1,2A,0A,0,1,z,3.57684859999972,0,1,1,1,0A,2A,A20,2.87167962488401,0.523062904667733,0.495299881355466,0.490643944941477,0.5,0.490643944941477,0.513662667378664,0.5,0.490643944941477,0.486031775434583,0.495299881355466,0.509356055058523,0.481462961415471,0.5,0.490643944941477,0.495432012723651,0.513968224565417,0.515990303182204,0.484009696817796,0.523062904667733,0.490643944941477,0.121088870673389,0.674253158147392,0.476937095332267,0.00448332186808228,0.5,0.00940023728906825,1.09793779565682,7.50134513237627,3.03520056643526,0.5,88.2818861405795
CBC_1110,CBC_1110_MSI_AV_v3_Vset4_Aset1_2024-08-25_14h33.39.375.csv,1,39,3,2,b,1,0,0,aud,D,63,1,3D,2D,1,0,b,2.63396809999904,1,0,1,1,3D,2D,D32,2.37954613413017,0.527546226535815,0.495299881355466,0.490643944941477,0.5,0.490643944941477,0.513662667378664,0.5,0.490643944941477,0.486031775434583,0.495299881355466,0.509356055058523,0.481462961415471,0.5,0.490643944941477,0.495432012723651,0.513968224565417,0.509181794870362,0.490818205129638,0.513968224565417,0.495432012723651,0.18132731729686,0.603506983620408,0.486031775434583,0.00456881401911221,0.5,0.00940023728906825,1.09793779565682,7.50134513237627,3.03520056643526,0.5,88.2818861405795
CBC_1110,CBC_1110_MSI_AV_v3_Vset4_Aset1_2024-08-25_14h33.39.375.csv,1,40,2,3,z,0,1,0,aud,D,63,1,2D,3D,0,1,z,2.57334799999899,0,1,1,1,3D,2D,D23,3.31418600467253,0.527546226535815,0.495299881355466,0.490643944941477,0.5,0.490643944941477,0.513662667378664,0.5,0.490643944941477,0.486031775434583,0.495299881355466,0.509356055058523,0.481462961415471,0.5,0.490643944941477,0.495432012723651,0.51853703858453,0.511393358520691,0.488606641479309,0.51853703858453,0.495432012723651,0.195642432502518,0.628124510847499,0.48146296141547,0.00452586608320293,0.5,0.00940023728906825,1.09793779565682,7.50134513237627,3.03520056643526,0.5,88.2818861405795
CBC_1110,CBC_1110_MSI_AV_v3_Vset4_Aset1_2024-08-25_14h33.39.375.csv,1,41,1,3,b,1,0,1,aud,B,27,1,1B,3B,1,0,b,3.98941489999925,1,0,1,1,1B,3B,B13,3.3322045101752,0.527546226535815,0.495299881355466,0.490643944941477,0.5,0.490643944941477,0.513662667378664,0.5,0.490643944941477,0.486031775434583,0.495299881355466,0.509356055058523,0.481462961415471,0.5,0.490643944941477,0.495432012723651,0.523062904667733,0.511460007409495,0.488539992590505,0.513662667378664,0.490643944941477,0.0902891835228737,0.628820818765333,0.486337332621336,0.00457168632917307,0.5,0.00940023728906825,1.09793779565682,7.50134513237627,3.03520056643526,0.5,88.2818861405795
CBC_1110,CBC_1110_MSI_AV_v3_Vset4_Aset1_2024-08-25_14h33.39.375.csv,1,42,0,3,z,0,1,0,aud,D,9,1,0D,3D,0,1,z,3.49371069999961,0,1,1,1,3D,0D,D03,4.04305126783455,0.527546226535815,0.495299881355466,0.490643944941477,0.5,0.490643944941477,0.518234353707837,0.5,0.490643944941477,0.486031775434583,0.495299881355466,0.509356055058523,0.481462961415471,0.5,0.490643944941477,0.495432012723651,0.523062904667733,0.511271498830867,0.488728501169132,0.523062904667733,0.5,0.117739823617178,0.624046890873977,0.476937095332267,0.00448332186808228,0.5,0.00940023728906825,1.09793779565682,7.50134513237627,3.03520056643526,0.5,88.2818861405795
CBC_1110,CBC_1110_MSI_AV_v3_Vset4_Aset1_2024-08-25_14h33.39.375.csv,1,43,1,0,b,1,0,1,aud,B,63,1,1B,0B,1,0,b,2.69831449999947,1,0,1,1,1B,0B,B10,2.67414864942653,0.527546226535815,0.495299881355466,0.490643944941477,0.5,0.490643944941477,0.518234353707837,0.5,0.490643944941477,0.486031775434583,0.495299881355466,0.509356055058523,0.481462961415471,0.5,0.490643944941477,0.495432012723651,0.527546226535815,0.513673804265241,0.486326195734759,0.518234353707837,0.490643944941477,0.190134000785662,0.649995008525378,0.481765646292163,0.00452871139286765,0.5,0.00940023728906825,1.09793779565682,7.50134513237627,3.03520056643526,0.5,88.2818861405795
CBC_1110,CBC_1110_MSI_AV_v3_Vset4_Aset1_2024-08-25_14h33.39.375.csv,1,44,1,0,z,0,1,2,aud,A,63,1,1A,0A,0,1,b,3.94306679999954,1,0,0,0,1A,0A,A10,2.97892515523761,0.527546226535815,0.495299881355466,0.490643944941477,0.5,0.490643944941477,0.522763065100705,0.5,0.490643944941477,0.486031775434583,0.495299881355466,0.509356055058523,0.481462961415471,0.5,0.490643944941477,0.495432012723651,0.527546226535815,0.484236951711715,0.515763048288285,0.495299881355466,0.527546226535815,0.0480378035115877,0.328665622447357,-0.495299881355466,-0.00465593641398873,0.5,0.00940023728906825,1.09793779565682,7.50134513237627,3.03520056643526,0.5,88.2818861405795
CBC_1110,CBC_1110_MSI_TV_v3_Vset6_Tset1_2024-08-25_14h42.34.932.csv,2,1,0,2,z,0,1,3,tac,C,27,1,0C,2C,0,1,z,2.57163930000024,0,1,1,1,2C,0C,C02,2.77258872223978,0.5,0.5,0.5,0.5,0.5,0.5,0.5,0.5,0.5,0.5,0.5,0.5,0.5,0.5,0.5,0.5,0.5,0.5,0.5,0.5,0.152227480519529,0.499780352448796,0.5,0.453304074654153,0.5,0.906608149308306,1.09699877710342,0.113799037391353,3.09774175537372,0.5,82.921255902592
CBC_1110,CBC_1110_MSI_TV_v3_Vset6_Tset1_2024-08-25_14h42.34.932.csv,2,2,2,3,z,0,1,0,tac,D,63,1,2D,3D,0,1,b,3.63147859999935,1,0,0,0,2D,3D,D23,2.83321334405622,0.5,0.5,0.5,0.5,0.5,0.5,0.5,0.5,0.5,0.5,0.953304074654153,0.5,0.5,0.5,0.5,0.5,0.5,0.5,0.5,0.5,0.0891212573938727,0.501161270685908,-0.5,-0.453304074654153,0.5,0.906608149308306,1.09699877710342,0.113799037391353,3.09774175537372,0.5,82.921255902592
CBC_1110,CBC_1110_MSI_TV_v3_Vset6_Tset1_2024-08-25_14h42.34.932.csv,2,3,0,1,b,1,0,2,tac,A,63,1,0A,1A,1,0,b,3.2141545000004,1,0,1,1,0A,1A,A01,2.89037175789616,0.5,0.5,0.5,0.5,0.5,0.5,0.5,0.5,0.5,0.5,0.953304074654153,0.5,0.5,0.5,0.0466959253458471,0.5,0.5,0.5,0.5,0.5,0.110211936427516,0.500260864970403,0.5,0.453304074654153,0.5,0.906608149308306,1.09699877710342,0.113799037391353,3.09774175537372,0.5,82.921255902592
CBC_1110,CBC_1110_MSI_TV_v3_Vset6_Tset1_2024-08-25_14h42.34.932.csv,2,4,3,2,z,0,1,3,tac,C,63,1,3C,2C,0,1,z,3.08215099999961,0,1,1,1,2C,3C,C32,2.94443897916644,0.953304074654153,0.5,0.5,0.5,0.5,0.5,0.5,0.5,0.5,0.5,0.953304074654153,0.5,0.5,0.5,0.0466959253458471,0.5,0.655956376425225,0.344043623574775,0.953304074654153,0.5,0.124621076223673,0.52858002341968,0.0466959253458471,0.0423349064580372,0.5,0.906608149308306,1.09699877710342,0.113799037391353,3.09774175537372,0.5,82.921255902592
CBC_1110,CBC_1110_MSI_TV_v3_Vset6_Tset1_2024-08-25_14h42.34.932.csv,2,5,2,0,z,0,1,2,tac,A,27,1,2A,0A,0,1,z,2.78080130000035,0,1,1,1,0A,2A,A20,2.99573227355399,0.953304074654153,0.5,0.5,0.5,0.5,0.5,0.5,0.5,0.5,0.5,0.99563898111219,0.5,0.5,0.5,0.0466959253458471,0.5,0.655956376425225,0.344043623574775,0.953304074654153,0.5,0.145000470513418,0.527737864447256,0.0466959253458471,0.0423349064580372,0.5,0.906608149308306,1.09699877710342,0.113799037391353,3.09774175537372,0.5,82.921255902592
CBC_1110,CBC_1110_MSI_TV_v3_Vset6_Tset1_2024-08-25_14h42.34.932.csv,2,6,3,2,b,1,0,0,tac,D,63,1,3D,2D,1,0,b,3.79137329999958,1,0,1,1,3D,2D,D32,3.04452243772342,0.99563898111219,0.5,0.5,0.5,0.5,0.5,0.5,0.5,0.5,0.5,0.99563898111219,0.5,0.5,0.5,0.0466959253458471,0.5,0.914585195936285,0.0854148040637154,0.5,0.0466959253458471,0.0938210726069923,0.573579236741858,0.5,0.453304074654153,0.5,0.906608149308306,1.09699877710342,0.113799037391353,3.09774175537372,0.5,82.921255902592
CBC_1110,CBC_1110_MSI_TV_v3_Vset6_Tset1_2024-08-25_14h42.34.932.csv,2,7,2,3,z,0,1,0,tac,D,63,1,2D,3D,0,1,z,3.82963850000033,0,1,1,1,3D,2D,D23,2.39789527279837,0.99563898111219,0.5,0.5,0.5,0.5,0.5,0.5,0.5,0.5,0.5,0.99563898111219,0.5,0.5,0.5,0.0466959253458471,0.953304074654153,0.953304074654153,0.0466959253458471,0.953304074654153,0.0466959253458471,0.0928190849965399,0.578972482810287,0.0466959253458471,0.0423349064580372,0.5,0.906608149308306,1.09699877710342,0.113799037391353,3.09774175537372,0.5,82.921255902592
CBC_1110,CBC_1110_MSI_TV_v3_Vset6_Tset1_2024-08-25_14h42.34.932.csv,2,8,1,3,b,1,0,1,tac,B,27,1,1B,3B,1,0,b,2.91870500000095,1,0,1,1,1B,3B,B13,3.13549421592915,0.99563898111219,0.5,0.5,0.5,0.5,0.5,0.5,0.5,0.5,0.5,0.99563898111219,0.5,0.5,0.5,0.0466959253458471,0.99563898111219,0.5,0.5,0.5,0.5,0.128168363545781,0.500349724079941,0.5,0.453304074654153,0.5,0.906608149308306,1.09699877710342,0.113799037391353,3.09774175537372,0.5,82.921255902592
CBC_1110,CBC_1110_MSI_TV_v3_Vset6_Tset1_2024-08-25_14h42.34.932.csv,2,9,3,0,b,1,0,0,tac,D,9,1,3D,0D,1,0,z,3.01915869999993,0,1,0,0,0D,3D,D30,3.17805383034795,0.99563898111219,0.5,0.5,0.5,0.5,0.953304074654153,0.5,0.5,0.5,0.5,0.99563898111219,0.5,0.5,0.5,0.0466959253458471,0.99563898111219,0.334305274410666,0.665694725589334,0.5,0.99563898111219,0.114442325737143,0.470017471237956,-0.5,-0.453304074654153,0.5,0.906608149308306,1.09699877710342,0.113799037391353,3.09774175537372,0.5,82.921255902592
CBC_1110,CBC_1110_MSI_TV_v3_Vset6_Tset1_2024-08-25_14h42.34.932.csv,2,10,0,1,z,0,1,1,tac,B,63,1,0B,1B,0,1,z,2.99907170000097,0,1,1,1,1B,0B,B01,3.2188758248682,0.99563898111219,0.5,0.5,0.5,0.5,0.953304074654153,0.5,0.5,0.5,0.5,0.99563898111219,0.5,0.0466959253458471,0.5,0.0466959253458471,0.99563898111219,0.655956376425225,0.344043623574775,0.953304074654153,0.5,0.129752170100771,0.527492468035225,0.0466959253458471,0.0423349064580372,0.5,0.906608149308306,1.09699877710342,0.113799037391353,3.09774175537372,0.5,82.921255902592
CBC_1110,CBC_1110_MSI_TV_v3_Vset6_Tset1_2024-08-25_14h42.34.932.csv,2,11,0,1,b,1,0,2,tac,A,63,1,0A,1A,NaN,NaN,None,NaN,NaN,NaN,NaN,NaN,,,A01,2.56494935746154,0.99563898111219,0.5,0.5,0.5,0.5,0.99563898111219,0.5,0.5,0.5,0.5,0.99563898111219,0.5,0.0466959253458471,0.5,0.0466959253458471,0.99563898111219,0,0,0,0,NaN,0,0,0,0.5,0.906608149308306,1.09699877710342,0.113799037391353,3.09774175537372,0.5,82.921255902592
CBC_1110,CBC_1110_MSI_TV_v3_Vset6_Tset1_2024-08-25_14h42.34.932.csv,2,12,1,0,b,1,0,1,tac,B,63,1,1B,0B,1,0,z,4.20111100000122,0,1,0,0,0B,1B,B10,3.29583686600433,0.99563898111219,0.5,0.5,0.5,0.5,0.99563898111219,0.5,0.5,0.5,0.5,0.99563898111219,0.5,0.0466959253458471,0.5,0.0466959253458471,0.99563898111219,0.334305274410666,0.665694725589334,0.5,0.99563898111219,0.0624704275408447,0.471054716352068,-0.5,-0.453304074654153,0.5,0.906608149308306,1.09699877710342,0.113799037391353,3.09774175537372,0.5,82.921255902592
CBC_1110,CBC_1110_MSI_TV_v3_Vset6_Tset1_2024-08-25_14h42.34.932.csv,2,13,3,2,b,1,0,0,tac,D,63,1,3D,2D,NaN,NaN,None,NaN,NaN,NaN,NaN,NaN,,,D32,2.63905732961526,0.99563898111219,0.5,0.5,0.5,0.0466959253458471,0.99563898111219,0.5,0.5,0.5,0.5,0.99563898111219,0.5,0.0466959253458471,0.5,0.0466959253458471,0.99563898111219,0,0,0,0,NaN,0,0,0,0.5,0.906608149308306,1.09699877710342,0.113799037391353,3.09774175537372,0.5,82.921255902592
CBC_1110,CBC_1110_MSI_TV_v3_Vset6_Tset1_2024-08-25_14h42.34.932.csv,2,14,3,1,z,0,1,1,tac,B,27,1,3B,1B,NaN,NaN,None,NaN,NaN,NaN,NaN,NaN,,,B31,3.36729582998647,0.99563898111219,0.5,0.5,0.5,0.0466959253458471,0.99563898111219,0.5,0.5,0.5,0.5,0.99563898111219,0.5,0.0466959253458471,0.5,0.0466959253458471,0.99563898111219,0,0,0,0,NaN,0,0,0,0.5,0.906608149308306,1.09699877710342,0.113799037391353,3.09774175537372,0.5,82.921255902592
CBC_1110,CBC_1110_MSI_TV_v3_Vset6_Tset1_2024-08-25_14h42.34.932.csv,2,15,2,3,b,1,0,3,tac,C,63,1,2C,3C,1,0,z,3.04305520000071,0,1,0,0,3C,2C,C23,3.40119738166216,0.99563898111219,0.5,0.5,0.5,0.0466959253458471,0.99563898111219,0.5,0.5,0.5,0.5,0.99563898111219,0.5,0.0466959253458471,0.5,0.0466959253458471,0.99563898111219,0.334305274410666,0.665694725589334,0.5,0.99563898111219,0.112891903178463,0.469335312427111,-0.5,-0.453304074654153,0.5,0.906608149308306,1.09699877710342,0.113799037391353,3.09774175537372,0.5,82.921255902592
CBC_1110,CBC_1110_MSI_TV_v3_Vset6_Tset1_2024-08-25_14h42.34.932.csv,2,16,0,2,z,0,1,3,tac,C,27,1,0C,2C,0,1,z,2.90642179999941,0,1,1,1,2C,0C,C02,2.7408400239252,0.99563898111219,0.5,0.5,0.5,0.0466959253458471,0.99563898111219,0.5,0.5,0.5,0.5,0.99563898111219,0.0466959253458471,0.0466959253458471,0.5,0.0466959253458471,0.99563898111219,0.665694725589334,0.334305274410666,0.99563898111219,0.5,0.136427429449896,0.529064399332655,0.00436101888780982,0.00395373526297583,0.5,0.906608149308306,1.09699877710342,0.113799037391353,3.09774175537372,0.5,82.921255902592
CBC_1110,CBC_1110_MSI_TV_v3_Vset6_Tset1_2024-08-25_14h42.34.932.csv,2,17,3,0,z,0,1,2,tac,A,9,1,3A,0A,0,1,b,3.05741000000035,1,0,0,0,3A,0A,A30,3.46573590279973,0.99563898111219,0.5,0.5,0.5,0.0466959253458471,0.99563898111219,0.5,0.5,0.5,0.5,0.999592716375166,0.0466959253458471,0.0466959253458471,0.5,0.0466959253458471,0.99563898111219,0.334305274410666,0.665694725589334,0.5,0.99563898111219,0.11226090887731,0.470156901595787,-0.5,-0.453304074654153,0.5,0.906608149308306,1.09699877710342,0.113799037391353,3.09774175537372,0.5,82.921255902592
CBC_1110,CBC_1110_MSI_TV_v3_Vset6_Tset1_2024-08-25_14h42.34.932.csv,2,18,3,2,z,0,1,3,tac,C,63,0,3C,2C,NaN,NaN,None,NaN,NaN,NaN,NaN,NaN,,,C32,2.80336038090653,0.99563898111219,0.5,0.5,0.0466959253458471,0.0466959253458471,0.99563898111219,0.5,0.5,0.5,0.5,0.999592716375166,0.0466959253458471,0.0466959253458471,0.5,0.0466959253458471,0.99563898111219,0,0,0,0,NaN,0,0,0,0.5,0.906608149308306,1.09699877710342,0.113799037391353,3.09774175537372,0.5,82.921255902592
CBC_1110,CBC_1110_MSI_TV_v3_Vset6_Tset1_2024-08-25_14h42.34.932.csv,2,19,0,1,b,1,0,2,tac,A,63,1,0A,1A,1,0,z,2.736355,0,1,0,0,1A,0A,A01,2.42774823594805,0.99563898111219,0.5,0.5,0.0466959253458471,0.0466959253458471,0.99563898111219,0.5,0.5,0.5,0.5,0.999592716375166,0.0466959253458471,0.0466959253458471,0.5,0.0466959253458471,0.99563898111219,0.334305274410666,0.665694725589334,0.5,0.99563898111219,0.132059464755574,0.470003063059956,-0.5,-0.453304074654153,0.5,0.906608149308306,1.09699877710342,0.113799037391353,3.09774175537372,0.5,82.921255902592
CBC_1110,CBC_1110_MSI_TV_v3_Vset6_Tset1_2024-08-25_14h42.34.932.csv,2,20,2,3,z,0,1,0,tac,D,63,1,2D,3D,0,1,b,3.09810709999965,1,0,0,0,2D,3D,D23,2.4567357728213,0.99563898111219,0.0466959253458471,0.5,0.0466959253458471,0.0466959253458471,0.99563898111219,0.5,0.5,0.5,0.5,0.999592716375166,0.0466959253458471,0.0466959253458471,0.5,0.0466959253458471,0.99563898111219,0.0447993490926297,0.95520065090737,0.0466959253458471,0.99563898111219,0.0986337351047431,0.421033511272485,-0.0466959253458471,-0.0423349064580372,0.5,0.906608149308306,1.09699877710342,0.113799037391353,3.09774175537372,0.5,82.921255902592
CBC_1110,CBC_1110_MSI_TV_v3_Vset6_Tset1_2024-08-25_14h42.34.932.csv,2,21,2,3,b,1,0,3,tac,C,63,1,2C,3C,1,0,z,2.60478959999909,0,1,0,0,3C,2C,C23,2.89037175789616,0.99563898111219,0.0466959253458471,0.5,0.0466959253458471,0.0466959253458471,0.99563898111219,0.5,0.5,0.5,0.5,0.999592716375166,0.0466959253458471,0.0466959253458471,0.5,0.00436101888780985,0.99563898111219,0.0446300604669073,0.955369939533093,0.0466959253458471,0.999592716375166,0.126867458517091,0.421352693859171,-0.0466959253458471,-0.0423349064580372,0.5,0.906608149308306,1.09699877710342,0.113799037391353,3.09774175537372,0.5,82.921255902592
CBC_1110,CBC_1110_MSI_TV_v3_Vset6_Tset1_2024-08-25_14h42.34.932.csv,2,22,1,3,z,0,1,0,tac,D,27,1,1D,3D,0,1,b,3.03447490000053,1,0,0,0,1D,3D,D13,3.61091791264422,0.99563898111219,0.0466959253458471,0.5,0.0466959253458471,0.0466959253458471,0.99563898111219,0.5,0.5,0.5,0.5,0.999592716375166,0.00436101888780985,0.0466959253458471,0.5,0.00436101888780985,0.99563898111219,0.334305274410666,0.665694725589334,0.5,0.99563898111219,0.113793317086664,0.471032052228346,-0.5,-0.453304074654153,0.5,0.906608149308306,1.09699877710342,0.113799037391353,3.09774175537372,0.5,82.921255902592
CBC_1110,CBC_1110_MSI_TV_v3_Vset6_Tset1_2024-08-25_14h42.34.932.csv,2,23,1,0,z,0,1,2,tac,A,63,1,1A,0A,0,1,z,2.67377340000075,0,1,1,1,0A,1A,A10,3.63758615972639,0.99563898111219,0.0466959253458471,0.5,0.0466959253458471,0.0466959253458471,0.99563898111219,0.5,0.5,0.5,0.5,0.999592716375166,0.00436101888780985,0.0466959253458471,0.0466959253458471,0.00436101888780985,0.99563898111219,0.95520065090737,0.0447993490926297,0.99563898111219,0.0466959253458471,0.168635698953457,0.579575488631376,0.00436101888780982,0.00395373526297583,0.5,0.906608149308306,1.09699877710342,0.113799037391353,3.09774175537372,0.5,82.921255902592
CBC_1110,CBC_1110_MSI_TV_v3_Vset6_Tset1_2024-08-25_14h42.34.932.csv,2,24,2,3,b,1,0,3,tac,C,63,1,2C,3C,1,0,b,3.44381160000103,1,0,1,1,2C,3C,C23,2.56494935746154,0.999592716375166,0.0466959253458471,0.5,0.0466959253458471,0.0466959253458471,0.99563898111219,0.5,0.5,0.5,0.5,0.999592716375166,0.00436101888780985,0.0466959253458471,0.0466959253458471,0.00436101888780985,0.99563898111219,0.995656155523275,0.00434384447672534,0.999592716375166,0.00436101888780985,0.114755448965217,0.585856849842751,0.000407283624833998,0.00036924665335433,0.5,0.906608149308306,1.09699877710342,0.113799037391353,3.09774175537372,0.5,82.921255902592
CBC_1110,CBC_1110_MSI_TV_v3_Vset6_Tset1_2024-08-25_14h42.34.932.csv,2,25,2,0,z,0,1,2,tac,A,27,1,2A,0A,0,1,b,3.37206530000094,1,0,0,0,2A,0A,A20,2.99573227355399,0.999592716375166,0.0466959253458471,0.5,0.0466959253458471,0.0466959253458471,0.99563898111219,0.5,0.5,0.5,0.5,0.99996196302852,0.00436101888780985,0.0466959253458471,0.0466959253458471,0.00436101888780985,0.99563898111219,0.333423865387001,0.666576134612999,0.5,0.999592716375166,0.0956753478328224,0.470863538466105,-0.5,-0.453304074654153,0.5,0.906608149308306,1.09699877710342,0.113799037391353,3.09774175537372,0.5,82.921255902592
CBC_1110,CBC_1110_MSI_TV_v3_Vset6_Tset1_2024-08-25_14h42.34.932.csv,2,26,0,1,z,0,1,1,tac,B,63,1,0B,1B,0,1,z,2.6884856000006,0,1,1,1,1B,0B,B01,3.02042488614436,0.999592716375166,0.0466959253458471,0.0466959253458471,0.0466959253458471,0.0466959253458471,0.99563898111219,0.5,0.5,0.5,0.5,0.99996196302852,0.00436101888780985,0.0466959253458471,0.0466959253458471,0.00436101888780985,0.99563898111219,0.95520065090737,0.0447993490926297,0.99563898111219,0.0466959253458471,0.167093165666695,0.578586555599829,0.00436101888780982,0.00395373526297583,0.5,0.906608149308306,1.09699877710342,0.113799037391353,3.09774175537372,0.5,82.921255902592
CBC_1110,CBC_1110_MSI_TV_v3_Vset6_Tset1_2024-08-25_14h42.34.932.csv,2,27,1,0,b,1,0,1,tac,B,63,1,1B,0B,1,0,z,2.55711420000171,0,1,0,0,0B,1B,B10,3.04452243772342,0.999592716375166,0.0466959253458471,0.0466959253458471,0.0466959253458471,0.0466959253458471,0.999592716375166,0.5,0.5,0.5,0.5,0.99996196302852,0.00436101888780985,0.0466959253458471,0.0466959253458471,0.00436101888780985,0.99563898111219,0.0446300604669073,0.955369939533093,0.0466959253458471,0.999592716375166,0.129629954603343,0.42050738511667,-0.0466959253458471,-0.0423349064580372,0.5,0.906608149308306,1.09699877710342,0.113799037391353,3.09774175537372,0.5,82.921255902592
CBC_1110,CBC_1110_MSI_TV_v3_Vset6_Tset1_2024-08-25_14h42.34.932.csv,2,28,2,3,b,1,0,3,tac,C,63,1,2C,3C,1,0,b,3.30310519999966,1,0,1,1,2C,3C,C23,2.37490575457367,0.999592716375166,0.0466959253458471,0.0466959253458471,0.0466959253458471,0.00436101888780985,0.999592716375166,0.5,0.5,0.5,0.5,0.99996196302852,0.00436101888780985,0.0466959253458471,0.0466959253458471,0.00436101888780985,0.99563898111219,0.995657752569309,0.00434224743069075,0.99996196302852,0.00436101888780985,0.123523878146509,0.586169143116908,3.8036971479638e-05,3.44846283184474e-05,0.5,0.906608149308306,1.09699877710342,0.113799037391353,3.09774175537372,0.5,82.921255902592
CBC_1110,CBC_1110_MSI_TV_v3_Vset6_Tset1_2024-08-25_14h42.34.932.csv,2,29,1,3,z,0,1,0,tac,D,27,1,1D,3D,0,1,z,3.58920499999931,0,1,1,1,3D,1D,D13,3.09104245335832,0.999592716375166,0.0466959253458471,0.0466959253458471,0.0466959253458471,0.00436101888780985,0.999592716375166,0.5,0.5,0.5,0.5,0.999996447656839,0.00436101888780985,0.0466959253458471,0.0466959253458471,0.00436101888780985,0.99563898111219,0.95520065090737,0.0447993490926297,0.99563898111219,0.0466959253458471,0.105254512806911,0.579486728815909,0.00436101888780982,0.00395373526297583,0.5,0.906608149308306,1.09699877710342,0.113799037391353,3.09774175537372,0.5,82.921255902592
CBC_1110,CBC_1110_MSI_TV_v3_Vset6_Tset1_2024-08-25_14h42.34.932.csv,2,30,2,1,b,1,0,3,tac,C,9,1,2C,1C,1,0,b,3.25985100000162,1,0,1,1,2C,1C,C21,3.80666248977032,0.999592716375166,0.0466959253458471,0.0466959253458471,0.0466959253458471,0.00436101888780985,0.999592716375166,0.5,0.5,0.5,0.5,0.999996447656839,0.00436101888780985,0.0466959253458471,0.0466959253458471,0.00436101888780985,0.999592716375166,0.666665877255206,0.333334122744794,0.999996447656839,0.5,0.114074805838761,0.529968534085731,3.55234316118391e-06,3.22058325906896e-06,0.5,0.906608149308306,1.09699877710342,0.113799037391353,3.09774175537372,0.5,82.921255902592
CBC_1110,CBC_1110_MSI_TV_v3_Vset6_Tset1_2024-08-25_14h42.34.932.csv,2,31,1,3,b,1,0,1,tac,B,27,1,1B,3B,1,0,b,4.35939670000062,1,0,1,1,1B,3B,B13,3.13549421592915,0.999592716375166,0.0466959253458471,0.0466959253458471,0.0466959253458471,0.00436101888780985,0.999592716375166,0.5,0.5,0.5,0.5,0.999999668240098,0.00436101888780985,0.0466959253458471,0.0466959253458471,0.00436101888780985,0.999592716375166,0.666576134612999,0.333423865387001,0.999592716375166,0.5,0.0647629496471975,0.529831224750573,0.000407283624833998,0.00036924665335433,0.5,0.906608149308306,1.09699877710342,0.113799037391353,3.09774175537372,0.5,82.921255902592
CBC_1110,CBC_1110_MSI_TV_v3_Vset6_Tset1_2024-08-25_14h42.34.932.csv,2,32,2,3,z,0,1,0,tac,D,63,1,2D,3D,0,1,z,3.91492190000008,0,1,1,1,3D,2D,D23,2.46385324059017,0.999592716375166,0.0466959253458471,0.0466959253458471,0.0466959253458471,0.00436101888780985,0.99996196302852,0.5,0.5,0.5,0.5,0.999999668240098,0.00436101888780985,0.0466959253458471,0.0466959253458471,0.00436101888780985,0.999592716375166,0.995656155523275,0.00434384447672534,0.999592716375166,0.00436101888780985,0.0897465376196544,0.585397677446366,0.000407283624833998,0.00036924665335433,0.5,0.906608149308306,1.09699877710342,0.113799037391353,3.09774175537372,0.5,82.921255902592
CBC_1110,CBC_1110_MSI_TV_v3_Vset6_Tset1_2024-08-25_14h42.34.932.csv,2,33,1,0,b,1,0,1,tac,B,63,1,1B,0B,1,0,b,2.25516220000191,1,0,1,1,1B,0B,B10,2.77258872223978,0.999592716375166,0.0466959253458471,0.0466959253458471,0.0466959253458471,0.00436101888780985,0.99996196302852,0.5,0.5,0.5,0.5,0.999999668240098,0.00436101888780985,0.0466959253458471,0.0466959253458471,0.00436101888780985,0.99996196302852,0.995657752569309,0.00434224743069075,0.99996196302852,0.00436101888780985,0.208075008097834,0.586961910142435,3.8036971479638e-05,3.44846283184474e-05,0.5,0.906608149308306,1.09699877710342,0.113799037391353,3.09774175537372,0.5,82.921255902592
CBC_1110,CBC_1110_MSI_TV_v3_Vset6_Tset1_2024-08-25_14h42.34.932.csv,2,34,0,1,b,1,0,2,tac,A,63,0,0A,1A,0,1,z,3.78204140000071,0,1,0,1,1A,0A,A01,2.50552593699074,0.999592716375166,0.0466959253458471,0.0466959253458471,0.0466959253458471,0.00436101888780985,0.999996447656839,0.5,0.5,0.5,0.5,0.999999668240098,0.00436101888780985,0.0466959253458471,0.0466959253458471,0.00436101888780985,0.99996196302852,0.0446300604669073,0.955369939533093,0.0466959253458471,0.999592716375166,0.0689215207386423,0.419438924998091,0.953304074654153,0.864273242850269,0.5,0.906608149308306,1.09699877710342,0.113799037391353,3.09774175537372,0.5,82.921255902592
CBC_1110,CBC_1110_MSI_TV_v3_Vset6_Tset1_2024-08-25_14h42.34.932.csv,2,35,3,2,z,0,1,3,tac,C,63,1,3C,2C,0,1,z,3.29576759999964,0,1,1,1,2C,3C,C32,2.81341071676004,0.999592716375166,0.910969168196116,0.0466959253458471,0.0466959253458471,0.00436101888780985,0.999996447656839,0.5,0.5,0.5,0.5,0.999999668240098,0.00436101888780985,0.0466959253458471,0.0466959253458471,0.00436101888780985,0.99996196302852,0.995657915583812,0.0043420844161879,0.999999668240098,0.00436101888780985,0.124096003048004,0.586637907136798,3.31759902105766e-07,3.00776230862813e-07,0.5,0.906608149308306,1.09699877710342,0.113799037391353,3.09774175537372,0.5,82.921255902592
CBC_1110,CBC_1110_MSI_TV_v3_Vset6_Tset1_2024-08-25_14h42.34.932.csv,2,36,2,0,z,0,1,2,tac,A,27,1,2A,0A,0,1,z,3.12522680000166,0,1,1,1,0A,2A,A20,2.83321334405622,0.999592716375166,0.910969168196116,0.0466959253458471,0.0466959253458471,0.00436101888780985,0.999996447656839,0.5,0.5,0.5,0.5,0.999999969016329,0.00436101888780985,0.0466959253458471,0.0466959253458471,0.00436101888780985,0.99996196302852,0.955369939533093,0.0446300604669073,0.999592716375166,0.0466959253458471,0.134013712857803,0.580095371178299,0.000407283624833998,0.00036924665335433,0.5,0.906608149308306,1.09699877710342,0.113799037391353,3.09774175537372,0.5,82.921255902592
CBC_1110,CBC_1110_MSI_TV_v3_Vset6_Tset1_2024-08-25_14h42.34.932.csv,2,37,1,0,b,1,0,1,tac,B,63,1,1B,0B,1,0,z,3.51054319999912,0,1,0,0,0B,1B,B10,2.56494935746154,0.99996196302852,0.910969168196116,0.0466959253458471,0.0466959253458471,0.00436101888780985,0.999996447656839,0.5,0.5,0.5,0.5,0.999999969016329,0.00436101888780985,0.0466959253458471,0.0466959253458471,0.00436101888780985,0.99996196302852,0.00434209833956164,0.995657901660438,0.00436101888780985,0.999996447656839,0.078293531256278,0.413818829053497,-0.00436101888780985,-0.00395373526297586,0.5,0.906608149308306,1.09699877710342,0.113799037391353,3.09774175537372,0.5,82.921255902592
CBC_1110,CBC_1110_MSI_TV_v3_Vset6_Tset1_2024-08-25_14h42.34.932.csv,2,38,3,2,b,1,0,0,tac,D,63,1,3D,2D,1,0,z,2.5385367000008,0,1,0,0,2D,3D,D32,2.87167962488401,0.99996196302852,0.910969168196116,0.0466959253458471,0.0466959253458471,0.000407283624833997,0.999996447656839,0.5,0.5,0.5,0.5,0.999999969016329,0.00436101888780985,0.0466959253458471,0.0466959253458471,0.00436101888780985,0.99996196302852,0.00434224743069075,0.995657752569309,0.00436101888780985,0.99996196302852,0.128380323899989,0.412234817018327,-0.00436101888780985,-0.00395373526297586,0.5,0.906608149308306,1.09699877710342,0.113799037391353,3.09774175537372,0.5,82.921255902592
CBC_1110,CBC_1110_MSI_TV_v3_Vset6_Tset1_2024-08-25_14h42.34.932.csv,2,39,2,1,z,0,1,1,tac,B,9,1,2B,1B,0,1,b,2.88689819999945,1,0,0,0,2B,1B,B21,3.98898404656427,0.99996196302852,0.910969168196116,0.0466959253458471,0.0466959253458471,0.000407283624833997,0.999996447656839,0.5,0.5,0.5,0.5,0.999999969016329,0.00436101888780985,0.0466959253458471,0.0466959253458471,0.000407283624833997,0.99996196302852,0.333334122744794,0.666665877255206,0.5,0.999996447656839,0.122799161254891,0.471527745646644,-0.5,-0.453304074654153,0.5,0.906608149308306,1.09699877710342,0.113799037391353,3.09774175537372,0.5,82.921255902592
CBC_1110,CBC_1110_MSI_TV_v3_Vset6_Tset1_2024-08-25_14h42.34.932.csv,2,40,3,1,b,1,0,0,tac,D,27,1,3D,1D,NaN,NaN,None,NaN,NaN,NaN,NaN,NaN,,,D31,4.00733318523247,0.99996196302852,0.910969168196116,0.0466959253458471,0.0466959253458471,0.000407283624833997,0.999996447656839,0.0466959253458471,0.5,0.5,0.5,0.999999969016329,0.00436101888780985,0.0466959253458471,0.0466959253458471,0.000407283624833997,0.99996196302852,0,0,0,0,NaN,0,0,0,0.5,0.906608149308306,1.09699877710342,0.113799037391353,3.09774175537372,0.5,82.921255902592
CBC_1110,CBC_1110_MSI_TV_v3_Vset6_Tset1_2024-08-25_14h42.34.932.csv,2,41,0,1,b,1,0,2,tac,A,63,1,0A,1A,NaN,NaN,None,NaN,NaN,NaN,NaN,NaN,,,A01,2.41591377830105,0.99996196302852,0.910969168196116,0.0466959253458471,0.0466959253458471,0.000407283624833997,0.999996447656839,0.0466959253458471,0.5,0.5,0.5,0.999999969016329,0.00436101888780985,0.0466959253458471,0.0466959253458471,0.000407283624833997,0.99996196302852,0,0,0,0,NaN,0,0,0,0.5,0.906608149308306,1.09699877710342,0.113799037391353,3.09774175537372,0.5,82.921255902592
CBC_1110,CBC_1110_MSI_TV_v3_Vset6_Tset1_2024-08-25_14h42.34.932.csv,2,42,1,0,z,0,1,2,tac,A,63,1,1A,0A,0,1,z,1.50014430000101,0,1,1,1,0A,1A,A10,3.3499040872746,0.99996196302852,0.910969168196116,0.0466959253458471,0.0466959253458471,0.000407283624833997,0.999996447656839,0.0466959253458471,0.5,0.5,0.5,0.999999969016329,0.00436101888780985,0.0466959253458471,0.0466959253458471,0.000407283624833997,0.99996196302852,0.523285191543081,0.476714808456919,0.99996196302852,0.910969168196116,0.12403504995172,0.503446118097878,3.8036971479638e-05,3.44846283184474e-05,0.5,0.906608149308306,1.09699877710342,0.113799037391353,3.09774175537372,0.5,82.921255902592
CBC_1110,CBC_1110_MSI_TV_v3_Vset6_Tset1_2024-08-25_14h42.34.932.csv,2,43,0,2,z,0,1,3,tac,C,27,1,0C,2C,0,1,z,2.65187509999942,0,1,1,1,2C,0C,C02,2.96183072187831,0.999996447656839,0.910969168196116,0.0466959253458471,0.0466959253458471,0.000407283624833997,0.999996447656839,0.0466959253458471,0.5,0.5,0.5,0.999999969016329,0.00436101888780985,0.0466959253458471,0.0466959253458471,0.000407283624833997,0.99996196302852,0.666666659781406,0.333333340218594,0.999999969016329,0.5,0.155061534423314,0.529170103418159,3.09836712952816e-08,2.80900488917921e-08,0.5,0.906608149308306,1.09699877710342,0.113799037391353,3.09774175537372,0.5,82.921255902592
CBC_1110,CBC_1110_MSI_TV_v3_Vset6_Tset1_2024-08-25_14h42.34.932.csv,2,44,1,0,b,1,0,1,tac,B,63,1,1B,0B,1,0,z,4.24580610000066,0,1,0,0,0B,1B,B10,2.46809953147162,0.999996447656839,0.910969168196116,0.0466959253458471,0.0466959253458471,0.000407283624833997,0.999996447656839,0.0466959253458471,0.5,0.5,0.5,0.999999997106378,0.00436101888780985,0.0466959253458471,0.0466959253458471,0.000407283624833997,0.99996196302852,0.000407119258054149,0.999592880741946,0.000407283624833997,0.999996447656839,0.053322912765536,0.413235004403564,-0.000407283624833997,-0.000369246653354328,0.5,0.906608149308306,1.09699877710342,0.113799037391353,3.09774175537372,0.5,82.921255902592
