ID,filename,session,trial,visStimLeft,visStimRight,correctKey,leftCorrect,rightCorrect,secondStim,mod2Type,mod2Stim,frequency,rewardAccurate,stimPairLeft,stimPairRight,pCorrectLeft,pCorrectRight,key,reactionTime,choiceLeft,choiceRight,choiceAccurate,reward,chosenPair,otherPair,triplet,surprise,0A belief,1A belief,2A belief,3A belief,0B belief,1B belief,2B belief,3B belief,0C belief,1C belief,2C belief,3C belief,0D belief,1D belief,2D belief,3D belief,beliefPairNorm,beliefOtherPairNorm,beliefPair,beliefOtherPair,lik,corrLik,rewardPE,update2,fitCBCsimpleRW_CBCdriftDiffusionLR_startBelief,fitCBCsimpleRW_CBCdriftDiffusionLR_alpha1,fitCBCsimpleRW_CBCdriftDiffusionLR_nonDecisionTime,fitCBCsimpleRW_CBCdriftDiffusionLR_weight,fitCBCsimpleRW_CBCdriftDiffusionLR_startingBoundary,fitCBCsimpleRW_CBCdriftDiffusionLR_startingPoint,fit_CBCsimpleRW_CBCdriftDiffusionLR_NLL
CBC_1024,CBC_1024_MSI_TV_v3_Vset3_Tset1_2023-07-05_15h02.58.307.csv,1,1,0,1,z,0,1,2,tac,B,63,1,0B,1B,0,1,b,1.60864320000019,1,0,0,0,0B,1B,B01,2.77258872223978,0.5,0.5,0.5,0.5,0.5,0.5,0.5,0.5,0.5,0.5,0.5,0.5,0.5,0.5,0.5,0.5,0.5,0.5,0.5,0.5,0.159142484293692,0.499951785121792,-0.5,-0.328280596147141,0.5,0.656561192294281,1.09957255273124,0.646057783819762,3.10851334545022,0.5,88.1599573728578
CBC_1024,CBC_1024_MSI_TV_v3_Vset3_Tset1_2023-07-05_15h02.58.307.csv,1,2,0,1,b,1,0,3,tac,A,63,1,0A,1A,1,0,b,3.02417049999985,1,0,1,1,0A,1A,A01,2.83321334405622,0.5,0.5,0.5,0.5,0.171719403852859,0.5,0.5,0.5,0.5,0.5,0.5,0.5,0.5,0.5,0.5,0.5,0.5,0.5,0.5,0.5,0.121523093777827,0.499975809014472,0.5,0.328280596147141,0.5,0.656561192294281,1.09957255273124,0.646057783819762,3.10851334545022,0.5,88.1599573728578
CBC_1024,CBC_1024_MSI_TV_v3_Vset3_Tset1_2023-07-05_15h02.58.307.csv,1,3,2,3,z,0,1,0,tac,D,63,1,2D,3D,0,1,b,2.47436069999912,1,0,0,0,2D,3D,D23,2.89037175789616,0.828280596147141,0.5,0.5,0.5,0.171719403852859,0.5,0.5,0.5,0.5,0.5,0.5,0.5,0.5,0.5,0.5,0.5,0.5,0.5,0.5,0.5,0.159286464694149,0.499789187071984,-0.5,-0.328280596147141,0.5,0.656561192294281,1.09957255273124,0.646057783819762,3.10851334545022,0.5,88.1599573728578
CBC_1024,CBC_1024_MSI_TV_v3_Vset3_Tset1_2023-07-05_15h02.58.307.csv,1,4,2,1,z,0,1,2,tac,B,9,1,2B,1B,0,1,b,2.57942209999965,1,0,0,0,2B,1B,B21,2.94443897916644,0.828280596147141,0.5,0.5,0.5,0.171719403852859,0.5,0.5,0.5,0.5,0.5,0.5,0.5,0.5,0.5,0.171719403852859,0.5,0.5,0.5,0.5,0.5,0.151677095673806,0.500220608287726,-0.5,-0.328280596147141,0.5,0.656561192294281,1.09957255273124,0.646057783819762,3.10851334545022,0.5,88.1599573728578
CBC_1024,CBC_1024_MSI_TV_v3_Vset3_Tset1_2023-07-05_15h02.58.307.csv,1,5,0,2,b,1,0,3,tac,A,27,1,0A,2A,1,0,b,3.19657709999956,1,0,1,1,0A,2A,A02,2.99573227355399,0.828280596147141,0.5,0.5,0.5,0.171719403852859,0.5,0.171719403852859,0.5,0.5,0.5,0.5,0.5,0.5,0.5,0.171719403852859,0.5,0.623573511914336,0.376426488085664,0.828280596147141,0.5,0.138833466996942,0.621087936782224,0.171719403852859,0.112744296533697,0.5,0.656561192294281,1.09957255273124,0.646057783819762,3.10851334545022,0.5,88.1599573728578
CBC_1024,CBC_1024_MSI_TV_v3_Vset3_Tset1_2023-07-05_15h02.58.307.csv,1,6,2,3,b,1,0,1,tac,C,63,1,2C,3C,1,0,z,5.15493020000031,0,1,0,0,3C,2C,C23,3.04452243772342,0.941024892680837,0.5,0.5,0.5,0.171719403852859,0.5,0.171719403852859,0.5,0.5,0.5,0.5,0.5,0.5,0.5,0.171719403852859,0.5,0.5,0.5,0.5,0.5,0.0409609032219335,0.499743034409702,-0.5,-0.328280596147141,0.5,0.656561192294281,1.09957255273124,0.646057783819762,3.10851334545022,0.5,88.1599573728578
CBC_1024,CBC_1024_MSI_TV_v3_Vset3_Tset1_2023-07-05_15h02.58.307.csv,1,7,1,3,z,0,1,0,tac,D,27,1,1D,3D,0,1,z,2.69876219999969,0,1,1,1,3D,1D,D13,3.09104245335832,0.941024892680837,0.5,0.5,0.5,0.171719403852859,0.5,0.171719403852859,0.5,0.5,0.5,0.5,0.171719403852859,0.5,0.5,0.171719403852859,0.5,0.5,0.5,0.5,0.5,0.142849616178561,0.499335459368971,0.5,0.328280596147141,0.5,0.656561192294281,1.09957255273124,0.646057783819762,3.10851334545022,0.5,88.1599573728578
CBC_1024,CBC_1024_MSI_TV_v3_Vset3_Tset1_2023-07-05_15h02.58.307.csv,1,8,1,0,z,0,1,3,tac,A,63,1,1A,0A,0,1,b,3.71164169999975,1,0,0,0,1A,0A,A10,3.13549421592915,0.941024892680837,0.5,0.5,0.5,0.171719403852859,0.5,0.171719403852859,0.5,0.5,0.5,0.5,0.171719403852859,0.5,0.5,0.171719403852859,0.828280596147141,0.34697526915709,0.65302473084291,0.5,0.941024892680837,0.0598391118807956,0.350964928856833,-0.5,-0.328280596147141,0.5,0.656561192294281,1.09957255273124,0.646057783819762,3.10851334545022,0.5,88.1599573728578
CBC_1024,CBC_1024_MSI_TV_v3_Vset3_Tset1_2023-07-05_15h02.58.307.csv,1,9,2,0,b,1,0,1,tac,C,27,1,2C,0C,1,0,b,3.97409349999998,1,0,1,1,2C,0C,C20,3.17805383034795,0.941024892680837,0.171719403852859,0.5,0.5,0.171719403852859,0.5,0.171719403852859,0.5,0.5,0.5,0.5,0.171719403852859,0.5,0.5,0.171719403852859,0.828280596147141,0.5,0.5,0.5,0.5,0.0746969144216122,0.498641753288563,0.5,0.328280596147141,0.5,0.656561192294281,1.09957255273124,0.646057783819762,3.10851334545022,0.5,88.1599573728578
CBC_1024,CBC_1024_MSI_TV_v3_Vset3_Tset1_2023-07-05_15h02.58.307.csv,1,10,2,3,z,0,1,0,tac,D,63,1,2D,3D,0,1,z,3.86099769999964,0,1,1,1,3D,2D,D23,2.52572864430826,0.941024892680837,0.171719403852859,0.5,0.5,0.171719403852859,0.5,0.171719403852859,0.5,0.5,0.5,0.828280596147141,0.171719403852859,0.5,0.5,0.171719403852859,0.828280596147141,0.828280596147141,0.171719403852859,0.828280596147141,0.171719403852859,0.11977424832109,0.79010008724915,0.171719403852859,0.112744296533697,0.5,0.656561192294281,1.09957255273124,0.646057783819762,3.10851334545022,0.5,88.1599573728578
CBC_1024,CBC_1024_MSI_TV_v3_Vset3_Tset1_2023-07-05_15h02.58.307.csv,1,11,1,0,b,1,0,2,tac,B,63,1,1B,0B,1,0,b,3.76205759999993,1,0,1,1,1B,0B,B10,3.25809653802148,0.941024892680837,0.171719403852859,0.5,0.5,0.171719403852859,0.5,0.171719403852859,0.5,0.5,0.5,0.828280596147141,0.171719403852859,0.5,0.5,0.171719403852859,0.941024892680837,0.744358428730943,0.255641571269057,0.5,0.171719403852859,0.119439112015376,0.727718853881413,0.5,0.328280596147141,0.5,0.656561192294281,1.09957255273124,0.646057783819762,3.10851334545022,0.5,88.1599573728578
CBC_1024,CBC_1024_MSI_TV_v3_Vset3_Tset1_2023-07-05_15h02.58.307.csv,1,12,0,1,b,1,0,3,tac,A,63,1,0A,1A,1,0,b,2.69777209999938,1,0,1,1,0A,1A,A01,2.60268968544438,0.941024892680837,0.171719403852859,0.5,0.5,0.171719403852859,0.828280596147141,0.171719403852859,0.5,0.5,0.5,0.828280596147141,0.171719403852859,0.5,0.5,0.171719403852859,0.941024892680837,0.845679367319355,0.154320632680645,0.941024892680837,0.171719403852859,0.244135311805396,0.799938330728807,0.0589751073191629,0.0387207667771528,0.5,0.656561192294281,1.09957255273124,0.646057783819762,3.10851334545022,0.5,88.1599573728578
CBC_1024,CBC_1024_MSI_TV_v3_Vset3_Tset1_2023-07-05_15h02.58.307.csv,1,13,2,3,z,0,1,0,tac,D,63,1,2D,3D,0,1,z,3.30536570000004,0,1,1,1,3D,2D,D23,2.23359222150709,0.97974565945799,0.171719403852859,0.5,0.5,0.171719403852859,0.828280596147141,0.171719403852859,0.5,0.5,0.5,0.828280596147141,0.171719403852859,0.5,0.5,0.171719403852859,0.941024892680837,0.845679367319355,0.154320632680645,0.941024892680837,0.171719403852859,0.169237455480254,0.80014936025336,0.0589751073191629,0.0387207667771528,0.5,0.656561192294281,1.09957255273124,0.646057783819762,3.10851334545022,0.5,88.1599573728578
CBC_1024,CBC_1024_MSI_TV_v3_Vset3_Tset1_2023-07-05_15h02.58.307.csv,1,14,2,0,b,1,0,1,tac,C,27,1,2C,0C,1,0,z,4.11698030000025,0,1,0,0,0C,2C,C20,2.67414864942653,0.97974565945799,0.171719403852859,0.5,0.5,0.171719403852859,0.828280596147141,0.171719403852859,0.5,0.5,0.5,0.828280596147141,0.171719403852859,0.5,0.5,0.171719403852859,0.97974565945799,0.376426488085664,0.623573511914336,0.5,0.828280596147141,0.0523050843059274,0.37859141899221,-0.5,-0.328280596147141,0.5,0.656561192294281,1.09957255273124,0.646057783819762,3.10851334545022,0.5,88.1599573728578
CBC_1024,CBC_1024_MSI_TV_v3_Vset3_Tset1_2023-07-05_15h02.58.307.csv,1,15,0,1,b,1,0,3,tac,A,63,1,0A,1A,1,0,b,2.39689079999971,1,0,1,1,0A,1A,A01,2.30258509299405,0.97974565945799,0.171719403852859,0.5,0.5,0.171719403852859,0.828280596147141,0.171719403852859,0.5,0.171719403852859,0.5,0.828280596147141,0.171719403852859,0.5,0.5,0.171719403852859,0.97974565945799,0.850868767690521,0.149131232309479,0.97974565945799,0.171719403852859,0.292656021891177,0.804213674471638,0.0202543405420101,0.0132982139753966,0.5,0.656561192294281,1.09957255273124,0.646057783819762,3.10851334545022,0.5,88.1599573728578
CBC_1024,CBC_1024_MSI_TV_v3_Vset3_Tset1_2023-07-05_15h02.58.307.csv,1,16,1,3,b,1,0,2,tac,B,27,1,1B,3B,1,0,b,3.16773919999923,1,0,1,1,1B,3B,B13,3.43398720448515,0.993043873433386,0.171719403852859,0.5,0.5,0.171719403852859,0.828280596147141,0.171719403852859,0.5,0.171719403852859,0.5,0.828280596147141,0.171719403852859,0.5,0.5,0.171719403852859,0.97974565945799,0.623573511914336,0.376426488085664,0.828280596147141,0.5,0.141002299657221,0.621374878887119,0.171719403852859,0.112744296533697,0.5,0.656561192294281,1.09957255273124,0.646057783819762,3.10851334545022,0.5,88.1599573728578
CBC_1024,CBC_1024_MSI_TV_v3_Vset3_Tset1_2023-07-05_15h02.58.307.csv,1,17,3,2,z,0,1,1,tac,C,63,1,3C,2C,0,1,b,2.64555329999985,1,0,0,0,3C,2C,C32,3.46573590279973,0.993043873433386,0.171719403852859,0.5,0.5,0.171719403852859,0.941024892680837,0.171719403852859,0.5,0.171719403852859,0.5,0.828280596147141,0.171719403852859,0.5,0.5,0.171719403852859,0.97974565945799,0.171719403852859,0.828280596147141,0.171719403852859,0.828280596147141,0.0660909454957744,0.211095767129159,-0.171719403852859,-0.112744296533697,0.5,0.656561192294281,1.09957255273124,0.646057783819762,3.10851334545022,0.5,88.1599573728578
CBC_1024,CBC_1024_MSI_TV_v3_Vset3_Tset1_2023-07-05_15h02.58.307.csv,1,18,2,3,z,0,1,0,tac,D,63,0,2D,3D,1,0,z,1.89740309999979,0,1,1,0,3D,2D,D23,2.11021320034659,0.993043873433386,0.171719403852859,0.5,0.5,0.171719403852859,0.941024892680837,0.171719403852859,0.5,0.171719403852859,0.5,0.828280596147141,0.0589751073191629,0.5,0.5,0.171719403852859,0.97974565945799,0.850868767690521,0.149131232309479,0.97974565945799,0.171719403852859,0.356360015835134,0.803089930922025,-0.97974565945799,-0.643262978318885,0.5,0.656561192294281,1.09957255273124,0.646057783819762,3.10851334545022,0.5,88.1599573728578
CBC_1024,CBC_1024_MSI_TV_v3_Vset3_Tset1_2023-07-05_15h02.58.307.csv,1,19,1,0,b,1,0,2,tac,B,63,1,1B,0B,1,0,b,2.49657580000076,1,0,1,1,1B,0B,B10,2.83321334405622,0.993043873433386,0.171719403852859,0.5,0.5,0.171719403852859,0.941024892680837,0.171719403852859,0.5,0.171719403852859,0.5,0.828280596147141,0.0589751073191629,0.5,0.5,0.171719403852859,0.336482681139105,0.845679367319355,0.154320632680645,0.941024892680837,0.171719403852859,0.27441994305752,0.799838621532008,0.0589751073191629,0.0387207667771528,0.5,0.656561192294281,1.09957255273124,0.646057783819762,3.10851334545022,0.5,88.1599573728578
CBC_1024,CBC_1024_MSI_TV_v3_Vset3_Tset1_2023-07-05_15h02.58.307.csv,1,20,2,0,z,0,1,3,tac,A,27,1,2A,0A,0,1,z,2.05859719999989,0,1,1,1,0A,2A,A20,3.55534806148941,0.993043873433386,0.171719403852859,0.5,0.5,0.171719403852859,0.97974565945799,0.171719403852859,0.5,0.171719403852859,0.5,0.828280596147141,0.0589751073191629,0.5,0.5,0.171719403852859,0.336482681139105,0.665113658816867,0.334886341183133,0.993043873433386,0.5,0.255952928503061,0.661135437967762,0.0069561265666136,0.00456712275232575,0.5,0.656561192294281,1.09957255273124,0.646057783819762,3.10851334545022,0.5,88.1599573728578
CBC_1024,CBC_1024_MSI_TV_v3_Vset3_Tset1_2023-07-05_15h02.58.307.csv,1,21,0,3,z,0,1,0,tac,D,9,1,0D,3D,0,1,z,2.47658630000024,0,1,1,1,3D,0D,D03,3.58351893845611,0.997610996185712,0.171719403852859,0.5,0.5,0.171719403852859,0.97974565945799,0.171719403852859,0.5,0.171719403852859,0.5,0.828280596147141,0.0589751073191629,0.5,0.5,0.171719403852859,0.336482681139105,0.402258993193846,0.597741006806154,0.336482681139105,0.5,0.129237105408318,0.402590697117757,0.663517318860895,0.435639721979214,0.5,0.656561192294281,1.09957255273124,0.646057783819762,3.10851334545022,0.5,88.1599573728578
CBC_1024,CBC_1024_MSI_TV_v3_Vset3_Tset1_2023-07-05_15h02.58.307.csv,1,22,2,3,b,1,0,1,tac,C,63,1,2C,3C,1,0,b,3.57492009999896,1,0,1,1,2C,3C,C23,2.91777073208428,0.997610996185712,0.171719403852859,0.5,0.5,0.171719403852859,0.97974565945799,0.171719403852859,0.5,0.171719403852859,0.5,0.828280596147141,0.0589751073191629,0.5,0.5,0.171719403852859,0.772122403118319,0.933530878315281,0.0664691216847192,0.828280596147141,0.0589751073191629,0.148725994774999,0.850637961627512,0.171719403852859,0.112744296533697,0.5,0.656561192294281,1.09957255273124,0.646057783819762,3.10851334545022,0.5,88.1599573728578
CBC_1024,CBC_1024_MSI_TV_v3_Vset3_Tset1_2023-07-05_15h02.58.307.csv,1,23,3,1,z,0,1,2,tac,B,27,1,3B,1B,0,1,z,2.9683028999998,0,1,1,1,1B,3B,B31,3.63758615972639,0.997610996185712,0.171719403852859,0.5,0.5,0.171719403852859,0.97974565945799,0.171719403852859,0.5,0.171719403852859,0.5,0.941024892680837,0.0589751073191629,0.5,0.5,0.171719403852859,0.772122403118319,0.662104094170384,0.337895905829616,0.97974565945799,0.5,0.165964488248375,0.656553142001806,0.0202543405420101,0.0132982139753966,0.5,0.656561192294281,1.09957255273124,0.646057783819762,3.10851334545022,0.5,88.1599573728578
CBC_1024,CBC_1024_MSI_TV_v3_Vset3_Tset1_2023-07-05_15h02.58.307.csv,1,24,3,2,z,0,1,1,tac,C,63,1,3C,2C,0,1,z,4.71947979999914,0,1,1,1,2C,3C,C32,2.9704144655697,0.997610996185712,0.171719403852859,0.5,0.5,0.171719403852859,0.993043873433386,0.171719403852859,0.5,0.171719403852859,0.5,0.941024892680837,0.0589751073191629,0.5,0.5,0.171719403852859,0.772122403118319,0.941024892680837,0.0589751073191629,0.941024892680837,0.0589751073191629,0.0689714383321368,0.854455845869741,0.0589751073191629,0.0387207667771528,0.5,0.656561192294281,1.09957255273124,0.646057783819762,3.10851334545022,0.5,88.1599573728578
CBC_1024,CBC_1024_MSI_TV_v3_Vset3_Tset1_2023-07-05_15h02.58.307.csv,1,25,2,3,z,0,1,0,tac,D,63,1,2D,3D,0,1,z,3.03678779999973,0,1,1,1,3D,2D,D23,2.07944154167984,0.997610996185712,0.171719403852859,0.5,0.5,0.171719403852859,0.993043873433386,0.171719403852859,0.5,0.171719403852859,0.5,0.97974565945799,0.0589751073191629,0.5,0.5,0.171719403852859,0.772122403118319,0.818063363389345,0.181936636610655,0.772122403118319,0.171719403852859,0.194205103423048,0.78201730546984,0.227877596881681,0.149615586705792,0.5,0.656561192294281,1.09957255273124,0.646057783819762,3.10851334545022,0.5,88.1599573728578
CBC_1024,CBC_1024_MSI_TV_v3_Vset3_Tset1_2023-07-05_15h02.58.307.csv,1,26,1,0,b,1,0,2,tac,B,63,1,1B,0B,1,0,z,3.6252285999999,0,1,0,0,0B,1B,B10,2.6149597780362,0.997610996185712,0.171719403852859,0.5,0.5,0.171719403852859,0.993043873433386,0.171719403852859,0.5,0.171719403852859,0.5,0.97974565945799,0.0589751073191629,0.5,0.5,0.171719403852859,0.921737989824111,0.147428586736478,0.852571413263522,0.171719403852859,0.993043873433386,0.0340433706940211,0.1959090868072,-0.171719403852859,-0.112744296533697,0.5,0.656561192294281,1.09957255273124,0.646057783819762,3.10851334545022,0.5,88.1599573728578
CBC_1024,CBC_1024_MSI_TV_v3_Vset3_Tset1_2023-07-05_15h02.58.307.csv,1,27,0,3,b,1,0,3,tac,A,9,1,0A,3A,1,0,z,3.09589289999985,0,1,0,0,3A,0A,A03,3.73766961828337,0.997610996185712,0.171719403852859,0.5,0.5,0.0589751073191629,0.993043873433386,0.171719403852859,0.5,0.171719403852859,0.5,0.97974565945799,0.0589751073191629,0.5,0.5,0.171719403852859,0.921737989824111,0.333865069950379,0.666134930049621,0.5,0.997610996185712,0.080331700941341,0.339803150402928,-0.5,-0.328280596147141,0.5,0.656561192294281,1.09957255273124,0.646057783819762,3.10851334545022,0.5,88.1599573728578
CBC_1024,CBC_1024_MSI_TV_v3_Vset3_Tset1_2023-07-05_15h02.58.307.csv,1,28,2,3,z,0,1,0,tac,D,63,1,2D,3D,0,1,z,1.70505909999974,0,1,1,1,3D,2D,D23,1.96944064646551,0.997610996185712,0.171719403852859,0.5,0.171719403852859,0.0589751073191629,0.993043873433386,0.171719403852859,0.5,0.171719403852859,0.5,0.97974565945799,0.0589751073191629,0.5,0.5,0.171719403852859,0.921737989824111,0.84295738924457,0.15704261075543,0.921737989824111,0.171719403852859,0.336068380420007,0.79877184908876,0.078262010175889,0.0513837987124288,0.5,0.656561192294281,1.09957255273124,0.646057783819762,3.10851334545022,0.5,88.1599573728578
CBC_1024,CBC_1024_MSI_TV_v3_Vset3_Tset1_2023-07-05_15h02.58.307.csv,1,29,2,0,b,1,0,1,tac,C,27,1,2C,0C,1,0,b,2.59607629999937,1,0,1,1,2C,0C,C20,2.68557734525015,0.997610996185712,0.171719403852859,0.5,0.171719403852859,0.0589751073191629,0.993043873433386,0.171719403852859,0.5,0.171719403852859,0.5,0.97974565945799,0.0589751073191629,0.5,0.5,0.171719403852859,0.97312178853654,0.850868767690521,0.149131232309479,0.97974565945799,0.171719403852859,0.260862146925356,0.803578090953525,0.0202543405420101,0.0132982139753966,0.5,0.656561192294281,1.09957255273124,0.646057783819762,3.10851334545022,0.5,88.1599573728578
CBC_1024,CBC_1024_MSI_TV_v3_Vset3_Tset1_2023-07-05_15h02.58.307.csv,1,30,1,0,z,0,1,3,tac,A,63,1,1A,0A,0,1,b,3.05066319999969,1,0,0,0,1A,0A,A10,3.11351530921037,0.997610996185712,0.171719403852859,0.5,0.171719403852859,0.0589751073191629,0.993043873433386,0.171719403852859,0.5,0.171719403852859,0.5,0.993043873433386,0.0589751073191629,0.5,0.5,0.171719403852859,0.97312178853654,0.146852766204654,0.853147233795346,0.171719403852859,0.997610996185712,0.0480742430767672,0.194577391564087,-0.171719403852859,-0.112744296533697,0.5,0.656561192294281,1.09957255273124,0.646057783819762,3.10851334545022,0.5,88.1599573728578
CBC_1024,CBC_1024_MSI_TV_v3_Vset3_Tset1_2023-07-05_15h02.58.307.csv,1,31,1,0,b,1,0,2,tac,B,63,1,1B,0B,1,0,b,2.11603370000012,1,0,1,1,1B,0B,B10,2.4423470353692,0.997610996185712,0.0589751073191629,0.5,0.171719403852859,0.0589751073191629,0.993043873433386,0.171719403852859,0.5,0.171719403852859,0.5,0.993043873433386,0.0589751073191629,0.5,0.5,0.171719403852859,0.97312178853654,0.943941023500379,0.0560589764996215,0.993043873433386,0.0589751073191629,0.380391984863511,0.856108910374498,0.0069561265666136,0.00456712275232575,0.5,0.656561192294281,1.09957255273124,0.646057783819762,3.10851334545022,0.5,88.1599573728578
CBC_1024,CBC_1024_MSI_TV_v3_Vset3_Tset1_2023-07-05_15h02.58.307.csv,1,32,3,1,b,1,0,0,tac,D,27,1,3D,1D,1,0,b,4.7946138999996,1,0,1,1,3D,1D,D31,3.85014760171006,0.997610996185712,0.0589751073191629,0.5,0.171719403852859,0.0589751073191629,0.997610996185712,0.171719403852859,0.5,0.171719403852859,0.5,0.993043873433386,0.0589751073191629,0.5,0.5,0.171719403852859,0.97312178853654,0.660584750092712,0.339415249907287,0.97312178853654,0.5,0.0627859409709455,0.65555352238501,0.0268782114634601,0.0176471905651872,0.5,0.656561192294281,1.09957255273124,0.646057783819762,3.10851334545022,0.5,88.1599573728578
CBC_1024,CBC_1024_MSI_TV_v3_Vset3_Tset1_2023-07-05_15h02.58.307.csv,1,33,3,2,z,0,1,1,tac,C,63,1,3C,2C,0,1,b,2.80866679999963,1,0,0,0,3C,2C,C32,2.77258872223978,0.997610996185712,0.0589751073191629,0.5,0.171719403852859,0.0589751073191629,0.997610996185712,0.171719403852859,0.5,0.171719403852859,0.5,0.993043873433386,0.0589751073191629,0.5,0.5,0.171719403852859,0.990768979101727,0.0560589764996215,0.943941023500379,0.0589751073191629,0.993043873433386,0.0418132093834293,0.143522959810757,-0.0589751073191629,-0.0387207667771528,0.5,0.656561192294281,1.09957255273124,0.646057783819762,3.10851334545022,0.5,88.1599573728578
CBC_1024,CBC_1024_MSI_TV_v3_Vset3_Tset1_2023-07-05_15h02.58.307.csv,1,34,1,0,b,1,0,2,tac,B,63,1,1B,0B,1,0,b,1.93156409999938,1,0,1,1,1B,0B,B10,2.28238238567653,0.997610996185712,0.0589751073191629,0.5,0.171719403852859,0.0589751073191629,0.997610996185712,0.171719403852859,0.5,0.171719403852859,0.5,0.993043873433386,0.0202543405420101,0.5,0.5,0.171719403852859,0.990768979101727,0.944183339981917,0.0558166600180832,0.997610996185712,0.0589751073191629,0.407202564508626,0.856334589294759,0.00238900381428786,0.00156852719270442,0.5,0.656561192294281,1.09957255273124,0.646057783819762,3.10851334545022,0.5,88.1599573728578
CBC_1024,CBC_1024_MSI_TV_v3_Vset3_Tset1_2023-07-05_15h02.58.307.csv,1,35,0,1,b,1,0,3,tac,A,63,1,0A,1A,1,0,b,3.21657129999949,1,0,1,1,0A,1A,A01,2.52572864430826,0.997610996185712,0.0589751073191629,0.5,0.171719403852859,0.0589751073191629,0.999179523378417,0.171719403852859,0.5,0.171719403852859,0.5,0.993043873433386,0.0202543405420101,0.5,0.5,0.171719403852859,0.990768979101727,0.944183339981917,0.0558166600180832,0.997610996185712,0.0589751073191629,0.189869657931515,0.85670271127522,0.00238900381428786,0.00156852719270442,0.5,0.656561192294281,1.09957255273124,0.646057783819762,3.10851334545022,0.5,88.1599573728578
CBC_1024,CBC_1024_MSI_TV_v3_Vset3_Tset1_2023-07-05_15h02.58.307.csv,1,36,1,2,z,0,1,1,tac,C,9,1,1C,2C,0,1,b,4.14358640000046,1,0,0,0,1C,2C,C12,3.93182563272433,0.999179523378417,0.0589751073191629,0.5,0.171719403852859,0.0589751073191629,0.999179523378417,0.171719403852859,0.5,0.171719403852859,0.5,0.993043873433386,0.0202543405420101,0.5,0.5,0.171719403852859,0.990768979101727,0.334886341183133,0.665113658816867,0.5,0.993043873433386,0.045999780535625,0.339990609059697,-0.5,-0.328280596147141,0.5,0.656561192294281,1.09957255273124,0.646057783819762,3.10851334545022,0.5,88.1599573728578
CBC_1024,CBC_1024_MSI_TV_v3_Vset3_Tset1_2023-07-05_15h02.58.307.csv,1,37,1,0,z,0,1,3,tac,A,63,1,1A,0A,0,1,b,3.05263090000062,1,0,0,0,1A,0A,A10,2.85263142991332,0.999179523378417,0.0589751073191629,0.5,0.171719403852859,0.0589751073191629,0.999179523378417,0.171719403852859,0.5,0.171719403852859,0.171719403852859,0.993043873433386,0.0202543405420101,0.5,0.5,0.171719403852859,0.990768979101727,0.0557339216861755,0.944266078313825,0.0589751073191629,0.999179523378417,0.0355154749845045,0.143504555738291,-0.0589751073191629,-0.0387207667771528,0.5,0.656561192294281,1.09957255273124,0.646057783819762,3.10851334545022,0.5,88.1599573728578
CBC_1024,CBC_1024_MSI_TV_v3_Vset3_Tset1_2023-07-05_15h02.58.307.csv,1,38,3,1,b,1,0,0,tac,D,27,1,3D,1D,1,0,b,2.61811339999986,1,0,1,1,3D,1D,D31,3.27714473299218,0.999179523378417,0.0202543405420101,0.5,0.171719403852859,0.0589751073191629,0.999179523378417,0.171719403852859,0.5,0.171719403852859,0.171719403852859,0.993043873433386,0.0202543405420101,0.5,0.5,0.171719403852859,0.990768979101727,0.664602626557685,0.335397373442315,0.990768979101727,0.5,0.200218057576484,0.65984798913212,0.00923102089827299,0.00606073008706354,0.5,0.656561192294281,1.09957255273124,0.646057783819762,3.10851334545022,0.5,88.1599573728578
CBC_1024,CBC_1024_MSI_TV_v3_Vset3_Tset1_2023-07-05_15h02.58.307.csv,1,39,0,1,z,0,1,2,tac,B,63,1,0B,1B,0,1,z,2.19094229999973,0,1,1,1,1B,0B,B01,3.29583686600433,0.999179523378417,0.0202543405420101,0.5,0.171719403852859,0.0589751073191629,0.999179523378417,0.171719403852859,0.5,0.171719403852859,0.171719403852859,0.993043873433386,0.0202543405420101,0.5,0.5,0.171719403852859,0.996829709188791,0.944266078313825,0.0557339216861755,0.999179523378417,0.0589751073191629,0.366114824799632,0.855851234420443,0.000820476621583466,0.000538693108916424,0.5,0.656561192294281,1.09957255273124,0.646057783819762,3.10851334545022,0.5,88.1599573728578
CBC_1024,CBC_1024_MSI_TV_v3_Vset3_Tset1_2023-07-05_15h02.58.307.csv,1,40,2,3,b,1,0,1,tac,C,63,0,2C,3C,0,1,b,2.82566680000036,1,0,1,0,2C,3C,C23,2.90872089656436,0.999179523378417,0.0202543405420101,0.5,0.171719403852859,0.0589751073191629,0.999718216487333,0.171719403852859,0.5,0.171719403852859,0.171719403852859,0.993043873433386,0.0202543405420101,0.5,0.5,0.171719403852859,0.996829709188791,0.980011471191143,0.0199885288088566,0.993043873433386,0.0202543405420101,0.252775038488314,0.873327984862605,-0.993043873433386,-0.651994069541955,0.5,0.656561192294281,1.09957255273124,0.646057783819762,3.10851334545022,0.5,88.1599573728578
CBC_1024,CBC_1024_MSI_TV_v3_Vset3_Tset1_2023-07-05_15h02.58.307.csv,1,41,2,0,z,0,1,3,tac,A,27,1,2A,0A,0,1,z,2.55977339999936,0,1,1,1,0A,2A,A20,3.3322045101752,0.999179523378417,0.0202543405420101,0.5,0.171719403852859,0.0589751073191629,0.999718216487333,0.171719403852859,0.5,0.171719403852859,0.171719403852859,0.341049803891431,0.0202543405420101,0.5,0.5,0.171719403852859,0.996829709188791,0.666484238743306,0.333515761256694,0.999179523378417,0.5,0.206414184724253,0.660410096972895,0.000820476621583466,0.000538693108916424,0.5,0.656561192294281,1.09957255273124,0.646057783819762,3.10851334545022,0.5,88.1599573728578
CBC_1024,CBC_1024_MSI_TV_v3_Vset3_Tset1_2023-07-05_15h02.58.307.csv,1,42,3,2,b,1,0,0,tac,D,63,1,3D,2D,1,0,b,2.15758559999904,1,0,1,1,3D,2D,D32,4.04305126783455,0.999718216487333,0.0202543405420101,0.5,0.171719403852859,0.0589751073191629,0.999718216487333,0.171719403852859,0.5,0.171719403852859,0.171719403852859,0.341049803891431,0.0202543405420101,0.5,0.5,0.171719403852859,0.996829709188791,0.853049048656683,0.146950951343317,0.996829709188791,0.171719403852859,0.331202029529122,0.805268249269642,0.00317029081120945,0.00208148991492728,0.5,0.656561192294281,1.09957255273124,0.646057783819762,3.10851334545022,0.5,88.1599573728578
CBC_1024,CBC_1024_MSI_TV_v3_Vset3_Tset1_2023-07-05_15h02.58.307.csv,1,43,3,1,z,0,1,2,tac,B,27,1,3B,1B,0,1,b,2.94464609999977,1,0,0,0,3B,1B,B31,3.36729582998647,0.999718216487333,0.0202543405420101,0.5,0.171719403852859,0.0589751073191629,0.999718216487333,0.171719403852859,0.5,0.171719403852859,0.171719403852859,0.341049803891431,0.0202543405420101,0.5,0.5,0.171719403852859,0.998911199103718,0.333395963657166,0.666604036342834,0.5,0.999718216487333,0.0869089932651242,0.33935265026892,-0.5,-0.328280596147141,0.5,0.656561192294281,1.09957255273124,0.646057783819762,3.10851334545022,0.5,88.1599573728578
CBC_1024,CBC_1024_MSI_TV_v3_Vset3_Tset1_2023-07-05_15h02.58.307.csv,1,44,2,3,b,1,0,1,tac,C,63,1,2C,3C,1,0,b,3.09665009999935,1,0,1,1,2C,3C,C23,2.69124308278583,0.999718216487333,0.0202543405420101,0.5,0.171719403852859,0.0589751073191629,0.999718216487333,0.171719403852859,0.171719403852859,0.171719403852859,0.171719403852859,0.341049803891431,0.0202543405420101,0.5,0.5,0.171719403852859,0.998911199103718,0.943941023500378,0.0560589764996215,0.341049803891431,0.0202543405420101,0.205571120237454,0.855485934856905,0.658950196108569,0.432641126419592,0.5,0.656561192294281,1.09957255273124,0.646057783819762,3.10851334545022,0.5,88.1599573728578
CBC_1024,CBC_1024_MSI_AV_v3_Vset6_Aset3_2023-07-05_15h12.04.977.csv,2,1,1,0,b,1,0,2,aud,B,63,1,1B,0B,1,0,b,2.51695930000005,1,0,1,1,1B,0B,B10,2.77258872223978,0.5,0.5,0.5,0.5,0.5,0.5,0.5,0.5,0.5,0.5,0.5,0.5,0.5,0.5,0.5,0.5,0.5,0.5,0.5,0.5,0.1624698748268,0.49971677624517,0.5,0.00746711660700422,0.5,0.0149342332140084,1.08847429831657,13.136765095034,2.80914750816699,0.5,77.7085849110092
CBC_1024,CBC_1024_MSI_AV_v3_Vset6_Aset3_2023-07-05_15h12.04.977.csv,2,2,0,1,b,1,0,3,aud,A,63,1,0A,1A,1,0,b,1.8277920999999,1,0,1,1,0A,1A,A01,2.83321334405622,0.5,0.5,0.5,0.5,0.5,0.507467116607004,0.5,0.5,0.5,0.5,0.5,0.5,0.5,0.5,0.5,0.5,0.5,0.5,0.5,0.5,0.232377448344705,0.50053120198388,0.5,0.00746711660700422,0.5,0.0149342332140084,1.08847429831657,13.136765095034,2.80914750816699,0.5,77.7085849110092
CBC_1024,CBC_1024_MSI_AV_v3_Vset6_Aset3_2023-07-05_15h12.04.977.csv,2,3,1,2,z,0,1,1,aud,C,9,1,1C,2C,0,1,z,2.34975050000048,0,1,1,1,2C,1C,C12,2.89037175789616,0.507467116607004,0.5,0.5,0.5,0.5,0.507467116607004,0.5,0.5,0.5,0.5,0.5,0.5,0.5,0.5,0.5,0.5,0.5,0.5,0.5,0.5,0.180007911857276,0.500241026250715,0.5,0.00746711660700422,0.5,0.0149342332140084,1.08847429831657,13.136765095034,2.80914750816699,0.5,77.7085849110092
CBC_1024,CBC_1024_MSI_AV_v3_Vset6_Aset3_2023-07-05_15h12.04.977.csv,2,4,1,0,z,0,1,3,aud,A,63,1,1A,0A,0,1,b,1.78842370000075,1,0,0,0,1A,0A,A10,2.94443897916644,0.507467116607004,0.5,0.5,0.5,0.5,0.507467116607004,0.5,0.5,0.5,0.5,0.507467116607004,0.5,0.5,0.5,0.5,0.5,0.496294113979545,0.503705886020455,0.5,0.507467116607004,0.20337168076774,0.432391500335185,-0.5,-0.00746711660700422,0.5,0.0149342332140084,1.08847429831657,13.136765095034,2.80914750816699,0.5,77.7085849110092
CBC_1024,CBC_1024_MSI_AV_v3_Vset6_Aset3_2023-07-05_15h12.04.977.csv,2,5,3,1,b,1,0,0,aud,D,27,1,3D,1D,1,0,b,1.88471000000027,1,0,1,1,3D,1D,D31,2.99573227355399,0.507467116607004,0.492532883392996,0.5,0.5,0.5,0.507467116607004,0.5,0.5,0.5,0.5,0.507467116607004,0.5,0.5,0.5,0.5,0.5,0.5,0.5,0.5,0.5,0.228412496980529,0.499903915643481,0.5,0.00746711660700422,0.5,0.0149342332140084,1.08847429831657,13.136765095034,2.80914750816699,0.5,77.7085849110092
CBC_1024,CBC_1024_MSI_AV_v3_Vset6_Aset3_2023-07-05_15h12.04.977.csv,2,6,0,1,z,0,1,2,aud,B,63,1,0B,1B,0,1,z,2.08697530000063,0,1,1,1,1B,0B,B01,3.04452243772342,0.507467116607004,0.492532883392996,0.5,0.5,0.5,0.507467116607004,0.5,0.5,0.5,0.5,0.507467116607004,0.5,0.5,0.5,0.5,0.507467116607004,0.503705886020455,0.496294113979545,0.507467116607004,0.5,0.238563858183849,0.568385696058796,0.492532883392996,0.00735560094615902,0.5,0.0149342332140084,1.08847429831657,13.136765095034,2.80914750816699,0.5,77.7085849110092
CBC_1024,CBC_1024_MSI_AV_v3_Vset6_Aset3_2023-07-05_15h12.04.977.csv,2,7,2,3,b,1,0,1,aud,C,63,1,2C,3C,1,0,z,1.90472300000056,0,1,0,0,3C,2C,C23,3.09104245335832,0.507467116607004,0.492532883392996,0.5,0.5,0.5,0.514822717553163,0.5,0.5,0.5,0.5,0.507467116607004,0.5,0.5,0.5,0.5,0.507467116607004,0.496294113979545,0.503705886020455,0.5,0.507467116607004,0.197125546768418,0.432055696174436,-0.5,-0.00746711660700422,0.5,0.0149342332140084,1.08847429831657,13.136765095034,2.80914750816699,0.5,77.7085849110092
CBC_1024,CBC_1024_MSI_AV_v3_Vset6_Aset3_2023-07-05_15h12.04.977.csv,2,8,2,0,z,0,1,3,aud,A,27,1,2A,0A,0,1,b,2.55976890000056,1,0,0,0,2A,0A,A20,3.13549421592915,0.507467116607004,0.492532883392996,0.5,0.5,0.5,0.514822717553163,0.5,0.5,0.5,0.5,0.507467116607004,0.492532883392996,0.5,0.5,0.5,0.507467116607004,0.496294113979545,0.503705886020455,0.5,0.507467116607004,0.137289318191751,0.432524291854523,-0.5,-0.00746711660700422,0.5,0.0149342332140084,1.08847429831657,13.136765095034,2.80914750816699,0.5,77.7085849110092
CBC_1024,CBC_1024_MSI_AV_v3_Vset6_Aset3_2023-07-05_15h12.04.977.csv,2,9,3,2,b,1,0,0,aud,D,63,1,3D,2D,1,0,b,1.67244860000028,1,0,1,1,3D,2D,D32,3.17805383034795,0.507467116607004,0.492532883392996,0.492532883392996,0.5,0.5,0.514822717553163,0.5,0.5,0.5,0.5,0.507467116607004,0.492532883392996,0.5,0.5,0.5,0.507467116607004,0.503705886020455,0.496294113979545,0.507467116607004,0.5,0.264875085713359,0.567451228055306,0.492532883392996,0.00735560094615902,0.5,0.0149342332140084,1.08847429831657,13.136765095034,2.80914750816699,0.5,77.7085849110092
CBC_1024,CBC_1024_MSI_AV_v3_Vset6_Aset3_2023-07-05_15h12.04.977.csv,2,10,3,1,z,0,1,2,aud,B,27,1,3B,1B,0,1,z,2.97769440000047,0,1,1,1,1B,3B,B31,3.2188758248682,0.507467116607004,0.492532883392996,0.492532883392996,0.5,0.5,0.514822717553163,0.5,0.5,0.5,0.5,0.507467116607004,0.492532883392996,0.5,0.5,0.5,0.514822717553163,0.507303106885951,0.492696893114049,0.514822717553163,0.5,0.154864696236719,0.633311979981743,0.485177282446837,0.0072457506861999,0.5,0.0149342332140084,1.08847429831657,13.136765095034,2.80914750816699,0.5,77.7085849110092
CBC_1024,CBC_1024_MSI_AV_v3_Vset6_Aset3_2023-07-05_15h12.04.977.csv,2,11,3,2,z,0,1,1,aud,C,63,1,3C,2C,0,1,z,3.49576490000072,0,1,1,1,2C,3C,C32,3.25809653802148,0.507467116607004,0.492532883392996,0.492532883392996,0.5,0.5,0.522068468239363,0.5,0.5,0.5,0.5,0.507467116607004,0.492532883392996,0.5,0.5,0.5,0.514822717553163,0.507467116607004,0.492532883392996,0.507467116607004,0.492532883392996,0.111194064775624,0.63490590996866,0.492532883392996,0.00735560094615902,0.5,0.0149342332140084,1.08847429831657,13.136765095034,2.80914750816699,0.5,77.7085849110092
CBC_1024,CBC_1024_MSI_AV_v3_Vset6_Aset3_2023-07-05_15h12.04.977.csv,2,12,1,3,b,1,0,2,aud,B,27,1,1B,3B,1,0,b,2.32929349999995,1,0,1,1,1B,3B,B13,3.29583686600433,0.507467116607004,0.492532883392996,0.492532883392996,0.5,0.5,0.522068468239363,0.5,0.5,0.5,0.5,0.514822717553163,0.492532883392996,0.5,0.5,0.5,0.514822717553163,0.510795983305002,0.489204016694998,0.522068468239363,0.5,0.257929816089026,0.688993403998543,0.477931531760637,0.00713754095564163,0.5,0.0149342332140084,1.08847429831657,13.136765095034,2.80914750816699,0.5,77.7085849110092
CBC_1024,CBC_1024_MSI_AV_v3_Vset6_Aset3_2023-07-05_15h12.04.977.csv,2,13,3,2,z,0,1,1,aud,C,63,1,3C,2C,0,1,b,3.50138030000016,1,0,0,0,3C,2C,C32,2.63905732961526,0.507467116607004,0.492532883392996,0.492532883392996,0.5,0.5,0.529206009195005,0.5,0.5,0.5,0.5,0.514822717553163,0.492532883392996,0.5,0.5,0.5,0.514822717553163,0.488936461891296,0.511063538108703,0.492532883392996,0.514822717553163,0.052936780999926,0.306923672852901,-0.492532883392996,-0.00735560094615902,0.5,0.0149342332140084,1.08847429831657,13.136765095034,2.80914750816699,0.5,77.7085849110092
CBC_1024,CBC_1024_MSI_AV_v3_Vset6_Aset3_2023-07-05_15h12.04.977.csv,2,14,3,2,b,1,0,0,aud,D,63,1,3D,2D,1,0,b,3.25212519999968,1,0,1,1,3D,2D,D32,2.67414864942653,0.507467116607004,0.492532883392996,0.492532883392996,0.5,0.5,0.529206009195005,0.5,0.5,0.5,0.5,0.514822717553163,0.485177282446837,0.5,0.5,0.5,0.514822717553163,0.507303106885951,0.492696893114049,0.514822717553163,0.5,0.129584232556309,0.632258654332267,0.485177282446837,0.0072457506861999,0.5,0.0149342332140084,1.08847429831657,13.136765095034,2.80914750816699,0.5,77.7085849110092
CBC_1024,CBC_1024_MSI_AV_v3_Vset6_Aset3_2023-07-05_15h12.04.977.csv,2,15,0,3,b,1,0,3,aud,A,9,1,0A,3A,1,0,b,2.4294187000005,1,0,1,1,0A,3A,A03,3.40119738166216,0.507467116607004,0.492532883392996,0.492532883392996,0.5,0.5,0.529206009195005,0.5,0.5,0.5,0.5,0.514822717553163,0.485177282446837,0.5,0.5,0.5,0.522068468239363,0.503705886020455,0.496294113979545,0.507467116607004,0.5,0.195230103822224,0.567564879515208,0.492532883392996,0.00735560094615902,0.5,0.0149342332140084,1.08847429831657,13.136765095034,2.80914750816699,0.5,77.7085849110092
CBC_1024,CBC_1024_MSI_AV_v3_Vset6_Aset3_2023-07-05_15h12.04.977.csv,2,16,0,1,z,0,1,2,aud,B,63,0,0B,1B,1,0,z,1.73242870000013,0,1,1,0,1B,0B,B01,2.7408400239252,0.514822717553163,0.492532883392996,0.492532883392996,0.5,0.5,0.529206009195005,0.5,0.5,0.5,0.5,0.514822717553163,0.485177282446837,0.5,0.5,0.5,0.522068468239363,0.514188611868798,0.485811388131202,0.529206009195005,0.5,0.37801820218532,0.739849807550191,-0.529206009195005,-0.0079032859595729,0.5,0.0149342332140084,1.08847429831657,13.136765095034,2.80914750816699,0.5,77.7085849110092
CBC_1024,CBC_1024_MSI_AV_v3_Vset6_Aset3_2023-07-05_15h12.04.977.csv,2,17,2,3,z,0,1,0,aud,D,63,1,2D,3D,0,1,b,2.74843070000043,1,0,0,0,2D,3D,D23,3.46573590279973,0.514822717553163,0.492532883392996,0.492532883392996,0.5,0.5,0.521302723235432,0.5,0.5,0.5,0.5,0.514822717553163,0.485177282446837,0.5,0.5,0.5,0.522068468239363,0.489204016694998,0.510795983305002,0.5,0.522068468239363,0.0886894705711939,0.311476128328803,-0.5,-0.00746711660700422,0.5,0.0149342332140084,1.08847429831657,13.136765095034,2.80914750816699,0.5,77.7085849110092
CBC_1024,CBC_1024_MSI_AV_v3_Vset6_Aset3_2023-07-05_15h12.04.977.csv,2,18,0,2,z,0,1,1,aud,C,27,1,0C,2C,0,1,z,2.50214380000125,0,1,1,1,2C,0C,C02,3.49650756146648,0.514822717553163,0.492532883392996,0.492532883392996,0.5,0.5,0.521302723235432,0.5,0.5,0.5,0.5,0.514822717553163,0.485177282446837,0.5,0.5,0.492532883392996,0.522068468239363,0.507303106885951,0.492696893114049,0.514822717553163,0.5,0.208851893801977,0.630430210882744,0.485177282446837,0.0072457506861999,0.5,0.0149342332140084,1.08847429831657,13.136765095034,2.80914750816699,0.5,77.7085849110092
CBC_1024,CBC_1024_MSI_AV_v3_Vset6_Aset3_2023-07-05_15h12.04.977.csv,2,19,0,1,b,1,0,3,aud,A,63,1,0A,1A,1,0,z,3.66726830000061,0,1,0,0,1A,0A,A01,2.83321334405622,0.514822717553163,0.492532883392996,0.492532883392996,0.5,0.5,0.521302723235432,0.5,0.5,0.5,0.5,0.522068468239363,0.485177282446837,0.5,0.5,0.492532883392996,0.522068468239363,0.488936461891296,0.511063538108703,0.492532883392996,0.514822717553163,0.0472931093130703,0.306360030292792,-0.492532883392996,-0.00735560094615902,0.5,0.0149342332140084,1.08847429831657,13.136765095034,2.80914750816699,0.5,77.7085849110092
CBC_1024,CBC_1024_MSI_AV_v3_Vset6_Aset3_2023-07-05_15h12.04.977.csv,2,20,1,0,b,1,0,2,aud,B,63,1,1B,0B,1,0,z,2.14851430000181,0,1,0,0,0B,1B,B10,2.86220088092947,0.514822717553163,0.485177282446837,0.492532883392996,0.5,0.5,0.521302723235432,0.5,0.5,0.5,0.5,0.522068468239363,0.485177282446837,0.5,0.5,0.492532883392996,0.522068468239363,0.489570808561077,0.510429191438923,0.5,0.521302723235432,0.132256149526482,0.316755836616413,-0.5,-0.00746711660700422,0.5,0.0149342332140084,1.08847429831657,13.136765095034,2.80914750816699,0.5,77.7085849110092
CBC_1024,CBC_1024_MSI_AV_v3_Vset6_Aset3_2023-07-05_15h12.04.977.csv,2,21,1,3,z,0,1,0,aud,D,27,1,1D,3D,0,1,z,3.08576850000009,0,1,1,1,3D,1D,D13,3.58351893845611,0.514822717553163,0.485177282446837,0.492532883392996,0.5,0.492532883392996,0.521302723235432,0.5,0.5,0.5,0.5,0.522068468239363,0.485177282446837,0.5,0.5,0.492532883392996,0.522068468239363,0.510795983305002,0.489204016694998,0.522068468239363,0.5,0.157194595838718,0.690616021538718,0.477931531760637,0.00713754095564163,0.5,0.0149342332140084,1.08847429831657,13.136765095034,2.80914750816699,0.5,77.7085849110092
CBC_1024,CBC_1024_MSI_AV_v3_Vset6_Aset3_2023-07-05_15h12.04.977.csv,2,22,3,2,z,0,1,1,aud,C,63,1,3C,2C,0,1,b,3.14713800000118,1,0,0,0,3C,2C,C32,2.51230562397611,0.514822717553163,0.485177282446837,0.492532883392996,0.5,0.492532883392996,0.521302723235432,0.5,0.5,0.5,0.5,0.522068468239363,0.485177282446837,0.5,0.5,0.492532883392996,0.529206009195005,0.481687097827221,0.518312902172778,0.485177282446837,0.522068468239363,0.0440207964614112,0.205514372455011,-0.485177282446837,-0.0072457506861999,0.5,0.0149342332140084,1.08847429831657,13.136765095034,2.80914750816699,0.5,77.7085849110092
CBC_1024,CBC_1024_MSI_AV_v3_Vset6_Aset3_2023-07-05_15h12.04.977.csv,2,23,0,1,b,1,0,3,aud,A,63,1,0A,1A,1,0,b,2.65558060000058,1,0,1,1,0A,1A,A01,2.53897387105828,0.514822717553163,0.485177282446837,0.492532883392996,0.5,0.492532883392996,0.521302723235432,0.5,0.5,0.5,0.5,0.522068468239363,0.477931531760637,0.5,0.5,0.492532883392996,0.529206009195005,0.514822717553163,0.485177282446837,0.514822717553163,0.485177282446837,0.228968211986996,0.749043760512941,0.485177282446837,0.0072457506861999,0.5,0.0149342332140084,1.08847429831657,13.136765095034,2.80914750816699,0.5,77.7085849110092
CBC_1024,CBC_1024_MSI_AV_v3_Vset6_Aset3_2023-07-05_15h12.04.977.csv,2,24,2,3,z,0,1,0,aud,D,63,1,2D,3D,0,1,b,4.77649889999975,1,0,0,0,2D,3D,D23,2.9704144655697,0.522068468239363,0.485177282446837,0.492532883392996,0.5,0.492532883392996,0.521302723235432,0.5,0.5,0.5,0.5,0.522068468239363,0.477931531760637,0.5,0.5,0.492532883392996,0.529206009195005,0.482053572557506,0.517946427442494,0.492532883392996,0.529206009195005,0.0135496668486114,0.209792077013198,-0.492532883392996,-0.00735560094615902,0.5,0.0149342332140084,1.08847429831657,13.136765095034,2.80914750816699,0.5,77.7085849110092
CBC_1024,CBC_1024_MSI_AV_v3_Vset6_Aset3_2023-07-05_15h12.04.977.csv,2,25,2,0,b,1,0,1,aud,C,27,1,2C,0C,1,0,b,4.09002860000055,1,0,1,1,2C,0C,C20,3.68887945411394,0.522068468239363,0.485177282446837,0.492532883392996,0.5,0.492532883392996,0.521302723235432,0.5,0.5,0.5,0.5,0.522068468239363,0.477931531760637,0.5,0.5,0.485177282446837,0.529206009195005,0.510795983305002,0.489204016694998,0.522068468239363,0.5,0.0804499338120605,0.689581514988955,0.477931531760637,0.00713754095564163,0.5,0.0149342332140084,1.08847429831657,13.136765095034,2.80914750816699,0.5,77.7085849110092
CBC_1024,CBC_1024_MSI_AV_v3_Vset6_Aset3_2023-07-05_15h12.04.977.csv,2,26,0,1,b,1,0,3,aud,A,63,1,0A,1A,NaN,NaN,[],NaN,NaN,NaN,NaN,NaN,,,A01,2.32727770558442,0.522068468239363,0.485177282446837,0.492532883392996,0.5,0.492532883392996,0.521302723235432,0.5,0.5,0.5,0.5,0.529206009195005,0.477931531760637,0.5,0.5,0.485177282446837,0.529206009195005,0,0,0,0,NaN,0,0,0,0.5,0.0149342332140084,1.08847429831657,13.136765095034,2.80914750816699,0.5,77.7085849110092
CBC_1024,CBC_1024_MSI_AV_v3_Vset6_Aset3_2023-07-05_15h12.04.977.csv,2,27,1,3,b,1,0,2,aud,B,27,1,1B,3B,1,0,b,2.61020760000156,1,0,1,1,1B,3B,B13,3.04452243772342,0.522068468239363,0.485177282446837,0.492532883392996,0.5,0.492532883392996,0.521302723235432,0.5,0.5,0.5,0.5,0.529206009195005,0.477931531760637,0.5,0.5,0.485177282446837,0.529206009195005,0.510429191438923,0.489570808561077,0.521302723235432,0.5,0.213032783654522,0.683510506651951,0.478697276764568,0.0071489767701128,0.5,0.0149342332140084,1.08847429831657,13.136765095034,2.80914750816699,0.5,77.7085849110092
CBC_1024,CBC_1024_MSI_AV_v3_Vset6_Aset3_2023-07-05_15h12.04.977.csv,2,28,3,2,z,0,1,1,aud,C,63,1,3C,2C,0,1,z,3.1248072999997,0,1,1,1,2C,3C,C32,2.37490575457367,0.522068468239363,0.485177282446837,0.492532883392996,0.5,0.492532883392996,0.528451700005545,0.5,0.5,0.5,0.5,0.529206009195005,0.477931531760637,0.5,0.5,0.485177282446837,0.529206009195005,0.525455548695819,0.474544451304181,0.529206009195005,0.477931531760637,0.180743980488371,0.866923610579403,0.470793990804995,0.00703094725443554,0.5,0.0149342332140084,1.08847429831657,13.136765095034,2.80914750816699,0.5,77.7085849110092
CBC_1024,CBC_1024_MSI_AV_v3_Vset6_Aset3_2023-07-05_15h12.04.977.csv,2,29,3,2,b,1,0,0,aud,D,63,1,3D,2D,1,0,b,2.3231053999998,1,0,1,1,3D,2D,D32,2.68557734525015,0.522068468239363,0.485177282446837,0.492532883392996,0.5,0.492532883392996,0.528451700005545,0.5,0.5,0.5,0.5,0.53623695644944,0.477931531760637,0.5,0.5,0.485177282446837,0.529206009195005,0.521702214099418,0.478297785900582,0.529206009195005,0.485177282446837,0.332666640730333,0.831460693719365,0.470793990804995,0.00703094725443554,0.5,0.0149342332140084,1.08847429831657,13.136765095034,2.80914750816699,0.5,77.7085849110092
CBC_1024,CBC_1024_MSI_AV_v3_Vset6_Aset3_2023-07-05_15h12.04.977.csv,2,30,0,1,z,0,1,2,aud,B,63,1,0B,1B,0,1,b,2.91412849999961,1,0,0,0,0B,1B,B01,2.70805020110221,0.522068468239363,0.485177282446837,0.492532883392996,0.5,0.492532883392996,0.528451700005545,0.5,0.5,0.5,0.5,0.53623695644944,0.477931531760637,0.5,0.5,0.485177282446837,0.53623695644944,0.482409716465558,0.517590283534442,0.492532883392996,0.528451700005545,0.0545804628185126,0.214256261314418,-0.492532883392996,-0.00735560094615902,0.5,0.0149342332140084,1.08847429831657,13.136765095034,2.80914750816699,0.5,77.7085849110092
CBC_1024,CBC_1024_MSI_AV_v3_Vset6_Aset3_2023-07-05_15h12.04.977.csv,2,31,2,0,z,0,1,3,aud,A,27,1,2A,0A,0,1,b,2.9635816,1,0,0,0,2A,0A,A20,3.13549421592915,0.522068468239363,0.485177282446837,0.492532883392996,0.5,0.485177282446837,0.528451700005545,0.5,0.5,0.5,0.5,0.53623695644944,0.477931531760637,0.5,0.5,0.485177282446837,0.53623695644944,0.48544473413186,0.51455526586814,0.492532883392996,0.522068468239363,0.0628627619677518,0.25492433181986,-0.492532883392996,-0.00735560094615902,0.5,0.0149342332140084,1.08847429831657,13.136765095034,2.80914750816699,0.5,77.7085849110092
CBC_1024,CBC_1024_MSI_AV_v3_Vset6_Aset3_2023-07-05_15h12.04.977.csv,2,32,3,0,b,1,0,0,aud,D,9,1,3D,0D,1,0,b,1.93329410000024,1,0,1,1,3D,0D,D30,3.85014760171006,0.522068468239363,0.485177282446837,0.485177282446837,0.5,0.485177282446837,0.528451700005545,0.5,0.5,0.5,0.5,0.53623695644944,0.477931531760637,0.5,0.5,0.485177282446837,0.53623695644944,0.517484879410981,0.482515120589019,0.53623695644944,0.5,0.391787578390783,0.784691305415579,0.46376304355056,0.00692594544842241,0.5,0.0149342332140084,1.08847429831657,13.136765095034,2.80914750816699,0.5,77.7085849110092
CBC_1024,CBC_1024_MSI_AV_v3_Vset6_Aset3_2023-07-05_15h12.04.977.csv,2,33,3,2,z,0,1,1,aud,C,63,1,3C,2C,0,1,z,1.3307818000003,0,1,1,1,2C,3C,C32,2.26176309847379,0.522068468239363,0.485177282446837,0.485177282446837,0.5,0.485177282446837,0.528451700005545,0.5,0.5,0.5,0.5,0.53623695644944,0.477931531760637,0.5,0.5,0.485177282446837,0.543162901897863,0.528745433015626,0.471254566984374,0.53623695644944,0.477931531760637,0.216244484796321,0.893151898161171,0.46376304355056,0.00692594544842241,0.5,0.0149342332140084,1.08847429831657,13.136765095034,2.80914750816699,0.5,77.7085849110092
CBC_1024,CBC_1024_MSI_AV_v3_Vset6_Aset3_2023-07-05_15h12.04.977.csv,2,34,0,1,z,0,1,2,aud,B,63,1,0B,1B,0,1,z,2.96343859999888,0,1,1,1,1B,0B,B01,2.50552593699074,0.522068468239363,0.485177282446837,0.485177282446837,0.5,0.485177282446837,0.528451700005545,0.5,0.5,0.5,0.5,0.543162901897863,0.477931531760637,0.5,0.5,0.485177282446837,0.543162901897863,0.521346280694347,0.478653719305653,0.528451700005545,0.485177282446837,0.201639158558662,0.828166578245862,0.471548299994455,0.00704221228378641,0.5,0.0149342332140084,1.08847429831657,13.136765095034,2.80914750816699,0.5,77.7085849110092
CBC_1024,CBC_1024_MSI_AV_v3_Vset6_Aset3_2023-07-05_15h12.04.977.csv,2,35,0,1,b,1,0,3,aud,A,63,0,0A,1A,0,1,b,2.72545360000095,1,0,1,0,0A,1A,A01,2.30258509299405,0.522068468239363,0.485177282446837,0.485177282446837,0.5,0.485177282446837,0.535493912289331,0.5,0.5,0.5,0.5,0.543162901897863,0.477931531760637,0.5,0.5,0.485177282446837,0.543162901897863,0.518312902172778,0.481687097827221,0.522068468239363,0.485177282446837,0.232323619052956,0.794093095129812,-0.522068468239363,-0.00779669225836681,0.5,0.0149342332140084,1.08847429831657,13.136765095034,2.80914750816699,0.5,77.7085849110092
CBC_1024,CBC_1024_MSI_AV_v3_Vset6_Aset3_2023-07-05_15h12.04.977.csv,2,36,2,3,z,0,1,0,aud,D,63,1,2D,3D,0,1,z,3.36673520000022,0,1,1,1,3D,2D,D23,2.83321334405622,0.514271775980996,0.485177282446837,0.485177282446837,0.5,0.485177282446837,0.535493912289331,0.5,0.5,0.5,0.5,0.543162901897863,0.477931531760637,0.5,0.5,0.485177282446837,0.543162901897863,0.528193792450101,0.471806207549899,0.543162901897863,0.485177282446837,0.145088092261999,0.889060931003302,0.456837098102137,0.00682251176386817,0.5,0.0149342332140084,1.08847429831657,13.136765095034,2.80914750816699,0.5,77.7085849110092
CBC_1024,CBC_1024_MSI_AV_v3_Vset6_Aset3_2023-07-05_15h12.04.977.csv,2,37,1,2,b,1,0,2,aud,B,9,1,1B,2B,1,0,b,2.07367059999979,1,0,1,1,1B,2B,B12,3.95124371858143,0.514271775980996,0.485177282446837,0.485177282446837,0.5,0.485177282446837,0.535493912289331,0.5,0.5,0.5,0.5,0.543162901897863,0.477931531760637,0.5,0.5,0.485177282446837,0.549985413661731,0.51713863880226,0.48286136119774,0.535493912289331,0.5,0.358542468684105,0.780261054230249,0.464506087710669,0.00693704224319779,0.5,0.0149342332140084,1.08847429831657,13.136765095034,2.80914750816699,0.5,77.7085849110092
CBC_1024,CBC_1024_MSI_AV_v3_Vset6_Aset3_2023-07-05_15h12.04.977.csv,2,38,2,0,z,0,1,3,aud,A,27,1,2A,0A,0,1,z,4.28148839999903,0,1,1,1,0A,2A,A20,2.87167962488401,0.514271775980996,0.485177282446837,0.485177282446837,0.5,0.485177282446837,0.542430954532529,0.5,0.5,0.5,0.5,0.543162901897863,0.477931531760637,0.5,0.5,0.485177282446837,0.549985413661731,0.51455526586814,0.48544473413186,0.514271775980996,0.485177282446837,0.0732122478528217,0.744616769694935,0.485728224019004,0.00725397857612594,0.5,0.0149342332140084,1.08847429831657,13.136765095034,2.80914750816699,0.5,77.7085849110092
CBC_1024,CBC_1024_MSI_AV_v3_Vset6_Aset3_2023-07-05_15h12.04.977.csv,2,39,2,3,b,1,0,1,aud,C,63,1,2C,3C,1,0,b,3.49000290000095,1,0,1,1,2C,3C,C23,3.29583686600433,0.521525754557122,0.485177282446837,0.485177282446837,0.5,0.485177282446837,0.542430954532529,0.5,0.5,0.5,0.5,0.543162901897863,0.477931531760637,0.5,0.5,0.485177282446837,0.549985413661731,0.531941889009965,0.468058110990035,0.543162901897863,0.477931531760637,0.123649018254191,0.913720110132606,0.456837098102137,0.00682251176386817,0.5,0.0149342332140084,1.08847429831657,13.136765095034,2.80914750816699,0.5,77.7085849110092
CBC_1024,CBC_1024_MSI_AV_v3_Vset6_Aset3_2023-07-05_15h12.04.977.csv,2,40,1,3,z,0,1,0,aud,D,27,1,1D,3D,0,1,z,2.3335657000016,0,1,1,1,3D,1D,D13,3.31418600467253,0.521525754557122,0.485177282446837,0.485177282446837,0.5,0.485177282446837,0.542430954532529,0.5,0.5,0.5,0.5,0.549985413661731,0.477931531760637,0.5,0.5,0.485177282446837,0.549985413661731,0.523802908598231,0.476197091401769,0.549985413661731,0.5,0.342880964950512,0.852970702668806,0.450014586338269,0.00672062278208125,0.5,0.0149342332140084,1.08847429831657,13.136765095034,2.80914750816699,0.5,77.7085849110092
CBC_1024,CBC_1024_MSI_AV_v3_Vset6_Aset3_2023-07-05_15h12.04.977.csv,2,41,0,1,b,1,0,3,aud,A,63,1,0A,1A,1,0,b,2.64001709999957,1,0,1,1,0A,1A,A01,2.23359222150709,0.521525754557122,0.485177282446837,0.485177282446837,0.5,0.485177282446837,0.542430954532529,0.5,0.5,0.5,0.5,0.549985413661731,0.477931531760637,0.5,0.5,0.485177282446837,0.556706036443812,0.518053224622458,0.481946775377542,0.521525754557122,0.485177282446837,0.246247116811618,0.790866436838363,0.478474245442878,0.00714564596834065,0.5,0.0149342332140084,1.08847429831657,13.136765095034,2.80914750816699,0.5,77.7085849110092
CBC_1024,CBC_1024_MSI_AV_v3_Vset6_Aset3_2023-07-05_15h12.04.977.csv,2,42,0,2,z,0,1,1,aud,C,27,1,0C,2C,0,1,z,1.94651059999978,0,1,1,1,2C,0C,C02,3.3499040872746,0.528671400525463,0.485177282446837,0.485177282446837,0.5,0.485177282446837,0.542430954532529,0.5,0.5,0.5,0.5,0.549985413661731,0.477931531760637,0.5,0.5,0.485177282446837,0.556706036443812,0.523802908598231,0.476197091401769,0.549985413661731,0.5,0.454348789663274,0.852794213792518,0.450014586338269,0.00672062278208125,0.5,0.0149342332140084,1.08847429831657,13.136765095034,2.80914750816699,0.5,77.7085849110092
CBC_1024,CBC_1024_MSI_AV_v3_Vset6_Aset3_2023-07-05_15h12.04.977.csv,2,43,3,2,b,1,0,0,aud,D,63,1,3D,2D,1,0,b,2.09360389999983,1,0,1,1,3D,2D,D32,2.67414864942653,0.528671400525463,0.485177282446837,0.485177282446837,0.5,0.485177282446837,0.542430954532529,0.5,0.5,0.5,0.5,0.556706036443812,0.477931531760637,0.5,0.5,0.485177282446837,0.556706036443812,0.534326662448697,0.465673337551303,0.556706036443812,0.485177282446837,0.490581112618968,0.926183705517478,0.443293963556188,0.00662025543411027,0.5,0.0149342332140084,1.08847429831657,13.136765095034,2.80914750816699,0.5,77.7085849110092
CBC_1024,CBC_1024_MSI_AV_v3_Vset6_Aset3_2023-07-05_15h12.04.977.csv,2,44,1,0,b,1,0,2,aud,B,63,1,1B,0B,1,0,b,2.02538670000013,1,0,1,1,1B,0B,B10,2.97892515523761,0.528671400525463,0.485177282446837,0.485177282446837,0.5,0.485177282446837,0.542430954532529,0.5,0.5,0.5,0.5,0.556706036443812,0.477931531760637,0.5,0.5,0.485177282446837,0.563326291877922,0.527857733144485,0.472142266855515,0.542430954532529,0.485177282446837,0.468409735748881,0.886346698129725,0.457569045467471,0.00683344283652244,0.5,0.0149342332140084,1.08847429831657,13.136765095034,2.80914750816699,0.5,77.7085849110092
CBC_1024,CBC_1024_MSI_TV_v3_Vset1_Tset2_2023-07-05_16h07.59.104.csv,3,1,1,3,b,1,0,2,tac,B,27,1,1B,3B,1,0,z,1.50069830000029,0,1,0,0,3B,1B,B13,2.77258872223978,0.5,0.5,0.5,0.5,0.5,0.5,0.5,0.5,0.5,0.5,0.5,0.5,0.5,0.5,0.5,0.5,0.5,0.5,0.5,0.5,0.295106299950599,0.500463999039334,-0.5,-0.473316116706672,0.5,0.946632233413343,0.93230194754364,0.0481529378755552,2.49774593331621,0.5,79.0701140119611
CBC_1024,CBC_1024_MSI_TV_v3_Vset1_Tset2_2023-07-05_16h07.59.104.csv,3,2,3,2,z,0,1,1,tac,C,63,1,3C,2C,0,1,b,1.47710430000006,1,0,0,0,3C,2C,C32,2.83321334405622,0.5,0.5,0.5,0.5,0.5,0.5,0.5,0.0266838832933283,0.5,0.5,0.5,0.5,0.5,0.5,0.5,0.5,0.5,0.5,0.5,0.5,0.295958906687481,0.499808776186079,-0.5,-0.473316116706672,0.5,0.946632233413343,0.93230194754364,0.0481529378755552,2.49774593331621,0.5,79.0701140119611
CBC_1024,CBC_1024_MSI_TV_v3_Vset1_Tset2_2023-07-05_16h07.59.104.csv,3,3,3,2,b,1,0,0,tac,D,63,1,3D,2D,1,0,z,1.19340860000011,0,1,0,0,2D,3D,D32,2.89037175789616,0.5,0.5,0.5,0.5,0.5,0.5,0.5,0.0266838832933283,0.5,0.5,0.5,0.0266838832933283,0.5,0.5,0.5,0.5,0.5,0.5,0.5,0.5,0.188200925477088,0.499445916470874,-0.5,-0.473316116706672,0.5,0.946632233413343,0.93230194754364,0.0481529378755552,2.49774593331621,0.5,79.0701140119611
CBC_1024,CBC_1024_MSI_TV_v3_Vset1_Tset2_2023-07-05_16h07.59.104.csv,3,4,0,1,z,0,1,2,tac,B,63,1,0B,1B,0,1,b,2.08075540000027,1,0,0,0,0B,1B,B01,2.94443897916644,0.5,0.5,0.5,0.5,0.5,0.5,0.5,0.0266838832933283,0.5,0.5,0.5,0.0266838832933283,0.5,0.5,0.0266838832933283,0.5,0.5,0.5,0.5,0.5,0.202816157670431,0.50055427514756,-0.5,-0.473316116706672,0.5,0.946632233413343,0.93230194754364,0.0481529378755552,2.49774593331621,0.5,79.0701140119611
CBC_1024,CBC_1024_MSI_TV_v3_Vset1_Tset2_2023-07-05_16h07.59.104.csv,3,5,0,3,b,1,0,3,tac,A,9,1,0A,3A,1,0,z,1.53118989999894,0,1,0,0,3A,0A,A03,2.99573227355399,0.5,0.5,0.5,0.5,0.0266838832933283,0.5,0.5,0.0266838832933283,0.5,0.5,0.5,0.0266838832933283,0.5,0.5,0.0266838832933283,0.5,0.5,0.5,0.5,0.5,0.291950290338772,0.499372013125677,-0.5,-0.473316116706672,0.5,0.946632233413343,0.93230194754364,0.0481529378755552,2.49774593331621,0.5,79.0701140119611
CBC_1024,CBC_1024_MSI_TV_v3_Vset1_Tset2_2023-07-05_16h07.59.104.csv,3,6,3,2,b,1,0,0,tac,D,63,1,3D,2D,1,0,z,2.76604700000098,0,1,0,0,2D,3D,D32,2.35137525716348,0.5,0.5,0.5,0.0266838832933283,0.0266838832933283,0.5,0.5,0.0266838832933283,0.5,0.5,0.5,0.0266838832933283,0.5,0.5,0.0266838832933283,0.5,0.0506639449957635,0.949336055004237,0.0266838832933283,0.5,0.111534725091967,0.472488058291539,-0.0266838832933283,-0.0252598240381044,0.5,0.946632233413343,0.93230194754364,0.0481529378755552,2.49774593331621,0.5,79.0701140119611
CBC_1024,CBC_1024_MSI_TV_v3_Vset1_Tset2_2023-07-05_16h07.59.104.csv,3,7,0,2,z,0,1,1,tac,C,27,1,0C,2C,0,1,z,2.84138929999972,0,1,1,1,2C,0C,C02,3.09104245335832,0.5,0.5,0.5,0.0266838832933283,0.0266838832933283,0.5,0.5,0.0266838832933283,0.5,0.5,0.5,0.0266838832933283,0.5,0.5,0.00142405925522393,0.5,0.5,0.5,0.5,0.5,0.111282051856257,0.500227063955595,0.5,0.473316116706672,0.5,0.946632233413343,0.93230194754364,0.0481529378755552,2.49774593331621,0.5,79.0701140119611
CBC_1024,CBC_1024_MSI_TV_v3_Vset1_Tset2_2023-07-05_16h07.59.104.csv,3,8,0,1,b,1,0,3,tac,A,63,1,0A,1A,NaN,NaN,None,NaN,NaN,NaN,NaN,NaN,,,A01,3.13549421592915,0.5,0.5,0.5,0.0266838832933283,0.0266838832933283,0.5,0.5,0.0266838832933283,0.5,0.5,0.973316116706672,0.0266838832933283,0.5,0.5,0.00142405925522393,0.5,0,0,0,0,NaN,0,0,0,0.5,0.946632233413343,0.93230194754364,0.0481529378755552,2.49774593331621,0.5,79.0701140119611
CBC_1024,CBC_1024_MSI_TV_v3_Vset1_Tset2_2023-07-05_16h07.59.104.csv,3,9,1,0,b,1,0,2,tac,B,63,1,1B,0B,1,0,b,2.34376419999899,1,0,1,1,1B,0B,B10,3.17805383034795,0.5,0.5,0.5,0.0266838832933283,0.0266838832933283,0.5,0.5,0.0266838832933283,0.5,0.5,0.973316116706672,0.0266838832933283,0.5,0.5,0.00142405925522393,0.5,0.949336055004237,0.0506639449957635,0.5,0.0266838832933283,0.173880991152984,0.527412957492766,0.5,0.473316116706672,0.5,0.946632233413343,0.93230194754364,0.0481529378755552,2.49774593331621,0.5,79.0701140119611
CBC_1024,CBC_1024_MSI_TV_v3_Vset1_Tset2_2023-07-05_16h07.59.104.csv,3,10,1,3,z,0,1,0,tac,D,27,1,1D,3D,0,1,b,1.37915319999956,1,0,0,0,1D,3D,D13,3.2188758248682,0.5,0.5,0.5,0.0266838832933283,0.0266838832933283,0.973316116706672,0.5,0.0266838832933283,0.5,0.5,0.973316116706672,0.0266838832933283,0.5,0.5,0.00142405925522393,0.5,0.5,0.5,0.5,0.5,0.291385597554773,0.500245469415966,-0.5,-0.473316116706672,0.5,0.946632233413343,0.93230194754364,0.0481529378755552,2.49774593331621,0.5,79.0701140119611
CBC_1024,CBC_1024_MSI_TV_v3_Vset1_Tset2_2023-07-05_16h07.59.104.csv,3,11,3,2,z,0,1,1,tac,C,63,1,3C,2C,0,1,z,2.47562469999866,0,1,1,1,2C,3C,C32,2.56494935746154,0.5,0.5,0.5,0.0266838832933283,0.0266838832933283,0.973316116706672,0.5,0.0266838832933283,0.5,0.5,0.973316116706672,0.0266838832933283,0.5,0.0266838832933283,0.00142405925522393,0.5,0.973316116706672,0.0266838832933283,0.973316116706672,0.0266838832933283,0.156868503823735,0.528067309740727,0.0266838832933283,0.0252598240381043,0.5,0.946632233413343,0.93230194754364,0.0481529378755552,2.49774593331621,0.5,79.0701140119611
CBC_1024,CBC_1024_MSI_TV_v3_Vset1_Tset2_2023-07-05_16h07.59.104.csv,3,12,1,0,b,1,0,2,tac,B,63,1,1B,0B,1,0,b,2.3251694999999,1,0,1,1,1B,0B,B10,2.60268968544438,0.5,0.5,0.5,0.0266838832933283,0.0266838832933283,0.973316116706672,0.5,0.0266838832933283,0.5,0.5,0.998575940744776,0.0266838832933283,0.5,0.0266838832933283,0.00142405925522393,0.5,0.973316116706672,0.0266838832933283,0.973316116706672,0.0266838832933283,0.176671420633726,0.528065290738312,0.0266838832933283,0.0252598240381043,0.5,0.946632233413343,0.93230194754364,0.0481529378755552,2.49774593331621,0.5,79.0701140119611
CBC_1024,CBC_1024_MSI_TV_v3_Vset1_Tset2_2023-07-05_16h07.59.104.csv,3,13,0,1,b,1,0,3,tac,A,63,1,0A,1A,1,0,b,2.58341680000012,1,0,1,1,0A,1A,A01,2.63905732961526,0.5,0.5,0.5,0.0266838832933283,0.0266838832933283,0.998575940744776,0.5,0.0266838832933283,0.5,0.5,0.998575940744776,0.0266838832933283,0.5,0.0266838832933283,0.00142405925522393,0.5,0.5,0.5,0.5,0.5,0.136261530950662,0.499488956734276,0.5,0.473316116706672,0.5,0.946632233413343,0.93230194754364,0.0481529378755552,2.49774593331621,0.5,79.0701140119611
CBC_1024,CBC_1024_MSI_TV_v3_Vset1_Tset2_2023-07-05_16h07.59.104.csv,3,14,1,2,z,0,1,1,tac,C,9,1,1C,2C,0,1,z,2.07400810000036,0,1,1,1,2C,1C,C12,3.36729582998647,0.973316116706672,0.5,0.5,0.0266838832933283,0.0266838832933283,0.998575940744776,0.5,0.0266838832933283,0.5,0.5,0.998575940744776,0.0266838832933283,0.5,0.0266838832933283,0.00142405925522393,0.5,0.666349908332637,0.333650091667363,0.998575940744776,0.5,0.207952611270369,0.510515839946919,0.00142405925522393,0.00134806039328557,0.5,0.946632233413343,0.93230194754364,0.0481529378755552,2.49774593331621,0.5,79.0701140119611
CBC_1024,CBC_1024_MSI_TV_v3_Vset1_Tset2_2023-07-05_16h07.59.104.csv,3,15,1,0,z,0,1,3,tac,A,63,1,1A,0A,NaN,NaN,None,NaN,NaN,NaN,NaN,NaN,,,A10,3.40119738166216,0.973316116706672,0.5,0.5,0.0266838832933283,0.0266838832933283,0.998575940744776,0.5,0.0266838832933283,0.5,0.5,0.999924001138062,0.0266838832933283,0.5,0.0266838832933283,0.00142405925522393,0.5,0,0,0,0,NaN,0,0,0,0.5,0.946632233413343,0.93230194754364,0.0481529378755552,2.49774593331621,0.5,79.0701140119611
CBC_1024,CBC_1024_MSI_TV_v3_Vset1_Tset2_2023-07-05_16h07.59.104.csv,3,16,3,1,b,1,0,0,tac,D,27,1,3D,1D,1,0,z,1.17544989999988,0,1,0,0,1D,3D,D31,3.43398720448515,0.973316116706672,0.5,0.5,0.0266838832933283,0.0266838832933283,0.998575940744776,0.5,0.0266838832933283,0.5,0.5,0.999924001138062,0.0266838832933283,0.5,0.0266838832933283,0.00142405925522393,0.5,0.0506639449957635,0.949336055004237,0.0266838832933283,0.5,0.159122596704558,0.472526537779503,-0.0266838832933283,-0.0252598240381044,0.5,0.946632233413343,0.93230194754364,0.0481529378755552,2.49774593331621,0.5,79.0701140119611
CBC_1024,CBC_1024_MSI_TV_v3_Vset1_Tset2_2023-07-05_16h07.59.104.csv,3,17,0,1,z,0,1,2,tac,B,63,1,0B,1B,0,1,b,2.68032099999982,1,0,0,0,0B,1B,B01,2.77258872223978,0.973316116706672,0.5,0.5,0.0266838832933283,0.0266838832933283,0.998575940744776,0.5,0.0266838832933283,0.5,0.5,0.999924001138062,0.0266838832933283,0.5,0.00142405925522393,0.00142405925522393,0.5,0.0260264595058751,0.973973540494125,0.0266838832933283,0.998575940744776,0.118940331005904,0.470807525587471,-0.0266838832933283,-0.0252598240381044,0.5,0.946632233413343,0.93230194754364,0.0481529378755552,2.49774593331621,0.5,79.0701140119611
CBC_1024,CBC_1024_MSI_TV_v3_Vset1_Tset2_2023-07-05_16h07.59.104.csv,3,18,2,3,b,1,0,1,tac,C,63,0,2C,3C,0,1,b,3.205063899999,1,0,1,0,2C,3C,C23,3.49650756146648,0.973316116706672,0.5,0.5,0.0266838832933283,0.00142405925522393,0.998575940744776,0.5,0.0266838832933283,0.5,0.5,0.999924001138062,0.0266838832933283,0.5,0.00142405925522393,0.00142405925522393,0.5,0.974007716385202,0.0259922836147979,0.999924001138062,0.0266838832933283,0.088011866593796,0.527857736614031,-0.999924001138062,-0.94656029044093,0.5,0.946632233413343,0.93230194754364,0.0481529378755552,2.49774593331621,0.5,79.0701140119611
CBC_1024,CBC_1024_MSI_TV_v3_Vset1_Tset2_2023-07-05_16h07.59.104.csv,3,19,2,0,z,0,1,3,tac,A,27,1,2A,0A,0,1,b,3.22414710000157,1,0,0,0,2A,0A,A20,3.52636052461616,0.973316116706672,0.5,0.5,0.0266838832933283,0.00142405925522393,0.998575940744776,0.5,0.0266838832933283,0.5,0.5,0.0533637106971319,0.0266838832933283,0.5,0.00142405925522393,0.00142405925522393,0.5,0.339370481548562,0.660629518451438,0.5,0.973316116706672,0.0805288367325843,0.490020219146213,-0.5,-0.473316116706672,0.5,0.946632233413343,0.93230194754364,0.0481529378755552,2.49774593331621,0.5,79.0701140119611
CBC_1024,CBC_1024_MSI_TV_v3_Vset1_Tset2_2023-07-05_16h07.59.104.csv,3,20,3,2,b,1,0,0,tac,D,63,1,3D,2D,1,0,b,2.99300829999993,1,0,1,1,3D,2D,D32,2.4567357728213,0.973316116706672,0.5,0.0266838832933283,0.0266838832933283,0.00142405925522393,0.998575940744776,0.5,0.0266838832933283,0.5,0.5,0.0533637106971319,0.0266838832933283,0.5,0.00142405925522393,0.00142405925522393,0.5,0.997159970230908,0.00284002976909229,0.5,0.00142405925522393,0.104564867699498,0.5302298778978,0.5,0.473316116706672,0.5,0.946632233413343,0.93230194754364,0.0481529378755552,2.49774593331621,0.5,79.0701140119611
CBC_1024,CBC_1024_MSI_TV_v3_Vset1_Tset2_2023-07-05_16h07.59.104.csv,3,21,3,1,z,0,1,2,tac,B,27,1,3B,1B,0,1,z,2.86166960000082,0,1,1,1,1B,3B,B31,3.58351893845611,0.973316116706672,0.5,0.0266838832933283,0.0266838832933283,0.00142405925522393,0.998575940744776,0.5,0.0266838832933283,0.5,0.5,0.0533637106971319,0.0266838832933283,0.5,0.00142405925522393,0.00142405925522393,0.973316116706672,0.973973540494125,0.0260264595058751,0.998575940744776,0.0266838832933283,0.11574267139809,0.528900757130417,0.00142405925522393,0.00134806039328557,0.5,0.946632233413343,0.93230194754364,0.0481529378755552,2.49774593331621,0.5,79.0701140119611
CBC_1024,CBC_1024_MSI_TV_v3_Vset1_Tset2_2023-07-05_16h07.59.104.csv,3,22,3,2,z,0,1,1,tac,C,63,1,3C,2C,0,1,b,3.94050980000065,1,0,0,0,3C,2C,C32,2.51230562397611,0.973316116706672,0.5,0.0266838832933283,0.0266838832933283,0.00142405925522393,0.999924001138062,0.5,0.0266838832933283,0.5,0.5,0.0533637106971319,0.0266838832933283,0.5,0.00142405925522393,0.00142405925522393,0.973316116706672,0.333350222825041,0.666649777174959,0.0266838832933283,0.0533637106971319,0.0457497359095353,0.490646301325029,-0.0266838832933283,-0.0252598240381044,0.5,0.946632233413343,0.93230194754364,0.0481529378755552,2.49774593331621,0.5,79.0701140119611
CBC_1024,CBC_1024_MSI_TV_v3_Vset1_Tset2_2023-07-05_16h07.59.104.csv,3,23,0,1,b,1,0,3,tac,A,63,1,0A,1A,1,0,b,1.91039469999851,1,0,1,1,0A,1A,A01,2.53897387105828,0.973316116706672,0.5,0.0266838832933283,0.0266838832933283,0.00142405925522393,0.999924001138062,0.5,0.0266838832933283,0.5,0.5,0.0533637106971319,0.00142405925522393,0.5,0.00142405925522393,0.00142405925522393,0.973316116706672,0.660629518451438,0.339370481548562,0.973316116706672,0.5,0.235612921951451,0.510224501984336,0.0266838832933283,0.0252598240381043,0.5,0.946632233413343,0.93230194754364,0.0481529378755552,2.49774593331621,0.5,79.0701140119611
CBC_1024,CBC_1024_MSI_TV_v3_Vset1_Tset2_2023-07-05_16h07.59.104.csv,3,24,2,1,z,0,1,2,tac,B,9,1,2B,1B,0,1,z,2.14553010000054,0,1,1,1,1B,2B,B21,3.66356164612965,0.998575940744776,0.5,0.0266838832933283,0.0266838832933283,0.00142405925522393,0.999924001138062,0.5,0.0266838832933283,0.5,0.5,0.0533637106971319,0.00142405925522393,0.5,0.00142405925522393,0.00142405925522393,0.973316116706672,0.666649777174959,0.333350222825041,0.999924001138062,0.5,0.196030000113923,0.50886365932438,7.59988619383201e-05,7.19429724135443e-05,0.5,0.946632233413343,0.93230194754364,0.0481529378755552,2.49774593331621,0.5,79.0701140119611
CBC_1024,CBC_1024_MSI_TV_v3_Vset1_Tset2_2023-07-05_16h07.59.104.csv,3,25,2,3,b,1,0,1,tac,C,63,1,2C,3C,1,0,b,2.85020760000043,1,0,1,1,2C,3C,C23,2.99573227355399,0.998575940744776,0.5,0.0266838832933283,0.0266838832933283,0.00142405925522393,0.999995944110475,0.5,0.0266838832933283,0.5,0.5,0.0533637106971319,0.00142405925522393,0.5,0.00142405925522393,0.00142405925522393,0.973316116706672,0.974007716385202,0.0259922836147979,0.0533637106971319,0.00142405925522393,0.116548564153751,0.52775482817003,0.946636289302868,0.896116424772894,0.5,0.946632233413343,0.93230194754364,0.0481529378755552,2.49774593331621,0.5,79.0701140119611
CBC_1024,CBC_1024_MSI_TV_v3_Vset1_Tset2_2023-07-05_16h07.59.104.csv,3,26,2,3,z,0,1,0,tac,D,63,1,2D,3D,0,1,z,2.71748449999905,0,1,1,1,3D,2D,D23,3.71357206670431,0.998575940744776,0.5,0.0266838832933283,0.0266838832933283,0.00142405925522393,0.999995944110475,0.5,0.0266838832933283,0.5,0.5,0.949480135470026,0.00142405925522393,0.5,0.00142405925522393,0.00142405925522393,0.973316116706672,0.998539037078452,0.00146096292154844,0.973316116706672,0.00142405925522393,0.130067021834492,0.530236103547035,0.0266838832933283,0.0252598240381043,0.5,0.946632233413343,0.93230194754364,0.0481529378755552,2.49774593331621,0.5,79.0701140119611
CBC_1024,CBC_1024_MSI_TV_v3_Vset1_Tset2_2023-07-05_16h07.59.104.csv,3,27,0,1,z,0,1,2,tac,B,63,1,0B,1B,NaN,NaN,None,NaN,NaN,NaN,NaN,NaN,,,B01,2.63905732961526,0.998575940744776,0.5,0.0266838832933283,0.0266838832933283,0.00142405925522393,0.999995944110475,0.5,0.0266838832933283,0.5,0.5,0.949480135470026,0.00142405925522393,0.5,0.00142405925522393,0.00142405925522393,0.998575940744776,0,0,0,0,NaN,0,0,0,0.5,0.946632233413343,0.93230194754364,0.0481529378755552,2.49774593331621,0.5,79.0701140119611
CBC_1024,CBC_1024_MSI_TV_v3_Vset1_Tset2_2023-07-05_16h07.59.104.csv,3,28,0,2,b,1,0,3,tac,A,27,1,0A,2A,1,0,b,2.79423400000087,1,0,1,1,0A,2A,A02,3.76120011569356,0.998575940744776,0.5,0.0266838832933283,0.0266838832933283,0.00142405925522393,0.999995944110475,0.5,0.0266838832933283,0.5,0.5,0.949480135470026,0.00142405925522393,0.5,0.00142405925522393,0.00142405925522393,0.998575940744776,0.973973540494125,0.0260264595058751,0.998575940744776,0.0266838832933283,0.121752867558148,0.52741430647849,0.00142405925522393,0.00134806039328557,0.5,0.946632233413343,0.93230194754364,0.0481529378755552,2.49774593331621,0.5,79.0701140119611
CBC_1024,CBC_1024_MSI_TV_v3_Vset1_Tset2_2023-07-05_16h07.59.104.csv,3,29,1,3,z,0,1,0,tac,D,27,1,1D,3D,0,1,b,3.09056559999954,1,0,0,0,1D,3D,D13,3.09104245335832,0.999924001138062,0.5,0.0266838832933283,0.0266838832933283,0.00142405925522393,0.999995944110475,0.5,0.0266838832933283,0.5,0.5,0.949480135470026,0.00142405925522393,0.5,0.00142405925522393,0.00142405925522393,0.998575940744776,0.00142405925522393,0.998575940744776,0.00142405925522393,0.998575940744776,0.0856655956292802,0.469306016349462,-0.00142405925522393,-0.00134806039328557,0.5,0.946632233413343,0.93230194754364,0.0481529378755552,2.49774593331621,0.5,79.0701140119611
CBC_1024,CBC_1024_MSI_TV_v3_Vset1_Tset2_2023-07-05_16h07.59.104.csv,3,30,1,0,z,0,1,3,tac,A,63,1,1A,0A,0,1,z,2.33426919999874,0,1,1,1,0A,1A,A10,3.11351530921037,0.999924001138062,0.5,0.0266838832933283,0.0266838832933283,0.00142405925522393,0.999995944110475,0.5,0.0266838832933283,0.5,0.5,0.949480135470026,0.00142405925522393,0.5,7.59988619383591e-05,0.00142405925522393,0.998575940744776,0.666649777174959,0.333350222825041,0.999924001138062,0.5,0.169289375780764,0.509719004729134,7.59988619383201e-05,7.19429724135443e-05,0.5,0.946632233413343,0.93230194754364,0.0481529378755552,2.49774593331621,0.5,79.0701140119611
CBC_1024,CBC_1024_MSI_TV_v3_Vset1_Tset2_2023-07-05_16h07.59.104.csv,3,31,2,0,b,1,0,1,tac,C,27,1,2C,0C,1,0,z,2.98370900000009,0,1,0,0,0C,2C,C20,3.8286413964891,0.999995944110475,0.5,0.0266838832933283,0.0266838832933283,0.00142405925522393,0.999995944110475,0.5,0.0266838832933283,0.5,0.5,0.949480135470026,0.00142405925522393,0.5,7.59988619383591e-05,0.00142405925522393,0.998575940744776,0.344951260637914,0.655048739362086,0.5,0.949480135470026,0.0972908707126534,0.489474860777395,-0.5,-0.473316116706672,0.5,0.946632233413343,0.93230194754364,0.0481529378755552,2.49774593331621,0.5,79.0701140119611
CBC_1024,CBC_1024_MSI_TV_v3_Vset1_Tset2_2023-07-05_16h07.59.104.csv,3,32,2,3,z,0,1,0,tac,D,63,1,2D,3D,0,1,b,3.58088070000122,1,0,0,0,2D,3D,D23,3.15700042115011,0.999995944110475,0.5,0.0266838832933283,0.0266838832933283,0.00142405925522393,0.999995944110475,0.5,0.0266838832933283,0.0266838832933283,0.5,0.949480135470026,0.00142405925522393,0.5,7.59988619383591e-05,0.00142405925522393,0.998575940744776,0.00142405925522393,0.998575940744776,0.00142405925522393,0.998575940744776,0.0582250081086496,0.470340892538431,-0.00142405925522393,-0.00134806039328557,0.5,0.946632233413343,0.93230194754364,0.0481529378755552,2.49774593331621,0.5,79.0701140119611
CBC_1024,CBC_1024_MSI_TV_v3_Vset1_Tset2_2023-07-05_16h07.59.104.csv,3,33,1,0,b,1,0,2,tac,B,63,1,1B,0B,1,0,z,1.82309560000067,0,1,0,0,0B,1B,B10,2.77258872223978,0.999995944110475,0.5,0.0266838832933283,0.0266838832933283,0.00142405925522393,0.999995944110475,0.5,0.0266838832933283,0.0266838832933283,0.5,0.949480135470026,0.00142405925522393,0.5,7.59988619383591e-05,7.59988619383591e-05,0.998575940744776,0.00142203995370352,0.998577960046296,0.00142405925522393,0.999995944110475,0.231680589510485,0.470055923447967,-0.00142405925522393,-0.00134806039328557,0.5,0.946632233413343,0.93230194754364,0.0481529378755552,2.49774593331621,0.5,79.0701140119611
CBC_1024,CBC_1024_MSI_TV_v3_Vset1_Tset2_2023-07-05_16h07.59.104.csv,3,34,0,1,b,1,0,3,tac,A,63,1,0A,1A,1,0,z,1.68818660000034,0,1,0,0,1A,0A,A01,2.50552593699074,0.999995944110475,0.5,0.0266838832933283,0.0266838832933283,7.59988619383591e-05,0.999995944110475,0.5,0.0266838832933283,0.0266838832933283,0.5,0.949480135470026,0.00142405925522393,0.5,7.59988619383591e-05,7.59988619383591e-05,0.998575940744776,0.333334234644554,0.666665765355446,0.5,0.999995944110475,0.264645432146592,0.490053512001542,-0.5,-0.473316116706672,0.5,0.946632233413343,0.93230194754364,0.0481529378755552,2.49774593331621,0.5,79.0701140119611
CBC_1024,CBC_1024_MSI_TV_v3_Vset1_Tset2_2023-07-05_16h07.59.104.csv,3,35,2,3,z,0,1,0,tac,D,63,0,2D,3D,NaN,NaN,None,NaN,NaN,NaN,NaN,NaN,,,D23,2.81341071676004,0.999995944110475,0.0266838832933283,0.0266838832933283,0.0266838832933283,7.59988619383591e-05,0.999995944110475,0.5,0.0266838832933283,0.0266838832933283,0.5,0.949480135470026,0.00142405925522393,0.5,7.59988619383591e-05,7.59988619383591e-05,0.998575940744776,0,0,0,0,NaN,0,0,0,0.5,0.946632233413343,0.93230194754364,0.0481529378755552,2.49774593331621,0.5,79.0701140119611
CBC_1024,CBC_1024_MSI_TV_v3_Vset1_Tset2_2023-07-05_16h07.59.104.csv,3,36,2,0,b,1,0,1,tac,C,27,1,2C,0C,1,0,z,4.04563690000032,0,1,0,0,0C,2C,C20,3.23867845216438,0.999995944110475,0.0266838832933283,0.0266838832933283,0.0266838832933283,7.59988619383591e-05,0.999995944110475,0.5,0.0266838832933283,0.0266838832933283,0.5,0.949480135470026,0.00142405925522393,0.5,7.59988619383591e-05,7.59988619383591e-05,0.998575940744776,0.0273354505804594,0.972664549419541,0.0266838832933283,0.949480135470026,0.0404529142232725,0.472114585623827,-0.0266838832933283,-0.0252598240381044,0.5,0.946632233413343,0.93230194754364,0.0481529378755552,2.49774593331621,0.5,79.0701140119611
CBC_1024,CBC_1024_MSI_TV_v3_Vset1_Tset2_2023-07-05_16h07.59.104.csv,3,37,0,1,b,1,0,3,tac,A,63,1,0A,1A,1,0,b,2.64080209999884,1,0,1,1,0A,1A,A01,2.34180580614733,0.999995944110475,0.0266838832933283,0.0266838832933283,0.0266838832933283,7.59988619383591e-05,0.999995944110475,0.5,0.0266838832933283,0.00142405925522393,0.5,0.949480135470026,0.00142405925522393,0.5,7.59988619383591e-05,7.59988619383591e-05,0.998575940744776,0.974009537753552,0.025990462246448,0.999995944110475,0.0266838832933283,0.13784228169095,0.528817950442521,4.05588952478997e-06,3.83943575932971e-06,0.5,0.946632233413343,0.93230194754364,0.0481529378755552,2.49774593331621,0.5,79.0701140119611
CBC_1024,CBC_1024_MSI_TV_v3_Vset1_Tset2_2023-07-05_16h07.59.104.csv,3,38,1,3,b,1,0,2,tac,B,27,1,1B,3B,1,0,b,3.23164170000018,1,0,1,1,1B,3B,B13,3.27714473299218,0.999999783546235,0.0266838832933283,0.0266838832933283,0.0266838832933283,7.59988619383591e-05,0.999995944110475,0.5,0.0266838832933283,0.00142405925522393,0.5,0.949480135470026,0.00142405925522393,0.5,7.59988619383591e-05,7.59988619383591e-05,0.998575940744776,0.974009537753552,0.025990462246448,0.999995944110475,0.0266838832933283,0.0862045299958903,0.528020814836667,4.05588952478997e-06,3.83943575932971e-06,0.5,0.946632233413343,0.93230194754364,0.0481529378755552,2.49774593331621,0.5,79.0701140119611
CBC_1024,CBC_1024_MSI_TV_v3_Vset1_Tset2_2023-07-05_16h07.59.104.csv,3,39,3,2,z,0,1,1,tac,C,63,1,3C,2C,0,1,b,2.71336660000088,1,0,0,0,3C,2C,C32,2.60268968544438,0.999999783546235,0.0266838832933283,0.0266838832933283,0.0266838832933283,7.59988619383591e-05,0.999999783546235,0.5,0.0266838832933283,0.00142405925522393,0.5,0.949480135470026,0.00142405925522393,0.5,7.59988619383591e-05,7.59988619383591e-05,0.998575940744776,0.00149758436562097,0.998502415634379,0.00142405925522393,0.949480135470026,0.115788198241783,0.470483879548084,-0.00142405925522393,-0.00134806039328557,0.5,0.946632233413343,0.93230194754364,0.0481529378755552,2.49774593331621,0.5,79.0701140119611
CBC_1024,CBC_1024_MSI_TV_v3_Vset1_Tset2_2023-07-05_16h07.59.104.csv,3,40,3,2,b,1,0,0,tac,D,63,1,3D,2D,1,0,b,2.71648230000028,1,0,1,1,3D,2D,D32,2.62103882411258,0.999999783546235,0.0266838832933283,0.0266838832933283,0.0266838832933283,7.59988619383591e-05,0.999999783546235,0.5,0.0266838832933283,0.00142405925522393,0.5,0.949480135470026,7.59988619383591e-05,0.5,7.59988619383591e-05,7.59988619383591e-05,0.998575940744776,0.999923898548709,7.61014512907157e-05,0.998575940744776,7.59988619383591e-05,0.130093057636467,0.529918536788134,0.00142405925522393,0.00134806039328557,0.5,0.946632233413343,0.93230194754364,0.0481529378755552,2.49774593331621,0.5,79.0701140119611
CBC_1024,CBC_1024_MSI_TV_v3_Vset1_Tset2_2023-07-05_16h07.59.104.csv,3,41,0,1,z,0,1,2,tac,B,63,1,0B,1B,0,1,b,3.05525690000104,1,0,0,0,0B,1B,B01,2.63905732961526,0.999999783546235,0.0266838832933283,0.0266838832933283,0.0266838832933283,7.59988619383591e-05,0.999999783546235,0.5,0.0266838832933283,0.00142405925522393,0.5,0.949480135470026,7.59988619383591e-05,0.5,7.59988619383591e-05,7.59988619383591e-05,0.999924001138062,7.59931029980094e-05,0.999924006897002,7.59988619383591e-05,0.999999783546235,0.0882583643969154,0.470155693514223,-7.59988619383591e-05,-7.19429724135812e-05,0.5,0.946632233413343,0.93230194754364,0.0481529378755552,2.49774593331621,0.5,79.0701140119611
CBC_1024,CBC_1024_MSI_TV_v3_Vset1_Tset2_2023-07-05_16h07.59.104.csv,3,42,2,0,z,0,1,3,tac,A,27,1,2A,0A,0,1,b,1.13864899999862,1,0,0,0,2A,0A,A20,3.3499040872746,0.999999783546235,0.0266838832933283,0.0266838832933283,0.0266838832933283,4.05588952477789e-06,0.999999783546235,0.5,0.0266838832933283,0.00142405925522393,0.5,0.949480135470026,7.59988619383591e-05,0.5,7.59988619383591e-05,7.59988619383591e-05,0.999924001138062,0.0259903650512618,0.974009634948738,0.0266838832933283,0.999999783546235,0.114530174302133,0.471023510141263,-0.0266838832933283,-0.0252598240381044,0.5,0.946632233413343,0.93230194754364,0.0481529378755552,2.49774593331621,0.5,79.0701140119611
CBC_1024,CBC_1024_MSI_TV_v3_Vset1_Tset2_2023-07-05_16h07.59.104.csv,3,43,3,0,b,1,0,0,tac,D,9,1,3D,0D,1,0,b,1.58696549999877,1,0,1,1,3D,0D,D30,4.06044301054642,0.999999783546235,0.0266838832933283,0.00142405925522393,0.0266838832933283,4.05588952477789e-06,0.999999783546235,0.5,0.0266838832933283,0.00142405925522393,0.5,0.949480135470026,7.59988619383591e-05,0.5,7.59988619383591e-05,7.59988619383591e-05,0.999924001138062,0.666649777174959,0.333350222825041,0.999924001138062,0.5,0.291570538141304,0.510142331124491,7.59988619383201e-05,7.19429724135443e-05,0.5,0.946632233413343,0.93230194754364,0.0481529378755552,2.49774593331621,0.5,79.0701140119611
CBC_1024,CBC_1024_MSI_TV_v3_Vset1_Tset2_2023-07-05_16h07.59.104.csv,3,44,3,2,z,0,1,1,tac,C,63,1,3C,2C,0,1,b,2.51286450000043,1,0,0,0,3C,2C,C32,2.46809953147162,0.999999783546235,0.0266838832933283,0.00142405925522393,0.0266838832933283,4.05588952477789e-06,0.999999783546235,0.5,0.0266838832933283,0.00142405925522393,0.5,0.949480135470026,7.59988619383591e-05,0.5,7.59988619383591e-05,7.59988619383591e-05,0.999995944110475,8.00361971141666e-05,0.999919963802886,7.59988619383591e-05,0.949480135470026,0.135727531891202,0.470561004820589,-7.59988619383591e-05,-7.19429724135812e-05,0.5,0.946632233413343,0.93230194754364,0.0481529378755552,2.49774593331621,0.5,79.0701140119611
CBC_1024,CBC_1024_MSI_AV_v3_Vset4_Aset2_2023-07-05_16h16.42.189.csv,4,1,0,1,b,1,0,3,aud,A,63,1,0A,1A,1,0,b,2.53505729999961,1,0,1,1,0A,1A,A01,2.77258872223978,0.5,0.5,0.5,0.5,0.5,0.5,0.5,0.5,0.5,0.5,0.5,0.5,0.5,0.5,0.5,0.5,0.5,0.5,0.5,0.5,0.160430380551149,0.500428950329183,0.5,0.167736556549454,0.5,0.335473113098909,1.09626185873553,1.39941764715196,2.88595020614919,0.5,78.4206706658652
CBC_1024,CBC_1024_MSI_AV_v3_Vset4_Aset2_2023-07-05_16h16.42.189.csv,4,2,2,3,z,0,1,0,aud,D,63,1,2D,3D,0,1,b,2.72335829999975,1,0,0,0,2D,3D,D23,2.83321334405622,0.667736556549454,0.5,0.5,0.5,0.5,0.5,0.5,0.5,0.5,0.5,0.5,0.5,0.5,0.5,0.5,0.5,0.5,0.5,0.5,0.5,0.143900507487469,0.500876002677193,-0.5,-0.167736556549454,0.5,0.335473113098909,1.09626185873553,1.39941764715196,2.88595020614919,0.5,78.4206706658652
CBC_1024,CBC_1024_MSI_AV_v3_Vset4_Aset2_2023-07-05_16h16.42.189.csv,4,3,0,2,z,0,1,1,aud,C,27,1,0C,2C,0,1,b,3.28447140000026,1,0,0,0,0C,2C,C02,2.89037175789616,0.667736556549454,0.5,0.5,0.5,0.5,0.5,0.5,0.5,0.5,0.5,0.5,0.5,0.5,0.5,0.332263443450546,0.5,0.5,0.5,0.5,0.5,0.10292565769508,0.498925895989683,-0.5,-0.167736556549454,0.5,0.335473113098909,1.09626185873553,1.39941764715196,2.88595020614919,0.5,78.4206706658652
CBC_1024,CBC_1024_MSI_AV_v3_Vset4_Aset2_2023-07-05_16h16.42.189.csv,4,4,0,1,b,1,0,3,aud,A,63,1,0A,1A,1,0,b,2.35016159999941,1,0,1,1,0A,1A,A01,2.2512917986065,0.667736556549454,0.5,0.5,0.5,0.5,0.5,0.5,0.5,0.332263443450546,0.5,0.5,0.5,0.5,0.5,0.332263443450546,0.5,0.57182123211296,0.42817876788704,0.667736556549454,0.5,0.232239772757216,0.641712915745119,0.332263443450546,0.111465451743318,0.5,0.335473113098909,1.09626185873553,1.39941764715196,2.88595020614919,0.5,78.4206706658652
CBC_1024,CBC_1024_MSI_AV_v3_Vset4_Aset2_2023-07-05_16h16.42.189.csv,4,5,1,3,b,1,0,2,aud,B,27,1,1B,3B,1,0,b,2.3592091999999,1,0,1,1,1B,3B,B13,2.99573227355399,0.779202008292772,0.5,0.5,0.5,0.5,0.5,0.5,0.5,0.332263443450546,0.5,0.5,0.5,0.5,0.5,0.332263443450546,0.5,0.5,0.5,0.5,0.5,0.177028595483433,0.499701872614513,0.5,0.167736556549454,0.5,0.335473113098909,1.09626185873553,1.39941764715196,2.88595020614919,0.5,78.4206706658652
CBC_1024,CBC_1024_MSI_AV_v3_Vset4_Aset2_2023-07-05_16h16.42.189.csv,4,6,3,2,z,0,1,1,aud,C,63,1,3C,2C,0,1,z,2.44541799999934,0,1,1,1,2C,3C,C32,3.04452243772342,0.779202008292772,0.5,0.5,0.5,0.5,0.667736556549454,0.5,0.5,0.332263443450546,0.5,0.5,0.5,0.5,0.5,0.332263443450546,0.5,0.5,0.5,0.5,0.5,0.168892749682683,0.500445612417014,0.5,0.167736556549454,0.5,0.335473113098909,1.09626185873553,1.39941764715196,2.88595020614919,0.5,78.4206706658652
CBC_1024,CBC_1024_MSI_AV_v3_Vset4_Aset2_2023-07-05_16h16.42.189.csv,4,7,3,2,b,1,0,0,aud,D,63,1,3D,2D,1,0,b,2.93909239999994,1,0,1,1,3D,2D,D32,3.09104245335832,0.779202008292772,0.5,0.5,0.5,0.5,0.667736556549454,0.5,0.5,0.332263443450546,0.5,0.667736556549454,0.5,0.5,0.5,0.332263443450546,0.5,0.60077131097698,0.39922868902302,0.5,0.332263443450546,0.176855678217398,0.69377992696962,0.5,0.167736556549454,0.5,0.335473113098909,1.09626185873553,1.39941764715196,2.88595020614919,0.5,78.4206706658652
CBC_1024,CBC_1024_MSI_AV_v3_Vset4_Aset2_2023-07-05_16h16.42.189.csv,4,8,0,1,z,0,1,2,aud,B,63,1,0B,1B,0,1,b,4.10465170000134,1,0,0,0,0B,1B,B01,3.13549421592915,0.779202008292772,0.5,0.5,0.5,0.5,0.667736556549454,0.5,0.5,0.332263443450546,0.5,0.667736556549454,0.5,0.5,0.5,0.332263443450546,0.667736556549454,0.42817876788704,0.57182123211296,0.5,0.667736556549454,0.0448183142383827,0.359934290922624,-0.5,-0.167736556549454,0.5,0.335473113098909,1.09626185873553,1.39941764715196,2.88595020614919,0.5,78.4206706658652
CBC_1024,CBC_1024_MSI_AV_v3_Vset4_Aset2_2023-07-05_16h16.42.189.csv,4,9,2,0,z,0,1,3,aud,A,27,1,2A,0A,0,1,z,1.93385620000117,0,1,1,1,0A,2A,A20,3.17805383034795,0.779202008292772,0.5,0.5,0.5,0.332263443450546,0.667736556549454,0.5,0.5,0.332263443450546,0.5,0.667736556549454,0.5,0.5,0.5,0.332263443450546,0.667736556549454,0.609131320339856,0.390868679660144,0.779202008292772,0.5,0.323929640179657,0.707428898961042,0.220797991707228,0.0740717896440108,0.5,0.335473113098909,1.09626185873553,1.39941764715196,2.88595020614919,0.5,78.4206706658652
CBC_1024,CBC_1024_MSI_AV_v3_Vset4_Aset2_2023-07-05_16h16.42.189.csv,4,10,3,0,b,1,0,0,aud,D,9,1,3D,0D,1,0,b,2.13825300000099,1,0,1,1,3D,0D,D30,3.2188758248682,0.853273797936783,0.5,0.5,0.5,0.332263443450546,0.667736556549454,0.5,0.5,0.332263443450546,0.5,0.667736556549454,0.5,0.5,0.5,0.332263443450546,0.667736556549454,0.57182123211296,0.42817876788704,0.667736556549454,0.5,0.260290165770626,0.640617562125452,0.332263443450546,0.111465451743318,0.5,0.335473113098909,1.09626185873553,1.39941764715196,2.88595020614919,0.5,78.4206706658652
CBC_1024,CBC_1024_MSI_AV_v3_Vset4_Aset2_2023-07-05_16h16.42.189.csv,4,11,2,3,b,1,0,1,aud,C,63,1,2C,3C,1,0,b,3.34102150000035,1,0,1,1,2C,3C,C23,3.25809653802148,0.853273797936783,0.5,0.5,0.5,0.332263443450546,0.667736556549454,0.5,0.5,0.332263443450546,0.5,0.667736556549454,0.5,0.5,0.5,0.332263443450546,0.779202008292772,0.57182123211296,0.42817876788704,0.667736556549454,0.5,0.127430746230949,0.641223425951134,0.332263443450546,0.111465451743318,0.5,0.335473113098909,1.09626185873553,1.39941764715196,2.88595020614919,0.5,78.4206706658652
CBC_1024,CBC_1024_MSI_AV_v3_Vset4_Aset2_2023-07-05_16h16.42.189.csv,4,12,0,1,z,0,1,2,aud,B,63,1,0B,1B,0,1,z,2.22444759999962,0,1,1,1,1B,0B,B01,2.60268968544438,0.853273797936783,0.5,0.5,0.5,0.332263443450546,0.667736556549454,0.5,0.5,0.332263443450546,0.5,0.779202008292772,0.5,0.5,0.5,0.332263443450546,0.779202008292772,0.667736556549454,0.332263443450546,0.667736556549454,0.332263443450546,0.331531281464389,0.79527199354046,0.332263443450546,0.111465451743318,0.5,0.335473113098909,1.09626185873553,1.39941764715196,2.88595020614919,0.5,78.4206706658652
CBC_1024,CBC_1024_MSI_AV_v3_Vset4_Aset2_2023-07-05_16h16.42.189.csv,4,13,2,3,z,0,1,0,aud,D,63,1,2D,3D,0,1,b,2.8987075999994,1,0,0,0,2D,3D,D23,2.63905732961526,0.853273797936783,0.5,0.5,0.5,0.332263443450546,0.779202008292772,0.5,0.5,0.332263443450546,0.5,0.779202008292772,0.5,0.5,0.5,0.332263443450546,0.779202008292772,0.298941764613012,0.701058235386988,0.332263443450546,0.779202008292772,0.0432276947333263,0.164594104132726,-0.332263443450546,-0.111465451743318,0.5,0.335473113098909,1.09626185873553,1.39941764715196,2.88595020614919,0.5,78.4206706658652
CBC_1024,CBC_1024_MSI_AV_v3_Vset4_Aset2_2023-07-05_16h16.42.189.csv,4,14,2,3,b,1,0,1,aud,C,63,1,2C,3C,1,0,z,3.01412060000075,0,1,0,0,3C,2C,C23,2.67414864942653,0.853273797936783,0.5,0.5,0.5,0.332263443450546,0.779202008292772,0.5,0.5,0.332263443450546,0.5,0.779202008292772,0.5,0.5,0.5,0.220797991707228,0.779202008292772,0.390868679660144,0.609131320339856,0.5,0.779202008292772,0.0708848251868349,0.291448919466561,-0.5,-0.167736556549454,0.5,0.335473113098909,1.09626185873553,1.39941764715196,2.88595020614919,0.5,78.4206706658652
CBC_1024,CBC_1024_MSI_AV_v3_Vset4_Aset2_2023-07-05_16h16.42.189.csv,4,15,3,1,z,0,1,2,aud,B,27,1,3B,1B,0,1,z,2.25662399999965,0,1,1,1,1B,3B,B31,3.40119738166216,0.853273797936783,0.5,0.5,0.5,0.332263443450546,0.779202008292772,0.5,0.5,0.332263443450546,0.5,0.779202008292772,0.332263443450546,0.5,0.5,0.220797991707228,0.779202008292772,0.609131320339856,0.390868679660144,0.779202008292772,0.5,0.275883527318398,0.707371941596813,0.220797991707228,0.0740717896440108,0.5,0.335473113098909,1.09626185873553,1.39941764715196,2.88595020614919,0.5,78.4206706658652
CBC_1024,CBC_1024_MSI_AV_v3_Vset4_Aset2_2023-07-05_16h16.42.189.csv,4,16,0,3,b,1,0,3,aud,A,9,1,0A,3A,1,0,b,2.08950209999966,1,0,1,1,0A,3A,A03,3.43398720448515,0.853273797936783,0.5,0.5,0.5,0.332263443450546,0.853273797936783,0.5,0.5,0.332263443450546,0.5,0.779202008292772,0.332263443450546,0.5,0.5,0.220797991707228,0.779202008292772,0.630525618125241,0.369474381874759,0.853273797936783,0.5,0.323302720964659,0.742049664613596,0.146726202063217,0.049222695779327,0.5,0.335473113098909,1.09626185873553,1.39941764715196,2.88595020614919,0.5,78.4206706658652
CBC_1024,CBC_1024_MSI_AV_v3_Vset4_Aset2_2023-07-05_16h16.42.189.csv,4,17,2,3,z,0,1,0,aud,D,63,1,2D,3D,0,1,z,2.31216360000144,0,1,1,1,3D,2D,D23,2.36712361413162,0.90249649371611,0.5,0.5,0.5,0.332263443450546,0.853273797936783,0.5,0.5,0.332263443450546,0.5,0.779202008292772,0.332263443450546,0.5,0.5,0.220797991707228,0.779202008292772,0.779202008292772,0.220797991707228,0.779202008292772,0.220797991707228,0.387151962578596,0.904886535012732,0.220797991707228,0.0740717896440108,0.5,0.335473113098909,1.09626185873553,1.39941764715196,2.88595020614919,0.5,78.4206706658652
CBC_1024,CBC_1024_MSI_AV_v3_Vset4_Aset2_2023-07-05_16h16.42.189.csv,4,18,0,2,z,0,1,1,aud,C,27,1,0C,2C,0,1,z,1.79260939999949,0,1,1,1,2C,0C,C02,2.80336038090653,0.90249649371611,0.5,0.5,0.5,0.332263443450546,0.853273797936783,0.5,0.5,0.332263443450546,0.5,0.779202008292772,0.332263443450546,0.5,0.5,0.220797991707228,0.853273797936783,0.701058235386988,0.298941764613012,0.779202008292772,0.332263443450546,0.448737477183716,0.835873229120792,0.220797991707228,0.0740717896440108,0.5,0.335473113098909,1.09626185873553,1.39941764715196,2.88595020614919,0.5,78.4206706658652
CBC_1024,CBC_1024_MSI_AV_v3_Vset4_Aset2_2023-07-05_16h16.42.189.csv,4,19,0,1,b,1,0,3,aud,A,63,1,0A,1A,1,0,b,4.18584790000023,1,0,1,1,0A,1A,A01,2.42774823594805,0.90249649371611,0.5,0.5,0.5,0.332263443450546,0.853273797936783,0.5,0.5,0.332263443450546,0.5,0.853273797936783,0.332263443450546,0.5,0.5,0.220797991707228,0.853273797936783,0.64349286986438,0.35650713013562,0.90249649371611,0.5,0.0841688899133302,0.761923195842137,0.0975035062838903,0.0327098047911157,0.5,0.335473113098909,1.09626185873553,1.39941764715196,2.88595020614919,0.5,78.4206706658652
CBC_1024,CBC_1024_MSI_AV_v3_Vset4_Aset2_2023-07-05_16h16.42.189.csv,4,20,1,0,b,1,0,2,aud,B,63,0,1B,0B,0,1,b,1.33021300000109,1,0,1,0,1B,0B,B10,3.55534806148941,0.935206298507225,0.5,0.5,0.5,0.332263443450546,0.853273797936783,0.5,0.5,0.332263443450546,0.5,0.853273797936783,0.332263443450546,0.5,0.5,0.220797991707228,0.853273797936783,0.719735971295404,0.280264028704596,0.853273797936783,0.332263443450546,0.138080827864855,0.855113244317413,-0.853273797936783,-0.286250417319582,0.5,0.335473113098909,1.09626185873553,1.39941764715196,2.88595020614919,0.5,78.4206706658652
CBC_1024,CBC_1024_MSI_AV_v3_Vset4_Aset2_2023-07-05_16h16.42.189.csv,4,21,3,1,b,1,0,0,aud,D,27,1,3D,1D,1,0,b,2.48484989999997,1,0,1,1,3D,1D,D31,3.58351893845611,0.935206298507225,0.5,0.5,0.5,0.332263443450546,0.567023380617201,0.5,0.5,0.332263443450546,0.5,0.853273797936783,0.332263443450546,0.5,0.5,0.220797991707228,0.853273797936783,0.630525618125241,0.369474381874759,0.853273797936783,0.5,0.254787348630768,0.741642564824364,0.146726202063217,0.049222695779327,0.5,0.335473113098909,1.09626185873553,1.39941764715196,2.88595020614919,0.5,78.4206706658652
CBC_1024,CBC_1024_MSI_AV_v3_Vset4_Aset2_2023-07-05_16h16.42.189.csv,4,22,3,2,z,0,1,1,aud,C,63,1,3C,2C,0,1,b,1.74199819999922,1,0,0,0,3C,2C,C32,2.91777073208428,0.935206298507225,0.5,0.5,0.5,0.332263443450546,0.567023380617201,0.5,0.5,0.332263443450546,0.5,0.853273797936783,0.332263443450546,0.5,0.5,0.220797991707228,0.90249649371611,0.280264028704596,0.719735971295404,0.332263443450546,0.853273797936783,0.0806371563271797,0.144976775793634,-0.332263443450546,-0.111465451743318,0.5,0.335473113098909,1.09626185873553,1.39941764715196,2.88595020614919,0.5,78.4206706658652
CBC_1024,CBC_1024_MSI_AV_v3_Vset4_Aset2_2023-07-05_16h16.42.189.csv,4,23,0,1,z,0,1,2,aud,B,63,1,0B,1B,0,1,z,1.82625910000024,0,1,1,1,1B,0B,B01,2.53897387105828,0.935206298507225,0.5,0.5,0.5,0.332263443450546,0.567023380617201,0.5,0.5,0.332263443450546,0.5,0.853273797936783,0.220797991707228,0.5,0.5,0.220797991707228,0.90249649371611,0.630525618125241,0.369474381874759,0.567023380617201,0.332263443450546,0.357591365748624,0.741386006209596,0.432976619382799,0.145252014403389,0.5,0.335473113098909,1.09626185873553,1.39941764715196,2.88595020614919,0.5,78.4206706658652
CBC_1024,CBC_1024_MSI_AV_v3_Vset4_Aset2_2023-07-05_16h16.42.189.csv,4,24,0,2,b,1,0,3,aud,A,27,1,0A,2A,1,0,b,2.6952753000005,1,0,1,1,0A,2A,A02,3.66356164612965,0.935206298507225,0.5,0.5,0.5,0.332263443450546,0.71227539502059,0.5,0.5,0.332263443450546,0.5,0.853273797936783,0.220797991707228,0.5,0.5,0.220797991707228,0.90249649371611,0.651618028348917,0.348381971651083,0.935206298507225,0.5,0.233356407617428,0.773140231121015,0.0647937014927746,0.0217365447489825,0.5,0.335473113098909,1.09626185873553,1.39941764715196,2.88595020614919,0.5,78.4206706658652
CBC_1024,CBC_1024_MSI_AV_v3_Vset4_Aset2_2023-07-05_16h16.42.189.csv,4,25,3,2,b,1,0,0,aud,D,63,1,3D,2D,1,0,b,2.11651969999912,1,0,1,1,3D,2D,D32,2.99573227355399,0.956942843256208,0.5,0.5,0.5,0.332263443450546,0.71227539502059,0.5,0.5,0.332263443450546,0.5,0.853273797936783,0.220797991707228,0.5,0.5,0.220797991707228,0.90249649371611,0.803437126619548,0.196562873380452,0.90249649371611,0.220797991707228,0.474146792516055,0.920560857882181,0.0975035062838903,0.0327098047911157,0.5,0.335473113098909,1.09626185873553,1.39941764715196,2.88595020614919,0.5,78.4206706658652
CBC_1024,CBC_1024_MSI_AV_v3_Vset4_Aset2_2023-07-05_16h16.42.189.csv,4,26,0,2,z,0,1,1,aud,C,27,1,0C,2C,0,1,z,3.72633179999866,0,1,1,1,2C,0C,C02,2.6149597780362,0.956942843256208,0.5,0.5,0.5,0.332263443450546,0.71227539502059,0.5,0.5,0.332263443450546,0.5,0.853273797936783,0.220797991707228,0.5,0.5,0.220797991707228,0.935206298507225,0.719735971295404,0.280264028704596,0.853273797936783,0.332263443450546,0.117280038429343,0.854899224560127,0.146726202063217,0.049222695779327,0.5,0.335473113098909,1.09626185873553,1.39941764715196,2.88595020614919,0.5,78.4206706658652
CBC_1024,CBC_1024_MSI_AV_v3_Vset4_Aset2_2023-07-05_16h16.42.189.csv,4,27,0,1,z,0,1,2,aud,B,63,1,0B,1B,0,1,z,2.01000980000026,0,1,1,1,1B,0B,B01,2.35137525716348,0.956942843256208,0.5,0.5,0.5,0.332263443450546,0.71227539502059,0.5,0.5,0.332263443450546,0.5,0.90249649371611,0.220797991707228,0.5,0.5,0.220797991707228,0.935206298507225,0.681904175112463,0.318095824887537,0.71227539502059,0.332263443450546,0.390149459287556,0.812578407796518,0.28772460497941,0.0965238689475964,0.5,0.335473113098909,1.09626185873553,1.39941764715196,2.88595020614919,0.5,78.4206706658652
CBC_1024,CBC_1024_MSI_AV_v3_Vset4_Aset2_2023-07-05_16h16.42.189.csv,4,28,1,0,z,0,1,3,aud,A,63,1,1A,0A,0,1,b,2.81331160000082,1,0,0,0,1A,0A,A10,3.76120011569356,0.956942843256208,0.5,0.5,0.5,0.332263443450546,0.808799263968186,0.5,0.5,0.332263443450546,0.5,0.90249649371611,0.220797991707228,0.5,0.5,0.220797991707228,0.935206298507225,0.343184361908474,0.656815638091526,0.5,0.956942843256208,0.0612687471286745,0.219704477406706,-0.5,-0.167736556549454,0.5,0.335473113098909,1.09626185873553,1.39941764715196,2.88595020614919,0.5,78.4206706658652
CBC_1024,CBC_1024_MSI_AV_v3_Vset4_Aset2_2023-07-05_16h16.42.189.csv,4,29,2,3,b,1,0,1,aud,C,63,1,2C,3C,1,0,b,3.31570259999899,1,0,1,1,2C,3C,C23,2.68557734525015,0.956942843256208,0.332263443450546,0.5,0.5,0.332263443450546,0.808799263968186,0.5,0.5,0.332263443450546,0.5,0.90249649371611,0.220797991707228,0.5,0.5,0.220797991707228,0.935206298507225,0.803437126619548,0.196562873380452,0.90249649371611,0.220797991707228,0.154899903439496,0.920614644858897,0.0975035062838903,0.0327098047911157,0.5,0.335473113098909,1.09626185873553,1.39941764715196,2.88595020614919,0.5,78.4206706658652
CBC_1024,CBC_1024_MSI_AV_v3_Vset4_Aset2_2023-07-05_16h16.42.189.csv,4,30,1,3,z,0,1,0,aud,D,27,1,1D,3D,0,1,z,4.05458290000024,0,1,1,1,3D,1D,D13,3.80666248977032,0.956942843256208,0.332263443450546,0.5,0.5,0.332263443450546,0.808799263968186,0.5,0.5,0.332263443450546,0.5,0.935206298507225,0.220797991707228,0.5,0.5,0.220797991707228,0.935206298507225,0.651618028348917,0.348381971651083,0.935206298507225,0.5,0.0923754597267986,0.772713196191575,0.0647937014927746,0.0217365447489825,0.5,0.335473113098909,1.09626185873553,1.39941764715196,2.88595020614919,0.5,78.4206706658652
CBC_1024,CBC_1024_MSI_AV_v3_Vset4_Aset2_2023-07-05_16h16.42.189.csv,4,31,0,1,b,1,0,3,aud,A,63,1,0A,1A,1,0,b,1.81486849999965,1,0,1,1,0A,1A,A01,2.4423470353692,0.956942843256208,0.332263443450546,0.5,0.5,0.332263443450546,0.808799263968186,0.5,0.5,0.332263443450546,0.5,0.935206298507225,0.220797991707228,0.5,0.5,0.220797991707228,0.956942843256208,0.742272864415434,0.257727135584566,0.956942843256208,0.332263443450546,0.500207084055182,0.875993414666818,0.0430571567437922,0.0144445184140276,0.5,0.335473113098909,1.09626185873553,1.39941764715196,2.88595020614919,0.5,78.4206706658652
CBC_1024,CBC_1024_MSI_AV_v3_Vset4_Aset2_2023-07-05_16h16.42.189.csv,4,32,2,3,z,0,1,0,aud,D,63,1,2D,3D,0,1,z,2.67559279999841,0,1,1,1,3D,2D,D23,2.46385324059017,0.971387361670235,0.332263443450546,0.5,0.5,0.332263443450546,0.808799263968186,0.5,0.5,0.332263443450546,0.5,0.935206298507225,0.220797991707228,0.5,0.5,0.220797991707228,0.956942843256208,0.81252412657146,0.18747587342854,0.956942843256208,0.220797991707228,0.285262990957815,0.926102640960058,0.0430571567437922,0.0144445184140276,0.5,0.335473113098909,1.09626185873553,1.39941764715196,2.88595020614919,0.5,78.4206706658652
CBC_1024,CBC_1024_MSI_AV_v3_Vset4_Aset2_2023-07-05_16h16.42.189.csv,4,33,1,2,b,1,0,2,aud,B,9,1,1B,2B,1,0,z,2.9577117000008,0,1,0,0,2B,1B,B12,3.87120101090789,0.971387361670235,0.332263443450546,0.5,0.5,0.332263443450546,0.808799263968186,0.5,0.5,0.332263443450546,0.5,0.935206298507225,0.220797991707228,0.5,0.5,0.220797991707228,0.971387361670235,0.382029554695833,0.617970445304167,0.5,0.808799263968186,0.0702027320158755,0.278271275996614,-0.5,-0.167736556549454,0.5,0.335473113098909,1.09626185873553,1.39941764715196,2.88595020614919,0.5,78.4206706658652
CBC_1024,CBC_1024_MSI_AV_v3_Vset4_Aset2_2023-07-05_16h16.42.189.csv,4,34,0,1,b,1,0,3,aud,A,63,1,0A,1A,1,0,b,3.21706989999984,1,0,1,1,0A,1A,A01,2.28238238567653,0.971387361670235,0.332263443450546,0.5,0.5,0.332263443450546,0.808799263968186,0.332263443450546,0.5,0.332263443450546,0.5,0.935206298507225,0.220797991707228,0.5,0.5,0.220797991707228,0.971387361670235,0.745128494420895,0.254871505579105,0.971387361670235,0.332263443450546,0.175372625902829,0.878756631022751,0.0286126383297646,0.00959877085445928,0.5,0.335473113098909,1.09626185873553,1.39941764715196,2.88595020614919,0.5,78.4206706658652
CBC_1024,CBC_1024_MSI_AV_v3_Vset4_Aset2_2023-07-05_16h16.42.189.csv,4,35,1,2,z,0,1,1,aud,C,9,1,1C,2C,0,1,b,3.85207239999909,1,0,0,0,1C,2C,C12,3.91202300542815,0.980986132524695,0.332263443450546,0.5,0.5,0.332263443450546,0.808799263968186,0.332263443450546,0.5,0.332263443450546,0.5,0.935206298507225,0.220797991707228,0.5,0.5,0.220797991707228,0.971387361670235,0.348381971651083,0.651618028348917,0.5,0.935206298507225,0.0310881060943918,0.22660286587137,-0.5,-0.167736556549454,0.5,0.335473113098909,1.09626185873553,1.39941764715196,2.88595020614919,0.5,78.4206706658652
CBC_1024,CBC_1024_MSI_AV_v3_Vset4_Aset2_2023-07-05_16h16.42.189.csv,4,36,0,1,z,0,1,2,aud,B,63,1,0B,1B,0,1,z,1.85112690000096,0,1,1,1,1B,0B,B01,2.32238772029023,0.980986132524695,0.332263443450546,0.5,0.5,0.332263443450546,0.808799263968186,0.332263443450546,0.5,0.332263443450546,0.332263443450546,0.935206298507225,0.220797991707228,0.5,0.5,0.220797991707228,0.971387361670235,0.708812284118741,0.291187715881259,0.808799263968186,0.332263443450546,0.45156876808405,0.843856038873821,0.191200736031814,0.0641427061433952,0.5,0.335473113098909,1.09626185873553,1.39941764715196,2.88595020614919,0.5,78.4206706658652
CBC_1024,CBC_1024_MSI_AV_v3_Vset4_Aset2_2023-07-05_16h16.42.189.csv,4,37,1,0,z,0,1,3,aud,A,63,0,1A,0A,1,0,z,4.30748139999923,0,1,1,0,0A,1A,A10,3.25809653802148,0.980986132524695,0.332263443450546,0.5,0.5,0.332263443450546,0.872941970111582,0.332263443450546,0.5,0.332263443450546,0.332263443450546,0.935206298507225,0.220797991707228,0.5,0.5,0.220797991707228,0.971387361670235,0.746991394835364,0.253008605164636,0.980986132524695,0.332263443450546,0.0708438108517891,0.880218086476149,-0.980986132524695,-0.329094471784918,0.5,0.335473113098909,1.09626185873553,1.39941764715196,2.88595020614919,0.5,78.4206706658652
CBC_1024,CBC_1024_MSI_AV_v3_Vset4_Aset2_2023-07-05_16h16.42.189.csv,4,38,1,0,b,1,0,2,aud,B,63,1,1B,0B,1,0,b,4.27294239999901,1,0,1,1,1B,0B,B10,3.27714473299218,0.651891660739777,0.332263443450546,0.5,0.5,0.332263443450546,0.872941970111582,0.332263443450546,0.5,0.332263443450546,0.332263443450546,0.935206298507225,0.220797991707228,0.5,0.5,0.220797991707228,0.971387361670235,0.724309698818476,0.275690301181524,0.872941970111582,0.332263443450546,0.0759429779102604,0.859879232039491,0.127058029888418,0.0426245528308819,0.5,0.335473113098909,1.09626185873553,1.39941764715196,2.88595020614919,0.5,78.4206706658652
CBC_1024,CBC_1024_MSI_AV_v3_Vset4_Aset2_2023-07-05_16h16.42.189.csv,4,39,3,1,b,1,0,0,aud,D,27,1,3D,1D,1,0,b,1.4897501000014,1,0,1,1,3D,1D,D31,3.29583686600433,0.651891660739777,0.332263443450546,0.5,0.5,0.332263443450546,0.915566522942463,0.332263443450546,0.5,0.332263443450546,0.332263443450546,0.935206298507225,0.220797991707228,0.5,0.5,0.220797991707228,0.971387361670235,0.660184657674082,0.339815342325918,0.971387361670235,0.5,0.304088915555954,0.78524180446918,0.0286126383297646,0.00959877085445928,0.5,0.335473113098909,1.09626185873553,1.39941764715196,2.88595020614919,0.5,78.4206706658652
CBC_1024,CBC_1024_MSI_AV_v3_Vset4_Aset2_2023-07-05_16h16.42.189.csv,4,40,2,3,b,1,0,1,aud,C,63,1,2C,3C,1,0,b,4.69300899999871,1,0,1,1,2C,3C,C23,2.62103882411258,0.651891660739777,0.332263443450546,0.5,0.5,0.332263443450546,0.915566522942463,0.332263443450546,0.5,0.332263443450546,0.332263443450546,0.935206298507225,0.220797991707228,0.5,0.5,0.220797991707228,0.980986132524695,0.808998985923947,0.191001014076053,0.935206298507225,0.220797991707228,0.0407299656175364,0.923556491961685,0.0647937014927746,0.0217365447489825,0.5,0.335473113098909,1.09626185873553,1.39941764715196,2.88595020614919,0.5,78.4206706658652
CBC_1024,CBC_1024_MSI_AV_v3_Vset4_Aset2_2023-07-05_16h16.42.189.csv,4,41,2,0,z,0,1,3,aud,A,27,1,2A,0A,0,1,z,2.70453730000008,0,1,1,1,0A,2A,A20,3.3322045101752,0.651891660739777,0.332263443450546,0.5,0.5,0.332263443450546,0.915566522942463,0.332263443450546,0.5,0.332263443450546,0.332263443450546,0.956942843256208,0.220797991707228,0.5,0.5,0.220797991707228,0.980986132524695,0.565931400459236,0.434068599540764,0.651891660739777,0.5,0.184274830946526,0.629572096169746,0.348108339260223,0.116780988267318,0.5,0.335473113098909,1.09626185873553,1.39941764715196,2.88595020614919,0.5,78.4206706658652
CBC_1024,CBC_1024_MSI_AV_v3_Vset4_Aset2_2023-07-05_16h16.42.189.csv,4,42,3,2,b,1,0,0,aud,D,63,1,3D,2D,1,0,b,2.80603049999991,1,0,1,1,3D,2D,D32,2.94443897916644,0.768672649007095,0.332263443450546,0.5,0.5,0.332263443450546,0.915566522942463,0.332263443450546,0.5,0.332263443450546,0.332263443450546,0.956942843256208,0.220797991707228,0.5,0.5,0.220797991707228,0.980986132524695,0.816274830682804,0.183725169317196,0.980986132524695,0.220797991707228,0.251206695499937,0.927882410100551,0.0190138674753053,0.00637864131399076,0.5,0.335473113098909,1.09626185873553,1.39941764715196,2.88595020614919,0.5,78.4206706658652
CBC_1024,CBC_1024_MSI_AV_v3_Vset4_Aset2_2023-07-05_16h16.42.189.csv,4,43,3,1,z,0,1,2,aud,B,27,1,3B,1B,0,1,z,2.00983619999897,0,1,1,1,1B,3B,B31,3.36729582998647,0.768672649007095,0.332263443450546,0.5,0.5,0.332263443450546,0.915566522942463,0.332263443450546,0.5,0.332263443450546,0.332263443450546,0.956942843256208,0.220797991707228,0.5,0.5,0.220797991707228,0.987364773838685,0.646784526268199,0.353215473731801,0.915566522942463,0.5,0.353367219183897,0.766242752321308,0.0844334770575366,0.0283251613982571,0.5,0.335473113098909,1.09626185873553,1.39941764715196,2.88595020614919,0.5,78.4206706658652
