ID,filename,session,trial,visStimLeft,visStimRight,correctKey,leftCorrect,rightCorrect,secondStim,mod2Type,mod2Stim,frequency,rewardAccurate,stimPairLeft,stimPairRight,pCorrectLeft,pCorrectRight,key,reactionTime,choiceLeft,choiceRight,choiceAccurate,reward,chosenPair,otherPair,triplet,surprise,0A belief,1A belief,2A belief,3A belief,0B belief,1B belief,2B belief,3B belief,0C belief,1C belief,2C belief,3C belief,0D belief,1D belief,2D belief,3D belief,beliefPairNorm,beliefOtherPairNorm,beliefPair,beliefOtherPair,lik,corrLik,rewardPE,update2,fitCBCsimpleRW_CBCdriftDiffusionLR_pwBelief_startBelief,fitCBCsimpleRW_CBCdriftDiffusionLR_pwBelief_alpha1,fitCBCsimpleRW_CBCdriftDiffusionLR_pwBelief_nonDecisionTime,fitCBCsimpleRW_CBCdriftDiffusionLR_pwBelief_weight,fitCBCsimpleRW_CBCdriftDiffusionLR_pwBelief_startingBoundary,fitCBCsimpleRW_CBCdriftDiffusionLR_pwBelief_startingPoint,fit_CBCsimpleRW_CBCdriftDiffusionLR_pwBelief_NLL
CBC_1024,CBC_1024_MSI_TV_v3_Vset3_Tset1_2023-07-05_15h02.58.307.csv,1,1,0,1,z,0,1,2,tac,B,63,1,0B,1B,0,1,b,1.60864320000019,1,0,0,0,0B,1B,B01,2.77258872223978,0.5,0.5,0.5,0.5,0.5,0.5,0.5,0.5,0.5,0.5,0.5,0.5,0.5,0.5,0.5,0.5,0.5,0.5,0.5,0.5,0.162108880022281,0.499614556835927,-0.5,-0.207926617804364,0.5,0.415853235608728,1.08396786176143,0.422396676766333,3.11379755284447,0.5,89.2926490397002
CBC_1024,CBC_1024_MSI_TV_v3_Vset3_Tset1_2023-07-05_15h02.58.307.csv,1,2,0,1,b,1,0,3,tac,A,63,1,0A,1A,1,0,b,3.02417049999985,1,0,1,1,0A,1A,A01,2.83321334405622,0.5,0.5,0.5,0.5,0.292073382195636,0.5,0.5,0.5,0.5,0.5,0.5,0.5,0.5,0.5,0.5,0.5,0.5,0.5,0.5,0.5,0.12050563446989,0.499754067747702,0.5,0.207926617804364,0.5,0.415853235608728,1.08396786176143,0.422396676766333,3.11379755284447,0.5,89.2926490397002
CBC_1024,CBC_1024_MSI_TV_v3_Vset3_Tset1_2023-07-05_15h02.58.307.csv,1,3,2,3,z,0,1,0,tac,D,63,1,2D,3D,0,1,b,2.47436069999912,1,0,0,0,2D,3D,D23,2.89037175789616,0.707926617804364,0.5,0.5,0.5,0.292073382195636,0.5,0.5,0.5,0.5,0.5,0.5,0.5,0.5,0.5,0.5,0.5,0.5,0.5,0.5,0.5,0.157925538830912,0.499738137266926,-0.5,-0.207926617804364,0.5,0.415853235608728,1.08396786176143,0.422396676766333,3.11379755284447,0.5,89.2926490397002
CBC_1024,CBC_1024_MSI_TV_v3_Vset3_Tset1_2023-07-05_15h02.58.307.csv,1,4,2,1,z,0,1,2,tac,B,9,1,2B,1B,0,1,b,2.57942209999965,1,0,0,0,2B,1B,B21,2.94443897916644,0.707926617804364,0.5,0.5,0.5,0.292073382195636,0.5,0.5,0.5,0.5,0.5,0.5,0.5,0.5,0.5,0.292073382195636,0.5,0.5,0.5,0.5,0.5,0.150061016134812,0.499102663746489,-0.5,-0.207926617804364,0.5,0.415853235608728,1.08396786176143,0.422396676766333,3.11379755284447,0.5,89.2926490397002
CBC_1024,CBC_1024_MSI_TV_v3_Vset3_Tset1_2023-07-05_15h02.58.307.csv,1,5,0,2,b,1,0,3,tac,A,27,1,0A,2A,1,0,b,3.19657709999956,1,0,1,1,0A,2A,A02,2.99573227355399,0.707926617804364,0.5,0.5,0.5,0.292073382195636,0.5,0.292073382195636,0.5,0.5,0.5,0.5,0.5,0.5,0.5,0.292073382195636,0.5,0.707926617804364,0.292073382195636,0.707926617804364,0.5,0.140572338086366,0.633328818991798,0.292073382195636,0.12145966102124,0.5,0.415853235608728,1.08396786176143,0.422396676766333,3.11379755284447,0.5,89.2926490397002
CBC_1024,CBC_1024_MSI_TV_v3_Vset3_Tset1_2023-07-05_15h02.58.307.csv,1,6,2,3,b,1,0,1,tac,C,63,1,2C,3C,1,0,z,5.15493020000031,0,1,0,0,3C,2C,C23,3.04452243772342,0.829386278825604,0.5,0.5,0.5,0.292073382195636,0.5,0.292073382195636,0.5,0.5,0.5,0.5,0.5,0.5,0.5,0.292073382195636,0.5,0.5,0.5,0.5,0.5,0.0408237110040828,0.50022345070879,-0.5,-0.207926617804364,0.5,0.415853235608728,1.08396786176143,0.422396676766333,3.11379755284447,0.5,89.2926490397002
CBC_1024,CBC_1024_MSI_TV_v3_Vset3_Tset1_2023-07-05_15h02.58.307.csv,1,7,1,3,z,0,1,0,tac,D,27,1,1D,3D,0,1,z,2.69876219999969,0,1,1,1,3D,1D,D13,3.09104245335832,0.829386278825604,0.5,0.5,0.5,0.292073382195636,0.5,0.292073382195636,0.5,0.5,0.5,0.5,0.292073382195636,0.5,0.5,0.292073382195636,0.5,0.5,0.5,0.5,0.5,0.141599156918821,0.499135593825481,0.5,0.207926617804364,0.5,0.415853235608728,1.08396786176143,0.422396676766333,3.11379755284447,0.5,89.2926490397002
CBC_1024,CBC_1024_MSI_TV_v3_Vset3_Tset1_2023-07-05_15h02.58.307.csv,1,8,1,0,z,0,1,3,tac,A,63,1,1A,0A,0,1,b,3.71164169999975,1,0,0,0,1A,0A,A10,3.13549421592915,0.829386278825604,0.5,0.5,0.5,0.292073382195636,0.5,0.292073382195636,0.5,0.5,0.5,0.5,0.292073382195636,0.5,0.5,0.292073382195636,0.707926617804364,0.170613721174396,0.829386278825604,0.5,0.829386278825604,0.0499388738956882,0.296680788612353,-0.5,-0.207926617804364,0.5,0.415853235608728,1.08396786176143,0.422396676766333,3.11379755284447,0.5,89.2926490397002
CBC_1024,CBC_1024_MSI_TV_v3_Vset3_Tset1_2023-07-05_15h02.58.307.csv,1,9,2,0,b,1,0,1,tac,C,27,1,2C,0C,1,0,b,3.97409349999998,1,0,1,1,2C,0C,C20,3.17805383034795,0.829386278825604,0.292073382195636,0.5,0.5,0.292073382195636,0.5,0.292073382195636,0.5,0.5,0.5,0.5,0.292073382195636,0.5,0.5,0.292073382195636,0.707926617804364,0.5,0.5,0.5,0.5,0.0744290650052089,0.500023601000307,0.5,0.207926617804364,0.5,0.415853235608728,1.08396786176143,0.422396676766333,3.11379755284447,0.5,89.2926490397002
CBC_1024,CBC_1024_MSI_TV_v3_Vset3_Tset1_2023-07-05_15h02.58.307.csv,1,10,2,3,z,0,1,0,tac,D,63,1,2D,3D,0,1,z,3.86099769999964,0,1,1,1,3D,2D,D23,2.52572864430826,0.829386278825604,0.292073382195636,0.5,0.5,0.292073382195636,0.5,0.292073382195636,0.5,0.5,0.5,0.707926617804364,0.292073382195636,0.5,0.5,0.292073382195636,0.707926617804364,0.854541062202172,0.145458937797828,0.707926617804364,0.292073382195636,0.110847625264674,0.71678902208077,0.292073382195636,0.12145966102124,0.5,0.415853235608728,1.08396786176143,0.422396676766333,3.11379755284447,0.5,89.2926490397002
CBC_1024,CBC_1024_MSI_TV_v3_Vset3_Tset1_2023-07-05_15h02.58.307.csv,1,11,1,0,b,1,0,2,tac,B,63,1,1B,0B,1,0,b,3.76205759999993,1,0,1,1,1B,0B,B10,3.25809653802148,0.829386278825604,0.292073382195636,0.5,0.5,0.292073382195636,0.5,0.292073382195636,0.5,0.5,0.5,0.707926617804364,0.292073382195636,0.5,0.5,0.292073382195636,0.829386278825604,0.707926617804364,0.292073382195636,0.5,0.292073382195636,0.104363903887331,0.632123614707548,0.5,0.207926617804364,0.5,0.415853235608728,1.08396786176143,0.422396676766333,3.11379755284447,0.5,89.2926490397002
CBC_1024,CBC_1024_MSI_TV_v3_Vset3_Tset1_2023-07-05_15h02.58.307.csv,1,12,0,1,b,1,0,3,tac,A,63,1,0A,1A,1,0,b,2.69777209999938,1,0,1,1,0A,1A,A01,2.60268968544438,0.829386278825604,0.292073382195636,0.5,0.5,0.292073382195636,0.707926617804364,0.292073382195636,0.5,0.5,0.5,0.707926617804364,0.292073382195636,0.5,0.5,0.292073382195636,0.829386278825604,0.921768325296721,0.0782316747032785,0.829386278825604,0.292073382195636,0.223073702099223,0.752024744216439,0.170613721174396,0.070950267989618,0.5,0.415853235608728,1.08396786176143,0.422396676766333,3.11379755284447,0.5,89.2926490397002
CBC_1024,CBC_1024_MSI_TV_v3_Vset3_Tset1_2023-07-05_15h02.58.307.csv,1,13,2,3,z,0,1,0,tac,D,63,1,2D,3D,0,1,z,3.30536570000004,0,1,1,1,3D,2D,D23,2.23359222150709,0.900336546815222,0.292073382195636,0.5,0.5,0.292073382195636,0.707926617804364,0.292073382195636,0.5,0.5,0.5,0.707926617804364,0.292073382195636,0.5,0.5,0.292073382195636,0.829386278825604,0.921768325296721,0.0782316747032785,0.829386278825604,0.292073382195636,0.1579423523453,0.751026719679433,0.170613721174396,0.070950267989618,0.5,0.415853235608728,1.08396786176143,0.422396676766333,3.11379755284447,0.5,89.2926490397002
CBC_1024,CBC_1024_MSI_TV_v3_Vset3_Tset1_2023-07-05_15h02.58.307.csv,1,14,2,0,b,1,0,1,tac,C,27,1,2C,0C,1,0,z,4.11698030000025,0,1,0,0,0C,2C,C20,2.67414864942653,0.900336546815222,0.292073382195636,0.5,0.5,0.292073382195636,0.707926617804364,0.292073382195636,0.5,0.5,0.5,0.707926617804364,0.292073382195636,0.5,0.5,0.292073382195636,0.900336546815222,0.292073382195636,0.707926617804364,0.5,0.707926617804364,0.0502312414612062,0.366509274953431,-0.5,-0.207926617804364,0.5,0.415853235608728,1.08396786176143,0.422396676766333,3.11379755284447,0.5,89.2926490397002
CBC_1024,CBC_1024_MSI_TV_v3_Vset3_Tset1_2023-07-05_15h02.58.307.csv,1,15,0,1,b,1,0,3,tac,A,63,1,0A,1A,1,0,b,2.39689079999971,1,0,1,1,0A,1A,A01,2.30258509299405,0.900336546815222,0.292073382195636,0.5,0.5,0.292073382195636,0.707926617804364,0.292073382195636,0.5,0.292073382195636,0.5,0.707926617804364,0.292073382195636,0.5,0.5,0.292073382195636,0.900336546815222,0.95632428980394,0.0436757101960602,0.900336546815222,0.292073382195636,0.270303134222157,0.767935157425388,0.099663453184778,0.041445369478829,0.5,0.415853235608728,1.08396786176143,0.422396676766333,3.11379755284447,0.5,89.2926490397002
CBC_1024,CBC_1024_MSI_TV_v3_Vset3_Tset1_2023-07-05_15h02.58.307.csv,1,16,1,3,b,1,0,2,tac,B,27,1,1B,3B,1,0,b,3.16773919999923,1,0,1,1,1B,3B,B13,3.43398720448515,0.941781916294051,0.292073382195636,0.5,0.5,0.292073382195636,0.707926617804364,0.292073382195636,0.5,0.292073382195636,0.5,0.707926617804364,0.292073382195636,0.5,0.5,0.292073382195636,0.900336546815222,0.707926617804364,0.292073382195636,0.707926617804364,0.5,0.142733631367513,0.633453252945105,0.292073382195636,0.12145966102124,0.5,0.415853235608728,1.08396786176143,0.422396676766333,3.11379755284447,0.5,89.2926490397002
CBC_1024,CBC_1024_MSI_TV_v3_Vset3_Tset1_2023-07-05_15h02.58.307.csv,1,17,3,2,z,0,1,1,tac,C,63,1,3C,2C,0,1,b,2.64555329999985,1,0,0,0,3C,2C,C32,3.46573590279973,0.941781916294051,0.292073382195636,0.5,0.5,0.292073382195636,0.829386278825604,0.292073382195636,0.5,0.292073382195636,0.5,0.707926617804364,0.292073382195636,0.5,0.5,0.292073382195636,0.900336546815222,0.145458937797828,0.854541062202172,0.292073382195636,0.707926617804364,0.085302003379978,0.282941370993092,-0.292073382195636,-0.12145966102124,0.5,0.415853235608728,1.08396786176143,0.422396676766333,3.11379755284447,0.5,89.2926490397002
CBC_1024,CBC_1024_MSI_TV_v3_Vset3_Tset1_2023-07-05_15h02.58.307.csv,1,18,2,3,z,0,1,0,tac,D,63,0,2D,3D,1,0,z,1.89740309999979,0,1,1,0,3D,2D,D23,2.11021320034659,0.941781916294051,0.292073382195636,0.5,0.5,0.292073382195636,0.829386278825604,0.292073382195636,0.5,0.292073382195636,0.5,0.707926617804364,0.170613721174396,0.5,0.5,0.292073382195636,0.900336546815222,0.95632428980394,0.0436757101960602,0.900336546815222,0.292073382195636,0.327167962302719,0.768341838841753,-0.900336546815222,-0.3744078661299,0.5,0.415853235608728,1.08396786176143,0.422396676766333,3.11379755284447,0.5,89.2926490397002
CBC_1024,CBC_1024_MSI_TV_v3_Vset3_Tset1_2023-07-05_15h02.58.307.csv,1,19,1,0,b,1,0,2,tac,B,63,1,1B,0B,1,0,b,2.49657580000076,1,0,1,1,1B,0B,B10,2.83321334405622,0.941781916294051,0.292073382195636,0.5,0.5,0.292073382195636,0.829386278825604,0.292073382195636,0.5,0.292073382195636,0.5,0.707926617804364,0.170613721174396,0.5,0.5,0.292073382195636,0.525928680685323,0.921768325296721,0.0782316747032785,0.829386278825604,0.292073382195636,0.248584707563112,0.751184417055012,0.170613721174396,0.070950267989618,0.5,0.415853235608728,1.08396786176143,0.422396676766333,3.11379755284447,0.5,89.2926490397002
CBC_1024,CBC_1024_MSI_TV_v3_Vset3_Tset1_2023-07-05_15h02.58.307.csv,1,20,2,0,z,0,1,3,tac,A,27,1,2A,0A,0,1,z,2.05859719999989,0,1,1,1,0A,2A,A20,3.55534806148941,0.941781916294051,0.292073382195636,0.5,0.5,0.292073382195636,0.900336546815222,0.292073382195636,0.5,0.292073382195636,0.5,0.707926617804364,0.170613721174396,0.5,0.5,0.292073382195636,0.525928680685323,0.941781916294051,0.0582180837059491,0.941781916294051,0.5,0.310900454897764,0.761665857991975,0.0582180837059491,0.0242101784800587,0.5,0.415853235608728,1.08396786176143,0.422396676766333,3.11379755284447,0.5,89.2926490397002
CBC_1024,CBC_1024_MSI_TV_v3_Vset3_Tset1_2023-07-05_15h02.58.307.csv,1,21,0,3,z,0,1,0,tac,D,9,1,0D,3D,0,1,z,2.47658630000024,0,1,1,1,3D,0D,D03,3.58351893845611,0.96599209477411,0.292073382195636,0.5,0.5,0.292073382195636,0.900336546815222,0.292073382195636,0.5,0.292073382195636,0.5,0.707926617804364,0.170613721174396,0.5,0.5,0.292073382195636,0.525928680685323,0.525928680685323,0.474071319314677,0.525928680685323,0.5,0.163574663177382,0.518008560505372,0.474071319314677,0.197144092046307,0.5,0.415853235608728,1.08396786176143,0.422396676766333,3.11379755284447,0.5,89.2926490397002
CBC_1024,CBC_1024_MSI_TV_v3_Vset3_Tset1_2023-07-05_15h02.58.307.csv,1,22,2,3,b,1,0,1,tac,C,63,1,2C,3C,1,0,b,3.57492009999896,1,0,1,1,2C,3C,C23,2.91777073208428,0.96599209477411,0.292073382195636,0.5,0.5,0.292073382195636,0.900336546815222,0.292073382195636,0.5,0.292073382195636,0.5,0.707926617804364,0.170613721174396,0.5,0.5,0.292073382195636,0.72307277273163,0.921768325296721,0.0782316747032785,0.707926617804364,0.170613721174396,0.135603244096807,0.752245234163623,0.292073382195636,0.12145966102124,0.5,0.415853235608728,1.08396786176143,0.422396676766333,3.11379755284447,0.5,89.2926490397002
CBC_1024,CBC_1024_MSI_TV_v3_Vset3_Tset1_2023-07-05_15h02.58.307.csv,1,23,3,1,z,0,1,2,tac,B,27,1,3B,1B,0,1,z,2.9683028999998,0,1,1,1,1B,3B,B31,3.63758615972639,0.96599209477411,0.292073382195636,0.5,0.5,0.292073382195636,0.900336546815222,0.292073382195636,0.5,0.292073382195636,0.5,0.829386278825604,0.170613721174396,0.5,0.5,0.292073382195636,0.72307277273163,0.900336546815222,0.099663453184778,0.900336546815222,0.5,0.188430279094866,0.741114315502655,0.099663453184778,0.041445369478829,0.5,0.415853235608728,1.08396786176143,0.422396676766333,3.11379755284447,0.5,89.2926490397002
CBC_1024,CBC_1024_MSI_TV_v3_Vset3_Tset1_2023-07-05_15h02.58.307.csv,1,24,3,2,z,0,1,1,tac,C,63,1,3C,2C,0,1,z,4.71947979999914,0,1,1,1,2C,3C,C32,2.9704144655697,0.96599209477411,0.292073382195636,0.5,0.5,0.292073382195636,0.941781916294051,0.292073382195636,0.5,0.292073382195636,0.5,0.829386278825604,0.170613721174396,0.5,0.5,0.292073382195636,0.72307277273163,0.959401085350465,0.0405989146495349,0.829386278825604,0.170613721174396,0.0708989698448175,0.771476441744424,0.170613721174396,0.070950267989618,0.5,0.415853235608728,1.08396786176143,0.422396676766333,3.11379755284447,0.5,89.2926490397002
CBC_1024,CBC_1024_MSI_TV_v3_Vset3_Tset1_2023-07-05_15h02.58.307.csv,1,25,2,3,z,0,1,0,tac,D,63,1,2D,3D,0,1,z,3.03678779999973,0,1,1,1,3D,2D,D23,2.07944154167984,0.96599209477411,0.292073382195636,0.5,0.5,0.292073382195636,0.941781916294051,0.292073382195636,0.5,0.292073382195636,0.5,0.900336546815222,0.170613721174396,0.5,0.5,0.292073382195636,0.72307277273163,0.863549637744079,0.13645036225592,0.72307277273163,0.292073382195636,0.176271912853785,0.722478977375736,0.27692722726837,0.115161083487705,0.5,0.415853235608728,1.08396786176143,0.422396676766333,3.11379755284447,0.5,89.2926490397002
CBC_1024,CBC_1024_MSI_TV_v3_Vset3_Tset1_2023-07-05_15h02.58.307.csv,1,26,1,0,b,1,0,2,tac,B,63,1,1B,0B,1,0,z,3.6252285999999,0,1,0,0,0B,1B,B10,2.6149597780362,0.96599209477411,0.292073382195636,0.5,0.5,0.292073382195636,0.941781916294051,0.292073382195636,0.5,0.292073382195636,0.5,0.900336546815222,0.170613721174396,0.5,0.5,0.292073382195636,0.838233856219335,0.0248698899645439,0.975130110035456,0.292073382195636,0.941781916294051,0.0387399119018944,0.222564210635182,-0.292073382195636,-0.12145966102124,0.5,0.415853235608728,1.08396786176143,0.422396676766333,3.11379755284447,0.5,89.2926490397002
CBC_1024,CBC_1024_MSI_TV_v3_Vset3_Tset1_2023-07-05_15h02.58.307.csv,1,27,0,3,b,1,0,3,tac,A,9,1,0A,3A,1,0,z,3.09589289999985,0,1,0,0,3A,0A,A03,3.73766961828337,0.96599209477411,0.292073382195636,0.5,0.5,0.170613721174396,0.941781916294051,0.292073382195636,0.5,0.292073382195636,0.5,0.900336546815222,0.170613721174396,0.5,0.5,0.292073382195636,0.838233856219335,0.0340079052258904,0.96599209477411,0.5,0.96599209477411,0.0538343416066943,0.226625334698619,-0.5,-0.207926617804364,0.5,0.415853235608728,1.08396786176143,0.422396676766333,3.11379755284447,0.5,89.2926490397002
CBC_1024,CBC_1024_MSI_TV_v3_Vset3_Tset1_2023-07-05_15h02.58.307.csv,1,28,2,3,z,0,1,0,tac,D,63,1,2D,3D,0,1,z,1.70505909999974,0,1,1,1,3D,2D,D23,1.96944064646551,0.96599209477411,0.292073382195636,0.5,0.292073382195636,0.170613721174396,0.941781916294051,0.292073382195636,0.5,0.292073382195636,0.5,0.900336546815222,0.170613721174396,0.5,0.5,0.292073382195636,0.838233856219335,0.926251200285144,0.073748799714856,0.838233856219335,0.292073382195636,0.303294223665667,0.754120126199622,0.161766143780665,0.0672709743031362,0.5,0.415853235608728,1.08396786176143,0.422396676766333,3.11379755284447,0.5,89.2926490397002
CBC_1024,CBC_1024_MSI_TV_v3_Vset3_Tset1_2023-07-05_15h02.58.307.csv,1,29,2,0,b,1,0,1,tac,C,27,1,2C,0C,1,0,b,2.59607629999937,1,0,1,1,2C,0C,C20,2.68557734525015,0.96599209477411,0.292073382195636,0.5,0.292073382195636,0.170613721174396,0.941781916294051,0.292073382195636,0.5,0.292073382195636,0.5,0.900336546815222,0.170613721174396,0.5,0.5,0.292073382195636,0.905504830522471,0.95632428980394,0.0436757101960602,0.900336546815222,0.292073382195636,0.24296910681354,0.768759326844132,0.099663453184778,0.041445369478829,0.5,0.415853235608728,1.08396786176143,0.422396676766333,3.11379755284447,0.5,89.2926490397002
CBC_1024,CBC_1024_MSI_TV_v3_Vset3_Tset1_2023-07-05_15h02.58.307.csv,1,30,1,0,z,0,1,3,tac,A,63,1,1A,0A,0,1,b,3.05066319999969,1,0,0,0,1A,0A,A10,3.11351530921037,0.96599209477411,0.292073382195636,0.5,0.292073382195636,0.170613721174396,0.941781916294051,0.292073382195636,0.5,0.292073382195636,0.5,0.941781916294051,0.170613721174396,0.5,0.5,0.292073382195636,0.905504830522471,0.0143168469060751,0.985683153093925,0.292073382195636,0.96599209477411,0.0531513927069966,0.217660826943245,-0.292073382195636,-0.12145966102124,0.5,0.415853235608728,1.08396786176143,0.422396676766333,3.11379755284447,0.5,89.2926490397002
CBC_1024,CBC_1024_MSI_TV_v3_Vset3_Tset1_2023-07-05_15h02.58.307.csv,1,31,1,0,b,1,0,2,tac,B,63,1,1B,0B,1,0,b,2.11603370000012,1,0,1,1,1B,0B,B10,2.4423470353692,0.96599209477411,0.170613721174396,0.5,0.292073382195636,0.170613721174396,0.941781916294051,0.292073382195636,0.5,0.292073382195636,0.5,0.941781916294051,0.170613721174396,0.5,0.5,0.292073382195636,0.905504830522471,0.987443262394053,0.0125567376059469,0.941781916294051,0.170613721174396,0.318381112553431,0.782843403043133,0.0582180837059491,0.0242101784800587,0.5,0.415853235608728,1.08396786176143,0.422396676766333,3.11379755284447,0.5,89.2926490397002
CBC_1024,CBC_1024_MSI_TV_v3_Vset3_Tset1_2023-07-05_15h02.58.307.csv,1,32,3,1,b,1,0,0,tac,D,27,1,3D,1D,1,0,b,4.7946138999996,1,0,1,1,3D,1D,D31,3.85014760171006,0.96599209477411,0.170613721174396,0.5,0.292073382195636,0.170613721174396,0.96599209477411,0.292073382195636,0.5,0.292073382195636,0.5,0.941781916294051,0.170613721174396,0.5,0.5,0.292073382195636,0.905504830522471,0.905504830522471,0.0944951694775286,0.905504830522471,0.5,0.0672207930018667,0.744303364737041,0.0944951694775286,0.0392961219766254,0.5,0.415853235608728,1.08396786176143,0.422396676766333,3.11379755284447,0.5,89.2926490397002
CBC_1024,CBC_1024_MSI_TV_v3_Vset3_Tset1_2023-07-05_15h02.58.307.csv,1,33,3,2,z,0,1,1,tac,C,63,1,3C,2C,0,1,b,2.80866679999963,1,0,0,0,3C,2C,C32,2.77258872223978,0.96599209477411,0.170613721174396,0.5,0.292073382195636,0.170613721174396,0.96599209477411,0.292073382195636,0.5,0.292073382195636,0.5,0.941781916294051,0.170613721174396,0.5,0.5,0.292073382195636,0.944800952499097,0.012556737605947,0.987443262394053,0.170613721174396,0.941781916294051,0.0611932519718593,0.217421821238515,-0.170613721174396,-0.0709502679896179,0.5,0.415853235608728,1.08396786176143,0.422396676766333,3.11379755284447,0.5,89.2926490397002
CBC_1024,CBC_1024_MSI_TV_v3_Vset3_Tset1_2023-07-05_15h02.58.307.csv,1,34,1,0,b,1,0,2,tac,B,63,1,1B,0B,1,0,b,1.93156409999938,1,0,1,1,1B,0B,B10,2.28238238567653,0.96599209477411,0.170613721174396,0.5,0.292073382195636,0.170613721174396,0.96599209477411,0.292073382195636,0.5,0.292073382195636,0.5,0.941781916294051,0.0996634531847779,0.5,0.5,0.292073382195636,0.944800952499097,0.992809988973352,0.00719001102664818,0.96599209477411,0.170613721174396,0.338561593753991,0.785379960631272,0.0340079052258904,0.0141422974244615,0.5,0.415853235608728,1.08396786176143,0.422396676766333,3.11379755284447,0.5,89.2926490397002
CBC_1024,CBC_1024_MSI_TV_v3_Vset3_Tset1_2023-07-05_15h02.58.307.csv,1,35,0,1,b,1,0,3,tac,A,63,1,0A,1A,1,0,b,3.21657129999949,1,0,1,1,0A,1A,A01,2.52572864430826,0.96599209477411,0.170613721174396,0.5,0.292073382195636,0.170613721174396,0.980134392198571,0.292073382195636,0.5,0.292073382195636,0.5,0.941781916294051,0.0996634531847779,0.5,0.5,0.292073382195636,0.944800952499097,0.992809988973352,0.00719001102664818,0.96599209477411,0.170613721174396,0.173723027313091,0.784622050020456,0.0340079052258904,0.0141422974244615,0.5,0.415853235608728,1.08396786176143,0.422396676766333,3.11379755284447,0.5,89.2926490397002
CBC_1024,CBC_1024_MSI_TV_v3_Vset3_Tset1_2023-07-05_15h02.58.307.csv,1,36,1,2,z,0,1,1,tac,C,9,1,1C,2C,0,1,b,4.14358640000046,1,0,0,0,1C,2C,C12,3.93182563272433,0.980134392198571,0.170613721174396,0.5,0.292073382195636,0.170613721174396,0.980134392198571,0.292073382195636,0.5,0.292073382195636,0.5,0.941781916294051,0.0996634531847779,0.5,0.5,0.292073382195636,0.944800952499097,0.0582180837059491,0.941781916294051,0.5,0.941781916294051,0.0309251794566159,0.238738000455533,-0.5,-0.207926617804364,0.5,0.415853235608728,1.08396786176143,0.422396676766333,3.11379755284447,0.5,89.2926490397002
CBC_1024,CBC_1024_MSI_TV_v3_Vset3_Tset1_2023-07-05_15h02.58.307.csv,1,37,1,0,z,0,1,3,tac,A,63,1,1A,0A,0,1,b,3.05263090000062,1,0,0,0,1A,0A,A10,2.85263142991332,0.980134392198571,0.170613721174396,0.5,0.292073382195636,0.170613721174396,0.980134392198571,0.292073382195636,0.5,0.292073382195636,0.292073382195636,0.941781916294051,0.0996634531847779,0.5,0.5,0.292073382195636,0.944800952499097,0.00415208614630671,0.995847913853693,0.170613721174396,0.980134392198571,0.0520593546713869,0.213314698006551,-0.170613721174396,-0.0709502679896179,0.5,0.415853235608728,1.08396786176143,0.422396676766333,3.11379755284447,0.5,89.2926490397002
CBC_1024,CBC_1024_MSI_TV_v3_Vset3_Tset1_2023-07-05_15h02.58.307.csv,1,38,3,1,b,1,0,0,tac,D,27,1,3D,1D,1,0,b,2.61811339999986,1,0,1,1,3D,1D,D31,3.27714473299218,0.980134392198571,0.0996634531847779,0.5,0.292073382195636,0.170613721174396,0.980134392198571,0.292073382195636,0.5,0.292073382195636,0.292073382195636,0.941781916294051,0.0996634531847779,0.5,0.5,0.292073382195636,0.944800952499097,0.944800952499097,0.0551990475009032,0.944800952499097,0.5,0.237840174216518,0.76357888558385,0.0551990475009032,0.0229547025057705,0.5,0.415853235608728,1.08396786176143,0.422396676766333,3.11379755284447,0.5,89.2926490397002
CBC_1024,CBC_1024_MSI_TV_v3_Vset3_Tset1_2023-07-05_15h02.58.307.csv,1,39,0,1,z,0,1,2,tac,B,63,1,0B,1B,0,1,z,2.19094229999973,0,1,1,1,1B,0B,B01,3.29583686600433,0.980134392198571,0.0996634531847779,0.5,0.292073382195636,0.170613721174396,0.980134392198571,0.292073382195636,0.5,0.292073382195636,0.292073382195636,0.941781916294051,0.0996634531847779,0.5,0.5,0.292073382195636,0.967755655004867,0.995847913853693,0.00415208614630671,0.980134392198571,0.170613721174396,0.310840625370779,0.786794539261641,0.0198656078014289,0.0082611772815582,0.5,0.415853235608728,1.08396786176143,0.422396676766333,3.11379755284447,0.5,89.2926490397002
CBC_1024,CBC_1024_MSI_TV_v3_Vset3_Tset1_2023-07-05_15h02.58.307.csv,1,40,2,3,b,1,0,1,tac,C,63,0,2C,3C,0,1,b,2.82566680000036,1,0,1,0,2C,3C,C23,2.90872089656436,0.980134392198571,0.0996634531847779,0.5,0.292073382195636,0.170613721174396,0.988395569480129,0.292073382195636,0.5,0.292073382195636,0.292073382195636,0.941781916294051,0.0996634531847779,0.5,0.5,0.292073382195636,0.967755655004867,0.993203631642968,0.00679636835703246,0.941781916294051,0.0996634531847779,0.219241682995362,0.785918805918538,-0.941781916294051,-0.39164305712867,0.5,0.415853235608728,1.08396786176143,0.422396676766333,3.11379755284447,0.5,89.2926490397002
CBC_1024,CBC_1024_MSI_TV_v3_Vset3_Tset1_2023-07-05_15h02.58.307.csv,1,41,2,0,z,0,1,3,tac,A,27,1,2A,0A,0,1,z,2.55977339999936,0,1,1,1,0A,2A,A20,3.3322045101752,0.980134392198571,0.0996634531847779,0.5,0.292073382195636,0.170613721174396,0.988395569480129,0.292073382195636,0.5,0.292073382195636,0.292073382195636,0.550138859165381,0.0996634531847779,0.5,0.5,0.292073382195636,0.967755655004867,0.980134392198571,0.0198656078014289,0.980134392198571,0.5,0.252909943690131,0.779914935726773,0.0198656078014289,0.0082611772815582,0.5,0.415853235608728,1.08396786176143,0.422396676766333,3.11379755284447,0.5,89.2926490397002
CBC_1024,CBC_1024_MSI_TV_v3_Vset3_Tset1_2023-07-05_15h02.58.307.csv,1,42,3,2,b,1,0,0,tac,D,63,1,3D,2D,1,0,b,2.15758559999904,1,0,1,1,3D,2D,D32,4.04305126783455,0.988395569480129,0.0996634531847779,0.5,0.292073382195636,0.170613721174396,0.988395569480129,0.292073382195636,0.5,0.292073382195636,0.292073382195636,0.550138859165381,0.0996634531847779,0.5,0.5,0.292073382195636,0.967755655004867,0.986439921021385,0.0135600789786149,0.967755655004867,0.292073382195636,0.312559391524593,0.782338247399457,0.0322443449951327,0.0134089151963101,0.5,0.415853235608728,1.08396786176143,0.422396676766333,3.11379755284447,0.5,89.2926490397002
CBC_1024,CBC_1024_MSI_TV_v3_Vset3_Tset1_2023-07-05_15h02.58.307.csv,1,43,3,1,z,0,1,2,tac,B,27,1,3B,1B,0,1,b,2.94464609999977,1,0,0,0,3B,1B,B31,3.36729582998647,0.988395569480129,0.0996634531847779,0.5,0.292073382195636,0.170613721174396,0.988395569480129,0.292073382195636,0.5,0.292073382195636,0.292073382195636,0.550138859165381,0.0996634531847779,0.5,0.5,0.292073382195636,0.981164570201177,0.0116044305198707,0.988395569480129,0.5,0.988395569480129,0.056224727847982,0.216259614635899,-0.5,-0.207926617804364,0.5,0.415853235608728,1.08396786176143,0.422396676766333,3.11379755284447,0.5,89.2926490397002
CBC_1024,CBC_1024_MSI_TV_v3_Vset3_Tset1_2023-07-05_15h02.58.307.csv,1,44,2,3,b,1,0,1,tac,C,63,1,2C,3C,1,0,b,3.09665009999935,1,0,1,1,2C,3C,C23,2.69124308278583,0.988395569480129,0.0996634531847779,0.5,0.292073382195636,0.170613721174396,0.988395569480129,0.292073382195636,0.292073382195636,0.292073382195636,0.292073382195636,0.550138859165381,0.0996634531847779,0.5,0.5,0.292073382195636,0.981164570201177,0.916995013551396,0.0830049864486041,0.550138859165381,0.0996634531847779,0.177659537333689,0.750173328989999,0.449861140834619,0.18707621099071,0.5,0.415853235608728,1.08396786176143,0.422396676766333,3.11379755284447,0.5,89.2926490397002
CBC_1024,CBC_1024_MSI_AV_v3_Vset6_Aset3_2023-07-05_15h12.04.977.csv,2,1,1,0,b,1,0,2,aud,B,63,1,1B,0B,1,0,b,2.51695930000005,1,0,1,1,1B,0B,B10,2.77258872223978,0.5,0.5,0.5,0.5,0.5,0.5,0.5,0.5,0.5,0.5,0.5,0.5,0.5,0.5,0.5,0.5,0.5,0.5,0.5,0.5,0.163397351819873,0.499267421640023,0.5,0.043299915927169,0.5,0.0865998318543381,1.09589251817109,1.25768786525066,2.78541299242756,0.5,77.8441382434382
CBC_1024,CBC_1024_MSI_AV_v3_Vset6_Aset3_2023-07-05_15h12.04.977.csv,2,2,0,1,b,1,0,3,aud,A,63,1,0A,1A,1,0,b,1.8277920999999,1,0,1,1,0A,1A,A01,2.83321334405622,0.5,0.5,0.5,0.5,0.5,0.543299915927169,0.5,0.5,0.5,0.5,0.5,0.5,0.5,0.5,0.5,0.5,0.5,0.5,0.5,0.5,0.235746235024919,0.499831815093063,0.5,0.043299915927169,0.5,0.0865998318543381,1.09589251817109,1.25768786525066,2.78541299242756,0.5,77.8441382434382
CBC_1024,CBC_1024_MSI_AV_v3_Vset6_Aset3_2023-07-05_15h12.04.977.csv,2,3,1,2,z,0,1,1,aud,C,9,1,1C,2C,0,1,z,2.34975050000048,0,1,1,1,2C,1C,C12,2.89037175789616,0.543299915927169,0.5,0.5,0.5,0.5,0.543299915927169,0.5,0.5,0.5,0.5,0.5,0.5,0.5,0.5,0.5,0.5,0.5,0.5,0.5,0.5,0.181541800860914,0.500202957701995,0.5,0.043299915927169,0.5,0.0865998318543381,1.09589251817109,1.25768786525066,2.78541299242756,0.5,77.8441382434382
CBC_1024,CBC_1024_MSI_AV_v3_Vset6_Aset3_2023-07-05_15h12.04.977.csv,2,4,1,0,z,0,1,3,aud,A,63,1,1A,0A,0,1,b,1.78842370000075,1,0,0,0,1A,0A,A10,2.94443897916644,0.543299915927169,0.5,0.5,0.5,0.5,0.543299915927169,0.5,0.5,0.5,0.5,0.543299915927169,0.5,0.5,0.5,0.5,0.5,0.456700084072831,0.543299915927169,0.5,0.543299915927169,0.203251465038199,0.424502771112741,-0.5,-0.043299915927169,0.5,0.0865998318543381,1.09589251817109,1.25768786525066,2.78541299242756,0.5,77.8441382434382
CBC_1024,CBC_1024_MSI_AV_v3_Vset6_Aset3_2023-07-05_15h12.04.977.csv,2,5,3,1,b,1,0,0,aud,D,27,1,3D,1D,1,0,b,1.88471000000027,1,0,1,1,3D,1D,D31,2.99573227355399,0.543299915927169,0.456700084072831,0.5,0.5,0.5,0.543299915927169,0.5,0.5,0.5,0.5,0.543299915927169,0.5,0.5,0.5,0.5,0.5,0.5,0.5,0.5,0.5,0.231852220796668,0.499909835161883,0.5,0.043299915927169,0.5,0.0865998318543381,1.09589251817109,1.25768786525066,2.78541299242756,0.5,77.8441382434382
CBC_1024,CBC_1024_MSI_AV_v3_Vset6_Aset3_2023-07-05_15h12.04.977.csv,2,6,0,1,z,0,1,2,aud,B,63,1,0B,1B,0,1,z,2.08697530000063,0,1,1,1,1B,0B,B01,3.04452243772342,0.543299915927169,0.456700084072831,0.5,0.5,0.5,0.543299915927169,0.5,0.5,0.5,0.5,0.543299915927169,0.5,0.5,0.5,0.5,0.543299915927169,0.543299915927169,0.456700084072831,0.543299915927169,0.5,0.244752258710434,0.5756239092322,0.456700084072831,0.0395501504885692,0.5,0.0865998318543381,1.09589251817109,1.25768786525066,2.78541299242756,0.5,77.8441382434382
CBC_1024,CBC_1024_MSI_AV_v3_Vset6_Aset3_2023-07-05_15h12.04.977.csv,2,7,2,3,b,1,0,1,aud,C,63,1,2C,3C,1,0,z,1.90472300000056,0,1,0,0,3C,2C,C23,3.09104245335832,0.543299915927169,0.456700084072831,0.5,0.5,0.5,0.582850066415738,0.5,0.5,0.5,0.5,0.543299915927169,0.5,0.5,0.5,0.5,0.543299915927169,0.456700084072831,0.543299915927169,0.5,0.543299915927169,0.197084713500018,0.425212307177798,-0.5,-0.043299915927169,0.5,0.0865998318543381,1.09589251817109,1.25768786525066,2.78541299242756,0.5,77.8441382434382
CBC_1024,CBC_1024_MSI_AV_v3_Vset6_Aset3_2023-07-05_15h12.04.977.csv,2,8,2,0,z,0,1,3,aud,A,27,1,2A,0A,0,1,b,2.55976890000056,1,0,0,0,2A,0A,A20,3.13549421592915,0.543299915927169,0.456700084072831,0.5,0.5,0.5,0.582850066415738,0.5,0.5,0.5,0.5,0.543299915927169,0.456700084072831,0.5,0.5,0.5,0.543299915927169,0.456700084072831,0.543299915927169,0.5,0.543299915927169,0.135413337395796,0.423792681090544,-0.5,-0.043299915927169,0.5,0.0865998318543381,1.09589251817109,1.25768786525066,2.78541299242756,0.5,77.8441382434382
CBC_1024,CBC_1024_MSI_AV_v3_Vset6_Aset3_2023-07-05_15h12.04.977.csv,2,9,3,2,b,1,0,0,aud,D,63,1,3D,2D,1,0,b,1.67244860000028,1,0,1,1,3D,2D,D32,3.17805383034795,0.543299915927169,0.456700084072831,0.456700084072831,0.5,0.5,0.582850066415738,0.5,0.5,0.5,0.5,0.543299915927169,0.456700084072831,0.5,0.5,0.5,0.543299915927169,0.543299915927169,0.456700084072831,0.543299915927169,0.5,0.273586125852014,0.57493327375354,0.456700084072831,0.0395501504885692,0.5,0.0865998318543381,1.09589251817109,1.25768786525066,2.78541299242756,0.5,77.8441382434382
CBC_1024,CBC_1024_MSI_AV_v3_Vset6_Aset3_2023-07-05_15h12.04.977.csv,2,10,3,1,z,0,1,2,aud,B,27,1,3B,1B,0,1,z,2.97769440000047,0,1,1,1,1B,3B,B31,3.2188758248682,0.543299915927169,0.456700084072831,0.456700084072831,0.5,0.5,0.582850066415738,0.5,0.5,0.5,0.5,0.543299915927169,0.456700084072831,0.5,0.5,0.5,0.582850066415738,0.582850066415738,0.417149933584262,0.582850066415738,0.5,0.156880546871451,0.640884633076332,0.417149933584262,0.0361251141064454,0.5,0.0865998318543381,1.09589251817109,1.25768786525066,2.78541299242756,0.5,77.8441382434382
CBC_1024,CBC_1024_MSI_AV_v3_Vset6_Aset3_2023-07-05_15h12.04.977.csv,2,11,3,2,z,0,1,1,aud,C,63,1,3C,2C,0,1,z,3.49576490000072,0,1,1,1,2C,3C,C32,3.25809653802148,0.543299915927169,0.456700084072831,0.456700084072831,0.5,0.5,0.618975180522184,0.5,0.5,0.5,0.5,0.543299915927169,0.456700084072831,0.5,0.5,0.5,0.582850066415738,0.585955208117008,0.414044791882992,0.543299915927169,0.456700084072831,0.112481332237571,0.64654775298521,0.456700084072831,0.0395501504885692,0.5,0.0865998318543381,1.09589251817109,1.25768786525066,2.78541299242756,0.5,77.8441382434382
CBC_1024,CBC_1024_MSI_AV_v3_Vset6_Aset3_2023-07-05_15h12.04.977.csv,2,12,1,3,b,1,0,2,aud,B,27,1,1B,3B,1,0,b,2.32929349999995,1,0,1,1,1B,3B,B13,3.29583686600433,0.543299915927169,0.456700084072831,0.456700084072831,0.5,0.5,0.618975180522184,0.5,0.5,0.5,0.5,0.582850066415738,0.456700084072831,0.5,0.5,0.5,0.582850066415738,0.618975180522184,0.381024819477816,0.618975180522184,0.5,0.26369096290282,0.696932548427493,0.381024819477816,0.0329966852991084,0.5,0.0865998318543381,1.09589251817109,1.25768786525066,2.78541299242756,0.5,77.8441382434382
CBC_1024,CBC_1024_MSI_AV_v3_Vset6_Aset3_2023-07-05_15h12.04.977.csv,2,13,3,2,z,0,1,1,aud,C,63,1,3C,2C,0,1,b,3.50138030000016,1,0,0,0,3C,2C,C32,2.63905732961526,0.543299915927169,0.456700084072831,0.456700084072831,0.5,0.5,0.651971865821292,0.5,0.5,0.5,0.5,0.582850066415738,0.456700084072831,0.5,0.5,0.5,0.582850066415738,0.375634611686112,0.624365388313888,0.456700084072831,0.582850066415738,0.0504975546876859,0.295414089367461,-0.456700084072831,-0.0395501504885692,0.5,0.0865998318543381,1.09589251817109,1.25768786525066,2.78541299242756,0.5,77.8441382434382
CBC_1024,CBC_1024_MSI_AV_v3_Vset6_Aset3_2023-07-05_15h12.04.977.csv,2,14,3,2,b,1,0,0,aud,D,63,1,3D,2D,1,0,b,3.25212519999968,1,0,1,1,3D,2D,D32,2.67414864942653,0.543299915927169,0.456700084072831,0.456700084072831,0.5,0.5,0.651971865821292,0.5,0.5,0.5,0.5,0.582850066415738,0.417149933584262,0.5,0.5,0.5,0.582850066415738,0.582850066415738,0.417149933584262,0.582850066415738,0.5,0.130997310372999,0.640898224075734,0.417149933584262,0.0361251141064454,0.5,0.0865998318543381,1.09589251817109,1.25768786525066,2.78541299242756,0.5,77.8441382434382
CBC_1024,CBC_1024_MSI_AV_v3_Vset6_Aset3_2023-07-05_15h12.04.977.csv,2,15,0,3,b,1,0,3,aud,A,9,1,0A,3A,1,0,b,2.4294187000005,1,0,1,1,0A,3A,A03,3.40119738166216,0.543299915927169,0.456700084072831,0.456700084072831,0.5,0.5,0.651971865821292,0.5,0.5,0.5,0.5,0.582850066415738,0.417149933584262,0.5,0.5,0.5,0.618975180522184,0.543299915927169,0.456700084072831,0.543299915927169,0.5,0.19932544263115,0.57475023355579,0.456700084072831,0.0395501504885692,0.5,0.0865998318543381,1.09589251817109,1.25768786525066,2.78541299242756,0.5,77.8441382434382
CBC_1024,CBC_1024_MSI_AV_v3_Vset6_Aset3_2023-07-05_15h12.04.977.csv,2,16,0,1,z,0,1,2,aud,B,63,0,0B,1B,1,0,z,1.73242870000013,0,1,1,0,1B,0B,B01,2.7408400239252,0.582850066415738,0.456700084072831,0.456700084072831,0.5,0.5,0.651971865821292,0.5,0.5,0.5,0.5,0.582850066415738,0.417149933584262,0.5,0.5,0.5,0.618975180522184,0.651971865821292,0.348028134178708,0.651971865821292,0.5,0.388298347917725,0.744459074985145,-0.651971865821292,-0.0564606539538829,0.5,0.0865998318543381,1.09589251817109,1.25768786525066,2.78541299242756,0.5,77.8441382434382
CBC_1024,CBC_1024_MSI_AV_v3_Vset6_Aset3_2023-07-05_15h12.04.977.csv,2,17,2,3,z,0,1,0,aud,D,63,1,2D,3D,0,1,b,2.74843070000043,1,0,0,0,2D,3D,D23,3.46573590279973,0.582850066415738,0.456700084072831,0.456700084072831,0.5,0.5,0.595511211867409,0.5,0.5,0.5,0.5,0.582850066415738,0.417149933584262,0.5,0.5,0.5,0.618975180522184,0.381024819477816,0.618975180522184,0.5,0.618975180522184,0.0865361386707883,0.302709274813397,-0.5,-0.043299915927169,0.5,0.0865998318543381,1.09589251817109,1.25768786525066,2.78541299242756,0.5,77.8441382434382
CBC_1024,CBC_1024_MSI_AV_v3_Vset6_Aset3_2023-07-05_15h12.04.977.csv,2,18,0,2,z,0,1,1,aud,C,27,1,0C,2C,0,1,z,2.50214380000125,0,1,1,1,2C,0C,C02,3.49650756146648,0.582850066415738,0.456700084072831,0.456700084072831,0.5,0.5,0.595511211867409,0.5,0.5,0.5,0.5,0.582850066415738,0.417149933584262,0.5,0.5,0.456700084072831,0.618975180522184,0.582850066415738,0.417149933584262,0.582850066415738,0.5,0.213860749382642,0.640431154912993,0.417149933584262,0.0361251141064454,0.5,0.0865998318543381,1.09589251817109,1.25768786525066,2.78541299242756,0.5,77.8441382434382
CBC_1024,CBC_1024_MSI_AV_v3_Vset6_Aset3_2023-07-05_15h12.04.977.csv,2,19,0,1,b,1,0,3,aud,A,63,1,0A,1A,1,0,z,3.66726830000061,0,1,0,0,1A,0A,A01,2.83321334405622,0.582850066415738,0.456700084072831,0.456700084072831,0.5,0.5,0.595511211867409,0.5,0.5,0.5,0.5,0.618975180522184,0.417149933584262,0.5,0.5,0.456700084072831,0.618975180522184,0.375634611686112,0.624365388313888,0.456700084072831,0.582850066415738,0.045058631254931,0.295314216104555,-0.456700084072831,-0.0395501504885692,0.5,0.0865998318543381,1.09589251817109,1.25768786525066,2.78541299242756,0.5,77.8441382434382
CBC_1024,CBC_1024_MSI_AV_v3_Vset6_Aset3_2023-07-05_15h12.04.977.csv,2,20,1,0,b,1,0,2,aud,B,63,1,1B,0B,1,0,z,2.14851430000181,0,1,0,0,0B,1B,B10,2.86220088092947,0.582850066415738,0.417149933584262,0.456700084072831,0.5,0.5,0.595511211867409,0.5,0.5,0.5,0.5,0.618975180522184,0.417149933584262,0.5,0.5,0.456700084072831,0.618975180522184,0.404488788132591,0.595511211867409,0.5,0.595511211867409,0.14200047901626,0.339014838579604,-0.5,-0.043299915927169,0.5,0.0865998318543381,1.09589251817109,1.25768786525066,2.78541299242756,0.5,77.8441382434382
CBC_1024,CBC_1024_MSI_AV_v3_Vset6_Aset3_2023-07-05_15h12.04.977.csv,2,21,1,3,z,0,1,0,aud,D,27,1,1D,3D,0,1,z,3.08576850000009,0,1,1,1,3D,1D,D13,3.58351893845611,0.582850066415738,0.417149933584262,0.456700084072831,0.5,0.456700084072831,0.595511211867409,0.5,0.5,0.5,0.5,0.618975180522184,0.417149933584262,0.5,0.5,0.456700084072831,0.618975180522184,0.618975180522184,0.381024819477816,0.618975180522184,0.5,0.158441750305624,0.696956339416388,0.381024819477816,0.0329966852991084,0.5,0.0865998318543381,1.09589251817109,1.25768786525066,2.78541299242756,0.5,77.8441382434382
CBC_1024,CBC_1024_MSI_AV_v3_Vset6_Aset3_2023-07-05_15h12.04.977.csv,2,22,3,2,z,0,1,1,aud,C,63,1,3C,2C,0,1,b,3.14713800000118,1,0,0,0,3C,2C,C32,2.51230562397611,0.582850066415738,0.417149933584262,0.456700084072831,0.5,0.456700084072831,0.595511211867409,0.5,0.5,0.5,0.5,0.618975180522184,0.417149933584262,0.5,0.5,0.456700084072831,0.651971865821292,0.305830545241061,0.694169454758939,0.417149933584262,0.618975180522184,0.0434572712776656,0.203743709179551,-0.417149933584262,-0.0361251141064454,0.5,0.0865998318543381,1.09589251817109,1.25768786525066,2.78541299242756,0.5,77.8441382434382
CBC_1024,CBC_1024_MSI_AV_v3_Vset6_Aset3_2023-07-05_15h12.04.977.csv,2,23,0,1,b,1,0,3,aud,A,63,1,0A,1A,1,0,b,2.65558060000058,1,0,1,1,0A,1A,A01,2.53897387105828,0.582850066415738,0.417149933584262,0.456700084072831,0.5,0.456700084072831,0.595511211867409,0.5,0.5,0.5,0.5,0.618975180522184,0.381024819477816,0.5,0.5,0.456700084072831,0.651971865821292,0.661272158329757,0.338727841670243,0.582850066415738,0.417149933584262,0.232164142539782,0.755980853439067,0.417149933584262,0.0361251141064454,0.5,0.0865998318543381,1.09589251817109,1.25768786525066,2.78541299242756,0.5,77.8441382434382
CBC_1024,CBC_1024_MSI_AV_v3_Vset6_Aset3_2023-07-05_15h12.04.977.csv,2,24,2,3,z,0,1,0,aud,D,63,1,2D,3D,0,1,b,4.77649889999975,1,0,0,0,2D,3D,D23,2.9704144655697,0.618975180522184,0.417149933584262,0.456700084072831,0.5,0.456700084072831,0.595511211867409,0.5,0.5,0.5,0.5,0.618975180522184,0.381024819477816,0.5,0.5,0.456700084072831,0.651971865821292,0.309736241222048,0.690263758777952,0.456700084072831,0.651971865821292,0.0131130895313251,0.208508731724647,-0.456700084072831,-0.0395501504885692,0.5,0.0865998318543381,1.09589251817109,1.25768786525066,2.78541299242756,0.5,77.8441382434382
CBC_1024,CBC_1024_MSI_AV_v3_Vset6_Aset3_2023-07-05_15h12.04.977.csv,2,25,2,0,b,1,0,1,aud,C,27,1,2C,0C,1,0,b,4.09002860000055,1,0,1,1,2C,0C,C20,3.68887945411394,0.618975180522184,0.417149933584262,0.456700084072831,0.5,0.456700084072831,0.595511211867409,0.5,0.5,0.5,0.5,0.618975180522184,0.381024819477816,0.5,0.5,0.417149933584262,0.651971865821292,0.618975180522184,0.381024819477816,0.618975180522184,0.5,0.0800776732447791,0.698313376474018,0.381024819477816,0.0329966852991084,0.5,0.0865998318543381,1.09589251817109,1.25768786525066,2.78541299242756,0.5,77.8441382434382
CBC_1024,CBC_1024_MSI_AV_v3_Vset6_Aset3_2023-07-05_15h12.04.977.csv,2,26,0,1,b,1,0,3,aud,A,63,1,0A,1A,NaN,NaN,[],NaN,NaN,NaN,NaN,NaN,,,A01,2.32727770558442,0.618975180522184,0.417149933584262,0.456700084072831,0.5,0.456700084072831,0.595511211867409,0.5,0.5,0.5,0.5,0.651971865821292,0.381024819477816,0.5,0.5,0.417149933584262,0.651971865821292,0,0,0,0,NaN,0,0,0,0.5,0.0865998318543381,1.09589251817109,1.25768786525066,2.78541299242756,0.5,77.8441382434382
CBC_1024,CBC_1024_MSI_AV_v3_Vset6_Aset3_2023-07-05_15h12.04.977.csv,2,27,1,3,b,1,0,2,aud,B,27,1,1B,3B,1,0,b,2.61020760000156,1,0,1,1,1B,3B,B13,3.04452243772342,0.618975180522184,0.417149933584262,0.456700084072831,0.5,0.456700084072831,0.595511211867409,0.5,0.5,0.5,0.5,0.651971865821292,0.381024819477816,0.5,0.5,0.417149933584262,0.651971865821292,0.595511211867409,0.404488788132591,0.595511211867409,0.5,0.20655778543948,0.66164038714584,0.404488788132591,0.0350286610392473,0.5,0.0865998318543381,1.09589251817109,1.25768786525066,2.78541299242756,0.5,77.8441382434382
CBC_1024,CBC_1024_MSI_AV_v3_Vset6_Aset3_2023-07-05_15h12.04.977.csv,2,28,3,2,z,0,1,1,aud,C,63,1,3C,2C,0,1,z,3.1248072999997,0,1,1,1,2C,3C,C32,2.37490575457367,0.618975180522184,0.417149933584262,0.456700084072831,0.5,0.456700084072831,0.630539872906656,0.5,0.5,0.5,0.5,0.651971865821292,0.381024819477816,0.5,0.5,0.417149933584262,0.651971865821292,0.752672855829249,0.247327144170751,0.651971865821292,0.381024819477816,0.179216004774692,0.854882590697796,0.348028134178708,0.0301391779004551,0.5,0.0865998318543381,1.09589251817109,1.25768786525066,2.78541299242756,0.5,77.8441382434382
CBC_1024,CBC_1024_MSI_AV_v3_Vset6_Aset3_2023-07-05_15h12.04.977.csv,2,29,3,2,b,1,0,0,aud,D,63,1,3D,2D,1,0,b,2.3231053999998,1,0,1,1,3D,2D,D32,2.68557734525015,0.618975180522184,0.417149933584262,0.456700084072831,0.5,0.456700084072831,0.630539872906656,0.5,0.5,0.5,0.5,0.682111043721747,0.381024819477816,0.5,0.5,0.417149933584262,0.651971865821292,0.723562536685718,0.276437463314282,0.651971865821292,0.417149933584262,0.332373251415999,0.827170289243236,0.348028134178708,0.0301391779004551,0.5,0.0865998318543381,1.09589251817109,1.25768786525066,2.78541299242756,0.5,77.8441382434382
CBC_1024,CBC_1024_MSI_AV_v3_Vset6_Aset3_2023-07-05_15h12.04.977.csv,2,30,0,1,z,0,1,2,aud,B,63,1,0B,1B,0,1,b,2.91412849999961,1,0,0,0,0B,1B,B01,2.70805020110221,0.618975180522184,0.417149933584262,0.456700084072831,0.5,0.456700084072831,0.630539872906656,0.5,0.5,0.5,0.5,0.682111043721747,0.381024819477816,0.5,0.5,0.417149933584262,0.682111043721747,0.330003735268719,0.669996264731281,0.456700084072831,0.630539872906656,0.0594630470589261,0.233114553704567,-0.456700084072831,-0.0395501504885692,0.5,0.0865998318543381,1.09589251817109,1.25768786525066,2.78541299242756,0.5,77.8441382434382
CBC_1024,CBC_1024_MSI_AV_v3_Vset6_Aset3_2023-07-05_15h12.04.977.csv,2,31,2,0,z,0,1,3,aud,A,27,1,2A,0A,0,1,b,2.9635816,1,0,0,0,2A,0A,A20,3.13549421592915,0.618975180522184,0.417149933584262,0.456700084072831,0.5,0.417149933584262,0.630539872906656,0.5,0.5,0.5,0.5,0.682111043721747,0.381024819477816,0.5,0.5,0.417149933584262,0.682111043721747,0.341001304019151,0.658998695980849,0.456700084072831,0.618975180522184,0.0610152216652044,0.247602796884532,-0.456700084072831,-0.0395501504885692,0.5,0.0865998318543381,1.09589251817109,1.25768786525066,2.78541299242756,0.5,77.8441382434382
CBC_1024,CBC_1024_MSI_AV_v3_Vset6_Aset3_2023-07-05_15h12.04.977.csv,2,32,3,0,b,1,0,0,aud,D,9,1,3D,0D,1,0,b,1.93329410000024,1,0,1,1,3D,0D,D30,3.85014760171006,0.618975180522184,0.417149933584262,0.417149933584262,0.5,0.417149933584262,0.630539872906656,0.5,0.5,0.5,0.5,0.682111043721747,0.381024819477816,0.5,0.5,0.417149933584262,0.682111043721747,0.682111043721747,0.317888956278253,0.682111043721747,0.5,0.394735877092127,0.781885813918364,0.317888956278253,0.0275291301620477,0.5,0.0865998318543381,1.09589251817109,1.25768786525066,2.78541299242756,0.5,77.8441382434382
CBC_1024,CBC_1024_MSI_AV_v3_Vset6_Aset3_2023-07-05_15h12.04.977.csv,2,33,3,2,z,0,1,1,aud,C,63,1,3C,2C,0,1,z,1.3307818000003,0,1,1,1,2C,3C,C32,2.26176309847379,0.618975180522184,0.417149933584262,0.417149933584262,0.5,0.417149933584262,0.630539872906656,0.5,0.5,0.5,0.5,0.682111043721747,0.381024819477816,0.5,0.5,0.417149933584262,0.709640173883795,0.777073184309227,0.222926815690773,0.682111043721747,0.381024819477816,0.196128856772766,0.874734264705874,0.317888956278253,0.0275291301620477,0.5,0.0865998318543381,1.09589251817109,1.25768786525066,2.78541299242756,0.5,77.8441382434382
CBC_1024,CBC_1024_MSI_AV_v3_Vset6_Aset3_2023-07-05_15h12.04.977.csv,2,34,0,1,z,0,1,2,aud,B,63,1,0B,1B,0,1,z,2.96343859999888,0,1,1,1,1B,0B,B01,2.50552593699074,0.618975180522184,0.417149933584262,0.417149933584262,0.5,0.417149933584262,0.630539872906656,0.5,0.5,0.5,0.5,0.709640173883795,0.381024819477816,0.5,0.5,0.417149933584262,0.709640173883795,0.704541289134569,0.295458710865431,0.630539872906656,0.417149933584262,0.197484733553583,0.808061496404522,0.369460127093344,0.0319951848831659,0.5,0.0865998318543381,1.09589251817109,1.25768786525066,2.78541299242756,0.5,77.8441382434382
CBC_1024,CBC_1024_MSI_AV_v3_Vset6_Aset3_2023-07-05_15h12.04.977.csv,2,35,0,1,b,1,0,3,aud,A,63,0,0A,1A,0,1,b,2.72545360000095,1,0,1,0,0A,1A,A01,2.30258509299405,0.618975180522184,0.417149933584262,0.417149933584262,0.5,0.417149933584262,0.662535057789822,0.5,0.5,0.5,0.5,0.709640173883795,0.381024819477816,0.5,0.5,0.417149933584262,0.709640173883795,0.694169454758939,0.305830545241061,0.618975180522184,0.417149933584262,0.233222722126464,0.795588290829349,-0.618975180522184,-0.0536031465552296,0.5,0.0865998318543381,1.09589251817109,1.25768786525066,2.78541299242756,0.5,77.8441382434382
CBC_1024,CBC_1024_MSI_AV_v3_Vset6_Aset3_2023-07-05_15h12.04.977.csv,2,36,2,3,z,0,1,0,aud,D,63,1,2D,3D,0,1,z,3.36673520000022,0,1,1,1,3D,2D,D23,2.83321334405622,0.565372033966954,0.417149933584262,0.417149933584262,0.5,0.417149933584262,0.662535057789822,0.5,0.5,0.5,0.5,0.709640173883795,0.381024819477816,0.5,0.5,0.417149933584262,0.709640173883795,0.773489602327199,0.226510397672801,0.709640173883795,0.417149933584262,0.145476489506113,0.871768458451187,0.290359826116205,0.0251451121189182,0.5,0.0865998318543381,1.09589251817109,1.25768786525066,2.78541299242756,0.5,77.8441382434382
CBC_1024,CBC_1024_MSI_AV_v3_Vset6_Aset3_2023-07-05_15h12.04.977.csv,2,37,1,2,b,1,0,2,aud,B,9,1,1B,2B,1,0,b,2.07367059999979,1,0,1,1,1B,2B,B12,3.95124371858143,0.565372033966954,0.417149933584262,0.417149933584262,0.5,0.417149933584262,0.662535057789822,0.5,0.5,0.5,0.5,0.709640173883795,0.381024819477816,0.5,0.5,0.417149933584262,0.734785286002713,0.662535057789822,0.337464942210178,0.662535057789822,0.5,0.346854824095135,0.757656460420656,0.337464942210178,0.0292244072521353,0.5,0.0865998318543381,1.09589251817109,1.25768786525066,2.78541299242756,0.5,77.8441382434382
CBC_1024,CBC_1024_MSI_AV_v3_Vset6_Aset3_2023-07-05_15h12.04.977.csv,2,38,2,0,z,0,1,3,aud,A,27,1,2A,0A,0,1,z,4.28148839999903,0,1,1,1,0A,2A,A20,2.87167962488401,0.565372033966954,0.417149933584262,0.417149933584262,0.5,0.417149933584262,0.691759465041958,0.5,0.5,0.5,0.5,0.709640173883795,0.381024819477816,0.5,0.5,0.417149933584262,0.734785286002713,0.645079062677955,0.354920937322045,0.565372033966954,0.417149933584262,0.0717542677699644,0.733418065470966,0.434627966033046,0.0376387087776547,0.5,0.0865998318543381,1.09589251817109,1.25768786525066,2.78541299242756,0.5,77.8441382434382
CBC_1024,CBC_1024_MSI_AV_v3_Vset6_Aset3_2023-07-05_15h12.04.977.csv,2,39,2,3,b,1,0,1,aud,C,63,1,2C,3C,1,0,b,3.49000290000095,1,0,1,1,2C,3C,C23,3.29583686600433,0.603010742744609,0.417149933584262,0.417149933584262,0.5,0.417149933584262,0.691759465041958,0.5,0.5,0.5,0.5,0.709640173883795,0.381024819477816,0.5,0.5,0.417149933584262,0.734785286002713,0.798804276228702,0.201195723771298,0.709640173883795,0.381024819477816,0.127976753344646,0.89000007753974,0.290359826116205,0.0251451121189182,0.5,0.0865998318543381,1.09589251817109,1.25768786525066,2.78541299242756,0.5,77.8441382434382
CBC_1024,CBC_1024_MSI_AV_v3_Vset6_Aset3_2023-07-05_15h12.04.977.csv,2,40,1,3,z,0,1,0,aud,D,27,1,1D,3D,0,1,z,2.3335657000016,0,1,1,1,3D,1D,D13,3.31418600467253,0.603010742744609,0.417149933584262,0.417149933584262,0.5,0.417149933584262,0.691759465041958,0.5,0.5,0.5,0.5,0.734785286002713,0.381024819477816,0.5,0.5,0.417149933584262,0.734785286002713,0.734785286002713,0.265214713997287,0.734785286002713,0.5,0.336205620768161,0.838285879442408,0.265214713997287,0.0229675496374614,0.5,0.0865998318543381,1.09589251817109,1.25768786525066,2.78541299242756,0.5,77.8441382434382
CBC_1024,CBC_1024_MSI_AV_v3_Vset6_Aset3_2023-07-05_15h12.04.977.csv,2,41,0,1,b,1,0,3,aud,A,63,1,0A,1A,1,0,b,2.64001709999957,1,0,1,1,0A,1A,A01,2.23359222150709,0.603010742744609,0.417149933584262,0.417149933584262,0.5,0.417149933584262,0.691759465041958,0.5,0.5,0.5,0.5,0.734785286002713,0.381024819477816,0.5,0.5,0.417149933584262,0.757752835640174,0.679725382250616,0.320274617749384,0.603010742744609,0.417149933584262,0.24277832184525,0.778847118056552,0.396989257255391,0.0343792029262954,0.5,0.0865998318543381,1.09589251817109,1.25768786525066,2.78541299242756,0.5,77.8441382434382
CBC_1024,CBC_1024_MSI_AV_v3_Vset6_Aset3_2023-07-05_15h12.04.977.csv,2,42,0,2,z,0,1,1,aud,C,27,1,0C,2C,0,1,z,1.94651059999978,0,1,1,1,2C,0C,C02,3.3499040872746,0.637389945670904,0.417149933584262,0.417149933584262,0.5,0.417149933584262,0.691759465041958,0.5,0.5,0.5,0.5,0.734785286002713,0.381024819477816,0.5,0.5,0.417149933584262,0.757752835640174,0.734785286002713,0.265214713997287,0.734785286002713,0.5,0.444359514622381,0.838289853085058,0.265214713997287,0.0229675496374614,0.5,0.0865998318543381,1.09589251817109,1.25768786525066,2.78541299242756,0.5,77.8441382434382
CBC_1024,CBC_1024_MSI_AV_v3_Vset6_Aset3_2023-07-05_15h12.04.977.csv,2,43,3,2,b,1,0,0,aud,D,63,1,3D,2D,1,0,b,2.09360389999983,1,0,1,1,3D,2D,D32,2.67414864942653,0.637389945670904,0.417149933584262,0.417149933584262,0.5,0.417149933584262,0.691759465041958,0.5,0.5,0.5,0.5,0.757752835640174,0.381024819477816,0.5,0.5,0.417149933584262,0.757752835640174,0.813798440649428,0.186201559350572,0.757752835640174,0.417149933584262,0.46374660505846,0.900388710241438,0.242247164359826,0.0209785637007511,0.5,0.0865998318543381,1.09589251817109,1.25768786525066,2.78541299242756,0.5,77.8441382434382
CBC_1024,CBC_1024_MSI_AV_v3_Vset6_Aset3_2023-07-05_15h12.04.977.csv,2,44,1,0,b,1,0,2,aud,B,63,1,1B,0B,1,0,b,2.02538670000013,1,0,1,1,1B,0B,B10,2.97892515523761,0.637389945670904,0.417149933584262,0.417149933584262,0.5,0.417149933584262,0.691759465041958,0.5,0.5,0.5,0.5,0.757752835640174,0.381024819477816,0.5,0.5,0.417149933584262,0.778731399340926,0.75820107575126,0.24179892424874,0.691759465041958,0.417149933584262,0.443008308076543,0.859014083059293,0.308240534958042,0.0266935784980577,0.5,0.0865998318543381,1.09589251817109,1.25768786525066,2.78541299242756,0.5,77.8441382434382
CBC_1024,CBC_1024_MSI_TV_v3_Vset1_Tset2_2023-07-05_16h07.59.104.csv,3,1,1,3,b,1,0,2,tac,B,27,1,1B,3B,1,0,z,1.50069830000029,0,1,0,0,3B,1B,B13,2.77258872223978,0.5,0.5,0.5,0.5,0.5,0.5,0.5,0.5,0.5,0.5,0.5,0.5,0.5,0.5,0.5,0.5,0.5,0.5,0.5,0.5,0.29108207909932,0.499701971925167,-0.5,-0.375943787145345,0.5,0.751887574290691,0.918389315122507,0.0848171333462091,2.51062708179913,0.5,79.0138955065222
CBC_1024,CBC_1024_MSI_TV_v3_Vset1_Tset2_2023-07-05_16h07.59.104.csv,3,2,3,2,z,0,1,1,tac,C,63,1,3C,2C,0,1,b,1.47710430000006,1,0,0,0,3C,2C,C32,2.83321334405622,0.5,0.5,0.5,0.5,0.5,0.5,0.5,0.124056212854655,0.5,0.5,0.5,0.5,0.5,0.5,0.5,0.5,0.5,0.5,0.5,0.5,0.293273020246518,0.500988851637682,-0.5,-0.375943787145345,0.5,0.751887574290691,0.918389315122507,0.0848171333462091,2.51062708179913,0.5,79.0138955065222
CBC_1024,CBC_1024_MSI_TV_v3_Vset1_Tset2_2023-07-05_16h07.59.104.csv,3,3,3,2,b,1,0,0,tac,D,63,1,3D,2D,1,0,z,1.19340860000011,0,1,0,0,2D,3D,D32,2.89037175789616,0.5,0.5,0.5,0.5,0.5,0.5,0.5,0.124056212854655,0.5,0.5,0.5,0.124056212854655,0.5,0.5,0.5,0.5,0.5,0.5,0.5,0.5,0.197724134173733,0.499605811304975,-0.5,-0.375943787145345,0.5,0.751887574290691,0.918389315122507,0.0848171333462091,2.51062708179913,0.5,79.0138955065222
CBC_1024,CBC_1024_MSI_TV_v3_Vset1_Tset2_2023-07-05_16h07.59.104.csv,3,4,0,1,z,0,1,2,tac,B,63,1,0B,1B,0,1,b,2.08075540000027,1,0,0,0,0B,1B,B01,2.94443897916644,0.5,0.5,0.5,0.5,0.5,0.5,0.5,0.124056212854655,0.5,0.5,0.5,0.124056212854655,0.5,0.5,0.124056212854655,0.5,0.5,0.5,0.5,0.5,0.200278603602118,0.500186630962995,-0.5,-0.375943787145345,0.5,0.751887574290691,0.918389315122507,0.0848171333462091,2.51062708179913,0.5,79.0138955065222
CBC_1024,CBC_1024_MSI_TV_v3_Vset1_Tset2_2023-07-05_16h07.59.104.csv,3,5,0,3,b,1,0,3,tac,A,9,1,0A,3A,1,0,z,1.53118989999894,0,1,0,0,3A,0A,A03,2.99573227355399,0.5,0.5,0.5,0.5,0.124056212854655,0.5,0.5,0.124056212854655,0.5,0.5,0.5,0.124056212854655,0.5,0.5,0.124056212854655,0.5,0.5,0.5,0.5,0.5,0.288711111400414,0.500249752261567,-0.5,-0.375943787145345,0.5,0.751887574290691,0.918389315122507,0.0848171333462091,2.51062708179913,0.5,79.0138955065222
CBC_1024,CBC_1024_MSI_TV_v3_Vset1_Tset2_2023-07-05_16h07.59.104.csv,3,6,3,2,b,1,0,0,tac,D,63,1,3D,2D,1,0,z,2.76604700000098,0,1,0,0,2D,3D,D32,2.35137525716348,0.5,0.5,0.5,0.124056212854655,0.124056212854655,0.5,0.5,0.124056212854655,0.5,0.5,0.5,0.124056212854655,0.5,0.5,0.124056212854655,0.5,0.124056212854655,0.875943787145345,0.124056212854655,0.5,0.107806698875638,0.459734642494614,-0.124056212854655,-0.0932763249589759,0.5,0.751887574290691,0.918389315122507,0.0848171333462091,2.51062708179913,0.5,79.0138955065222
CBC_1024,CBC_1024_MSI_TV_v3_Vset1_Tset2_2023-07-05_16h07.59.104.csv,3,7,0,2,z,0,1,1,tac,C,27,1,0C,2C,0,1,z,2.84138929999972,0,1,1,1,2C,0C,C02,3.09104245335832,0.5,0.5,0.5,0.124056212854655,0.124056212854655,0.5,0.5,0.124056212854655,0.5,0.5,0.5,0.124056212854655,0.5,0.5,0.0307798878956787,0.5,0.5,0.5,0.5,0.5,0.110926158612761,0.501490546717059,0.5,0.375943787145345,0.5,0.751887574290691,0.918389315122507,0.0848171333462091,2.51062708179913,0.5,79.0138955065222
CBC_1024,CBC_1024_MSI_TV_v3_Vset1_Tset2_2023-07-05_16h07.59.104.csv,3,8,0,1,b,1,0,3,tac,A,63,1,0A,1A,NaN,NaN,None,NaN,NaN,NaN,NaN,NaN,,,A01,3.13549421592915,0.5,0.5,0.5,0.124056212854655,0.124056212854655,0.5,0.5,0.124056212854655,0.5,0.5,0.875943787145345,0.124056212854655,0.5,0.5,0.0307798878956787,0.5,0,0,0,0,NaN,0,0,0,0.5,0.751887574290691,0.918389315122507,0.0848171333462091,2.51062708179913,0.5,79.0138955065222
CBC_1024,CBC_1024_MSI_TV_v3_Vset1_Tset2_2023-07-05_16h07.59.104.csv,3,9,1,0,b,1,0,2,tac,B,63,1,1B,0B,1,0,b,2.34376419999899,1,0,1,1,1B,0B,B10,3.17805383034795,0.5,0.5,0.5,0.124056212854655,0.124056212854655,0.5,0.5,0.124056212854655,0.5,0.5,0.875943787145345,0.124056212854655,0.5,0.5,0.0307798878956787,0.5,0.875943787145345,0.124056212854655,0.5,0.124056212854655,0.176314592047695,0.539950246716721,0.5,0.375943787145345,0.5,0.751887574290691,0.918389315122507,0.0848171333462091,2.51062708179913,0.5,79.0138955065222
CBC_1024,CBC_1024_MSI_TV_v3_Vset1_Tset2_2023-07-05_16h07.59.104.csv,3,10,1,3,z,0,1,0,tac,D,27,1,1D,3D,0,1,b,1.37915319999956,1,0,0,0,1D,3D,D13,3.2188758248682,0.5,0.5,0.5,0.124056212854655,0.124056212854655,0.875943787145345,0.5,0.124056212854655,0.5,0.5,0.875943787145345,0.124056212854655,0.5,0.5,0.0307798878956787,0.5,0.5,0.5,0.5,0.5,0.289388953820947,0.499634140905447,-0.5,-0.375943787145345,0.5,0.751887574290691,0.918389315122507,0.0848171333462091,2.51062708179913,0.5,79.0138955065222
CBC_1024,CBC_1024_MSI_TV_v3_Vset1_Tset2_2023-07-05_16h07.59.104.csv,3,11,3,2,z,0,1,1,tac,C,63,1,3C,2C,0,1,z,2.47562469999866,0,1,1,1,2C,3C,C32,2.56494935746154,0.5,0.5,0.5,0.124056212854655,0.124056212854655,0.875943787145345,0.5,0.124056212854655,0.5,0.5,0.875943787145345,0.124056212854655,0.5,0.124056212854655,0.0307798878956787,0.5,0.980336548162041,0.0196634518379591,0.875943787145345,0.124056212854655,0.162031276192642,0.550186549688244,0.124056212854655,0.0932763249589759,0.5,0.751887574290691,0.918389315122507,0.0848171333462091,2.51062708179913,0.5,79.0138955065222
CBC_1024,CBC_1024_MSI_TV_v3_Vset1_Tset2_2023-07-05_16h07.59.104.csv,3,12,1,0,b,1,0,2,tac,B,63,1,1B,0B,1,0,b,2.3251694999999,1,0,1,1,1B,0B,B10,2.60268968544438,0.5,0.5,0.5,0.124056212854655,0.124056212854655,0.875943787145345,0.5,0.124056212854655,0.5,0.5,0.969220112104321,0.124056212854655,0.5,0.124056212854655,0.0307798878956787,0.5,0.980336548162041,0.019663451837959,0.875943787145345,0.124056212854655,0.182081830266677,0.549460665929893,0.124056212854655,0.0932763249589759,0.5,0.751887574290691,0.918389315122507,0.0848171333462091,2.51062708179913,0.5,79.0138955065222
CBC_1024,CBC_1024_MSI_TV_v3_Vset1_Tset2_2023-07-05_16h07.59.104.csv,3,13,0,1,b,1,0,3,tac,A,63,1,0A,1A,1,0,b,2.58341680000012,1,0,1,1,0A,1A,A01,2.63905732961526,0.5,0.5,0.5,0.124056212854655,0.124056212854655,0.969220112104321,0.5,0.124056212854655,0.5,0.5,0.969220112104321,0.124056212854655,0.5,0.124056212854655,0.0307798878956787,0.5,0.5,0.5,0.5,0.5,0.135298216634633,0.499848613424666,0.5,0.375943787145345,0.5,0.751887574290691,0.918389315122507,0.0848171333462091,2.51062708179913,0.5,79.0138955065222
CBC_1024,CBC_1024_MSI_TV_v3_Vset1_Tset2_2023-07-05_16h07.59.104.csv,3,14,1,2,z,0,1,1,tac,C,9,1,1C,2C,0,1,z,2.07400810000036,0,1,1,1,2C,1C,C12,3.36729582998647,0.875943787145345,0.5,0.5,0.124056212854655,0.124056212854655,0.969220112104321,0.5,0.124056212854655,0.5,0.5,0.969220112104321,0.124056212854655,0.5,0.124056212854655,0.0307798878956787,0.5,0.969220112104321,0.0307798878956788,0.969220112104321,0.5,0.221909133754278,0.550585166462886,0.0307798878956788,0.0231430152468213,0.5,0.751887574290691,0.918389315122507,0.0848171333462091,2.51062708179913,0.5,79.0138955065222
CBC_1024,CBC_1024_MSI_TV_v3_Vset1_Tset2_2023-07-05_16h07.59.104.csv,3,15,1,0,z,0,1,3,tac,A,63,1,1A,0A,NaN,NaN,None,NaN,NaN,NaN,NaN,NaN,,,A10,3.40119738166216,0.875943787145345,0.5,0.5,0.124056212854655,0.124056212854655,0.969220112104321,0.5,0.124056212854655,0.5,0.5,0.992363127351143,0.124056212854655,0.5,0.124056212854655,0.0307798878956787,0.5,0,0,0,0,NaN,0,0,0,0.5,0.751887574290691,0.918389315122507,0.0848171333462091,2.51062708179913,0.5,79.0138955065222
CBC_1024,CBC_1024_MSI_TV_v3_Vset1_Tset2_2023-07-05_16h07.59.104.csv,3,16,3,1,b,1,0,0,tac,D,27,1,3D,1D,1,0,z,1.17544989999988,0,1,0,0,1D,3D,D31,3.43398720448515,0.875943787145345,0.5,0.5,0.124056212854655,0.124056212854655,0.969220112104321,0.5,0.124056212854655,0.5,0.5,0.992363127351143,0.124056212854655,0.5,0.124056212854655,0.0307798878956787,0.5,0.124056212854655,0.875943787145345,0.124056212854655,0.5,0.165421693423607,0.460189240504954,-0.124056212854655,-0.0932763249589759,0.5,0.751887574290691,0.918389315122507,0.0848171333462091,2.51062708179913,0.5,79.0138955065222
CBC_1024,CBC_1024_MSI_TV_v3_Vset1_Tset2_2023-07-05_16h07.59.104.csv,3,17,0,1,z,0,1,2,tac,B,63,1,0B,1B,0,1,b,2.68032099999982,1,0,0,0,0B,1B,B01,2.77258872223978,0.875943787145345,0.5,0.5,0.124056212854655,0.124056212854655,0.969220112104321,0.5,0.124056212854655,0.5,0.5,0.992363127351143,0.124056212854655,0.5,0.0307798878956787,0.0307798878956787,0.5,0.00447752447025586,0.995522475529744,0.124056212854655,0.969220112104321,0.112049515479172,0.446872404837489,-0.124056212854655,-0.0932763249589759,0.5,0.751887574290691,0.918389315122507,0.0848171333462091,2.51062708179913,0.5,79.0138955065222
CBC_1024,CBC_1024_MSI_TV_v3_Vset1_Tset2_2023-07-05_16h07.59.104.csv,3,18,2,3,b,1,0,1,tac,C,63,0,2C,3C,0,1,b,3.205063899999,1,0,1,0,2C,3C,C23,3.49650756146648,0.875943787145345,0.5,0.5,0.124056212854655,0.0307798878956787,0.969220112104321,0.5,0.124056212854655,0.5,0.5,0.992363127351143,0.124056212854655,0.5,0.0307798878956787,0.0307798878956787,0.5,0.998911285188452,0.00108871481154804,0.992363127351143,0.124056212854655,0.091774154579381,0.552976767881597,-0.992363127351143,-0.746145504639574,0.5,0.751887574290691,0.918389315122507,0.0848171333462091,2.51062708179913,0.5,79.0138955065222
CBC_1024,CBC_1024_MSI_TV_v3_Vset1_Tset2_2023-07-05_16h07.59.104.csv,3,19,2,0,z,0,1,3,tac,A,27,1,2A,0A,0,1,b,3.22414710000157,1,0,0,0,2A,0A,A20,3.52636052461616,0.875943787145345,0.5,0.5,0.124056212854655,0.0307798878956787,0.969220112104321,0.5,0.124056212854655,0.5,0.5,0.246217622711568,0.124056212854655,0.5,0.0307798878956787,0.0307798878956787,0.5,0.124056212854655,0.875943787145345,0.5,0.875943787145345,0.0751272602114227,0.459028747747953,-0.5,-0.375943787145345,0.5,0.751887574290691,0.918389315122507,0.0848171333462091,2.51062708179913,0.5,79.0138955065222
CBC_1024,CBC_1024_MSI_TV_v3_Vset1_Tset2_2023-07-05_16h07.59.104.csv,3,20,3,2,b,1,0,0,tac,D,63,1,3D,2D,1,0,b,2.99300829999993,1,0,1,1,3D,2D,D32,2.4567357728213,0.875943787145345,0.5,0.124056212854655,0.124056212854655,0.0307798878956787,0.969220112104321,0.5,0.124056212854655,0.5,0.5,0.246217622711568,0.124056212854655,0.5,0.0307798878956787,0.0307798878956787,0.5,0.969220112104321,0.0307798878956788,0.5,0.0307798878956787,0.10788475331933,0.550089844053876,0.5,0.375943787145345,0.5,0.751887574290691,0.918389315122507,0.0848171333462091,2.51062708179913,0.5,79.0138955065222
CBC_1024,CBC_1024_MSI_TV_v3_Vset1_Tset2_2023-07-05_16h07.59.104.csv,3,21,3,1,z,0,1,2,tac,B,27,1,3B,1B,0,1,z,2.86166960000082,0,1,1,1,1B,3B,B31,3.58351893845611,0.875943787145345,0.5,0.124056212854655,0.124056212854655,0.0307798878956787,0.969220112104321,0.5,0.124056212854655,0.5,0.5,0.246217622711568,0.124056212854655,0.5,0.0307798878956787,0.0307798878956787,0.875943787145345,0.995522475529744,0.00447752447025586,0.969220112104321,0.124056212854655,0.12016405386489,0.55267286664967,0.0307798878956788,0.0231430152468213,0.5,0.751887574290691,0.918389315122507,0.0848171333462091,2.51062708179913,0.5,79.0138955065222
CBC_1024,CBC_1024_MSI_TV_v3_Vset1_Tset2_2023-07-05_16h07.59.104.csv,3,22,3,2,z,0,1,1,tac,C,63,1,3C,2C,0,1,b,3.94050980000065,1,0,0,0,3C,2C,C32,2.51230562397611,0.875943787145345,0.5,0.124056212854655,0.124056212854655,0.0307798878956787,0.992363127351143,0.5,0.124056212854655,0.5,0.5,0.246217622711568,0.124056212854655,0.5,0.0307798878956787,0.0307798878956787,0.875943787145345,0.302445570955396,0.697554429044604,0.124056212854655,0.246217622711568,0.0447848263197734,0.479083368332841,-0.124056212854655,-0.0932763249589759,0.5,0.751887574290691,0.918389315122507,0.0848171333462091,2.51062708179913,0.5,79.0138955065222
CBC_1024,CBC_1024_MSI_TV_v3_Vset1_Tset2_2023-07-05_16h07.59.104.csv,3,23,0,1,b,1,0,3,tac,A,63,1,0A,1A,1,0,b,1.91039469999851,1,0,1,1,0A,1A,A01,2.53897387105828,0.875943787145345,0.5,0.124056212854655,0.124056212854655,0.0307798878956787,0.992363127351143,0.5,0.124056212854655,0.5,0.5,0.246217622711568,0.0307798878956787,0.5,0.0307798878956787,0.0307798878956787,0.875943787145345,0.875943787145345,0.124056212854655,0.875943787145345,0.5,0.246955426229642,0.541207213736096,0.124056212854655,0.0932763249589759,0.5,0.751887574290691,0.918389315122507,0.0848171333462091,2.51062708179913,0.5,79.0138955065222
CBC_1024,CBC_1024_MSI_TV_v3_Vset1_Tset2_2023-07-05_16h07.59.104.csv,3,24,2,1,z,0,1,2,tac,B,9,1,2B,1B,0,1,z,2.14553010000054,0,1,1,1,1B,2B,B21,3.66356164612965,0.969220112104321,0.5,0.124056212854655,0.124056212854655,0.0307798878956787,0.992363127351143,0.5,0.124056212854655,0.5,0.5,0.246217622711568,0.0307798878956787,0.5,0.0307798878956787,0.0307798878956787,0.875943787145345,0.992363127351143,0.00763687264885748,0.992363127351143,0.5,0.21024786037412,0.551374109300889,0.00763687264885748,0.00574206965111638,0.5,0.751887574290691,0.918389315122507,0.0848171333462091,2.51062708179913,0.5,79.0138955065222
CBC_1024,CBC_1024_MSI_TV_v3_Vset1_Tset2_2023-07-05_16h07.59.104.csv,3,25,2,3,b,1,0,1,tac,C,63,1,2C,3C,1,0,b,2.85020760000043,1,0,1,1,2C,3C,C23,2.99573227355399,0.969220112104321,0.5,0.124056212854655,0.124056212854655,0.0307798878956787,0.998105197002259,0.5,0.124056212854655,0.5,0.5,0.246217622711568,0.0307798878956787,0.5,0.0307798878956787,0.0307798878956787,0.875943787145345,0.911391304485531,0.0886086955144686,0.246217622711568,0.0307798878956787,0.119291762111843,0.543515908971058,0.753782377288432,0.566759603202469,0.5,0.751887574290691,0.918389315122507,0.0848171333462091,2.51062708179913,0.5,79.0138955065222
CBC_1024,CBC_1024_MSI_TV_v3_Vset1_Tset2_2023-07-05_16h07.59.104.csv,3,26,2,3,z,0,1,0,tac,D,63,1,2D,3D,0,1,z,2.71748449999905,0,1,1,1,3D,2D,D23,3.71357206670431,0.969220112104321,0.5,0.124056212854655,0.124056212854655,0.0307798878956787,0.998105197002259,0.5,0.124056212854655,0.5,0.5,0.812977225914037,0.0307798878956787,0.5,0.0307798878956787,0.0307798878956787,0.875943787145345,0.995522475529744,0.00447752447025586,0.875943787145345,0.0307798878956787,0.134641192256503,0.552889137903867,0.124056212854655,0.0932763249589759,0.5,0.751887574290691,0.918389315122507,0.0848171333462091,2.51062708179913,0.5,79.0138955065222
CBC_1024,CBC_1024_MSI_TV_v3_Vset1_Tset2_2023-07-05_16h07.59.104.csv,3,27,0,1,z,0,1,2,tac,B,63,1,0B,1B,NaN,NaN,None,NaN,NaN,NaN,NaN,NaN,,,B01,2.63905732961526,0.969220112104321,0.5,0.124056212854655,0.124056212854655,0.0307798878956787,0.998105197002259,0.5,0.124056212854655,0.5,0.5,0.812977225914037,0.0307798878956787,0.5,0.0307798878956787,0.0307798878956787,0.969220112104321,0,0,0,0,NaN,0,0,0,0.5,0.751887574290691,0.918389315122507,0.0848171333462091,2.51062708179913,0.5,79.0138955065222
CBC_1024,CBC_1024_MSI_TV_v3_Vset1_Tset2_2023-07-05_16h07.59.104.csv,3,28,0,2,b,1,0,3,tac,A,27,1,0A,2A,1,0,b,2.79423400000087,1,0,1,1,0A,2A,A02,3.76120011569356,0.969220112104321,0.5,0.124056212854655,0.124056212854655,0.0307798878956787,0.998105197002259,0.5,0.124056212854655,0.5,0.5,0.812977225914037,0.0307798878956787,0.5,0.0307798878956787,0.0307798878956787,0.969220112104321,0.995522475529744,0.00447752447025584,0.969220112104321,0.124056212854655,0.126804447471491,0.55310405721472,0.0307798878956788,0.0231430152468213,0.5,0.751887574290691,0.918389315122507,0.0848171333462091,2.51062708179913,0.5,79.0138955065222
CBC_1024,CBC_1024_MSI_TV_v3_Vset1_Tset2_2023-07-05_16h07.59.104.csv,3,29,1,3,z,0,1,0,tac,D,27,1,1D,3D,0,1,b,3.09056559999954,1,0,0,0,1D,3D,D13,3.09104245335832,0.992363127351143,0.5,0.124056212854655,0.124056212854655,0.0307798878956787,0.998105197002259,0.5,0.124056212854655,0.5,0.5,0.812977225914037,0.0307798878956787,0.5,0.0307798878956787,0.0307798878956787,0.969220112104321,0.00100751484466676,0.998992485155333,0.0307798878956787,0.969220112104321,0.0814469027087297,0.448438824475726,-0.0307798878956787,-0.0231430152468213,0.5,0.751887574290691,0.918389315122507,0.0848171333462091,2.51062708179913,0.5,79.0138955065222
CBC_1024,CBC_1024_MSI_TV_v3_Vset1_Tset2_2023-07-05_16h07.59.104.csv,3,30,1,0,z,0,1,3,tac,A,63,1,1A,0A,0,1,z,2.33426919999874,0,1,1,1,0A,1A,A10,3.11351530921037,0.992363127351143,0.5,0.124056212854655,0.124056212854655,0.0307798878956787,0.998105197002259,0.5,0.124056212854655,0.5,0.5,0.812977225914037,0.0307798878956787,0.5,0.00763687264885746,0.0307798878956787,0.969220112104321,0.992363127351143,0.00763687264885748,0.992363127351143,0.5,0.18171864561028,0.552256071277764,0.00763687264885748,0.00574206965111638,0.5,0.751887574290691,0.918389315122507,0.0848171333462091,2.51062708179913,0.5,79.0138955065222
CBC_1024,CBC_1024_MSI_TV_v3_Vset1_Tset2_2023-07-05_16h07.59.104.csv,3,31,2,0,b,1,0,1,tac,C,27,1,2C,0C,1,0,z,2.98370900000009,0,1,0,0,0C,2C,C20,3.8286413964891,0.998105197002259,0.5,0.124056212854655,0.124056212854655,0.0307798878956787,0.998105197002259,0.5,0.124056212854655,0.5,0.5,0.812977225914037,0.0307798878956787,0.5,0.00763687264885746,0.0307798878956787,0.969220112104321,0.187022774085963,0.812977225914037,0.5,0.812977225914037,0.092364358011171,0.467101957543235,-0.5,-0.375943787145345,0.5,0.751887574290691,0.918389315122507,0.0848171333462091,2.51062708179913,0.5,79.0138955065222
CBC_1024,CBC_1024_MSI_TV_v3_Vset1_Tset2_2023-07-05_16h07.59.104.csv,3,32,2,3,z,0,1,0,tac,D,63,1,2D,3D,0,1,b,3.58088070000122,1,0,0,0,2D,3D,D23,3.15700042115011,0.998105197002259,0.5,0.124056212854655,0.124056212854655,0.0307798878956787,0.998105197002259,0.5,0.124056212854655,0.124056212854655,0.5,0.812977225914037,0.0307798878956787,0.5,0.00763687264885746,0.0307798878956787,0.969220112104321,0.00100751484466676,0.998992485155333,0.0307798878956787,0.969220112104321,0.0550931505057133,0.446175187751636,-0.0307798878956787,-0.0231430152468213,0.5,0.751887574290691,0.918389315122507,0.0848171333462091,2.51062708179913,0.5,79.0138955065222
CBC_1024,CBC_1024_MSI_TV_v3_Vset1_Tset2_2023-07-05_16h07.59.104.csv,3,33,1,0,b,1,0,2,tac,B,63,1,1B,0B,1,0,z,1.82309560000067,0,1,0,0,0B,1B,B10,2.77258872223978,0.998105197002259,0.5,0.124056212854655,0.124056212854655,0.0307798878956787,0.998105197002259,0.5,0.124056212854655,0.124056212854655,0.5,0.812977225914037,0.0307798878956787,0.5,0.00763687264885746,0.00763687264885746,0.969220112104321,6.02845717915246e-05,0.999939715428208,0.0307798878956787,0.998105197002259,0.217995503540685,0.447667716875007,-0.0307798878956787,-0.0231430152468213,0.5,0.751887574290691,0.918389315122507,0.0848171333462091,2.51062708179913,0.5,79.0138955065222
CBC_1024,CBC_1024_MSI_TV_v3_Vset1_Tset2_2023-07-05_16h07.59.104.csv,3,34,0,1,b,1,0,3,tac,A,63,1,0A,1A,1,0,z,1.68818660000034,0,1,0,0,1A,0A,A01,2.50552593699074,0.998105197002259,0.5,0.124056212854655,0.124056212854655,0.00763687264885746,0.998105197002259,0.5,0.124056212854655,0.124056212854655,0.5,0.812977225914037,0.0307798878956787,0.5,0.00763687264885746,0.00763687264885746,0.969220112104321,0.00189480299774114,0.998105197002259,0.5,0.998105197002259,0.23874444071774,0.447128079165257,-0.5,-0.375943787145345,0.5,0.751887574290691,0.918389315122507,0.0848171333462091,2.51062708179913,0.5,79.0138955065222
CBC_1024,CBC_1024_MSI_TV_v3_Vset1_Tset2_2023-07-05_16h07.59.104.csv,3,35,2,3,z,0,1,0,tac,D,63,0,2D,3D,NaN,NaN,None,NaN,NaN,NaN,NaN,NaN,,,D23,2.81341071676004,0.998105197002259,0.124056212854655,0.124056212854655,0.124056212854655,0.00763687264885746,0.998105197002259,0.5,0.124056212854655,0.124056212854655,0.5,0.812977225914037,0.0307798878956787,0.5,0.00763687264885746,0.00763687264885746,0.969220112104321,0,0,0,0,NaN,0,0,0,0.5,0.751887574290691,0.918389315122507,0.0848171333462091,2.51062708179913,0.5,79.0138955065222
CBC_1024,CBC_1024_MSI_TV_v3_Vset1_Tset2_2023-07-05_16h07.59.104.csv,3,36,2,0,b,1,0,1,tac,C,27,1,2C,0C,1,0,z,4.04563690000032,0,1,0,0,0C,2C,C20,3.23867845216438,0.998105197002259,0.124056212854655,0.124056212854655,0.124056212854655,0.00763687264885746,0.998105197002259,0.5,0.124056212854655,0.124056212854655,0.5,0.812977225914037,0.0307798878956787,0.5,0.00763687264885746,0.00763687264885746,0.969220112104321,0.0315525495431817,0.968447450456818,0.124056212854655,0.812977225914037,0.0386354032526236,0.450574567591249,-0.124056212854655,-0.0932763249589759,0.5,0.751887574290691,0.918389315122507,0.0848171333462091,2.51062708179913,0.5,79.0138955065222
CBC_1024,CBC_1024_MSI_TV_v3_Vset1_Tset2_2023-07-05_16h07.59.104.csv,3,37,0,1,b,1,0,3,tac,A,63,1,0A,1A,1,0,b,2.64080209999884,1,0,1,1,0A,1A,A01,2.34180580614733,0.998105197002259,0.124056212854655,0.124056212854655,0.124056212854655,0.00763687264885746,0.998105197002259,0.5,0.124056212854655,0.0307798878956787,0.5,0.812977225914037,0.0307798878956787,0.5,0.00763687264885746,0.00763687264885746,0.969220112104321,0.999731209893792,0.000268790106208283,0.998105197002259,0.124056212854655,0.143207096021574,0.553669019080811,0.00189480299774114,0.00142467882973032,0.5,0.751887574290691,0.918389315122507,0.0848171333462091,2.51062708179913,0.5,79.0138955065222
CBC_1024,CBC_1024_MSI_TV_v3_Vset1_Tset2_2023-07-05_16h07.59.104.csv,3,38,1,3,b,1,0,2,tac,B,27,1,1B,3B,1,0,b,3.23164170000018,1,0,1,1,1B,3B,B13,3.27714473299218,0.999529875831989,0.124056212854655,0.124056212854655,0.124056212854655,0.00763687264885746,0.998105197002259,0.5,0.124056212854655,0.0307798878956787,0.5,0.812977225914037,0.0307798878956787,0.5,0.00763687264885746,0.00763687264885746,0.969220112104321,0.999731209893792,0.000268790106208283,0.998105197002259,0.124056212854655,0.0898858001342931,0.553042437654656,0.00189480299774114,0.00142467882973032,0.5,0.751887574290691,0.918389315122507,0.0848171333462091,2.51062708179913,0.5,79.0138955065222
CBC_1024,CBC_1024_MSI_TV_v3_Vset1_Tset2_2023-07-05_16h07.59.104.csv,3,39,3,2,z,0,1,1,tac,C,63,1,3C,2C,0,1,b,2.71336660000088,1,0,0,0,3C,2C,C32,2.60268968544438,0.999529875831989,0.124056212854655,0.124056212854655,0.124056212854655,0.00763687264885746,0.999529875831989,0.5,0.124056212854655,0.0307798878956787,0.5,0.812977225914037,0.0307798878956787,0.5,0.00763687264885746,0.00763687264885746,0.969220112104321,0.00725269555410712,0.992747304445893,0.0307798878956787,0.812977225914037,0.109297505227953,0.447363877510017,-0.0307798878956787,-0.0231430152468213,0.5,0.751887574290691,0.918389315122507,0.0848171333462091,2.51062708179913,0.5,79.0138955065222
CBC_1024,CBC_1024_MSI_TV_v3_Vset1_Tset2_2023-07-05_16h07.59.104.csv,3,40,3,2,b,1,0,0,tac,D,63,1,3D,2D,1,0,b,2.71648230000028,1,0,1,1,3D,2D,D32,2.62103882411258,0.999529875831989,0.124056212854655,0.124056212854655,0.124056212854655,0.00763687264885746,0.999529875831989,0.5,0.124056212854655,0.0307798878956787,0.5,0.812977225914037,0.00763687264885746,0.5,0.00763687264885746,0.00763687264885746,0.969220112104321,0.999755666272898,0.000244333727102197,0.969220112104321,0.00763687264885746,0.134895903919864,0.553509519787876,0.0307798878956788,0.0231430152468213,0.5,0.751887574290691,0.918389315122507,0.0848171333462091,2.51062708179913,0.5,79.0138955065222
CBC_1024,CBC_1024_MSI_TV_v3_Vset1_Tset2_2023-07-05_16h07.59.104.csv,3,41,0,1,z,0,1,2,tac,B,63,1,0B,1B,0,1,b,3.05525690000104,1,0,0,0,0B,1B,B01,2.63905732961526,0.999529875831989,0.124056212854655,0.124056212854655,0.124056212854655,0.00763687264885746,0.999529875831989,0.5,0.124056212854655,0.0307798878956787,0.5,0.812977225914037,0.00763687264885746,0.5,0.00763687264885746,0.00763687264885746,0.992363127351143,3.61959646656364e-06,0.999996380403533,0.00763687264885746,0.999529875831989,0.0833903459564925,0.446629736792494,-0.00763687264885746,-0.00574206965111636,0.5,0.751887574290691,0.918389315122507,0.0848171333462091,2.51062708179913,0.5,79.0138955065222
CBC_1024,CBC_1024_MSI_TV_v3_Vset1_Tset2_2023-07-05_16h07.59.104.csv,3,42,2,0,z,0,1,3,tac,A,27,1,2A,0A,0,1,b,1.13864899999862,1,0,0,0,2A,0A,A20,3.3499040872746,0.999529875831989,0.124056212854655,0.124056212854655,0.124056212854655,0.0018948029977411,0.999529875831989,0.5,0.124056212854655,0.0307798878956787,0.5,0.812977225914037,0.00763687264885746,0.5,0.00763687264885746,0.00763687264885746,0.992363127351143,6.66085764239118e-05,0.999933391423576,0.124056212854655,0.999529875831989,0.121644277677984,0.446920308504643,-0.124056212854655,-0.0932763249589759,0.5,0.751887574290691,0.918389315122507,0.0848171333462091,2.51062708179913,0.5,79.0138955065222
CBC_1024,CBC_1024_MSI_TV_v3_Vset1_Tset2_2023-07-05_16h07.59.104.csv,3,43,3,0,b,1,0,0,tac,D,9,1,3D,0D,1,0,b,1.58696549999877,1,0,1,1,3D,0D,D30,4.06044301054642,0.999529875831989,0.124056212854655,0.0307798878956787,0.124056212854655,0.0018948029977411,0.999529875831989,0.5,0.124056212854655,0.0307798878956787,0.5,0.812977225914037,0.00763687264885746,0.5,0.00763687264885746,0.00763687264885746,0.992363127351143,0.992363127351143,0.00763687264885748,0.992363127351143,0.5,0.312536482722665,0.552657542288697,0.00763687264885748,0.00574206965111638,0.5,0.751887574290691,0.918389315122507,0.0848171333462091,2.51062708179913,0.5,79.0138955065222
CBC_1024,CBC_1024_MSI_TV_v3_Vset1_Tset2_2023-07-05_16h07.59.104.csv,3,44,3,2,z,0,1,1,tac,C,63,1,3C,2C,0,1,b,2.51286450000043,1,0,0,0,3C,2C,C32,2.46809953147162,0.999529875831989,0.124056212854655,0.0307798878956787,0.124056212854655,0.0018948029977411,0.999529875831989,0.5,0.124056212854655,0.0307798878956787,0.5,0.812977225914037,0.00763687264885746,0.5,0.00763687264885746,0.00763687264885746,0.998105197002259,0.00176722915317391,0.998232770846826,0.00763687264885746,0.812977225914037,0.128104105262852,0.447893707441232,-0.00763687264885746,-0.00574206965111636,0.5,0.751887574290691,0.918389315122507,0.0848171333462091,2.51062708179913,0.5,79.0138955065222
CBC_1024,CBC_1024_MSI_AV_v3_Vset4_Aset2_2023-07-05_16h16.42.189.csv,4,1,0,1,b,1,0,3,aud,A,63,1,0A,1A,1,0,b,2.53505729999961,1,0,1,1,0A,1A,A01,2.77258872223978,0.5,0.5,0.5,0.5,0.5,0.5,0.5,0.5,0.5,0.5,0.5,0.5,0.5,0.5,0.5,0.5,0.5,0.5,0.5,0.5,0.160651441162837,0.499774738070596,0.5,0.0176568418824302,0.5,0.0353136837648604,1.09993022267337,3.10784806419712,2.88114399421171,0.5,79.2963407022185
CBC_1024,CBC_1024_MSI_AV_v3_Vset4_Aset2_2023-07-05_16h16.42.189.csv,4,2,2,3,z,0,1,0,aud,D,63,1,2D,3D,0,1,b,2.72335829999975,1,0,0,0,2D,3D,D23,2.83321334405622,0.51765684188243,0.5,0.5,0.5,0.5,0.5,0.5,0.5,0.5,0.5,0.5,0.5,0.5,0.5,0.5,0.5,0.5,0.5,0.5,0.5,0.144104378206328,0.500430256172472,-0.5,-0.0176568418824302,0.5,0.0353136837648604,1.09993022267337,3.10784806419712,2.88114399421171,0.5,79.2963407022185
CBC_1024,CBC_1024_MSI_AV_v3_Vset4_Aset2_2023-07-05_16h16.42.189.csv,4,3,0,2,z,0,1,1,aud,C,27,1,0C,2C,0,1,b,3.28447140000026,1,0,0,0,0C,2C,C02,2.89037175789616,0.51765684188243,0.5,0.5,0.5,0.5,0.5,0.5,0.5,0.5,0.5,0.5,0.5,0.5,0.5,0.48234315811757,0.5,0.5,0.5,0.5,0.5,0.10345692330271,0.500906384749355,-0.5,-0.0176568418824302,0.5,0.0353136837648604,1.09993022267337,3.10784806419712,2.88114399421171,0.5,79.2963407022185
CBC_1024,CBC_1024_MSI_AV_v3_Vset4_Aset2_2023-07-05_16h16.42.189.csv,4,4,0,1,b,1,0,3,aud,A,63,1,0A,1A,1,0,b,2.35016159999941,1,0,1,1,0A,1A,A01,2.2512917986065,0.51765684188243,0.5,0.5,0.5,0.5,0.5,0.5,0.5,0.48234315811757,0.5,0.5,0.5,0.5,0.5,0.48234315811757,0.5,0.51765684188243,0.48234315811757,0.51765684188243,0.5,0.207529661272945,0.578244514820156,0.48234315811757,0.0170333137519079,0.5,0.0353136837648604,1.09993022267337,3.10784806419712,2.88114399421171,0.5,79.2963407022185
CBC_1024,CBC_1024_MSI_AV_v3_Vset4_Aset2_2023-07-05_16h16.42.189.csv,4,5,1,3,b,1,0,2,aud,B,27,1,1B,3B,1,0,b,2.3592091999999,1,0,1,1,1B,3B,B13,2.99573227355399,0.534690155634338,0.5,0.5,0.5,0.5,0.5,0.5,0.5,0.48234315811757,0.5,0.5,0.5,0.5,0.5,0.48234315811757,0.5,0.5,0.5,0.5,0.5,0.177991133741633,0.500896060035176,0.5,0.0176568418824302,0.5,0.0353136837648604,1.09993022267337,3.10784806419712,2.88114399421171,0.5,79.2963407022185
CBC_1024,CBC_1024_MSI_AV_v3_Vset4_Aset2_2023-07-05_16h16.42.189.csv,4,6,3,2,z,0,1,1,aud,C,63,1,3C,2C,0,1,z,2.44541799999934,0,1,1,1,2C,3C,C32,3.04452243772342,0.534690155634338,0.5,0.5,0.5,0.5,0.51765684188243,0.5,0.5,0.48234315811757,0.5,0.5,0.5,0.5,0.5,0.48234315811757,0.5,0.5,0.5,0.5,0.5,0.169493908793562,0.500790065602398,0.5,0.0176568418824302,0.5,0.0353136837648604,1.09993022267337,3.10784806419712,2.88114399421171,0.5,79.2963407022185
CBC_1024,CBC_1024_MSI_AV_v3_Vset4_Aset2_2023-07-05_16h16.42.189.csv,4,7,3,2,b,1,0,0,aud,D,63,1,3D,2D,1,0,b,2.93909239999994,1,0,1,1,3D,2D,D32,3.09104245335832,0.534690155634338,0.5,0.5,0.5,0.5,0.51765684188243,0.5,0.5,0.48234315811757,0.5,0.51765684188243,0.5,0.5,0.5,0.48234315811757,0.5,0.51765684188243,0.48234315811757,0.5,0.48234315811757,0.146605779509927,0.577514551019267,0.5,0.0176568418824302,0.5,0.0353136837648604,1.09993022267337,3.10784806419712,2.88114399421171,0.5,79.2963407022185
CBC_1024,CBC_1024_MSI_AV_v3_Vset4_Aset2_2023-07-05_16h16.42.189.csv,4,8,0,1,z,0,1,2,aud,B,63,1,0B,1B,0,1,b,4.10465170000134,1,0,0,0,0B,1B,B01,3.13549421592915,0.534690155634338,0.5,0.5,0.5,0.5,0.51765684188243,0.5,0.5,0.48234315811757,0.5,0.51765684188243,0.5,0.5,0.5,0.48234315811757,0.51765684188243,0.48234315811757,0.51765684188243,0.5,0.51765684188243,0.0532345737372581,0.422020055732824,-0.5,-0.0176568418824302,0.5,0.0353136837648604,1.09993022267337,3.10784806419712,2.88114399421171,0.5,79.2963407022185
CBC_1024,CBC_1024_MSI_AV_v3_Vset4_Aset2_2023-07-05_16h16.42.189.csv,4,9,2,0,z,0,1,3,aud,A,27,1,2A,0A,0,1,z,1.93385620000117,0,1,1,1,0A,2A,A20,3.17805383034795,0.534690155634338,0.5,0.5,0.5,0.48234315811757,0.51765684188243,0.5,0.5,0.48234315811757,0.5,0.51765684188243,0.5,0.5,0.5,0.48234315811757,0.51765684188243,0.534690155634338,0.465309844365662,0.534690155634338,0.5,0.290810977684262,0.650278547450017,0.465309844365662,0.0164318046966054,0.5,0.0353136837648604,1.09993022267337,3.10784806419712,2.88114399421171,0.5,79.2963407022185
CBC_1024,CBC_1024_MSI_AV_v3_Vset4_Aset2_2023-07-05_16h16.42.189.csv,4,10,3,0,b,1,0,0,aud,D,9,1,3D,0D,1,0,b,2.13825300000099,1,0,1,1,3D,0D,D30,3.2188758248682,0.551121960330944,0.5,0.5,0.5,0.48234315811757,0.51765684188243,0.5,0.5,0.48234315811757,0.5,0.51765684188243,0.5,0.5,0.5,0.48234315811757,0.51765684188243,0.51765684188243,0.48234315811757,0.51765684188243,0.5,0.23232933099856,0.577974905899559,0.48234315811757,0.0170333137519079,0.5,0.0353136837648604,1.09993022267337,3.10784806419712,2.88114399421171,0.5,79.2963407022185
CBC_1024,CBC_1024_MSI_AV_v3_Vset4_Aset2_2023-07-05_16h16.42.189.csv,4,11,2,3,b,1,0,1,aud,C,63,1,2C,3C,1,0,b,3.34102150000035,1,0,1,1,2C,3C,C23,3.25809653802148,0.551121960330944,0.5,0.5,0.5,0.48234315811757,0.51765684188243,0.5,0.5,0.48234315811757,0.5,0.51765684188243,0.5,0.5,0.5,0.48234315811757,0.534690155634338,0.51765684188243,0.48234315811757,0.51765684188243,0.5,0.115249737043044,0.577663297560041,0.48234315811757,0.0170333137519079,0.5,0.0353136837648604,1.09993022267337,3.10784806419712,2.88114399421171,0.5,79.2963407022185
CBC_1024,CBC_1024_MSI_AV_v3_Vset4_Aset2_2023-07-05_16h16.42.189.csv,4,12,0,1,z,0,1,2,aud,B,63,1,0B,1B,0,1,z,2.22444759999962,0,1,1,1,1B,0B,B01,2.60268968544438,0.551121960330944,0.5,0.5,0.5,0.48234315811757,0.51765684188243,0.5,0.5,0.48234315811757,0.5,0.534690155634338,0.5,0.5,0.5,0.48234315811757,0.534690155634338,0.535269700464072,0.464730299535928,0.51765684188243,0.48234315811757,0.255012480515157,0.652471573125612,0.48234315811757,0.0170333137519079,0.5,0.0353136837648604,1.09993022267337,3.10784806419712,2.88114399421171,0.5,79.2963407022185
CBC_1024,CBC_1024_MSI_AV_v3_Vset4_Aset2_2023-07-05_16h16.42.189.csv,4,13,2,3,z,0,1,0,aud,D,63,1,2D,3D,0,1,b,2.8987075999994,1,0,0,0,2D,3D,D23,2.63905732961526,0.551121960330944,0.5,0.5,0.5,0.48234315811757,0.534690155634338,0.5,0.5,0.48234315811757,0.5,0.534690155634338,0.5,0.5,0.5,0.48234315811757,0.534690155634338,0.447780943056361,0.552219056943639,0.48234315811757,0.534690155634338,0.0739754674228333,0.281843601766805,-0.48234315811757,-0.0170333137519079,0.5,0.0353136837648604,1.09993022267337,3.10784806419712,2.88114399421171,0.5,79.2963407022185
CBC_1024,CBC_1024_MSI_AV_v3_Vset4_Aset2_2023-07-05_16h16.42.189.csv,4,14,2,3,b,1,0,1,aud,C,63,1,2C,3C,1,0,z,3.01412060000075,0,1,0,0,3C,2C,C23,2.67414864942653,0.551121960330944,0.5,0.5,0.5,0.48234315811757,0.534690155634338,0.5,0.5,0.48234315811757,0.5,0.534690155634338,0.5,0.5,0.5,0.465309844365662,0.534690155634338,0.465309844365662,0.534690155634338,0.5,0.534690155634338,0.0851467217279999,0.350091095200484,-0.5,-0.0176568418824302,0.5,0.0353136837648604,1.09993022267337,3.10784806419712,2.88114399421171,0.5,79.2963407022185
CBC_1024,CBC_1024_MSI_AV_v3_Vset4_Aset2_2023-07-05_16h16.42.189.csv,4,15,3,1,z,0,1,2,aud,B,27,1,3B,1B,0,1,z,2.25662399999965,0,1,1,1,1B,3B,B31,3.40119738166216,0.551121960330944,0.5,0.5,0.5,0.48234315811757,0.534690155634338,0.5,0.5,0.48234315811757,0.5,0.534690155634338,0.48234315811757,0.5,0.5,0.465309844365662,0.534690155634338,0.534690155634338,0.465309844365662,0.534690155634338,0.5,0.249299562003051,0.649825160106784,0.465309844365662,0.0164318046966054,0.5,0.0353136837648604,1.09993022267337,3.10784806419712,2.88114399421171,0.5,79.2963407022185
CBC_1024,CBC_1024_MSI_AV_v3_Vset4_Aset2_2023-07-05_16h16.42.189.csv,4,16,0,3,b,1,0,3,aud,A,9,1,0A,3A,1,0,b,2.08950209999966,1,0,1,1,0A,3A,A03,3.43398720448515,0.551121960330944,0.5,0.5,0.5,0.48234315811757,0.551121960330944,0.5,0.5,0.48234315811757,0.5,0.534690155634338,0.48234315811757,0.5,0.5,0.465309844365662,0.534690155634338,0.551121960330944,0.448878039669056,0.551121960330944,0.5,0.307281587817163,0.713932157036037,0.448878039669056,0.0158515371418635,0.5,0.0353136837648604,1.09993022267337,3.10784806419712,2.88114399421171,0.5,79.2963407022185
CBC_1024,CBC_1024_MSI_AV_v3_Vset4_Aset2_2023-07-05_16h16.42.189.csv,4,17,2,3,z,0,1,0,aud,D,63,1,2D,3D,0,1,z,2.31216360000144,0,1,1,1,3D,2D,D23,2.36712361413162,0.566973497472807,0.5,0.5,0.5,0.48234315811757,0.551121960330944,0.5,0.5,0.48234315811757,0.5,0.534690155634338,0.48234315811757,0.5,0.5,0.465309844365662,0.534690155634338,0.569047940198584,0.430952059801416,0.534690155634338,0.465309844365662,0.302503369838152,0.774665889960587,0.465309844365662,0.0164318046966054,0.5,0.0353136837648604,1.09993022267337,3.10784806419712,2.88114399421171,0.5,79.2963407022185
CBC_1024,CBC_1024_MSI_AV_v3_Vset4_Aset2_2023-07-05_16h16.42.189.csv,4,18,0,2,z,0,1,1,aud,C,27,1,0C,2C,0,1,z,1.79260939999949,0,1,1,1,2C,0C,C02,2.80336038090653,0.566973497472807,0.5,0.5,0.5,0.48234315811757,0.551121960330944,0.5,0.5,0.48234315811757,0.5,0.534690155634338,0.48234315811757,0.5,0.5,0.465309844365662,0.551121960330944,0.552219056943639,0.447780943056361,0.534690155634338,0.48234315811757,0.342775182604847,0.717807987836854,0.465309844365662,0.0164318046966054,0.5,0.0353136837648604,1.09993022267337,3.10784806419712,2.88114399421171,0.5,79.2963407022185
CBC_1024,CBC_1024_MSI_AV_v3_Vset4_Aset2_2023-07-05_16h16.42.189.csv,4,19,0,1,b,1,0,3,aud,A,63,1,0A,1A,1,0,b,4.18584790000023,1,0,1,1,0A,1A,A01,2.42774823594805,0.566973497472807,0.5,0.5,0.5,0.48234315811757,0.551121960330944,0.5,0.5,0.48234315811757,0.5,0.551121960330944,0.48234315811757,0.5,0.5,0.465309844365662,0.551121960330944,0.566973497472807,0.433026502527193,0.566973497472807,0.5,0.084266712114761,0.76874751926737,0.433026502527193,0.0152917609720488,0.5,0.0353136837648604,1.09993022267337,3.10784806419712,2.88114399421171,0.5,79.2963407022185
CBC_1024,CBC_1024_MSI_AV_v3_Vset4_Aset2_2023-07-05_16h16.42.189.csv,4,20,1,0,b,1,0,2,aud,B,63,0,1B,0B,0,1,b,1.33021300000109,1,0,1,0,1B,0B,B10,3.55534806148941,0.582265258444856,0.5,0.5,0.5,0.48234315811757,0.551121960330944,0.5,0.5,0.48234315811757,0.5,0.551121960330944,0.48234315811757,0.5,0.5,0.465309844365662,0.551121960330944,0.568531362227161,0.431468637772839,0.551121960330944,0.48234315811757,0.10390437604826,0.773366131099388,-0.551121960330944,-0.0194621466229969,0.5,0.0353136837648604,1.09993022267337,3.10784806419712,2.88114399421171,0.5,79.2963407022185
CBC_1024,CBC_1024_MSI_AV_v3_Vset4_Aset2_2023-07-05_16h16.42.189.csv,4,21,3,1,b,1,0,0,aud,D,27,1,3D,1D,1,0,b,2.48484989999997,1,0,1,1,3D,1D,D31,3.58351893845611,0.582265258444856,0.5,0.5,0.5,0.48234315811757,0.531659813707947,0.5,0.5,0.48234315811757,0.5,0.551121960330944,0.48234315811757,0.5,0.5,0.465309844365662,0.551121960330944,0.551121960330944,0.448878039669056,0.551121960330944,0.5,0.244139379893331,0.714860922879673,0.448878039669056,0.0158515371418635,0.5,0.0353136837648604,1.09993022267337,3.10784806419712,2.88114399421171,0.5,79.2963407022185
CBC_1024,CBC_1024_MSI_AV_v3_Vset4_Aset2_2023-07-05_16h16.42.189.csv,4,22,3,2,z,0,1,1,aud,C,63,1,3C,2C,0,1,b,1.74199819999922,1,0,0,0,3C,2C,C32,2.91777073208428,0.582265258444856,0.5,0.5,0.5,0.48234315811757,0.531659813707947,0.5,0.5,0.48234315811757,0.5,0.551121960330944,0.48234315811757,0.5,0.5,0.465309844365662,0.566973497472807,0.431468637772839,0.568531362227161,0.48234315811757,0.551121960330944,0.113462253308436,0.226948487964108,-0.48234315811757,-0.0170333137519079,0.5,0.0353136837648604,1.09993022267337,3.10784806419712,2.88114399421171,0.5,79.2963407022185
CBC_1024,CBC_1024_MSI_AV_v3_Vset4_Aset2_2023-07-05_16h16.42.189.csv,4,23,0,1,z,0,1,2,aud,B,63,1,0B,1B,0,1,z,1.82625910000024,0,1,1,1,1B,0B,B01,2.53897387105828,0.582265258444856,0.5,0.5,0.5,0.48234315811757,0.531659813707947,0.5,0.5,0.48234315811757,0.5,0.551121960330944,0.465309844365662,0.5,0.5,0.465309844365662,0.566973497472807,0.549206627146256,0.450793372853744,0.531659813707947,0.48234315811757,0.333970255697201,0.706854281420692,0.468340186292053,0.0165388172330934,0.5,0.0353136837648604,1.09993022267337,3.10784806419712,2.88114399421171,0.5,79.2963407022185
CBC_1024,CBC_1024_MSI_AV_v3_Vset4_Aset2_2023-07-05_16h16.42.189.csv,4,24,0,2,b,1,0,3,aud,A,27,1,0A,2A,1,0,b,2.6952753000005,1,0,1,1,0A,2A,A02,3.66356164612965,0.582265258444856,0.5,0.5,0.5,0.48234315811757,0.54819863094104,0.5,0.5,0.48234315811757,0.5,0.551121960330944,0.465309844365662,0.5,0.5,0.465309844365662,0.566973497472807,0.582265258444856,0.417734741555144,0.582265258444856,0.5,0.24802033878,0.813041574144964,0.417734741555144,0.0147517525608741,0.5,0.0353136837648604,1.09993022267337,3.10784806419712,2.88114399421171,0.5,79.2963407022185
CBC_1024,CBC_1024_MSI_AV_v3_Vset4_Aset2_2023-07-05_16h16.42.189.csv,4,25,3,2,b,1,0,0,aud,D,63,1,3D,2D,1,0,b,2.11651969999912,1,0,1,1,3D,2D,D32,2.99573227355399,0.59701701100573,0.5,0.5,0.5,0.48234315811757,0.54819863094104,0.5,0.5,0.48234315811757,0.5,0.551121960330944,0.465309844365662,0.5,0.5,0.465309844365662,0.566973497472807,0.600727563234944,0.399272436765056,0.566973497472807,0.465309844365662,0.407741107705557,0.858755856945444,0.433026502527193,0.0152917609720488,0.5,0.0353136837648604,1.09993022267337,3.10784806419712,2.88114399421171,0.5,79.2963407022185
CBC_1024,CBC_1024_MSI_AV_v3_Vset4_Aset2_2023-07-05_16h16.42.189.csv,4,26,0,2,z,0,1,1,aud,C,27,1,0C,2C,0,1,z,3.72633179999866,0,1,1,1,2C,0C,C02,2.6149597780362,0.59701701100573,0.5,0.5,0.5,0.48234315811757,0.54819863094104,0.5,0.5,0.48234315811757,0.5,0.551121960330944,0.465309844365662,0.5,0.5,0.465309844365662,0.582265258444856,0.568531362227161,0.431468637772839,0.551121960330944,0.48234315811757,0.115540843443985,0.772589502273874,0.448878039669056,0.0158515371418635,0.5,0.0353136837648604,1.09993022267337,3.10784806419712,2.88114399421171,0.5,79.2963407022185
CBC_1024,CBC_1024_MSI_AV_v3_Vset4_Aset2_2023-07-05_16h16.42.189.csv,4,27,0,1,z,0,1,2,aud,B,63,1,0B,1B,0,1,z,2.01000980000026,0,1,1,1,1B,0B,B01,2.35137525716348,0.59701701100573,0.5,0.5,0.5,0.48234315811757,0.54819863094104,0.5,0.5,0.48234315811757,0.5,0.566973497472807,0.465309844365662,0.5,0.5,0.465309844365662,0.582265258444856,0.565632051971119,0.434367948028881,0.54819863094104,0.48234315811757,0.353020807243725,0.764043666806114,0.45180136905896,0.0159547706714791,0.5,0.0353136837648604,1.09993022267337,3.10784806419712,2.88114399421171,0.5,79.2963407022185
CBC_1024,CBC_1024_MSI_AV_v3_Vset4_Aset2_2023-07-05_16h16.42.189.csv,4,28,1,0,z,0,1,3,aud,A,63,1,1A,0A,0,1,b,2.81331160000082,1,0,0,0,1A,0A,A10,3.76120011569356,0.59701701100573,0.5,0.5,0.5,0.48234315811757,0.564153401612519,0.5,0.5,0.48234315811757,0.5,0.566973497472807,0.465309844365662,0.5,0.5,0.465309844365662,0.582265258444856,0.40298298899427,0.59701701100573,0.5,0.59701701100573,0.0420132794291693,0.149872778914254,-0.5,-0.0176568418824302,0.5,0.0353136837648604,1.09993022267337,3.10784806419712,2.88114399421171,0.5,79.2963407022185
CBC_1024,CBC_1024_MSI_AV_v3_Vset4_Aset2_2023-07-05_16h16.42.189.csv,4,29,2,3,b,1,0,1,aud,C,63,1,2C,3C,1,0,b,3.31570259999899,1,0,1,1,2C,3C,C23,2.68557734525015,0.59701701100573,0.48234315811757,0.5,0.5,0.48234315811757,0.564153401612519,0.5,0.5,0.48234315811757,0.5,0.566973497472807,0.465309844365662,0.5,0.5,0.465309844365662,0.582265258444856,0.600727563234944,0.399272436765056,0.566973497472807,0.465309844365662,0.16181158104782,0.858572594414003,0.433026502527193,0.0152917609720488,0.5,0.0353136837648604,1.09993022267337,3.10784806419712,2.88114399421171,0.5,79.2963407022185
CBC_1024,CBC_1024_MSI_AV_v3_Vset4_Aset2_2023-07-05_16h16.42.189.csv,4,30,1,3,z,0,1,0,aud,D,27,1,1D,3D,0,1,z,4.05458290000024,0,1,1,1,3D,1D,D13,3.80666248977032,0.59701701100573,0.48234315811757,0.5,0.5,0.48234315811757,0.564153401612519,0.5,0.5,0.48234315811757,0.5,0.582265258444856,0.465309844365662,0.5,0.5,0.465309844365662,0.582265258444856,0.582265258444856,0.417734741555144,0.582265258444856,0.5,0.0927588510952883,0.813298692720768,0.417734741555144,0.0147517525608741,0.5,0.0353136837648604,1.09993022267337,3.10784806419712,2.88114399421171,0.5,79.2963407022185
CBC_1024,CBC_1024_MSI_AV_v3_Vset4_Aset2_2023-07-05_16h16.42.189.csv,4,31,0,1,b,1,0,3,aud,A,63,1,0A,1A,1,0,b,1.81486849999965,1,0,1,1,0A,1A,A01,2.4423470353692,0.59701701100573,0.48234315811757,0.5,0.5,0.48234315811757,0.564153401612519,0.5,0.5,0.48234315811757,0.5,0.582265258444856,0.465309844365662,0.5,0.5,0.465309844365662,0.59701701100573,0.613893448589805,0.386106551410195,0.59701701100573,0.48234315811757,0.515501559679021,0.884471855619534,0.40298298899427,0.0142308138359619,0.5,0.0353136837648604,1.09993022267337,3.10784806419712,2.88114399421171,0.5,79.2963407022185
CBC_1024,CBC_1024_MSI_AV_v3_Vset4_Aset2_2023-07-05_16h16.42.189.csv,4,32,2,3,z,0,1,0,aud,D,63,1,2D,3D,0,1,z,2.67559279999841,0,1,1,1,3D,2D,D23,2.46385324059017,0.611247824841692,0.48234315811757,0.5,0.5,0.48234315811757,0.564153401612519,0.5,0.5,0.48234315811757,0.5,0.582265258444856,0.465309844365662,0.5,0.5,0.465309844365662,0.59701701100573,0.629957658339759,0.370042341660241,0.59701701100573,0.465309844365662,0.28359281181468,0.911404805032539,0.40298298899427,0.0142308138359619,0.5,0.0353136837648604,1.09993022267337,3.10784806419712,2.88114399421171,0.5,79.2963407022185
CBC_1024,CBC_1024_MSI_AV_v3_Vset4_Aset2_2023-07-05_16h16.42.189.csv,4,33,1,2,b,1,0,2,aud,B,9,1,1B,2B,1,0,z,2.9577117000008,0,1,0,0,2B,1B,B12,3.87120101090789,0.611247824841692,0.48234315811757,0.5,0.5,0.48234315811757,0.564153401612519,0.5,0.5,0.48234315811757,0.5,0.582265258444856,0.465309844365662,0.5,0.5,0.465309844365662,0.611247824841692,0.435846598387481,0.564153401612519,0.5,0.564153401612519,0.0610191996622299,0.241195525970973,-0.5,-0.0176568418824302,0.5,0.0353136837648604,1.09993022267337,3.10784806419712,2.88114399421171,0.5,79.2963407022185
CBC_1024,CBC_1024_MSI_AV_v3_Vset4_Aset2_2023-07-05_16h16.42.189.csv,4,34,0,1,b,1,0,3,aud,A,63,1,0A,1A,1,0,b,3.21706989999984,1,0,1,1,0A,1A,A01,2.28238238567653,0.611247824841692,0.48234315811757,0.5,0.5,0.48234315811757,0.564153401612519,0.48234315811757,0.5,0.48234315811757,0.5,0.582265258444856,0.465309844365662,0.5,0.5,0.465309844365662,0.611247824841692,0.627899740428183,0.372100259571817,0.611247824841692,0.48234315811757,0.173055761617079,0.908064933636067,0.388752175158308,0.0137282713764421,0.5,0.0353136837648604,1.09993022267337,3.10784806419712,2.88114399421171,0.5,79.2963407022185
CBC_1024,CBC_1024_MSI_AV_v3_Vset4_Aset2_2023-07-05_16h16.42.189.csv,4,35,1,2,z,0,1,1,aud,C,9,1,1C,2C,0,1,b,3.85207239999909,1,0,0,0,1C,2C,C12,3.91202300542815,0.624976096218134,0.48234315811757,0.5,0.5,0.48234315811757,0.564153401612519,0.48234315811757,0.5,0.48234315811757,0.5,0.582265258444856,0.465309844365662,0.5,0.5,0.465309844365662,0.611247824841692,0.417734741555144,0.582265258444856,0.5,0.582265258444856,0.0246229765835001,0.186465449676053,-0.5,-0.0176568418824302,0.5,0.0353136837648604,1.09993022267337,3.10784806419712,2.88114399421171,0.5,79.2963407022185
CBC_1024,CBC_1024_MSI_AV_v3_Vset4_Aset2_2023-07-05_16h16.42.189.csv,4,36,0,1,z,0,1,2,aud,B,63,1,0B,1B,0,1,z,1.85112690000096,0,1,1,1,1B,0B,B01,2.32238772029023,0.624976096218134,0.48234315811757,0.5,0.5,0.48234315811757,0.564153401612519,0.48234315811757,0.5,0.48234315811757,0.48234315811757,0.582265258444856,0.465309844365662,0.5,0.5,0.465309844365662,0.611247824841692,0.581441234412269,0.418558765587731,0.564153401612519,0.48234315811757,0.417921160866424,0.811572448244197,0.435846598387481,0.0153913489454456,0.5,0.0353136837648604,1.09993022267337,3.10784806419712,2.88114399421171,0.5,79.2963407022185
CBC_1024,CBC_1024_MSI_AV_v3_Vset4_Aset2_2023-07-05_16h16.42.189.csv,4,37,1,0,z,0,1,3,aud,A,63,0,1A,0A,1,0,z,4.30748139999923,0,1,1,0,0A,1A,A10,3.25809653802148,0.624976096218134,0.48234315811757,0.5,0.5,0.48234315811757,0.579544750557965,0.48234315811757,0.5,0.48234315811757,0.48234315811757,0.582265258444856,0.465309844365662,0.5,0.5,0.465309844365662,0.611247824841692,0.641384970758704,0.358615029241296,0.624976096218134,0.48234315811757,0.0579303351351069,0.925982961073491,-0.624976096218134,-0.0220702082224442,0.5,0.0353136837648604,1.09993022267337,3.10784806419712,2.88114399421171,0.5,79.2963407022185
CBC_1024,CBC_1024_MSI_AV_v3_Vset4_Aset2_2023-07-05_16h16.42.189.csv,4,38,1,0,b,1,0,2,aud,B,63,1,1B,0B,1,0,b,4.27294239999901,1,0,1,1,1B,0B,B10,3.27714473299218,0.60290588799569,0.48234315811757,0.5,0.5,0.48234315811757,0.579544750557965,0.48234315811757,0.5,0.48234315811757,0.48234315811757,0.582265258444856,0.465309844365662,0.5,0.5,0.465309844365662,0.611247824841692,0.596658561132087,0.403341438867913,0.579544750557965,0.48234315811757,0.0768916604795696,0.849726915803879,0.420455249442035,0.0148478237160715,0.5,0.0353136837648604,1.09993022267337,3.10784806419712,2.88114399421171,0.5,79.2963407022185
CBC_1024,CBC_1024_MSI_AV_v3_Vset4_Aset2_2023-07-05_16h16.42.189.csv,4,39,3,1,b,1,0,0,aud,D,27,1,3D,1D,1,0,b,1.4897501000014,1,0,1,1,3D,1D,D31,3.29583686600433,0.60290588799569,0.48234315811757,0.5,0.5,0.48234315811757,0.594392574274036,0.48234315811757,0.5,0.48234315811757,0.48234315811757,0.582265258444856,0.465309844365662,0.5,0.5,0.465309844365662,0.611247824841692,0.611247824841692,0.388752175158308,0.611247824841692,0.5,0.407002042896865,0.880170184966295,0.388752175158308,0.0137282713764421,0.5,0.0353136837648604,1.09993022267337,3.10784806419712,2.88114399421171,0.5,79.2963407022185
CBC_1024,CBC_1024_MSI_AV_v3_Vset4_Aset2_2023-07-05_16h16.42.189.csv,4,40,2,3,b,1,0,1,aud,C,63,1,2C,3C,1,0,b,4.69300899999871,1,0,1,1,2C,3C,C23,2.62103882411258,0.60290588799569,0.48234315811757,0.5,0.5,0.48234315811757,0.594392574274036,0.48234315811757,0.5,0.48234315811757,0.48234315811757,0.582265258444856,0.465309844365662,0.5,0.5,0.465309844365662,0.624976096218134,0.615635415176918,0.384364584823082,0.582265258444856,0.465309844365662,0.0497607107771929,0.888078471303621,0.417734741555144,0.0147517525608741,0.5,0.0353136837648604,1.09993022267337,3.10784806419712,2.88114399421171,0.5,79.2963407022185
CBC_1024,CBC_1024_MSI_AV_v3_Vset4_Aset2_2023-07-05_16h16.42.189.csv,4,41,2,0,z,0,1,3,aud,A,27,1,2A,0A,0,1,z,2.70453730000008,0,1,1,1,0A,2A,A20,3.3322045101752,0.60290588799569,0.48234315811757,0.5,0.5,0.48234315811757,0.594392574274036,0.48234315811757,0.5,0.48234315811757,0.48234315811757,0.59701701100573,0.465309844365662,0.5,0.5,0.465309844365662,0.624976096218134,0.60290588799569,0.39709411200431,0.60290588799569,0.5,0.263327269413969,0.862849909788357,0.39709411200431,0.0140228558962083,0.5,0.0353136837648604,1.09993022267337,3.10784806419712,2.88114399421171,0.5,79.2963407022185
CBC_1024,CBC_1024_MSI_AV_v3_Vset4_Aset2_2023-07-05_16h16.42.189.csv,4,42,3,2,b,1,0,0,aud,D,63,1,3D,2D,1,0,b,2.80603049999991,1,0,1,1,3D,2D,D32,2.94443897916644,0.616928743891898,0.48234315811757,0.5,0.5,0.48234315811757,0.594392574274036,0.48234315811757,0.5,0.48234315811757,0.48234315811757,0.59701701100573,0.465309844365662,0.5,0.5,0.465309844365662,0.624976096218134,0.656944556870546,0.343055443129454,0.624976096218134,0.465309844365662,0.248226940998707,0.943336558721721,0.375023903781866,0.0132434755424163,0.5,0.0353136837648604,1.09993022267337,3.10784806419712,2.88114399421171,0.5,79.2963407022185
CBC_1024,CBC_1024_MSI_AV_v3_Vset4_Aset2_2023-07-05_16h16.42.189.csv,4,43,3,1,z,0,1,2,aud,B,27,1,3B,1B,0,1,z,2.00983619999897,0,1,1,1,1B,3B,B31,3.36729582998647,0.616928743891898,0.48234315811757,0.5,0.5,0.48234315811757,0.594392574274036,0.48234315811757,0.5,0.48234315811757,0.48234315811757,0.59701701100573,0.465309844365662,0.5,0.5,0.465309844365662,0.63821957176055,0.594392574274036,0.405607425725964,0.594392574274036,0.5,0.421100929626477,0.844065469900149,0.405607425725964,0.0143234923647658,0.5,0.0353136837648604,1.09993022267337,3.10784806419712,2.88114399421171,0.5,79.2963407022185
CBC_1024,CBC_1024_MSI_AV_v3_Vset4_Aset2_2023-07-05_16h16.42.189.csv,4,44,2,3,b,1,0,1,aud,C,63,1,2C,3C,1,0,b,2.37233220000053,1,0,1,1,2C,3C,C23,2.46809953147162,0.616928743891898,0.48234315811757,0.5,0.5,0.48234315811757,0.608716066638802,0.48234315811757,0.5,0.48234315811757,0.48234315811757,0.59701701100573,0.465309844365662,0.5,0.5,0.465309844365662,0.63821957176055,0.629957658339759,0.370042341660241,0.59701701100573,0.465309844365662,0.372855289432152,0.911144941099648,0.40298298899427,0.0142308138359619,0.5,0.0353136837648604,1.09993022267337,3.10784806419712,2.88114399421171,0.5,79.2963407022185
