ID,filename,session,trial,visStimLeft,visStimRight,correctKey,leftCorrect,rightCorrect,secondStim,mod2Type,mod2Stim,frequency,rewardAccurate,stimPairLeft,stimPairRight,pCorrectLeft,pCorrectRight,key,reactionTime,choiceLeft,choiceRight,choiceAccurate,reward,chosenPair,otherPair,triplet,surprise,0A belief,1A belief,2A belief,3A belief,0B belief,1B belief,2B belief,3B belief,0C belief,1C belief,2C belief,3C belief,0D belief,1D belief,2D belief,3D belief,beliefPairNorm,beliefOtherPairNorm,beliefPair,beliefOtherPair,lik,corrLik,rewardPE,update2,fitCBCsimpleRW_CBCdriftDiffusionLR_startBelief,fitCBCsimpleRW_CBCdriftDiffusionLR_alpha1,fitCBCsimpleRW_CBCdriftDiffusionLR_nonDecisionTime,fitCBCsimpleRW_CBCdriftDiffusionLR_weight,fitCBCsimpleRW_CBCdriftDiffusionLR_startingBoundary,fitCBCsimpleRW_CBCdriftDiffusionLR_startingPoint,fit_CBCsimpleRW_CBCdriftDiffusionLR_NLL
CBC_1138,CBC_1138_MSI_TV_v3_Vset4_Tset3_2024-07-24_14h19.30.560.csv,1,1,1,0,b,1,0,0,tac,B,63,1,1B,0B,1,0,z,2.54203879999932,0,1,0,0,0B,1B,B10,2.77258872223978,0.5,0.5,0.5,0.5,0.5,0.5,0.5,0.5,0.5,0.5,0.5,0.5,0.5,0.5,0.5,0.5,0.5,0.5,0.5,0.5,0.149437969792586,0.500518470112499,-0.5,-0.0103335413762609,0.5,0.0206670827525217,0.980000385354776,1.16016263503498,2.87901821272858,0.5,85.334813995918
CBC_1138,CBC_1138_MSI_TV_v3_Vset4_Tset3_2024-07-24_14h19.30.560.csv,1,2,1,0,z,0,1,3,tac,A,63,1,1A,0A,0,1,b,3.26751810000042,1,0,0,0,1A,0A,A10,2.83321334405622,0.5,0.5,0.5,0.5,0.489666458623739,0.5,0.5,0.5,0.5,0.5,0.5,0.5,0.5,0.5,0.5,0.5,0.5,0.5,0.5,0.5,0.0973430598203374,0.501307448298058,-0.5,-0.0103335413762609,0.5,0.0206670827525217,0.980000385354776,1.16016263503498,2.87901821272858,0.5,85.334813995918
CBC_1138,CBC_1138_MSI_TV_v3_Vset4_Tset3_2024-07-24_14h19.30.560.csv,1,3,3,2,b,1,0,1,tac,D,63,1,3D,2D,1,0,z,4.60145629999988,0,1,0,0,2D,3D,D32,2.89037175789616,0.5,0.489666458623739,0.5,0.5,0.489666458623739,0.5,0.5,0.5,0.5,0.5,0.5,0.5,0.5,0.5,0.5,0.5,0.5,0.5,0.5,0.5,0.0439300699919782,0.500545003710403,-0.5,-0.0103335413762609,0.5,0.0206670827525217,0.980000385354776,1.16016263503498,2.87901821272858,0.5,85.334813995918
CBC_1138,CBC_1138_MSI_TV_v3_Vset4_Tset3_2024-07-24_14h19.30.560.csv,1,4,1,2,b,1,0,0,tac,B,9,1,1B,2B,1,0,b,2.88597890000074,1,0,1,1,1B,2B,B12,2.94443897916644,0.5,0.489666458623739,0.5,0.5,0.489666458623739,0.5,0.5,0.5,0.5,0.5,0.5,0.5,0.5,0.5,0.489666458623739,0.5,0.5,0.5,0.5,0.5,0.121888114617287,0.50030321021639,0.5,0.0103335413762609,0.5,0.0206670827525217,0.980000385354776,1.16016263503498,2.87901821272858,0.5,85.334813995918
CBC_1138,CBC_1138_MSI_TV_v3_Vset4_Tset3_2024-07-24_14h19.30.560.csv,1,5,2,0,z,0,1,3,tac,A,27,1,2A,0A,0,1,z,4.34899229999974,0,1,1,1,0A,2A,A20,2.99573227355399,0.5,0.489666458623739,0.5,0.5,0.489666458623739,0.510333541376261,0.5,0.5,0.5,0.5,0.5,0.5,0.5,0.5,0.489666458623739,0.5,0.5,0.5,0.5,0.5,0.0509515666068015,0.499529481859458,0.5,0.0103335413762609,0.5,0.0206670827525217,0.980000385354776,1.16016263503498,2.87901821272858,0.5,85.334813995918
CBC_1138,CBC_1138_MSI_TV_v3_Vset4_Tset3_2024-07-24_14h19.30.560.csv,1,6,3,2,z,0,1,2,tac,C,63,1,3C,2C,0,1,b,3.25077090000013,1,0,0,0,3C,2C,C32,3.04452243772342,0.510333541376261,0.489666458623739,0.5,0.5,0.489666458623739,0.510333541376261,0.5,0.5,0.5,0.5,0.5,0.5,0.5,0.5,0.489666458623739,0.5,0.5,0.5,0.5,0.5,0.0984707402352514,0.50208631721694,-0.5,-0.0103335413762609,0.5,0.0206670827525217,0.980000385354776,1.16016263503498,2.87901821272858,0.5,85.334813995918
CBC_1138,CBC_1138_MSI_TV_v3_Vset4_Tset3_2024-07-24_14h19.30.560.csv,1,7,3,1,b,1,0,1,tac,D,27,1,3D,1D,1,0,z,3.06151529999988,0,1,0,0,1D,3D,D31,3.09104245335832,0.510333541376261,0.489666458623739,0.5,0.5,0.489666458623739,0.510333541376261,0.5,0.5,0.5,0.5,0.5,0.489666458623739,0.5,0.5,0.489666458623739,0.5,0.5,0.5,0.5,0.5,0.109846760229719,0.50045150679876,-0.5,-0.0103335413762609,0.5,0.0206670827525217,0.980000385354776,1.16016263503498,2.87901821272858,0.5,85.334813995918
CBC_1138,CBC_1138_MSI_TV_v3_Vset4_Tset3_2024-07-24_14h19.30.560.csv,1,8,0,1,b,1,0,3,tac,A,63,1,0A,1A,1,0,b,2.85472250000021,1,0,1,1,0A,1A,A01,3.13549421592915,0.510333541376261,0.489666458623739,0.5,0.5,0.489666458623739,0.510333541376261,0.5,0.5,0.5,0.5,0.5,0.489666458623739,0.5,0.489666458623739,0.489666458623739,0.5,0.510333541376261,0.489666458623739,0.510333541376261,0.489666458623739,0.128477368658969,0.517624768310796,0.489666458623739,0.0101199772215111,0.5,0.0206670827525217,0.980000385354776,1.16016263503498,2.87901821272858,0.5,85.334813995918
CBC_1138,CBC_1138_MSI_TV_v3_Vset4_Tset3_2024-07-24_14h19.30.560.csv,1,9,0,2,z,0,1,2,tac,C,27,1,0C,2C,0,1,z,3.46767470000032,0,1,1,1,2C,0C,C02,3.17805383034795,0.520453518597772,0.489666458623739,0.5,0.5,0.489666458623739,0.510333541376261,0.5,0.5,0.5,0.5,0.5,0.489666458623739,0.5,0.489666458623739,0.489666458623739,0.5,0.5,0.5,0.5,0.5,0.0861718625556196,0.499922398031658,0.5,0.0103335413762609,0.5,0.0206670827525217,0.980000385354776,1.16016263503498,2.87901821272858,0.5,85.334813995918
CBC_1138,CBC_1138_MSI_TV_v3_Vset4_Tset3_2024-07-24_14h19.30.560.csv,1,10,3,2,b,1,0,1,tac,D,63,1,3D,2D,1,0,z,3.48381919999974,0,1,0,0,2D,3D,D32,2.52572864430826,0.520453518597772,0.489666458623739,0.5,0.5,0.489666458623739,0.510333541376261,0.5,0.5,0.5,0.5,0.510333541376261,0.489666458623739,0.5,0.489666458623739,0.489666458623739,0.5,0.49477928079394,0.50522071920606,0.489666458623739,0.5,0.0837528743029112,0.490598824260482,-0.489666458623739,-0.0101199772215111,0.5,0.0206670827525217,0.980000385354776,1.16016263503498,2.87901821272858,0.5,85.334813995918
CBC_1138,CBC_1138_MSI_TV_v3_Vset4_Tset3_2024-07-24_14h19.30.560.csv,1,11,0,1,z,0,1,0,tac,B,63,1,0B,1B,0,1,b,3.56913359999999,1,0,0,0,0B,1B,B01,3.25809653802148,0.520453518597772,0.489666458623739,0.5,0.5,0.489666458623739,0.510333541376261,0.5,0.5,0.5,0.5,0.510333541376261,0.489666458623739,0.5,0.489666458623739,0.479546481402228,0.5,0.489666458623739,0.510333541376261,0.489666458623739,0.510333541376261,0.0781605294553842,0.481755564732492,-0.489666458623739,-0.0101199772215111,0.5,0.0206670827525217,0.980000385354776,1.16016263503498,2.87901821272858,0.5,85.334813995918
CBC_1138,CBC_1138_MSI_TV_v3_Vset4_Tset3_2024-07-24_14h19.30.560.csv,1,12,1,0,z,0,1,3,tac,A,63,1,1A,0A,0,1,z,2.41702600000008,0,1,1,1,0A,1A,A10,2.60268968544438,0.520453518597772,0.489666458623739,0.5,0.5,0.479546481402228,0.510333541376261,0.5,0.5,0.5,0.5,0.510333541376261,0.489666458623739,0.5,0.489666458623739,0.479546481402228,0.5,0.515239308531803,0.484760691468197,0.520453518597772,0.489666458623739,0.16865913056283,0.52493344649535,0.479546481402228,0.00991082681482046,0.5,0.0206670827525217,0.980000385354776,1.16016263503498,2.87901821272858,0.5,85.334813995918
CBC_1138,CBC_1138_MSI_TV_v3_Vset4_Tset3_2024-07-24_14h19.30.560.csv,1,13,3,2,b,1,0,1,tac,D,63,1,3D,2D,1,0,z,3.91802020000068,0,1,0,0,2D,3D,D32,2.23359222150709,0.530364345412592,0.489666458623739,0.5,0.5,0.479546481402228,0.510333541376261,0.5,0.5,0.5,0.5,0.510333541376261,0.489666458623739,0.5,0.489666458623739,0.479546481402228,0.5,0.489559699827367,0.510440300172633,0.479546481402228,0.5,0.0634836270447346,0.481676027823483,-0.479546481402228,-0.00991082681482046,0.5,0.0206670827525217,0.980000385354776,1.16016263503498,2.87901821272858,0.5,85.334813995918
CBC_1138,CBC_1138_MSI_TV_v3_Vset4_Tset3_2024-07-24_14h19.30.560.csv,1,14,0,2,z,0,1,2,tac,C,27,1,0C,2C,NaN,NaN,None,NaN,NaN,NaN,NaN,NaN,,,C02,2.67414864942653,0.530364345412592,0.489666458623739,0.5,0.5,0.479546481402228,0.510333541376261,0.5,0.5,0.5,0.5,0.510333541376261,0.489666458623739,0.5,0.489666458623739,0.469635654587408,0.5,0,0,0,0,NaN,0,0,0,0.5,0.0206670827525217,0.980000385354776,1.16016263503498,2.87901821272858,0.5,85.334813995918
CBC_1138,CBC_1138_MSI_TV_v3_Vset4_Tset3_2024-07-24_14h19.30.560.csv,1,15,1,0,z,0,1,3,tac,A,63,1,1A,0A,0,1,z,1.31790739999997,0,1,1,1,0A,1A,A10,2.30258509299405,0.530364345412592,0.489666458623739,0.5,0.5,0.479546481402228,0.510333541376261,0.5,0.5,0.5,0.5,0.510333541376261,0.489666458623739,0.5,0.489666458623739,0.469635654587408,0.5,0.5199493420335,0.4800506579665,0.530364345412592,0.489666458623739,0.145664302029141,0.533592442283064,0.469635654587408,0.00970599893689266,0.5,0.0206670827525217,0.980000385354776,1.16016263503498,2.87901821272858,0.5,85.334813995918
CBC_1138,CBC_1138_MSI_TV_v3_Vset4_Tset3_2024-07-24_14h19.30.560.csv,1,16,3,1,z,0,1,0,tac,B,27,1,3B,1B,0,1,z,4.0468848999999,0,1,1,1,1B,3B,B31,3.43398720448515,0.540070344349485,0.489666458623739,0.5,0.5,0.479546481402228,0.510333541376261,0.5,0.5,0.5,0.5,0.510333541376261,0.489666458623739,0.5,0.489666458623739,0.469635654587408,0.5,0.505113925725055,0.494886074274945,0.510333541376261,0.5,0.0620915537003869,0.508573239857951,0.489666458623739,0.0101199772215111,0.5,0.0206670827525217,0.980000385354776,1.16016263503498,2.87901821272858,0.5,85.334813995918
CBC_1138,CBC_1138_MSI_TV_v3_Vset4_Tset3_2024-07-24_14h19.30.560.csv,1,17,2,3,b,1,0,2,tac,C,63,1,2C,3C,1,0,z,2.56452720000016,0,1,0,0,3C,2C,C23,3.46573590279973,0.540070344349485,0.489666458623739,0.5,0.5,0.479546481402228,0.520453518597772,0.5,0.5,0.5,0.5,0.510333541376261,0.489666458623739,0.5,0.489666458623739,0.469635654587408,0.5,0.489666458623739,0.510333541376261,0.489666458623739,0.510333541376261,0.142319702301155,0.482949364251922,-0.489666458623739,-0.0101199772215111,0.5,0.0206670827525217,0.980000385354776,1.16016263503498,2.87901821272858,0.5,85.334813995918
CBC_1138,CBC_1138_MSI_TV_v3_Vset4_Tset3_2024-07-24_14h19.30.560.csv,1,18,3,2,b,1,0,1,tac,D,63,0,3D,2D,0,1,z,2.71011899999939,0,1,0,1,2D,3D,D32,2.11021320034659,0.540070344349485,0.489666458623739,0.5,0.5,0.479546481402228,0.520453518597772,0.5,0.5,0.5,0.5,0.510333541376261,0.479546481402228,0.5,0.489666458623739,0.469635654587408,0.5,0.484342394347332,0.515657605652668,0.469635654587408,0.5,0.128149020137834,0.473819976892774,0.530364345412592,0.0109610838156291,0.5,0.0206670827525217,0.980000385354776,1.16016263503498,2.87901821272858,0.5,85.334813995918
CBC_1138,CBC_1138_MSI_TV_v3_Vset4_Tset3_2024-07-24_14h19.30.560.csv,1,19,0,1,z,0,1,0,tac,B,63,1,0B,1B,0,1,b,1.53533960000004,1,0,0,0,0B,1B,B01,2.83321334405622,0.540070344349485,0.489666458623739,0.5,0.5,0.479546481402228,0.520453518597772,0.5,0.5,0.5,0.5,0.510333541376261,0.479546481402228,0.5,0.489666458623739,0.480596738403037,0.5,0.479546481402228,0.520453518597772,0.479546481402228,0.520453518597772,0.200083355030306,0.464911935808001,-0.479546481402228,-0.00991082681482046,0.5,0.0206670827525217,0.980000385354776,1.16016263503498,2.87901821272858,0.5,85.334813995918
CBC_1138,CBC_1138_MSI_TV_v3_Vset4_Tset3_2024-07-24_14h19.30.560.csv,1,20,0,2,b,1,0,3,tac,A,27,1,0A,2A,1,0,z,4.67721309999979,0,1,0,0,2A,0A,A02,3.55534806148941,0.540070344349485,0.489666458623739,0.5,0.5,0.469635654587408,0.520453518597772,0.5,0.5,0.5,0.5,0.510333541376261,0.479546481402228,0.5,0.489666458623739,0.480596738403037,0.5,0.480736714315921,0.519263285684079,0.5,0.540070344349485,0.0391053963986056,0.466931642131689,-0.5,-0.0103335413762609,0.5,0.0206670827525217,0.980000385354776,1.16016263503498,2.87901821272858,0.5,85.334813995918
CBC_1138,CBC_1138_MSI_TV_v3_Vset4_Tset3_2024-07-24_14h19.30.560.csv,1,21,3,0,b,1,0,1,tac,D,9,1,3D,0D,1,0,b,3.2060449999999,1,0,1,1,3D,0D,D30,3.58351893845611,0.540070344349485,0.489666458623739,0.489666458623739,0.5,0.469635654587408,0.520453518597772,0.5,0.5,0.5,0.5,0.510333541376261,0.479546481402228,0.5,0.489666458623739,0.480596738403037,0.5,0.5,0.5,0.5,0.5,0.100820054965915,0.500563931417041,0.5,0.0103335413762609,0.5,0.0206670827525217,0.980000385354776,1.16016263503498,2.87901821272858,0.5,85.334813995918
CBC_1138,CBC_1138_MSI_TV_v3_Vset4_Tset3_2024-07-24_14h19.30.560.csv,1,22,3,2,z,0,1,2,tac,C,63,1,3C,2C,0,1,z,3.14282590000039,0,1,1,1,2C,3C,C32,2.91777073208428,0.540070344349485,0.489666458623739,0.489666458623739,0.5,0.469635654587408,0.520453518597772,0.5,0.5,0.5,0.5,0.510333541376261,0.479546481402228,0.5,0.489666458623739,0.480596738403037,0.510333541376261,0.515550904789258,0.484449095210742,0.510333541376261,0.479546481402228,0.1098518039933,0.525302783110295,0.489666458623739,0.0101199772215111,0.5,0.0206670827525217,0.980000385354776,1.16016263503498,2.87901821272858,0.5,85.334813995918
CBC_1138,CBC_1138_MSI_TV_v3_Vset4_Tset3_2024-07-24_14h19.30.560.csv,1,23,1,3,b,1,0,0,tac,B,27,1,1B,3B,1,0,z,2.91883169999983,0,1,0,0,3B,1B,B13,3.63758615972639,0.540070344349485,0.489666458623739,0.489666458623739,0.5,0.469635654587408,0.520453518597772,0.5,0.5,0.5,0.5,0.520453518597772,0.479546481402228,0.5,0.489666458623739,0.480596738403037,0.510333541376261,0.489978221337373,0.510021778662627,0.5,0.520453518597772,0.115399449678053,0.482983697137651,-0.5,-0.0103335413762609,0.5,0.0206670827525217,0.980000385354776,1.16016263503498,2.87901821272858,0.5,85.334813995918
CBC_1138,CBC_1138_MSI_TV_v3_Vset4_Tset3_2024-07-24_14h19.30.560.csv,1,24,2,3,b,1,0,2,tac,C,63,1,2C,3C,1,0,b,2.78742560000046,1,0,1,1,2C,3C,C23,2.9704144655697,0.540070344349485,0.489666458623739,0.489666458623739,0.5,0.469635654587408,0.520453518597772,0.5,0.489666458623739,0.5,0.5,0.520453518597772,0.479546481402228,0.5,0.489666458623739,0.480596738403037,0.510333541376261,0.520453518597772,0.479546481402228,0.520453518597772,0.479546481402228,0.137948024353638,0.533908894527294,0.479546481402228,0.00991082681482046,0.5,0.0206670827525217,0.980000385354776,1.16016263503498,2.87901821272858,0.5,85.334813995918
CBC_1138,CBC_1138_MSI_TV_v3_Vset4_Tset3_2024-07-24_14h19.30.560.csv,1,25,3,2,b,1,0,1,tac,D,63,1,3D,2D,1,0,z,3.15834099999938,0,1,0,0,2D,3D,D32,2.07944154167984,0.540070344349485,0.489666458623739,0.489666458623739,0.5,0.469635654587408,0.520453518597772,0.5,0.489666458623739,0.5,0.5,0.530364345412592,0.479546481402228,0.5,0.489666458623739,0.480596738403037,0.510333541376261,0.48499551200522,0.51500448799478,0.480596738403037,0.510333541376261,0.0982970583097415,0.47441275861302,-0.480596738403037,-0.00993253256316759,0.5,0.0206670827525217,0.980000385354776,1.16016263503498,2.87901821272858,0.5,85.334813995918
CBC_1138,CBC_1138_MSI_TV_v3_Vset4_Tset3_2024-07-24_14h19.30.560.csv,1,26,0,1,z,0,1,0,tac,B,63,1,0B,1B,0,1,b,3.00308880000011,1,0,0,0,0B,1B,B01,2.6149597780362,0.540070344349485,0.489666458623739,0.489666458623739,0.5,0.469635654587408,0.520453518597772,0.5,0.489666458623739,0.5,0.5,0.530364345412592,0.479546481402228,0.5,0.489666458623739,0.470664205839869,0.510333541376261,0.474336723707987,0.525663276292013,0.469635654587408,0.520453518597772,0.103524793930313,0.455506152038088,-0.469635654587408,-0.00970599893689266,0.5,0.0206670827525217,0.980000385354776,1.16016263503498,2.87901821272858,0.5,85.334813995918
CBC_1138,CBC_1138_MSI_TV_v3_Vset4_Tset3_2024-07-24_14h19.30.560.csv,1,27,3,0,z,0,1,3,tac,A,9,1,3A,0A,0,1,z,3.10505550000016,0,1,1,1,0A,3A,A30,3.73766961828337,0.540070344349485,0.489666458623739,0.489666458623739,0.5,0.459929655650515,0.520453518597772,0.5,0.489666458623739,0.5,0.5,0.530364345412592,0.479546481402228,0.5,0.489666458623739,0.470664205839869,0.510333541376261,0.519263285684079,0.480736714315921,0.540070344349485,0.5,0.114070696700291,0.533359553464172,0.459929655650515,0.00950540425366801,0.5,0.0206670827525217,0.980000385354776,1.16016263503498,2.87901821272858,0.5,85.334813995918
CBC_1138,CBC_1138_MSI_TV_v3_Vset4_Tset3_2024-07-24_14h19.30.560.csv,1,28,3,2,b,1,0,1,tac,D,63,1,3D,2D,1,0,z,2.65322800000013,0,1,0,0,2D,3D,D32,1.96944064646551,0.549575748603153,0.489666458623739,0.489666458623739,0.5,0.459929655650515,0.520453518597772,0.5,0.489666458623739,0.5,0.5,0.530364345412592,0.479546481402228,0.5,0.489666458623739,0.470664205839869,0.510333541376261,0.479781128117284,0.520218871882716,0.470664205839869,0.510333541376261,0.130595766902095,0.466808202448715,-0.470664205839869,-0.00972725609074249,0.5,0.0206670827525217,0.980000385354776,1.16016263503498,2.87901821272858,0.5,85.334813995918
CBC_1138,CBC_1138_MSI_TV_v3_Vset4_Tset3_2024-07-24_14h19.30.560.csv,1,29,0,2,z,0,1,2,tac,C,27,1,0C,2C,0,1,b,2.57407370000055,1,0,0,0,0C,2C,C02,2.68557734525015,0.549575748603153,0.489666458623739,0.489666458623739,0.5,0.459929655650515,0.520453518597772,0.5,0.489666458623739,0.5,0.5,0.530364345412592,0.479546481402228,0.5,0.489666458623739,0.460936949749127,0.510333541376261,0.485265238676114,0.514734761323886,0.5,0.530364345412592,0.138966560645082,0.474143825079344,-0.5,-0.0103335413762609,0.5,0.0206670827525217,0.980000385354776,1.16016263503498,2.87901821272858,0.5,85.334813995918
CBC_1138,CBC_1138_MSI_TV_v3_Vset4_Tset3_2024-07-24_14h19.30.560.csv,1,30,0,1,b,1,0,3,tac,A,63,1,0A,1A,NaN,NaN,None,NaN,NaN,NaN,NaN,NaN,,,A01,3.11351530921037,0.549575748603153,0.489666458623739,0.489666458623739,0.5,0.459929655650515,0.520453518597772,0.5,0.489666458623739,0.489666458623739,0.5,0.530364345412592,0.479546481402228,0.5,0.489666458623739,0.460936949749127,0.510333541376261,0,0,0,0,NaN,0,0,0,0.5,0.0206670827525217,0.980000385354776,1.16016263503498,2.87901821272858,0.5,85.334813995918
CBC_1138,CBC_1138_MSI_TV_v3_Vset4_Tset3_2024-07-24_14h19.30.560.csv,1,31,0,1,z,0,1,0,tac,B,63,1,0B,1B,NaN,NaN,None,NaN,NaN,NaN,NaN,NaN,,,B01,2.4423470353692,0.549575748603153,0.489666458623739,0.489666458623739,0.5,0.459929655650515,0.520453518597772,0.5,0.489666458623739,0.489666458623739,0.5,0.530364345412592,0.479546481402228,0.5,0.489666458623739,0.460936949749127,0.510333541376261,0,0,0,0,NaN,0,0,0,0.5,0.0206670827525217,0.980000385354776,1.16016263503498,2.87901821272858,0.5,85.334813995918
CBC_1138,CBC_1138_MSI_TV_v3_Vset4_Tset3_2024-07-24_14h19.30.560.csv,1,32,1,3,z,0,1,1,tac,D,27,1,1D,3D,0,1,z,2.58165650000046,0,1,1,1,3D,1D,D13,3.85014760171006,0.549575748603153,0.489666458623739,0.489666458623739,0.5,0.459929655650515,0.520453518597772,0.5,0.489666458623739,0.489666458623739,0.5,0.530364345412592,0.479546481402228,0.5,0.489666458623739,0.460936949749127,0.510333541376261,0.510333541376261,0.489666458623739,0.510333541376261,0.489666458623739,0.150781515396151,0.516848379203003,0.489666458623739,0.0101199772215111,0.5,0.0206670827525217,0.980000385354776,1.16016263503498,2.87901821272858,0.5,85.334813995918
CBC_1138,CBC_1138_MSI_TV_v3_Vset4_Tset3_2024-07-24_14h19.30.560.csv,1,33,2,3,b,1,0,2,tac,C,63,1,2C,3C,NaN,NaN,None,NaN,NaN,NaN,NaN,NaN,,,C23,2.77258872223978,0.549575748603153,0.489666458623739,0.489666458623739,0.5,0.459929655650515,0.520453518597772,0.5,0.489666458623739,0.489666458623739,0.5,0.530364345412592,0.479546481402228,0.5,0.489666458623739,0.460936949749127,0.520453518597772,0,0,0,0,NaN,0,0,0,0.5,0.0206670827525217,0.980000385354776,1.16016263503498,2.87901821272858,0.5,85.334813995918
CBC_1138,CBC_1138_MSI_TV_v3_Vset4_Tset3_2024-07-24_14h19.30.560.csv,1,34,0,1,z,0,1,0,tac,B,63,1,0B,1B,0,1,z,1.33352829999967,0,1,1,1,1B,0B,B01,2.28238238567653,0.549575748603153,0.489666458623739,0.489666458623739,0.5,0.459929655650515,0.520453518597772,0.5,0.489666458623739,0.489666458623739,0.5,0.530364345412592,0.479546481402228,0.5,0.489666458623739,0.460936949749127,0.520453518597772,0.530867452918939,0.469132547081062,0.520453518597772,0.459929655650515,0.161743834277928,0.552243212152994,0.479546481402228,0.00991082681482046,0.5,0.0206670827525217,0.980000385354776,1.16016263503498,2.87901821272858,0.5,85.334813995918
CBC_1138,CBC_1138_MSI_TV_v3_Vset4_Tset3_2024-07-24_14h19.30.560.csv,1,35,1,0,z,0,1,3,tac,A,63,1,1A,0A,NaN,NaN,None,NaN,NaN,NaN,NaN,NaN,,,A10,2.52572864430826,0.549575748603153,0.489666458623739,0.489666458623739,0.5,0.459929655650515,0.530364345412592,0.5,0.489666458623739,0.489666458623739,0.5,0.530364345412592,0.479546481402228,0.5,0.489666458623739,0.460936949749127,0.520453518597772,0,0,0,0,NaN,0,0,0,0.5,0.0206670827525217,0.980000385354776,1.16016263503498,2.87901821272858,0.5,85.334813995918
CBC_1138,CBC_1138_MSI_TV_v3_Vset4_Tset3_2024-07-24_14h19.30.560.csv,1,36,2,1,b,1,0,2,tac,C,9,1,2C,1C,1,0,z,1.23780850000003,0,1,0,0,1C,2C,C21,3.93182563272433,0.549575748603153,0.489666458623739,0.489666458623739,0.5,0.459929655650515,0.530364345412592,0.5,0.489666458623739,0.489666458623739,0.5,0.530364345412592,0.479546481402228,0.5,0.489666458623739,0.460936949749127,0.520453518597772,0.485265238676114,0.514734761323886,0.5,0.530364345412592,0.074936734700395,0.474636951095908,-0.5,-0.0103335413762609,0.5,0.0206670827525217,0.980000385354776,1.16016263503498,2.87901821272858,0.5,85.334813995918
CBC_1138,CBC_1138_MSI_TV_v3_Vset4_Tset3_2024-07-24_14h19.30.560.csv,1,37,0,1,b,1,0,3,tac,A,63,1,0A,1A,1,0,b,2.73720570000023,1,0,1,1,0A,1A,A01,2.85263142991332,0.549575748603153,0.489666458623739,0.489666458623739,0.5,0.459929655650515,0.530364345412592,0.5,0.489666458623739,0.489666458623739,0.489666458623739,0.530364345412592,0.479546481402228,0.5,0.489666458623739,0.460936949749127,0.520453518597772,0.52882354544629,0.47117645455371,0.549575748603153,0.489666458623739,0.145765581849007,0.547416072243087,0.450424251396847,0.00930895527736128,0.5,0.0206670827525217,0.980000385354776,1.16016263503498,2.87901821272858,0.5,85.334813995918
CBC_1138,CBC_1138_MSI_TV_v3_Vset4_Tset3_2024-07-24_14h19.30.560.csv,1,38,1,3,z,0,1,1,tac,D,27,1,1D,3D,0,1,z,2.49020070000006,0,1,1,1,3D,1D,D13,3.27714473299218,0.558884703880514,0.489666458623739,0.489666458623739,0.5,0.459929655650515,0.530364345412592,0.5,0.489666458623739,0.489666458623739,0.489666458623739,0.530364345412592,0.479546481402228,0.5,0.489666458623739,0.460936949749127,0.520453518597772,0.515239308531803,0.484760691468197,0.520453518597772,0.489666458623739,0.16185729024445,0.52571104655429,0.479546481402228,0.00991082681482046,0.5,0.0206670827525217,0.980000385354776,1.16016263503498,2.87901821272858,0.5,85.334813995918
CBC_1138,CBC_1138_MSI_TV_v3_Vset4_Tset3_2024-07-24_14h19.30.560.csv,1,39,1,0,b,1,0,0,tac,B,63,1,1B,0B,1,0,z,2.7134672000002,0,1,0,0,0B,1B,B10,3.29583686600433,0.558884703880514,0.489666458623739,0.489666458623739,0.5,0.459929655650515,0.530364345412592,0.5,0.489666458623739,0.489666458623739,0.489666458623739,0.530364345412592,0.479546481402228,0.5,0.489666458623739,0.460936949749127,0.530364345412592,0.464437485389963,0.535562514610037,0.459929655650515,0.530364345412592,0.118985492063559,0.440401537592909,-0.459929655650515,-0.00950540425366801,0.5,0.0206670827525217,0.980000385354776,1.16016263503498,2.87901821272858,0.5,85.334813995918
CBC_1138,CBC_1138_MSI_TV_v3_Vset4_Tset3_2024-07-24_14h19.30.560.csv,1,40,3,2,z,0,1,2,tac,C,63,0,3C,2C,1,0,z,3.86152480000055,0,1,1,0,2C,3C,C32,2.90872089656436,0.558884703880514,0.489666458623739,0.489666458623739,0.5,0.450424251396847,0.530364345412592,0.5,0.489666458623739,0.489666458623739,0.489666458623739,0.530364345412592,0.479546481402228,0.5,0.489666458623739,0.460936949749127,0.530364345412592,0.525159579767374,0.474840420232626,0.530364345412592,0.479546481402228,0.0737325065892897,0.541517137833023,-0.530364345412592,-0.0109610838156291,0.5,0.0206670827525217,0.980000385354776,1.16016263503498,2.87901821272858,0.5,85.334813995918
CBC_1138,CBC_1138_MSI_TV_v3_Vset4_Tset3_2024-07-24_14h19.30.560.csv,1,41,0,2,b,1,0,3,tac,A,27,1,0A,2A,1,0,b,3.11407000000054,1,0,1,1,0A,2A,A02,3.3322045101752,0.558884703880514,0.489666458623739,0.489666458623739,0.5,0.450424251396847,0.530364345412592,0.5,0.489666458623739,0.489666458623739,0.489666458623739,0.519403261596963,0.479546481402228,0.5,0.489666458623739,0.460936949749127,0.530364345412592,0.533006613187792,0.466993386812208,0.558884703880514,0.489666458623739,0.11764818428045,0.553111585321968,0.441115296119486,0.00911656632830453,0.5,0.0206670827525217,0.980000385354776,1.16016263503498,2.87901821272858,0.5,85.334813995918
CBC_1138,CBC_1138_MSI_TV_v3_Vset4_Tset3_2024-07-24_14h19.30.560.csv,1,42,2,3,z,0,1,1,tac,D,63,1,2D,3D,0,1,z,3.26742390000072,0,1,1,1,3D,2D,D23,4.04305126783455,0.568001270208819,0.489666458623739,0.489666458623739,0.5,0.450424251396847,0.530364345412592,0.5,0.489666458623739,0.489666458623739,0.489666458623739,0.519403261596963,0.479546481402228,0.5,0.489666458623739,0.460936949749127,0.530364345412592,0.535018311789928,0.464981688210072,0.530364345412592,0.460936949749127,0.108438176186289,0.558829160340811,0.469635654587408,0.00970599893689266,0.5,0.0206670827525217,0.980000385354776,1.16016263503498,2.87901821272858,0.5,85.334813995918
CBC_1138,CBC_1138_MSI_TV_v3_Vset4_Tset3_2024-07-24_14h19.30.560.csv,1,43,1,3,b,1,0,0,tac,B,27,1,1B,3B,1,0,z,2.93508560000009,0,1,0,0,3B,1B,B13,3.36729582998647,0.568001270208819,0.489666458623739,0.489666458623739,0.5,0.450424251396847,0.530364345412592,0.5,0.489666458623739,0.489666458623739,0.489666458623739,0.519403261596963,0.479546481402228,0.5,0.489666458623739,0.460936949749127,0.540070344349485,0.4800506579665,0.5199493420335,0.489666458623739,0.530364345412592,0.110540234706268,0.467095645371581,-0.489666458623739,-0.0101199772215111,0.5,0.0206670827525217,0.980000385354776,1.16016263503498,2.87901821272858,0.5,85.334813995918
CBC_1138,CBC_1138_MSI_TV_v3_Vset4_Tset3_2024-07-24_14h19.30.560.csv,1,44,3,2,z,0,1,2,tac,C,63,1,3C,2C,NaN,NaN,None,NaN,NaN,NaN,NaN,NaN,,,C32,2.69124308278583,0.568001270208819,0.489666458623739,0.489666458623739,0.5,0.450424251396847,0.530364345412592,0.5,0.479546481402228,0.489666458623739,0.489666458623739,0.519403261596963,0.479546481402228,0.5,0.489666458623739,0.460936949749127,0.540070344349485,0,0,0,0,NaN,0,0,0,0.5,0.0206670827525217,0.980000385354776,1.16016263503498,2.87901821272858,0.5,85.334813995918
CBC_1138,CBC_1138_MSI_AV_v3_Vset6_Aset2_2024-07-24_15h15.32.121.csv,2,1,0,1,b,1,0,3,aud,A,63,1,0A,1A,1,0,z,2.01357940000162,0,1,0,0,1A,0A,A01,2.77258872223978,0.5,0.5,0.5,0.5,0.5,0.5,0.5,0.5,0.5,0.5,0.5,0.5,0.5,0.5,0.5,0.5,0.5,0.5,0.5,0.5,0.218814920821188,0.500991775863774,-0.5,-0.5,0.5,1,1.09952077138407,0.0222949375106766,2.80278382225695,0.5,81.5838040447807
CBC_1138,CBC_1138_MSI_AV_v3_Vset6_Aset2_2024-07-24_15h15.32.121.csv,2,2,3,2,z,0,1,2,aud,C,63,1,3C,2C,0,1,b,2.22022199999992,1,0,0,0,3C,2C,C32,2.83321334405622,0.5,0,0.5,0.5,0.5,0.5,0.5,0.5,0.5,0.5,0.5,0.5,0.5,0.5,0.5,0.5,0.5,0.5,0.5,0.5,0.195758792650971,0.500219000437225,-0.5,-0.5,0.5,1,1.09952077138407,0.0222949375106766,2.80278382225695,0.5,81.5838040447807
CBC_1138,CBC_1138_MSI_AV_v3_Vset6_Aset2_2024-07-24_15h15.32.121.csv,2,3,0,2,b,1,0,3,aud,A,27,1,0A,2A,1,0,z,2.46387970000069,0,1,0,0,2A,0A,A02,2.89037175789616,0.5,0,0.5,0.5,0.5,0.5,0.5,0.5,0.5,0.5,0.5,0,0.5,0.5,0.5,0.5,0.5,0.5,0.5,0.5,0.169054283758174,0.499599675162307,-0.5,-0.5,0.5,1,1.09952077138407,0.0222949375106766,2.80278382225695,0.5,81.5838040447807
CBC_1138,CBC_1138_MSI_AV_v3_Vset6_Aset2_2024-07-24_15h15.32.121.csv,2,4,1,0,b,1,0,0,aud,B,63,1,1B,0B,1,0,z,2.47070970000095,0,1,0,0,0B,1B,B10,2.94443897916644,0.5,0,0,0.5,0.5,0.5,0.5,0.5,0.5,0.5,0.5,0,0.5,0.5,0.5,0.5,0.5,0.5,0.5,0.5,0.168622452119773,0.500412682326854,-0.5,-0.5,0.5,1,1.09952077138407,0.0222949375106766,2.80278382225695,0.5,81.5838040447807
CBC_1138,CBC_1138_MSI_AV_v3_Vset6_Aset2_2024-07-24_15h15.32.121.csv,2,5,0,1,z,0,1,0,aud,B,63,1,0B,1B,0,1,z,2.73268100000132,0,1,1,1,1B,0B,B01,2.99573227355399,0.5,0,0,0.5,0,0.5,0.5,0.5,0.5,0.5,0.5,0,0.5,0.5,0.5,0.5,1,0,0.5,0,0.14752362593736,0.514921550836689,0.5,0.5,0.5,1,1.09952077138407,0.0222949375106766,2.80278382225695,0.5,81.5838040447807
CBC_1138,CBC_1138_MSI_AV_v3_Vset6_Aset2_2024-07-24_15h15.32.121.csv,2,6,3,2,z,0,1,2,aud,C,63,1,3C,2C,0,1,z,1.85247570000138,0,1,1,1,2C,3C,C32,2.35137525716348,0.5,0,0,0.5,0,1,0.5,0.5,0.5,0.5,0.5,0,0.5,0.5,0.5,0.5,1,0,0.5,0,0.239928796388768,0.51642307929685,0.5,0.5,0.5,1,1.09952077138407,0.0222949375106766,2.80278382225695,0.5,81.5838040447807
CBC_1138,CBC_1138_MSI_AV_v3_Vset6_Aset2_2024-07-24_15h15.32.121.csv,2,7,3,1,b,1,0,1,aud,D,27,1,3D,1D,1,0,z,2.90107560000069,0,1,0,0,1D,3D,D31,3.09104245335832,0.5,0,0,0.5,0,1,0.5,0.5,0.5,0.5,1,0,0.5,0.5,0.5,0.5,0.5,0.5,0.5,0.5,0.128841428847135,0.499696062585975,-0.5,-0.5,0.5,1,1.09952077138407,0.0222949375106766,2.80278382225695,0.5,81.5838040447807
CBC_1138,CBC_1138_MSI_AV_v3_Vset6_Aset2_2024-07-24_15h15.32.121.csv,2,8,1,2,z,0,1,2,aud,C,9,1,1C,2C,0,1,b,2.13194470000053,1,0,0,0,1C,2C,C12,3.13549421592915,0.5,0,0,0.5,0,1,0.5,0.5,0.5,0.5,1,0,0.5,0,0.5,0.5,0.333333333333333,0.666666666666667,0.5,1,0.20344022297128,0.494791265573625,-0.5,-0.5,0.5,1,1.09952077138407,0.0222949375106766,2.80278382225695,0.5,81.5838040447807
CBC_1138,CBC_1138_MSI_AV_v3_Vset6_Aset2_2024-07-24_15h15.32.121.csv,2,9,3,1,z,0,1,0,aud,B,27,1,3B,1B,0,1,z,2.99375650000002,0,1,1,1,1B,3B,B31,3.17805383034795,0.5,0,0,0.5,0,1,0.5,0.5,0.5,0,1,0,0.5,0,0.5,0.5,0.666666666666667,0.333333333333333,1,0.5,0.122879123356242,0.505075246215344,0,0,0.5,1,1.09952077138407,0.0222949375106766,2.80278382225695,0.5,81.5838040447807
CBC_1138,CBC_1138_MSI_AV_v3_Vset6_Aset2_2024-07-24_15h15.32.121.csv,2,10,3,2,b,1,0,1,aud,D,63,1,3D,2D,1,0,z,2.91846520000036,0,1,0,0,2D,3D,D32,3.2188758248682,0.5,0,0,0.5,0,1,0.5,0.5,0.5,0,1,0,0.5,0,0.5,0.5,0.5,0.5,0.5,0.5,0.127644749982281,0.50047778443143,-0.5,-0.5,0.5,1,1.09952077138407,0.0222949375106766,2.80278382225695,0.5,81.5838040447807
CBC_1138,CBC_1138_MSI_AV_v3_Vset6_Aset2_2024-07-24_15h15.32.121.csv,2,11,1,0,b,1,0,0,aud,B,63,1,1B,0B,1,0,z,2.32547790000172,0,1,0,0,0B,1B,B10,2.56494935746154,0.5,0,0,0.5,0,1,0.5,0.5,0.5,0,1,0,0.5,0,0,0.5,0,1,0,1,0.178700149410602,0.485600312186274,0,0,0.5,1,1.09952077138407,0.0222949375106766,2.80278382225695,0.5,81.5838040447807
CBC_1138,CBC_1138_MSI_AV_v3_Vset6_Aset2_2024-07-24_15h15.32.121.csv,2,12,0,2,z,0,1,2,aud,C,27,1,0C,2C,0,1,b,2.54503180000029,1,0,0,0,0C,2C,C02,3.29583686600433,0.5,0,0,0.5,0,1,0.5,0.5,0.5,0,1,0,0.5,0,0,0.5,0.333333333333333,0.666666666666667,0.5,1,0.159027765575986,0.494015011491616,-0.5,-0.5,0.5,1,1.09952077138407,0.0222949375106766,2.80278382225695,0.5,81.5838040447807
CBC_1138,CBC_1138_MSI_AV_v3_Vset6_Aset2_2024-07-24_15h15.32.121.csv,2,13,3,2,b,1,0,1,aud,D,63,0,3D,2D,0,1,z,2.73971979999988,0,1,0,1,2D,3D,D32,2.63905732961526,0.5,0,0,0.5,0,1,0.5,0.5,0,0,1,0,0.5,0,0,0.5,0,1,0,0.5,0.138169273523565,0.484391622198496,1,1,0.5,1,1.09952077138407,0.0222949375106766,2.80278382225695,0.5,81.5838040447807
CBC_1138,CBC_1138_MSI_AV_v3_Vset6_Aset2_2024-07-24_15h15.32.121.csv,2,14,1,0,z,0,1,3,aud,A,63,1,1A,0A,0,1,z,2.72608059999948,0,1,1,1,0A,1A,A10,3.36729582998647,0.5,0,0,0.5,0,1,0.5,0.5,0,0,1,0,0.5,0,1,0.5,1,0,0.5,0,0.148203950950629,0.515167894443012,0.5,0.5,0.5,1,1.09952077138407,0.0222949375106766,2.80278382225695,0.5,81.5838040447807
CBC_1138,CBC_1138_MSI_AV_v3_Vset6_Aset2_2024-07-24_15h15.32.121.csv,2,15,2,3,b,1,0,2,aud,C,63,1,2C,3C,1,0,z,2.0644269000004,0,1,0,0,3C,2C,C23,3.40119738166216,1,0,0,0.5,0,1,0.5,0.5,0,0,1,0,0.5,0,1,0.5,0,1,0,1,0.206436659226187,0.484454706706007,0,0,0.5,1,1.09952077138407,0.0222949375106766,2.80278382225695,0.5,81.5838040447807
CBC_1138,CBC_1138_MSI_AV_v3_Vset6_Aset2_2024-07-24_15h15.32.121.csv,2,16,0,2,b,1,0,3,aud,A,27,1,0A,2A,1,0,z,3.14286210000137,0,1,0,0,2A,0A,A02,2.7408400239252,1,0,0,0.5,0,1,0.5,0.5,0,0,1,0,0.5,0,1,0.5,0,1,0,1,0.10709296184891,0.483368001452794,0,0,0.5,1,1.09952077138407,0.0222949375106766,2.80278382225695,0.5,81.5838040447807
CBC_1138,CBC_1138_MSI_AV_v3_Vset6_Aset2_2024-07-24_15h15.32.121.csv,2,17,2,3,z,0,1,1,aud,D,63,1,2D,3D,0,1,b,2.96486340000047,1,0,0,0,2D,3D,D23,3.46573590279973,1,0,0,0.5,0,1,0.5,0.5,0,0,1,0,0.5,0,1,0.5,0.666666666666667,0.333333333333333,1,0.5,0.125111576011067,0.505018780379758,-1,-1,0.5,1,1.09952077138407,0.0222949375106766,2.80278382225695,0.5,81.5838040447807
CBC_1138,CBC_1138_MSI_AV_v3_Vset6_Aset2_2024-07-24_15h15.32.121.csv,2,18,3,2,b,1,0,1,aud,D,63,1,3D,2D,1,0,z,2.21073710000019,0,1,0,0,2D,3D,D32,2.39789527279837,1,0,0,0.5,0,1,0.5,0.5,0,0,1,0,0.5,0,0,0.5,0,1,0,0.5,0.190517487528173,0.484084136459566,0,0,0.5,1,1.09952077138407,0.0222949375106766,2.80278382225695,0.5,81.5838040447807
CBC_1138,CBC_1138_MSI_AV_v3_Vset6_Aset2_2024-07-24_15h15.32.121.csv,2,19,3,1,z,0,1,0,aud,B,27,1,3B,1B,0,1,z,3.18658080000205,0,1,1,1,1B,3B,B31,2.83321334405622,1,0,0,0.5,0,1,0.5,0.5,0,0,1,0,0.5,0,0,0.5,0.666666666666667,0.333333333333333,1,0.5,0.108474911164809,0.503217162202096,0,0,0.5,1,1.09952077138407,0.0222949375106766,2.80278382225695,0.5,81.5838040447807
CBC_1138,CBC_1138_MSI_AV_v3_Vset6_Aset2_2024-07-24_15h15.32.121.csv,2,20,0,3,z,0,1,1,aud,D,9,1,0D,3D,0,1,z,3.38128859999961,0,1,1,1,3D,0D,D03,3.55534806148941,1,0,0,0.5,0,1,0.5,0.5,0,0,1,0,0.5,0,0,0.5,0.5,0.5,0.5,0.5,0.0954787843546906,0.500529713308815,0.5,0.5,0.5,1,1.09952077138407,0.0222949375106766,2.80278382225695,0.5,81.5838040447807
CBC_1138,CBC_1138_MSI_AV_v3_Vset6_Aset2_2024-07-24_15h15.32.121.csv,2,21,1,0,b,1,0,0,aud,B,63,1,1B,0B,1,0,z,2.61914299999989,0,1,0,0,0B,1B,B10,2.484906649788,1,0,0,0.5,0,1,0.5,0.5,0,0,1,0,0.5,0,0,1,0,1,0,1,0.148926985923788,0.484323311069871,0,0,0.5,1,1.09952077138407,0.0222949375106766,2.80278382225695,0.5,81.5838040447807
CBC_1138,CBC_1138_MSI_AV_v3_Vset6_Aset2_2024-07-24_15h15.32.121.csv,2,22,1,0,z,0,1,3,aud,A,63,1,1A,0A,0,1,b,2.48515860000043,1,0,0,0,1A,0A,A10,2.91777073208428,1,0,0,0.5,0,1,0.5,0.5,0,0,1,0,0.5,0,0,1,0,1,0,1,0.161887722810961,0.48463563893351,0,0,0.5,1,1.09952077138407,0.0222949375106766,2.80278382225695,0.5,81.5838040447807
CBC_1138,CBC_1138_MSI_AV_v3_Vset6_Aset2_2024-07-24_15h15.32.121.csv,2,23,2,3,b,1,0,2,aud,C,63,1,2C,3C,1,0,z,3.26194260000011,0,1,0,0,3C,2C,C23,2.94443897916644,1,0,0,0.5,0,1,0.5,0.5,0,0,1,0,0.5,0,0,1,0,1,0,1,0.0998422124533269,0.485631262167536,0,0,0.5,1,1.09952077138407,0.0222949375106766,2.80278382225695,0.5,81.5838040447807
CBC_1138,CBC_1138_MSI_AV_v3_Vset6_Aset2_2024-07-24_15h15.32.121.csv,2,24,0,2,b,1,0,3,aud,A,27,1,0A,2A,1,0,b,2.71990560000086,1,0,1,1,0A,2A,A02,2.56494935746154,1,0,0,0.5,0,1,0.5,0.5,0,0,1,0,0.5,0,0,1,1,0,1,0,0.148782855098885,0.515190785081706,0,0,0.5,1,1.09952077138407,0.0222949375106766,2.80278382225695,0.5,81.5838040447807
CBC_1138,CBC_1138_MSI_AV_v3_Vset6_Aset2_2024-07-24_15h15.32.121.csv,2,25,1,0,b,1,0,0,aud,B,63,1,1B,0B,1,0,z,4.86860250000063,0,1,0,0,0B,1B,B10,2.30258509299405,1,0,0,0.5,0,1,0.5,0.5,0,0,1,0,0.5,0,0,1,0,1,0,1,0.0363594761284877,0.485362078636165,0,0,0.5,1,1.09952077138407,0.0222949375106766,2.80278382225695,0.5,81.5838040447807
CBC_1138,CBC_1138_MSI_AV_v3_Vset6_Aset2_2024-07-24_15h15.32.121.csv,2,26,2,3,z,0,1,1,aud,D,63,1,2D,3D,0,1,z,2.86909299999934,0,1,1,1,3D,2D,D23,3.02042488614436,1,0,0,0.5,0,1,0.5,0.5,0,0,1,0,0.5,0,0,1,1,0,1,0,0.135498771826779,0.51507132150085,0,0,0.5,1,1.09952077138407,0.0222949375106766,2.80278382225695,0.5,81.5838040447807
CBC_1138,CBC_1138_MSI_AV_v3_Vset6_Aset2_2024-07-24_15h15.32.121.csv,2,27,1,2,b,1,0,0,aud,B,9,1,1B,2B,1,0,z,2.48954430000049,0,1,0,0,2B,1B,B12,3.73766961828337,1,0,0,0.5,0,1,0.5,0.5,0,0,1,0,0.5,0,0,1,0.333333333333333,0.666666666666667,0.5,1,0.164658469007317,0.494318951805193,-0.5,-0.5,0.5,1,1.09952077138407,0.0222949375106766,2.80278382225695,0.5,81.5838040447807
CBC_1138,CBC_1138_MSI_AV_v3_Vset6_Aset2_2024-07-24_15h15.32.121.csv,2,28,1,3,z,0,1,1,aud,D,27,1,1D,3D,0,1,z,2.45675619999929,0,1,1,1,3D,1D,D13,3.76120011569356,1,0,0,0.5,0,1,0,0.5,0,0,1,0,0.5,0,0,1,1,0,1,0,0.175483927576701,0.516260756798341,0,0,0.5,1,1.09952077138407,0.0222949375106766,2.80278382225695,0.5,81.5838040447807
CBC_1138,CBC_1138_MSI_AV_v3_Vset6_Aset2_2024-07-24_15h15.32.121.csv,2,29,1,0,z,0,1,3,aud,A,63,1,1A,0A,0,1,z,4.35641880000185,0,1,1,1,0A,1A,A10,2.68557734525015,1,0,0,0.5,0,1,0,0.5,0,0,1,0,0.5,0,0,1,1,0,1,0,0.0533292717441242,0.51600739321178,0,0,0.5,1,1.09952077138407,0.0222949375106766,2.80278382225695,0.5,81.5838040447807
CBC_1138,CBC_1138_MSI_AV_v3_Vset6_Aset2_2024-07-24_15h15.32.121.csv,2,30,0,1,b,1,0,3,aud,A,63,1,0A,1A,1,0,z,2.64543679999952,0,1,0,0,1A,0A,A01,3.11351530921037,1,0,0,0.5,0,1,0,0.5,0,0,1,0,0.5,0,0,1,0,1,0,1,0.146332640341765,0.483724478229011,0,0,0.5,1,1.09952077138407,0.0222949375106766,2.80278382225695,0.5,81.5838040447807
CBC_1138,CBC_1138_MSI_AV_v3_Vset6_Aset2_2024-07-24_15h15.32.121.csv,2,31,0,2,z,0,1,2,aud,C,27,1,0C,2C,0,1,b,4.3454621000019,1,0,0,0,0C,2C,C02,3.13549421592915,1,0,0,0.5,0,1,0,0.5,0,0,1,0,0.5,0,0,1,0,1,0,1,0.0504495190102715,0.484778034471591,0,0,0.5,1,1.09952077138407,0.0222949375106766,2.80278382225695,0.5,81.5838040447807
CBC_1138,CBC_1138_MSI_AV_v3_Vset6_Aset2_2024-07-24_15h15.32.121.csv,2,32,1,0,z,0,1,3,aud,A,63,1,1A,0A,0,1,z,2.48527260000083,0,1,1,1,0A,1A,A10,2.46385324059017,1,0,0,0.5,0,1,0,0.5,0,0,1,0,0.5,0,0,1,1,0,1,0,0.171843885656086,0.514484905199738,0,0,0.5,1,1.09952077138407,0.0222949375106766,2.80278382225695,0.5,81.5838040447807
CBC_1138,CBC_1138_MSI_AV_v3_Vset6_Aset2_2024-07-24_15h15.32.121.csv,2,33,1,0,b,1,0,0,aud,B,63,1,1B,0B,1,0,z,2.58228250000138,0,1,0,0,0B,1B,B10,2.26176309847379,1,0,0,0.5,0,1,0,0.5,0,0,1,0,0.5,0,0,1,0,1,0,1,0.152196322944209,0.483760208563032,0,0,0.5,1,1.09952077138407,0.0222949375106766,2.80278382225695,0.5,81.5838040447807
CBC_1138,CBC_1138_MSI_AV_v3_Vset6_Aset2_2024-07-24_15h15.32.121.csv,2,34,3,2,b,1,0,1,aud,D,63,1,3D,2D,1,0,z,2.72678100000121,0,1,0,0,2D,3D,D32,2.50552593699074,1,0,0,0.5,0,1,0,0.5,0,0,1,0,0.5,0,0,1,0,1,0,1,0.139194019333428,0.48405627540196,0,0,0.5,1,1.09952077138407,0.0222949375106766,2.80278382225695,0.5,81.5838040447807
CBC_1138,CBC_1138_MSI_AV_v3_Vset6_Aset2_2024-07-24_15h15.32.121.csv,2,35,3,1,z,0,1,0,aud,B,27,1,3B,1B,0,1,b,3.14891480000188,1,0,0,0,3B,1B,B31,2.81341071676004,1,0,0,0.5,0,1,0,0.5,0,0,1,0,0.5,0,0,1,0.333333333333333,0.666666666666667,0.5,1,0.10917807728389,0.49464504263452,-0.5,-0.5,0.5,1,1.09952077138407,0.0222949375106766,2.80278382225695,0.5,81.5838040447807
CBC_1138,CBC_1138_MSI_AV_v3_Vset6_Aset2_2024-07-24_15h15.32.121.csv,2,36,3,2,z,0,1,2,aud,C,63,1,3C,2C,0,1,b,2.52005220000137,1,0,0,0,3C,2C,C32,2.83321334405622,1,0,0,0.5,0,1,0,0,0,0,1,0,0.5,0,0,1,0,1,0,1,0.158701357596648,0.485413956332122,0,0,0.5,1,1.09952077138407,0.0222949375106766,2.80278382225695,0.5,81.5838040447807
CBC_1138,CBC_1138_MSI_AV_v3_Vset6_Aset2_2024-07-24_15h15.32.121.csv,2,37,2,0,b,1,0,2,aud,C,27,1,2C,0C,1,0,z,2.32304440000007,0,1,0,0,0C,2C,C20,3.95124371858143,1,0,0,0.5,0,1,0,0,0,0,1,0,0.5,0,0,1,0,1,0,1,0.178082564564699,0.483193126752849,0,0,0.5,1,1.09952077138407,0.0222949375106766,2.80278382225695,0.5,81.5838040447807
CBC_1138,CBC_1138_MSI_AV_v3_Vset6_Aset2_2024-07-24_15h15.32.121.csv,2,38,1,0,b,1,0,0,aud,B,63,1,1B,0B,1,0,z,2.4171720000013,0,1,0,0,0B,1B,B10,2.17853244432407,1,0,0,0.5,0,1,0,0,0,0,1,0,0.5,0,0,1,0,1,0,1,0.168864333674189,0.484942742290964,0,0,0.5,1,1.09952077138407,0.0222949375106766,2.80278382225695,0.5,81.5838040447807
CBC_1138,CBC_1138_MSI_AV_v3_Vset6_Aset2_2024-07-24_15h15.32.121.csv,2,39,3,0,z,0,1,3,aud,A,9,1,3A,0A,0,1,b,2.68248440000025,1,0,0,0,3A,0A,A30,3.98898404656427,1,0,0,0.5,0,1,0,0,0,0,1,0,0.5,0,0,1,0.333333333333333,0.666666666666667,0.5,1,0.146626350976031,0.496053899604492,-0.5,-0.5,0.5,1,1.09952077138407,0.0222949375106766,2.80278382225695,0.5,81.5838040447807
CBC_1138,CBC_1138_MSI_AV_v3_Vset6_Aset2_2024-07-24_15h15.32.121.csv,2,40,3,2,z,0,1,2,aud,C,63,0,3C,2C,1,0,z,2.52307330000076,0,1,1,0,2C,3C,C32,2.62103882411258,1,0,0,0,0,1,0,0,0,0,1,0,0.5,0,0,1,1,0,1,0,0.168928280308661,0.517629978612403,-1,-1,0.5,1,1.09952077138407,0.0222949375106766,2.80278382225695,0.5,81.5838040447807
CBC_1138,CBC_1138_MSI_AV_v3_Vset6_Aset2_2024-07-24_15h15.32.121.csv,2,41,1,0,z,0,1,3,aud,A,63,1,1A,0A,0,1,z,2.69420900000114,0,1,1,1,0A,1A,A10,2.41591377830105,1,0,0,0,0,1,0,0,0,0,0,0,0.5,0,0,1,1,0,1,0,0.151289960079311,0.515540347281507,0,0,0.5,1,1.09952077138407,0.0222949375106766,2.80278382225695,0.5,81.5838040447807
CBC_1138,CBC_1138_MSI_AV_v3_Vset6_Aset2_2024-07-24_15h15.32.121.csv,2,42,3,2,b,1,0,1,aud,D,63,1,3D,2D,1,0,z,2.50804110000172,0,1,0,0,2D,3D,D32,2.43361335540045,1,0,0,0,0,1,0,0,0,0,0,0,0.5,0,0,1,0,1,0,1,0.159681682297906,0.48480688701735,0,0,0.5,1,1.09952077138407,0.0222949375106766,2.80278382225695,0.5,81.5838040447807
CBC_1138,CBC_1138_MSI_AV_v3_Vset6_Aset2_2024-07-24_15h15.32.121.csv,2,43,2,3,b,1,0,2,aud,C,63,1,2C,3C,1,0,z,2.03349720000006,0,1,0,0,3C,2C,C23,2.96183072187831,1,0,0,0,0,1,0,0,0,0,0,0,0.5,0,0,1,NaN,NaN,0,0,NaN,NaN,0,0,0.5,1,1.09952077138407,0.0222949375106766,2.80278382225695,0.5,81.5838040447807
CBC_1138,CBC_1138_MSI_AV_v3_Vset6_Aset2_2024-07-24_15h15.32.121.csv,2,44,1,3,z,0,1,1,aud,D,27,1,1D,3D,0,1,z,3.31595949999974,0,1,1,1,3D,1D,D13,3.38439026334577,1,0,0,0,0,1,0,0,0,0,0,0,0.5,0,0,1,1,0,1,0,0.102681676795796,0.516689153357418,0,0,0.5,1,1.09952077138407,0.0222949375106766,2.80278382225695,0.5,81.5838040447807
