ID,filename,session,trial,visStimLeft,visStimRight,correctKey,leftCorrect,rightCorrect,secondStim,mod2Type,mod2Stim,frequency,rewardAccurate,stimPairLeft,stimPairRight,pCorrectLeft,pCorrectRight,key,reactionTime,choiceLeft,choiceRight,choiceAccurate,reward,chosenPair,otherPair,triplet,surprise,0A belief,1A belief,2A belief,3A belief,0B belief,1B belief,2B belief,3B belief,0C belief,1C belief,2C belief,3C belief,0D belief,1D belief,2D belief,3D belief,beliefPairNorm,beliefOtherPairNorm,beliefPair,beliefOtherPair,lik,corrLik,rewardPE,update2,fitCBCsimpleRW_CBCdriftDiffusionLR_startBelief,fitCBCsimpleRW_CBCdriftDiffusionLR_alpha1,fitCBCsimpleRW_CBCdriftDiffusionLR_nonDecisionTime,fitCBCsimpleRW_CBCdriftDiffusionLR_weight,fitCBCsimpleRW_CBCdriftDiffusionLR_startingBoundary,fitCBCsimpleRW_CBCdriftDiffusionLR_startingPoint,fit_CBCsimpleRW_CBCdriftDiffusionLR_NLL
CBC_1087,CBC_1087_MSI_AV_v3_Vset1_Aset1_2024-03-23_10h00.48.030.csv,1,1,3,1,z,0,1,3,aud,B,27,1,3B,1B,0,1,b,1.4320901000001,1,0,0,0,3B,1B,B31,2.77258872223978,0.5,0.5,0.5,0.5,0.5,0.5,0.5,0.5,0.5,0.5,0.5,0.5,0.5,0.5,0.5,0.5,0.5,0.5,0.5,0.5,0.444187719214926,0.499754415117891,-0.5,-0.492651573150482,0.5,0.985303146300964,0.933416715938197,0.202352556786765,1.84103706009879,0.5,61.103911581731
CBC_1087,CBC_1087_MSI_AV_v3_Vset1_Aset1_2024-03-23_10h00.48.030.csv,1,2,2,3,b,1,0,0,aud,C,63,1,2C,3C,1,0,b,1.35534309999912,1,0,1,1,2C,3C,C23,2.83321334405622,0.5,0.5,0.5,0.5,0.5,0.5,0.5,0.00734842684951781,0.5,0.5,0.5,0.5,0.5,0.5,0.5,0.5,0.5,0.5,0.5,0.5,0.490899117647539,0.500488590727023,0.5,0.492651573150482,0.5,0.985303146300964,0.933416715938197,0.202352556786765,1.84103706009879,0.5,61.103911581731
CBC_1087,CBC_1087_MSI_AV_v3_Vset1_Aset1_2024-03-23_10h00.48.030.csv,1,3,2,3,z,0,1,1,aud,D,63,1,2D,3D,0,1,z,1.11205079999945,0,1,1,1,3D,2D,D23,2.89037175789616,0.5,0.5,0.5,0.5,0.5,0.5,0.5,0.00734842684951781,0.5,0.5,0.992651573150482,0.5,0.5,0.5,0.5,0.5,0.5,0.5,0.5,0.5,0.454179376862288,0.500315020099337,0.5,0.492651573150482,0.5,0.985303146300964,0.933416715938197,0.202352556786765,1.84103706009879,0.5,61.103911581731
CBC_1087,CBC_1087_MSI_AV_v3_Vset1_Aset1_2024-03-23_10h00.48.030.csv,1,4,1,0,b,1,0,3,aud,B,63,0,1B,0B,0,1,b,1.37004629999956,1,0,1,0,1B,0B,B10,2.94443897916644,0.5,0.5,0.5,0.5,0.5,0.5,0.5,0.00734842684951781,0.5,0.5,0.992651573150482,0.5,0.5,0.5,0.5,0.992651573150482,0.5,0.5,0.5,0.5,0.48155866707009,0.499818316687146,-0.5,-0.492651573150482,0.5,0.985303146300964,0.933416715938197,0.202352556786765,1.84103706009879,0.5,61.103911581731
CBC_1087,CBC_1087_MSI_AV_v3_Vset1_Aset1_2024-03-23_10h00.48.030.csv,1,5,3,0,z,0,1,2,aud,A,9,1,3A,0A,0,1,b,2.22617459999947,1,0,0,0,3A,0A,A30,2.99573227355399,0.5,0.5,0.5,0.5,0.5,0.00734842684951781,0.5,0.00734842684951781,0.5,0.5,0.992651573150482,0.5,0.5,0.5,0.5,0.992651573150482,0.5,0.5,0.5,0.5,0.141285744716472,0.50057115851054,-0.5,-0.492651573150482,0.5,0.985303146300964,0.933416715938197,0.202352556786765,1.84103706009879,0.5,61.103911581731
CBC_1087,CBC_1087_MSI_AV_v3_Vset1_Aset1_2024-03-23_10h00.48.030.csv,1,6,2,3,z,0,1,1,aud,D,63,1,2D,3D,0,1,z,2.96865089999937,0,1,1,1,3D,2D,D23,2.35137525716348,0.5,0.5,0.5,0.00734842684951781,0.5,0.00734842684951781,0.5,0.00734842684951781,0.5,0.5,0.992651573150482,0.5,0.5,0.5,0.5,0.992651573150482,0.665025643630503,0.334974356369497,0.992651573150482,0.5,0.0506943719754498,0.530838244202043,0.00734842684951786,0.00724042809519243,0.5,0.985303146300964,0.933416715938197,0.202352556786765,1.84103706009879,0.5,61.103911581731
CBC_1087,CBC_1087_MSI_AV_v3_Vset1_Aset1_2024-03-23_10h00.48.030.csv,1,7,2,0,b,1,0,0,aud,C,27,1,2C,0C,1,0,b,2.40187199999946,1,0,1,1,2C,0C,C20,3.09104245335832,0.5,0.5,0.5,0.00734842684951781,0.5,0.00734842684951781,0.5,0.00734842684951781,0.5,0.5,0.992651573150482,0.5,0.5,0.5,0.5,0.999892001245675,0.665025643630503,0.334974356369497,0.992651573150482,0.5,0.115711675361244,0.530176908045331,0.00734842684951786,0.00724042809519243,0.5,0.985303146300964,0.933416715938197,0.202352556786765,1.84103706009879,0.5,61.103911581731
CBC_1087,CBC_1087_MSI_AV_v3_Vset1_Aset1_2024-03-23_10h00.48.030.csv,1,8,1,0,z,0,1,2,aud,A,63,1,1A,0A,0,1,b,2.73772019999979,1,0,0,0,1A,0A,A10,3.13549421592915,0.5,0.5,0.5,0.00734842684951781,0.5,0.00734842684951781,0.5,0.00734842684951781,0.5,0.5,0.999892001245675,0.5,0.5,0.5,0.5,0.999892001245675,0.5,0.5,0.5,0.5,0.0669878807855398,0.499824842865929,-0.5,-0.492651573150482,0.5,0.985303146300964,0.933416715938197,0.202352556786765,1.84103706009879,0.5,61.103911581731
CBC_1087,CBC_1087_MSI_AV_v3_Vset1_Aset1_2024-03-23_10h00.48.030.csv,1,9,0,1,z,0,1,3,aud,B,63,1,0B,1B,0,1,z,2.2988179999993,0,1,1,1,1B,0B,B01,3.17805383034795,0.5,0.00734842684951781,0.5,0.00734842684951781,0.5,0.00734842684951781,0.5,0.00734842684951781,0.5,0.5,0.999892001245675,0.5,0.5,0.5,0.5,0.999892001245675,0.0144839846949942,0.985516015305006,0.00734842684951781,0.5,0.103194824585776,0.410526059455838,0.992651573150482,0.978062718205772,0.5,0.985303146300964,0.933416715938197,0.202352556786765,1.84103706009879,0.5,61.103911581731
CBC_1087,CBC_1087_MSI_AV_v3_Vset1_Aset1_2024-03-23_10h00.48.030.csv,1,10,3,1,b,1,0,1,aud,D,27,1,3D,1D,1,0,b,2.15811519999897,1,0,1,1,3D,1D,D31,3.2188758248682,0.5,0.00734842684951781,0.5,0.00734842684951781,0.5,0.98541114505529,0.5,0.00734842684951781,0.5,0.5,0.999892001245675,0.5,0.5,0.5,0.5,0.999892001245675,0.666642665215399,0.333357334784601,0.999892001245675,0.5,0.165503292765791,0.531527776110011,0.000107998754325433,0.000106411512433435,0.5,0.985303146300964,0.933416715938197,0.202352556786765,1.84103706009879,0.5,61.103911581731
CBC_1087,CBC_1087_MSI_AV_v3_Vset1_Aset1_2024-03-23_10h00.48.030.csv,1,11,2,3,b,1,0,0,aud,C,63,1,2C,3C,1,0,z,1.49881749999986,0,1,0,0,3C,2C,C23,2.56494935746154,0.5,0.00734842684951781,0.5,0.00734842684951781,0.5,0.98541114505529,0.5,0.00734842684951781,0.5,0.5,0.999892001245675,0.5,0.5,0.5,0.5,0.999998412758108,0.333357334784601,0.666642665215399,0.5,0.999892001245675,0.380357841989004,0.468996098898774,-0.5,-0.492651573150482,0.5,0.985303146300964,0.933416715938197,0.202352556786765,1.84103706009879,0.5,61.103911581731
CBC_1087,CBC_1087_MSI_AV_v3_Vset1_Aset1_2024-03-23_10h00.48.030.csv,1,12,0,1,z,0,1,3,aud,B,63,1,0B,1B,0,1,b,3.44090880000022,1,0,0,0,0B,1B,B01,2.60268968544438,0.5,0.00734842684951781,0.5,0.00734842684951781,0.5,0.98541114505529,0.5,0.00734842684951781,0.5,0.5,0.999892001245675,0.00734842684951781,0.5,0.5,0.5,0.999998412758108,0.336607141843809,0.663392858156191,0.5,0.98541114505529,0.0225290784925887,0.469644792264372,-0.5,-0.492651573150482,0.5,0.985303146300964,0.933416715938197,0.202352556786765,1.84103706009879,0.5,61.103911581731
CBC_1087,CBC_1087_MSI_AV_v3_Vset1_Aset1_2024-03-23_10h00.48.030.csv,1,13,1,0,z,0,1,2,aud,A,63,1,1A,0A,0,1,z,3.52875059999951,0,1,1,1,0A,1A,A10,2.63905732961526,0.5,0.00734842684951781,0.5,0.00734842684951781,0.00734842684951781,0.98541114505529,0.5,0.00734842684951781,0.5,0.5,0.999892001245675,0.00734842684951781,0.5,0.5,0.5,0.999998412758108,0.985516015305006,0.0144839846949942,0.5,0.00734842684951781,0.0241522618433709,0.589941812036852,0.5,0.492651573150482,0.5,0.985303146300964,0.933416715938197,0.202352556786765,1.84103706009879,0.5,61.103911581731
CBC_1087,CBC_1087_MSI_AV_v3_Vset1_Aset1_2024-03-23_10h00.48.030.csv,1,14,2,1,b,1,0,0,aud,C,9,1,2C,1C,1,0,b,2.57621879999988,1,0,1,1,2C,1C,C21,3.36729582998647,0.992651573150482,0.00734842684951781,0.5,0.00734842684951781,0.00734842684951781,0.98541114505529,0.5,0.00734842684951781,0.5,0.5,0.999892001245675,0.00734842684951781,0.5,0.5,0.5,0.999998412758108,0.666642665215399,0.333357334784601,0.999892001245675,0.5,0.0899071991711785,0.531246479418057,0.000107998754325433,0.000106411512433435,0.5,0.985303146300964,0.933416715938197,0.202352556786765,1.84103706009879,0.5,61.103911581731
CBC_1087,CBC_1087_MSI_AV_v3_Vset1_Aset1_2024-03-23_10h00.48.030.csv,1,15,0,1,b,1,0,2,aud,A,63,1,0A,1A,1,0,z,2.04635619999954,0,1,0,0,1A,0A,A01,3.40119738166216,0.992651573150482,0.00734842684951781,0.5,0.00734842684951781,0.00734842684951781,0.98541114505529,0.5,0.00734842684951781,0.5,0.5,0.999998412758108,0.00734842684951781,0.5,0.5,0.5,0.999998412758108,0.00734842684951781,0.992651573150482,0.00734842684951781,0.992651573150482,0.149181668672966,0.40900728800596,-0.00734842684951781,-0.00724042809519238,0.5,0.985303146300964,0.933416715938197,0.202352556786765,1.84103706009879,0.5,61.103911581731
CBC_1087,CBC_1087_MSI_AV_v3_Vset1_Aset1_2024-03-23_10h00.48.030.csv,1,16,1,3,z,0,1,1,aud,D,27,1,1D,3D,0,1,b,2.27018589999898,1,0,0,0,1D,3D,D13,3.43398720448515,0.992651573150482,0.000107998754325428,0.5,0.00734842684951781,0.00734842684951781,0.98541114505529,0.5,0.00734842684951781,0.5,0.5,0.999998412758108,0.00734842684951781,0.5,0.5,0.5,0.999998412758108,0.333333686054127,0.666666313945873,0.5,0.999998412758108,0.124060338773497,0.469146174741802,-0.5,-0.492651573150482,0.5,0.985303146300964,0.933416715938197,0.202352556786765,1.84103706009879,0.5,61.103911581731
CBC_1087,CBC_1087_MSI_AV_v3_Vset1_Aset1_2024-03-23_10h00.48.030.csv,1,17,1,0,b,1,0,3,aud,B,63,1,1B,0B,1,0,z,1.70024829999966,0,1,0,0,0B,1B,B10,2.77258872223978,0.992651573150482,0.000107998754325428,0.5,0.00734842684951781,0.00734842684951781,0.98541114505529,0.5,0.00734842684951781,0.5,0.5,0.999998412758108,0.00734842684951781,0.5,0.00734842684951781,0.5,0.999998412758108,0.00740202064777717,0.992597979352223,0.00734842684951781,0.98541114505529,0.248556702202556,0.409034168020338,-0.00734842684951781,-0.00724042809519238,0.5,0.985303146300964,0.933416715938197,0.202352556786765,1.84103706009879,0.5,61.103911581731
CBC_1087,CBC_1087_MSI_AV_v3_Vset1_Aset1_2024-03-23_10h00.48.030.csv,1,18,3,2,z,0,1,0,aud,C,63,0,3C,2C,1,0,b,1.23521470000014,1,0,0,1,3C,2C,C32,3.49650756146648,0.992651573150482,0.000107998754325428,0.5,0.00734842684951781,0.000107998754325428,0.98541114505529,0.5,0.00734842684951781,0.5,0.5,0.999998412758108,0.00734842684951781,0.5,0.00734842684951781,0.5,0.999998412758108,0.00729483288236663,0.992705167117633,0.00734842684951781,0.999998412758108,0.450287807765886,0.409389635190761,0.992651573150482,0.978062718205772,0.5,0.985303146300964,0.933416715938197,0.202352556786765,1.84103706009879,0.5,61.103911581731
CBC_1087,CBC_1087_MSI_AV_v3_Vset1_Aset1_2024-03-23_10h00.48.030.csv,1,19,0,2,b,1,0,2,aud,A,27,1,0A,2A,1,0,b,2.50396839999939,1,0,1,1,0A,2A,A02,3.52636052461616,0.992651573150482,0.000107998754325428,0.5,0.00734842684951781,0.000107998754325428,0.98541114505529,0.5,0.00734842684951781,0.5,0.5,0.999998412758108,0.98541114505529,0.5,0.00734842684951781,0.5,0.999998412758108,0.665025643630503,0.334974356369497,0.992651573150482,0.5,0.0999212798877014,0.531384662333698,0.00734842684951786,0.00724042809519243,0.5,0.985303146300964,0.933416715938197,0.202352556786765,1.84103706009879,0.5,61.103911581731
CBC_1087,CBC_1087_MSI_AV_v3_Vset1_Aset1_2024-03-23_10h00.48.030.csv,1,20,2,3,z,0,1,1,aud,D,63,1,2D,3D,0,1,z,1.34583329999896,0,1,1,1,3D,2D,D23,2.4567357728213,0.999892001245675,0.000107998754325428,0.5,0.00734842684951781,0.000107998754325428,0.98541114505529,0.5,0.00734842684951781,0.5,0.5,0.999998412758108,0.98541114505529,0.5,0.00734842684951781,0.5,0.999998412758108,0.666666313945873,0.333333686054127,0.999998412758108,0.5,0.527357484635518,0.531138424534338,1.58724189203152e-06,1.56391443015935e-06,0.5,0.985303146300964,0.933416715938197,0.202352556786765,1.84103706009879,0.5,61.103911581731
CBC_1087,CBC_1087_MSI_AV_v3_Vset1_Aset1_2024-03-23_10h00.48.030.csv,1,21,1,3,b,1,0,3,aud,B,27,1,1B,3B,1,0,b,1.22375469999952,1,0,1,1,1B,3B,B13,3.58351893845611,0.999892001245675,0.000107998754325428,0.5,0.00734842684951781,0.000107998754325428,0.98541114505529,0.5,0.00734842684951781,0.5,0.5,0.999998412758108,0.98541114505529,0.5,0.00734842684951781,0.5,0.999999976672538,0.992597979352223,0.00740202064777717,0.98541114505529,0.00734842684951781,0.652334461270174,0.5912724618692,0.0145888549447102,0.0143744446779513,0.5,0.985303146300964,0.933416715938197,0.202352556786765,1.84103706009879,0.5,61.103911581731
CBC_1087,CBC_1087_MSI_AV_v3_Vset1_Aset1_2024-03-23_10h00.48.030.csv,1,22,2,3,b,1,0,0,aud,C,63,1,2C,3C,1,0,b,1.39168139999856,1,0,1,1,2C,3C,C23,2.51230562397611,0.999892001245675,0.000107998754325428,0.5,0.00734842684951781,0.000107998754325428,0.999785589733241,0.5,0.00734842684951781,0.5,0.5,0.999998412758108,0.98541114505529,0.5,0.00734842684951781,0.5,0.999999976672538,0.50367361677227,0.49632638322773,0.999998412758108,0.98541114505529,0.468880144510818,0.500126782668343,1.58724189203152e-06,1.56391443015935e-06,0.5,0.985303146300964,0.933416715938197,0.202352556786765,1.84103706009879,0.5,61.103911581731
CBC_1087,CBC_1087_MSI_AV_v3_Vset1_Aset1_2024-03-23_10h00.48.030.csv,1,23,1,0,z,0,1,2,aud,A,63,0,1A,0A,1,0,b,1.43434099999922,1,0,0,1,1A,0A,A10,2.53897387105828,0.999892001245675,0.000107998754325428,0.5,0.00734842684951781,0.000107998754325428,0.999785589733241,0.5,0.00734842684951781,0.5,0.5,0.999999976672538,0.98541114505529,0.5,0.00734842684951781,0.5,0.999999976672538,0.000107998754325428,0.999892001245675,0.000107998754325428,0.999892001245675,0.364004295059366,0.407925159709775,0.999892001245675,0.985196734788531,0.5,0.985303146300964,0.933416715938197,0.202352556786765,1.84103706009879,0.5,61.103911581731
CBC_1087,CBC_1087_MSI_AV_v3_Vset1_Aset1_2024-03-23_10h00.48.030.csv,1,24,1,2,b,1,0,3,aud,B,9,1,1B,2B,1,0,z,2.30954070000007,0,1,0,0,2B,1B,B12,3.66356164612965,0.999892001245675,0.985304733542856,0.5,0.00734842684951781,0.000107998754325428,0.999785589733241,0.5,0.00734842684951781,0.5,0.5,0.999999976672538,0.98541114505529,0.5,0.00734842684951781,0.5,0.999999976672538,0.333380986870885,0.666619013129115,0.5,0.999785589733241,0.117071276115374,0.468875477706975,-0.5,-0.492651573150482,0.5,0.985303146300964,0.933416715938197,0.202352556786765,1.84103706009879,0.5,61.103911581731
CBC_1087,CBC_1087_MSI_AV_v3_Vset1_Aset1_2024-03-23_10h00.48.030.csv,1,25,3,2,z,0,1,0,aud,C,63,1,3C,2C,0,1,b,1.3848896999998,1,0,0,0,3C,2C,C32,2.99573227355399,0.999892001245675,0.985304733542856,0.5,0.00734842684951781,0.000107998754325428,0.999785589733241,0.00734842684951781,0.00734842684951781,0.5,0.5,0.999999976672538,0.98541114505529,0.5,0.00734842684951781,0.5,0.999999976672538,0.496325992269915,0.503674007730085,0.98541114505529,0.999999976672538,0.472153249086521,0.499263663430058,-0.98541114505529,-0.970928701623013,0.5,0.985303146300964,0.933416715938197,0.202352556786765,1.84103706009879,0.5,61.103911581731
CBC_1087,CBC_1087_MSI_AV_v3_Vset1_Aset1_2024-03-23_10h00.48.030.csv,1,26,3,2,b,1,0,1,aud,D,63,1,3D,2D,1,0,z,1.14791369999966,0,1,0,0,2D,3D,D32,3.71357206670431,0.999892001245675,0.985304733542856,0.5,0.00734842684951781,0.000107998754325428,0.999785589733241,0.00734842684951781,0.00734842684951781,0.5,0.5,0.999999976672538,0.0144824434322768,0.5,0.00734842684951781,0.5,0.999999976672538,0.333333338517214,0.666666661482786,0.5,0.999999976672538,0.48088387617938,0.468126644265011,-0.5,-0.492651573150482,0.5,0.985303146300964,0.933416715938197,0.202352556786765,1.84103706009879,0.5,61.103911581731
CBC_1087,CBC_1087_MSI_AV_v3_Vset1_Aset1_2024-03-23_10h00.48.030.csv,1,27,1,0,b,1,0,3,aud,B,63,1,1B,0B,1,0,b,1.65793099999973,1,0,1,1,1B,0B,B10,2.63905732961526,0.999892001245675,0.985304733542856,0.5,0.00734842684951781,0.000107998754325428,0.999785589733241,0.00734842684951781,0.00734842684951781,0.5,0.5,0.999999976672538,0.0144824434322768,0.5,0.00734842684951781,0.00734842684951781,0.999999976672538,0.999891989752141,0.000108010247859261,0.999785589733241,0.000107998754325428,0.383462993271499,0.592923820405012,0.000214410266758835,0.00021125911043671,0.5,0.985303146300964,0.933416715938197,0.202352556786765,1.84103706009879,0.5,61.103911581731
CBC_1087,CBC_1087_MSI_AV_v3_Vset1_Aset1_2024-03-23_10h00.48.030.csv,1,28,2,0,z,0,1,2,aud,A,27,1,2A,0A,0,1,z,1.30421979999937,0,1,1,1,0A,2A,A20,3.76120011569356,0.999892001245675,0.985304733542856,0.5,0.00734842684951781,0.000107998754325428,0.999996848843678,0.00734842684951781,0.00734842684951781,0.5,0.5,0.999999976672538,0.0144824434322768,0.5,0.00734842684951781,0.00734842684951781,0.999999976672538,0.666642665215399,0.333357334784601,0.999892001245675,0.5,0.550676898678053,0.530335689963243,0.000107998754325433,0.000106411512433435,0.5,0.985303146300964,0.933416715938197,0.202352556786765,1.84103706009879,0.5,61.103911581731
CBC_1087,CBC_1087_MSI_AV_v3_Vset1_Aset1_2024-03-23_10h00.48.030.csv,1,29,3,1,b,1,0,1,aud,D,27,1,3D,1D,1,0,b,1.1181792999987,1,0,1,1,3D,1D,D31,3.09104245335832,0.999998412758108,0.985304733542856,0.5,0.00734842684951781,0.000107998754325428,0.999996848843678,0.00734842684951781,0.00734842684951781,0.5,0.5,0.999999976672538,0.0144824434322768,0.5,0.00734842684951781,0.00734842684951781,0.999999976672538,0.992705178442905,0.00729482155709488,0.999999976672538,0.00734842684951781,0.558369694258699,0.590360157154518,2.33274618510748e-08,2.29846215570797e-08,0.5,0.985303146300964,0.933416715938197,0.202352556786765,1.84103706009879,0.5,61.103911581731
CBC_1087,CBC_1087_MSI_AV_v3_Vset1_Aset1_2024-03-23_10h00.48.030.csv,1,30,0,1,b,1,0,2,aud,A,63,1,0A,1A,1,0,z,1.2054021999993,0,1,0,0,1A,0A,A01,3.11351530921037,0.999998412758108,0.985304733542856,0.5,0.00734842684951781,0.000107998754325428,0.999996848843678,0.00734842684951781,0.00734842684951781,0.5,0.5,0.999999976672538,0.0144824434322768,0.5,0.00734842684951781,0.00734842684951781,0.99999999965716,0.496299386508648,0.503700613491352,0.985304733542856,0.999998412758108,0.544900837824365,0.49966343908323,-0.985304733542856,-0.97082385402501,0.5,0.985303146300964,0.933416715938197,0.202352556786765,1.84103706009879,0.5,61.103911581731
CBC_1087,CBC_1087_MSI_AV_v3_Vset1_Aset1_2024-03-23_10h00.48.030.csv,1,31,0,2,z,0,1,0,aud,C,27,1,0C,2C,0,1,b,2.20125120000012,1,0,0,0,0C,2C,C02,3.8286413964891,0.999998412758108,0.0144808795178466,0.5,0.00734842684951781,0.000107998754325428,0.999996848843678,0.00734842684951781,0.00734842684951781,0.5,0.5,0.999999976672538,0.0144824434322768,0.5,0.00734842684951781,0.00734842684951781,0.99999999965716,0.333333338517214,0.666666661482786,0.5,0.999999976672538,0.137335591632868,0.469666240935575,-0.5,-0.492651573150482,0.5,0.985303146300964,0.933416715938197,0.202352556786765,1.84103706009879,0.5,61.103911581731
CBC_1087,CBC_1087_MSI_AV_v3_Vset1_Aset1_2024-03-23_10h00.48.030.csv,1,32,3,2,b,1,0,1,aud,D,63,1,3D,2D,1,0,b,1.10788599999887,1,0,1,1,3D,2D,D32,3.15700042115011,0.999998412758108,0.0144808795178466,0.5,0.00734842684951781,0.000107998754325428,0.999996848843678,0.00734842684951781,0.00734842684951781,0.00734842684951781,0.5,0.999999976672538,0.0144824434322768,0.5,0.00734842684951781,0.00734842684951781,0.99999999965716,0.992705178609351,0.00729482139064928,0.99999999965716,0.00734842684951781,0.532358879470928,0.591061930061969,3.42840311695625e-10,3.37801637792502e-10,0.5,0.985303146300964,0.933416715938197,0.202352556786765,1.84103706009879,0.5,61.103911581731
CBC_1087,CBC_1087_MSI_AV_v3_Vset1_Aset1_2024-03-23_10h00.48.030.csv,1,33,0,1,z,0,1,3,aud,B,63,1,0B,1B,0,1,b,1.30585799999972,1,0,0,0,0B,1B,B01,2.77258872223978,0.999998412758108,0.0144808795178466,0.5,0.00734842684951781,0.000107998754325428,0.999996848843678,0.00734842684951781,0.00734842684951781,0.00734842684951781,0.5,0.999999976672538,0.0144824434322768,0.5,0.00734842684951781,0.00734842684951781,0.999999999994961,0.000107987432102558,0.999892012567898,0.000107998754325428,0.999996848843678,0.426597158567562,0.407983435386796,-0.000107998754325428,-0.000106411512433429,0.5,0.985303146300964,0.933416715938197,0.202352556786765,1.84103706009879,0.5,61.103911581731
CBC_1087,CBC_1087_MSI_AV_v3_Vset1_Aset1_2024-03-23_10h00.48.030.csv,1,34,1,0,z,0,1,2,aud,A,63,1,1A,0A,0,1,z,1.1293214999987,0,1,1,1,0A,1A,A10,2.50552593699074,0.999998412758108,0.0144808795178466,0.5,0.00734842684951781,1.58724189199891e-06,0.999996848843678,0.00734842684951781,0.00734842684951781,0.00734842684951781,0.5,0.999999976672538,0.0144824434322768,0.5,0.00734842684951781,0.00734842684951781,0.999999999994961,0.985725800784598,0.0142741992154016,0.999998412758108,0.0144808795178466,0.581504137061249,0.589466794745877,1.58724189203152e-06,1.56391443015935e-06,0.5,0.985303146300964,0.933416715938197,0.202352556786765,1.84103706009879,0.5,61.103911581731
CBC_1087,CBC_1087_MSI_AV_v3_Vset1_Aset1_2024-03-23_10h00.48.030.csv,1,35,3,2,b,1,0,1,aud,D,63,0,3D,2D,0,1,b,1.74032970000007,1,0,1,0,3D,2D,D32,2.81341071676004,0.999999976672538,0.0144808795178466,0.5,0.00734842684951781,1.58724189199891e-06,0.999996848843678,0.00734842684951781,0.00734842684951781,0.00734842684951781,0.5,0.999999976672538,0.0144824434322768,0.5,0.00734842684951781,0.00734842684951781,0.999999999994961,0.992705178611797,0.00729482138820306,0.999999999994961,0.00734842684951781,0.338053029247422,0.590134767160097,-0.999999999994961,-0.985303146296,0.5,0.985303146300964,0.933416715938197,0.202352556786765,1.84103706009879,0.5,61.103911581731
CBC_1087,CBC_1087_MSI_AV_v3_Vset1_Aset1_2024-03-23_10h00.48.030.csv,1,36,0,2,z,0,1,0,aud,C,27,1,0C,2C,0,1,z,1.05727579999893,0,1,1,1,2C,0C,C02,3.23867845216438,0.999999976672538,0.0144808795178466,0.5,0.00734842684951781,1.58724189199891e-06,0.999996848843678,0.00734842684951781,0.00734842684951781,0.00734842684951781,0.5,0.999999976672538,0.0144824434322768,0.5,0.00734842684951781,0.00734842684951781,0.0146968536989616,0.992705178442905,0.00729482155709488,0.999999976672538,0.00734842684951781,0.329875400295832,0.590435713766477,2.33274618510748e-08,2.29846215570797e-08,0.5,0.985303146300964,0.933416715938197,0.202352556786765,1.84103706009879,0.5,61.103911581731
CBC_1087,CBC_1087_MSI_AV_v3_Vset1_Aset1_2024-03-23_10h00.48.030.csv,1,37,1,0,z,0,1,2,aud,A,63,1,1A,0A,0,1,b,1.09350079999967,1,0,0,0,1A,0A,A10,2.34180580614733,0.999999976672538,0.0144808795178466,0.5,0.00734842684951781,1.58724189199891e-06,0.999996848843678,0.00734842684951781,0.00734842684951781,0.00734842684951781,0.5,0.99999999965716,0.0144824434322768,0.5,0.00734842684951781,0.00734842684951781,0.0146968536989616,0.0142741772104264,0.985725822789574,0.0144808795178466,0.999999976672538,0.337835369256477,0.410083516986138,-0.0144808795178466,-0.0142680561501394,0.5,0.985303146300964,0.933416715938197,0.202352556786765,1.84103706009879,0.5,61.103911581731
CBC_1087,CBC_1087_MSI_AV_v3_Vset1_Aset1_2024-03-23_10h00.48.030.csv,1,38,3,1,z,0,1,3,aud,B,27,1,3B,1B,0,1,z,2.26829850000013,0,1,1,1,1B,3B,B31,3.27714473299218,0.999999976672538,0.000212823367707152,0.5,0.00734842684951781,1.58724189199891e-06,0.999996848843678,0.00734842684951781,0.00734842684951781,0.00734842684951781,0.5,0.99999999965716,0.0144824434322768,0.5,0.00734842684951781,0.00734842684951781,0.0146968536989616,0.992705155792326,0.00729484420767353,0.999996848843678,0.00734842684951781,0.155089781567801,0.589860421378133,3.15115632210095e-06,3.10484423865224e-06,0.5,0.985303146300964,0.933416715938197,0.202352556786765,1.84103706009879,0.5,61.103911581731
CBC_1087,CBC_1087_MSI_AV_v3_Vset1_Aset1_2024-03-23_10h00.48.030.csv,1,39,2,3,b,1,0,0,aud,C,63,1,2C,3C,1,0,b,1.8122958999993,1,0,1,1,2C,3C,C23,2.60268968544438,0.999999976672538,0.000212823367707152,0.5,0.00734842684951781,1.58724189199891e-06,0.999999953687916,0.00734842684951781,0.00734842684951781,0.00734842684951781,0.5,0.99999999965716,0.0144824434322768,0.5,0.00734842684951781,0.00734842684951781,0.0146968536989616,0.985724303529421,0.0142756964705795,0.99999999965716,0.0144824434322768,0.304096042390317,0.590247613756441,3.42840311695625e-10,3.37801637792502e-10,0.5,0.985303146300964,0.933416715938197,0.202352556786765,1.84103706009879,0.5,61.103911581731
CBC_1087,CBC_1087_MSI_AV_v3_Vset1_Aset1_2024-03-23_10h00.48.030.csv,1,40,2,3,z,0,1,1,aud,D,63,1,2D,3D,0,1,b,1.3577540999986,1,0,0,0,2D,3D,D23,2.62103882411258,0.999999976672538,0.000212823367707152,0.5,0.00734842684951781,1.58724189199891e-06,0.999999953687916,0.00734842684951781,0.00734842684951781,0.00734842684951781,0.5,0.999999999994961,0.0144824434322768,0.5,0.00734842684951781,0.00734842684951781,0.0146968536989616,0.333333333334453,0.666666666665547,0.00734842684951781,0.0146968536989616,0.459515104718517,0.469406764916943,-0.00734842684951781,-0.00724042809519238,0.5,0.985303146300964,0.933416715938197,0.202352556786765,1.84103706009879,0.5,61.103911581731
CBC_1087,CBC_1087_MSI_AV_v3_Vset1_Aset1_2024-03-23_10h00.48.030.csv,1,41,1,0,b,1,0,3,aud,B,63,1,1B,0B,1,0,b,2.61867099999927,1,0,1,1,1B,0B,B10,2.63905732961526,0.999999976672538,0.000212823367707152,0.5,0.00734842684951781,1.58724189199891e-06,0.999999953687916,0.00734842684951781,0.00734842684951781,0.00734842684951781,0.5,0.999999999994961,0.0144824434322768,0.5,0.00734842684951781,0.000107998754325428,0.0146968536989616,0.999998412760554,1.58723944617434e-06,0.999999953687916,1.58724189199891e-06,0.0927496955777183,0.592031339804469,4.63120835014763e-08,4.56314415857576e-08,0.5,0.985303146300964,0.933416715938197,0.202352556786765,1.84103706009879,0.5,61.103911581731
CBC_1087,CBC_1087_MSI_AV_v3_Vset1_Aset1_2024-03-23_10h00.48.030.csv,1,42,0,2,b,1,0,2,aud,A,27,1,0A,2A,NaN,NaN,[],NaN,NaN,NaN,NaN,NaN,,,A02,3.3499040872746,0.999999976672538,0.000212823367707152,0.5,0.00734842684951781,1.58724189199891e-06,0.999999999319358,0.00734842684951781,0.00734842684951781,0.00734842684951781,0.5,0.999999999994961,0.0144824434322768,0.5,0.00734842684951781,0.000107998754325428,0.0146968536989616,0,0,0,0,NaN,0,0,0,0.5,0.985303146300964,0.933416715938197,0.202352556786765,1.84103706009879,0.5,61.103911581731
CBC_1087,CBC_1087_MSI_AV_v3_Vset1_Aset1_2024-03-23_10h00.48.030.csv,1,43,0,3,z,0,1,1,aud,D,9,1,0D,3D,0,1,b,1.8984862999996,1,0,0,0,0D,3D,D03,4.06044301054642,0.999999976672538,0.000212823367707152,0.5,0.00734842684951781,1.58724189199891e-06,0.999999999319358,0.00734842684951781,0.00734842684951781,0.00734842684951781,0.5,0.999999999994961,0.0144824434322768,0.5,0.00734842684951781,0.000107998754325428,0.0146968536989616,0.971445611929935,0.0285543880700649,0.5,0.0146968536989616,0.266101170577813,0.586384990454836,-0.5,-0.492651573150482,0.5,0.985303146300964,0.933416715938197,0.202352556786765,1.84103706009879,0.5,61.103911581731
CBC_1087,CBC_1087_MSI_AV_v3_Vset1_Aset1_2024-03-23_10h00.48.030.csv,1,44,2,3,b,1,0,0,aud,C,63,1,2C,3C,1,0,z,1.24330169999939,0,1,0,0,3C,2C,C23,2.46809953147162,0.999999976672538,0.000212823367707152,0.5,0.00734842684951781,1.58724189199891e-06,0.999999999319358,0.00734842684951781,0.00734842684951781,0.00734842684951781,0.5,0.999999999994961,0.0144824434322768,0.00734842684951781,0.00734842684951781,0.000107998754325428,0.0146968536989616,0.014275696465826,0.985724303534174,0.0144824434322768,0.999999999994961,0.450390599378393,0.410946467187447,-0.0144824434322768,-0.0142695970799481,0.5,0.985303146300964,0.933416715938197,0.202352556786765,1.84103706009879,0.5,61.103911581731
CBC_1087,CBC_1087_MSI_TV_v3_Vset2_Tset3_2024-03-23_11h27.59.968.csv,2,1,1,0,z,0,1,2,tac,A,63,1,1A,0A,0,1,z,1.27492519999942,0,1,1,1,0A,1A,A10,2.77258872223978,0.5,0.5,0.5,0.5,0.5,0.5,0.5,0.5,0.5,0.5,0.5,0.5,0.5,0.5,0.5,0.5,0.5,0.5,0.5,0.5,0.433803432866359,0.499928361759252,0.5,0.00160382335594766,0.5,0.00320764671189533,0.877411558812617,0.100551214690637,2.05372830251265,0.5,68.7409246164845
CBC_1087,CBC_1087_MSI_TV_v3_Vset2_Tset3_2024-03-23_11h27.59.968.csv,2,2,3,2,b,1,0,1,tac,D,63,1,3D,2D,1,0,z,2.41575089999787,0,1,0,0,2D,3D,D32,2.83321334405622,0.501603823355948,0.5,0.5,0.5,0.5,0.5,0.5,0.5,0.5,0.5,0.5,0.5,0.5,0.5,0.5,0.5,0.5,0.5,0.5,0.5,0.123162610686377,0.50009203986256,-0.5,-0.00160382335594766,0.5,0.00320764671189533,0.877411558812617,0.100551214690637,2.05372830251265,0.5,68.7409246164845
CBC_1087,CBC_1087_MSI_TV_v3_Vset2_Tset3_2024-03-23_11h27.59.968.csv,2,3,2,0,b,1,0,0,tac,C,27,1,2C,0C,NaN,NaN,None,NaN,NaN,NaN,NaN,NaN,,,C20,2.89037175789616,0.501603823355948,0.5,0.5,0.5,0.5,0.5,0.5,0.5,0.5,0.5,0.5,0.5,0.5,0.5,0.498396176644052,0.5,0,0,0,0,NaN,0,0,0,0.5,0.00320764671189533,0.877411558812617,0.100551214690637,2.05372830251265,0.5,68.7409246164845
CBC_1087,CBC_1087_MSI_TV_v3_Vset2_Tset3_2024-03-23_11h27.59.968.csv,2,4,1,0,z,0,1,2,tac,A,63,1,1A,0A,0,1,b,0.997775099998762,1,0,0,0,1A,0A,A10,2.2512917986065,0.501603823355948,0.5,0.5,0.5,0.5,0.5,0.5,0.5,0.5,0.5,0.5,0.5,0.5,0.5,0.498396176644052,0.5,0.499199372387291,0.500800627612709,0.5,0.501603823355948,0.123020168739482,0.50071783057136,-0.5,-0.00160382335594766,0.5,0.00320764671189533,0.877411558812617,0.100551214690637,2.05372830251265,0.5,68.7409246164845
CBC_1087,CBC_1087_MSI_TV_v3_Vset2_Tset3_2024-03-23_11h27.59.968.csv,2,5,3,1,z,0,1,3,tac,B,27,1,3B,1B,0,1,z,3.9083198999997,0,1,1,1,1B,3B,B31,2.99573227355399,0.501603823355948,0.498396176644052,0.5,0.5,0.5,0.5,0.5,0.5,0.5,0.5,0.5,0.5,0.5,0.5,0.498396176644052,0.5,0.5,0.5,0.5,0.5,0.0214903733628549,0.500289880191102,0.5,0.00160382335594766,0.5,0.00320764671189533,0.877411558812617,0.100551214690637,2.05372830251265,0.5,68.7409246164845
CBC_1087,CBC_1087_MSI_TV_v3_Vset2_Tset3_2024-03-23_11h27.59.968.csv,2,6,2,3,b,1,0,0,tac,C,63,1,2C,3C,1,0,z,1.30536649999885,0,1,0,0,3C,2C,C23,3.04452243772342,0.501603823355948,0.498396176644052,0.5,0.5,0.5,0.501603823355948,0.5,0.5,0.5,0.5,0.5,0.5,0.5,0.5,0.498396176644052,0.5,0.5,0.5,0.5,0.5,0.425941353818244,0.498995598320313,-0.5,-0.00160382335594766,0.5,0.00320764671189533,0.877411558812617,0.100551214690637,2.05372830251265,0.5,68.7409246164845
CBC_1087,CBC_1087_MSI_TV_v3_Vset2_Tset3_2024-03-23_11h27.59.968.csv,2,7,2,3,z,0,1,1,tac,D,63,1,2D,3D,0,1,z,2.25793309999972,0,1,1,1,3D,2D,D23,3.09104245335832,0.501603823355948,0.498396176644052,0.5,0.5,0.5,0.501603823355948,0.5,0.5,0.5,0.5,0.5,0.498396176644052,0.5,0.5,0.498396176644052,0.5,0.500803199868683,0.499196800131317,0.5,0.498396176644052,0.147983896153655,0.499571098113368,0.5,0.00160382335594766,0.5,0.00320764671189533,0.877411558812617,0.100551214690637,2.05372830251265,0.5,68.7409246164845
CBC_1087,CBC_1087_MSI_TV_v3_Vset2_Tset3_2024-03-23_11h27.59.968.csv,2,8,1,0,b,1,0,3,tac,B,63,1,1B,0B,1,0,b,2.0608902999993,1,0,1,1,1B,0B,B10,3.13549421592915,0.501603823355948,0.498396176644052,0.5,0.5,0.5,0.501603823355948,0.5,0.5,0.5,0.5,0.5,0.498396176644052,0.5,0.5,0.498396176644052,0.501603823355948,0.500800627612709,0.499199372387291,0.501603823355948,0.5,0.186241611725163,0.499292138897233,0.498396176644052,0.0015986788572335,0.5,0.00320764671189533,0.877411558812617,0.100551214690637,2.05372830251265,0.5,68.7409246164845
CBC_1087,CBC_1087_MSI_TV_v3_Vset2_Tset3_2024-03-23_11h27.59.968.csv,2,9,0,2,b,1,0,2,tac,A,27,1,0A,2A,1,0,z,1.06160669999917,0,1,0,0,2A,0A,A02,3.17805383034795,0.501603823355948,0.498396176644052,0.5,0.5,0.5,0.503202502213181,0.5,0.5,0.5,0.5,0.5,0.498396176644052,0.5,0.5,0.498396176644052,0.501603823355948,0.499199372387291,0.500800627612709,0.5,0.501603823355948,0.295610268742415,0.499197026497632,-0.5,-0.00160382335594766,0.5,0.00320764671189533,0.877411558812617,0.100551214690637,2.05372830251265,0.5,68.7409246164845
CBC_1087,CBC_1087_MSI_TV_v3_Vset2_Tset3_2024-03-23_11h27.59.968.csv,2,10,0,3,z,0,1,1,tac,D,9,1,0D,3D,0,1,z,1.48735059999854,0,1,1,1,3D,0D,D03,3.2188758248682,0.501603823355948,0.498396176644052,0.498396176644052,0.5,0.5,0.503202502213181,0.5,0.5,0.5,0.5,0.5,0.498396176644052,0.5,0.5,0.498396176644052,0.501603823355948,0.500800627612709,0.499199372387291,0.501603823355948,0.5,0.360604223591502,0.499116614510782,0.498396176644052,0.0015986788572335,0.5,0.00320764671189533,0.877411558812617,0.100551214690637,2.05372830251265,0.5,68.7409246164845
CBC_1087,CBC_1087_MSI_TV_v3_Vset2_Tset3_2024-03-23_11h27.59.968.csv,2,11,3,2,z,0,1,0,tac,C,63,1,3C,2C,0,1,b,1.27370259999952,1,0,0,0,3C,2C,C32,3.25809653802148,0.501603823355948,0.498396176644052,0.498396176644052,0.5,0.5,0.503202502213181,0.5,0.5,0.5,0.5,0.5,0.498396176644052,0.5,0.5,0.498396176644052,0.503202502213181,0.499196800131317,0.500803199868683,0.498396176644052,0.5,0.434136432267313,0.500046466599939,-0.498396176644052,-0.0015986788572335,0.5,0.00320764671189533,0.877411558812617,0.100551214690637,2.05372830251265,0.5,68.7409246164845
CBC_1087,CBC_1087_MSI_TV_v3_Vset2_Tset3_2024-03-23_11h27.59.968.csv,2,12,1,0,b,1,0,3,tac,B,63,1,1B,0B,1,0,z,1.70006610000019,0,1,0,0,0B,1B,B10,2.60268968544438,0.501603823355948,0.498396176644052,0.498396176644052,0.5,0.5,0.503202502213181,0.5,0.5,0.5,0.5,0.5,0.496797497786819,0.5,0.5,0.498396176644052,0.503202502213181,0.498403860533583,0.501596139466417,0.5,0.503202502213181,0.283944648085354,0.499734245532852,-0.5,-0.00160382335594766,0.5,0.00320764671189533,0.877411558812617,0.100551214690637,2.05372830251265,0.5,68.7409246164845
CBC_1087,CBC_1087_MSI_TV_v3_Vset2_Tset3_2024-03-23_11h27.59.968.csv,2,13,3,2,b,1,0,1,tac,D,63,1,3D,2D,1,0,b,1.8789917999984,1,0,1,1,3D,2D,D32,2.63905732961526,0.501603823355948,0.498396176644052,0.498396176644052,0.5,0.498396176644052,0.503202502213181,0.5,0.5,0.5,0.5,0.5,0.496797497786819,0.5,0.5,0.498396176644052,0.503202502213181,0.502399327031168,0.497600672968832,0.503202502213181,0.498396176644052,0.230989813035393,0.500650348987418,0.496797497786819,0.00159355086025372,0.5,0.00320764671189533,0.877411558812617,0.100551214690637,2.05372830251265,0.5,68.7409246164845
CBC_1087,CBC_1087_MSI_TV_v3_Vset2_Tset3_2024-03-23_11h27.59.968.csv,2,14,3,2,z,0,1,0,tac,C,63,1,3C,2C,0,1,b,1.63316479999958,1,0,0,0,3C,2C,C32,2.67414864942653,0.501603823355948,0.498396176644052,0.498396176644052,0.5,0.498396176644052,0.503202502213181,0.5,0.5,0.5,0.5,0.5,0.496797497786819,0.5,0.5,0.498396176644052,0.504796053073435,0.498393604407971,0.501606395592029,0.496797497786819,0.5,0.307155425143099,0.50047697842241,-0.496797497786819,-0.00159355086025372,0.5,0.00320764671189533,0.877411558812617,0.100551214690637,2.05372830251265,0.5,68.7409246164845
CBC_1087,CBC_1087_MSI_TV_v3_Vset2_Tset3_2024-03-23_11h27.59.968.csv,2,15,1,3,b,1,0,3,tac,B,27,1,1B,3B,1,0,z,2.50123659999917,0,1,0,0,3B,1B,B13,3.40119738166216,0.501603823355948,0.498396176644052,0.498396176644052,0.5,0.498396176644052,0.503202502213181,0.5,0.5,0.5,0.5,0.5,0.495203946926565,0.5,0.5,0.498396176644052,0.504796053073435,0.498403860533583,0.501596139466417,0.5,0.503202502213181,0.111582803985514,0.500732000929414,-0.5,-0.00160382335594766,0.5,0.00320764671189533,0.877411558812617,0.100551214690637,2.05372830251265,0.5,68.7409246164845
CBC_1087,CBC_1087_MSI_TV_v3_Vset2_Tset3_2024-03-23_11h27.59.968.csv,2,16,3,0,z,0,1,2,tac,A,9,1,3A,0A,0,1,b,1.55103459999918,1,0,0,0,3A,0A,A30,3.43398720448515,0.501603823355948,0.498396176644052,0.498396176644052,0.5,0.498396176644052,0.503202502213181,0.5,0.498396176644052,0.5,0.5,0.5,0.495203946926565,0.5,0.5,0.498396176644052,0.504796053073435,0.499199372387291,0.500800627612709,0.5,0.501603823355948,0.336851209596118,0.500050506874772,-0.5,-0.00160382335594766,0.5,0.00320764671189533,0.877411558812617,0.100551214690637,2.05372830251265,0.5,68.7409246164845
CBC_1087,CBC_1087_MSI_TV_v3_Vset2_Tset3_2024-03-23_11h27.59.968.csv,2,17,3,2,b,1,0,1,tac,D,63,1,3D,2D,1,0,z,2.55268350000006,0,1,0,0,2D,3D,D32,2.36712361413162,0.501603823355948,0.498396176644052,0.498396176644052,0.498396176644052,0.498396176644052,0.503202502213181,0.5,0.498396176644052,0.5,0.5,0.5,0.495203946926565,0.5,0.5,0.498396176644052,0.504796053073435,0.496810244218506,0.503189755781494,0.498396176644052,0.504796053073435,0.104846076747895,0.499690669888078,-0.498396176644052,-0.0015986788572335,0.5,0.00320764671189533,0.877411558812617,0.100551214690637,2.05372830251265,0.5,68.7409246164845
CBC_1087,CBC_1087_MSI_TV_v3_Vset2_Tset3_2024-03-23_11h27.59.968.csv,2,18,2,0,b,1,0,0,tac,C,27,1,2C,0C,1,0,z,1.98515760000009,0,1,0,0,0C,2C,C20,2.80336038090653,0.501603823355948,0.498396176644052,0.498396176644052,0.498396176644052,0.498396176644052,0.503202502213181,0.5,0.498396176644052,0.5,0.5,0.5,0.495203946926565,0.5,0.5,0.496797497786819,0.504796053073435,0.5,0.5,0.5,0.5,0.203901435097604,0.500308132597569,-0.5,-0.00160382335594766,0.5,0.00320764671189533,0.877411558812617,0.100551214690637,2.05372830251265,0.5,68.7409246164845
CBC_1087,CBC_1087_MSI_TV_v3_Vset2_Tset3_2024-03-23_11h27.59.968.csv,2,19,1,0,z,0,1,2,tac,A,63,1,1A,0A,0,1,b,1.43620290000035,1,0,0,0,1A,0A,A10,2.42774823594805,0.501603823355948,0.498396176644052,0.498396176644052,0.498396176644052,0.498396176644052,0.503202502213181,0.5,0.498396176644052,0.498396176644052,0.5,0.5,0.495203946926565,0.5,0.5,0.496797497786819,0.504796053073435,0.498396176644052,0.501603823355948,0.498396176644052,0.501603823355948,0.381080240109387,0.499903535584613,-0.498396176644052,-0.0015986788572335,0.5,0.00320764671189533,0.877411558812617,0.100551214690637,2.05372830251265,0.5,68.7409246164845
CBC_1087,CBC_1087_MSI_TV_v3_Vset2_Tset3_2024-03-23_11h27.59.968.csv,2,20,0,1,z,0,1,3,tac,B,63,0,0B,1B,1,0,z,1.27195219999885,0,1,1,0,1B,0B,B01,3.55534806148941,0.501603823355948,0.496797497786819,0.498396176644052,0.498396176644052,0.498396176644052,0.503202502213181,0.5,0.498396176644052,0.498396176644052,0.5,0.5,0.495203946926565,0.5,0.5,0.496797497786819,0.504796053073435,0.502399327031168,0.497600672968832,0.503202502213181,0.498396176644052,0.434009731047367,0.499530089334484,-0.503202502213181,-0.00161409585164161,0.5,0.00320764671189533,0.877411558812617,0.100551214690637,2.05372830251265,0.5,68.7409246164845
CBC_1087,CBC_1087_MSI_TV_v3_Vset2_Tset3_2024-03-23_11h27.59.968.csv,2,21,1,3,z,0,1,1,tac,D,27,1,1D,3D,0,1,b,2.40451889999895,1,0,0,0,1D,3D,D13,3.58351893845611,0.501603823355948,0.496797497786819,0.498396176644052,0.498396176644052,0.498396176644052,0.50158840636154,0.5,0.498396176644052,0.498396176644052,0.5,0.5,0.495203946926565,0.5,0.5,0.496797497786819,0.504796053073435,0.497613419629404,0.502386580370596,0.5,0.504796053073435,0.124756515437139,0.499950655861362,-0.5,-0.00160382335594766,0.5,0.00320764671189533,0.877411558812617,0.100551214690637,2.05372830251265,0.5,68.7409246164845
CBC_1087,CBC_1087_MSI_TV_v3_Vset2_Tset3_2024-03-23_11h27.59.968.csv,2,22,2,3,b,1,0,0,tac,C,63,1,2C,3C,1,0,z,2.82752409999921,0,1,0,0,3C,2C,C23,2.91777073208428,0.501603823355948,0.496797497786819,0.498396176644052,0.498396176644052,0.498396176644052,0.50158840636154,0.5,0.498396176644052,0.498396176644052,0.5,0.5,0.495203946926565,0.5,0.498396176644052,0.496797497786819,0.504796053073435,0.497590416975211,0.502409583024789,0.495203946926565,0.5,0.0760211192817011,0.499730339617539,-0.495203946926565,-0.00158843931207659,0.5,0.00320764671189533,0.877411558812617,0.100551214690637,2.05372830251265,0.5,68.7409246164845
CBC_1087,CBC_1087_MSI_TV_v3_Vset2_Tset3_2024-03-23_11h27.59.968.csv,2,23,1,0,b,1,0,3,tac,B,63,1,1B,0B,1,0,z,1.19705309999881,0,1,0,0,0B,1B,B10,2.53897387105828,0.501603823355948,0.496797497786819,0.498396176644052,0.498396176644052,0.498396176644052,0.50158840636154,0.5,0.498396176644052,0.498396176644052,0.5,0.5,0.493615507614489,0.5,0.498396176644052,0.496797497786819,0.504796053073435,0.498403860533583,0.501596139466417,0.498396176644052,0.50158840636154,0.435142969262059,0.499473558316834,-0.498396176644052,-0.0015986788572335,0.5,0.00320764671189533,0.877411558812617,0.100551214690637,2.05372830251265,0.5,68.7409246164845
CBC_1087,CBC_1087_MSI_TV_v3_Vset2_Tset3_2024-03-23_11h27.59.968.csv,2,24,2,0,z,0,1,2,tac,A,27,1,2A,0A,0,1,b,1.25033519999852,1,0,0,0,2A,0A,A20,3.66356164612965,0.501603823355948,0.496797497786819,0.498396176644052,0.498396176644052,0.496797497786819,0.50158840636154,0.5,0.498396176644052,0.498396176644052,0.5,0.5,0.493615507614489,0.5,0.498396176644052,0.496797497786819,0.504796053073435,0.498396176644052,0.501603823355948,0.498396176644052,0.501603823355948,0.437418061539259,0.499894309720567,-0.498396176644052,-0.0015986788572335,0.5,0.00320764671189533,0.877411558812617,0.100551214690637,2.05372830251265,0.5,68.7409246164845
CBC_1087,CBC_1087_MSI_TV_v3_Vset2_Tset3_2024-03-23_11h27.59.968.csv,2,25,2,3,z,0,1,1,tac,D,63,1,2D,3D,0,1,z,2.31154449999849,0,1,1,1,3D,2D,D23,2.99573227355399,0.501603823355948,0.496797497786819,0.496797497786819,0.498396176644052,0.496797497786819,0.50158840636154,0.5,0.498396176644052,0.498396176644052,0.5,0.5,0.493615507614489,0.5,0.498396176644052,0.496797497786819,0.504796053073435,0.503992914730604,0.496007085269396,0.504796053073435,0.496797497786819,0.139014476169467,0.499669384600916,0.495203946926565,0.00158843931207659,0.5,0.00320764671189533,0.877411558812617,0.100551214690637,2.05372830251265,0.5,68.7409246164845
CBC_1087,CBC_1087_MSI_TV_v3_Vset2_Tset3_2024-03-23_11h27.59.968.csv,2,26,2,0,b,1,0,0,tac,C,27,1,2C,0C,1,0,b,1.06158239999786,1,0,1,1,2C,0C,C20,2.6149597780362,0.501603823355948,0.496797497786819,0.496797497786819,0.498396176644052,0.496797497786819,0.50158840636154,0.5,0.498396176644052,0.498396176644052,0.5,0.5,0.493615507614489,0.5,0.498396176644052,0.496797497786819,0.506384492385512,0.500803199868683,0.499196800131317,0.5,0.498396176644052,0.296078272796043,0.500077758390725,0.5,0.00160382335594766,0.5,0.00320764671189533,0.877411558812617,0.100551214690637,2.05372830251265,0.5,68.7409246164845
CBC_1087,CBC_1087_MSI_TV_v3_Vset2_Tset3_2024-03-23_11h27.59.968.csv,2,27,1,0,b,1,0,3,tac,B,63,1,1B,0B,1,0,b,2.29405729999962,1,0,1,1,1B,0B,B10,2.35137525716348,0.501603823355948,0.496797497786819,0.496797497786819,0.498396176644052,0.496797497786819,0.50158840636154,0.5,0.498396176644052,0.498396176644052,0.5,0.501603823355948,0.493615507614489,0.5,0.498396176644052,0.496797497786819,0.506384492385512,0.502399327031168,0.497600672968832,0.50158840636154,0.496797497786819,0.142181470613907,0.500703397633729,0.49841159363846,0.00159872830950492,0.5,0.00320764671189533,0.877411558812617,0.100551214690637,2.05372830251265,0.5,68.7409246164845
CBC_1087,CBC_1087_MSI_TV_v3_Vset2_Tset3_2024-03-23_11h27.59.968.csv,2,28,0,1,b,1,0,2,tac,A,63,1,0A,1A,1,0,z,2.52652299999863,0,1,0,0,1A,0A,A01,3.76120011569356,0.501603823355948,0.496797497786819,0.496797497786819,0.498396176644052,0.496797497786819,0.503187134671044,0.5,0.498396176644052,0.498396176644052,0.5,0.501603823355948,0.493615507614489,0.5,0.498396176644052,0.496797497786819,0.506384492385512,0.497592989178126,0.502407010821874,0.496797497786819,0.501603823355948,0.108023757600048,0.499316415537774,-0.496797497786819,-0.00159355086025372,0.5,0.00320764671189533,0.877411558812617,0.100551214690637,2.05372830251265,0.5,68.7409246164845
CBC_1087,CBC_1087_MSI_TV_v3_Vset2_Tset3_2024-03-23_11h27.59.968.csv,2,29,3,2,z,0,1,0,tac,C,63,1,3C,2C,0,1,b,1.59981899999912,1,0,0,0,3C,2C,C32,2.68557734525015,0.501603823355948,0.495203946926565,0.496797497786819,0.498396176644052,0.496797497786819,0.503187134671044,0.5,0.498396176644052,0.498396176644052,0.5,0.501603823355948,0.493615507614489,0.5,0.498396176644052,0.496797497786819,0.506384492385512,0.495986655658271,0.504013344341729,0.493615507614489,0.501603823355948,0.318540061221098,0.499633684684926,-0.493615507614489,-0.00158334415994016,0.5,0.00320764671189533,0.877411558812617,0.100551214690637,2.05372830251265,0.5,68.7409246164845
CBC_1087,CBC_1087_MSI_TV_v3_Vset2_Tset3_2024-03-23_11h27.59.968.csv,2,30,3,1,b,1,0,1,tac,D,27,1,3D,1D,1,0,b,1.46088539999801,1,0,1,1,3D,1D,D31,3.80666248977032,0.501603823355948,0.495203946926565,0.496797497786819,0.498396176644052,0.496797497786819,0.503187134671044,0.5,0.498396176644052,0.498396176644052,0.5,0.501603823355948,0.492032163454548,0.5,0.498396176644052,0.496797497786819,0.506384492385512,0.503975153975232,0.496024846024767,0.506384492385512,0.498396176644052,0.372335453136132,0.501055889411949,0.493615507614488,0.00158334415994016,0.5,0.00320764671189533,0.877411558812617,0.100551214690637,2.05372830251265,0.5,68.7409246164845
CBC_1087,CBC_1087_MSI_TV_v3_Vset2_Tset3_2024-03-23_11h27.59.968.csv,2,31,1,0,z,0,1,2,tac,A,63,1,1A,0A,0,1,z,2.29312379999828,0,1,1,1,0A,1A,A10,2.4423470353692,0.501603823355948,0.495203946926565,0.496797497786819,0.498396176644052,0.496797497786819,0.503187134671044,0.5,0.498396176644052,0.498396176644052,0.5,0.501603823355948,0.492032163454548,0.5,0.498396176644052,0.496797497786819,0.507967836545452,0.503210185865409,0.496789814134591,0.501603823355948,0.495203946926565,0.142183111546733,0.500162467410742,0.498396176644052,0.0015986788572335,0.5,0.00320764671189533,0.877411558812617,0.100551214690637,2.05372830251265,0.5,68.7409246164845
CBC_1087,CBC_1087_MSI_TV_v3_Vset2_Tset3_2024-03-23_11h27.59.968.csv,2,32,3,2,b,1,0,1,tac,D,63,1,3D,2D,1,0,b,1.90724760000012,1,0,1,1,3D,2D,D32,2.46385324059017,0.503202502213181,0.495203946926565,0.496797497786819,0.498396176644052,0.496797497786819,0.503187134671044,0.5,0.498396176644052,0.498396176644052,0.5,0.501603823355948,0.492032163454548,0.5,0.498396176644052,0.496797497786819,0.507967836545452,0.505558680408723,0.494441319591277,0.507967836545452,0.496797497786819,0.223457616827249,0.500574328566757,0.492032163454548,0.00157826535125173,0.5,0.00320764671189533,0.877411558812617,0.100551214690637,2.05372830251265,0.5,68.7409246164845
CBC_1087,CBC_1087_MSI_TV_v3_Vset2_Tset3_2024-03-23_11h27.59.968.csv,2,33,2,1,z,0,1,3,tac,B,9,1,2B,1B,0,1,b,1.77786620000006,1,0,0,0,2B,1B,B21,3.87120101090789,0.503202502213181,0.495203946926565,0.496797497786819,0.498396176644052,0.496797497786819,0.503187134671044,0.5,0.498396176644052,0.498396176644052,0.5,0.501603823355948,0.492032163454548,0.5,0.498396176644052,0.496797497786819,0.509546101896703,0.498411495442428,0.501588504557572,0.5,0.503187134671044,0.259837225235995,0.500533631825917,-0.5,-0.00160382335594766,0.5,0.00320764671189533,0.877411558812617,0.100551214690637,2.05372830251265,0.5,68.7409246164845
CBC_1087,CBC_1087_MSI_TV_v3_Vset2_Tset3_2024-03-23_11h27.59.968.csv,2,34,1,0,z,0,1,2,tac,A,63,1,1A,0A,0,1,b,2.56297539999832,1,0,0,0,1A,0A,A10,2.28238238567653,0.503202502213181,0.495203946926565,0.496797497786819,0.498396176644052,0.496797497786819,0.503187134671044,0.498396176644052,0.498396176644052,0.498396176644052,0.5,0.501603823355948,0.492032163454548,0.5,0.498396176644052,0.496797497786819,0.509546101896703,0.49599433913237,0.504005660867629,0.495203946926565,0.503202502213181,0.103805761865459,0.500726141200267,-0.495203946926565,-0.00158843931207659,0.5,0.00320764671189533,0.877411558812617,0.100551214690637,2.05372830251265,0.5,68.7409246164845
CBC_1087,CBC_1087_MSI_TV_v3_Vset2_Tset3_2024-03-23_11h27.59.968.csv,2,35,2,1,b,1,0,0,tac,C,9,1,2C,1C,1,0,z,1.56365489999916,0,1,0,0,1C,2C,C21,3.91202300542815,0.503202502213181,0.493615507614489,0.496797497786819,0.498396176644052,0.496797497786819,0.503187134671044,0.498396176644052,0.498396176644052,0.498396176644052,0.5,0.501603823355948,0.492032163454548,0.5,0.498396176644052,0.496797497786819,0.509546101896703,0.499199372387291,0.500800627612709,0.5,0.501603823355948,0.331442078614412,0.499032913081648,-0.5,-0.00160382335594766,0.5,0.00320764671189533,0.877411558812617,0.100551214690637,2.05372830251265,0.5,68.7409246164845
CBC_1087,CBC_1087_MSI_TV_v3_Vset2_Tset3_2024-03-23_11h27.59.968.csv,2,36,1,0,b,1,0,3,tac,B,63,1,1B,0B,1,0,b,1.66563719999795,1,0,1,1,1B,0B,B10,2.32238772029023,0.503202502213181,0.493615507614489,0.496797497786819,0.498396176644052,0.496797497786819,0.503187134671044,0.498396176644052,0.498396176644052,0.498396176644052,0.498396176644052,0.501603823355948,0.492032163454548,0.5,0.498396176644052,0.496797497786819,0.509546101896703,0.503194867539374,0.496805132460626,0.503187134671044,0.496797497786819,0.295984110669168,0.500615576788736,0.496812865328956,0.00159360015389972,0.5,0.00320764671189533,0.877411558812617,0.100551214690637,2.05372830251265,0.5,68.7409246164845
CBC_1087,CBC_1087_MSI_TV_v3_Vset2_Tset3_2024-03-23_11h27.59.968.csv,2,37,0,1,b,1,0,2,tac,A,63,0,0A,1A,0,1,z,2.99437679999937,0,1,0,1,1A,0A,A01,3.25809653802148,0.503202502213181,0.493615507614489,0.496797497786819,0.498396176644052,0.496797497786819,0.504780734824944,0.498396176644052,0.498396176644052,0.498396176644052,0.498396176644052,0.501603823355948,0.492032163454548,0.5,0.498396176644052,0.496797497786819,0.509546101896703,0.495191201149972,0.504808798850028,0.493615507614489,0.503202502213181,0.0625281552033791,0.499641684841134,0.506384492385511,0.00162430255195517,0.5,0.00320764671189533,0.877411558812617,0.100551214690637,2.05372830251265,0.5,68.7409246164845
CBC_1087,CBC_1087_MSI_TV_v3_Vset2_Tset3_2024-03-23_11h27.59.968.csv,2,38,0,1,z,0,1,3,tac,B,63,1,0B,1B,0,1,b,1.25947589999851,1,0,0,0,0B,1B,B01,3.27714473299218,0.503202502213181,0.495239810166444,0.496797497786819,0.498396176644052,0.496797497786819,0.504780734824944,0.498396176644052,0.498396176644052,0.498396176644052,0.498396176644052,0.501603823355948,0.492032163454548,0.5,0.498396176644052,0.496797497786819,0.509546101896703,0.496014671256729,0.503985328743272,0.496797497786819,0.504780734824944,0.436241639344472,0.499803222317158,-0.496797497786819,-0.00159355086025372,0.5,0.00320764671189533,0.877411558812617,0.100551214690637,2.05372830251265,0.5,68.7409246164845
CBC_1087,CBC_1087_MSI_TV_v3_Vset2_Tset3_2024-03-23_11h27.59.968.csv,2,39,1,3,z,0,1,1,tac,D,27,1,1D,3D,0,1,b,2.35354069999994,1,0,0,0,1D,3D,D13,3.29583686600433,0.503202502213181,0.495239810166444,0.496797497786819,0.498396176644052,0.495203946926565,0.504780734824944,0.498396176644052,0.498396176644052,0.498396176644052,0.498396176644052,0.501603823355948,0.492032163454548,0.5,0.498396176644052,0.496797497786819,0.509546101896703,0.494468966383277,0.505531033616723,0.498396176644052,0.509546101896703,0.132357064997178,0.499698917891526,-0.498396176644052,-0.0015986788572335,0.5,0.00320764671189533,0.877411558812617,0.100551214690637,2.05372830251265,0.5,68.7409246164845
CBC_1087,CBC_1087_MSI_TV_v3_Vset2_Tset3_2024-03-23_11h27.59.968.csv,2,40,3,2,z,0,1,0,tac,C,63,1,3C,2C,0,1,b,1.41605460000028,1,0,0,0,3C,2C,C32,2.62103882411258,0.503202502213181,0.495239810166444,0.496797497786819,0.498396176644052,0.495203946926565,0.504780734824944,0.498396176644052,0.498396176644052,0.498396176644052,0.498396176644052,0.501603823355948,0.492032163454548,0.5,0.496797497786819,0.496797497786819,0.509546101896703,0.495183517893649,0.504816482106351,0.492032163454548,0.501603823355948,0.388228159899268,0.499104821000111,-0.492032163454548,-0.00157826535125173,0.5,0.00320764671189533,0.877411558812617,0.100551214690637,2.05372830251265,0.5,68.7409246164845
CBC_1087,CBC_1087_MSI_TV_v3_Vset2_Tset3_2024-03-23_11h27.59.968.csv,2,41,0,2,b,1,0,2,tac,A,27,1,0A,2A,1,0,z,1.46984939999857,0,1,0,0,2A,0A,A02,3.3322045101752,0.503202502213181,0.495239810166444,0.496797497786819,0.498396176644052,0.495203946926565,0.504780734824944,0.498396176644052,0.498396176644052,0.498396176644052,0.498396176644052,0.501603823355948,0.490453898103297,0.5,0.496797497786819,0.496797497786819,0.509546101896703,0.496797497786819,0.503202502213181,0.496797497786819,0.503202502213181,0.367743015467356,0.499574742268159,-0.496797497786819,-0.00159355086025372,0.5,0.00320764671189533,0.877411558812617,0.100551214690637,2.05372830251265,0.5,68.7409246164845
CBC_1087,CBC_1087_MSI_TV_v3_Vset2_Tset3_2024-03-23_11h27.59.968.csv,2,42,2,3,z,0,1,1,tac,D,63,1,2D,3D,0,1,b,3.96602709999934,1,0,0,0,2D,3D,D23,2.94443897916644,0.503202502213181,0.495239810166444,0.495203946926565,0.498396176644052,0.495203946926565,0.504780734824944,0.498396176644052,0.498396176644052,0.498396176644052,0.498396176644052,0.501603823355948,0.490453898103297,0.5,0.496797497786819,0.496797497786819,0.509546101896703,0.493665879072568,0.506334120927432,0.496797497786819,0.509546101896703,0.0200781084908208,0.500060702856717,-0.496797497786819,-0.00159355086025372,0.5,0.00320764671189533,0.877411558812617,0.100551214690637,2.05372830251265,0.5,68.7409246164845
CBC_1087,CBC_1087_MSI_TV_v3_Vset2_Tset3_2024-03-23_11h27.59.968.csv,2,43,1,3,b,1,0,3,tac,B,27,1,1B,3B,1,0,b,1.71377960000063,1,0,1,1,1B,3B,B13,3.36729582998647,0.503202502213181,0.495239810166444,0.495203946926565,0.498396176644052,0.495203946926565,0.504780734824944,0.498396176644052,0.498396176644052,0.498396176644052,0.498396176644052,0.501603823355948,0.490453898103297,0.5,0.496797497786819,0.495203946926565,0.509546101896703,0.503182169619286,0.496817830380714,0.504780734824944,0.498396176644052,0.279433708821041,0.499667595367566,0.495219265175056,0.00158848844760599,0.5,0.00320764671189533,0.877411558812617,0.100551214690637,2.05372830251265,0.5,68.7409246164845
CBC_1087,CBC_1087_MSI_TV_v3_Vset2_Tset3_2024-03-23_11h27.59.968.csv,2,44,3,2,z,0,1,0,tac,C,63,1,3C,2C,0,1,z,1.98507759999848,0,1,1,1,2C,3C,C32,2.46809953147162,0.503202502213181,0.495239810166444,0.495203946926565,0.498396176644052,0.495203946926565,0.50636922327255,0.498396176644052,0.498396176644052,0.498396176644052,0.498396176644052,0.501603823355948,0.490453898103297,0.5,0.496797497786819,0.495203946926565,0.509546101896703,0.505619595015223,0.494380404984777,0.501603823355948,0.490453898103297,0.204084857836254,0.500711380202341,0.498396176644052,0.0015986788572335,0.5,0.00320764671189533,0.877411558812617,0.100551214690637,2.05372830251265,0.5,68.7409246164845
CBC_1087,CBC_1087_MSI_AV_v3_Vset4_Aset2_2024-03-23_11h37.29.616.csv,3,1,2,0,b,1,0,0,aud,C,27,1,2C,0C,1,0,b,2.53621510000085,1,0,1,1,2C,0C,C20,2.77258872223978,0.5,0.5,0.5,0.5,0.5,0.5,0.5,0.5,0.5,0.5,0.5,0.5,0.5,0.5,0.5,0.5,0.5,0.5,0.5,0.5,0.101981121539499,0.499844599014984,0.5,0.479441289377365,0.5,0.958882578754729,0.893439256181205,0.463438874414443,1.98621333971149,0.5,61.5093245488697
CBC_1087,CBC_1087_MSI_AV_v3_Vset4_Aset2_2024-03-23_11h37.29.616.csv,3,2,3,2,b,1,0,1,aud,D,63,1,3D,2D,1,0,b,2.36487320000197,1,0,1,1,3D,2D,D32,2.83321334405622,0.5,0.5,0.5,0.5,0.5,0.5,0.5,0.5,0.5,0.5,0.979441289377365,0.5,0.5,0.5,0.5,0.5,0.5,0.5,0.5,0.5,0.126580764636646,0.500727618525448,0.5,0.479441289377365,0.5,0.958882578754729,0.893439256181205,0.463438874414443,1.98621333971149,0.5,61.5093245488697
CBC_1087,CBC_1087_MSI_AV_v3_Vset4_Aset2_2024-03-23_11h37.29.616.csv,3,3,1,0,z,0,1,2,aud,A,63,1,1A,0A,0,1,z,1.61558450000121,0,1,1,1,0A,1A,A10,2.89037175789616,0.5,0.5,0.5,0.5,0.5,0.5,0.5,0.5,0.5,0.5,0.979441289377365,0.5,0.5,0.5,0.5,0.979441289377365,0.5,0.5,0.5,0.5,0.322265873223003,0.5004286087968,0.5,0.479441289377365,0.5,0.958882578754729,0.893439256181205,0.463438874414443,1.98621333971149,0.5,61.5093245488697
CBC_1087,CBC_1087_MSI_AV_v3_Vset4_Aset2_2024-03-23_11h37.29.616.csv,3,4,2,3,b,1,0,0,aud,C,63,1,2C,3C,1,0,b,1.15058760000284,1,0,1,1,2C,3C,C23,2.94443897916644,0.979441289377365,0.5,0.5,0.5,0.5,0.5,0.5,0.5,0.5,0.5,0.979441289377365,0.5,0.5,0.5,0.5,0.979441289377365,0.662034577789546,0.337965422210454,0.979441289377365,0.5,0.516527323568029,0.573779934720493,0.0205587106226353,0.0197133894577047,0.5,0.958882578754729,0.893439256181205,0.463438874414443,1.98621333971149,0.5,61.5093245488697
CBC_1087,CBC_1087_MSI_AV_v3_Vset4_Aset2_2024-03-23_11h37.29.616.csv,3,5,0,2,b,1,0,2,aud,A,27,1,0A,2A,1,0,b,1.58631000000059,1,0,1,1,0A,2A,A02,2.99573227355399,0.979441289377365,0.5,0.5,0.5,0.5,0.5,0.5,0.5,0.5,0.5,0.999154678835069,0.5,0.5,0.5,0.5,0.979441289377365,0.662034577789546,0.337965422210454,0.979441289377365,0.5,0.384336601253591,0.573911101448351,0.0205587106226353,0.0197133894577047,0.5,0.958882578754729,0.893439256181205,0.463438874414443,1.98621333971149,0.5,61.5093245488697
CBC_1087,CBC_1087_MSI_AV_v3_Vset4_Aset2_2024-03-23_11h37.29.616.csv,3,6,2,3,z,0,1,1,aud,D,63,1,2D,3D,0,1,z,1.52291050000167,0,1,1,1,3D,2D,D23,3.04452243772342,0.999154678835069,0.5,0.5,0.5,0.5,0.5,0.5,0.5,0.5,0.5,0.999154678835069,0.5,0.5,0.5,0.5,0.979441289377365,0.662034577789546,0.337965422210454,0.979441289377365,0.5,0.414929933861792,0.573464571531265,0.0205587106226353,0.0197133894577047,0.5,0.958882578754729,0.893439256181205,0.463438874414443,1.98621333971149,0.5,61.5093245488697
CBC_1087,CBC_1087_MSI_AV_v3_Vset4_Aset2_2024-03-23_11h37.29.616.csv,3,7,3,2,b,1,0,1,aud,D,63,1,3D,2D,1,0,b,1.5159719000003,1,0,1,1,3D,2D,D32,2.39789527279837,0.999154678835069,0.5,0.5,0.5,0.5,0.5,0.5,0.5,0.5,0.5,0.999154678835069,0.5,0.5,0.5,0.5,0.999154678835069,0.666478711597306,0.333521288402694,0.999154678835069,0.5,0.420617065933173,0.576303768702091,0.000845321164930524,0.000810563738504533,0.5,0.958882578754729,0.893439256181205,0.463438874414443,1.98621333971149,0.5,61.5093245488697
CBC_1087,CBC_1087_MSI_AV_v3_Vset4_Aset2_2024-03-23_11h37.29.616.csv,3,8,3,1,z,0,1,3,aud,B,27,1,3B,1B,0,1,b,2.35790220000126,1,0,0,0,3B,1B,B31,3.13549421592915,0.999154678835069,0.5,0.5,0.5,0.5,0.5,0.5,0.5,0.5,0.5,0.999154678835069,0.5,0.5,0.5,0.5,0.999965242573574,0.5,0.5,0.5,0.5,0.127477045743252,0.499894801271278,-0.5,-0.479441289377365,0.5,0.958882578754729,0.893439256181205,0.463438874414443,1.98621333971149,0.5,61.5093245488697
CBC_1087,CBC_1087_MSI_AV_v3_Vset4_Aset2_2024-03-23_11h37.29.616.csv,3,9,0,3,z,0,1,1,aud,D,9,1,0D,3D,0,1,z,2.43443300000035,0,1,1,1,3D,0D,D03,3.17805383034795,0.999154678835069,0.5,0.5,0.5,0.5,0.5,0.5,0.0205587106226353,0.5,0.5,0.999154678835069,0.5,0.5,0.5,0.5,0.999965242573574,0.666658942615149,0.333341057384851,0.999965242573574,0.5,0.132488512044738,0.575502993242348,3.4757426426002e-05,3.33282906822426e-05,0.5,0.958882578754729,0.893439256181205,0.463438874414443,1.98621333971149,0.5,61.5093245488697
CBC_1087,CBC_1087_MSI_AV_v3_Vset4_Aset2_2024-03-23_11h37.29.616.csv,3,10,1,0,b,1,0,3,aud,B,63,1,1B,0B,1,0,b,2.30535450000025,1,0,1,1,1B,0B,B10,3.2188758248682,0.999154678835069,0.5,0.5,0.5,0.5,0.5,0.5,0.0205587106226353,0.5,0.5,0.999154678835069,0.5,0.5,0.5,0.5,0.999998570864256,0.5,0.5,0.5,0.5,0.135910632801141,0.499061508124521,0.5,0.479441289377365,0.5,0.958882578754729,0.893439256181205,0.463438874414443,1.98621333971149,0.5,61.5093245488697
CBC_1087,CBC_1087_MSI_AV_v3_Vset4_Aset2_2024-03-23_11h37.29.616.csv,3,11,1,0,z,0,1,2,aud,A,63,1,1A,0A,0,1,b,2.64063300000089,1,0,0,0,1A,0A,A10,2.56494935746154,0.999154678835069,0.5,0.5,0.5,0.5,0.979441289377365,0.5,0.0205587106226353,0.5,0.5,0.999154678835069,0.5,0.5,0.5,0.5,0.999998570864256,0.333521288402694,0.666478711597306,0.5,0.999154678835069,0.0752032032751159,0.423878162846646,-0.5,-0.479441289377365,0.5,0.958882578754729,0.893439256181205,0.463438874414443,1.98621333971149,0.5,61.5093245488697
CBC_1087,CBC_1087_MSI_AV_v3_Vset4_Aset2_2024-03-23_11h37.29.616.csv,3,12,0,1,z,0,1,3,aud,B,63,1,0B,1B,NaN,NaN,[],NaN,NaN,NaN,NaN,NaN,,,B01,3.29583686600433,0.999154678835069,0.0205587106226353,0.5,0.5,0.5,0.979441289377365,0.5,0.0205587106226353,0.5,0.5,0.999154678835069,0.5,0.5,0.5,0.5,0.999998570864256,0,0,0,0,NaN,0,0,0,0.5,0.958882578754729,0.893439256181205,0.463438874414443,1.98621333971149,0.5,61.5093245488697
CBC_1087,CBC_1087_MSI_AV_v3_Vset4_Aset2_2024-03-23_11h37.29.616.csv,3,13,2,3,z,0,1,1,aud,D,63,1,2D,3D,0,1,b,2.34596180000153,1,0,0,0,2D,3D,D23,2.63905732961526,0.999154678835069,0.0205587106226353,0.5,0.5,0.5,0.979441289377365,0.5,0.0205587106226353,0.5,0.5,0.999154678835069,0.5,0.5,0.5,0.5,0.999998570864256,0.333333650919357,0.666666349080643,0.5,0.999998570864256,0.109081141506335,0.423791444661964,-0.5,-0.479441289377365,0.5,0.958882578754729,0.893439256181205,0.463438874414443,1.98621333971149,0.5,61.5093245488697
CBC_1087,CBC_1087_MSI_AV_v3_Vset4_Aset2_2024-03-23_11h37.29.616.csv,3,14,1,3,b,1,0,3,aud,B,27,1,1B,3B,1,0,b,1.57588430000214,1,0,1,1,1B,3B,B13,3.36729582998647,0.999154678835069,0.0205587106226353,0.5,0.5,0.5,0.979441289377365,0.5,0.0205587106226353,0.5,0.5,0.999154678835069,0.5,0.5,0.5,0.0205587106226353,0.999998570864256,0.979441289377365,0.0205587106226353,0.979441289377365,0.0205587106226353,0.491608059011254,0.707745421706885,0.0205587106226353,0.0197133894577047,0.5,0.958882578754729,0.893439256181205,0.463438874414443,1.98621333971149,0.5,61.5093245488697
CBC_1087,CBC_1087_MSI_AV_v3_Vset4_Aset2_2024-03-23_11h37.29.616.csv,3,15,3,2,z,0,1,0,aud,C,63,1,3C,2C,0,1,z,1.92889800000012,0,1,1,1,2C,3C,C32,3.40119738166216,0.999154678835069,0.0205587106226353,0.5,0.5,0.5,0.999154678835069,0.5,0.0205587106226353,0.5,0.5,0.999154678835069,0.5,0.5,0.5,0.0205587106226353,0.999998570864256,0.666478711597306,0.333521288402694,0.999154678835069,0.5,0.251183856007154,0.576365468792322,0.000845321164930524,0.000810563738504533,0.5,0.958882578754729,0.893439256181205,0.463438874414443,1.98621333971149,0.5,61.5093245488697
CBC_1087,CBC_1087_MSI_AV_v3_Vset4_Aset2_2024-03-23_11h37.29.616.csv,3,16,2,0,b,1,0,0,aud,C,27,1,2C,0C,1,0,b,1.42072209999969,1,0,1,1,2C,0C,C20,2.7408400239252,0.999154678835069,0.0205587106226353,0.5,0.5,0.5,0.999154678835069,0.5,0.0205587106226353,0.5,0.5,0.999965242573574,0.5,0.5,0.5,0.0205587106226353,0.999998570864256,0.666658942615149,0.333341057384851,0.999965242573574,0.5,0.469331410467274,0.57567477228046,3.4757426426002e-05,3.33282906822426e-05,0.5,0.958882578754729,0.893439256181205,0.463438874414443,1.98621333971149,0.5,61.5093245488697
CBC_1087,CBC_1087_MSI_AV_v3_Vset4_Aset2_2024-03-23_11h37.29.616.csv,3,17,0,3,b,1,0,2,aud,A,9,1,0A,3A,1,0,b,1.53041470000062,1,0,1,1,0A,3A,A03,3.46573590279973,0.999154678835069,0.0205587106226353,0.5,0.5,0.5,0.999154678835069,0.5,0.0205587106226353,0.5,0.5,0.999998570864256,0.5,0.5,0.5,0.0205587106226353,0.999998570864256,0.666478711597306,0.333521288402694,0.999154678835069,0.5,0.412812969285763,0.575605393160854,0.000845321164930524,0.000810563738504533,0.5,0.958882578754729,0.893439256181205,0.463438874414443,1.98621333971149,0.5,61.5093245488697
CBC_1087,CBC_1087_MSI_AV_v3_Vset4_Aset2_2024-03-23_11h37.29.616.csv,3,18,2,3,b,1,0,0,aud,C,63,0,2C,3C,0,1,b,4.52145209999981,1,0,1,0,2C,3C,C23,2.80336038090653,0.999965242573574,0.0205587106226353,0.5,0.5,0.5,0.999154678835069,0.5,0.0205587106226353,0.5,0.5,0.999998570864256,0.5,0.5,0.5,0.0205587106226353,0.999998570864256,0.666666349080643,0.333333650919357,0.999998570864256,0.5,0.00950280754937972,0.575741883501257,-0.999998570864256,-0.958881208381362,0.5,0.958882578754729,0.893439256181205,0.463438874414443,1.98621333971149,0.5,61.5093245488697
CBC_1087,CBC_1087_MSI_AV_v3_Vset4_Aset2_2024-03-23_11h37.29.616.csv,3,19,1,0,z,0,1,2,aud,A,63,1,1A,0A,0,1,z,1.49226940000153,0,1,1,1,0A,1A,A10,2.42774823594805,0.999965242573574,0.0205587106226353,0.5,0.5,0.5,0.999154678835069,0.5,0.0205587106226353,0.5,0.5,0.0411173624828941,0.5,0.5,0.5,0.0205587106226353,0.999998570864256,0.979854749554631,0.0201452504453686,0.999965242573574,0.0205587106226353,0.547466323110702,0.707183399751982,3.4757426426002e-05,3.33282906822426e-05,0.5,0.958882578754729,0.893439256181205,0.463438874414443,1.98621333971149,0.5,61.5093245488697
CBC_1087,CBC_1087_MSI_AV_v3_Vset4_Aset2_2024-03-23_11h37.29.616.csv,3,20,3,2,b,1,0,1,aud,D,63,1,3D,2D,1,0,b,1.36861070000123,1,0,1,1,3D,2D,D32,2.4567357728213,0.999998570864256,0.0205587106226353,0.5,0.5,0.5,0.999154678835069,0.5,0.0205587106226353,0.5,0.5,0.0411173624828941,0.5,0.5,0.5,0.0205587106226353,0.999998570864256,0.979855407437119,0.0201445925628814,0.999998570864256,0.0205587106226353,0.63462536955509,0.706923237549327,1.42913574374681e-06,1.3703733673545e-06,0.5,0.958882578754729,0.893439256181205,0.463438874414443,1.98621333971149,0.5,61.5093245488697
CBC_1087,CBC_1087_MSI_AV_v3_Vset4_Aset2_2024-03-23_11h37.29.616.csv,3,21,3,2,z,0,1,0,aud,C,63,1,3C,2C,0,1,b,1.93901780000124,1,0,0,0,3C,2C,C32,2.89037175789616,0.999998570864256,0.0205587106226353,0.5,0.5,0.5,0.999154678835069,0.5,0.0205587106226353,0.5,0.5,0.0411173624828941,0.5,0.5,0.5,0.0205587106226353,0.999999941237624,0.924013965668688,0.0759860343313118,0.5,0.0411173624828941,0.293206339725305,0.685284425054299,-0.5,-0.479441289377365,0.5,0.958882578754729,0.893439256181205,0.463438874414443,1.98621333971149,0.5,61.5093245488697
CBC_1087,CBC_1087_MSI_AV_v3_Vset4_Aset2_2024-03-23_11h37.29.616.csv,3,22,3,1,b,1,0,1,aud,D,27,1,3D,1D,1,0,z,1.51352620000216,0,1,0,0,1D,3D,D31,3.61091791264422,0.999998570864256,0.0205587106226353,0.5,0.5,0.5,0.999154678835069,0.5,0.0205587106226353,0.5,0.5,0.0411173624828941,0.0205587106226353,0.5,0.5,0.0205587106226353,0.999999941237624,0.33333334639164,0.66666665360836,0.5,0.999999941237624,0.31028651539278,0.423896689258089,-0.5,-0.479441289377365,0.5,0.958882578754729,0.893439256181205,0.463438874414443,1.98621333971149,0.5,61.5093245488697
CBC_1087,CBC_1087_MSI_AV_v3_Vset4_Aset2_2024-03-23_11h37.29.616.csv,3,23,0,1,b,1,0,2,aud,A,63,1,0A,1A,1,0,b,4.00899350000145,1,0,1,1,0A,1A,A01,3.63758615972639,0.999998570864256,0.0205587106226353,0.5,0.5,0.5,0.999154678835069,0.5,0.0205587106226353,0.5,0.5,0.0411173624828941,0.0205587106226353,0.5,0.0205587106226353,0.0205587106226353,0.999999941237624,0.979855407437119,0.0201445925628814,0.999998570864256,0.0205587106226353,0.0184653139897046,0.708017391906621,1.42913574374681e-06,1.3703733673545e-06,0.5,0.958882578754729,0.893439256181205,0.463438874414443,1.98621333971149,0.5,61.5093245488697
CBC_1087,CBC_1087_MSI_AV_v3_Vset4_Aset2_2024-03-23_11h37.29.616.csv,3,24,3,2,z,0,1,0,aud,C,63,1,3C,2C,0,1,b,2.60357310000109,1,0,0,0,3C,2C,C32,2.56494935746154,0.999999941237624,0.0205587106226353,0.5,0.5,0.5,0.999154678835069,0.5,0.0205587106226353,0.5,0.5,0.0411173624828941,0.0205587106226353,0.5,0.0205587106226353,0.0205587106226353,0.999999941237624,0.333333650919357,0.666666349080643,0.0205587106226353,0.0411173624828941,0.0789152100843492,0.424411070485982,-0.0205587106226353,-0.0197133894577047,0.5,0.958882578754729,0.893439256181205,0.463438874414443,1.98621333971149,0.5,61.5093245488697
CBC_1087,CBC_1087_MSI_AV_v3_Vset4_Aset2_2024-03-23_11h37.29.616.csv,3,25,0,2,b,1,0,2,aud,A,27,1,0A,2A,1,0,z,1.9151477000014,0,1,0,0,2A,0A,A02,2.99573227355399,0.999999941237624,0.0205587106226353,0.5,0.5,0.5,0.999154678835069,0.5,0.0205587106226353,0.5,0.5,0.0411173624828941,0.00084532116493051,0.5,0.0205587106226353,0.0205587106226353,0.999999941237624,0.33333334639164,0.66666665360836,0.5,0.999999941237624,0.187915670533571,0.423772574052585,-0.5,-0.479441289377365,0.5,0.958882578754729,0.893439256181205,0.463438874414443,1.98621333971149,0.5,61.5093245488697
CBC_1087,CBC_1087_MSI_AV_v3_Vset4_Aset2_2024-03-23_11h37.29.616.csv,3,26,1,0,b,1,0,3,aud,B,63,1,1B,0B,1,0,b,1.7541927000002,1,0,1,1,1B,0B,B10,3.02042488614436,0.999999941237624,0.0205587106226353,0.0205587106226353,0.5,0.5,0.999154678835069,0.5,0.0205587106226353,0.5,0.5,0.0411173624828941,0.00084532116493051,0.5,0.0205587106226353,0.0205587106226353,0.999999941237624,0.666478711597306,0.333521288402694,0.999154678835069,0.5,0.312852386838318,0.576005178679849,0.000845321164930524,0.000810563738504533,0.5,0.958882578754729,0.893439256181205,0.463438874414443,1.98621333971149,0.5,61.5093245488697
CBC_1087,CBC_1087_MSI_AV_v3_Vset4_Aset2_2024-03-23_11h37.29.616.csv,3,27,0,1,z,0,1,3,aud,B,63,1,0B,1B,0,1,b,1.7206911000012,1,0,0,0,0B,1B,B01,3.04452243772342,0.999999941237624,0.0205587106226353,0.0205587106226353,0.5,0.5,0.999965242573574,0.5,0.0205587106226353,0.5,0.5,0.0411173624828941,0.00084532116493051,0.5,0.0205587106226353,0.0205587106226353,0.999999941237624,0.333341057384851,0.666658942615149,0.5,0.999965242573574,0.240511329491645,0.42457645817001,-0.5,-0.479441289377365,0.5,0.958882578754729,0.893439256181205,0.463438874414443,1.98621333971149,0.5,61.5093245488697
CBC_1087,CBC_1087_MSI_AV_v3_Vset4_Aset2_2024-03-23_11h37.29.616.csv,3,28,3,2,z,0,1,0,aud,C,63,1,3C,2C,0,1,z,1.03946859999996,0,1,1,1,2C,3C,C32,2.37490575457367,0.999999941237624,0.0205587106226353,0.0205587106226353,0.5,0.0205587106226353,0.999965242573574,0.5,0.0205587106226353,0.5,0.5,0.0411173624828941,0.00084532116493051,0.5,0.0205587106226353,0.0205587106226353,0.999999941237624,0.979855407437119,0.0201445925628813,0.0411173624828941,0.00084532116493051,0.372467546730649,0.708411000901543,0.958882637517106,0.919455856185539,0.5,0.958882578754729,0.893439256181205,0.463438874414443,1.98621333971149,0.5,61.5093245488697
CBC_1087,CBC_1087_MSI_AV_v3_Vset4_Aset2_2024-03-23_11h37.29.616.csv,3,29,3,1,b,1,0,1,aud,D,27,1,3D,1D,1,0,b,1.62198900000112,1,0,1,1,3D,1D,D31,3.09104245335832,0.999999941237624,0.0205587106226353,0.0205587106226353,0.5,0.0205587106226353,0.999965242573574,0.5,0.0205587106226353,0.5,0.5,0.960573218668433,0.00084532116493051,0.5,0.0205587106226353,0.0205587106226353,0.999999941237624,0.97985543448663,0.0201445655133697,0.999999941237624,0.0205587106226353,0.462101155503278,0.707218646102022,5.87623764092271e-08,5.63462190250358e-08,0.5,0.958882578754729,0.893439256181205,0.463438874414443,1.98621333971149,0.5,61.5093245488697
CBC_1087,CBC_1087_MSI_AV_v3_Vset4_Aset2_2024-03-23_11h37.29.616.csv,3,30,1,2,z,0,1,0,aud,C,9,1,1C,2C,0,1,b,2.96121210000092,1,0,0,0,1C,2C,C12,3.80666248977032,0.999999941237624,0.0205587106226353,0.0205587106226353,0.5,0.0205587106226353,0.999965242573574,0.5,0.0205587106226353,0.5,0.5,0.960573218668433,0.00084532116493051,0.5,0.0205587106226353,0.0205587106226353,0.999999997583843,0.342331348821963,0.657668651178037,0.5,0.960573218668433,0.0506930798666148,0.427761400607627,-0.5,-0.479441289377365,0.5,0.958882578754729,0.893439256181205,0.463438874414443,1.98621333971149,0.5,61.5093245488697
CBC_1087,CBC_1087_MSI_AV_v3_Vset4_Aset2_2024-03-23_11h37.29.616.csv,3,31,3,1,z,0,1,3,aud,B,27,1,3B,1B,0,1,z,1.25522680000176,0,1,1,1,1B,3B,B31,3.13549421592915,0.999999941237624,0.0205587106226353,0.0205587106226353,0.5,0.0205587106226353,0.999965242573574,0.5,0.0205587106226353,0.5,0.0205587106226353,0.960573218668433,0.00084532116493051,0.5,0.0205587106226353,0.0205587106226353,0.999999997583843,0.979854749554631,0.0201452504453686,0.999965242573574,0.0205587106226353,0.698818552500894,0.707339603777157,3.4757426426002e-05,3.33282906822426e-05,0.5,0.958882578754729,0.893439256181205,0.463438874414443,1.98621333971149,0.5,61.5093245488697
CBC_1087,CBC_1087_MSI_AV_v3_Vset4_Aset2_2024-03-23_11h37.29.616.csv,3,32,3,2,b,1,0,1,aud,D,63,1,3D,2D,1,0,b,1.56630050000058,1,0,1,1,3D,2D,D32,2.46385324059017,0.999999941237624,0.0205587106226353,0.0205587106226353,0.5,0.0205587106226353,0.999998570864256,0.5,0.0205587106226353,0.5,0.0205587106226353,0.960573218668433,0.00084532116493051,0.5,0.0205587106226353,0.0205587106226353,0.999999997583843,0.979855435598835,0.0201445644011651,0.999999997583843,0.0205587106226353,0.497269403924655,0.707057978053787,2.41615738527656e-09,2.31681122427127e-09,0.5,0.958882578754729,0.893439256181205,0.463438874414443,1.98621333971149,0.5,61.5093245488697
CBC_1087,CBC_1087_MSI_AV_v3_Vset4_Aset2_2024-03-23_11h37.29.616.csv,3,33,0,1,z,0,1,3,aud,B,63,1,0B,1B,0,1,b,2.31726560000061,1,0,0,0,0B,1B,B01,2.77258872223978,0.999999941237624,0.0205587106226353,0.0205587106226353,0.5,0.0205587106226353,0.999998570864256,0.5,0.0205587106226353,0.5,0.0205587106226353,0.960573218668433,0.00084532116493051,0.5,0.0205587106226353,0.0205587106226353,0.999999999900654,0.0201445925628814,0.979855407437119,0.0205587106226353,0.999998570864256,0.0749973851051046,0.292727496673803,-0.0205587106226353,-0.0197133894577047,0.5,0.958882578754729,0.893439256181205,0.463438874414443,1.98621333971149,0.5,61.5093245488697
CBC_1087,CBC_1087_MSI_AV_v3_Vset4_Aset2_2024-03-23_11h37.29.616.csv,3,34,1,0,z,0,1,2,aud,A,63,0,1A,0A,1,0,z,1.61048540000047,0,1,1,0,0A,1A,A10,2.50552593699074,0.999999941237624,0.0205587106226353,0.0205587106226353,0.5,0.00084532116493051,0.999998570864256,0.5,0.0205587106226353,0.5,0.0205587106226353,0.960573218668433,0.00084532116493051,0.5,0.0205587106226353,0.0205587106226353,0.999999999900654,0.97985543448663,0.0201445655133697,0.999999941237624,0.0205587106226353,0.469466123083178,0.707547071366549,-0.999999941237624,-0.95888252240851,0.5,0.958882578754729,0.893439256181205,0.463438874414443,1.98621333971149,0.5,61.5093245488697
CBC_1087,CBC_1087_MSI_AV_v3_Vset4_Aset2_2024-03-23_11h37.29.616.csv,3,35,2,3,b,1,0,0,aud,C,63,1,2C,3C,1,0,b,1.13476850000188,1,0,1,1,2C,3C,C23,2.81341071676004,0.0411174188291131,0.0205587106226353,0.0205587106226353,0.5,0.00084532116493051,0.999998570864256,0.5,0.0205587106226353,0.5,0.0205587106226353,0.960573218668433,0.00084532116493051,0.5,0.0205587106226353,0.0205587106226353,0.999999999900654,0.999120756330456,0.00087924366954378,0.960573218668433,0.00084532116493051,0.668168792003512,0.714827584250127,0.0394267813315669,0.0378056537552117,0.5,0.958882578754729,0.893439256181205,0.463438874414443,1.98621333971149,0.5,61.5093245488697
CBC_1087,CBC_1087_MSI_AV_v3_Vset4_Aset2_2024-03-23_11h37.29.616.csv,3,36,0,2,b,1,0,2,aud,A,27,1,0A,2A,1,0,z,1.43099360000087,0,1,0,0,2A,0A,A02,2.83321334405622,0.0411174188291131,0.0205587106226353,0.0205587106226353,0.5,0.00084532116493051,0.999998570864256,0.5,0.0205587106226353,0.5,0.0205587106226353,0.998378872423645,0.00084532116493051,0.5,0.0205587106226353,0.0205587106226353,0.999999999900654,0.33333334639164,0.66666665360836,0.0205587106226353,0.0411174188291131,0.341161130977958,0.423216030301377,-0.0205587106226353,-0.0197133894577047,0.5,0.958882578754729,0.893439256181205,0.463438874414443,1.98621333971149,0.5,61.5093245488697
CBC_1087,CBC_1087_MSI_AV_v3_Vset4_Aset2_2024-03-23_11h37.29.616.csv,3,37,0,1,z,0,1,3,aud,B,63,1,0B,1B,0,1,z,1.62737930000003,0,1,1,1,1B,0B,B01,2.56494935746154,0.0411174188291131,0.0205587106226353,0.00084532116493051,0.5,0.00084532116493051,0.999998570864256,0.5,0.0205587106226353,0.5,0.0205587106226353,0.998378872423645,0.00084532116493051,0.5,0.0205587106226353,0.0205587106226353,0.999999999900654,0.999155391593372,0.000844608406628372,0.999998570864256,0.00084532116493051,0.464569216793014,0.714939144635503,1.42913574374681e-06,1.3703733673545e-06,0.5,0.958882578754729,0.893439256181205,0.463438874414443,1.98621333971149,0.5,61.5093245488697
CBC_1087,CBC_1087_MSI_AV_v3_Vset4_Aset2_2024-03-23_11h37.29.616.csv,3,38,2,3,z,0,1,1,aud,D,63,1,2D,3D,0,1,b,2.69387480000114,1,0,0,0,2D,3D,D23,2.87167962488401,0.0411174188291131,0.0205587106226353,0.00084532116493051,0.5,0.00084532116493051,0.999999941237624,0.5,0.0205587106226353,0.5,0.0205587106226353,0.998378872423645,0.00084532116493051,0.5,0.0205587106226353,0.0205587106226353,0.999999999900654,0.0201445643554341,0.979855435644566,0.0205587106226353,0.999999999900654,0.045000622742115,0.292146332649001,-0.0205587106226353,-0.0197133894577047,0.5,0.958882578754729,0.893439256181205,0.463438874414443,1.98621333971149,0.5,61.5093245488697
CBC_1087,CBC_1087_MSI_AV_v3_Vset4_Aset2_2024-03-23_11h37.29.616.csv,3,39,1,2,b,1,0,3,aud,B,9,1,1B,2B,1,0,z,1.00347529999999,0,1,0,0,2B,1B,B12,3.98898404656427,0.0411174188291131,0.0205587106226353,0.00084532116493051,0.5,0.00084532116493051,0.999999941237624,0.5,0.0205587106226353,0.5,0.0205587106226353,0.998378872423645,0.00084532116493051,0.5,0.0205587106226353,0.00084532116493051,0.999999999900654,0.33333334639164,0.66666665360836,0.5,0.999999941237624,0.105243685357206,0.423994990876306,-0.5,-0.479441289377365,0.5,0.958882578754729,0.893439256181205,0.463438874414443,1.98621333971149,0.5,61.5093245488697
CBC_1087,CBC_1087_MSI_AV_v3_Vset4_Aset2_2024-03-23_11h37.29.616.csv,3,40,1,3,z,0,1,1,aud,D,27,1,1D,3D,0,1,b,1.21598319999976,1,0,0,0,1D,3D,D13,4.00733318523247,0.0411174188291131,0.0205587106226353,0.00084532116493051,0.5,0.00084532116493051,0.999999941237624,0.0205587106226353,0.0205587106226353,0.5,0.0205587106226353,0.998378872423645,0.00084532116493051,0.5,0.0205587106226353,0.00084532116493051,0.999999999900654,0.0201445643554341,0.979855435644566,0.0205587106226353,0.999999999900654,0.292245055497098,0.292804565680151,-0.0205587106226353,-0.0197133894577047,0.5,0.958882578754729,0.893439256181205,0.463438874414443,1.98621333971149,0.5,61.5093245488697
CBC_1087,CBC_1087_MSI_AV_v3_Vset4_Aset2_2024-03-23_11h37.29.616.csv,3,41,1,0,z,0,1,2,aud,A,63,1,1A,0A,0,1,b,1.43388030000096,1,0,0,0,1A,0A,A10,2.41591377830105,0.0411174188291131,0.0205587106226353,0.00084532116493051,0.5,0.00084532116493051,0.999999941237624,0.0205587106226353,0.0205587106226353,0.5,0.0205587106226353,0.998378872423645,0.00084532116493051,0.5,0.00084532116493051,0.00084532116493051,0.999999999900654,0.33333334639164,0.66666665360836,0.0205587106226353,0.0411174188291131,0.340617704827092,0.423960214051526,-0.0205587106226353,-0.0197133894577047,0.5,0.958882578754729,0.893439256181205,0.463438874414443,1.98621333971149,0.5,61.5093245488697
CBC_1087,CBC_1087_MSI_AV_v3_Vset4_Aset2_2024-03-23_11h37.29.616.csv,3,42,0,1,b,1,0,2,aud,A,63,1,0A,1A,1,0,z,1.58752769999955,0,1,0,0,1A,0A,A01,3.3499040872746,0.0411174188291131,0.00084532116493051,0.00084532116493051,0.5,0.00084532116493051,0.999999941237624,0.0205587106226353,0.0205587106226353,0.5,0.0205587106226353,0.998378872423645,0.00084532116493051,0.5,0.00084532116493051,0.00084532116493051,0.999999999900654,0.0201445655133697,0.97985543448663,0.00084532116493051,0.0411174188291131,0.200114859321678,0.292579681140072,-0.00084532116493051,-0.000810563738504519,0.5,0.958882578754729,0.893439256181205,0.463438874414443,1.98621333971149,0.5,61.5093245488697
CBC_1087,CBC_1087_MSI_AV_v3_Vset4_Aset2_2024-03-23_11h37.29.616.csv,3,43,2,0,b,1,0,0,aud,C,27,1,2C,0C,1,0,b,2.21656410000105,1,0,1,1,2C,0C,C20,2.96183072187831,0.0411174188291131,3.47574264259906e-05,0.00084532116493051,0.5,0.00084532116493051,0.999999941237624,0.0205587106226353,0.0205587106226353,0.5,0.0205587106226353,0.998378872423645,0.00084532116493051,0.5,0.00084532116493051,0.00084532116493051,0.999999999900654,0.666306026331482,0.333693973668518,0.998378872423645,0.5,0.174629237699273,0.576170957667509,0.00162112757635524,0.00155447099090592,0.5,0.958882578754729,0.893439256181205,0.463438874414443,1.98621333971149,0.5,61.5093245488697
CBC_1087,CBC_1087_MSI_AV_v3_Vset4_Aset2_2024-03-23_11h37.29.616.csv,3,44,0,1,z,0,1,3,aud,B,63,1,0B,1B,0,1,b,1.10064849999981,1,0,0,0,0B,1B,B01,2.46809953147162,0.0411174188291131,3.47574264259906e-05,0.00084532116493051,0.5,0.00084532116493051,0.999999941237624,0.0205587106226353,0.0205587106226353,0.5,0.0205587106226353,0.999933343414551,0.00084532116493051,0.5,0.00084532116493051,0.00084532116493051,0.999999999900654,0.000844607250177011,0.999155392749823,0.00084532116493051,0.999999941237624,0.239712084785217,0.284436096372654,-0.00084532116493051,-0.000810563738504519,0.5,0.958882578754729,0.893439256181205,0.463438874414443,1.98621333971149,0.5,61.5093245488697
