ID,filename,session,trial,visStimLeft,visStimRight,correctKey,leftCorrect,rightCorrect,secondStim,mod2Type,mod2Stim,frequency,rewardAccurate,stimPairLeft,stimPairRight,pCorrectLeft,pCorrectRight,key,reactionTime,choiceLeft,choiceRight,choiceAccurate,reward,chosenPair,otherPair,triplet,surprise,0A belief,1A belief,2A belief,3A belief,0B belief,1B belief,2B belief,3B belief,0C belief,1C belief,2C belief,3C belief,0D belief,1D belief,2D belief,3D belief,beliefPairNorm,beliefOtherPairNorm,beliefPair,beliefOtherPair,lik,corrLik,rewardPE,update2,fitCBCsimpleRW_CBCdriftDiffusionLR_pwBelief_startBelief,fitCBCsimpleRW_CBCdriftDiffusionLR_pwBelief_alpha1,fitCBCsimpleRW_CBCdriftDiffusionLR_pwBelief_nonDecisionTime,fitCBCsimpleRW_CBCdriftDiffusionLR_pwBelief_weight,fitCBCsimpleRW_CBCdriftDiffusionLR_pwBelief_startingBoundary,fitCBCsimpleRW_CBCdriftDiffusionLR_pwBelief_startingPoint,fit_CBCsimpleRW_CBCdriftDiffusionLR_pwBelief_NLL
CBC_1087,CBC_1087_MSI_AV_v3_Vset1_Aset1_2024-03-23_10h00.48.030.csv,1,1,3,1,z,0,1,3,aud,B,27,1,3B,1B,0,1,b,1.4320901000001,1,0,0,0,3B,1B,B31,2.77258872223978,0.5,0.5,0.5,0.5,0.5,0.5,0.5,0.5,0.5,0.5,0.5,0.5,0.5,0.5,0.5,0.5,0.5,0.5,0.5,0.5,0.431448751663887,0.499819232757474,-0.5,-0.497823611376515,0.5,0.99564722275303,0.921518213845839,0.0957054876755631,1.87863972337246,0.5,61.392578237215
CBC_1087,CBC_1087_MSI_AV_v3_Vset1_Aset1_2024-03-23_10h00.48.030.csv,1,2,2,3,b,1,0,0,aud,C,63,1,2C,3C,1,0,b,1.35534309999912,1,0,1,1,2C,3C,C23,2.83321334405622,0.5,0.5,0.5,0.5,0.5,0.5,0.5,0.0021763886234849,0.5,0.5,0.5,0.5,0.5,0.5,0.5,0.5,0.5,0.5,0.5,0.5,0.473574780750944,0.499605252760072,0.5,0.497823611376515,0.5,0.99564722275303,0.921518213845839,0.0957054876755631,1.87863972337246,0.5,61.392578237215
CBC_1087,CBC_1087_MSI_AV_v3_Vset1_Aset1_2024-03-23_10h00.48.030.csv,1,3,2,3,z,0,1,1,aud,D,63,1,2D,3D,0,1,z,1.11205079999945,0,1,1,1,3D,2D,D23,2.89037175789616,0.5,0.5,0.5,0.5,0.5,0.5,0.5,0.0021763886234849,0.5,0.5,0.997823611376515,0.5,0.5,0.5,0.5,0.5,0.5,0.5,0.5,0.5,0.444882131771995,0.500051500513169,0.5,0.497823611376515,0.5,0.99564722275303,0.921518213845839,0.0957054876755631,1.87863972337246,0.5,61.392578237215
CBC_1087,CBC_1087_MSI_AV_v3_Vset1_Aset1_2024-03-23_10h00.48.030.csv,1,4,1,0,b,1,0,3,aud,B,63,0,1B,0B,0,1,b,1.37004629999956,1,0,1,0,1B,0B,B10,2.94443897916644,0.5,0.5,0.5,0.5,0.5,0.5,0.5,0.0021763886234849,0.5,0.5,0.997823611376515,0.5,0.5,0.5,0.5,0.997823611376515,0.5,0.5,0.5,0.5,0.466251809930599,0.500277779591059,-0.5,-0.497823611376515,0.5,0.99564722275303,0.921518213845839,0.0957054876755631,1.87863972337246,0.5,61.392578237215
CBC_1087,CBC_1087_MSI_AV_v3_Vset1_Aset1_2024-03-23_10h00.48.030.csv,1,5,3,0,z,0,1,2,aud,A,9,1,3A,0A,0,1,b,2.22617459999947,1,0,0,0,3A,0A,A30,2.99573227355399,0.5,0.5,0.5,0.5,0.5,0.0021763886234849,0.5,0.0021763886234849,0.5,0.5,0.997823611376515,0.5,0.5,0.5,0.5,0.997823611376515,0.5,0.5,0.5,0.5,0.143604236445417,0.499950178834774,-0.5,-0.497823611376515,0.5,0.99564722275303,0.921518213845839,0.0957054876755631,1.87863972337246,0.5,61.392578237215
CBC_1087,CBC_1087_MSI_AV_v3_Vset1_Aset1_2024-03-23_10h00.48.030.csv,1,6,2,3,z,0,1,1,aud,D,63,1,2D,3D,0,1,z,2.96865089999937,0,1,1,1,3D,2D,D23,2.35137525716348,0.5,0.5,0.5,0.0021763886234849,0.5,0.0021763886234849,0.5,0.0021763886234849,0.5,0.5,0.997823611376515,0.5,0.5,0.5,0.5,0.997823611376515,0.997823611376515,0.0021763886234849,0.997823611376515,0.5,0.0551822625671208,0.545531123476624,0.0021763886234849,0.00216691528860403,0.5,0.99564722275303,0.921518213845839,0.0957054876755631,1.87863972337246,0.5,61.392578237215
CBC_1087,CBC_1087_MSI_AV_v3_Vset1_Aset1_2024-03-23_10h00.48.030.csv,1,7,2,0,b,1,0,0,aud,C,27,1,2C,0C,1,0,b,2.40187199999946,1,0,1,1,2C,0C,C20,3.09104245335832,0.5,0.5,0.5,0.0021763886234849,0.5,0.0021763886234849,0.5,0.0021763886234849,0.5,0.5,0.997823611376515,0.5,0.5,0.5,0.5,0.999990526665119,0.997823611376515,0.0021763886234849,0.997823611376515,0.5,0.122079221459299,0.544861936602314,0.0021763886234849,0.00216691528860403,0.5,0.99564722275303,0.921518213845839,0.0957054876755631,1.87863972337246,0.5,61.392578237215
CBC_1087,CBC_1087_MSI_AV_v3_Vset1_Aset1_2024-03-23_10h00.48.030.csv,1,8,1,0,z,0,1,2,aud,A,63,1,1A,0A,0,1,b,2.73772019999979,1,0,0,0,1A,0A,A10,3.13549421592915,0.5,0.5,0.5,0.0021763886234849,0.5,0.0021763886234849,0.5,0.0021763886234849,0.5,0.5,0.999990526665119,0.5,0.5,0.5,0.5,0.999990526665119,0.5,0.5,0.5,0.5,0.0702120710593649,0.499811711305357,-0.5,-0.497823611376515,0.5,0.99564722275303,0.921518213845839,0.0957054876755631,1.87863972337246,0.5,61.392578237215
CBC_1087,CBC_1087_MSI_AV_v3_Vset1_Aset1_2024-03-23_10h00.48.030.csv,1,9,0,1,z,0,1,3,aud,B,63,1,0B,1B,0,1,z,2.2988179999993,0,1,1,1,1B,0B,B01,3.17805383034795,0.5,0.0021763886234849,0.5,0.0021763886234849,0.5,0.0021763886234849,0.5,0.0021763886234849,0.5,0.5,0.999990526665119,0.5,0.5,0.5,0.5,0.999990526665119,0.0021763886234849,0.997823611376515,0.0021763886234849,0.5,0.11798579167029,0.455685992170515,0.997823611376515,0.993480307464426,0.5,0.99564722275303,0.921518213845839,0.0957054876755631,1.87863972337246,0.5,61.392578237215
CBC_1087,CBC_1087_MSI_AV_v3_Vset1_Aset1_2024-03-23_10h00.48.030.csv,1,10,3,1,b,1,0,1,aud,D,27,1,3D,1D,1,0,b,2.15811519999897,1,0,1,1,3D,1D,D31,3.2188758248682,0.5,0.0021763886234849,0.5,0.0021763886234849,0.5,0.995656696087911,0.5,0.0021763886234849,0.5,0.5,0.999990526665119,0.5,0.5,0.5,0.5,0.999990526665119,0.999990526665119,9.47333488088287e-06,0.999990526665119,0.5,0.171810521391109,0.544734531210726,9.47333488088287e-06,9.43209956436043e-06,0.5,0.99564722275303,0.921518213845839,0.0957054876755631,1.87863972337246,0.5,61.392578237215
CBC_1087,CBC_1087_MSI_AV_v3_Vset1_Aset1_2024-03-23_10h00.48.030.csv,1,11,2,3,b,1,0,0,aud,C,63,1,2C,3C,1,0,z,1.49881749999986,0,1,0,0,3C,2C,C23,2.56494935746154,0.5,0.0021763886234849,0.5,0.0021763886234849,0.5,0.995656696087911,0.5,0.0021763886234849,0.5,0.5,0.999990526665119,0.5,0.5,0.5,0.5,0.999999958764684,9.47333488088287e-06,0.999990526665119,0.5,0.999990526665119,0.359928877797631,0.454694335561594,-0.5,-0.497823611376515,0.5,0.99564722275303,0.921518213845839,0.0957054876755631,1.87863972337246,0.5,61.392578237215
CBC_1087,CBC_1087_MSI_AV_v3_Vset1_Aset1_2024-03-23_10h00.48.030.csv,1,12,0,1,z,0,1,3,aud,B,63,1,0B,1B,0,1,b,3.44090880000022,1,0,0,0,0B,1B,B01,2.60268968544438,0.5,0.0021763886234849,0.5,0.0021763886234849,0.5,0.995656696087911,0.5,0.0021763886234849,0.5,0.5,0.999990526665119,0.0021763886234849,0.5,0.5,0.5,0.999999958764684,0.00434330391208892,0.995656696087911,0.5,0.995656696087911,0.0237649732212536,0.455559148940055,-0.5,-0.497823611376515,0.5,0.99564722275303,0.921518213845839,0.0957054876755631,1.87863972337246,0.5,61.392578237215
CBC_1087,CBC_1087_MSI_AV_v3_Vset1_Aset1_2024-03-23_10h00.48.030.csv,1,13,1,0,z,0,1,2,aud,A,63,1,1A,0A,0,1,z,3.52875059999951,0,1,1,1,0A,1A,A10,2.63905732961526,0.5,0.0021763886234849,0.5,0.0021763886234849,0.0021763886234849,0.995656696087911,0.5,0.0021763886234849,0.5,0.5,0.999990526665119,0.0021763886234849,0.5,0.5,0.5,0.999999958764684,0.997823611376515,0.0021763886234849,0.5,0.0021763886234849,0.0251431096177944,0.545357804556511,0.5,0.497823611376515,0.5,0.99564722275303,0.921518213845839,0.0957054876755631,1.87863972337246,0.5,61.392578237215
CBC_1087,CBC_1087_MSI_AV_v3_Vset1_Aset1_2024-03-23_10h00.48.030.csv,1,14,2,1,b,1,0,0,aud,C,9,1,2C,1C,1,0,b,2.57621879999988,1,0,1,1,2C,1C,C21,3.36729582998647,0.997823611376515,0.0021763886234849,0.5,0.0021763886234849,0.0021763886234849,0.995656696087911,0.5,0.0021763886234849,0.5,0.5,0.999990526665119,0.0021763886234849,0.5,0.5,0.5,0.999999958764684,0.999990526665119,9.47333488088287e-06,0.999990526665119,0.5,0.0957630417726225,0.5459295567983,9.47333488088287e-06,9.43209956436043e-06,0.5,0.99564722275303,0.921518213845839,0.0957054876755631,1.87863972337246,0.5,61.392578237215
CBC_1087,CBC_1087_MSI_AV_v3_Vset1_Aset1_2024-03-23_10h00.48.030.csv,1,15,0,1,b,1,0,2,aud,A,63,1,0A,1A,1,0,z,2.04635619999954,0,1,0,0,1A,0A,A01,3.40119738166216,0.997823611376515,0.0021763886234849,0.5,0.0021763886234849,0.0021763886234849,0.995656696087911,0.5,0.0021763886234849,0.5,0.5,0.999999958764684,0.0021763886234849,0.5,0.5,0.5,0.999999958764684,4.75732997029521e-06,0.99999524267003,0.0021763886234849,0.997823611376515,0.168471804511313,0.456614490973315,-0.0021763886234849,-0.00216691528860403,0.5,0.99564722275303,0.921518213845839,0.0957054876755631,1.87863972337246,0.5,61.392578237215
CBC_1087,CBC_1087_MSI_AV_v3_Vset1_Aset1_2024-03-23_10h00.48.030.csv,1,16,1,3,z,0,1,1,aud,D,27,1,1D,3D,0,1,b,2.27018589999898,1,0,0,0,1D,3D,D13,3.43398720448515,0.997823611376515,9.47333488086899e-06,0.5,0.0021763886234849,0.0021763886234849,0.995656696087911,0.5,0.0021763886234849,0.5,0.5,0.999999958764684,0.0021763886234849,0.5,0.5,0.5,0.999999958764684,4.12353164946921e-08,0.999999958764684,0.5,0.999999958764684,0.122504528875726,0.454561671512723,-0.5,-0.497823611376515,0.5,0.99564722275303,0.921518213845839,0.0957054876755631,1.87863972337246,0.5,61.392578237215
CBC_1087,CBC_1087_MSI_AV_v3_Vset1_Aset1_2024-03-23_10h00.48.030.csv,1,17,1,0,b,1,0,3,aud,B,63,1,1B,0B,1,0,z,1.70024829999966,0,1,0,0,0B,1B,B10,2.77258872223978,0.997823611376515,9.47333488086899e-06,0.5,0.0021763886234849,0.0021763886234849,0.995656696087911,0.5,0.0021763886234849,0.5,0.5,0.999999958764684,0.0021763886234849,0.5,0.0021763886234849,0.5,0.999999958764684,9.51456941278295e-06,0.999990485430587,0.0021763886234849,0.995656696087911,0.272771081090055,0.455197750945268,-0.0021763886234849,-0.00216691528860403,0.5,0.99564722275303,0.921518213845839,0.0957054876755631,1.87863972337246,0.5,61.392578237215
CBC_1087,CBC_1087_MSI_AV_v3_Vset1_Aset1_2024-03-23_10h00.48.030.csv,1,18,3,2,z,0,1,0,aud,C,63,0,3C,2C,1,0,b,1.23521470000014,1,0,0,1,3C,2C,C32,3.49650756146648,0.997823611376515,9.47333488086899e-06,0.5,0.0021763886234849,9.47333488086899e-06,0.995656696087911,0.5,0.0021763886234849,0.5,0.5,0.999999958764684,0.0021763886234849,0.5,0.0021763886234849,0.5,0.999999958764684,8.99398214014977e-11,0.99999999991006,0.0021763886234849,0.999999958764684,0.476812054838206,0.454986611330487,0.997823611376515,0.993480307464426,0.5,0.99564722275303,0.921518213845839,0.0957054876755631,1.87863972337246,0.5,61.392578237215
CBC_1087,CBC_1087_MSI_AV_v3_Vset1_Aset1_2024-03-23_10h00.48.030.csv,1,19,0,2,b,1,0,2,aud,A,27,1,0A,2A,1,0,b,2.50396839999939,1,0,1,1,0A,2A,A02,3.52636052461616,0.997823611376515,9.47333488086899e-06,0.5,0.0021763886234849,9.47333488086899e-06,0.995656696087911,0.5,0.0021763886234849,0.5,0.5,0.999999958764684,0.995656696087911,0.5,0.0021763886234849,0.5,0.999999958764684,0.997823611376515,0.0021763886234849,0.997823611376515,0.5,0.105855042107323,0.545231357643043,0.0021763886234849,0.00216691528860403,0.5,0.99564722275303,0.921518213845839,0.0957054876755631,1.87863972337246,0.5,61.392578237215
CBC_1087,CBC_1087_MSI_AV_v3_Vset1_Aset1_2024-03-23_10h00.48.030.csv,1,20,2,3,z,0,1,1,aud,D,63,1,2D,3D,0,1,z,1.34583329999896,0,1,1,1,3D,2D,D23,2.4567357728213,0.999990526665119,9.47333488086899e-06,0.5,0.0021763886234849,9.47333488086899e-06,0.995656696087911,0.5,0.0021763886234849,0.5,0.5,0.999999958764684,0.995656696087911,0.5,0.0021763886234849,0.5,0.999999958764684,0.999999958764684,4.12353164946921e-08,0.999999958764684,0.5,0.523675104399534,0.545458141666504,4.12353164946921e-08,4.10558283472824e-08,0.5,0.99564722275303,0.921518213845839,0.0957054876755631,1.87863972337246,0.5,61.392578237215
CBC_1087,CBC_1087_MSI_AV_v3_Vset1_Aset1_2024-03-23_10h00.48.030.csv,1,21,1,3,b,1,0,3,aud,B,27,1,1B,3B,1,0,b,1.22375469999952,1,0,1,1,1B,3B,B13,3.58351893845611,0.999990526665119,9.47333488086899e-06,0.5,0.0021763886234849,9.47333488086899e-06,0.995656696087911,0.5,0.0021763886234849,0.5,0.5,0.999999958764684,0.995656696087911,0.5,0.0021763886234849,0.5,0.999999999820512,0.999990485430587,9.51456941278295e-06,0.995656696087911,0.0021763886234849,0.572556630199898,0.544952234861965,0.00434330391208892,0.00432439847764371,0.5,0.99564722275303,0.921518213845839,0.0957054876755631,1.87863972337246,0.5,61.392578237215
CBC_1087,CBC_1087_MSI_AV_v3_Vset1_Aset1_2024-03-23_10h00.48.030.csv,1,22,2,3,b,1,0,0,aud,C,63,1,2C,3C,1,0,b,1.39168139999856,1,0,1,1,2C,3C,C23,2.51230562397611,0.999990526665119,9.47333488086899e-06,0.5,0.0021763886234849,9.47333488086899e-06,0.999981094565555,0.5,0.0021763886234849,0.5,0.5,0.999999958764684,0.995656696087911,0.5,0.0021763886234849,0.5,0.999999999820512,0.999990547326778,9.45267322216559e-06,0.999999958764684,0.995656696087911,0.496347921860416,0.545487947392951,4.12353164946921e-08,4.10558283472824e-08,0.5,0.99564722275303,0.921518213845839,0.0957054876755631,1.87863972337246,0.5,61.392578237215
CBC_1087,CBC_1087_MSI_AV_v3_Vset1_Aset1_2024-03-23_10h00.48.030.csv,1,23,1,0,z,0,1,2,aud,A,63,0,1A,0A,1,0,b,1.43434099999922,1,0,0,1,1A,0A,A10,2.53897387105828,0.999990526665119,9.47333488086899e-06,0.5,0.0021763886234849,9.47333488086899e-06,0.999981094565555,0.5,0.0021763886234849,0.5,0.5,0.999999999820512,0.995656696087911,0.5,0.0021763886234849,0.5,0.999999999820512,8.97457741326572e-11,0.999999999910254,9.47333488086899e-06,0.999990526665119,0.392022598766387,0.454678779235229,0.999990526665119,0.995637790653466,0.5,0.99564722275303,0.921518213845839,0.0957054876755631,1.87863972337246,0.5,61.392578237215
CBC_1087,CBC_1087_MSI_AV_v3_Vset1_Aset1_2024-03-23_10h00.48.030.csv,1,24,1,2,b,1,0,3,aud,B,9,1,1B,2B,1,0,z,2.30954070000007,0,1,0,0,2B,1B,B12,3.66356164612965,0.999990526665119,0.995647263988347,0.5,0.0021763886234849,9.47333488086899e-06,0.999981094565555,0.5,0.0021763886234849,0.5,0.5,0.999999999820512,0.995656696087911,0.5,0.0021763886234849,0.5,0.999999999820512,1.8905434445271e-05,0.999981094565555,0.5,0.999981094565555,0.115975839756409,0.454755323619649,-0.5,-0.497823611376515,0.5,0.99564722275303,0.921518213845839,0.0957054876755631,1.87863972337246,0.5,61.392578237215
CBC_1087,CBC_1087_MSI_AV_v3_Vset1_Aset1_2024-03-23_10h00.48.030.csv,1,25,3,2,z,0,1,0,aud,C,63,1,3C,2C,0,1,b,1.3848896999998,1,0,0,0,3C,2C,C32,2.99573227355399,0.999990526665119,0.995647263988347,0.5,0.0021763886234849,9.47333488086899e-06,0.999981094565555,0.0021763886234849,0.0021763886234849,0.5,0.5,0.999999999820512,0.995656696087911,0.5,0.0021763886234849,0.5,0.999999999820512,4.11457790117365e-08,0.999999958854221,0.995656696087911,0.999999999820512,0.417851468085051,0.455472310334083,-0.995656696087911,-0.991322824275387,0.5,0.99564722275303,0.921518213845839,0.0957054876755631,1.87863972337246,0.5,61.392578237215
CBC_1087,CBC_1087_MSI_AV_v3_Vset1_Aset1_2024-03-23_10h00.48.030.csv,1,26,3,2,b,1,0,1,aud,D,63,1,3D,2D,1,0,z,1.14791369999966,0,1,0,0,2D,3D,D32,3.71357206670431,0.999990526665119,0.995647263988347,0.5,0.0021763886234849,9.47333488086899e-06,0.999981094565555,0.0021763886234849,0.0021763886234849,0.5,0.5,0.999999999820512,0.00433387181252454,0.5,0.0021763886234849,0.5,0.999999999820512,1.79488202078915e-10,0.999999999820512,0.5,0.999999999820512,0.453530909770805,0.456240123978366,-0.5,-0.497823611376515,0.5,0.99564722275303,0.921518213845839,0.0957054876755631,1.87863972337246,0.5,61.392578237215
CBC_1087,CBC_1087_MSI_AV_v3_Vset1_Aset1_2024-03-23_10h00.48.030.csv,1,27,1,0,b,1,0,3,aud,B,63,1,1B,0B,1,0,b,1.65793099999973,1,0,1,1,1B,0B,B10,2.63905732961526,0.999990526665119,0.995647263988347,0.5,0.0021763886234849,9.47333488086899e-06,0.999981094565555,0.0021763886234849,0.0021763886234849,0.5,0.5,0.999999999820512,0.00433387181252454,0.5,0.0021763886234849,0.0021763886234849,0.999999999820512,0.999999999820897,1.79102621622462e-10,0.999981094565555,9.47333488086899e-06,0.346065707166797,0.544395305397488,1.8905434445271e-05,1.88231433003736e-05,0.5,0.99564722275303,0.921518213845839,0.0957054876755631,1.87863972337246,0.5,61.392578237215
CBC_1087,CBC_1087_MSI_AV_v3_Vset1_Aset1_2024-03-23_10h00.48.030.csv,1,28,2,0,z,0,1,2,aud,A,27,1,2A,0A,0,1,z,1.30421979999937,0,1,1,1,0A,2A,A20,3.76120011569356,0.999990526665119,0.995647263988347,0.5,0.0021763886234849,9.47333488086899e-06,0.999999917708855,0.0021763886234849,0.0021763886234849,0.5,0.5,0.999999999820512,0.00433387181252454,0.5,0.0021763886234849,0.0021763886234849,0.999999999820512,0.999990526665119,9.47333488088287e-06,0.999990526665119,0.5,0.546200309380289,0.545305338403802,9.47333488088287e-06,9.43209956436043e-06,0.5,0.99564722275303,0.921518213845839,0.0957054876755631,1.87863972337246,0.5,61.392578237215
CBC_1087,CBC_1087_MSI_AV_v3_Vset1_Aset1_2024-03-23_10h00.48.030.csv,1,29,3,1,b,1,0,1,aud,D,27,1,3D,1D,1,0,b,1.1181792999987,1,0,1,1,3D,1D,D31,3.09104245335832,0.999999958764684,0.995647263988347,0.5,0.0021763886234849,9.47333488086899e-06,0.999999917708855,0.0021763886234849,0.0021763886234849,0.5,0.5,0.999999999820512,0.00433387181252454,0.5,0.0021763886234849,0.0021763886234849,0.999999999820512,0.999999999999608,3.91575660785293e-13,0.999999999820512,0.0021763886234849,0.498322499532416,0.544766153452827,1.79488202078915e-10,1.78706929916806e-10,0.5,0.99564722275303,0.921518213845839,0.0957054876755631,1.87863972337246,0.5,61.392578237215
CBC_1087,CBC_1087_MSI_AV_v3_Vset1_Aset1_2024-03-23_10h00.48.030.csv,1,30,0,1,b,1,0,2,aud,A,63,1,0A,1A,1,0,z,1.2054021999993,0,1,0,0,1A,0A,A01,3.11351530921037,0.999999958764684,0.995647263988347,0.5,0.0021763886234849,9.47333488086899e-06,0.999999917708855,0.0021763886234849,0.0021763886234849,0.5,0.5,0.999999999820512,0.00433387181252454,0.5,0.0021763886234849,0.0021763886234849,0.999999999999219,9.43210072645861e-06,0.999990567899274,0.995647263988347,0.999999958764684,0.478821630550159,0.455921324012478,-0.995647263988347,-0.99131343323165,0.5,0.99564722275303,0.921518213845839,0.0957054876755631,1.87863972337246,0.5,61.392578237215
CBC_1087,CBC_1087_MSI_AV_v3_Vset1_Aset1_2024-03-23_10h00.48.030.csv,1,31,0,2,z,0,1,0,aud,C,27,1,0C,2C,0,1,b,2.20125120000012,1,0,0,0,0C,2C,C02,3.8286413964891,0.999999958764684,0.00433383075669624,0.5,0.0021763886234849,9.47333488086899e-06,0.999999917708855,0.0021763886234849,0.0021763886234849,0.5,0.5,0.999999999820512,0.00433387181252454,0.5,0.0021763886234849,0.0021763886234849,0.999999999999219,1.79488202078915e-10,0.999999999820512,0.5,0.999999999820512,0.135318783486966,0.455779009589767,-0.5,-0.497823611376515,0.5,0.99564722275303,0.921518213845839,0.0957054876755631,1.87863972337246,0.5,61.392578237215
CBC_1087,CBC_1087_MSI_AV_v3_Vset1_Aset1_2024-03-23_10h00.48.030.csv,1,32,3,2,b,1,0,1,aud,D,63,1,3D,2D,1,0,b,1.10788599999887,1,0,1,1,3D,2D,D32,3.15700042115011,0.999999958764684,0.00433383075669624,0.5,0.0021763886234849,9.47333488086899e-06,0.999999917708855,0.0021763886234849,0.0021763886234849,0.0021763886234849,0.5,0.999999999820512,0.00433387181252454,0.5,0.0021763886234849,0.0021763886234849,0.999999999999219,0.999999999999998,1.66533453693773e-15,0.999999999999219,0.0021763886234849,0.478299164462669,0.545878292052707,7.81263942428723e-13,7.77863274516241e-13,0.5,0.99564722275303,0.921518213845839,0.0957054876755631,1.87863972337246,0.5,61.392578237215
CBC_1087,CBC_1087_MSI_AV_v3_Vset1_Aset1_2024-03-23_10h00.48.030.csv,1,33,0,1,z,0,1,3,aud,B,63,1,0B,1B,0,1,b,1.30585799999972,1,0,0,0,0B,1B,B01,2.77258872223978,0.999999958764684,0.00433383075669624,0.5,0.0021763886234849,9.47333488086899e-06,0.999999917708855,0.0021763886234849,0.0021763886234849,0.0021763886234849,0.5,0.999999999820512,0.00433387181252454,0.5,0.0021763886234849,0.0021763886234849,0.999999999999997,7.79579022716355e-13,0.99999999999922,9.47333488086899e-06,0.999999917708855,0.455451270000695,0.455427698969275,-9.47333488086899e-06,-9.43209956434662e-06,0.5,0.99564722275303,0.921518213845839,0.0957054876755631,1.87863972337246,0.5,61.392578237215
CBC_1087,CBC_1087_MSI_AV_v3_Vset1_Aset1_2024-03-23_10h00.48.030.csv,1,34,1,0,z,0,1,2,aud,A,63,1,1A,0A,0,1,z,1.1293214999987,0,1,1,1,0A,1A,A10,2.50552593699074,0.999999958764684,0.00433383075669624,0.5,0.0021763886234849,4.12353165223715e-08,0.999999917708855,0.0021763886234849,0.0021763886234849,0.0021763886234849,0.5,0.999999999820512,0.00433387181252454,0.5,0.0021763886234849,0.0021763886234849,0.999999999999997,0.999999999820515,1.79484746739538e-10,0.999999958764684,0.00433383075669624,0.517240691827532,0.544612032356206,4.12353164946921e-08,4.10558283472824e-08,0.5,0.99564722275303,0.921518213845839,0.0957054876755631,1.87863972337246,0.5,61.392578237215
CBC_1087,CBC_1087_MSI_AV_v3_Vset1_Aset1_2024-03-23_10h00.48.030.csv,1,35,3,2,b,1,0,1,aud,D,63,0,3D,2D,0,1,b,1.74032970000007,1,0,1,0,3D,2D,D32,2.81341071676004,0.999999999820512,0.00433383075669624,0.5,0.0021763886234849,4.12353165223715e-08,0.999999917708855,0.0021763886234849,0.0021763886234849,0.0021763886234849,0.5,0.999999999820512,0.00433387181252454,0.5,0.0021763886234849,0.0021763886234849,0.999999999999997,1,0,0.999999999999997,0.0021763886234849,0.308950585570289,0.545292522848661,-0.999999999999997,-0.995647222753027,0.5,0.99564722275303,0.921518213845839,0.0957054876755631,1.87863972337246,0.5,61.392578237215
CBC_1087,CBC_1087_MSI_AV_v3_Vset1_Aset1_2024-03-23_10h00.48.030.csv,1,36,0,2,z,0,1,0,aud,C,27,1,0C,2C,0,1,z,1.05727579999893,0,1,1,1,2C,0C,C02,3.23867845216438,0.999999999820512,0.00433383075669624,0.5,0.0021763886234849,4.12353165223715e-08,0.999999917708855,0.0021763886234849,0.0021763886234849,0.0021763886234849,0.5,0.999999999820512,0.00433387181252454,0.5,0.0021763886234849,0.0021763886234849,0.00435277724696981,0.999999999999609,3.91488111396143e-13,0.999999999820512,0.0021763886234849,0.317525277187734,0.544506139255909,1.79488202078915e-10,1.78706929916806e-10,0.5,0.99564722275303,0.921518213845839,0.0957054876755631,1.87863972337246,0.5,61.392578237215
CBC_1087,CBC_1087_MSI_AV_v3_Vset1_Aset1_2024-03-23_10h00.48.030.csv,1,37,1,0,z,0,1,2,aud,A,63,1,1A,0A,0,1,b,1.09350079999967,1,0,0,0,1A,0A,A10,2.34180580614733,0.999999999820512,0.00433383075669624,0.5,0.0021763886234849,4.12353165223715e-08,0.999999917708855,0.0021763886234849,0.0021763886234849,0.0021763886234849,0.5,0.999999999999219,0.00433387181252454,0.5,0.0021763886234849,0.0021763886234849,0.00435277724696981,7.81257327808874e-13,0.999999999999219,0.00433383075669624,0.999999999820512,0.368441051957971,0.454369824996896,-0.00433383075669624,-0.00431496655678628,0.5,0.99564722275303,0.921518213845839,0.0957054876755631,1.87863972337246,0.5,61.392578237215
CBC_1087,CBC_1087_MSI_AV_v3_Vset1_Aset1_2024-03-23_10h00.48.030.csv,1,38,3,1,z,0,1,3,aud,B,27,1,3B,1B,0,1,z,2.26829850000013,0,1,1,1,1B,3B,B31,3.27714473299218,0.999999999820512,1.88641999099657e-05,0.5,0.0021763886234849,4.12353165223715e-08,0.999999917708855,0.0021763886234849,0.0021763886234849,0.0021763886234849,0.5,0.999999999999219,0.00433387181252454,0.5,0.0021763886234849,0.0021763886234849,0.00435277724696981,0.999999999820512,1.79488162270679e-10,0.999999917708855,0.0021763886234849,0.147213801801819,0.544767393373719,8.22911448983277e-08,8.19329498751871e-08,0.5,0.99564722275303,0.921518213845839,0.0957054876755631,1.87863972337246,0.5,61.392578237215
CBC_1087,CBC_1087_MSI_AV_v3_Vset1_Aset1_2024-03-23_10h00.48.030.csv,1,39,2,3,b,1,0,0,aud,C,63,1,2C,3C,1,0,b,1.8122958999993,1,0,1,1,2C,3C,C23,2.60268968544438,0.999999999820512,1.88641999099657e-05,0.5,0.0021763886234849,4.12353165223715e-08,0.999999999641805,0.0021763886234849,0.0021763886234849,0.0021763886234849,0.5,0.999999999999219,0.00433387181252454,0.5,0.0021763886234849,0.0021763886234849,0.00435277724696981,0.999999999999997,3.33066907387547e-15,0.999999999999219,0.00433387181252454,0.278645025738816,0.543954101867564,7.81263942428723e-13,7.77863274516241e-13,0.5,0.99564722275303,0.921518213845839,0.0957054876755631,1.87863972337246,0.5,61.392578237215
CBC_1087,CBC_1087_MSI_AV_v3_Vset1_Aset1_2024-03-23_10h00.48.030.csv,1,40,2,3,z,0,1,1,aud,D,63,1,2D,3D,0,1,b,1.3577540999986,1,0,0,0,2D,3D,D23,2.62103882411258,0.999999999820512,1.88641999099657e-05,0.5,0.0021763886234849,4.12353165223715e-08,0.999999999641805,0.0021763886234849,0.0021763886234849,0.0021763886234849,0.5,0.999999999999997,0.00433387181252454,0.5,0.0021763886234849,0.0021763886234849,0.00435277724696981,0.332848283875508,0.667151716124492,0.0021763886234849,0.00435277724696981,0.458583832879777,0.485004269744196,-0.0021763886234849,-0.00216691528860403,0.5,0.99564722275303,0.921518213845839,0.0957054876755631,1.87863972337246,0.5,61.392578237215
CBC_1087,CBC_1087_MSI_AV_v3_Vset1_Aset1_2024-03-23_10h00.48.030.csv,1,41,1,0,b,1,0,3,aud,B,63,1,1B,0B,1,0,b,2.61867099999927,1,0,1,1,1B,0B,B10,2.63905732961526,0.999999999820512,1.88641999099657e-05,0.5,0.0021763886234849,4.12353165223715e-08,0.999999999641805,0.0021763886234849,0.0021763886234849,0.0021763886234849,0.5,0.999999999999997,0.00433387181252454,0.5,0.0021763886234849,9.47333488086899e-06,0.00435277724696981,1,0,0.999999999641805,4.12353165223715e-08,0.0899910696322479,0.544365989825196,3.58195029193098e-10,3.56635886020049e-10,0.5,0.99564722275303,0.921518213845839,0.0957054876755631,1.87863972337246,0.5,61.392578237215
CBC_1087,CBC_1087_MSI_AV_v3_Vset1_Aset1_2024-03-23_10h00.48.030.csv,1,42,0,2,b,1,0,2,aud,A,27,1,0A,2A,NaN,NaN,[],NaN,NaN,NaN,NaN,NaN,,,A02,3.3499040872746,0.999999999820512,1.88641999099657e-05,0.5,0.0021763886234849,4.12353165223715e-08,0.999999999998441,0.0021763886234849,0.0021763886234849,0.0021763886234849,0.5,0.999999999999997,0.00433387181252454,0.5,0.0021763886234849,9.47333488086899e-06,0.00435277724696981,0,0,0,0,NaN,0,0,0,0.5,0.99564722275303,0.921518213845839,0.0957054876755631,1.87863972337246,0.5,61.392578237215
CBC_1087,CBC_1087_MSI_AV_v3_Vset1_Aset1_2024-03-23_10h00.48.030.csv,1,43,0,3,z,0,1,1,aud,D,9,1,0D,3D,0,1,b,1.8984862999996,1,0,0,0,0D,3D,D03,4.06044301054642,0.999999999820512,1.88641999099657e-05,0.5,0.0021763886234849,4.12353165223715e-08,0.999999999998441,0.0021763886234849,0.0021763886234849,0.0021763886234849,0.5,0.999999999999997,0.00433387181252454,0.5,0.0021763886234849,9.47333488086899e-06,0.00435277724696981,0.99564722275303,0.00435277724696981,0.5,0.00435277724696981,0.247359031378941,0.54489484915451,-0.5,-0.497823611376515,0.5,0.99564722275303,0.921518213845839,0.0957054876755631,1.87863972337246,0.5,61.392578237215
CBC_1087,CBC_1087_MSI_AV_v3_Vset1_Aset1_2024-03-23_10h00.48.030.csv,1,44,2,3,b,1,0,0,aud,C,63,1,2C,3C,1,0,z,1.24330169999939,0,1,0,0,3C,2C,C23,2.46809953147162,0.999999999820512,1.88641999099657e-05,0.5,0.0021763886234849,4.12353165223715e-08,0.999999999998441,0.0021763886234849,0.0021763886234849,0.0021763886234849,0.5,0.999999999999997,0.00433387181252454,0.0021763886234849,0.0021763886234849,9.47333488086899e-06,0.00435277724696981,0,1,0.00433387181252454,0.999999999999997,0.475712625106024,0.455263940846387,-0.00433387181252454,-0.0043150074339077,0.5,0.99564722275303,0.921518213845839,0.0957054876755631,1.87863972337246,0.5,61.392578237215
CBC_1087,CBC_1087_MSI_TV_v3_Vset2_Tset3_2024-03-23_11h27.59.968.csv,2,1,1,0,z,0,1,2,tac,A,63,1,1A,0A,0,1,z,1.27492519999942,0,1,1,1,0A,1A,A10,2.77258872223978,0.5,0.5,0.5,0.5,0.5,0.5,0.5,0.5,0.5,0.5,0.5,0.5,0.5,0.5,0.5,0.5,0.5,0.5,0.5,0.5,0.435444369068851,0.500264902431678,0.5,0.00206036987594482,0.5,0.00412073975188965,0.880546930470304,0.0222185101532689,2.05156085249591,0.5,68.7405573707638
CBC_1087,CBC_1087_MSI_TV_v3_Vset2_Tset3_2024-03-23_11h27.59.968.csv,2,2,3,2,b,1,0,1,tac,D,63,1,3D,2D,1,0,z,2.41575089999787,0,1,0,0,2D,3D,D32,2.83321334405622,0.502060369875945,0.5,0.5,0.5,0.5,0.5,0.5,0.5,0.5,0.5,0.5,0.5,0.5,0.5,0.5,0.5,0.5,0.5,0.5,0.5,0.123443348191358,0.500239047048542,-0.5,-0.00206036987594482,0.5,0.00412073975188965,0.880546930470304,0.0222185101532689,2.05156085249591,0.5,68.7405573707638
CBC_1087,CBC_1087_MSI_TV_v3_Vset2_Tset3_2024-03-23_11h27.59.968.csv,2,3,2,0,b,1,0,0,tac,C,27,1,2C,0C,NaN,NaN,None,NaN,NaN,NaN,NaN,NaN,,,C20,2.89037175789616,0.502060369875945,0.5,0.5,0.5,0.5,0.5,0.5,0.5,0.5,0.5,0.5,0.5,0.5,0.5,0.497939630124055,0.5,0,0,0,0,NaN,0,0,0,0.5,0.00412073975188965,0.880546930470304,0.0222185101532689,2.05156085249591,0.5,68.7405573707638
CBC_1087,CBC_1087_MSI_TV_v3_Vset2_Tset3_2024-03-23_11h27.59.968.csv,2,4,1,0,z,0,1,2,tac,A,63,1,1A,0A,0,1,b,0.997775099998762,1,0,0,0,1A,0A,A10,2.2512917986065,0.502060369875945,0.5,0.5,0.5,0.5,0.5,0.5,0.5,0.5,0.5,0.5,0.5,0.5,0.5,0.497939630124055,0.5,0.497939630124055,0.502060369875945,0.5,0.502060369875945,0.114684579691981,0.500201689461582,-0.5,-0.00206036987594482,0.5,0.00412073975188965,0.880546930470304,0.0222185101532689,2.05156085249591,0.5,68.7405573707638
CBC_1087,CBC_1087_MSI_TV_v3_Vset2_Tset3_2024-03-23_11h27.59.968.csv,2,5,3,1,z,0,1,3,tac,B,27,1,3B,1B,0,1,z,3.9083198999997,0,1,1,1,1B,3B,B31,2.99573227355399,0.502060369875945,0.497939630124055,0.5,0.5,0.5,0.5,0.5,0.5,0.5,0.5,0.5,0.5,0.5,0.5,0.497939630124055,0.5,0.5,0.5,0.5,0.5,0.0214454846332537,0.500098631458783,0.5,0.00206036987594482,0.5,0.00412073975188965,0.880546930470304,0.0222185101532689,2.05156085249591,0.5,68.7405573707638
CBC_1087,CBC_1087_MSI_TV_v3_Vset2_Tset3_2024-03-23_11h27.59.968.csv,2,6,2,3,b,1,0,0,tac,C,63,1,2C,3C,1,0,z,1.30536649999885,0,1,0,0,3C,2C,C23,3.04452243772342,0.502060369875945,0.497939630124055,0.5,0.5,0.5,0.502060369875945,0.5,0.5,0.5,0.5,0.5,0.5,0.5,0.5,0.497939630124055,0.5,0.5,0.5,0.5,0.5,0.42811284784752,0.499783899912526,-0.5,-0.00206036987594482,0.5,0.00412073975188965,0.880546930470304,0.0222185101532689,2.05156085249591,0.5,68.7405573707638
CBC_1087,CBC_1087_MSI_TV_v3_Vset2_Tset3_2024-03-23_11h27.59.968.csv,2,7,2,3,z,0,1,1,tac,D,63,1,2D,3D,0,1,z,2.25793309999972,0,1,1,1,3D,2D,D23,3.09104245335832,0.502060369875945,0.497939630124055,0.5,0.5,0.5,0.502060369875945,0.5,0.5,0.5,0.5,0.5,0.497939630124055,0.5,0.5,0.497939630124055,0.5,0.502060369875945,0.497939630124055,0.5,0.497939630124055,0.148531431621951,0.500230855899349,0.5,0.00206036987594482,0.5,0.00412073975188965,0.880546930470304,0.0222185101532689,2.05156085249591,0.5,68.7405573707638
CBC_1087,CBC_1087_MSI_TV_v3_Vset2_Tset3_2024-03-23_11h27.59.968.csv,2,8,1,0,b,1,0,3,tac,B,63,1,1B,0B,1,0,b,2.0608902999993,1,0,1,1,1B,0B,B10,3.13549421592915,0.502060369875945,0.497939630124055,0.5,0.5,0.5,0.502060369875945,0.5,0.5,0.5,0.5,0.5,0.497939630124055,0.5,0.5,0.497939630124055,0.502060369875945,0.502060369875945,0.497939630124055,0.502060369875945,0.5,0.186996247665667,0.499883258417577,0.497939630124055,0.00205187962789342,0.5,0.00412073975188965,0.880546930470304,0.0222185101532689,2.05156085249591,0.5,68.7405573707638
CBC_1087,CBC_1087_MSI_TV_v3_Vset2_Tset3_2024-03-23_11h27.59.968.csv,2,9,0,2,b,1,0,2,tac,A,27,1,0A,2A,1,0,z,1.06160669999917,0,1,0,0,2A,0A,A02,3.17805383034795,0.502060369875945,0.497939630124055,0.5,0.5,0.5,0.504112249503838,0.5,0.5,0.5,0.5,0.5,0.497939630124055,0.5,0.5,0.497939630124055,0.502060369875945,0.497939630124055,0.502060369875945,0.5,0.502060369875945,0.289937682452037,0.498872283783433,-0.5,-0.00206036987594482,0.5,0.00412073975188965,0.880546930470304,0.0222185101532689,2.05156085249591,0.5,68.7405573707638
CBC_1087,CBC_1087_MSI_TV_v3_Vset2_Tset3_2024-03-23_11h27.59.968.csv,2,10,0,3,z,0,1,1,tac,D,9,1,0D,3D,0,1,z,1.48735059999854,0,1,1,1,3D,0D,D03,3.2188758248682,0.502060369875945,0.497939630124055,0.497939630124055,0.5,0.5,0.504112249503838,0.5,0.5,0.5,0.5,0.5,0.497939630124055,0.5,0.5,0.497939630124055,0.502060369875945,0.502060369875945,0.497939630124055,0.502060369875945,0.5,0.362858119721628,0.500179839629115,0.497939630124055,0.00205187962789342,0.5,0.00412073975188965,0.880546930470304,0.0222185101532689,2.05156085249591,0.5,68.7405573707638
CBC_1087,CBC_1087_MSI_TV_v3_Vset2_Tset3_2024-03-23_11h27.59.968.csv,2,11,3,2,z,0,1,0,tac,C,63,1,3C,2C,0,1,b,1.27370259999952,1,0,0,0,3C,2C,C32,3.25809653802148,0.502060369875945,0.497939630124055,0.497939630124055,0.5,0.5,0.504112249503838,0.5,0.5,0.5,0.5,0.5,0.497939630124055,0.5,0.5,0.497939630124055,0.504112249503838,0.497939630124055,0.502060369875945,0.497939630124055,0.5,0.435277544970259,0.499817721453131,-0.497939630124055,-0.00205187962789342,0.5,0.00412073975188965,0.880546930470304,0.0222185101532689,2.05156085249591,0.5,68.7405573707638
CBC_1087,CBC_1087_MSI_TV_v3_Vset2_Tset3_2024-03-23_11h27.59.968.csv,2,12,1,0,b,1,0,3,tac,B,63,1,1B,0B,1,0,z,1.70006610000019,0,1,0,0,0B,1B,B10,2.60268968544438,0.502060369875945,0.497939630124055,0.497939630124055,0.5,0.5,0.504112249503838,0.5,0.5,0.5,0.5,0.5,0.495887750496162,0.5,0.5,0.497939630124055,0.504112249503838,0.495887750496162,0.504112249503838,0.5,0.504112249503838,0.285211258636335,0.500092026293794,-0.5,-0.00206036987594482,0.5,0.00412073975188965,0.880546930470304,0.0222185101532689,2.05156085249591,0.5,68.7405573707638
CBC_1087,CBC_1087_MSI_TV_v3_Vset2_Tset3_2024-03-23_11h27.59.968.csv,2,13,3,2,b,1,0,1,tac,D,63,1,3D,2D,1,0,b,1.8789917999984,1,0,1,1,3D,2D,D32,2.63905732961526,0.502060369875945,0.497939630124055,0.497939630124055,0.5,0.497939630124055,0.504112249503838,0.5,0.5,0.5,0.5,0.5,0.495887750496162,0.5,0.5,0.497939630124055,0.504112249503838,0.506172410190506,0.493827589809494,0.504112249503838,0.497939630124055,0.231042916527011,0.499111559420574,0.495887750496162,0.00204342436594467,0.5,0.00412073975188965,0.880546930470304,0.0222185101532689,2.05156085249591,0.5,68.7405573707638
CBC_1087,CBC_1087_MSI_TV_v3_Vset2_Tset3_2024-03-23_11h27.59.968.csv,2,14,3,2,z,0,1,0,tac,C,63,1,3C,2C,0,1,b,1.63316479999958,1,0,0,0,3C,2C,C32,2.67414864942653,0.502060369875945,0.497939630124055,0.497939630124055,0.5,0.497939630124055,0.504112249503838,0.5,0.5,0.5,0.5,0.5,0.495887750496162,0.5,0.5,0.497939630124055,0.506155673869783,0.495887750496162,0.504112249503838,0.495887750496162,0.5,0.30841024962104,0.500574766328201,-0.495887750496162,-0.00204342436594467,0.5,0.00412073975188965,0.880546930470304,0.0222185101532689,2.05156085249591,0.5,68.7405573707638
CBC_1087,CBC_1087_MSI_TV_v3_Vset2_Tset3_2024-03-23_11h27.59.968.csv,2,15,1,3,b,1,0,3,tac,B,27,1,1B,3B,1,0,z,2.50123659999917,0,1,0,0,3B,1B,B13,3.40119738166216,0.502060369875945,0.497939630124055,0.497939630124055,0.5,0.497939630124055,0.504112249503838,0.5,0.5,0.5,0.5,0.5,0.493844326130217,0.5,0.5,0.497939630124055,0.506155673869783,0.495887750496162,0.504112249503838,0.5,0.504112249503838,0.111386255237783,0.498965572630624,-0.5,-0.00206036987594482,0.5,0.00412073975188965,0.880546930470304,0.0222185101532689,2.05156085249591,0.5,68.7405573707638
CBC_1087,CBC_1087_MSI_TV_v3_Vset2_Tset3_2024-03-23_11h27.59.968.csv,2,16,3,0,z,0,1,2,tac,A,9,1,3A,0A,0,1,b,1.55103459999918,1,0,0,0,3A,0A,A30,3.43398720448515,0.502060369875945,0.497939630124055,0.497939630124055,0.5,0.497939630124055,0.504112249503838,0.5,0.497939630124055,0.5,0.5,0.5,0.493844326130217,0.5,0.5,0.497939630124055,0.506155673869783,0.497939630124055,0.502060369875945,0.5,0.502060369875945,0.33832065977609,0.500210717538843,-0.5,-0.00206036987594482,0.5,0.00412073975188965,0.880546930470304,0.0222185101532689,2.05156085249591,0.5,68.7405573707638
CBC_1087,CBC_1087_MSI_TV_v3_Vset2_Tset3_2024-03-23_11h27.59.968.csv,2,17,3,2,b,1,0,1,tac,D,63,1,3D,2D,1,0,z,2.55268350000006,0,1,0,0,2D,3D,D32,2.36712361413162,0.502060369875945,0.497939630124055,0.497939630124055,0.497939630124055,0.497939630124055,0.504112249503838,0.5,0.497939630124055,0.5,0.5,0.5,0.493844326130217,0.5,0.5,0.497939630124055,0.506155673869783,0.491784373048309,0.508215626951691,0.497939630124055,0.506155673869783,0.105068473296023,0.499927869063133,-0.497939630124055,-0.00205187962789342,0.5,0.00412073975188965,0.880546930470304,0.0222185101532689,2.05156085249591,0.5,68.7405573707638
CBC_1087,CBC_1087_MSI_TV_v3_Vset2_Tset3_2024-03-23_11h27.59.968.csv,2,18,2,0,b,1,0,0,tac,C,27,1,2C,0C,1,0,z,1.98515760000009,0,1,0,0,0C,2C,C20,2.80336038090653,0.502060369875945,0.497939630124055,0.497939630124055,0.497939630124055,0.497939630124055,0.504112249503838,0.5,0.497939630124055,0.5,0.5,0.5,0.493844326130217,0.5,0.5,0.495887750496162,0.506155673869783,0.5,0.5,0.5,0.5,0.204220955193861,0.499567486496777,-0.5,-0.00206036987594482,0.5,0.00412073975188965,0.880546930470304,0.0222185101532689,2.05156085249591,0.5,68.7405573707638
CBC_1087,CBC_1087_MSI_TV_v3_Vset2_Tset3_2024-03-23_11h27.59.968.csv,2,19,1,0,z,0,1,2,tac,A,63,1,1A,0A,0,1,b,1.43620290000035,1,0,0,0,1A,0A,A10,2.42774823594805,0.502060369875945,0.497939630124055,0.497939630124055,0.497939630124055,0.497939630124055,0.504112249503838,0.5,0.497939630124055,0.497939630124055,0.5,0.5,0.493844326130217,0.5,0.5,0.495887750496162,0.506155673869783,0.495879330219128,0.504120669780872,0.497939630124055,0.502060369875945,0.382733103960023,0.500015702328274,-0.497939630124055,-0.00205187962789342,0.5,0.00412073975188965,0.880546930470304,0.0222185101532689,2.05156085249591,0.5,68.7405573707638
CBC_1087,CBC_1087_MSI_TV_v3_Vset2_Tset3_2024-03-23_11h27.59.968.csv,2,20,0,1,z,0,1,3,tac,B,63,0,0B,1B,1,0,z,1.27195219999885,0,1,1,0,1B,0B,B01,3.55534806148941,0.502060369875945,0.495887750496162,0.497939630124055,0.497939630124055,0.497939630124055,0.504112249503838,0.5,0.497939630124055,0.497939630124055,0.5,0.5,0.493844326130217,0.5,0.5,0.495887750496162,0.506155673869783,0.506172410190506,0.493827589809494,0.504112249503838,0.497939630124055,0.435803089008477,0.500065101371293,-0.504112249503838,-0.00207731538594498,0.5,0.00412073975188965,0.880546930470304,0.0222185101532689,2.05156085249591,0.5,68.7405573707638
CBC_1087,CBC_1087_MSI_TV_v3_Vset2_Tset3_2024-03-23_11h27.59.968.csv,2,21,1,3,z,0,1,1,tac,D,27,1,1D,3D,0,1,b,2.40451889999895,1,0,0,0,1D,3D,D13,3.58351893845611,0.502060369875945,0.495887750496162,0.497939630124055,0.497939630124055,0.497939630124055,0.502034934117893,0.5,0.497939630124055,0.497939630124055,0.5,0.5,0.493844326130217,0.5,0.5,0.495887750496162,0.506155673869783,0.493844326130217,0.506155673869783,0.5,0.506155673869783,0.125147136138028,0.500508753078218,-0.5,-0.00206036987594482,0.5,0.00412073975188965,0.880546930470304,0.0222185101532689,2.05156085249591,0.5,68.7405573707638
CBC_1087,CBC_1087_MSI_TV_v3_Vset2_Tset3_2024-03-23_11h27.59.968.csv,2,22,2,3,b,1,0,0,tac,C,63,1,2C,3C,1,0,z,2.82752409999921,0,1,0,0,3C,2C,C23,2.91777073208428,0.502060369875945,0.495887750496162,0.497939630124055,0.497939630124055,0.497939630124055,0.502034934117893,0.5,0.497939630124055,0.497939630124055,0.5,0.5,0.493844326130217,0.5,0.497939630124055,0.495887750496162,0.506155673869783,0.493844326130217,0.506155673869783,0.493844326130217,0.5,0.0760703016631734,0.499571705342876,-0.493844326130217,-0.00203500394592994,0.5,0.00412073975188965,0.880546930470304,0.0222185101532689,2.05156085249591,0.5,68.7405573707638
CBC_1087,CBC_1087_MSI_TV_v3_Vset2_Tset3_2024-03-23_11h27.59.968.csv,2,23,1,0,b,1,0,3,tac,B,63,1,1B,0B,1,0,z,1.19705309999881,0,1,0,0,0B,1B,B10,2.53897387105828,0.502060369875945,0.495887750496162,0.497939630124055,0.497939630124055,0.497939630124055,0.502034934117893,0.5,0.497939630124055,0.497939630124055,0.5,0.5,0.491809322184287,0.5,0.497939630124055,0.495887750496162,0.506155673869783,0.495904764686812,0.504095235313188,0.497939630124055,0.502034934117893,0.435178787448615,0.499062190530826,-0.497939630124055,-0.00205187962789342,0.5,0.00412073975188965,0.880546930470304,0.0222185101532689,2.05156085249591,0.5,68.7405573707638
CBC_1087,CBC_1087_MSI_TV_v3_Vset2_Tset3_2024-03-23_11h27.59.968.csv,2,24,2,0,z,0,1,2,tac,A,27,1,2A,0A,0,1,b,1.25033519999852,1,0,0,0,2A,0A,A20,3.66356164612965,0.502060369875945,0.495887750496162,0.497939630124055,0.497939630124055,0.495887750496162,0.502034934117893,0.5,0.497939630124055,0.497939630124055,0.5,0.5,0.491809322184287,0.5,0.497939630124055,0.495887750496162,0.506155673869783,0.495879330219128,0.504120669780872,0.497939630124055,0.502060369875945,0.439195563330874,0.500606123394595,-0.497939630124055,-0.00205187962789342,0.5,0.00412073975188965,0.880546930470304,0.0222185101532689,2.05156085249591,0.5,68.7405573707638
CBC_1087,CBC_1087_MSI_TV_v3_Vset2_Tset3_2024-03-23_11h27.59.968.csv,2,25,2,3,z,0,1,1,tac,D,63,1,2D,3D,0,1,z,2.31154449999849,0,1,1,1,3D,2D,D23,2.99573227355399,0.502060369875945,0.495887750496162,0.495887750496162,0.497939630124055,0.495887750496162,0.502034934117893,0.5,0.497939630124055,0.497939630124055,0.5,0.5,0.491809322184287,0.5,0.497939630124055,0.495887750496162,0.506155673869783,0.510266883803718,0.489733116196282,0.506155673869783,0.495887750496162,0.139524881664014,0.500381529247479,0.493844326130217,0.00203500394592994,0.5,0.00412073975188965,0.880546930470304,0.0222185101532689,2.05156085249591,0.5,68.7405573707638
CBC_1087,CBC_1087_MSI_TV_v3_Vset2_Tset3_2024-03-23_11h27.59.968.csv,2,26,2,0,b,1,0,0,tac,C,27,1,2C,0C,1,0,b,1.06158239999786,1,0,1,1,2C,0C,C20,2.6149597780362,0.502060369875945,0.495887750496162,0.495887750496162,0.497939630124055,0.495887750496162,0.502034934117893,0.5,0.497939630124055,0.497939630124055,0.5,0.5,0.491809322184287,0.5,0.497939630124055,0.495887750496162,0.508190677815713,0.502060369875945,0.497939630124055,0.5,0.497939630124055,0.290395792423417,0.499755815921415,0.5,0.00206036987594482,0.5,0.00412073975188965,0.880546930470304,0.0222185101532689,2.05156085249591,0.5,68.7405573707638
CBC_1087,CBC_1087_MSI_TV_v3_Vset2_Tset3_2024-03-23_11h27.59.968.csv,2,27,1,0,b,1,0,3,tac,B,63,1,1B,0B,1,0,b,2.29405729999962,1,0,1,1,1B,0B,B10,2.35137525716348,0.502060369875945,0.495887750496162,0.495887750496162,0.497939630124055,0.495887750496162,0.502034934117893,0.5,0.497939630124055,0.497939630124055,0.5,0.502060369875945,0.491809322184287,0.5,0.497939630124055,0.495887750496162,0.508190677815713,0.506146977866233,0.493853022133767,0.502034934117893,0.495887750496162,0.142384788631918,0.500275351078905,0.497965065882107,0.00205198444203274,0.5,0.00412073975188965,0.880546930470304,0.0222185101532689,2.05156085249591,0.5,68.7405573707638
CBC_1087,CBC_1087_MSI_TV_v3_Vset2_Tset3_2024-03-23_11h27.59.968.csv,2,28,0,1,b,1,0,2,tac,A,63,1,0A,1A,1,0,z,2.52652299999863,0,1,0,0,1A,0A,A01,3.76120011569356,0.502060369875945,0.495887750496162,0.495887750496162,0.497939630124055,0.495887750496162,0.504086918559926,0.5,0.497939630124055,0.497939630124055,0.5,0.502060369875945,0.491809322184287,0.5,0.497939630124055,0.495887750496162,0.508190677815713,0.493827589809494,0.506172410190506,0.495887750496162,0.502060369875945,0.108348193485371,0.499960650314407,-0.495887750496162,-0.00204342436594467,0.5,0.00412073975188965,0.880546930470304,0.0222185101532689,2.05156085249591,0.5,68.7405573707638
CBC_1087,CBC_1087_MSI_TV_v3_Vset2_Tset3_2024-03-23_11h27.59.968.csv,2,29,3,2,z,0,1,0,tac,C,63,1,3C,2C,0,1,b,1.59981899999912,1,0,0,0,3C,2C,C32,2.68557734525015,0.502060369875945,0.493844326130217,0.495887750496162,0.497939630124055,0.495887750496162,0.504086918559926,0.5,0.497939630124055,0.497939630124055,0.5,0.502060369875945,0.491809322184287,0.5,0.497939630124055,0.495887750496162,0.508190677815713,0.489749644241216,0.510250355758784,0.491809322184287,0.502060369875945,0.3200977464835,0.500098644222569,-0.491809322184287,-0.00202661822427469,0.5,0.00412073975188965,0.880546930470304,0.0222185101532689,2.05156085249591,0.5,68.7405573707638
CBC_1087,CBC_1087_MSI_TV_v3_Vset2_Tset3_2024-03-23_11h27.59.968.csv,2,30,3,1,b,1,0,1,tac,D,27,1,3D,1D,1,0,b,1.46088539999801,1,0,1,1,3D,1D,D31,3.80666248977032,0.502060369875945,0.493844326130217,0.495887750496162,0.497939630124055,0.495887750496162,0.504086918559926,0.5,0.497939630124055,0.497939630124055,0.5,0.502060369875945,0.489782703960012,0.5,0.497939630124055,0.495887750496162,0.508190677815713,0.510250355758784,0.489749644241216,0.508190677815713,0.497939630124055,0.373397584092984,0.500423599404996,0.491809322184287,0.00202661822427469,0.5,0.00412073975188965,0.880546930470304,0.0222185101532689,2.05156085249591,0.5,68.7405573707638
CBC_1087,CBC_1087_MSI_TV_v3_Vset2_Tset3_2024-03-23_11h27.59.968.csv,2,31,1,0,z,0,1,2,tac,A,63,1,1A,0A,0,1,z,2.29312379999828,0,1,1,1,0A,1A,A10,2.4423470353692,0.502060369875945,0.493844326130217,0.495887750496162,0.497939630124055,0.495887750496162,0.504086918559926,0.5,0.497939630124055,0.497939630124055,0.5,0.502060369875945,0.489782703960012,0.5,0.497939630124055,0.495887750496162,0.510217296039988,0.508215626951691,0.491784373048309,0.502060369875945,0.493844326130217,0.1424199403176,0.499851476346755,0.497939630124055,0.00205187962789342,0.5,0.00412073975188965,0.880546930470304,0.0222185101532689,2.05156085249591,0.5,68.7405573707638
CBC_1087,CBC_1087_MSI_TV_v3_Vset2_Tset3_2024-03-23_11h27.59.968.csv,2,32,3,2,b,1,0,1,tac,D,63,1,3D,2D,1,0,b,1.90724760000012,1,0,1,1,3D,2D,D32,2.46385324059017,0.504112249503838,0.493844326130217,0.495887750496162,0.497939630124055,0.495887750496162,0.504086918559926,0.5,0.497939630124055,0.497939630124055,0.5,0.502060369875945,0.489782703960012,0.5,0.497939630124055,0.495887750496162,0.510217296039988,0.514327137663717,0.485672862336283,0.510217296039988,0.495887750496162,0.223987284842787,0.500138319511367,0.489782703960012,0.00201826705799602,0.5,0.00412073975188965,0.880546930470304,0.0222185101532689,2.05156085249591,0.5,68.7405573707638
CBC_1087,CBC_1087_MSI_TV_v3_Vset2_Tset3_2024-03-23_11h27.59.968.csv,2,33,2,1,z,0,1,3,tac,B,9,1,2B,1B,0,1,b,1.77786620000006,1,0,0,0,2B,1B,B21,3.87120101090789,0.504112249503838,0.493844326130217,0.495887750496162,0.497939630124055,0.495887750496162,0.504086918559926,0.5,0.497939630124055,0.497939630124055,0.5,0.502060369875945,0.489782703960012,0.5,0.497939630124055,0.495887750496162,0.512235563097984,0.495913081440074,0.504086918559926,0.5,0.504086918559926,0.260353951324032,0.499750241638878,-0.5,-0.00206036987594482,0.5,0.00412073975188965,0.880546930470304,0.0222185101532689,2.05156085249591,0.5,68.7405573707638
CBC_1087,CBC_1087_MSI_TV_v3_Vset2_Tset3_2024-03-23_11h27.59.968.csv,2,34,1,0,z,0,1,2,tac,A,63,1,1A,0A,0,1,b,2.56297539999832,1,0,0,0,1A,0A,A10,2.28238238567653,0.504112249503838,0.493844326130217,0.495887750496162,0.497939630124055,0.495887750496162,0.504086918559926,0.497939630124055,0.497939630124055,0.497939630124055,0.5,0.502060369875945,0.489782703960012,0.5,0.497939630124055,0.495887750496162,0.512235563097984,0.489733116196282,0.510266883803718,0.493844326130217,0.504112249503838,0.103864283832463,0.500197772727921,-0.493844326130217,-0.00203500394592994,0.5,0.00412073975188965,0.880546930470304,0.0222185101532689,2.05156085249591,0.5,68.7405573707638
CBC_1087,CBC_1087_MSI_TV_v3_Vset2_Tset3_2024-03-23_11h27.59.968.csv,2,35,2,1,b,1,0,0,tac,C,9,1,2C,1C,1,0,z,1.56365489999916,0,1,0,0,1C,2C,C21,3.91202300542815,0.504112249503838,0.491809322184287,0.495887750496162,0.497939630124055,0.495887750496162,0.504086918559926,0.497939630124055,0.497939630124055,0.497939630124055,0.5,0.502060369875945,0.489782703960012,0.5,0.497939630124055,0.495887750496162,0.512235563097984,0.497939630124055,0.502060369875945,0.5,0.502060369875945,0.334191553380942,0.501157564716212,-0.5,-0.00206036987594482,0.5,0.00412073975188965,0.880546930470304,0.0222185101532689,2.05156085249591,0.5,68.7405573707638
CBC_1087,CBC_1087_MSI_TV_v3_Vset2_Tset3_2024-03-23_11h27.59.968.csv,2,36,1,0,b,1,0,3,tac,B,63,1,1B,0B,1,0,b,1.66563719999795,1,0,1,1,1B,0B,B10,2.32238772029023,0.504112249503838,0.491809322184287,0.495887750496162,0.497939630124055,0.495887750496162,0.504086918559926,0.497939630124055,0.497939630124055,0.497939630124055,0.497939630124055,0.502060369875945,0.489782703960012,0.5,0.497939630124055,0.495887750496162,0.512235563097984,0.508198616905878,0.491801383094122,0.504086918559926,0.495887750496162,0.297235560625488,0.500819286501204,0.495913081440074,0.0020435287481722,0.5,0.00412073975188965,0.880546930470304,0.0222185101532689,2.05156085249591,0.5,68.7405573707638
CBC_1087,CBC_1087_MSI_TV_v3_Vset2_Tset3_2024-03-23_11h27.59.968.csv,2,37,0,1,b,1,0,2,tac,A,63,0,0A,1A,0,1,z,2.99437679999937,0,1,0,1,1A,0A,A01,3.25809653802148,0.504112249503838,0.491809322184287,0.495887750496162,0.497939630124055,0.495887750496162,0.506130447308098,0.497939630124055,0.497939630124055,0.497939630124055,0.497939630124055,0.502060369875945,0.489782703960012,0.5,0.497939630124055,0.495887750496162,0.512235563097984,0.487698730011403,0.512301269988597,0.491809322184287,0.504112249503838,0.0624089261528415,0.498416298017169,0.508190677815713,0.00209412152761495,0.5,0.00412073975188965,0.880546930470304,0.0222185101532689,2.05156085249591,0.5,68.7405573707638
CBC_1087,CBC_1087_MSI_TV_v3_Vset2_Tset3_2024-03-23_11h27.59.968.csv,2,38,0,1,z,0,1,3,tac,B,63,1,0B,1B,0,1,b,1.25947589999851,1,0,0,0,0B,1B,B01,3.27714473299218,0.504112249503838,0.493903443711902,0.495887750496162,0.497939630124055,0.495887750496162,0.506130447308098,0.497939630124055,0.497939630124055,0.497939630124055,0.497939630124055,0.502060369875945,0.489782703960012,0.5,0.497939630124055,0.495887750496162,0.512235563097984,0.489758335954553,0.510241664045447,0.495887750496162,0.506130447308098,0.437230310311232,0.499522755219468,-0.495887750496162,-0.00204342436594467,0.5,0.00412073975188965,0.880546930470304,0.0222185101532689,2.05156085249591,0.5,68.7405573707638
CBC_1087,CBC_1087_MSI_TV_v3_Vset2_Tset3_2024-03-23_11h27.59.968.csv,2,39,1,3,z,0,1,1,tac,D,27,1,1D,3D,0,1,b,2.35354069999994,1,0,0,0,1D,3D,D13,3.29583686600433,0.504112249503838,0.493903443711902,0.495887750496162,0.497939630124055,0.493844326130217,0.506130447308098,0.497939630124055,0.497939630124055,0.497939630124055,0.497939630124055,0.502060369875945,0.489782703960012,0.5,0.497939630124055,0.495887750496162,0.512235563097984,0.48570550847034,0.51429449152966,0.497939630124055,0.512235563097984,0.132554238660647,0.499375232445297,-0.497939630124055,-0.00205187962789342,0.5,0.00412073975188965,0.880546930470304,0.0222185101532689,2.05156085249591,0.5,68.7405573707638
CBC_1087,CBC_1087_MSI_TV_v3_Vset2_Tset3_2024-03-23_11h27.59.968.csv,2,40,3,2,z,0,1,0,tac,C,63,1,3C,2C,0,1,b,1.41605460000028,1,0,0,0,3C,2C,C32,2.62103882411258,0.504112249503838,0.493903443711902,0.495887750496162,0.497939630124055,0.493844326130217,0.506130447308098,0.497939630124055,0.497939630124055,0.497939630124055,0.497939630124055,0.502060369875945,0.489782703960012,0.5,0.495887750496162,0.495887750496162,0.512235563097984,0.487723367845685,0.512276632154315,0.489782703960012,0.502060369875945,0.390870036602721,0.500454750600101,-0.489782703960012,-0.00201826705799602,0.5,0.00412073975188965,0.880546930470304,0.0222185101532689,2.05156085249591,0.5,68.7405573707638
CBC_1087,CBC_1087_MSI_TV_v3_Vset2_Tset3_2024-03-23_11h27.59.968.csv,2,41,0,2,b,1,0,2,tac,A,27,1,0A,2A,1,0,z,1.46984939999857,0,1,0,0,2A,0A,A02,3.3322045101752,0.504112249503838,0.493903443711902,0.495887750496162,0.497939630124055,0.493844326130217,0.506130447308098,0.497939630124055,0.497939630124055,0.497939630124055,0.497939630124055,0.502060369875945,0.487764436902016,0.5,0.495887750496162,0.495887750496162,0.512235563097984,0.491776057279414,0.508223942720586,0.495887750496162,0.504112249503838,0.369178361937936,0.499467053173787,-0.495887750496162,-0.00204342436594467,0.5,0.00412073975188965,0.880546930470304,0.0222185101532689,2.05156085249591,0.5,68.7405573707638
CBC_1087,CBC_1087_MSI_TV_v3_Vset2_Tset3_2024-03-23_11h27.59.968.csv,2,42,2,3,z,0,1,1,tac,D,63,1,2D,3D,0,1,b,3.96602709999934,1,0,0,0,2D,3D,D23,2.94443897916644,0.504112249503838,0.493903443711902,0.493844326130217,0.497939630124055,0.493844326130217,0.506130447308098,0.497939630124055,0.497939630124055,0.497939630124055,0.497939630124055,0.502060369875945,0.487764436902016,0.5,0.495887750496162,0.495887750496162,0.512235563097984,0.483655476941887,0.516344523058113,0.495887750496162,0.512235563097984,0.0200117799713499,0.499333316622656,-0.495887750496162,-0.00204342436594467,0.5,0.00412073975188965,0.880546930470304,0.0222185101532689,2.05156085249591,0.5,68.7405573707638
CBC_1087,CBC_1087_MSI_TV_v3_Vset2_Tset3_2024-03-23_11h27.59.968.csv,2,43,1,3,b,1,0,3,tac,B,27,1,1B,3B,1,0,b,1.71377960000063,1,0,1,1,1B,3B,B13,3.36729582998647,0.504112249503838,0.493903443711902,0.493844326130217,0.497939630124055,0.493844326130217,0.506130447308098,0.497939630124055,0.497939630124055,0.497939630124055,0.497939630124055,0.502060369875945,0.487764436902016,0.5,0.495887750496162,0.493844326130217,0.512235563097984,0.508190403372465,0.491809596627535,0.506130447308098,0.497939630124055,0.280844594329076,0.500333905840264,0.493869552691902,0.00203510789802548,0.5,0.00412073975188965,0.880546930470304,0.0222185101532689,2.05156085249591,0.5,68.7405573707638
CBC_1087,CBC_1087_MSI_TV_v3_Vset2_Tset3_2024-03-23_11h27.59.968.csv,2,44,3,2,z,0,1,0,tac,C,63,1,3C,2C,0,1,z,1.98507759999848,0,1,1,1,2C,3C,C32,2.46809953147162,0.504112249503838,0.493903443711902,0.493844326130217,0.497939630124055,0.493844326130217,0.508165555206124,0.497939630124055,0.497939630124055,0.497939630124055,0.497939630124055,0.502060369875945,0.487764436902016,0.5,0.495887750496162,0.493844326130217,0.512235563097984,0.51429449152966,0.48570550847034,0.502060369875945,0.487764436902016,0.204436205394307,0.500047154939783,0.497939630124055,0.00205187962789342,0.5,0.00412073975188965,0.880546930470304,0.0222185101532689,2.05156085249591,0.5,68.7405573707638
CBC_1087,CBC_1087_MSI_AV_v3_Vset4_Aset2_2024-03-23_11h37.29.616.csv,3,1,2,0,b,1,0,0,aud,C,27,1,2C,0C,1,0,b,2.53621510000085,1,0,1,1,2C,0C,C20,2.77258872223978,0.5,0.5,0.5,0.5,0.5,0.5,0.5,0.5,0.5,0.5,0.5,0.5,0.5,0.5,0.5,0.5,0.5,0.5,0.5,0.5,0.100964350646637,0.500103820370536,0.5,0.490971298037985,0.5,0.981942596075971,0.887912601181539,0.302125219422184,1.98283655869237,0.5,61.6599094540668
CBC_1087,CBC_1087_MSI_AV_v3_Vset4_Aset2_2024-03-23_11h37.29.616.csv,3,2,3,2,b,1,0,1,aud,D,63,1,3D,2D,1,0,b,2.36487320000197,1,0,1,1,3D,2D,D32,2.83321334405622,0.5,0.5,0.5,0.5,0.5,0.5,0.5,0.5,0.5,0.5,0.990971298037985,0.5,0.5,0.5,0.5,0.5,0.5,0.5,0.5,0.5,0.125275011665585,0.500446546588973,0.5,0.490971298037985,0.5,0.981942596075971,0.887912601181539,0.302125219422184,1.98283655869237,0.5,61.6599094540668
CBC_1087,CBC_1087_MSI_AV_v3_Vset4_Aset2_2024-03-23_11h37.29.616.csv,3,3,1,0,z,0,1,2,aud,A,63,1,1A,0A,0,1,z,1.61558450000121,0,1,1,1,0A,1A,A10,2.89037175789616,0.5,0.5,0.5,0.5,0.5,0.5,0.5,0.5,0.5,0.5,0.990971298037985,0.5,0.5,0.5,0.5,0.990971298037985,0.5,0.5,0.5,0.5,0.319521600575515,0.499375113474776,0.5,0.490971298037985,0.5,0.981942596075971,0.887912601181539,0.302125219422184,1.98283655869237,0.5,61.6599094540668
CBC_1087,CBC_1087_MSI_AV_v3_Vset4_Aset2_2024-03-23_11h37.29.616.csv,3,4,2,3,b,1,0,0,aud,C,63,1,2C,3C,1,0,b,1.15058760000284,1,0,1,1,2C,3C,C23,2.94443897916644,0.990971298037985,0.5,0.5,0.5,0.5,0.5,0.5,0.5,0.5,0.5,0.990971298037985,0.5,0.5,0.5,0.5,0.990971298037985,0.990971298037985,0.00902870196201466,0.990971298037985,0.5,0.599877013302055,0.642798115608186,0.00902870196201466,0.00886566704377689,0.5,0.981942596075971,0.887912601181539,0.302125219422184,1.98283655869237,0.5,61.6599094540668
CBC_1087,CBC_1087_MSI_AV_v3_Vset4_Aset2_2024-03-23_11h37.29.616.csv,3,5,0,2,b,1,0,2,aud,A,27,1,0A,2A,1,0,b,1.58631000000059,1,0,1,1,0A,2A,A02,2.99573227355399,0.990971298037985,0.5,0.5,0.5,0.5,0.5,0.5,0.5,0.5,0.5,0.999836965081762,0.5,0.5,0.5,0.5,0.990971298037985,0.990971298037985,0.00902870196201466,0.990971298037985,0.5,0.432004504255451,0.643495080908915,0.00902870196201466,0.00886566704377689,0.5,0.981942596075971,0.887912601181539,0.302125219422184,1.98283655869237,0.5,61.6599094540668
CBC_1087,CBC_1087_MSI_AV_v3_Vset4_Aset2_2024-03-23_11h37.29.616.csv,3,6,2,3,z,0,1,1,aud,D,63,1,2D,3D,0,1,z,1.52291050000167,0,1,1,1,3D,2D,D23,3.04452243772342,0.999836965081762,0.5,0.5,0.5,0.5,0.5,0.5,0.5,0.5,0.5,0.999836965081762,0.5,0.5,0.5,0.5,0.990971298037985,0.990971298037985,0.00902870196201466,0.990971298037985,0.5,0.467251951763817,0.642621032911887,0.00902870196201466,0.00886566704377689,0.5,0.981942596075971,0.887912601181539,0.302125219422184,1.98283655869237,0.5,61.6599094540668
CBC_1087,CBC_1087_MSI_AV_v3_Vset4_Aset2_2024-03-23_11h37.29.616.csv,3,7,3,2,b,1,0,1,aud,D,63,1,3D,2D,1,0,b,1.5159719000003,1,0,1,1,3D,2D,D32,2.39789527279837,0.999836965081762,0.5,0.5,0.5,0.5,0.5,0.5,0.5,0.5,0.5,0.999836965081762,0.5,0.5,0.5,0.5,0.999836965081762,0.999836965081762,0.00016303491823777,0.999836965081762,0.5,0.473482061603095,0.645224596456665,0.00016303491823777,0.000160090930865429,0.5,0.981942596075971,0.887912601181539,0.302125219422184,1.98283655869237,0.5,61.6599094540668
CBC_1087,CBC_1087_MSI_AV_v3_Vset4_Aset2_2024-03-23_11h37.29.616.csv,3,8,3,1,z,0,1,3,aud,B,27,1,3B,1B,0,1,b,2.35790220000126,1,0,0,0,3B,1B,B31,3.13549421592915,0.999836965081762,0.5,0.5,0.5,0.5,0.5,0.5,0.5,0.5,0.5,0.999836965081762,0.5,0.5,0.5,0.5,0.999997056012628,0.5,0.5,0.5,0.5,0.126112361201626,0.499402917351726,-0.5,-0.490971298037985,0.5,0.981942596075971,0.887912601181539,0.302125219422184,1.98283655869237,0.5,61.6599094540668
CBC_1087,CBC_1087_MSI_AV_v3_Vset4_Aset2_2024-03-23_11h37.29.616.csv,3,9,0,3,z,0,1,1,aud,D,9,1,0D,3D,0,1,z,2.43443300000035,0,1,1,1,3D,0D,D03,3.17805383034795,0.999836965081762,0.5,0.5,0.5,0.5,0.5,0.5,0.00902870196201466,0.5,0.5,0.999836965081762,0.5,0.5,0.5,0.5,0.999997056012628,0.999997056012628,2.94398737232804e-06,0.999997056012628,0.5,0.144203435318516,0.645411251419899,2.94398737232804e-06,2.89082660319867e-06,0.5,0.981942596075971,0.887912601181539,0.302125219422184,1.98283655869237,0.5,61.6599094540668
CBC_1087,CBC_1087_MSI_AV_v3_Vset4_Aset2_2024-03-23_11h37.29.616.csv,3,10,1,0,b,1,0,3,aud,B,63,1,1B,0B,1,0,b,2.30535450000025,1,0,1,1,1B,0B,B10,3.2188758248682,0.999836965081762,0.5,0.5,0.5,0.5,0.5,0.5,0.00902870196201466,0.5,0.5,0.999836965081762,0.5,0.5,0.5,0.5,0.999999946839231,0.5,0.5,0.5,0.5,0.135221831894042,0.501299258075041,0.5,0.490971298037985,0.5,0.981942596075971,0.887912601181539,0.302125219422184,1.98283655869237,0.5,61.6599094540668
CBC_1087,CBC_1087_MSI_AV_v3_Vset4_Aset2_2024-03-23_11h37.29.616.csv,3,11,1,0,z,0,1,2,aud,A,63,1,1A,0A,0,1,b,2.64063300000089,1,0,0,0,1A,0A,A10,2.56494935746154,0.999836965081762,0.5,0.5,0.5,0.5,0.990971298037985,0.5,0.00902870196201466,0.5,0.5,0.999836965081762,0.5,0.5,0.5,0.5,0.999999946839231,0.00016303491823777,0.999836965081762,0.5,0.999836965081762,0.0606068870134275,0.354687477675607,-0.5,-0.490971298037985,0.5,0.981942596075971,0.887912601181539,0.302125219422184,1.98283655869237,0.5,61.6599094540668
CBC_1087,CBC_1087_MSI_AV_v3_Vset4_Aset2_2024-03-23_11h37.29.616.csv,3,12,0,1,z,0,1,3,aud,B,63,1,0B,1B,NaN,NaN,[],NaN,NaN,NaN,NaN,NaN,,,B01,3.29583686600433,0.999836965081762,0.00902870196201466,0.5,0.5,0.5,0.990971298037985,0.5,0.00902870196201466,0.5,0.5,0.999836965081762,0.5,0.5,0.5,0.5,0.999999946839231,0,0,0,0,NaN,0,0,0,0.5,0.981942596075971,0.887912601181539,0.302125219422184,1.98283655869237,0.5,61.6599094540668
CBC_1087,CBC_1087_MSI_AV_v3_Vset4_Aset2_2024-03-23_11h37.29.616.csv,3,13,2,3,z,0,1,1,aud,D,63,1,2D,3D,0,1,b,2.34596180000153,1,0,0,0,2D,3D,D23,2.63905732961526,0.999836965081762,0.00902870196201466,0.5,0.5,0.5,0.990971298037985,0.5,0.00902870196201466,0.5,0.5,0.999836965081762,0.5,0.5,0.5,0.5,0.999999946839231,5.31607691200975e-08,0.999999946839231,0.5,0.999999946839231,0.0888122059371515,0.354318917574225,-0.5,-0.490971298037985,0.5,0.981942596075971,0.887912601181539,0.302125219422184,1.98283655869237,0.5,61.6599094540668
CBC_1087,CBC_1087_MSI_AV_v3_Vset4_Aset2_2024-03-23_11h37.29.616.csv,3,14,1,3,b,1,0,3,aud,B,27,1,1B,3B,1,0,b,1.57588430000214,1,0,1,1,1B,3B,B13,3.36729582998647,0.999836965081762,0.00902870196201466,0.5,0.5,0.5,0.990971298037985,0.5,0.00902870196201466,0.5,0.5,0.999836965081762,0.5,0.5,0.5,0.00902870196201466,0.999999946839231,0.999916997259209,8.30027407910938e-05,0.990971298037985,0.00902870196201466,0.439458746072881,0.645728328422422,0.00902870196201466,0.00886566704377689,0.5,0.981942596075971,0.887912601181539,0.302125219422184,1.98283655869237,0.5,61.6599094540668
CBC_1087,CBC_1087_MSI_AV_v3_Vset4_Aset2_2024-03-23_11h37.29.616.csv,3,15,3,2,z,0,1,0,aud,C,63,1,3C,2C,0,1,z,1.92889800000012,0,1,1,1,2C,3C,C32,3.40119738166216,0.999836965081762,0.00902870196201466,0.5,0.5,0.5,0.999836965081762,0.5,0.00902870196201466,0.5,0.5,0.999836965081762,0.5,0.5,0.5,0.00902870196201466,0.999999946839231,0.999836965081762,0.00016303491823777,0.999836965081762,0.5,0.278020822795605,0.644722883147183,0.00016303491823777,0.000160090930865429,0.5,0.981942596075971,0.887912601181539,0.302125219422184,1.98283655869237,0.5,61.6599094540668
CBC_1087,CBC_1087_MSI_AV_v3_Vset4_Aset2_2024-03-23_11h37.29.616.csv,3,16,2,0,b,1,0,0,aud,C,27,1,2C,0C,1,0,b,1.42072209999969,1,0,1,1,2C,0C,C20,2.7408400239252,0.999836965081762,0.00902870196201466,0.5,0.5,0.5,0.999836965081762,0.5,0.00902870196201466,0.5,0.5,0.999997056012628,0.5,0.5,0.5,0.00902870196201466,0.999999946839231,0.999997056012628,2.94398737232804e-06,0.999997056012628,0.5,0.531073503388648,0.645092038909763,2.94398737232804e-06,2.89082660319867e-06,0.5,0.981942596075971,0.887912601181539,0.302125219422184,1.98283655869237,0.5,61.6599094540668
CBC_1087,CBC_1087_MSI_AV_v3_Vset4_Aset2_2024-03-23_11h37.29.616.csv,3,17,0,3,b,1,0,2,aud,A,9,1,0A,3A,1,0,b,1.53041470000062,1,0,1,1,0A,3A,A03,3.46573590279973,0.999836965081762,0.00902870196201466,0.5,0.5,0.5,0.999836965081762,0.5,0.00902870196201466,0.5,0.5,0.999999946839231,0.5,0.5,0.5,0.00902870196201466,0.999999946839231,0.999836965081762,0.00016303491823777,0.999836965081762,0.5,0.465382033296325,0.64567245027384,0.00016303491823777,0.000160090930865429,0.5,0.981942596075971,0.887912601181539,0.302125219422184,1.98283655869237,0.5,61.6599094540668
CBC_1087,CBC_1087_MSI_AV_v3_Vset4_Aset2_2024-03-23_11h37.29.616.csv,3,18,2,3,b,1,0,0,aud,C,63,0,2C,3C,0,1,b,4.52145209999981,1,0,1,0,2C,3C,C23,2.80336038090653,0.999997056012628,0.00902870196201466,0.5,0.5,0.5,0.999836965081762,0.5,0.00902870196201466,0.5,0.5,0.999999946839231,0.5,0.5,0.5,0.00902870196201466,0.999999946839231,0.999999946839231,5.31607691200975e-08,0.999999946839231,0.5,0.00955072444891716,0.64487360062376,-0.999999946839231,-0.981942543875147,0.5,0.981942596075971,0.887912601181539,0.302125219422184,1.98283655869237,0.5,61.6599094540668
CBC_1087,CBC_1087_MSI_AV_v3_Vset4_Aset2_2024-03-23_11h37.29.616.csv,3,19,1,0,z,0,1,2,aud,A,63,1,1A,0A,0,1,z,1.49226940000153,0,1,1,1,0A,1A,A10,2.42774823594805,0.999997056012628,0.00902870196201466,0.5,0.5,0.5,0.999836965081762,0.5,0.00902870196201466,0.5,0.5,0.0180574029640839,0.5,0.5,0.5,0.00902870196201466,0.999999946839231,0.999999973177364,2.68226356877336e-08,0.999997056012628,0.00902870196201466,0.487423088914569,0.645039393360665,2.94398737232804e-06,2.89082660319867e-06,0.5,0.981942596075971,0.887912601181539,0.302125219422184,1.98283655869237,0.5,61.6599094540668
CBC_1087,CBC_1087_MSI_AV_v3_Vset4_Aset2_2024-03-23_11h37.29.616.csv,3,20,3,2,b,1,0,1,aud,D,63,1,3D,2D,1,0,b,1.36861070000123,1,0,1,1,3D,2D,D32,2.4567357728213,0.999999946839231,0.00902870196201466,0.5,0.5,0.5,0.999836965081762,0.5,0.00902870196201466,0.5,0.5,0.0180574029640839,0.5,0.5,0.5,0.00902870196201466,0.999999946839231,0.999999999515654,4.84345785700668e-10,0.999999946839231,0.00902870196201466,0.563777059402848,0.646146585547334,5.31607691200975e-08,5.22008236391838e-08,0.5,0.981942596075971,0.887912601181539,0.302125219422184,1.98283655869237,0.5,61.6599094540668
CBC_1087,CBC_1087_MSI_AV_v3_Vset4_Aset2_2024-03-23_11h37.29.616.csv,3,21,3,2,z,0,1,0,aud,C,63,1,3C,2C,0,1,b,1.93901780000124,1,0,0,0,3C,2C,C32,2.89037175789616,0.999999946839231,0.00902870196201466,0.5,0.5,0.5,0.999836965081762,0.5,0.00902870196201466,0.5,0.5,0.0180574029640839,0.5,0.5,0.5,0.00902870196201466,0.999999999040055,0.981942597035916,0.0180574029640839,0.5,0.0180574029640839,0.273004062005226,0.641334052714081,-0.5,-0.490971298037985,0.5,0.981942596075971,0.887912601181539,0.302125219422184,1.98283655869237,0.5,61.6599094540668
CBC_1087,CBC_1087_MSI_AV_v3_Vset4_Aset2_2024-03-23_11h37.29.616.csv,3,22,3,1,b,1,0,1,aud,D,27,1,3D,1D,1,0,z,1.51352620000216,0,1,0,0,1D,3D,D31,3.61091791264422,0.999999946839231,0.00902870196201466,0.5,0.5,0.5,0.999836965081762,0.5,0.00902870196201466,0.5,0.5,0.0180574029640839,0.00902870196201466,0.5,0.5,0.00902870196201466,0.999999999040055,9.59945456457945e-10,0.999999999040055,0.5,0.999999999040055,0.261149816319243,0.354794485735129,-0.5,-0.490971298037985,0.5,0.981942596075971,0.887912601181539,0.302125219422184,1.98283655869237,0.5,61.6599094540668
CBC_1087,CBC_1087_MSI_AV_v3_Vset4_Aset2_2024-03-23_11h37.29.616.csv,3,23,0,1,b,1,0,2,aud,A,63,1,0A,1A,1,0,b,4.00899350000145,1,0,1,1,0A,1A,A01,3.63758615972639,0.999999946839231,0.00902870196201466,0.5,0.5,0.5,0.999836965081762,0.5,0.00902870196201466,0.5,0.5,0.0180574029640839,0.00902870196201466,0.5,0.00902870196201466,0.00902870196201466,0.999999999040055,0.999999999515654,4.84345785700668e-10,0.999999946839231,0.00902870196201466,0.0185989571663051,0.645608793915669,5.31607691200975e-08,5.22008236391838e-08,0.5,0.981942596075971,0.887912601181539,0.302125219422184,1.98283655869237,0.5,61.6599094540668
CBC_1087,CBC_1087_MSI_AV_v3_Vset4_Aset2_2024-03-23_11h37.29.616.csv,3,24,3,2,z,0,1,0,aud,C,63,1,3C,2C,0,1,b,2.60357310000109,1,0,0,0,3C,2C,C32,2.56494935746154,0.999999999040055,0.00902870196201466,0.5,0.5,0.5,0.999836965081762,0.5,0.00902870196201466,0.5,0.5,0.0180574029640839,0.00902870196201466,0.5,0.00902870196201466,0.00902870196201466,0.999999999040055,0.331302519485075,0.668697480514925,0.00902870196201466,0.0180574029640839,0.0830856148034193,0.449569601246263,-0.00902870196201466,-0.00886566704377689,0.5,0.981942596075971,0.887912601181539,0.302125219422184,1.98283655869237,0.5,61.6599094540668
CBC_1087,CBC_1087_MSI_AV_v3_Vset4_Aset2_2024-03-23_11h37.29.616.csv,3,25,0,2,b,1,0,2,aud,A,27,1,0A,2A,1,0,z,1.9151477000014,0,1,0,0,2A,0A,A02,2.99573227355399,0.999999999040055,0.00902870196201466,0.5,0.5,0.5,0.999836965081762,0.5,0.00902870196201466,0.5,0.5,0.0180574029640839,0.000163034918237775,0.5,0.00902870196201466,0.00902870196201466,0.999999999040055,9.59945456457945e-10,0.999999999040055,0.5,0.999999999040055,0.155496412246185,0.354224598703214,-0.5,-0.490971298037985,0.5,0.981942596075971,0.887912601181539,0.302125219422184,1.98283655869237,0.5,61.6599094540668
CBC_1087,CBC_1087_MSI_AV_v3_Vset4_Aset2_2024-03-23_11h37.29.616.csv,3,26,1,0,b,1,0,3,aud,B,63,1,1B,0B,1,0,b,1.7541927000002,1,0,1,1,1B,0B,B10,3.02042488614436,0.999999999040055,0.00902870196201466,0.00902870196201466,0.5,0.5,0.999836965081762,0.5,0.00902870196201466,0.5,0.5,0.0180574029640839,0.000163034918237775,0.5,0.00902870196201466,0.00902870196201466,0.999999999040055,0.999836965081762,0.00016303491823777,0.999836965081762,0.5,0.349115563133342,0.645312948295068,0.00016303491823777,0.000160090930865429,0.5,0.981942596075971,0.887912601181539,0.302125219422184,1.98283655869237,0.5,61.6599094540668
CBC_1087,CBC_1087_MSI_AV_v3_Vset4_Aset2_2024-03-23_11h37.29.616.csv,3,27,0,1,z,0,1,3,aud,B,63,1,0B,1B,0,1,b,1.7206911000012,1,0,0,0,0B,1B,B01,3.04452243772342,0.999999999040055,0.00902870196201466,0.00902870196201466,0.5,0.5,0.999997056012628,0.5,0.00902870196201466,0.5,0.5,0.0180574029640839,0.000163034918237775,0.5,0.00902870196201466,0.00902870196201466,0.999999999040055,2.94398737232804e-06,0.999997056012628,0.5,0.999997056012628,0.200260500628329,0.354446167462893,-0.5,-0.490971298037985,0.5,0.981942596075971,0.887912601181539,0.302125219422184,1.98283655869237,0.5,61.6599094540668
CBC_1087,CBC_1087_MSI_AV_v3_Vset4_Aset2_2024-03-23_11h37.29.616.csv,3,28,3,2,z,0,1,0,aud,C,63,1,3C,2C,0,1,z,1.03946859999996,0,1,1,1,2C,3C,C32,2.37490575457367,0.999999999040055,0.00902870196201466,0.00902870196201466,0.5,0.00902870196201466,0.999997056012628,0.5,0.00902870196201466,0.5,0.5,0.0180574029640839,0.000163034918237775,0.5,0.00902870196201466,0.00902870196201466,0.999999999040055,0.991210821467919,0.00878917853208071,0.0180574029640839,0.000163034918237775,0.348903043293142,0.642804746178627,0.981942597035916,0.964211262931028,0.5,0.981942596075971,0.887912601181539,0.302125219422184,1.98283655869237,0.5,61.6599094540668
CBC_1087,CBC_1087_MSI_AV_v3_Vset4_Aset2_2024-03-23_11h37.29.616.csv,3,29,3,1,b,1,0,1,aud,D,27,1,3D,1D,1,0,b,1.62198900000112,1,0,1,1,3D,1D,D31,3.09104245335832,0.999999999040055,0.00902870196201466,0.00902870196201466,0.5,0.00902870196201466,0.999997056012628,0.5,0.00902870196201466,0.5,0.5,0.982268665895112,0.000163034918237775,0.5,0.00902870196201466,0.00902870196201466,0.999999999040055,0.999999999991254,8.7460039210896e-12,0.999999999040055,0.00902870196201466,0.413541471518496,0.644597304111319,9.59945456457945e-10,9.42611333605647e-10,0.5,0.981942596075971,0.887912601181539,0.302125219422184,1.98283655869237,0.5,61.6599094540668
CBC_1087,CBC_1087_MSI_AV_v3_Vset4_Aset2_2024-03-23_11h37.29.616.csv,3,30,1,2,z,0,1,0,aud,C,9,1,1C,2C,0,1,b,2.96121210000092,1,0,0,0,1C,2C,C12,3.80666248977032,0.999999999040055,0.00902870196201466,0.00902870196201466,0.5,0.00902870196201466,0.999997056012628,0.5,0.00902870196201466,0.5,0.5,0.982268665895112,0.000163034918237775,0.5,0.00902870196201466,0.00902870196201466,0.999999999982666,0.0177313341048879,0.982268665895112,0.5,0.982268665895112,0.0406459721428274,0.359639760021899,-0.5,-0.490971298037985,0.5,0.981942596075971,0.887912601181539,0.302125219422184,1.98283655869237,0.5,61.6599094540668
CBC_1087,CBC_1087_MSI_AV_v3_Vset4_Aset2_2024-03-23_11h37.29.616.csv,3,31,3,1,z,0,1,3,aud,B,27,1,3B,1B,0,1,z,1.25522680000176,0,1,1,1,1B,3B,B31,3.13549421592915,0.999999999040055,0.00902870196201466,0.00902870196201466,0.5,0.00902870196201466,0.999997056012628,0.5,0.00902870196201466,0.5,0.00902870196201466,0.982268665895112,0.000163034918237775,0.5,0.00902870196201466,0.00902870196201466,0.999999999982666,0.999999973177364,2.68226356877336e-08,0.999997056012628,0.00902870196201466,0.618024585385582,0.645077467667224,2.94398737232804e-06,2.89082660319867e-06,0.5,0.981942596075971,0.887912601181539,0.302125219422184,1.98283655869237,0.5,61.6599094540668
CBC_1087,CBC_1087_MSI_AV_v3_Vset4_Aset2_2024-03-23_11h37.29.616.csv,3,32,3,2,b,1,0,1,aud,D,63,1,3D,2D,1,0,b,1.56630050000058,1,0,1,1,3D,2D,D32,2.46385324059017,0.999999999040055,0.00902870196201466,0.00902870196201466,0.5,0.00902870196201466,0.999999946839231,0.5,0.00902870196201466,0.5,0.00902870196201466,0.982268665895112,0.000163034918237775,0.5,0.00902870196201466,0.00902870196201466,0.999999999982666,0.999999999999842,1.5798473640416e-13,0.999999999982666,0.00902870196201466,0.444641558899727,0.645474544212426,1.73341341280775e-11,1.70211246664535e-11,0.5,0.981942596075971,0.887912601181539,0.302125219422184,1.98283655869237,0.5,61.6599094540668
CBC_1087,CBC_1087_MSI_AV_v3_Vset4_Aset2_2024-03-23_11h37.29.616.csv,3,33,0,1,z,0,1,3,aud,B,63,1,0B,1B,0,1,b,2.31726560000061,1,0,0,0,0B,1B,B01,2.77258872223978,0.999999999040055,0.00902870196201466,0.00902870196201466,0.5,0.00902870196201466,0.999999946839231,0.5,0.00902870196201466,0.5,0.00902870196201466,0.982268665895112,0.000163034918237775,0.5,0.00902870196201466,0.00902870196201466,0.999999999999687,4.84345779429106e-10,0.999999999515654,0.00902870196201466,0.999999946839231,0.0923937269581707,0.355021591706165,-0.00902870196201466,-0.00886566704377689,0.5,0.981942596075971,0.887912601181539,0.302125219422184,1.98283655869237,0.5,61.6599094540668
CBC_1087,CBC_1087_MSI_AV_v3_Vset4_Aset2_2024-03-23_11h37.29.616.csv,3,34,1,0,z,0,1,2,aud,A,63,0,1A,0A,1,0,z,1.61048540000047,0,1,1,0,0A,1A,A10,2.50552593699074,0.999999999040055,0.00902870196201466,0.00902870196201466,0.5,0.000163034918237775,0.999999946839231,0.5,0.00902870196201466,0.5,0.00902870196201466,0.982268665895112,0.000163034918237775,0.5,0.00902870196201466,0.00902870196201466,0.999999999999687,0.999999999991254,8.74602670284482e-12,0.999999999040055,0.00902870196201466,0.420274958506405,0.645433775627237,-0.999999999040055,-0.981942595133359,0.5,0.981942596075971,0.887912601181539,0.302125219422184,1.98283655869237,0.5,61.6599094540668
CBC_1087,CBC_1087_MSI_AV_v3_Vset4_Aset2_2024-03-23_11h37.29.616.csv,3,35,2,3,b,1,0,0,aud,C,63,1,2C,3C,1,0,b,1.13476850000188,1,0,1,1,2C,3C,C23,2.81341071676004,0.0180574039066952,0.00902870196201466,0.00902870196201466,0.5,0.000163034918237775,0.999999946839231,0.5,0.00902870196201466,0.5,0.00902870196201466,0.982268665895112,0.000163034918237775,0.5,0.00902870196201466,0.00902870196201466,0.999999999999687,0.999997056518671,2.94348132889866e-06,0.982268665895112,0.000163034918237775,0.586921475548747,0.644877965252027,0.0177313341048879,0.017411152242844,0.5,0.981942596075971,0.887912601181539,0.302125219422184,1.98283655869237,0.5,61.6599094540668
CBC_1087,CBC_1087_MSI_AV_v3_Vset4_Aset2_2024-03-23_11h37.29.616.csv,3,36,0,2,b,1,0,2,aud,A,27,1,0A,2A,1,0,z,1.43099360000087,0,1,0,0,2A,0A,A02,2.83321334405622,0.0180574039066952,0.00902870196201466,0.00902870196201466,0.5,0.000163034918237775,0.999999946839231,0.5,0.00902870196201466,0.5,0.00902870196201466,0.999679818137956,0.000163034918237775,0.5,0.00902870196201466,0.00902870196201466,0.999999999999687,0.331302507707777,0.668697492292223,0.00902870196201466,0.0180574039066952,0.359551677116285,0.449589944669458,-0.00902870196201466,-0.00886566704377689,0.5,0.981942596075971,0.887912601181539,0.302125219422184,1.98283655869237,0.5,61.6599094540668
CBC_1087,CBC_1087_MSI_AV_v3_Vset4_Aset2_2024-03-23_11h37.29.616.csv,3,37,0,1,z,0,1,3,aud,B,63,1,0B,1B,0,1,z,1.62737930000003,0,1,1,1,1B,0B,B01,2.56494935746154,0.0180574039066952,0.00902870196201466,0.000163034918237775,0.5,0.000163034918237775,0.999999946839231,0.5,0.00902870196201466,0.5,0.00902870196201466,0.999679818137956,0.000163034918237775,0.5,0.00902870196201466,0.00902870196201466,0.999999999999687,0.999999999991331,8.66847537179838e-12,0.999999946839231,0.000163034918237775,0.41111860628962,0.645207320896793,5.31607691200975e-08,5.22008236391838e-08,0.5,0.981942596075971,0.887912601181539,0.302125219422184,1.98283655869237,0.5,61.6599094540668
CBC_1087,CBC_1087_MSI_AV_v3_Vset4_Aset2_2024-03-23_11h37.29.616.csv,3,38,2,3,z,0,1,1,aud,D,63,1,2D,3D,0,1,b,2.69387480000114,1,0,0,0,2D,3D,D23,2.87167962488401,0.0180574039066952,0.00902870196201466,0.000163034918237775,0.5,0.000163034918237775,0.999999999040055,0.5,0.00902870196201466,0.5,0.00902870196201466,0.999679818137956,0.000163034918237775,0.5,0.00902870196201466,0.00902870196201466,0.999999999999687,2.85147485917586e-15,0.999999999999997,0.00902870196201466,0.999999999999687,0.0565693469701392,0.354779217035647,-0.00902870196201466,-0.00886566704377689,0.5,0.981942596075971,0.887912601181539,0.302125219422184,1.98283655869237,0.5,61.6599094540668
CBC_1087,CBC_1087_MSI_AV_v3_Vset4_Aset2_2024-03-23_11h37.29.616.csv,3,39,1,2,b,1,0,3,aud,B,9,1,1B,2B,1,0,z,1.00347529999999,0,1,0,0,2B,1B,B12,3.98898404656427,0.0180574039066952,0.00902870196201466,0.000163034918237775,0.5,0.000163034918237775,0.999999999040055,0.5,0.00902870196201466,0.5,0.00902870196201466,0.999679818137956,0.000163034918237775,0.5,0.00902870196201466,0.000163034918237775,0.999999999999687,9.59945456457945e-10,0.999999999040055,0.5,0.999999999040055,0.105584977901252,0.354524815039796,-0.5,-0.490971298037985,0.5,0.981942596075971,0.887912601181539,0.302125219422184,1.98283655869237,0.5,61.6599094540668
CBC_1087,CBC_1087_MSI_AV_v3_Vset4_Aset2_2024-03-23_11h37.29.616.csv,3,40,1,3,z,0,1,1,aud,D,27,1,1D,3D,0,1,b,1.21598319999976,1,0,0,0,1D,3D,D13,4.00733318523247,0.0180574039066952,0.00902870196201466,0.000163034918237775,0.5,0.000163034918237775,0.999999999040055,0.00902870196201466,0.00902870196201466,0.5,0.00902870196201466,0.999679818137956,0.000163034918237775,0.5,0.00902870196201466,0.000163034918237775,0.999999999999687,2.85147485917586e-15,0.999999999999997,0.00902870196201466,0.999999999999687,0.344218970166538,0.355320037105152,-0.00902870196201466,-0.00886566704377689,0.5,0.981942596075971,0.887912601181539,0.302125219422184,1.98283655869237,0.5,61.6599094540668
CBC_1087,CBC_1087_MSI_AV_v3_Vset4_Aset2_2024-03-23_11h37.29.616.csv,3,41,1,0,z,0,1,2,aud,A,63,1,1A,0A,0,1,b,1.43388030000096,1,0,0,0,1A,0A,A10,2.41591377830105,0.0180574039066952,0.00902870196201466,0.000163034918237775,0.5,0.000163034918237775,0.999999999040055,0.00902870196201466,0.00902870196201466,0.5,0.00902870196201466,0.999679818137956,0.000163034918237775,0.5,0.000163034918237775,0.000163034918237775,0.999999999999687,0.331302507707777,0.668697492292223,0.00902870196201466,0.0180574039066952,0.358550491963917,0.449814018881416,-0.00902870196201466,-0.00886566704377689,0.5,0.981942596075971,0.887912601181539,0.302125219422184,1.98283655869237,0.5,61.6599094540668
CBC_1087,CBC_1087_MSI_AV_v3_Vset4_Aset2_2024-03-23_11h37.29.616.csv,3,42,0,1,b,1,0,2,aud,A,63,1,0A,1A,1,0,z,1.58752769999955,0,1,0,0,1A,0A,A01,3.3499040872746,0.0180574039066952,0.000163034918237775,0.000163034918237775,0.5,0.000163034918237775,0.999999999040055,0.00902870196201466,0.00902870196201466,0.5,0.00902870196201466,0.999679818137956,0.000163034918237775,0.5,0.000163034918237775,0.000163034918237775,0.999999999999687,0.00878917806894786,0.991210821931052,0.000163034918237775,0.0180574039066952,0.239103741270296,0.356723871018219,-0.000163034918237775,-0.000160090930865435,0.5,0.981942596075971,0.887912601181539,0.302125219422184,1.98283655869237,0.5,61.6599094540668
CBC_1087,CBC_1087_MSI_AV_v3_Vset4_Aset2_2024-03-23_11h37.29.616.csv,3,43,2,0,b,1,0,0,aud,C,27,1,2C,0C,1,0,b,2.21656410000105,1,0,1,1,2C,0C,C20,2.96183072187831,0.0180574039066952,2.94398737234059e-06,0.000163034918237775,0.5,0.000163034918237775,0.999999999040055,0.00902870196201466,0.00902870196201466,0.5,0.00902870196201466,0.999679818137956,0.000163034918237775,0.5,0.000163034918237775,0.000163034918237775,0.999999999999687,0.999679818137956,0.000320181862043856,0.999679818137956,0.5,0.191432772383367,0.645348664675176,0.000320181862043856,0.000314400208831782,0.5,0.981942596075971,0.887912601181539,0.302125219422184,1.98283655869237,0.5,61.6599094540668
CBC_1087,CBC_1087_MSI_AV_v3_Vset4_Aset2_2024-03-23_11h37.29.616.csv,3,44,0,1,z,0,1,3,aud,B,63,1,0B,1B,0,1,b,1.10064849999981,1,0,0,0,0B,1B,B01,2.46809953147162,0.0180574039066952,2.94398737234059e-06,0.000163034918237775,0.5,0.000163034918237775,0.999999999040055,0.00902870196201466,0.00902870196201466,0.5,0.00902870196201466,0.999994218346788,0.000163034918237775,0.5,0.000163034918237775,0.000163034918237775,0.999999999999687,1.56530149036606e-13,0.999999999999843,0.000163034918237775,0.999999999040055,0.293498336838165,0.354353676235834,-0.000163034918237775,-0.000160090930865435,0.5,0.981942596075971,0.887912601181539,0.302125219422184,1.98283655869237,0.5,61.6599094540668
