ID,filename,session,trial,visStimLeft,visStimRight,correctKey,leftCorrect,rightCorrect,secondStim,mod2Type,mod2Stim,frequency,rewardAccurate,stimPairLeft,stimPairRight,pCorrectLeft,pCorrectRight,key,reactionTime,choiceLeft,choiceRight,choiceAccurate,reward,chosenPair,otherPair,triplet,surprise,0A belief,1A belief,2A belief,3A belief,0B belief,1B belief,2B belief,3B belief,0C belief,1C belief,2C belief,3C belief,0D belief,1D belief,2D belief,3D belief,beliefPairNorm,beliefOtherPairNorm,beliefPair,beliefOtherPair,lik,corrLik,rewardPE,update2,fitCBCsimpleRW_CBCdriftDiffusionLR_pwBelief_startBelief,fitCBCsimpleRW_CBCdriftDiffusionLR_pwBelief_alpha1,fitCBCsimpleRW_CBCdriftDiffusionLR_pwBelief_nonDecisionTime,fitCBCsimpleRW_CBCdriftDiffusionLR_pwBelief_weight,fitCBCsimpleRW_CBCdriftDiffusionLR_pwBelief_startingBoundary,fitCBCsimpleRW_CBCdriftDiffusionLR_pwBelief_startingPoint,fit_CBCsimpleRW_CBCdriftDiffusionLR_pwBelief_NLL
CBC_1015,CBC_1015_MSI_AV_v3_Vset1_Aset2_2023-06-25_14h04.10.751.csv,1,1,0,1,z,0,1,1,aud,B,63,1,0B,1B,0,1,b,2.52432620000218,1,0,0,0,0B,1B,B01,2.77258872223978,0.5,0.5,0.5,0.5,0.5,0.5,0.5,0.5,0.5,0.5,0.5,0.5,0.5,0.5,0.5,0.5,0.5,0.5,0.5,0.5,0.118496826716777,0.500570252420768,-0.5,-0.108685142774086,0.5,0.217370285548172,0.667974983701977,2.54010837214095,2.55722049731846,0.5,33.1937536139488
CBC_1015,CBC_1015_MSI_AV_v3_Vset1_Aset2_2023-06-25_14h04.10.751.csv,1,2,1,0,z,0,1,2,aud,A,63,1,1A,0A,0,1,z,1.46392700000069,0,1,1,1,0A,1A,A10,2.83321334405622,0.5,0.5,0.5,0.5,0.391314857225914,0.5,0.5,0.5,0.5,0.5,0.5,0.5,0.5,0.5,0.5,0.5,0.5,0.5,0.5,0.5,0.257262241025742,0.500483291288259,0.5,0.108685142774086,0.5,0.217370285548172,0.667974983701977,2.54010837214095,2.55722049731846,0.5,33.1937536139488
CBC_1015,CBC_1015_MSI_AV_v3_Vset1_Aset2_2023-06-25_14h04.10.751.csv,1,3,2,1,b,1,0,0,aud,C,9,1,2C,1C,1,0,z,2.73696070000187,0,1,0,0,1C,2C,C21,2.89037175789616,0.608685142774086,0.5,0.5,0.5,0.391314857225914,0.5,0.5,0.5,0.5,0.5,0.5,0.5,0.5,0.5,0.5,0.5,0.5,0.5,0.5,0.5,0.100992285986406,0.500865141858113,-0.5,-0.108685142774086,0.5,0.217370285548172,0.667974983701977,2.54010837214095,2.55722049731846,0.5,33.1937536139488
CBC_1015,CBC_1015_MSI_AV_v3_Vset1_Aset2_2023-06-25_14h04.10.751.csv,1,4,0,1,b,1,0,2,aud,A,63,1,0A,1A,1,0,b,2.26682199999959,1,0,1,1,0A,1A,A01,2.94443897916644,0.608685142774086,0.5,0.5,0.5,0.391314857225914,0.5,0.5,0.5,0.5,0.391314857225914,0.5,0.5,0.5,0.5,0.5,0.5,0.608685142774086,0.391314857225914,0.608685142774086,0.5,0.228060668652611,0.803499860892748,0.391314857225914,0.0850602222544391,0.5,0.217370285548172,0.667974983701977,2.54010837214095,2.55722049731846,0.5,33.1937536139488
CBC_1015,CBC_1015_MSI_AV_v3_Vset1_Aset2_2023-06-25_14h04.10.751.csv,1,5,1,3,z,0,1,3,aud,D,27,1,1D,3D,NaN,NaN,[],NaN,NaN,NaN,NaN,NaN,,,D13,2.99573227355399,0.693745365028525,0.5,0.5,0.5,0.391314857225914,0.5,0.5,0.5,0.5,0.391314857225914,0.5,0.5,0.5,0.5,0.5,0.5,0,0,0,0,NaN,0,0,0,0.5,0.217370285548172,0.667974983701977,2.54010837214095,2.55722049731846,0.5,33.1937536139488
CBC_1015,CBC_1015_MSI_AV_v3_Vset1_Aset2_2023-06-25_14h04.10.751.csv,1,6,1,0,b,1,0,1,aud,B,63,1,1B,0B,1,0,b,1.68916580000223,1,0,1,1,1B,0B,B10,3.04452243772342,0.693745365028525,0.5,0.5,0.5,0.391314857225914,0.5,0.5,0.5,0.5,0.391314857225914,0.5,0.5,0.5,0.5,0.5,0.5,0.608685142774086,0.391314857225914,0.5,0.391314857225914,0.383591768658068,0.80495624294021,0.5,0.108685142774086,0.5,0.217370285548172,0.667974983701977,2.54010837214095,2.55722049731846,0.5,33.1937536139488
CBC_1015,CBC_1015_MSI_AV_v3_Vset1_Aset2_2023-06-25_14h04.10.751.csv,1,7,3,2,z,0,1,0,aud,C,63,1,3C,2C,0,1,z,1.40234740000233,0,1,1,1,2C,3C,C32,3.09104245335832,0.693745365028525,0.5,0.5,0.5,0.391314857225914,0.608685142774086,0.5,0.5,0.5,0.391314857225914,0.5,0.5,0.5,0.5,0.5,0.5,0.5,0.5,0.5,0.5,0.265833796399077,0.499334664138037,0.5,0.108685142774086,0.5,0.217370285548172,0.667974983701977,2.54010837214095,2.55722049731846,0.5,33.1937536139488
CBC_1015,CBC_1015_MSI_AV_v3_Vset1_Aset2_2023-06-25_14h04.10.751.csv,1,8,0,2,b,1,0,2,aud,A,27,1,0A,2A,1,0,b,1.66318180000053,1,0,1,1,0A,2A,A02,3.13549421592915,0.693745365028525,0.5,0.5,0.5,0.391314857225914,0.608685142774086,0.5,0.5,0.5,0.391314857225914,0.608685142774086,0.5,0.5,0.5,0.5,0.5,0.693745365028525,0.306254634971475,0.693745365028525,0.5,0.489382945966347,0.925615416655932,0.306254634971475,0.0665706574542007,0.5,0.217370285548172,0.667974983701977,2.54010837214095,2.55722049731846,0.5,33.1937536139488
CBC_1015,CBC_1015_MSI_AV_v3_Vset1_Aset2_2023-06-25_14h04.10.751.csv,1,9,2,3,z,0,1,3,aud,D,63,1,2D,3D,0,1,z,1.02831110000079,0,1,1,1,3D,2D,D23,3.17805383034795,0.760316022482726,0.5,0.5,0.5,0.391314857225914,0.608685142774086,0.5,0.5,0.5,0.391314857225914,0.608685142774086,0.5,0.5,0.5,0.5,0.5,0.5,0.5,0.5,0.5,0.244249302239224,0.500510479424659,0.5,0.108685142774086,0.5,0.217370285548172,0.667974983701977,2.54010837214095,2.55722049731846,0.5,33.1937536139488
CBC_1015,CBC_1015_MSI_AV_v3_Vset1_Aset2_2023-06-25_14h04.10.751.csv,1,10,1,3,b,1,0,1,aud,B,27,1,1B,3B,1,0,b,1.57242120000046,1,0,1,1,1B,3B,B13,3.2188758248682,0.760316022482726,0.5,0.5,0.5,0.391314857225914,0.608685142774086,0.5,0.5,0.5,0.391314857225914,0.608685142774086,0.5,0.5,0.5,0.5,0.608685142774086,0.608685142774086,0.391314857225914,0.608685142774086,0.5,0.422794593530319,0.803812140313408,0.391314857225914,0.0850602222544391,0.5,0.217370285548172,0.667974983701977,2.54010837214095,2.55722049731846,0.5,33.1937536139488
CBC_1015,CBC_1015_MSI_AV_v3_Vset1_Aset2_2023-06-25_14h04.10.751.csv,1,11,2,3,b,1,0,0,aud,C,63,1,2C,3C,1,0,b,1.45707760000187,1,0,1,1,2C,3C,C23,3.25809653802148,0.760316022482726,0.5,0.5,0.5,0.391314857225914,0.693745365028525,0.5,0.5,0.5,0.391314857225914,0.608685142774086,0.5,0.5,0.5,0.5,0.608685142774086,0.608685142774086,0.391314857225914,0.608685142774086,0.5,0.46318570364312,0.803691500683991,0.391314857225914,0.0850602222544391,0.5,0.217370285548172,0.667974983701977,2.54010837214095,2.55722049731846,0.5,33.1937536139488
CBC_1015,CBC_1015_MSI_AV_v3_Vset1_Aset2_2023-06-25_14h04.10.751.csv,1,12,3,1,z,0,1,1,aud,B,27,1,3B,1B,0,1,b,1.69139600000017,1,0,0,0,3B,1B,B31,3.29583686600433,0.760316022482726,0.5,0.5,0.5,0.391314857225914,0.693745365028525,0.5,0.5,0.5,0.391314857225914,0.693745365028525,0.5,0.5,0.5,0.5,0.608685142774086,0.306254634971475,0.693745365028525,0.5,0.693745365028525,0.0382981869438923,0.0749494225774275,-0.5,-0.108685142774086,0.5,0.217370285548172,0.667974983701977,2.54010837214095,2.55722049731846,0.5,33.1937536139488
CBC_1015,CBC_1015_MSI_AV_v3_Vset1_Aset2_2023-06-25_14h04.10.751.csv,1,13,2,3,b,1,0,0,aud,C,63,1,2C,3C,1,0,b,1.49689020000005,1,0,1,1,2C,3C,C23,2.63905732961526,0.760316022482726,0.5,0.5,0.5,0.391314857225914,0.693745365028525,0.5,0.391314857225914,0.5,0.391314857225914,0.693745365028525,0.5,0.5,0.5,0.5,0.608685142774086,0.693745365028525,0.306254634971475,0.693745365028525,0.5,0.593511007934667,0.92543642268232,0.306254634971475,0.0665706574542007,0.5,0.217370285548172,0.667974983701977,2.54010837214095,2.55722049731846,0.5,33.1937536139488
CBC_1015,CBC_1015_MSI_AV_v3_Vset1_Aset2_2023-06-25_14h04.10.751.csv,1,14,2,3,z,0,1,3,aud,D,63,1,2D,3D,0,1,z,1.26140289999967,0,1,1,1,3D,2D,D23,2.67414864942653,0.760316022482726,0.5,0.5,0.5,0.391314857225914,0.693745365028525,0.5,0.391314857225914,0.5,0.391314857225914,0.760316022482726,0.5,0.5,0.5,0.5,0.608685142774086,0.608685142774086,0.391314857225914,0.608685142774086,0.5,0.521379936450787,0.804546723915797,0.391314857225914,0.0850602222544391,0.5,0.217370285548172,0.667974983701977,2.54010837214095,2.55722049731846,0.5,33.1937536139488
CBC_1015,CBC_1015_MSI_AV_v3_Vset1_Aset2_2023-06-25_14h04.10.751.csv,1,15,3,0,z,0,1,2,aud,A,9,1,3A,0A,0,1,z,1.63343460000033,0,1,1,1,0A,3A,A30,3.40119738166216,0.760316022482726,0.5,0.5,0.5,0.391314857225914,0.693745365028525,0.5,0.391314857225914,0.5,0.391314857225914,0.760316022482726,0.5,0.5,0.5,0.5,0.693745365028525,0.760316022482726,0.239683977517274,0.760316022482726,0.5,0.535862239869053,0.967106023946929,0.239683977517274,0.0521001746342515,0.5,0.217370285548172,0.667974983701977,2.54010837214095,2.55722049731846,0.5,33.1937536139488
CBC_1015,CBC_1015_MSI_AV_v3_Vset1_Aset2_2023-06-25_14h04.10.751.csv,1,16,1,0,b,1,0,1,aud,B,63,0,1B,0B,0,1,b,1.49506970000039,1,0,1,0,1B,0B,B10,2.7408400239252,0.812416197116977,0.5,0.5,0.5,0.391314857225914,0.693745365028525,0.5,0.391314857225914,0.5,0.391314857225914,0.760316022482726,0.5,0.5,0.5,0.5,0.693745365028525,0.778936014432594,0.221063985567406,0.693745365028525,0.391314857225914,0.672718224663009,0.973982143860199,-0.693745365028525,-0.150799628093971,0.5,0.217370285548172,0.667974983701977,2.54010837214095,2.55722049731846,0.5,33.1937536139488
CBC_1015,CBC_1015_MSI_AV_v3_Vset1_Aset2_2023-06-25_14h04.10.751.csv,1,17,3,2,b,1,0,3,aud,D,63,1,3D,2D,1,0,b,1.79137439999977,1,0,1,1,3D,2D,D32,3.46573590279973,0.812416197116977,0.5,0.5,0.5,0.391314857225914,0.542945736934554,0.5,0.391314857225914,0.5,0.391314857225914,0.760316022482726,0.5,0.5,0.5,0.5,0.693745365028525,0.693745365028525,0.306254634971475,0.693745365028525,0.5,0.419011729036353,0.925409544564432,0.306254634971475,0.0665706574542007,0.5,0.217370285548172,0.667974983701977,2.54010837214095,2.55722049731846,0.5,33.1937536139488
CBC_1015,CBC_1015_MSI_AV_v3_Vset1_Aset2_2023-06-25_14h04.10.751.csv,1,18,2,0,b,1,0,0,aud,C,27,1,2C,0C,1,0,b,1.73051099999975,1,0,1,1,2C,0C,C20,3.49650756146648,0.812416197116977,0.5,0.5,0.5,0.391314857225914,0.542945736934554,0.5,0.391314857225914,0.5,0.391314857225914,0.760316022482726,0.5,0.5,0.5,0.5,0.760316022482726,0.760316022482726,0.239683977517274,0.760316022482726,0.5,0.459298253816402,0.967115211254624,0.239683977517274,0.0521001746342515,0.5,0.217370285548172,0.667974983701977,2.54010837214095,2.55722049731846,0.5,33.1937536139488
CBC_1015,CBC_1015_MSI_AV_v3_Vset1_Aset2_2023-06-25_14h04.10.751.csv,1,19,1,0,z,0,1,2,aud,A,63,1,1A,0A,0,1,z,1.61363990000063,0,1,1,1,0A,1A,A10,2.83321334405622,0.812416197116977,0.5,0.5,0.5,0.391314857225914,0.542945736934554,0.5,0.391314857225914,0.5,0.391314857225914,0.812416197116977,0.5,0.5,0.5,0.5,0.760316022482726,0.812416197116977,0.187583802883023,0.812416197116977,0.5,0.538509774093473,0.983112034192981,0.187583802883023,0.0407751447968946,0.5,0.217370285548172,0.667974983701977,2.54010837214095,2.55722049731846,0.5,33.1937536139488
CBC_1015,CBC_1015_MSI_AV_v3_Vset1_Aset2_2023-06-25_14h04.10.751.csv,1,20,0,1,z,0,1,1,aud,B,63,1,0B,1B,0,1,z,1.7023678000005,0,1,1,1,1B,0B,B01,2.86220088092947,0.853191341913872,0.5,0.5,0.5,0.391314857225914,0.542945736934554,0.5,0.391314857225914,0.5,0.391314857225914,0.812416197116977,0.5,0.5,0.5,0.5,0.760316022482726,0.64885177915356,0.35114822084644,0.542945736934554,0.391314857225914,0.428119420090529,0.873693746139369,0.457054263065446,0.0993500156735453,0.5,0.217370285548172,0.667974983701977,2.54010837214095,2.55722049731846,0.5,33.1937536139488
CBC_1015,CBC_1015_MSI_AV_v3_Vset1_Aset2_2023-06-25_14h04.10.751.csv,1,21,3,1,b,1,0,3,aud,D,27,1,3D,1D,1,0,b,0.98094250000031,1,0,1,1,3D,1D,D31,3.58351893845611,0.853191341913872,0.5,0.5,0.5,0.391314857225914,0.642295752608099,0.5,0.391314857225914,0.5,0.391314857225914,0.812416197116977,0.5,0.5,0.5,0.5,0.760316022482726,0.760316022482726,0.239683977517274,0.760316022482726,0.5,0.883069923672196,0.967219544761477,0.239683977517274,0.0521001746342515,0.5,0.217370285548172,0.667974983701977,2.54010837214095,2.55722049731846,0.5,33.1937536139488
CBC_1015,CBC_1015_MSI_AV_v3_Vset1_Aset2_2023-06-25_14h04.10.751.csv,1,22,2,3,b,1,0,0,aud,C,63,1,2C,3C,1,0,b,1.55602700000054,1,0,1,1,2C,3C,C23,2.51230562397611,0.853191341913872,0.5,0.5,0.5,0.391314857225914,0.642295752608099,0.5,0.391314857225914,0.5,0.391314857225914,0.812416197116977,0.5,0.5,0.5,0.5,0.812416197116977,0.812416197116977,0.187583802883023,0.812416197116977,0.5,0.602505605045349,0.983033358974558,0.187583802883023,0.0407751447968946,0.5,0.217370285548172,0.667974983701977,2.54010837214095,2.55722049731846,0.5,33.1937536139488
CBC_1015,CBC_1015_MSI_AV_v3_Vset1_Aset2_2023-06-25_14h04.10.751.csv,1,23,1,0,z,0,1,2,aud,A,63,1,1A,0A,0,1,z,1.0041895000013,0,1,1,1,0A,1A,A10,2.53897387105828,0.853191341913872,0.5,0.5,0.5,0.391314857225914,0.642295752608099,0.5,0.391314857225914,0.5,0.391314857225914,0.853191341913872,0.5,0.5,0.5,0.5,0.812416197116977,0.853191341913872,0.146808658086128,0.853191341913872,0.5,1.32825291515802,0.989944214598335,0.146808658086128,0.0319118399291256,0.5,0.217370285548172,0.667974983701977,2.54010837214095,2.55722049731846,0.5,33.1937536139488
CBC_1015,CBC_1015_MSI_AV_v3_Vset1_Aset2_2023-06-25_14h04.10.751.csv,1,24,3,2,b,1,0,3,aud,D,63,1,3D,2D,1,0,b,0.91560009999921,1,0,1,1,3D,2D,D32,2.9704144655697,0.885103181842998,0.5,0.5,0.5,0.391314857225914,0.642295752608099,0.5,0.391314857225914,0.5,0.391314857225914,0.853191341913872,0.5,0.5,0.5,0.5,0.812416197116977,0.812416197116977,0.187583802883023,0.812416197116977,0.5,0.849043054372301,0.982990322220227,0.187583802883023,0.0407751447968946,0.5,0.217370285548172,0.667974983701977,2.54010837214095,2.55722049731846,0.5,33.1937536139488
CBC_1015,CBC_1015_MSI_AV_v3_Vset1_Aset2_2023-06-25_14h04.10.751.csv,1,25,0,2,z,0,1,0,aud,C,27,1,0C,2C,0,1,z,1.39365480000015,0,1,1,1,2C,0C,C02,3.68887945411394,0.885103181842998,0.5,0.5,0.5,0.391314857225914,0.642295752608099,0.5,0.391314857225914,0.5,0.391314857225914,0.853191341913872,0.5,0.5,0.5,0.5,0.853191341913872,0.853191341913872,0.146808658086128,0.853191341913872,0.5,0.824555683046163,0.989899633376987,0.146808658086128,0.0319118399291256,0.5,0.217370285548172,0.667974983701977,2.54010837214095,2.55722049731846,0.5,33.1937536139488
CBC_1015,CBC_1015_MSI_AV_v3_Vset1_Aset2_2023-06-25_14h04.10.751.csv,1,26,1,0,z,0,1,2,aud,A,63,1,1A,0A,0,1,z,1.15629660000013,0,1,1,1,0A,1A,A10,2.32727770558442,0.885103181842998,0.5,0.5,0.5,0.391314857225914,0.642295752608099,0.5,0.391314857225914,0.5,0.391314857225914,0.885103181842998,0.5,0.5,0.5,0.5,0.853191341913872,0.885103181842998,0.114896818157002,0.885103181842998,0.5,1.3429496998735,0.993319414102091,0.114896818157002,0.024975154171364,0.5,0.217370285548172,0.667974983701977,2.54010837214095,2.55722049731846,0.5,33.1937536139488
CBC_1015,CBC_1015_MSI_AV_v3_Vset1_Aset2_2023-06-25_14h04.10.751.csv,1,27,3,1,z,0,1,1,aud,B,27,1,3B,1B,0,1,z,2.31092340000214,0,1,1,1,1B,3B,B31,3.04452243772342,0.910078336014361,0.5,0.5,0.5,0.391314857225914,0.642295752608099,0.5,0.391314857225914,0.5,0.391314857225914,0.885103181842998,0.5,0.5,0.5,0.5,0.853191341913872,0.736359298668716,0.263640701331284,0.642295752608099,0.391314857225914,0.197429132757195,0.955692323892409,0.357704247391901,0.0777542743973714,0.5,0.217370285548172,0.667974983701977,2.54010837214095,2.55722049731846,0.5,33.1937536139488
CBC_1015,CBC_1015_MSI_AV_v3_Vset1_Aset2_2023-06-25_14h04.10.751.csv,1,28,2,3,b,1,0,0,aud,C,63,1,2C,3C,1,0,b,1.29104460000053,1,0,1,1,2C,3C,C23,2.37490575457367,0.910078336014361,0.5,0.5,0.5,0.391314857225914,0.720050027005471,0.5,0.391314857225914,0.5,0.391314857225914,0.885103181842998,0.5,0.5,0.5,0.5,0.853191341913872,0.885103181842998,0.114896818157002,0.885103181842998,0.5,1.03404804906921,0.99330902867882,0.114896818157002,0.024975154171364,0.5,0.217370285548172,0.667974983701977,2.54010837214095,2.55722049731846,0.5,33.1937536139488
CBC_1015,CBC_1015_MSI_AV_v3_Vset1_Aset2_2023-06-25_14h04.10.751.csv,1,29,2,3,z,0,1,3,aud,D,63,1,2D,3D,0,1,z,1.84193679999953,0,1,1,1,3D,2D,D23,2.68557734525015,0.910078336014361,0.5,0.5,0.5,0.391314857225914,0.720050027005471,0.5,0.391314857225914,0.5,0.391314857225914,0.910078336014361,0.5,0.5,0.5,0.5,0.853191341913872,0.853191341913872,0.146808658086128,0.853191341913872,0.5,0.296371604155365,0.989903580230367,0.146808658086128,0.0319118399291256,0.5,0.217370285548172,0.667974983701977,2.54010837214095,2.55722049731846,0.5,33.1937536139488
CBC_1015,CBC_1015_MSI_AV_v3_Vset1_Aset2_2023-06-25_14h04.10.751.csv,1,30,1,0,b,1,0,1,aud,B,63,1,1B,0B,1,0,b,0.98671640000066,1,0,1,1,1B,0B,B10,2.70805020110221,0.910078336014361,0.5,0.5,0.5,0.391314857225914,0.720050027005471,0.5,0.391314857225914,0.5,0.391314857225914,0.910078336014361,0.5,0.5,0.5,0.5,0.885103181842998,0.800032644528344,0.199967355471656,0.720050027005471,0.391314857225914,1.05852090198011,0.980171429940135,0.279949972994529,0.0608528055690239,0.5,0.217370285548172,0.667974983701977,2.54010837214095,2.55722049731846,0.5,33.1937536139488
CBC_1015,CBC_1015_MSI_AV_v3_Vset1_Aset2_2023-06-25_14h04.10.751.csv,1,31,0,2,b,1,0,2,aud,A,27,1,0A,2A,1,0,b,1.07892820000052,1,0,1,1,0A,2A,A02,3.13549421592915,0.910078336014361,0.5,0.5,0.5,0.391314857225914,0.780902832574494,0.5,0.391314857225914,0.5,0.391314857225914,0.910078336014361,0.5,0.5,0.5,0.5,0.885103181842998,0.910078336014361,0.0899216639856385,0.910078336014361,0.5,1.55728716499812,0.995148205821179,0.0899216639856385,0.019546297777525,0.5,0.217370285548172,0.667974983701977,2.54010837214095,2.55722049731846,0.5,33.1937536139488
CBC_1015,CBC_1015_MSI_AV_v3_Vset1_Aset2_2023-06-25_14h04.10.751.csv,1,32,0,3,z,0,1,3,aud,D,9,1,0D,3D,0,1,z,1.21289240000078,0,1,1,1,3D,0D,D03,3.85014760171006,0.929624633791887,0.5,0.5,0.5,0.391314857225914,0.780902832574494,0.5,0.391314857225914,0.5,0.391314857225914,0.910078336014361,0.5,0.5,0.5,0.5,0.885103181842998,0.885103181842998,0.114896818157002,0.885103181842998,0.5,1.21691059735229,0.993347782669773,0.114896818157002,0.024975154171364,0.5,0.217370285548172,0.667974983701977,2.54010837214095,2.55722049731846,0.5,33.1937536139488
CBC_1015,CBC_1015_MSI_AV_v3_Vset1_Aset2_2023-06-25_14h04.10.751.csv,1,33,2,3,b,1,0,0,aud,C,63,1,2C,3C,1,0,b,1.29875210000137,1,0,1,1,2C,3C,C23,2.26176309847379,0.929624633791887,0.5,0.5,0.5,0.391314857225914,0.780902832574494,0.5,0.391314857225914,0.5,0.391314857225914,0.910078336014361,0.5,0.5,0.5,0.5,0.910078336014361,0.910078336014361,0.0899216639856385,0.910078336014361,0.5,1.01711889377173,0.995157505647617,0.0899216639856385,0.019546297777525,0.5,0.217370285548172,0.667974983701977,2.54010837214095,2.55722049731846,0.5,33.1937536139488
CBC_1015,CBC_1015_MSI_AV_v3_Vset1_Aset2_2023-06-25_14h04.10.751.csv,1,34,1,0,b,1,0,1,aud,B,63,1,1B,0B,1,0,b,1.40769980000005,1,0,1,1,1B,0B,B10,2.50552593699074,0.929624633791887,0.5,0.5,0.5,0.391314857225914,0.780902832574494,0.5,0.391314857225914,0.5,0.391314857225914,0.929624633791887,0.5,0.5,0.5,0.5,0.910078336014361,0.847189270933097,0.152810729066903,0.780902832574494,0.391314857225914,0.801057475807205,0.989102151659257,0.219097167425506,0.0476252138460778,0.5,0.217370285548172,0.667974983701977,2.54010837214095,2.55722049731846,0.5,33.1937536139488
CBC_1015,CBC_1015_MSI_AV_v3_Vset1_Aset2_2023-06-25_14h04.10.751.csv,1,35,1,0,z,0,1,2,aud,A,63,0,1A,0A,1,0,z,0.956867000000784,0,1,1,0,0A,1A,A10,2.30258509299405,0.929624633791887,0.5,0.5,0.5,0.391314857225914,0.828528046420572,0.5,0.391314857225914,0.5,0.391314857225914,0.929624633791887,0.5,0.5,0.5,0.5,0.910078336014361,0.929624633791887,0.0703753662081135,0.929624633791887,0.5,1.58854993781549,0.996251961181899,-0.929624633791887,-0.202072772099957,0.5,0.217370285548172,0.667974983701977,2.54010837214095,2.55722049731846,0.5,33.1937536139488
CBC_1015,CBC_1015_MSI_AV_v3_Vset1_Aset2_2023-06-25_14h04.10.751.csv,1,36,3,2,b,1,0,3,aud,D,63,1,3D,2D,1,0,b,1.00527800000054,1,0,1,1,3D,2D,D32,2.83321334405622,0.727551861691929,0.5,0.5,0.5,0.391314857225914,0.828528046420572,0.5,0.391314857225914,0.5,0.391314857225914,0.929624633791887,0.5,0.5,0.5,0.5,0.910078336014361,0.910078336014361,0.0899216639856385,0.910078336014361,0.5,1.59240696315384,0.995164914078371,0.0899216639856385,0.019546297777525,0.5,0.217370285548172,0.667974983701977,2.54010837214095,2.55722049731846,0.5,33.1937536139488
CBC_1015,CBC_1015_MSI_AV_v3_Vset1_Aset2_2023-06-25_14h04.10.751.csv,1,37,2,1,z,0,1,1,aud,B,9,1,2B,1B,0,1,z,2.9276387000009,0,1,1,1,1B,2B,B21,3.95124371858143,0.727551861691929,0.5,0.5,0.5,0.391314857225914,0.828528046420572,0.5,0.391314857225914,0.5,0.391314857225914,0.929624633791887,0.5,0.5,0.5,0.5,0.929624633791887,0.828528046420572,0.171471953579428,0.828528046420572,0.5,0.0317040135304583,0.98618064177515,0.171471953579428,0.0372729075130631,0.5,0.217370285548172,0.667974983701977,2.54010837214095,2.55722049731846,0.5,33.1937536139488
CBC_1015,CBC_1015_MSI_AV_v3_Vset1_Aset2_2023-06-25_14h04.10.751.csv,1,38,0,2,b,1,0,2,aud,A,27,1,0A,2A,1,0,b,0.959470800002237,1,0,1,1,0A,2A,A02,2.87167962488401,0.727551861691929,0.5,0.5,0.5,0.391314857225914,0.865800953933635,0.5,0.391314857225914,0.5,0.391314857225914,0.929624633791887,0.5,0.5,0.5,0.5,0.929624633791887,0.727551861691929,0.272448138308071,0.727551861691929,0.5,0.708172446232832,0.950544279351537,0.272448138308071,0.0592221296210931,0.5,0.217370285548172,0.667974983701977,2.54010837214095,2.55722049731846,0.5,33.1937536139488
CBC_1015,CBC_1015_MSI_AV_v3_Vset1_Aset2_2023-06-25_14h04.10.751.csv,1,39,3,2,z,0,1,0,aud,C,63,1,3C,2C,0,1,z,2.24434070000098,0,1,1,1,2C,3C,C32,3.29583686600433,0.786773991313023,0.5,0.5,0.5,0.391314857225914,0.865800953933635,0.5,0.391314857225914,0.5,0.391314857225914,0.929624633791887,0.5,0.5,0.5,0.5,0.929624633791887,0.929624633791887,0.0703753662081135,0.929624633791887,0.5,0.0557717596494163,0.99624494563042,0.0703753662081135,0.0152975134482148,0.5,0.217370285548172,0.667974983701977,2.54010837214095,2.55722049731846,0.5,33.1937536139488
CBC_1015,CBC_1015_MSI_AV_v3_Vset1_Aset2_2023-06-25_14h04.10.751.csv,1,40,3,1,b,1,0,3,aud,D,27,1,3D,1D,1,0,b,0.79406519999975,1,0,1,1,3D,1D,D31,3.31418600467253,0.786773991313023,0.5,0.5,0.5,0.391314857225914,0.865800953933635,0.5,0.391314857225914,0.5,0.391314857225914,0.944922147240101,0.5,0.5,0.5,0.5,0.929624633791887,0.929624633791887,0.0703753662081135,0.929624633791887,0.5,0.210446861422548,0.996256114463139,0.0703753662081135,0.0152975134482148,0.5,0.217370285548172,0.667974983701977,2.54010837214095,2.55722049731846,0.5,33.1937536139488
CBC_1015,CBC_1015_MSI_AV_v3_Vset1_Aset2_2023-06-25_14h04.10.751.csv,1,41,1,0,z,0,1,2,aud,A,63,1,1A,0A,0,1,z,1.45676240000103,0,1,1,1,0A,1A,A10,2.23359222150709,0.786773991313023,0.5,0.5,0.5,0.391314857225914,0.865800953933635,0.5,0.391314857225914,0.5,0.391314857225914,0.944922147240101,0.5,0.5,0.5,0.5,0.944922147240101,0.786773991313023,0.213226008686977,0.786773991313023,0.5,0.719842659311204,0.9764351105909,0.213226008686977,0.0463489983945853,0.5,0.217370285548172,0.667974983701977,2.54010837214095,2.55722049731846,0.5,33.1937536139488
CBC_1015,CBC_1015_MSI_AV_v3_Vset1_Aset2_2023-06-25_14h04.10.751.csv,1,42,2,0,b,1,0,0,aud,C,27,1,2C,0C,1,0,b,1.21518610000203,1,0,1,1,2C,0C,C20,3.3499040872746,0.833122989707608,0.5,0.5,0.5,0.391314857225914,0.865800953933635,0.5,0.391314857225914,0.5,0.391314857225914,0.944922147240101,0.5,0.5,0.5,0.5,0.944922147240101,0.944922147240101,0.0550778527598986,0.944922147240101,0.5,1.25809408821918,0.996919894636408,0.0550778527598986,0.0119722885817993,0.5,0.217370285548172,0.667974983701977,2.54010837214095,2.55722049731846,0.5,33.1937536139488
CBC_1015,CBC_1015_MSI_AV_v3_Vset1_Aset2_2023-06-25_14h04.10.751.csv,1,43,2,3,z,0,1,3,aud,D,63,1,2D,3D,0,1,z,1.6297050000012,0,1,1,1,3D,2D,D23,2.67414864942653,0.833122989707608,0.5,0.5,0.5,0.391314857225914,0.865800953933635,0.5,0.391314857225914,0.5,0.391314857225914,0.956894435821901,0.5,0.5,0.5,0.5,0.944922147240101,0.944922147240101,0.0550778527598986,0.944922147240101,0.5,0.355624010648292,0.996914694684962,0.0550778527598986,0.0119722885817993,0.5,0.217370285548172,0.667974983701977,2.54010837214095,2.55722049731846,0.5,33.1937536139488
CBC_1015,CBC_1015_MSI_AV_v3_Vset1_Aset2_2023-06-25_14h04.10.751.csv,1,44,0,1,z,0,1,1,aud,B,63,1,0B,1B,0,1,z,1.36525150000125,0,1,1,1,1B,0B,B01,2.97892515523761,0.833122989707608,0.5,0.5,0.5,0.391314857225914,0.865800953933635,0.5,0.391314857225914,0.5,0.391314857225914,0.956894435821901,0.5,0.5,0.5,0.5,0.956894435821901,0.909382590948264,0.0906174090517357,0.865800953933635,0.391314857225914,0.857728294967463,0.995109129516444,0.134199046066365,0.029170884963738,0.5,0.217370285548172,0.667974983701977,2.54010837214095,2.55722049731846,0.5,33.1937536139488
CBC_1015,CBC_1015_MSI_TV_v3_Vset4_Tset3_2023-06-25_14h12.36.349.csv,2,1,1,0,b,1,0,1,tac,B,63,1,1B,0B,1,0,b,2.48233450000043,1,0,1,1,1B,0B,B10,2.77258872223978,0.5,0.5,0.5,0.5,0.5,0.5,0.5,0.5,0.5,0.5,0.5,0.5,0.5,0.5,0.5,0.5,0.5,0.5,0.5,0.5,0.146726220267204,0.500511637485322,0.5,0.121401338643635,0.5,0.242802677287271,0.920785661407868,0.676193386950956,2.50407739107746,0.5,75.132470550483
CBC_1015,CBC_1015_MSI_TV_v3_Vset4_Tset3_2023-06-25_14h12.36.349.csv,2,2,1,0,z,0,1,2,tac,A,63,1,1A,0A,0,1,b,2.4178576000013,1,0,0,0,1A,0A,A10,2.83321334405622,0.5,0.5,0.5,0.5,0.5,0.621401338643635,0.5,0.5,0.5,0.5,0.5,0.5,0.5,0.5,0.5,0.5,0.5,0.5,0.5,0.5,0.154168930215984,0.499920389781151,-0.5,-0.121401338643635,0.5,0.242802677287271,0.920785661407868,0.676193386950956,2.50407739107746,0.5,75.132470550483
CBC_1015,CBC_1015_MSI_TV_v3_Vset4_Tset3_2023-06-25_14h12.36.349.csv,2,3,3,2,b,1,0,3,tac,D,63,1,3D,2D,1,0,b,2.34215370000129,1,0,1,1,3D,2D,D32,2.89037175789616,0.5,0.378598661356365,0.5,0.5,0.5,0.621401338643635,0.5,0.5,0.5,0.5,0.5,0.5,0.5,0.5,0.5,0.5,0.5,0.5,0.5,0.5,0.163510795469826,0.499619978614421,0.5,0.121401338643635,0.5,0.242802677287271,0.920785661407868,0.676193386950956,2.50407739107746,0.5,75.132470550483
CBC_1015,CBC_1015_MSI_TV_v3_Vset4_Tset3_2023-06-25_14h12.36.349.csv,2,4,1,2,b,1,0,1,tac,B,9,1,1B,2B,1,0,b,2.61137470000176,1,0,1,1,1B,2B,B12,2.94443897916644,0.5,0.378598661356365,0.5,0.5,0.5,0.621401338643635,0.5,0.5,0.5,0.5,0.5,0.5,0.5,0.5,0.5,0.621401338643635,0.621401338643635,0.378598661356365,0.621401338643635,0.5,0.158821594205109,0.600695104593007,0.378598661356365,0.0919247685947021,0.5,0.242802677287271,0.920785661407868,0.676193386950956,2.50407739107746,0.5,75.132470550483
CBC_1015,CBC_1015_MSI_TV_v3_Vset4_Tset3_2023-06-25_14h12.36.349.csv,2,5,2,0,z,0,1,2,tac,A,27,1,2A,0A,0,1,z,2.62411720000273,0,1,1,1,0A,2A,A20,2.99573227355399,0.5,0.378598661356365,0.5,0.5,0.5,0.713326107238338,0.5,0.5,0.5,0.5,0.5,0.5,0.5,0.5,0.5,0.621401338643635,0.5,0.5,0.5,0.5,0.130992885581104,0.499542747008778,0.5,0.121401338643635,0.5,0.242802677287271,0.920785661407868,0.676193386950956,2.50407739107746,0.5,75.132470550483
CBC_1015,CBC_1015_MSI_TV_v3_Vset4_Tset3_2023-06-25_14h12.36.349.csv,2,6,3,2,z,0,1,0,tac,C,63,1,3C,2C,0,1,z,2.70009230000142,0,1,1,1,2C,3C,C32,3.04452243772342,0.621401338643635,0.378598661356365,0.5,0.5,0.5,0.713326107238338,0.5,0.5,0.5,0.5,0.5,0.5,0.5,0.5,0.5,0.621401338643635,0.5,0.5,0.5,0.5,0.123478076519874,0.499886457207723,0.5,0.121401338643635,0.5,0.242802677287271,0.920785661407868,0.676193386950956,2.50407739107746,0.5,75.132470550483
CBC_1015,CBC_1015_MSI_TV_v3_Vset4_Tset3_2023-06-25_14h12.36.349.csv,2,7,3,1,b,1,0,3,tac,D,27,1,3D,1D,1,0,b,2.34600720000162,1,0,1,1,3D,1D,D31,3.09104245335832,0.621401338643635,0.378598661356365,0.5,0.5,0.5,0.713326107238338,0.5,0.5,0.5,0.5,0.621401338643635,0.5,0.5,0.5,0.5,0.621401338643635,0.621401338643635,0.378598661356365,0.621401338643635,0.5,0.196515957847333,0.601224454658913,0.378598661356365,0.0919247685947021,0.5,0.242802677287271,0.920785661407868,0.676193386950956,2.50407739107746,0.5,75.132470550483
CBC_1015,CBC_1015_MSI_TV_v3_Vset4_Tset3_2023-06-25_14h12.36.349.csv,2,8,0,1,b,1,0,2,tac,A,63,1,0A,1A,1,0,z,2.86098020000099,0,1,0,0,1A,0A,A01,3.13549421592915,0.621401338643635,0.378598661356365,0.5,0.5,0.5,0.713326107238338,0.5,0.5,0.5,0.5,0.621401338643635,0.5,0.5,0.5,0.5,0.713326107238338,0.270714427207958,0.729285572792042,0.378598661356365,0.621401338643635,0.0672000280715049,0.314931475422532,-0.378598661356365,-0.0919247685947021,0.5,0.242802677287271,0.920785661407868,0.676193386950956,2.50407739107746,0.5,75.132470550483
CBC_1015,CBC_1015_MSI_TV_v3_Vset4_Tset3_2023-06-25_14h12.36.349.csv,2,9,0,2,z,0,1,0,tac,C,27,1,0C,2C,0,1,b,2.95038960000238,1,0,0,0,0C,2C,C02,3.17805383034795,0.621401338643635,0.286673892761662,0.5,0.5,0.5,0.713326107238338,0.5,0.5,0.5,0.5,0.621401338643635,0.5,0.5,0.5,0.5,0.713326107238338,0.378598661356365,0.621401338643635,0.5,0.621401338643635,0.0803474145019021,0.398618837955591,-0.5,-0.121401338643635,0.5,0.242802677287271,0.920785661407868,0.676193386950956,2.50407739107746,0.5,75.132470550483
CBC_1015,CBC_1015_MSI_TV_v3_Vset4_Tset3_2023-06-25_14h12.36.349.csv,2,10,3,2,b,1,0,3,tac,D,63,1,3D,2D,1,0,b,2.30979560000196,1,0,1,1,3D,2D,D32,2.52572864430826,0.621401338643635,0.286673892761662,0.5,0.5,0.5,0.713326107238338,0.5,0.5,0.378598661356365,0.5,0.621401338643635,0.5,0.5,0.5,0.5,0.713326107238338,0.713326107238338,0.286673892761662,0.713326107238338,0.5,0.227538727588842,0.673720849960749,0.286673892761662,0.0696051886708956,0.5,0.242802677287271,0.920785661407868,0.676193386950956,2.50407739107746,0.5,75.132470550483
CBC_1015,CBC_1015_MSI_TV_v3_Vset4_Tset3_2023-06-25_14h12.36.349.csv,2,11,0,1,z,0,1,1,tac,B,63,1,0B,1B,0,1,z,2.35704710000209,0,1,1,1,1B,0B,B01,3.25809653802148,0.621401338643635,0.286673892761662,0.5,0.5,0.5,0.713326107238338,0.5,0.5,0.378598661356365,0.5,0.621401338643635,0.5,0.5,0.5,0.5,0.782931295909233,0.713326107238338,0.286673892761662,0.713326107238338,0.5,0.218444726431777,0.672574627948127,0.286673892761662,0.0696051886708956,0.5,0.242802677287271,0.920785661407868,0.676193386950956,2.50407739107746,0.5,75.132470550483
CBC_1015,CBC_1015_MSI_TV_v3_Vset4_Tset3_2023-06-25_14h12.36.349.csv,2,12,1,0,z,0,1,2,tac,A,63,1,1A,0A,0,1,b,1.93659670000125,1,0,0,0,1A,0A,A10,2.60268968544438,0.621401338643635,0.286673892761662,0.5,0.5,0.5,0.782931295909233,0.5,0.5,0.378598661356365,0.5,0.621401338643635,0.5,0.5,0.5,0.5,0.782931295909233,0.196692840373651,0.803307159626349,0.286673892761662,0.621401338643635,0.123371659204582,0.264235557902963,-0.286673892761662,-0.0696051886708956,0.5,0.242802677287271,0.920785661407868,0.676193386950956,2.50407739107746,0.5,75.132470550483
CBC_1015,CBC_1015_MSI_TV_v3_Vset4_Tset3_2023-06-25_14h12.36.349.csv,2,13,3,2,b,1,0,3,tac,D,63,1,3D,2D,1,0,b,1.49097640000218,1,0,1,1,3D,2D,D32,2.23359222150709,0.621401338643635,0.217068704090767,0.5,0.5,0.5,0.782931295909233,0.5,0.5,0.378598661356365,0.5,0.621401338643635,0.5,0.5,0.5,0.5,0.782931295909233,0.782931295909233,0.217068704090767,0.782931295909233,0.5,0.454114566625283,0.722473464371412,0.217068704090767,0.0527048625085165,0.5,0.242802677287271,0.920785661407868,0.676193386950956,2.50407739107746,0.5,75.132470550483
CBC_1015,CBC_1015_MSI_TV_v3_Vset4_Tset3_2023-06-25_14h12.36.349.csv,2,14,0,2,z,0,1,0,tac,C,27,1,0C,2C,0,1,z,3.73447200000192,0,1,1,1,2C,0C,C02,2.67414864942653,0.621401338643635,0.217068704090767,0.5,0.5,0.5,0.782931295909233,0.5,0.5,0.378598661356365,0.5,0.621401338643635,0.5,0.5,0.5,0.5,0.83563615841775,0.729285572792042,0.270714427207958,0.621401338643635,0.378598661356365,0.0704372454747004,0.684183025693129,0.378598661356365,0.0919247685947021,0.5,0.242802677287271,0.920785661407868,0.676193386950956,2.50407739107746,0.5,75.132470550483
CBC_1015,CBC_1015_MSI_TV_v3_Vset4_Tset3_2023-06-25_14h12.36.349.csv,2,15,1,0,z,0,1,2,tac,A,63,1,1A,0A,0,1,b,1.93685800000276,1,0,0,0,1A,0A,A10,2.30258509299405,0.621401338643635,0.217068704090767,0.5,0.5,0.5,0.782931295909233,0.5,0.5,0.378598661356365,0.5,0.713326107238338,0.5,0.5,0.5,0.5,0.83563615841775,0.144509284371931,0.855490715628069,0.217068704090767,0.621401338643635,0.109019171577586,0.230506197020258,-0.217068704090767,-0.0527048625085166,0.5,0.242802677287271,0.920785661407868,0.676193386950956,2.50407739107746,0.5,75.132470550483
CBC_1015,CBC_1015_MSI_TV_v3_Vset4_Tset3_2023-06-25_14h12.36.349.csv,2,16,3,1,z,0,1,1,tac,B,27,1,3B,1B,0,1,z,2.00672000000122,0,1,1,1,1B,3B,B31,3.43398720448515,0.621401338643635,0.16436384158225,0.5,0.5,0.5,0.782931295909233,0.5,0.5,0.378598661356365,0.5,0.713326107238338,0.5,0.5,0.5,0.5,0.83563615841775,0.782931295909233,0.217068704090767,0.782931295909233,0.5,0.316819537822017,0.72272921817643,0.217068704090767,0.0527048625085165,0.5,0.242802677287271,0.920785661407868,0.676193386950956,2.50407739107746,0.5,75.132470550483
CBC_1015,CBC_1015_MSI_TV_v3_Vset4_Tset3_2023-06-25_14h12.36.349.csv,2,17,2,3,b,1,0,0,tac,C,63,1,2C,3C,1,0,b,2.54396250000173,1,0,1,1,2C,3C,C23,3.46573590279973,0.621401338643635,0.16436384158225,0.5,0.5,0.5,0.83563615841775,0.5,0.5,0.378598661356365,0.5,0.713326107238338,0.5,0.5,0.5,0.5,0.83563615841775,0.713326107238338,0.286673892761662,0.713326107238338,0.5,0.187116941872212,0.672420853004098,0.286673892761662,0.0696051886708956,0.5,0.242802677287271,0.920785661407868,0.676193386950956,2.50407739107746,0.5,75.132470550483
CBC_1015,CBC_1015_MSI_TV_v3_Vset4_Tset3_2023-06-25_14h12.36.349.csv,2,18,3,2,b,1,0,3,tac,D,63,0,3D,2D,0,1,b,1.54328730000088,1,0,1,0,3D,2D,D32,2.11021320034659,0.621401338643635,0.16436384158225,0.5,0.5,0.5,0.83563615841775,0.5,0.5,0.378598661356365,0.5,0.782931295909233,0.5,0.5,0.5,0.5,0.83563615841775,0.83563615841775,0.16436384158225,0.83563615841775,0.5,0.47752580678111,0.756617991805068,-0.83563615841775,-0.20289469650188,0.5,0.242802677287271,0.920785661407868,0.676193386950956,2.50407739107746,0.5,75.132470550483
CBC_1015,CBC_1015_MSI_TV_v3_Vset4_Tset3_2023-06-25_14h12.36.349.csv,2,19,0,1,z,0,1,1,tac,B,63,1,0B,1B,0,1,b,3.25756220000221,1,0,0,0,0B,1B,B01,2.83321334405622,0.621401338643635,0.16436384158225,0.5,0.5,0.5,0.83563615841775,0.5,0.5,0.378598661356365,0.5,0.782931295909233,0.5,0.5,0.5,0.5,0.63274146191587,0.16436384158225,0.83563615841775,0.5,0.83563615841775,0.0354807875219982,0.243026095514025,-0.5,-0.121401338643635,0.5,0.242802677287271,0.920785661407868,0.676193386950956,2.50407739107746,0.5,75.132470550483
CBC_1015,CBC_1015_MSI_TV_v3_Vset4_Tset3_2023-06-25_14h12.36.349.csv,2,20,0,2,b,1,0,2,tac,A,27,1,0A,2A,1,0,z,2.58052450000105,0,1,0,0,2A,0A,A02,3.55534806148941,0.621401338643635,0.16436384158225,0.5,0.5,0.378598661356365,0.83563615841775,0.5,0.5,0.378598661356365,0.5,0.782931295909233,0.5,0.5,0.5,0.5,0.63274146191587,0.378598661356365,0.621401338643635,0.5,0.621401338643635,0.108230478150317,0.399371853030021,-0.5,-0.121401338643635,0.5,0.242802677287271,0.920785661407868,0.676193386950956,2.50407739107746,0.5,75.132470550483
CBC_1015,CBC_1015_MSI_TV_v3_Vset4_Tset3_2023-06-25_14h12.36.349.csv,2,21,3,0,b,1,0,3,tac,D,9,1,3D,0D,1,0,b,1.04467970000223,1,0,1,1,3D,0D,D30,3.58351893845611,0.621401338643635,0.16436384158225,0.378598661356365,0.5,0.378598661356365,0.83563615841775,0.5,0.5,0.378598661356365,0.5,0.782931295909233,0.5,0.5,0.5,0.5,0.63274146191587,0.63274146191587,0.36725853808413,0.63274146191587,0.5,0.0255587991295766,0.609804711843865,0.36725853808413,0.0891713563034358,0.5,0.242802677287271,0.920785661407868,0.676193386950956,2.50407739107746,0.5,75.132470550483
CBC_1015,CBC_1015_MSI_TV_v3_Vset4_Tset3_2023-06-25_14h12.36.349.csv,2,22,3,2,z,0,1,0,tac,C,63,1,3C,2C,0,1,z,2.64720350000243,0,1,1,1,2C,3C,C32,2.91777073208428,0.621401338643635,0.16436384158225,0.378598661356365,0.5,0.378598661356365,0.83563615841775,0.5,0.5,0.378598661356365,0.5,0.782931295909233,0.5,0.5,0.5,0.5,0.721912818219306,0.782931295909233,0.217068704090767,0.782931295909233,0.5,0.183264853041727,0.723041570144397,0.217068704090767,0.0527048625085165,0.5,0.242802677287271,0.920785661407868,0.676193386950956,2.50407739107746,0.5,75.132470550483
CBC_1015,CBC_1015_MSI_TV_v3_Vset4_Tset3_2023-06-25_14h12.36.349.csv,2,23,1,3,b,1,0,1,tac,B,27,1,1B,3B,1,0,b,2.00771800000075,1,0,1,1,1B,3B,B13,3.63758615972639,0.621401338643635,0.16436384158225,0.378598661356365,0.5,0.378598661356365,0.83563615841775,0.5,0.5,0.378598661356365,0.5,0.83563615841775,0.5,0.5,0.5,0.5,0.721912818219306,0.83563615841775,0.16436384158225,0.83563615841775,0.5,0.334908032649596,0.75675055910826,0.16436384158225,0.0399079807853912,0.5,0.242802677287271,0.920785661407868,0.676193386950956,2.50407739107746,0.5,75.132470550483
CBC_1015,CBC_1015_MSI_TV_v3_Vset4_Tset3_2023-06-25_14h12.36.349.csv,2,24,2,3,b,1,0,0,tac,C,63,1,2C,3C,1,0,b,2.27481380000245,1,0,1,1,2C,3C,C23,2.9704144655697,0.621401338643635,0.16436384158225,0.378598661356365,0.5,0.378598661356365,0.875544139203141,0.5,0.5,0.378598661356365,0.5,0.83563615841775,0.5,0.5,0.5,0.5,0.721912818219306,0.83563615841775,0.16436384158225,0.83563615841775,0.5,0.265093951304295,0.757659304597717,0.16436384158225,0.0399079807853912,0.5,0.242802677287271,0.920785661407868,0.676193386950956,2.50407739107746,0.5,75.132470550483
CBC_1015,CBC_1015_MSI_TV_v3_Vset4_Tset3_2023-06-25_14h12.36.349.csv,2,25,3,2,b,1,0,3,tac,D,63,1,3D,2D,1,0,b,1.90273180000258,1,0,1,1,3D,2D,D32,2.07944154167984,0.621401338643635,0.16436384158225,0.378598661356365,0.5,0.378598661356365,0.875544139203141,0.5,0.5,0.378598661356365,0.5,0.875544139203141,0.5,0.5,0.5,0.5,0.721912818219306,0.721912818219306,0.278087181780694,0.721912818219306,0.5,0.320063303323912,0.679135978555818,0.278087181780694,0.0675203122556245,0.5,0.242802677287271,0.920785661407868,0.676193386950956,2.50407739107746,0.5,75.132470550483
CBC_1015,CBC_1015_MSI_TV_v3_Vset4_Tset3_2023-06-25_14h12.36.349.csv,2,26,0,1,z,0,1,1,tac,B,63,1,0B,1B,0,1,z,3.33137400000123,0,1,1,1,1B,0B,B01,2.6149597780362,0.621401338643635,0.16436384158225,0.378598661356365,0.5,0.378598661356365,0.875544139203141,0.5,0.5,0.378598661356365,0.5,0.875544139203141,0.5,0.5,0.5,0.5,0.78943313047493,0.920297416304233,0.0797025836957671,0.875544139203141,0.378598661356365,0.103733602239109,0.805660346403872,0.124455860796859,0.0302182162055693,0.5,0.242802677287271,0.920785661407868,0.676193386950956,2.50407739107746,0.5,75.132470550483
CBC_1015,CBC_1015_MSI_TV_v3_Vset4_Tset3_2023-06-25_14h12.36.349.csv,2,27,3,0,z,0,1,2,tac,A,9,1,3A,0A,0,1,z,2.05863470000077,0,1,1,1,0A,3A,A30,3.73766961828337,0.621401338643635,0.16436384158225,0.378598661356365,0.5,0.378598661356365,0.90576235540871,0.5,0.5,0.378598661356365,0.5,0.875544139203141,0.5,0.5,0.5,0.5,0.78943313047493,0.621401338643635,0.378598661356365,0.621401338643635,0.5,0.246282044965959,0.599903142032849,0.378598661356365,0.0919247685947021,0.5,0.242802677287271,0.920785661407868,0.676193386950956,2.50407739107746,0.5,75.132470550483
CBC_1015,CBC_1015_MSI_TV_v3_Vset4_Tset3_2023-06-25_14h12.36.349.csv,2,28,3,2,b,1,0,3,tac,D,63,1,3D,2D,1,0,b,1.35058870000103,1,0,1,1,3D,2D,D32,1.96944064646551,0.713326107238338,0.16436384158225,0.378598661356365,0.5,0.378598661356365,0.90576235540871,0.5,0.5,0.378598661356365,0.5,0.875544139203141,0.5,0.5,0.5,0.5,0.78943313047493,0.78943313047493,0.21056686952507,0.78943313047493,0.5,0.452088141639162,0.727194629873659,0.21056686952507,0.0511261996686863,0.5,0.242802677287271,0.920785661407868,0.676193386950956,2.50407739107746,0.5,75.132470550483
CBC_1015,CBC_1015_MSI_TV_v3_Vset4_Tset3_2023-06-25_14h12.36.349.csv,2,29,0,2,z,0,1,0,tac,C,27,1,0C,2C,NaN,NaN,None,NaN,NaN,NaN,NaN,NaN,,,C02,2.68557734525015,0.713326107238338,0.16436384158225,0.378598661356365,0.5,0.378598661356365,0.90576235540871,0.5,0.5,0.378598661356365,0.5,0.875544139203141,0.5,0.5,0.5,0.5,0.840559330143617,0,0,0,0,NaN,0,0,0,0.5,0.242802677287271,0.920785661407868,0.676193386950956,2.50407739107746,0.5,75.132470550483
CBC_1015,CBC_1015_MSI_TV_v3_Vset4_Tset3_2023-06-25_14h12.36.349.csv,2,30,0,1,b,1,0,2,tac,A,63,1,0A,1A,1,0,z,1.61435940000047,0,1,0,0,1A,0A,A01,3.11351530921037,0.713326107238338,0.16436384158225,0.378598661356365,0.5,0.378598661356365,0.90576235540871,0.5,0.5,0.378598661356365,0.5,0.875544139203141,0.5,0.5,0.5,0.5,0.840559330143617,0.0732568856819691,0.926743114318031,0.16436384158225,0.713326107238338,0.120824977124065,0.190849621981536,-0.16436384158225,-0.0399079807853912,0.5,0.242802677287271,0.920785661407868,0.676193386950956,2.50407739107746,0.5,75.132470550483
CBC_1015,CBC_1015_MSI_TV_v3_Vset4_Tset3_2023-06-25_14h12.36.349.csv,2,31,0,1,z,0,1,1,tac,B,63,1,0B,1B,0,1,z,2.21916240000246,0,1,1,1,1B,0B,B01,2.4423470353692,0.713326107238338,0.124455860796859,0.378598661356365,0.5,0.378598661356365,0.90576235540871,0.5,0.5,0.378598661356365,0.5,0.875544139203141,0.5,0.5,0.5,0.5,0.840559330143617,0.940389235130002,0.059610764869998,0.90576235540871,0.378598661356365,0.301887291737843,0.816806466994215,0.0942376445912898,0.0228811524080115,0.5,0.242802677287271,0.920785661407868,0.676193386950956,2.50407739107746,0.5,75.132470550483
CBC_1015,CBC_1015_MSI_TV_v3_Vset4_Tset3_2023-06-25_14h12.36.349.csv,2,32,1,3,z,0,1,3,tac,D,27,1,1D,3D,0,1,z,2.1522399000005,0,1,1,1,3D,1D,D13,3.85014760171006,0.713326107238338,0.124455860796859,0.378598661356365,0.5,0.378598661356365,0.928643507816722,0.5,0.5,0.378598661356365,0.5,0.875544139203141,0.5,0.5,0.5,0.5,0.840559330143617,0.840559330143617,0.159440669856383,0.840559330143617,0.5,0.296582395268344,0.760168647204833,0.159440669856383,0.0387126215096057,0.5,0.242802677287271,0.920785661407868,0.676193386950956,2.50407739107746,0.5,75.132470550483
CBC_1015,CBC_1015_MSI_TV_v3_Vset4_Tset3_2023-06-25_14h12.36.349.csv,2,33,2,3,b,1,0,0,tac,C,63,1,2C,3C,1,0,b,2.42856639999991,1,0,1,1,2C,3C,C23,2.77258872223978,0.713326107238338,0.124455860796859,0.378598661356365,0.5,0.378598661356365,0.928643507816722,0.5,0.5,0.378598661356365,0.5,0.875544139203141,0.5,0.5,0.5,0.5,0.879271951653222,0.875544139203141,0.124455860796859,0.875544139203141,0.5,0.237754563834664,0.781061059009162,0.124455860796859,0.0302182162055693,0.5,0.242802677287271,0.920785661407868,0.676193386950956,2.50407739107746,0.5,75.132470550483
CBC_1015,CBC_1015_MSI_TV_v3_Vset4_Tset3_2023-06-25_14h12.36.349.csv,2,34,0,1,z,0,1,1,tac,B,63,1,0B,1B,0,1,z,1.92993019999994,0,1,1,1,1B,0B,B01,2.28238238567653,0.713326107238338,0.124455860796859,0.378598661356365,0.5,0.378598661356365,0.928643507816722,0.5,0.5,0.378598661356365,0.5,0.90576235540871,0.5,0.5,0.5,0.5,0.879271951653222,0.955278008473821,0.0447219915261785,0.928643507816722,0.378598661356365,0.402084393289139,0.823631125575586,0.0713564921832783,0.0173255473439282,0.5,0.242802677287271,0.920785661407868,0.676193386950956,2.50407739107746,0.5,75.132470550483
CBC_1015,CBC_1015_MSI_TV_v3_Vset4_Tset3_2023-06-25_14h12.36.349.csv,2,35,1,0,z,0,1,2,tac,A,63,1,1A,0A,0,1,z,2.90905610000118,0,1,1,1,0A,1A,A10,2.52572864430826,0.713326107238338,0.124455860796859,0.378598661356365,0.5,0.378598661356365,0.94596905516065,0.5,0.5,0.378598661356365,0.5,0.90576235540871,0.5,0.5,0.5,0.5,0.879271951653222,0.945960616248357,0.0540393837516434,0.713326107238338,0.124455860796859,0.155293112623578,0.818679062497219,0.286673892761662,0.0696051886708956,0.5,0.242802677287271,0.920785661407868,0.676193386950956,2.50407739107746,0.5,75.132470550483
CBC_1015,CBC_1015_MSI_TV_v3_Vset4_Tset3_2023-06-25_14h12.36.349.csv,2,36,2,1,b,1,0,0,tac,C,9,1,2C,1C,1,0,b,2.66617270000097,1,0,1,1,2C,1C,C21,3.93182563272433,0.782931295909233,0.124455860796859,0.378598661356365,0.5,0.378598661356365,0.94596905516065,0.5,0.5,0.378598661356365,0.5,0.90576235540871,0.5,0.5,0.5,0.5,0.879271951653222,0.90576235540871,0.0942376445912898,0.90576235540871,0.5,0.193853802191612,0.797856823485739,0.0942376445912898,0.0228811524080115,0.5,0.242802677287271,0.920785661407868,0.676193386950956,2.50407739107746,0.5,75.132470550483
CBC_1015,CBC_1015_MSI_TV_v3_Vset4_Tset3_2023-06-25_14h12.36.349.csv,2,37,0,1,b,1,0,2,tac,A,63,1,0A,1A,1,0,z,2.4934557000015,0,1,0,0,1A,0A,A01,2.85263142991332,0.782931295909233,0.124455860796859,0.378598661356365,0.5,0.378598661356365,0.94596905516065,0.5,0.5,0.378598661356365,0.5,0.928643507816722,0.5,0.5,0.5,0.5,0.879271951653222,0.037916113005901,0.962083886994099,0.124455860796859,0.782931295909233,0.0490174941320336,0.173414462015455,-0.124455860796859,-0.0302182162055693,0.5,0.242802677287271,0.920785661407868,0.676193386950956,2.50407739107746,0.5,75.132470550483
CBC_1015,CBC_1015_MSI_TV_v3_Vset4_Tset3_2023-06-25_14h12.36.349.csv,2,38,1,3,z,0,1,3,tac,D,27,1,1D,3D,0,1,z,1.33950750000076,0,1,1,1,3D,1D,D13,3.27714473299218,0.782931295909233,0.0942376445912898,0.378598661356365,0.5,0.378598661356365,0.94596905516065,0.5,0.5,0.378598661356365,0.5,0.928643507816722,0.5,0.5,0.5,0.5,0.879271951653222,0.879271951653222,0.120728048346778,0.879271951653222,0.5,0.510001616173213,0.78310404325138,0.120728048346778,0.0293130933622647,0.5,0.242802677287271,0.920785661407868,0.676193386950956,2.50407739107746,0.5,75.132470550483
CBC_1015,CBC_1015_MSI_TV_v3_Vset4_Tset3_2023-06-25_14h12.36.349.csv,2,39,1,0,b,1,0,1,tac,B,63,1,1B,0B,1,0,z,4.1798678999985,0,1,0,0,0B,1B,B10,3.29583686600433,0.782931295909233,0.0942376445912898,0.378598661356365,0.5,0.378598661356365,0.94596905516065,0.5,0.5,0.378598661356365,0.5,0.928643507816722,0.5,0.5,0.5,0.5,0.908585045015487,0.0336291838760229,0.966370816123977,0.378598661356365,0.94596905516065,0.00912856801385807,0.170626139784671,-0.378598661356365,-0.0919247685947021,0.5,0.242802677287271,0.920785661407868,0.676193386950956,2.50407739107746,0.5,75.132470550483
CBC_1015,CBC_1015_MSI_TV_v3_Vset4_Tset3_2023-06-25_14h12.36.349.csv,2,40,3,2,z,0,1,0,tac,C,63,0,3C,2C,1,0,z,1.32355349999852,0,1,1,0,2C,3C,C32,2.90872089656436,0.782931295909233,0.0942376445912898,0.378598661356365,0.5,0.286673892761662,0.94596905516065,0.5,0.5,0.378598661356365,0.5,0.928643507816722,0.5,0.5,0.5,0.5,0.908585045015487,0.928643507816722,0.0713564921832783,0.928643507816722,0.5,0.539588938826241,0.810635658503916,-0.928643507816722,-0.225477129943343,0.5,0.242802677287271,0.920785661407868,0.676193386950956,2.50407739107746,0.5,75.132470550483
CBC_1015,CBC_1015_MSI_TV_v3_Vset4_Tset3_2023-06-25_14h12.36.349.csv,2,41,0,2,b,1,0,2,tac,A,27,1,0A,2A,1,0,b,2.48158230000263,1,0,1,1,0A,2A,A02,3.3322045101752,0.782931295909233,0.0942376445912898,0.378598661356365,0.5,0.286673892761662,0.94596905516065,0.5,0.5,0.378598661356365,0.5,0.703166377873379,0.5,0.5,0.5,0.5,0.908585045015487,0.855490715628069,0.144509284371931,0.782931295909233,0.378598661356365,0.22354698724607,0.76914720819779,0.217068704090767,0.0527048625085165,0.5,0.242802677287271,0.920785661407868,0.676193386950956,2.50407739107746,0.5,75.132470550483
CBC_1015,CBC_1015_MSI_TV_v3_Vset4_Tset3_2023-06-25_14h12.36.349.csv,2,42,2,3,z,0,1,3,tac,D,63,1,2D,3D,0,1,z,1.79484370000137,0,1,1,1,3D,2D,D23,4.04305126783455,0.83563615841775,0.0942376445912898,0.378598661356365,0.5,0.286673892761662,0.94596905516065,0.5,0.5,0.378598661356365,0.5,0.703166377873379,0.5,0.5,0.5,0.5,0.908585045015487,0.908585045015487,0.0914149549845129,0.908585045015487,0.5,0.4351022008622,0.799955548496355,0.0914149549845129,0.0221957958143351,0.5,0.242802677287271,0.920785661407868,0.676193386950956,2.50407739107746,0.5,75.132470550483
CBC_1015,CBC_1015_MSI_TV_v3_Vset4_Tset3_2023-06-25_14h12.36.349.csv,2,43,1,3,b,1,0,1,tac,B,27,1,1B,3B,1,0,b,1.5175464999993,1,0,1,1,1B,3B,B13,3.36729582998647,0.83563615841775,0.0942376445912898,0.378598661356365,0.5,0.286673892761662,0.94596905516065,0.5,0.5,0.378598661356365,0.5,0.703166377873379,0.5,0.5,0.5,0.5,0.930780840829822,0.94596905516065,0.0540309448393501,0.94596905516065,0.5,0.555861471922396,0.818885385933018,0.0540309448393501,0.0131188580633551,0.5,0.242802677287271,0.920785661407868,0.676193386950956,2.50407739107746,0.5,75.132470550483
CBC_1015,CBC_1015_MSI_TV_v3_Vset4_Tset3_2023-06-25_14h12.36.349.csv,2,44,3,2,z,0,1,0,tac,C,63,1,3C,2C,0,1,z,1.93298839999989,0,1,1,1,2C,3C,C32,2.69124308278583,0.83563615841775,0.0942376445912898,0.378598661356365,0.5,0.286673892761662,0.959087913224005,0.5,0.5,0.378598661356365,0.5,0.703166377873379,0.5,0.5,0.5,0.5,0.930780840829822,0.703166377873379,0.296833622126621,0.703166377873379,0.5,0.304622522193437,0.664590071532981,0.296833622126621,0.0720719981612216,0.5,0.242802677287271,0.920785661407868,0.676193386950956,2.50407739107746,0.5,75.132470550483
CBC_1015,CBC_1015_MSI_AV_v3_Vset2_Aset3_2023-06-25_15h52.10.699.csv,3,1,1,0,z,0,1,2,aud,A,63,1,1A,0A,0,1,b,2.15474869999889,1,0,0,0,1A,0A,A10,2.77258872223978,0.5,0.5,0.5,0.5,0.5,0.5,0.5,0.5,0.5,0.5,0.5,0.5,0.5,0.5,0.5,0.5,0.5,0.5,0.5,0.5,0.16012580290599,0.500026292644537,-0.5,-0.0531974221723513,0.5,0.106394844344703,0.694212317411079,4.58098959084181,2.63447320963628,0.5,34.1846671266265
CBC_1015,CBC_1015_MSI_AV_v3_Vset2_Aset3_2023-06-25_15h52.10.699.csv,3,2,3,2,b,1,0,3,aud,D,63,1,3D,2D,1,0,z,2.01251509999929,0,1,0,0,2D,3D,D32,2.83321334405622,0.5,0.446802577827649,0.5,0.5,0.5,0.5,0.5,0.5,0.5,0.5,0.5,0.5,0.5,0.5,0.5,0.5,0.5,0.5,0.5,0.5,0.177381310154639,0.501094008911842,-0.5,-0.0531974221723513,0.5,0.106394844344703,0.694212317411079,4.58098959084181,2.63447320963628,0.5,34.1846671266265
CBC_1015,CBC_1015_MSI_AV_v3_Vset2_Aset3_2023-06-25_15h52.10.699.csv,3,3,2,0,b,1,0,0,aud,C,27,1,2C,0C,1,0,b,2.59367500000008,1,0,1,1,2C,0C,C20,2.89037175789616,0.5,0.446802577827649,0.5,0.5,0.5,0.5,0.5,0.5,0.5,0.5,0.5,0.5,0.5,0.5,0.446802577827649,0.5,0.5,0.5,0.5,0.5,0.117402407960587,0.500553705176018,0.5,0.0531974221723513,0.5,0.106394844344703,0.694212317411079,4.58098959084181,2.63447320963628,0.5,34.1846671266265
CBC_1015,CBC_1015_MSI_AV_v3_Vset2_Aset3_2023-06-25_15h52.10.699.csv,3,4,1,0,z,0,1,2,aud,A,63,1,1A,0A,0,1,z,2.24361919999865,0,1,1,1,0A,1A,A10,2.2512917986065,0.5,0.446802577827649,0.5,0.5,0.5,0.5,0.5,0.5,0.5,0.5,0.553197422172351,0.5,0.5,0.5,0.446802577827649,0.5,0.553197422172351,0.446802577827649,0.5,0.446802577827649,0.237555561945521,0.782664418108614,0.5,0.0531974221723513,0.5,0.106394844344703,0.694212317411079,4.58098959084181,2.63447320963628,0.5,34.1846671266265
CBC_1015,CBC_1015_MSI_AV_v3_Vset2_Aset3_2023-06-25_15h52.10.699.csv,3,5,3,1,z,0,1,1,aud,B,27,1,3B,1B,NaN,NaN,[],NaN,NaN,NaN,NaN,NaN,,,B31,2.99573227355399,0.553197422172351,0.446802577827649,0.5,0.5,0.5,0.5,0.5,0.5,0.5,0.5,0.553197422172351,0.5,0.5,0.5,0.446802577827649,0.5,0,0,0,0,NaN,0,0,0,0.5,0.106394844344703,0.694212317411079,4.58098959084181,2.63447320963628,0.5,34.1846671266265
CBC_1015,CBC_1015_MSI_AV_v3_Vset2_Aset3_2023-06-25_15h52.10.699.csv,3,6,2,3,b,1,0,0,aud,C,63,1,2C,3C,1,0,b,1.46730329999991,1,0,1,1,2C,3C,C23,3.04452243772342,0.553197422172351,0.446802577827649,0.5,0.5,0.5,0.5,0.5,0.5,0.5,0.5,0.553197422172351,0.5,0.5,0.5,0.446802577827649,0.5,0.553197422172351,0.446802577827649,0.553197422172351,0.5,0.435849833326757,0.78279611037912,0.446802577827649,0.0475374907207846,0.5,0.106394844344703,0.694212317411079,4.58098959084181,2.63447320963628,0.5,34.1846671266265
CBC_1015,CBC_1015_MSI_AV_v3_Vset2_Aset3_2023-06-25_15h52.10.699.csv,3,7,2,3,z,0,1,3,aud,D,63,0,2D,3D,1,0,z,2.15687139999864,0,1,1,0,3D,2D,D23,3.09104245335832,0.553197422172351,0.446802577827649,0.5,0.5,0.5,0.5,0.5,0.5,0.5,0.5,0.600734912893136,0.5,0.5,0.5,0.446802577827649,0.5,0.553197422172351,0.446802577827649,0.5,0.446802577827649,0.255460303213282,0.783413192323053,-0.5,-0.0531974221723513,0.5,0.106394844344703,0.694212317411079,4.58098959084181,2.63447320963628,0.5,34.1846671266265
CBC_1015,CBC_1015_MSI_AV_v3_Vset2_Aset3_2023-06-25_15h52.10.699.csv,3,8,1,0,b,1,0,1,aud,B,63,1,1B,0B,1,0,b,2.79461349999838,1,0,1,1,1B,0B,B10,3.13549421592915,0.553197422172351,0.446802577827649,0.5,0.5,0.5,0.5,0.5,0.5,0.5,0.5,0.600734912893136,0.5,0.5,0.5,0.446802577827649,0.446802577827649,0.5,0.5,0.5,0.5,0.101691397702742,0.500135995497088,0.5,0.0531974221723513,0.5,0.106394844344703,0.694212317411079,4.58098959084181,2.63447320963628,0.5,34.1846671266265
CBC_1015,CBC_1015_MSI_AV_v3_Vset2_Aset3_2023-06-25_15h52.10.699.csv,3,9,0,2,b,1,0,2,aud,A,27,1,0A,2A,1,0,b,1.67905040000187,1,0,1,1,0A,2A,A02,3.17805383034795,0.553197422172351,0.446802577827649,0.5,0.5,0.5,0.553197422172351,0.5,0.5,0.5,0.5,0.600734912893136,0.5,0.5,0.5,0.446802577827649,0.446802577827649,0.553197422172351,0.446802577827649,0.553197422172351,0.5,0.375314405827687,0.782590101469545,0.446802577827649,0.0475374907207846,0.5,0.106394844344703,0.694212317411079,4.58098959084181,2.63447320963628,0.5,34.1846671266265
CBC_1015,CBC_1015_MSI_AV_v3_Vset2_Aset3_2023-06-25_15h52.10.699.csv,3,10,0,3,z,0,1,3,aud,D,9,1,0D,3D,0,1,z,1.91363459999775,0,1,1,1,3D,0D,D03,3.2188758248682,0.600734912893136,0.446802577827649,0.5,0.5,0.5,0.553197422172351,0.5,0.5,0.5,0.5,0.600734912893136,0.5,0.5,0.5,0.446802577827649,0.446802577827649,0.446802577827649,0.553197422172351,0.446802577827649,0.5,0.0866562493890431,0.217718523488822,0.553197422172351,0.058857353623918,0.5,0.106394844344703,0.694212317411079,4.58098959084181,2.63447320963628,0.5,34.1846671266265
CBC_1015,CBC_1015_MSI_AV_v3_Vset2_Aset3_2023-06-25_15h52.10.699.csv,3,11,3,2,z,0,1,0,aud,C,63,1,3C,2C,0,1,z,1.88266970000041,0,1,1,1,2C,3C,C32,3.25809653802148,0.600734912893136,0.446802577827649,0.5,0.5,0.5,0.553197422172351,0.5,0.5,0.5,0.5,0.600734912893136,0.5,0.5,0.5,0.446802577827649,0.505659931451567,0.600734912893136,0.399265087106864,0.600734912893136,0.5,0.393989205696071,0.919328644088268,0.399265087106864,0.0424797467950089,0.5,0.106394844344703,0.694212317411079,4.58098959084181,2.63447320963628,0.5,34.1846671266265
CBC_1015,CBC_1015_MSI_AV_v3_Vset2_Aset3_2023-06-25_15h52.10.699.csv,3,12,1,0,b,1,0,1,aud,B,63,1,1B,0B,1,0,b,1.8563768999993,1,0,1,1,1B,0B,B10,2.60268968544438,0.600734912893136,0.446802577827649,0.5,0.5,0.5,0.553197422172351,0.5,0.5,0.5,0.5,0.643214659688145,0.5,0.5,0.5,0.446802577827649,0.505659931451567,0.553197422172351,0.446802577827649,0.553197422172351,0.5,0.326545397100366,0.783041492206568,0.446802577827649,0.0475374907207846,0.5,0.106394844344703,0.694212317411079,4.58098959084181,2.63447320963628,0.5,34.1846671266265
CBC_1015,CBC_1015_MSI_AV_v3_Vset2_Aset3_2023-06-25_15h52.10.699.csv,3,13,3,2,b,1,0,3,aud,D,63,1,3D,2D,1,0,b,1.84283860000141,1,0,1,1,3D,2D,D32,2.63905732961526,0.600734912893136,0.446802577827649,0.5,0.5,0.5,0.600734912893136,0.5,0.5,0.5,0.5,0.643214659688145,0.5,0.5,0.5,0.446802577827649,0.505659931451567,0.558786552566638,0.441213447433362,0.505659931451567,0.446802577827649,0.343103519816743,0.805832916711269,0.494340068548433,0.0525952346465602,0.5,0.106394844344703,0.694212317411079,4.58098959084181,2.63447320963628,0.5,34.1846671266265
CBC_1015,CBC_1015_MSI_AV_v3_Vset2_Aset3_2023-06-25_15h52.10.699.csv,3,14,3,2,z,0,1,0,aud,C,63,1,3C,2C,0,1,z,1.33511780000117,0,1,1,1,2C,3C,C32,2.67414864942653,0.600734912893136,0.446802577827649,0.5,0.5,0.5,0.600734912893136,0.5,0.5,0.5,0.5,0.643214659688145,0.5,0.5,0.5,0.446802577827649,0.558255166098127,0.643214659688145,0.356785340311855,0.643214659688145,0.5,0.857673498421155,0.969365948599558,0.356785340311855,0.0379601207469516,0.5,0.106394844344703,0.694212317411079,4.58098959084181,2.63447320963628,0.5,34.1846671266265
CBC_1015,CBC_1015_MSI_AV_v3_Vset2_Aset3_2023-06-25_15h52.10.699.csv,3,15,1,3,b,1,0,1,aud,B,27,1,1B,3B,1,0,b,2.69954279999729,1,0,1,1,1B,3B,B13,3.40119738166216,0.600734912893136,0.446802577827649,0.5,0.5,0.5,0.600734912893136,0.5,0.5,0.5,0.5,0.681174780435096,0.5,0.5,0.5,0.446802577827649,0.558255166098127,0.600734912893136,0.399265087106864,0.600734912893136,0.5,0.156275130453496,0.918929144470409,0.399265087106864,0.0424797467950089,0.5,0.106394844344703,0.694212317411079,4.58098959084181,2.63447320963628,0.5,34.1846671266265
CBC_1015,CBC_1015_MSI_AV_v3_Vset2_Aset3_2023-06-25_15h52.10.699.csv,3,16,3,0,z,0,1,2,aud,A,9,1,3A,0A,0,1,b,1.62584509999942,1,0,0,0,3A,0A,A30,3.43398720448515,0.600734912893136,0.446802577827649,0.5,0.5,0.5,0.643214659688145,0.5,0.5,0.5,0.5,0.681174780435096,0.5,0.5,0.5,0.446802577827649,0.558255166098127,0.399265087106864,0.600734912893136,0.5,0.600734912893136,0.0458690147198777,0.0808679240074528,-0.5,-0.0531974221723513,0.5,0.106394844344703,0.694212317411079,4.58098959084181,2.63447320963628,0.5,34.1846671266265
CBC_1015,CBC_1015_MSI_AV_v3_Vset2_Aset3_2023-06-25_15h52.10.699.csv,3,17,3,2,b,1,0,3,aud,D,63,1,3D,2D,1,0,b,1.73593999999866,1,0,1,1,3D,2D,D32,2.36712361413162,0.600734912893136,0.446802577827649,0.5,0.446802577827649,0.5,0.643214659688145,0.5,0.5,0.5,0.5,0.681174780435096,0.5,0.5,0.5,0.446802577827649,0.558255166098127,0.61008792746056,0.38991207253944,0.558255166098127,0.446802577827649,0.475948331748877,0.934582508199546,0.441744833901873,0.0469993728430663,0.5,0.106394844344703,0.694212317411079,4.58098959084181,2.63447320963628,0.5,34.1846671266265
CBC_1015,CBC_1015_MSI_AV_v3_Vset2_Aset3_2023-06-25_15h52.10.699.csv,3,18,2,0,b,1,0,0,aud,C,27,1,2C,0C,1,0,b,0.873077999996895,1,0,1,1,2C,0C,C20,2.80336038090653,0.600734912893136,0.446802577827649,0.5,0.446802577827649,0.5,0.643214659688145,0.5,0.5,0.5,0.5,0.681174780435096,0.5,0.5,0.5,0.446802577827649,0.605254538941193,0.681174780435096,0.318825219564904,0.681174780435096,0.5,0.379460228733633,0.987637281264028,0.318825219564904,0.0339213596087736,0.5,0.106394844344703,0.694212317411079,4.58098959084181,2.63447320963628,0.5,34.1846671266265
CBC_1015,CBC_1015_MSI_AV_v3_Vset2_Aset3_2023-06-25_15h52.10.699.csv,3,19,1,0,z,0,1,2,aud,A,63,1,1A,0A,0,1,z,1.41609320000134,0,1,1,1,0A,1A,A10,2.42774823594805,0.600734912893136,0.446802577827649,0.5,0.446802577827649,0.5,0.643214659688145,0.5,0.5,0.5,0.5,0.71509614004387,0.5,0.5,0.5,0.446802577827649,0.605254538941193,0.650701985154278,0.349298014845722,0.600734912893136,0.446802577827649,0.798018422203634,0.974416347435271,0.399265087106864,0.0424797467950089,0.5,0.106394844344703,0.694212317411079,4.58098959084181,2.63447320963628,0.5,34.1846671266265
CBC_1015,CBC_1015_MSI_AV_v3_Vset2_Aset3_2023-06-25_15h52.10.699.csv,3,20,0,1,z,0,1,1,aud,B,63,0,0B,1B,1,0,z,1.64157819999673,0,1,1,0,1B,0B,B01,3.55534806148941,0.643214659688145,0.446802577827649,0.5,0.446802577827649,0.5,0.643214659688145,0.5,0.5,0.5,0.5,0.71509614004387,0.5,0.5,0.5,0.446802577827649,0.605254538941193,0.643214659688145,0.356785340311855,0.643214659688145,0.5,0.567105004361273,0.969397408546485,-0.643214659688145,-0.068434723597751,0.5,0.106394844344703,0.694212317411079,4.58098959084181,2.63447320963628,0.5,34.1846671266265
CBC_1015,CBC_1015_MSI_AV_v3_Vset2_Aset3_2023-06-25_15h52.10.699.csv,3,21,1,3,z,0,1,3,aud,D,27,1,1D,3D,0,1,z,1.48849080000218,0,1,1,1,3D,1D,D13,3.58351893845611,0.643214659688145,0.446802577827649,0.5,0.446802577827649,0.5,0.574779936090394,0.5,0.5,0.5,0.5,0.71509614004387,0.5,0.5,0.5,0.446802577827649,0.605254538941193,0.605254538941193,0.394745461058807,0.605254538941193,0.5,0.6125583240416,0.926806404709548,0.394745461058807,0.0419988818851296,0.5,0.106394844344703,0.694212317411079,4.58098959084181,2.63447320963628,0.5,34.1846671266265
CBC_1015,CBC_1015_MSI_AV_v3_Vset2_Aset3_2023-06-25_15h52.10.699.csv,3,22,2,3,b,1,0,0,aud,C,63,1,2C,3C,1,0,b,1.246994000001,1,0,1,1,2C,3C,C23,2.91777073208428,0.643214659688145,0.446802577827649,0.5,0.446802577827649,0.5,0.574779936090394,0.5,0.5,0.5,0.5,0.71509614004387,0.5,0.5,0.5,0.446802577827649,0.647253420826323,0.71509614004387,0.28490385995613,0.71509614004387,0.5,1.21999627649168,0.994471037739151,0.28490385995613,0.0303123018332374,0.5,0.106394844344703,0.694212317411079,4.58098959084181,2.63447320963628,0.5,34.1846671266265
CBC_1015,CBC_1015_MSI_AV_v3_Vset2_Aset3_2023-06-25_15h52.10.699.csv,3,23,1,0,b,1,0,1,aud,B,63,1,1B,0B,1,0,b,2.02961159999904,1,0,1,1,1B,0B,B10,2.53897387105828,0.643214659688145,0.446802577827649,0.5,0.446802577827649,0.5,0.574779936090394,0.5,0.5,0.5,0.5,0.745408441877107,0.5,0.5,0.5,0.446802577827649,0.647253420826323,0.574779936090394,0.425220063909606,0.574779936090394,0.5,0.315266106930751,0.858946155587026,0.425220063909606,0.045241222511907,0.5,0.106394844344703,0.694212317411079,4.58098959084181,2.63447320963628,0.5,34.1846671266265
CBC_1015,CBC_1015_MSI_AV_v3_Vset2_Aset3_2023-06-25_15h52.10.699.csv,3,24,2,0,z,0,1,2,aud,A,27,1,2A,0A,0,1,z,1.46015589999661,0,1,1,1,0A,2A,A20,3.66356164612965,0.643214659688145,0.446802577827649,0.5,0.446802577827649,0.5,0.620021158602301,0.5,0.5,0.5,0.5,0.745408441877107,0.5,0.5,0.5,0.446802577827649,0.647253420826323,0.643214659688145,0.356785340311855,0.643214659688145,0.5,0.735711372414187,0.969556859250859,0.356785340311855,0.0379601207469516,0.5,0.106394844344703,0.694212317411079,4.58098959084181,2.63447320963628,0.5,34.1846671266265
CBC_1015,CBC_1015_MSI_AV_v3_Vset2_Aset3_2023-06-25_15h52.10.699.csv,3,25,2,3,z,0,1,3,aud,D,63,1,2D,3D,0,1,z,1.25674550000258,0,1,1,1,3D,2D,D23,2.99573227355399,0.681174780435096,0.446802577827649,0.5,0.446802577827649,0.5,0.620021158602301,0.5,0.5,0.5,0.5,0.745408441877107,0.5,0.5,0.5,0.446802577827649,0.647253420826323,0.694360741658337,0.305639258341663,0.647253420826323,0.446802577827649,1.14018718138974,0.990918667303103,0.352746579173677,0.0375304173843097,0.5,0.106394844344703,0.694212317411079,4.58098959084181,2.63447320963628,0.5,34.1846671266265
CBC_1015,CBC_1015_MSI_AV_v3_Vset2_Aset3_2023-06-25_15h52.10.699.csv,3,26,2,0,b,1,0,0,aud,C,27,1,2C,0C,1,0,b,1.57212289999734,1,0,1,1,2C,0C,C20,2.6149597780362,0.681174780435096,0.446802577827649,0.5,0.446802577827649,0.5,0.620021158602301,0.5,0.5,0.5,0.5,0.745408441877107,0.5,0.5,0.5,0.446802577827649,0.684783838210632,0.745408441877107,0.254591558122893,0.745408441877107,0.5,0.499000697344058,0.997334889637439,0.254591558122893,0.0270872291979605,0.5,0.106394844344703,0.694212317411079,4.58098959084181,2.63447320963628,0.5,34.1846671266265
CBC_1015,CBC_1015_MSI_AV_v3_Vset2_Aset3_2023-06-25_15h52.10.699.csv,3,27,1,0,b,1,0,1,aud,B,63,1,1B,0B,1,0,b,0.831605399998807,1,0,1,1,1B,0B,B10,2.35137525716348,0.681174780435096,0.446802577827649,0.5,0.446802577827649,0.5,0.620021158602301,0.5,0.5,0.5,0.5,0.772495671075068,0.5,0.5,0.5,0.446802577827649,0.684783838210632,0.620021158602301,0.379978841397699,0.620021158602301,0.5,0.0731245165746552,0.947633646407176,0.379978841397699,0.0404277896847886,0.5,0.106394844344703,0.694212317411079,4.58098959084181,2.63447320963628,0.5,34.1846671266265
CBC_1015,CBC_1015_MSI_AV_v3_Vset2_Aset3_2023-06-25_15h52.10.699.csv,3,28,0,1,b,1,0,2,aud,A,63,1,0A,1A,1,0,b,1.59616040000037,1,0,1,1,0A,1A,A01,3.76120011569356,0.681174780435096,0.446802577827649,0.5,0.446802577827649,0.5,0.660448948287089,0.5,0.5,0.5,0.5,0.772495671075068,0.5,0.5,0.5,0.446802577827649,0.684783838210632,0.725672064922839,0.274327935077161,0.681174780435096,0.446802577827649,0.518622351168994,0.995716756309638,0.318825219564904,0.0339213596087736,0.5,0.106394844344703,0.694212317411079,4.58098959084181,2.63447320963628,0.5,34.1846671266265
CBC_1015,CBC_1015_MSI_AV_v3_Vset2_Aset3_2023-06-25_15h52.10.699.csv,3,29,3,2,z,0,1,0,aud,C,63,0,3C,2C,1,0,z,1.53224969999792,0,1,1,0,2C,3C,C32,2.68557734525015,0.71509614004387,0.446802577827649,0.5,0.446802577827649,0.5,0.660448948287089,0.5,0.5,0.5,0.5,0.772495671075068,0.5,0.5,0.5,0.446802577827649,0.684783838210632,0.772495671075068,0.227504328924932,0.772495671075068,0.5,0.478132059738397,0.99861204889023,-0.772495671075068,-0.0821895566809884,0.5,0.106394844344703,0.694212317411079,4.58098959084181,2.63447320963628,0.5,34.1846671266265
CBC_1015,CBC_1015_MSI_AV_v3_Vset2_Aset3_2023-06-25_15h52.10.699.csv,3,30,3,1,b,1,0,3,aud,D,27,1,3D,1D,1,0,b,1.9412747000024,1,0,1,1,3D,1D,D31,3.80666248977032,0.71509614004387,0.446802577827649,0.5,0.446802577827649,0.5,0.660448948287089,0.5,0.5,0.5,0.5,0.690306114394079,0.5,0.5,0.5,0.446802577827649,0.684783838210632,0.684783838210632,0.315216161789368,0.684783838210632,0.5,0.289788345873384,0.988559341862837,0.315216161789368,0.0335373744685143,0.5,0.106394844344703,0.694212317411079,4.58098959084181,2.63447320963628,0.5,34.1846671266265
CBC_1015,CBC_1015_MSI_AV_v3_Vset2_Aset3_2023-06-25_15h52.10.699.csv,3,31,1,0,z,0,1,2,aud,A,63,1,1A,0A,0,1,z,1.49451260000205,0,1,1,1,0A,1A,A10,2.4423470353692,0.71509614004387,0.446802577827649,0.5,0.446802577827649,0.5,0.660448948287089,0.5,0.5,0.5,0.5,0.690306114394079,0.5,0.5,0.5,0.446802577827649,0.718321212679147,0.756551154144739,0.243448845855261,0.71509614004387,0.446802577827649,0.601103828727264,0.99796462721927,0.28490385995613,0.0303123018332374,0.5,0.106394844344703,0.694212317411079,4.58098959084181,2.63447320963628,0.5,34.1846671266265
CBC_1015,CBC_1015_MSI_AV_v3_Vset2_Aset3_2023-06-25_15h52.10.699.csv,3,32,3,2,b,1,0,3,aud,D,63,1,3D,2D,1,0,b,1.90210989999832,1,0,1,1,3D,2D,D32,2.46385324059017,0.745408441877107,0.446802577827649,0.5,0.446802577827649,0.5,0.660448948287089,0.5,0.5,0.5,0.5,0.690306114394079,0.5,0.5,0.5,0.446802577827649,0.718321212679147,0.75946480728455,0.24053519271545,0.718321212679147,0.446802577827649,0.144160623188526,0.998099420843865,0.281678787320853,0.0299691707322068,0.5,0.106394844344703,0.694212317411079,4.58098959084181,2.63447320963628,0.5,34.1846671266265
CBC_1015,CBC_1015_MSI_AV_v3_Vset2_Aset3_2023-06-25_15h52.10.699.csv,3,33,2,1,z,0,1,1,aud,B,9,1,2B,1B,0,1,z,1.13546700000006,0,1,1,1,1B,2B,B21,3.87120101090789,0.745408441877107,0.446802577827649,0.5,0.446802577827649,0.5,0.660448948287089,0.5,0.5,0.5,0.5,0.690306114394079,0.5,0.5,0.5,0.446802577827649,0.748290383411354,0.660448948287089,0.339551051712911,0.660448948287089,0.5,1.08154169075626,0.97970915623648,0.339551051712911,0.0361264812940752,0.5,0.106394844344703,0.694212317411079,4.58098959084181,2.63447320963628,0.5,34.1846671266265
CBC_1015,CBC_1015_MSI_AV_v3_Vset2_Aset3_2023-06-25_15h52.10.699.csv,3,34,1,0,z,0,1,2,aud,A,63,1,1A,0A,0,1,z,1.50087050000002,0,1,1,1,0A,1A,A10,2.28238238567653,0.745408441877107,0.446802577827649,0.5,0.446802577827649,0.5,0.696575429581165,0.5,0.5,0.5,0.5,0.690306114394079,0.5,0.5,0.5,0.446802577827649,0.748290383411354,0.783786427289381,0.216213572710619,0.745408441877107,0.446802577827649,0.496838365657187,0.998943546682947,0.254591558122893,0.0270872291979605,0.5,0.106394844344703,0.694212317411079,4.58098959084181,2.63447320963628,0.5,34.1846671266265
CBC_1015,CBC_1015_MSI_AV_v3_Vset2_Aset3_2023-06-25_15h52.10.699.csv,3,35,2,1,b,1,0,0,aud,C,9,1,2C,1C,1,0,b,1.69454219999898,1,0,1,1,2C,1C,C21,3.91202300542815,0.772495671075068,0.446802577827649,0.5,0.446802577827649,0.5,0.696575429581165,0.5,0.5,0.5,0.5,0.690306114394079,0.5,0.5,0.5,0.446802577827649,0.748290383411354,0.690306114394079,0.309693885605921,0.690306114394079,0.5,0.478209123784045,0.989970598565665,0.309693885605921,0.0329498327535481,0.5,0.106394844344703,0.694212317411079,4.58098959084181,2.63447320963628,0.5,34.1846671266265
CBC_1015,CBC_1015_MSI_AV_v3_Vset2_Aset3_2023-06-25_15h52.10.699.csv,3,36,1,0,b,1,0,1,aud,B,63,1,1B,0B,1,0,b,1.0045192999969,1,0,1,1,1B,0B,B10,2.32238772029023,0.772495671075068,0.446802577827649,0.5,0.446802577827649,0.5,0.696575429581165,0.5,0.5,0.5,0.5,0.723255947147627,0.5,0.5,0.5,0.446802577827649,0.748290383411354,0.696575429581165,0.303424570418835,0.696575429581165,0.5,1.20359404354248,0.991381284353443,0.303424570418835,0.0322828099400702,0.5,0.106394844344703,0.694212317411079,4.58098959084181,2.63447320963628,0.5,34.1846671266265
CBC_1015,CBC_1015_MSI_AV_v3_Vset2_Aset3_2023-06-25_15h52.10.699.csv,3,37,0,1,b,1,0,2,aud,A,63,0,0A,1A,0,1,b,1.06808900000033,1,0,1,0,0A,1A,A01,3.25809653802148,0.772495671075068,0.446802577827649,0.5,0.446802577827649,0.5,0.728858239521235,0.5,0.5,0.5,0.5,0.723255947147627,0.5,0.5,0.5,0.446802577827649,0.748290383411354,0.807843039622833,0.192156960377167,0.772495671075068,0.446802577827649,2.0959168496606,0.999407202667366,-0.772495671075068,-0.0821895566809884,0.5,0.106394844344703,0.694212317411079,4.58098959084181,2.63447320963628,0.5,34.1846671266265
CBC_1015,CBC_1015_MSI_AV_v3_Vset2_Aset3_2023-06-25_15h52.10.699.csv,3,38,0,1,z,0,1,1,aud,B,63,1,0B,1B,0,1,z,1.37136889999601,0,1,1,1,1B,0B,B01,3.27714473299218,0.690306114394079,0.446802577827649,0.5,0.446802577827649,0.5,0.728858239521235,0.5,0.5,0.5,0.5,0.723255947147627,0.5,0.5,0.5,0.446802577827649,0.748290383411354,0.728858239521235,0.271141760478765,0.728858239521235,0.5,0.935496267331599,0.996043200815343,0.271141760478765,0.0288480854014868,0.5,0.106394844344703,0.694212317411079,4.58098959084181,2.63447320963628,0.5,34.1846671266265
CBC_1015,CBC_1015_MSI_AV_v3_Vset2_Aset3_2023-06-25_15h52.10.699.csv,3,39,1,3,z,0,1,3,aud,D,27,1,1D,3D,0,1,z,1.29514090000157,0,1,1,1,3D,1D,D13,3.29583686600433,0.690306114394079,0.446802577827649,0.5,0.446802577827649,0.5,0.757706324922722,0.5,0.5,0.5,0.5,0.723255947147627,0.5,0.5,0.5,0.446802577827649,0.748290383411354,0.748290383411354,0.251709616588646,0.748290383411354,0.5,1.12581812815659,0.997498822015226,0.251709616588646,0.0267806054770138,0.5,0.106394844344703,0.694212317411079,4.58098959084181,2.63447320963628,0.5,34.1846671266265
CBC_1015,CBC_1015_MSI_AV_v3_Vset2_Aset3_2023-06-25_15h52.10.699.csv,3,40,3,2,z,0,1,0,aud,C,63,1,3C,2C,0,1,z,1.1238615000002,0,1,1,1,2C,3C,C32,2.62103882411258,0.690306114394079,0.446802577827649,0.5,0.446802577827649,0.5,0.757706324922722,0.5,0.5,0.5,0.5,0.723255947147627,0.5,0.5,0.5,0.446802577827649,0.775070988888367,0.723255947147627,0.276744052852373,0.723255947147627,0.5,1.49320938252243,0.995475235429434,0.276744052852373,0.0294441404265503,0.5,0.106394844344703,0.694212317411079,4.58098959084181,2.63447320963628,0.5,34.1846671266265
CBC_1015,CBC_1015_MSI_AV_v3_Vset2_Aset3_2023-06-25_15h52.10.699.csv,3,41,0,2,b,1,0,2,aud,A,27,1,0A,2A,1,0,b,1.02735769999708,1,0,1,1,0A,2A,A02,3.3322045101752,0.690306114394079,0.446802577827649,0.5,0.446802577827649,0.5,0.757706324922722,0.5,0.5,0.5,0.5,0.752700087574178,0.5,0.5,0.5,0.446802577827649,0.775070988888367,0.690306114394079,0.309693885605921,0.690306114394079,0.5,1.21035624410035,0.989960910744914,0.309693885605921,0.0329498327535481,0.5,0.106394844344703,0.694212317411079,4.58098959084181,2.63447320963628,0.5,34.1846671266265
CBC_1015,CBC_1015_MSI_AV_v3_Vset2_Aset3_2023-06-25_15h52.10.699.csv,3,42,2,3,z,0,1,3,aud,D,63,1,2D,3D,0,1,z,1.03121200000169,0,1,1,1,3D,2D,D23,2.94443897916644,0.723255947147627,0.446802577827649,0.5,0.446802577827649,0.5,0.757706324922722,0.5,0.5,0.5,0.5,0.752700087574178,0.5,0.5,0.5,0.446802577827649,0.775070988888367,0.810116583438561,0.189883416561439,0.775070988888367,0.446802577827649,2.21688982061784,0.999438987184522,0.224929011111633,0.02393128712583,0.5,0.106394844344703,0.694212317411079,4.58098959084181,2.63447320963628,0.5,34.1846671266265
CBC_1015,CBC_1015_MSI_AV_v3_Vset2_Aset3_2023-06-25_15h52.10.699.csv,3,43,1,3,b,1,0,1,aud,B,27,1,1B,3B,1,0,b,0.913490000002639,1,0,1,1,1B,3B,B13,3.36729582998647,0.723255947147627,0.446802577827649,0.5,0.446802577827649,0.5,0.757706324922722,0.5,0.5,0.5,0.5,0.752700087574178,0.5,0.5,0.5,0.446802577827649,0.799002276014197,0.757706324922722,0.242293675077278,0.757706324922722,0.5,1.19128940648694,0.998014083165279,0.242293675077278,0.025778797845553,0.5,0.106394844344703,0.694212317411079,4.58098959084181,2.63447320963628,0.5,34.1846671266265
CBC_1015,CBC_1015_MSI_AV_v3_Vset2_Aset3_2023-06-25_15h52.10.699.csv,3,44,3,2,z,0,1,0,aud,C,63,1,3C,2C,0,1,z,1.18031119999796,0,1,1,1,2C,3C,C32,2.46809953147162,0.723255947147627,0.446802577827649,0.5,0.446802577827649,0.5,0.783485122768275,0.5,0.5,0.5,0.5,0.752700087574178,0.5,0.5,0.5,0.446802577827649,0.799002276014197,0.752700087574178,0.247299912425822,0.752700087574178,0.5,1.49292988438069,0.99775996767485,0.247299912425822,0.026311435689004,0.5,0.106394844344703,0.694212317411079,4.58098959084181,2.63447320963628,0.5,34.1846671266265
CBC_1015,CBC_1015_MSI_TV_v3_Vset5_Tset2_2023-06-25_16h00.28.888.csv,4,1,3,1,z,0,1,1,tac,B,27,1,3B,1B,0,1,b,2.43882049999957,1,0,0,0,3B,1B,B31,2.77258872223978,0.5,0.5,0.5,0.5,0.5,0.5,0.5,0.5,0.5,0.5,0.5,0.5,0.5,0.5,0.5,0.5,0.5,0.5,0.5,0.5,0.16746440379267,0.500601574536422,-0.5,-0.328600575583625,0.5,0.65720115116725,1.04077659902305,0.25873638018137,2.6593924761347,0.5,82.3032025276562
CBC_1015,CBC_1015_MSI_TV_v3_Vset5_Tset2_2023-06-25_16h00.28.888.csv,4,2,2,3,b,1,0,0,tac,C,63,1,2C,3C,1,0,z,1.48763870000039,0,1,0,0,3C,2C,C23,2.83321334405622,0.5,0.5,0.5,0.5,0.5,0.5,0.5,0.171399424416375,0.5,0.5,0.5,0.5,0.5,0.5,0.5,0.5,0.5,0.5,0.5,0.5,0.246185953225685,0.501202562735246,-0.5,-0.328600575583625,0.5,0.65720115116725,1.04077659902305,0.25873638018137,2.6593924761347,0.5,82.3032025276562
CBC_1015,CBC_1015_MSI_TV_v3_Vset5_Tset2_2023-06-25_16h00.28.888.csv,4,3,2,3,z,0,1,3,tac,D,63,1,2D,3D,0,1,b,2.39299849999952,1,0,0,0,2D,3D,D23,2.89037175789616,0.5,0.5,0.5,0.5,0.5,0.5,0.5,0.171399424416375,0.5,0.5,0.5,0.171399424416375,0.5,0.5,0.5,0.5,0.5,0.5,0.5,0.5,0.173074632525454,0.501270909200805,-0.5,-0.328600575583625,0.5,0.65720115116725,1.04077659902305,0.25873638018137,2.6593924761347,0.5,82.3032025276562
CBC_1015,CBC_1015_MSI_TV_v3_Vset5_Tset2_2023-06-25_16h00.28.888.csv,4,4,1,0,b,1,0,1,tac,B,63,1,1B,0B,1,0,z,2.3995292000036,0,1,0,0,0B,1B,B10,2.94443897916644,0.5,0.5,0.5,0.5,0.5,0.5,0.5,0.171399424416375,0.5,0.5,0.5,0.171399424416375,0.5,0.5,0.171399424416375,0.5,0.5,0.5,0.5,0.5,0.171998639401286,0.500401710472385,-0.5,-0.328600575583625,0.5,0.65720115116725,1.04077659902305,0.25873638018137,2.6593924761347,0.5,82.3032025276562
CBC_1015,CBC_1015_MSI_TV_v3_Vset5_Tset2_2023-06-25_16h00.28.888.csv,4,5,3,0,z,0,1,2,tac,A,9,1,3A,0A,0,1,b,2.75897629999963,1,0,0,0,3A,0A,A30,2.99573227355399,0.5,0.5,0.5,0.5,0.171399424416375,0.5,0.5,0.171399424416375,0.5,0.5,0.5,0.171399424416375,0.5,0.5,0.171399424416375,0.5,0.5,0.5,0.5,0.5,0.134303826441495,0.50145585421207,-0.5,-0.328600575583625,0.5,0.65720115116725,1.04077659902305,0.25873638018137,2.6593924761347,0.5,82.3032025276562
CBC_1015,CBC_1015_MSI_TV_v3_Vset5_Tset2_2023-06-25_16h00.28.888.csv,4,6,2,3,z,0,1,3,tac,D,63,1,2D,3D,0,1,b,2.43948430000091,1,0,0,0,2D,3D,D23,2.35137525716348,0.5,0.5,0.5,0.171399424416375,0.171399424416375,0.5,0.5,0.171399424416375,0.5,0.5,0.5,0.171399424416375,0.5,0.5,0.171399424416375,0.5,0.171399424416375,0.828600575583625,0.171399424416375,0.5,0.131025842033777,0.389889600250639,-0.171399424416375,-0.112643899035846,0.5,0.65720115116725,1.04077659902305,0.25873638018137,2.6593924761347,0.5,82.3032025276562
CBC_1015,CBC_1015_MSI_TV_v3_Vset5_Tset2_2023-06-25_16h00.28.888.csv,4,7,2,0,b,1,0,0,tac,C,27,1,2C,0C,1,0,b,2.42886870000075,1,0,1,1,2C,0C,C20,3.09104245335832,0.5,0.5,0.5,0.171399424416375,0.171399424416375,0.5,0.5,0.171399424416375,0.5,0.5,0.5,0.171399424416375,0.5,0.5,0.0587555253805292,0.5,0.5,0.5,0.5,0.5,0.168527686099593,0.500329028082512,0.5,0.328600575583625,0.5,0.65720115116725,1.04077659902305,0.25873638018137,2.6593924761347,0.5,82.3032025276562
CBC_1015,CBC_1015_MSI_TV_v3_Vset5_Tset2_2023-06-25_16h00.28.888.csv,4,8,1,0,z,0,1,2,tac,A,63,1,1A,0A,0,1,z,2.66917680000188,0,1,1,1,0A,1A,A10,3.13549421592915,0.5,0.5,0.5,0.171399424416375,0.171399424416375,0.5,0.5,0.171399424416375,0.5,0.5,0.828600575583625,0.171399424416375,0.5,0.5,0.0587555253805292,0.5,0.5,0.5,0.5,0.5,0.142593949401562,0.500139620724683,0.5,0.328600575583625,0.5,0.65720115116725,1.04077659902305,0.25873638018137,2.6593924761347,0.5,82.3032025276562
CBC_1015,CBC_1015_MSI_TV_v3_Vset5_Tset2_2023-06-25_16h00.28.888.csv,4,9,0,1,z,0,1,1,tac,B,63,1,0B,1B,0,1,b,2.28324070000235,1,0,0,0,0B,1B,B01,3.17805383034795,0.828600575583625,0.5,0.5,0.171399424416375,0.171399424416375,0.5,0.5,0.171399424416375,0.5,0.5,0.828600575583625,0.171399424416375,0.5,0.5,0.0587555253805292,0.5,0.171399424416375,0.828600575583625,0.171399424416375,0.5,0.145961305926916,0.389237917718866,-0.171399424416375,-0.112643899035846,0.5,0.65720115116725,1.04077659902305,0.25873638018137,2.6593924761347,0.5,82.3032025276562
CBC_1015,CBC_1015_MSI_TV_v3_Vset5_Tset2_2023-06-25_16h00.28.888.csv,4,10,3,1,b,1,0,3,tac,D,27,1,3D,1D,1,0,b,3.30679750000127,1,0,1,1,3D,1D,D31,3.2188758248682,0.828600575583625,0.5,0.5,0.171399424416375,0.0587555253805292,0.5,0.5,0.171399424416375,0.5,0.5,0.828600575583625,0.171399424416375,0.5,0.5,0.0587555253805292,0.5,0.5,0.5,0.5,0.5,0.091181936355596,0.498857222760074,0.5,0.328600575583625,0.5,0.65720115116725,1.04077659902305,0.25873638018137,2.6593924761347,0.5,82.3032025276562
CBC_1015,CBC_1015_MSI_TV_v3_Vset5_Tset2_2023-06-25_16h00.28.888.csv,4,11,2,3,b,1,0,0,tac,C,63,1,2C,3C,1,0,b,1.77185180000379,1,0,1,1,2C,3C,C23,2.56494935746154,0.828600575583625,0.5,0.5,0.171399424416375,0.0587555253805292,0.5,0.5,0.171399424416375,0.5,0.5,0.828600575583625,0.171399424416375,0.5,0.5,0.0587555253805292,0.828600575583625,0.95896712237964,0.0410328776203599,0.828600575583625,0.171399424416375,0.340432191084833,0.653289100706377,0.171399424416375,0.112643899035846,0.5,0.65720115116725,1.04077659902305,0.25873638018137,2.6593924761347,0.5,82.3032025276562
CBC_1015,CBC_1015_MSI_TV_v3_Vset5_Tset2_2023-06-25_16h00.28.888.csv,4,12,0,1,z,0,1,1,tac,B,63,1,0B,1B,0,1,b,2.7398912000026,1,0,0,0,0B,1B,B01,2.60268968544438,0.828600575583625,0.5,0.5,0.171399424416375,0.0587555253805292,0.5,0.5,0.171399424416375,0.5,0.5,0.941244474619471,0.171399424416375,0.5,0.5,0.0587555253805292,0.828600575583625,0.0587555253805292,0.941244474619471,0.0587555253805292,0.5,0.095829853924222,0.352688307850947,-0.0587555253805292,-0.0386141989175204,0.5,0.65720115116725,1.04077659902305,0.25873638018137,2.6593924761347,0.5,82.3032025276562
CBC_1015,CBC_1015_MSI_TV_v3_Vset5_Tset2_2023-06-25_16h00.28.888.csv,4,13,1,0,z,0,1,2,tac,A,63,1,1A,0A,0,1,z,2.60757100000046,0,1,1,1,0A,1A,A10,2.63905732961526,0.828600575583625,0.5,0.5,0.171399424416375,0.0201413264630088,0.5,0.5,0.171399424416375,0.5,0.5,0.941244474619471,0.171399424416375,0.5,0.5,0.0587555253805292,0.828600575583625,0.828600575583625,0.171399424416375,0.828600575583625,0.5,0.182366985958645,0.611163794322474,0.171399424416375,0.112643899035846,0.5,0.65720115116725,1.04077659902305,0.25873638018137,2.6593924761347,0.5,82.3032025276562
CBC_1015,CBC_1015_MSI_TV_v3_Vset5_Tset2_2023-06-25_16h00.28.888.csv,4,14,2,1,b,1,0,0,tac,C,9,1,2C,1C,1,0,b,3.25271699999939,1,0,1,1,2C,1C,C21,3.36729582998647,0.941244474619471,0.5,0.5,0.171399424416375,0.0201413264630088,0.5,0.5,0.171399424416375,0.5,0.5,0.941244474619471,0.171399424416375,0.5,0.5,0.0587555253805292,0.828600575583625,0.941244474619471,0.0587555253805292,0.941244474619471,0.5,0.121561365900302,0.648480096252758,0.0587555253805292,0.0386141989175204,0.5,0.65720115116725,1.04077659902305,0.25873638018137,2.6593924761347,0.5,82.3032025276562
CBC_1015,CBC_1015_MSI_TV_v3_Vset5_Tset2_2023-06-25_16h00.28.888.csv,4,15,0,1,b,1,0,2,tac,A,63,1,0A,1A,1,0,b,3.64799470000071,1,0,1,1,0A,1A,A01,3.40119738166216,0.941244474619471,0.5,0.5,0.171399424416375,0.0201413264630088,0.5,0.5,0.171399424416375,0.5,0.5,0.979858673536991,0.171399424416375,0.5,0.5,0.0587555253805292,0.828600575583625,0.941244474619471,0.0587555253805292,0.941244474619471,0.5,0.091112936816277,0.646788074831048,0.0587555253805292,0.0386141989175204,0.5,0.65720115116725,1.04077659902305,0.25873638018137,2.6593924761347,0.5,82.3032025276562
CBC_1015,CBC_1015_MSI_TV_v3_Vset5_Tset2_2023-06-25_16h00.28.888.csv,4,16,1,3,z,0,1,3,tac,D,27,1,1D,3D,0,1,b,1.98583770000187,1,0,0,0,1D,3D,D13,3.43398720448515,0.979858673536991,0.5,0.5,0.171399424416375,0.0201413264630088,0.5,0.5,0.171399424416375,0.5,0.5,0.979858673536991,0.171399424416375,0.5,0.5,0.0587555253805292,0.828600575583625,0.171399424416375,0.828600575583625,0.5,0.828600575583625,0.178447767002665,0.389966469274501,-0.5,-0.328600575583625,0.5,0.65720115116725,1.04077659902305,0.25873638018137,2.6593924761347,0.5,82.3032025276562
CBC_1015,CBC_1015_MSI_TV_v3_Vset5_Tset2_2023-06-25_16h00.28.888.csv,4,17,1,0,b,1,0,1,tac,B,63,1,1B,0B,1,0,b,2.70182110000314,1,0,1,1,1B,0B,B10,2.77258872223978,0.979858673536991,0.5,0.5,0.171399424416375,0.0201413264630088,0.5,0.5,0.171399424416375,0.5,0.5,0.979858673536991,0.171399424416375,0.5,0.171399424416375,0.0587555253805292,0.828600575583625,0.979858673536991,0.0201413264630088,0.5,0.0201413264630088,0.184090402363169,0.65898689706433,0.5,0.328600575583625,0.5,0.65720115116725,1.04077659902305,0.25873638018137,2.6593924761347,0.5,82.3032025276562
CBC_1015,CBC_1015_MSI_TV_v3_Vset5_Tset2_2023-06-25_16h00.28.888.csv,4,18,3,2,z,0,1,0,tac,C,63,0,3C,2C,1,0,z,2.3114327000003,0,1,1,0,2C,3C,C32,3.49650756146648,0.979858673536991,0.5,0.5,0.171399424416375,0.0201413264630088,0.828600575583625,0.5,0.171399424416375,0.5,0.5,0.979858673536991,0.171399424416375,0.5,0.171399424416375,0.0587555253805292,0.828600575583625,0.995766046638381,0.00423395336161905,0.979858673536991,0.171399424416375,0.24644206717055,0.66461461632701,-0.979858673536991,-0.643964248229726,0.5,0.65720115116725,1.04077659902305,0.25873638018137,2.6593924761347,0.5,82.3032025276562
CBC_1015,CBC_1015_MSI_TV_v3_Vset5_Tset2_2023-06-25_16h00.28.888.csv,4,19,0,2,b,1,0,2,tac,A,27,1,0A,2A,1,0,b,3.12627550000252,1,0,1,1,0A,2A,A02,3.52636052461616,0.979858673536991,0.5,0.5,0.171399424416375,0.0201413264630088,0.828600575583625,0.5,0.171399424416375,0.5,0.5,0.335894425307266,0.171399424416375,0.5,0.171399424416375,0.0587555253805292,0.828600575583625,0.979858673536991,0.0201413264630088,0.979858673536991,0.5,0.135189027353562,0.659120051842677,0.0201413264630088,0.0132369029375248,0.5,0.65720115116725,1.04077659902305,0.25873638018137,2.6593924761347,0.5,82.3032025276562
CBC_1015,CBC_1015_MSI_TV_v3_Vset5_Tset2_2023-06-25_16h00.28.888.csv,4,20,2,3,z,0,1,3,tac,D,63,1,2D,3D,0,1,b,2.8379160000004,1,0,0,0,2D,3D,D23,2.4567357728213,0.993095576474516,0.5,0.5,0.171399424416375,0.0201413264630088,0.828600575583625,0.5,0.171399424416375,0.5,0.5,0.335894425307266,0.171399424416375,0.5,0.171399424416375,0.0587555253805292,0.828600575583625,0.0127478948105467,0.987252105189453,0.0587555253805292,0.828600575583625,0.08583033848375,0.3392385664529,-0.0587555253805292,-0.0386141989175204,0.5,0.65720115116725,1.04077659902305,0.25873638018137,2.6593924761347,0.5,82.3032025276562
CBC_1015,CBC_1015_MSI_TV_v3_Vset5_Tset2_2023-06-25_16h00.28.888.csv,4,21,1,3,b,1,0,1,tac,B,27,1,1B,3B,1,0,b,2.37343660000261,1,0,1,1,1B,3B,B13,3.58351893845611,0.993095576474516,0.5,0.5,0.171399424416375,0.0201413264630088,0.828600575583625,0.5,0.171399424416375,0.5,0.5,0.335894425307266,0.171399424416375,0.5,0.171399424416375,0.0201413264630088,0.828600575583625,0.95896712237964,0.0410328776203599,0.828600575583625,0.171399424416375,0.230711335698871,0.651842222940913,0.171399424416375,0.112643899035846,0.5,0.65720115116725,1.04077659902305,0.25873638018137,2.6593924761347,0.5,82.3032025276562
CBC_1015,CBC_1015_MSI_TV_v3_Vset5_Tset2_2023-06-25_16h00.28.888.csv,4,22,2,3,b,1,0,0,tac,C,63,1,2C,3C,1,0,z,3.58931819999998,0,1,0,0,3C,2C,C23,2.51230562397611,0.993095576474516,0.5,0.5,0.171399424416375,0.0201413264630088,0.941244474619471,0.5,0.171399424416375,0.5,0.5,0.335894425307266,0.171399424416375,0.5,0.171399424416375,0.0201413264630088,0.828600575583625,0.290265004225627,0.709734995774373,0.171399424416375,0.335894425307266,0.0640193791660587,0.428537416082971,-0.171399424416375,-0.112643899035846,0.5,0.65720115116725,1.04077659902305,0.25873638018137,2.6593924761347,0.5,82.3032025276562
CBC_1015,CBC_1015_MSI_TV_v3_Vset5_Tset2_2023-06-25_16h00.28.888.csv,4,23,1,0,z,0,1,2,tac,A,63,1,1A,0A,0,1,z,2.63261110000167,0,1,1,1,0A,1A,A10,2.53897387105828,0.993095576474516,0.5,0.5,0.171399424416375,0.0201413264630088,0.941244474619471,0.5,0.171399424416375,0.5,0.5,0.335894425307266,0.0587555253805292,0.5,0.171399424416375,0.0201413264630088,0.828600575583625,0.993095576474516,0.00690442352548404,0.993095576474516,0.5,0.195006834578958,0.663683000084903,0.00690442352548404,0.00453759508909436,0.5,0.65720115116725,1.04077659902305,0.25873638018137,2.6593924761347,0.5,82.3032025276562
CBC_1015,CBC_1015_MSI_TV_v3_Vset5_Tset2_2023-06-25_16h00.28.888.csv,4,24,1,2,b,1,0,1,tac,B,9,1,1B,2B,1,0,b,3.5651663000026,1,0,1,1,1B,2B,B12,3.66356164612965,0.99763317156361,0.5,0.5,0.171399424416375,0.0201413264630088,0.941244474619471,0.5,0.171399424416375,0.5,0.5,0.335894425307266,0.0587555253805292,0.5,0.171399424416375,0.0201413264630088,0.828600575583625,0.941244474619471,0.0587555253805292,0.941244474619471,0.5,0.0967938571284792,0.64722869370405,0.0587555253805292,0.0386141989175204,0.5,0.65720115116725,1.04077659902305,0.25873638018137,2.6593924761347,0.5,82.3032025276562
CBC_1015,CBC_1015_MSI_TV_v3_Vset5_Tset2_2023-06-25_16h00.28.888.csv,4,25,3,2,z,0,1,0,tac,C,63,1,3C,2C,0,1,z,2.32264399999985,0,1,1,1,2C,3C,C32,2.99573227355399,0.99763317156361,0.5,0.5,0.171399424416375,0.0201413264630088,0.979858673536991,0.5,0.171399424416375,0.5,0.5,0.335894425307266,0.0587555253805292,0.5,0.171399424416375,0.0201413264630088,0.828600575583625,0.890140151646003,0.109859848353997,0.335894425307266,0.0587555253805292,0.230886726836689,0.631142464033539,0.664105574692734,0.436450948184654,0.5,0.65720115116725,1.04077659902305,0.25873638018137,2.6593924761347,0.5,82.3032025276562
CBC_1015,CBC_1015_MSI_TV_v3_Vset5_Tset2_2023-06-25_16h00.28.888.csv,4,26,3,2,b,1,0,3,tac,D,63,1,3D,2D,1,0,b,2.65547820000211,1,0,1,1,3D,2D,D32,3.71357206670431,0.99763317156361,0.5,0.5,0.171399424416375,0.0201413264630088,0.979858673536991,0.5,0.171399424416375,0.5,0.5,0.772345373491919,0.0587555253805292,0.5,0.171399424416375,0.0201413264630088,0.828600575583625,0.995766046638381,0.00423395336161903,0.828600575583625,0.0201413264630088,0.192118361604191,0.664803835244261,0.171399424416375,0.112643899035846,0.5,0.65720115116725,1.04077659902305,0.25873638018137,2.6593924761347,0.5,82.3032025276562
CBC_1015,CBC_1015_MSI_TV_v3_Vset5_Tset2_2023-06-25_16h00.28.888.csv,4,27,1,0,b,1,0,1,tac,B,63,1,1B,0B,1,0,z,2.22857990000193,0,1,0,0,0B,1B,B10,2.63905732961526,0.99763317156361,0.5,0.5,0.171399424416375,0.0201413264630088,0.979858673536991,0.5,0.171399424416375,0.5,0.5,0.772345373491919,0.0587555253805292,0.5,0.171399424416375,0.0201413264630088,0.941244474619471,0.000422343480822485,0.999577656519178,0.0201413264630088,0.979858673536991,0.131394896889061,0.333911770392479,-0.0201413264630088,-0.0132369029375248,0.5,0.65720115116725,1.04077659902305,0.25873638018137,2.6593924761347,0.5,82.3032025276562
CBC_1015,CBC_1015_MSI_TV_v3_Vset5_Tset2_2023-06-25_16h00.28.888.csv,4,28,2,0,z,0,1,2,tac,A,27,1,2A,0A,NaN,NaN,None,NaN,NaN,NaN,NaN,NaN,,,A20,3.76120011569356,0.99763317156361,0.5,0.5,0.171399424416375,0.00690442352548401,0.979858673536991,0.5,0.171399424416375,0.5,0.5,0.772345373491919,0.0587555253805292,0.5,0.171399424416375,0.0201413264630088,0.941244474619471,0,0,0,0,NaN,0,0,0,0.5,0.65720115116725,1.04077659902305,0.25873638018137,2.6593924761347,0.5,82.3032025276562
CBC_1015,CBC_1015_MSI_TV_v3_Vset5_Tset2_2023-06-25_16h00.28.888.csv,4,29,3,1,b,1,0,3,tac,D,27,1,3D,1D,1,0,b,2.39075229999798,1,0,1,1,3D,1D,D31,3.09104245335832,0.99763317156361,0.5,0.5,0.171399424416375,0.00690442352548401,0.979858673536991,0.5,0.171399424416375,0.5,0.5,0.772345373491919,0.0587555253805292,0.5,0.171399424416375,0.0201413264630088,0.941244474619471,0.987252105189453,0.0127478948105467,0.941244474619471,0.171399424416375,0.231566274665507,0.661490116143145,0.0587555253805292,0.0386141989175204,0.5,0.65720115116725,1.04077659902305,0.25873638018137,2.6593924761347,0.5,82.3032025276562
CBC_1015,CBC_1015_MSI_TV_v3_Vset5_Tset2_2023-06-25_16h00.28.888.csv,4,30,0,1,b,1,0,2,tac,A,63,1,0A,1A,1,0,b,3.806262099999,1,0,1,1,0A,1A,A01,3.11351530921037,0.99763317156361,0.5,0.5,0.171399424416375,0.00690442352548401,0.979858673536991,0.5,0.171399424416375,0.5,0.5,0.772345373491919,0.0587555253805292,0.5,0.171399424416375,0.0201413264630088,0.979858673536991,0.99763317156361,0.00236682843638969,0.99763317156361,0.5,0.0828656178899187,0.664672147405071,0.00236682843638969,0.00155548237301069,0.5,0.65720115116725,1.04077659902305,0.25873638018137,2.6593924761347,0.5,82.3032025276562
CBC_1015,CBC_1015_MSI_TV_v3_Vset5_Tset2_2023-06-25_16h00.28.888.csv,4,31,0,2,z,0,1,0,tac,C,27,1,0C,2C,0,1,b,2.38648430000103,1,0,0,0,0C,2C,C02,3.8286413964891,0.999188653936621,0.5,0.5,0.171399424416375,0.00690442352548401,0.979858673536991,0.5,0.171399424416375,0.5,0.5,0.772345373491919,0.0587555253805292,0.5,0.171399424416375,0.0201413264630088,0.979858673536991,0.227654626508081,0.772345373491919,0.5,0.772345373491919,0.142240171066124,0.408486455913187,-0.5,-0.328600575583625,0.5,0.65720115116725,1.04077659902305,0.25873638018137,2.6593924761347,0.5,82.3032025276562
CBC_1015,CBC_1015_MSI_TV_v3_Vset5_Tset2_2023-06-25_16h00.28.888.csv,4,32,3,2,b,1,0,3,tac,D,63,1,3D,2D,1,0,b,5.06498989999818,1,0,1,1,3D,2D,D32,3.15700042115011,0.999188653936621,0.5,0.5,0.171399424416375,0.00690442352548401,0.979858673536991,0.5,0.171399424416375,0.171399424416375,0.5,0.772345373491919,0.0587555253805292,0.5,0.171399424416375,0.0201413264630088,0.979858673536991,0.999577656519178,0.000422343480822485,0.979858673536991,0.0201413264630088,0.0330234022836865,0.664551074562264,0.0201413264630088,0.0132369029375248,0.5,0.65720115116725,1.04077659902305,0.25873638018137,2.6593924761347,0.5,82.3032025276562
CBC_1015,CBC_1015_MSI_TV_v3_Vset5_Tset2_2023-06-25_16h00.28.888.csv,4,33,0,1,z,0,1,1,tac,B,63,1,0B,1B,0,1,b,1.75207060000321,1,0,0,0,0B,1B,B01,2.77258872223978,0.999188653936621,0.5,0.5,0.171399424416375,0.00690442352548401,0.979858673536991,0.5,0.171399424416375,0.171399424416375,0.5,0.772345373491919,0.0587555253805292,0.5,0.171399424416375,0.0201413264630088,0.993095576474516,0.000142889048223855,0.999857110951776,0.00690442352548401,0.979858673536991,0.176960217202955,0.335249555009362,-0.00690442352548401,-0.00453759508909434,0.5,0.65720115116725,1.04077659902305,0.25873638018137,2.6593924761347,0.5,82.3032025276562
CBC_1015,CBC_1015_MSI_TV_v3_Vset5_Tset2_2023-06-25_16h00.28.888.csv,4,34,1,0,z,0,1,2,tac,A,63,1,1A,0A,0,1,z,3.07736740000109,0,1,1,1,0A,1A,A10,2.50552593699074,0.999188653936621,0.5,0.5,0.171399424416375,0.00236682843638967,0.979858673536991,0.5,0.171399424416375,0.171399424416375,0.5,0.772345373491919,0.0587555253805292,0.5,0.171399424416375,0.0201413264630088,0.993095576474516,0.999188653936621,0.000811346063378959,0.999188653936621,0.5,0.141212255504243,0.664939699892498,0.000811346063378959,0.000533217566847669,0.5,0.65720115116725,1.04077659902305,0.25873638018137,2.6593924761347,0.5,82.3032025276562
CBC_1015,CBC_1015_MSI_TV_v3_Vset5_Tset2_2023-06-25_16h00.28.888.csv,4,35,3,2,b,1,0,3,tac,D,63,0,3D,2D,0,1,b,1.72018090000347,1,0,1,0,3D,2D,D32,2.81341071676004,0.999721871503469,0.5,0.5,0.171399424416375,0.00236682843638967,0.979858673536991,0.5,0.171399424416375,0.171399424416375,0.5,0.772345373491919,0.0587555253805292,0.5,0.171399424416375,0.0201413264630088,0.993095576474516,0.999857110951776,0.000142889048223793,0.993095576474516,0.0201413264630088,0.355500004183247,0.665513395982993,-0.993095576474516,-0.652663556078156,0.5,0.65720115116725,1.04077659902305,0.25873638018137,2.6593924761347,0.5,82.3032025276562
CBC_1015,CBC_1015_MSI_TV_v3_Vset5_Tset2_2023-06-25_16h00.28.888.csv,4,36,0,2,z,0,1,0,tac,C,27,1,0C,2C,0,1,z,2.8514224999999,0,1,1,1,2C,0C,C02,3.23867845216438,0.999721871503469,0.5,0.5,0.171399424416375,0.00236682843638967,0.979858673536991,0.5,0.171399424416375,0.171399424416375,0.5,0.772345373491919,0.0587555253805292,0.5,0.171399424416375,0.0201413264630088,0.34043202039636,0.94253211466312,0.0574678853368801,0.772345373491919,0.171399424416375,0.162367010077607,0.647752845405899,0.227654626508081,0.149614882609661,0.5,0.65720115116725,1.04077659902305,0.25873638018137,2.6593924761347,0.5,82.3032025276562
CBC_1015,CBC_1015_MSI_TV_v3_Vset5_Tset2_2023-06-25_16h00.28.888.csv,4,37,1,0,z,0,1,2,tac,A,63,1,1A,0A,0,1,b,2.55290980000063,1,0,0,0,1A,0A,A10,2.34180580614733,0.999721871503469,0.5,0.5,0.171399424416375,0.00236682843638967,0.979858673536991,0.5,0.171399424416375,0.171399424416375,0.5,0.92196025610158,0.0587555253805292,0.5,0.171399424416375,0.0201413264630088,0.34043202039636,0.000278128496531305,0.999721871503469,0.5,0.999721871503469,0.103911736588524,0.333655464519149,-0.5,-0.328600575583625,0.5,0.65720115116725,1.04077659902305,0.25873638018137,2.6593924761347,0.5,82.3032025276562
CBC_1015,CBC_1015_MSI_TV_v3_Vset5_Tset2_2023-06-25_16h00.28.888.csv,4,38,3,1,z,0,1,1,tac,B,27,1,3B,1B,0,1,b,2.69317840000076,1,0,0,0,3B,1B,B31,3.27714473299218,0.999721871503469,0.171399424416375,0.5,0.171399424416375,0.00236682843638967,0.979858673536991,0.5,0.171399424416375,0.171399424416375,0.5,0.92196025610158,0.0587555253805292,0.5,0.171399424416375,0.0201413264630088,0.34043202039636,0.00423395336161905,0.995766046638381,0.171399424416375,0.979858673536991,0.0944936593850038,0.336103399056986,-0.171399424416375,-0.112643899035846,0.5,0.65720115116725,1.04077659902305,0.25873638018137,2.6593924761347,0.5,82.3032025276562
CBC_1015,CBC_1015_MSI_TV_v3_Vset5_Tset2_2023-06-25_16h00.28.888.csv,4,39,2,3,b,1,0,0,tac,C,63,1,2C,3C,1,0,b,1.19651920000251,1,0,1,1,2C,3C,C23,2.60268968544438,0.999721871503469,0.171399424416375,0.5,0.171399424416375,0.00236682843638967,0.979858673536991,0.5,0.0587555253805292,0.171399424416375,0.5,0.92196025610158,0.0587555253805292,0.5,0.171399424416375,0.0201413264630088,0.34043202039636,0.994743929192353,0.00525607080764745,0.92196025610158,0.0587555253805292,0.0414269117666135,0.664776384566855,0.0780397438984197,0.0512878095268388,0.5,0.65720115116725,1.04077659902305,0.25873638018137,2.6593924761347,0.5,82.3032025276562
CBC_1015,CBC_1015_MSI_TV_v3_Vset5_Tset2_2023-06-25_16h00.28.888.csv,4,40,2,3,z,0,1,3,tac,D,63,1,2D,3D,0,1,z,2.63724820000061,0,1,1,1,3D,2D,D23,2.62103882411258,0.999721871503469,0.171399424416375,0.5,0.171399424416375,0.00236682843638967,0.979858673536991,0.5,0.0587555253805292,0.171399424416375,0.5,0.973248065628419,0.0587555253805292,0.5,0.171399424416375,0.0201413264630088,0.34043202039636,0.961700455355212,0.0382995446447879,0.34043202039636,0.0201413264630088,0.191312263841234,0.65361182512019,0.65956797960364,0.43346883546857,0.5,0.65720115116725,1.04077659902305,0.25873638018137,2.6593924761347,0.5,82.3032025276562
CBC_1015,CBC_1015_MSI_TV_v3_Vset5_Tset2_2023-06-25_16h00.28.888.csv,4,41,1,0,b,1,0,1,tac,B,63,1,1B,0B,1,0,b,3.2222757999989,1,0,1,1,1B,0B,B10,2.63905732961526,0.999721871503469,0.171399424416375,0.5,0.171399424416375,0.00236682843638967,0.979858673536991,0.5,0.0587555253805292,0.171399424416375,0.5,0.973248065628419,0.0587555253805292,0.5,0.171399424416375,0.0201413264630088,0.77390085586493,0.999951235997319,4.87640026812786e-05,0.979858673536991,0.00236682843638967,0.127119009894673,0.665530000172797,0.0201413264630088,0.0132369029375248,0.5,0.65720115116725,1.04077659902305,0.25873638018137,2.6593924761347,0.5,82.3032025276562
CBC_1015,CBC_1015_MSI_TV_v3_Vset5_Tset2_2023-06-25_16h00.28.888.csv,4,42,0,2,b,1,0,2,tac,A,27,1,0A,2A,1,0,z,3.87274719999914,0,1,0,0,2A,0A,A02,3.3499040872746,0.999721871503469,0.171399424416375,0.5,0.171399424416375,0.00236682843638967,0.993095576474516,0.5,0.0587555253805292,0.171399424416375,0.5,0.973248065628419,0.0587555253805292,0.5,0.171399424416375,0.0201413264630088,0.77390085586493,0.000278128496531305,0.999721871503469,0.5,0.999721871503469,0.0398461265338391,0.335495150642534,-0.5,-0.328600575583625,0.5,0.65720115116725,1.04077659902305,0.25873638018137,2.6593924761347,0.5,82.3032025276562
CBC_1015,CBC_1015_MSI_TV_v3_Vset5_Tset2_2023-06-25_16h00.28.888.csv,4,43,0,3,z,0,1,3,tac,D,9,1,0D,3D,0,1,z,2.30880560000151,0,1,1,1,3D,0D,D03,4.06044301054642,0.999721871503469,0.171399424416375,0.171399424416375,0.171399424416375,0.00236682843638967,0.993095576474516,0.5,0.0587555253805292,0.171399424416375,0.5,0.973248065628419,0.0587555253805292,0.5,0.171399424416375,0.0201413264630088,0.77390085586493,0.77390085586493,0.22609914413507,0.77390085586493,0.5,0.217905646108723,0.592772301484158,0.22609914413507,0.148592617803498,0.5,0.65720115116725,1.04077659902305,0.25873638018137,2.6593924761347,0.5,82.3032025276562
CBC_1015,CBC_1015_MSI_TV_v3_Vset5_Tset2_2023-06-25_16h00.28.888.csv,4,44,2,3,b,1,0,0,tac,C,63,1,2C,3C,1,0,z,2.97398659999817,0,1,0,0,3C,2C,C23,2.46809953147162,0.999721871503469,0.171399424416375,0.171399424416375,0.171399424416375,0.00236682843638967,0.993095576474516,0.5,0.0587555253805292,0.171399424416375,0.5,0.973248065628419,0.0587555253805292,0.5,0.171399424416375,0.0201413264630088,0.922493473668428,0.00171290537493884,0.998287094625061,0.0587555253805292,0.973248065628419,0.0766540577906138,0.334698525046003,-0.0587555253805292,-0.0386141989175204,0.5,0.65720115116725,1.04077659902305,0.25873638018137,2.6593924761347,0.5,82.3032025276562
