ID,filename,session,trial,visStimLeft,visStimRight,correctKey,leftCorrect,rightCorrect,secondStim,mod2Type,mod2Stim,frequency,rewardAccurate,stimPairLeft,stimPairRight,pCorrectLeft,pCorrectRight,key,reactionTime,choiceLeft,choiceRight,choiceAccurate,reward,chosenPair,otherPair,triplet,surprise,0A belief,1A belief,2A belief,3A belief,0B belief,1B belief,2B belief,3B belief,0C belief,1C belief,2C belief,3C belief,0D belief,1D belief,2D belief,3D belief,beliefPairNorm,beliefOtherPairNorm,beliefPair,beliefOtherPair,lik,corrLik,rewardPE,update2,fitCBCsimpleRW_CBCdriftDiffusionLR_startBelief,fitCBCsimpleRW_CBCdriftDiffusionLR_alpha1,fitCBCsimpleRW_CBCdriftDiffusionLR_nonDecisionTime,fitCBCsimpleRW_CBCdriftDiffusionLR_weight,fitCBCsimpleRW_CBCdriftDiffusionLR_startingBoundary,fitCBCsimpleRW_CBCdriftDiffusionLR_startingPoint,fit_CBCsimpleRW_CBCdriftDiffusionLR_NLL
CBC_1015,CBC_1015_MSI_AV_v3_Vset1_Aset2_2023-06-25_14h04.10.751.csv,1,1,0,1,z,0,1,1,aud,B,63,1,0B,1B,0,1,b,2.52432620000218,1,0,0,0,0B,1B,B01,2.77258872223978,0.5,0.5,0.5,0.5,0.5,0.5,0.5,0.5,0.5,0.5,0.5,0.5,0.5,0.5,0.5,0.5,0.5,0.5,0.5,0.5,0.11734522885032,0.49886317642486,-0.5,-0.0735296847870436,0.5,0.147059369574087,0.657079438121265,7.89372595684213,2.56312509122275,0.5,32.891896461325
CBC_1015,CBC_1015_MSI_AV_v3_Vset1_Aset2_2023-06-25_14h04.10.751.csv,1,2,1,0,z,0,1,2,aud,A,63,1,1A,0A,0,1,z,1.46392700000069,0,1,1,1,0A,1A,A10,2.83321334405622,0.5,0.5,0.5,0.5,0.426470315212956,0.5,0.5,0.5,0.5,0.5,0.5,0.5,0.5,0.5,0.5,0.5,0.5,0.5,0.5,0.5,0.255361462919664,0.501258566075451,0.5,0.0735296847870436,0.5,0.147059369574087,0.657079438121265,7.89372595684213,2.56312509122275,0.5,32.891896461325
CBC_1015,CBC_1015_MSI_AV_v3_Vset1_Aset2_2023-06-25_14h04.10.751.csv,1,3,2,1,b,1,0,0,aud,C,9,1,2C,1C,1,0,z,2.73696070000187,0,1,0,0,1C,2C,C21,2.89037175789616,0.573529684787044,0.5,0.5,0.5,0.426470315212956,0.5,0.5,0.5,0.5,0.5,0.5,0.5,0.5,0.5,0.5,0.5,0.5,0.5,0.5,0.5,0.100175317966093,0.499609031045977,-0.5,-0.0735296847870436,0.5,0.147059369574087,0.657079438121265,7.89372595684213,2.56312509122275,0.5,32.891896461325
CBC_1015,CBC_1015_MSI_AV_v3_Vset1_Aset2_2023-06-25_14h04.10.751.csv,1,4,0,1,b,1,0,2,aud,A,63,1,0A,1A,1,0,b,2.26682199999959,1,0,1,1,0A,1A,A01,2.94443897916644,0.573529684787044,0.5,0.5,0.5,0.426470315212956,0.5,0.5,0.5,0.5,0.426470315212956,0.5,0.5,0.5,0.5,0.5,0.5,0.534246693793861,0.465753306206139,0.573529684787044,0.5,0.225522042989865,0.800046095919985,0.426470315212956,0.0627164556972796,0.5,0.147059369574087,0.657079438121265,7.89372595684213,2.56312509122275,0.5,32.891896461325
CBC_1015,CBC_1015_MSI_AV_v3_Vset1_Aset2_2023-06-25_14h04.10.751.csv,1,5,1,3,z,0,1,3,aud,D,27,1,1D,3D,NaN,NaN,[],NaN,NaN,NaN,NaN,NaN,,,D13,2.99573227355399,0.636246140484323,0.5,0.5,0.5,0.426470315212956,0.5,0.5,0.5,0.5,0.426470315212956,0.5,0.5,0.5,0.5,0.5,0.5,0,0,0,0,NaN,0,0,0,0.5,0.147059369574087,0.657079438121265,7.89372595684213,2.56312509122275,0.5,32.891896461325
CBC_1015,CBC_1015_MSI_AV_v3_Vset1_Aset2_2023-06-25_14h04.10.751.csv,1,6,1,0,b,1,0,1,aud,B,63,1,1B,0B,1,0,b,1.68916580000223,1,0,1,1,1B,0B,B10,3.04452243772342,0.636246140484323,0.5,0.5,0.5,0.426470315212956,0.5,0.5,0.5,0.5,0.426470315212956,0.5,0.5,0.5,0.5,0.5,0.5,0.539682698722054,0.460317301277946,0.5,0.426470315212956,0.399264541772187,0.83316144703124,0.5,0.0735296847870436,0.5,0.147059369574087,0.657079438121265,7.89372595684213,2.56312509122275,0.5,32.891896461325
CBC_1015,CBC_1015_MSI_AV_v3_Vset1_Aset2_2023-06-25_14h04.10.751.csv,1,7,3,2,z,0,1,0,aud,C,63,1,3C,2C,0,1,z,1.40234740000233,0,1,1,1,2C,3C,C32,3.09104245335832,0.636246140484323,0.5,0.5,0.5,0.426470315212956,0.573529684787044,0.5,0.5,0.5,0.426470315212956,0.5,0.5,0.5,0.5,0.5,0.5,0.5,0.5,0.5,0.5,0.263582630703907,0.499393024385574,0.5,0.0735296847870436,0.5,0.147059369574087,0.657079438121265,7.89372595684213,2.56312509122275,0.5,32.891896461325
CBC_1015,CBC_1015_MSI_AV_v3_Vset1_Aset2_2023-06-25_14h04.10.751.csv,1,8,0,2,b,1,0,2,aud,A,27,1,0A,2A,1,0,b,1.66318180000053,1,0,1,1,0A,2A,A02,3.13549421592915,0.636246140484323,0.5,0.5,0.5,0.426470315212956,0.573529684787044,0.5,0.5,0.5,0.426470315212956,0.573529684787044,0.5,0.5,0.5,0.5,0.5,0.559954500891087,0.440045499108913,0.636246140484323,0.5,0.477975537198964,0.918824501103664,0.363753859515677,0.0534934132605165,0.5,0.147059369574087,0.657079438121265,7.89372595684213,2.56312509122275,0.5,32.891896461325
CBC_1015,CBC_1015_MSI_AV_v3_Vset1_Aset2_2023-06-25_14h04.10.751.csv,1,9,2,3,z,0,1,3,aud,D,63,1,2D,3D,0,1,z,1.02831110000079,0,1,1,1,3D,2D,D23,3.17805383034795,0.68973955374484,0.5,0.5,0.5,0.426470315212956,0.573529684787044,0.5,0.5,0.5,0.426470315212956,0.573529684787044,0.5,0.5,0.5,0.5,0.5,0.5,0.5,0.5,0.5,0.247605264297486,0.500322429833637,0.5,0.0735296847870436,0.5,0.147059369574087,0.657079438121265,7.89372595684213,2.56312509122275,0.5,32.891896461325
CBC_1015,CBC_1015_MSI_AV_v3_Vset1_Aset2_2023-06-25_14h04.10.751.csv,1,10,1,3,b,1,0,1,aud,B,27,1,1B,3B,1,0,b,1.57242120000046,1,0,1,1,1B,3B,B13,3.2188758248682,0.68973955374484,0.5,0.5,0.5,0.426470315212956,0.573529684787044,0.5,0.5,0.5,0.426470315212956,0.573529684787044,0.5,0.5,0.5,0.5,0.573529684787044,0.534246693793861,0.465753306206139,0.573529684787044,0.5,0.415367221597183,0.799875742134219,0.426470315212956,0.0627164556972796,0.5,0.147059369574087,0.657079438121265,7.89372595684213,2.56312509122275,0.5,32.891896461325
CBC_1015,CBC_1015_MSI_AV_v3_Vset1_Aset2_2023-06-25_14h04.10.751.csv,1,11,2,3,b,1,0,0,aud,C,63,1,2C,3C,1,0,b,1.45707760000187,1,0,1,1,2C,3C,C23,3.25809653802148,0.68973955374484,0.5,0.5,0.5,0.426470315212956,0.636246140484323,0.5,0.5,0.5,0.426470315212956,0.573529684787044,0.5,0.5,0.5,0.5,0.573529684787044,0.534246693793861,0.465753306206139,0.573529684787044,0.5,0.455438298106147,0.800399823830952,0.426470315212956,0.0627164556972796,0.5,0.147059369574087,0.657079438121265,7.89372595684213,2.56312509122275,0.5,32.891896461325
CBC_1015,CBC_1015_MSI_AV_v3_Vset1_Aset2_2023-06-25_14h04.10.751.csv,1,12,3,1,z,0,1,1,aud,B,27,1,3B,1B,0,1,b,1.69139600000017,1,0,0,0,3B,1B,B31,3.29583686600433,0.68973955374484,0.5,0.5,0.5,0.426470315212956,0.636246140484323,0.5,0.5,0.5,0.426470315212956,0.636246140484323,0.5,0.5,0.5,0.5,0.573529684787044,0.440045499108913,0.559954500891087,0.5,0.636246140484323,0.0408689918433744,0.0811767797377379,-0.5,-0.0735296847870436,0.5,0.147059369574087,0.657079438121265,7.89372595684213,2.56312509122275,0.5,32.891896461325
CBC_1015,CBC_1015_MSI_AV_v3_Vset1_Aset2_2023-06-25_14h04.10.751.csv,1,13,2,3,b,1,0,0,aud,C,63,1,2C,3C,1,0,b,1.49689020000005,1,0,1,1,2C,3C,C23,2.63905732961526,0.68973955374484,0.5,0.5,0.5,0.426470315212956,0.636246140484323,0.5,0.426470315212956,0.5,0.426470315212956,0.636246140484323,0.5,0.5,0.5,0.5,0.573529684787044,0.559954500891087,0.440045499108913,0.636246140484323,0.5,0.57662848326595,0.919045700886672,0.363753859515677,0.0534934132605165,0.5,0.147059369574087,0.657079438121265,7.89372595684213,2.56312509122275,0.5,32.891896461325
CBC_1015,CBC_1015_MSI_AV_v3_Vset1_Aset2_2023-06-25_14h04.10.751.csv,1,14,2,3,z,0,1,3,aud,D,63,1,2D,3D,0,1,z,1.26140289999967,0,1,1,1,3D,2D,D23,2.67414864942653,0.68973955374484,0.5,0.5,0.5,0.426470315212956,0.636246140484323,0.5,0.426470315212956,0.5,0.426470315212956,0.68973955374484,0.5,0.5,0.5,0.5,0.573529684787044,0.534246693793861,0.465753306206139,0.573529684787044,0.5,0.51217124785372,0.800202749538769,0.426470315212956,0.0627164556972796,0.5,0.147059369574087,0.657079438121265,7.89372595684213,2.56312509122275,0.5,32.891896461325
CBC_1015,CBC_1015_MSI_AV_v3_Vset1_Aset2_2023-06-25_14h04.10.751.csv,1,15,3,0,z,0,1,2,aud,A,9,1,3A,0A,0,1,z,1.63343460000033,0,1,1,1,0A,3A,A30,3.40119738166216,0.68973955374484,0.5,0.5,0.5,0.426470315212956,0.636246140484323,0.5,0.426470315212956,0.5,0.426470315212956,0.68973955374484,0.5,0.5,0.5,0.5,0.636246140484323,0.579739953651038,0.420260046348962,0.68973955374484,0.5,0.527325177169692,0.961880885134113,0.31026044625516,0.0456267056300588,0.5,0.147059369574087,0.657079438121265,7.89372595684213,2.56312509122275,0.5,32.891896461325
CBC_1015,CBC_1015_MSI_AV_v3_Vset1_Aset2_2023-06-25_14h04.10.751.csv,1,16,1,0,b,1,0,1,aud,B,63,0,1B,0B,0,1,b,1.49506970000039,1,0,1,0,1B,0B,B10,2.7408400239252,0.735366259374899,0.5,0.5,0.5,0.426470315212956,0.636246140484323,0.5,0.426470315212956,0.5,0.426470315212956,0.68973955374484,0.5,0.5,0.5,0.5,0.636246140484323,0.598697928382847,0.401302071617153,0.636246140484323,0.426470315212956,0.665483115086524,0.981857957855819,-0.636246140484323,-0.0935659563135707,0.5,0.147059369574087,0.657079438121265,7.89372595684213,2.56312509122275,0.5,32.891896461325
CBC_1015,CBC_1015_MSI_AV_v3_Vset1_Aset2_2023-06-25_14h04.10.751.csv,1,17,3,2,b,1,0,3,aud,D,63,1,3D,2D,1,0,b,1.79137439999977,1,0,1,1,3D,2D,D32,3.46573590279973,0.735366259374899,0.5,0.5,0.5,0.426470315212956,0.542680184170752,0.5,0.426470315212956,0.5,0.426470315212956,0.68973955374484,0.5,0.5,0.5,0.5,0.636246140484323,0.559954500891087,0.440045499108913,0.636246140484323,0.5,0.411386983324156,0.91871127022715,0.363753859515677,0.0534934132605165,0.5,0.147059369574087,0.657079438121265,7.89372595684213,2.56312509122275,0.5,32.891896461325
CBC_1015,CBC_1015_MSI_AV_v3_Vset1_Aset2_2023-06-25_14h04.10.751.csv,1,18,2,0,b,1,0,0,aud,C,27,1,2C,0C,1,0,b,1.73051099999975,1,0,1,1,2C,0C,C20,3.49650756146648,0.735366259374899,0.5,0.5,0.5,0.426470315212956,0.542680184170752,0.5,0.426470315212956,0.5,0.426470315212956,0.68973955374484,0.5,0.5,0.5,0.5,0.68973955374484,0.579739953651038,0.420260046348962,0.68973955374484,0.5,0.455615109696666,0.961925751331861,0.31026044625516,0.0456267056300588,0.5,0.147059369574087,0.657079438121265,7.89372595684213,2.56312509122275,0.5,32.891896461325
CBC_1015,CBC_1015_MSI_AV_v3_Vset1_Aset2_2023-06-25_14h04.10.751.csv,1,19,1,0,z,0,1,2,aud,A,63,1,1A,0A,0,1,z,1.61363990000063,0,1,1,1,0A,1A,A10,2.83321334405622,0.735366259374899,0.5,0.5,0.5,0.426470315212956,0.542680184170752,0.5,0.426470315212956,0.5,0.426470315212956,0.735366259374899,0.5,0.5,0.5,0.5,0.68973955374484,0.595261732133592,0.404738267866408,0.735366259374899,0.5,0.537933719273711,0.979180938790952,0.264633740625101,0.0389168710643599,0.5,0.147059369574087,0.657079438121265,7.89372595684213,2.56312509122275,0.5,32.891896461325
CBC_1015,CBC_1015_MSI_AV_v3_Vset1_Aset2_2023-06-25_14h04.10.751.csv,1,20,0,1,z,0,1,1,aud,B,63,1,0B,1B,0,1,z,1.7023678000005,0,1,1,1,1B,0B,B01,2.86220088092947,0.774283130439258,0.5,0.5,0.5,0.426470315212956,0.542680184170752,0.5,0.426470315212956,0.5,0.426470315212956,0.735366259374899,0.5,0.5,0.5,0.5,0.68973955374484,0.559954500891087,0.440045499108913,0.542680184170752,0.426470315212956,0.456809522992525,0.918956634347168,0.457319815829248,0.0672531638095868,0.5,0.147059369574087,0.657079438121265,7.89372595684213,2.56312509122275,0.5,32.891896461325
CBC_1015,CBC_1015_MSI_AV_v3_Vset1_Aset2_2023-06-25_14h04.10.751.csv,1,21,3,1,b,1,0,3,aud,D,27,1,3D,1D,1,0,b,0.98094250000031,1,0,1,1,3D,1D,D31,3.58351893845611,0.774283130439258,0.5,0.5,0.5,0.426470315212956,0.609933347980339,0.5,0.426470315212956,0.5,0.426470315212956,0.735366259374899,0.5,0.5,0.5,0.5,0.68973955374484,0.579739953651038,0.420260046348962,0.68973955374484,0.5,0.853977086273445,0.961910728215577,0.31026044625516,0.0456267056300588,0.5,0.147059369574087,0.657079438121265,7.89372595684213,2.56312509122275,0.5,32.891896461325
CBC_1015,CBC_1015_MSI_AV_v3_Vset1_Aset2_2023-06-25_14h04.10.751.csv,1,22,2,3,b,1,0,0,aud,C,63,1,2C,3C,1,0,b,1.55602700000054,1,0,1,1,2C,3C,C23,2.51230562397611,0.774283130439258,0.5,0.5,0.5,0.426470315212956,0.609933347980339,0.5,0.426470315212956,0.5,0.426470315212956,0.735366259374899,0.5,0.5,0.5,0.5,0.735366259374899,0.595261732133592,0.404738267866408,0.735366259374899,0.5,0.597038270495836,0.9792183056273,0.264633740625101,0.0389168710643599,0.5,0.147059369574087,0.657079438121265,7.89372595684213,2.56312509122275,0.5,32.891896461325
CBC_1015,CBC_1015_MSI_AV_v3_Vset1_Aset2_2023-06-25_14h04.10.751.csv,1,23,1,0,z,0,1,2,aud,A,63,1,1A,0A,0,1,z,1.0041895000013,0,1,1,1,0A,1A,A10,2.53897387105828,0.774283130439258,0.5,0.5,0.5,0.426470315212956,0.609933347980339,0.5,0.426470315212956,0.5,0.426470315212956,0.774283130439258,0.5,0.5,0.5,0.5,0.735366259374899,0.607622522768825,0.392377477231175,0.774283130439258,0.5,1.25338884490243,0.987269529444497,0.225716869560742,0.0331937805398391,0.5,0.147059369574087,0.657079438121265,7.89372595684213,2.56312509122275,0.5,32.891896461325
CBC_1015,CBC_1015_MSI_AV_v3_Vset1_Aset2_2023-06-25_14h04.10.751.csv,1,24,3,2,b,1,0,3,aud,D,63,1,3D,2D,1,0,b,0.91560009999921,1,0,1,1,3D,2D,D32,2.9704144655697,0.807476910979098,0.5,0.5,0.5,0.426470315212956,0.609933347980339,0.5,0.426470315212956,0.5,0.426470315212956,0.774283130439258,0.5,0.5,0.5,0.5,0.735366259374899,0.595261732133592,0.404738267866408,0.735366259374899,0.5,0.834289333014605,0.979378958368665,0.264633740625101,0.0389168710643599,0.5,0.147059369574087,0.657079438121265,7.89372595684213,2.56312509122275,0.5,32.891896461325
CBC_1015,CBC_1015_MSI_AV_v3_Vset1_Aset2_2023-06-25_14h04.10.751.csv,1,25,0,2,z,0,1,0,aud,C,27,1,0C,2C,0,1,z,1.39365480000015,0,1,1,1,2C,0C,C02,3.68887945411394,0.807476910979098,0.5,0.5,0.5,0.426470315212956,0.609933347980339,0.5,0.426470315212956,0.5,0.426470315212956,0.774283130439258,0.5,0.5,0.5,0.5,0.774283130439258,0.607622522768825,0.392377477231175,0.774283130439258,0.5,0.807941472422117,0.987311503662604,0.225716869560742,0.0331937805398391,0.5,0.147059369574087,0.657079438121265,7.89372595684213,2.56312509122275,0.5,32.891896461325
CBC_1015,CBC_1015_MSI_AV_v3_Vset1_Aset2_2023-06-25_14h04.10.751.csv,1,26,1,0,z,0,1,2,aud,A,63,1,1A,0A,0,1,z,1.15629660000013,0,1,1,1,0A,1A,A10,2.32727770558442,0.807476910979098,0.5,0.5,0.5,0.426470315212956,0.609933347980339,0.5,0.426470315212956,0.5,0.426470315212956,0.807476910979098,0.5,0.5,0.5,0.5,0.774283130439258,0.617584069132374,0.382415930867626,0.807476910979098,0.5,1.27743890056207,0.991476115203673,0.192523089020902,0.0283123240998698,0.5,0.147059369574087,0.657079438121265,7.89372595684213,2.56312509122275,0.5,32.891896461325
CBC_1015,CBC_1015_MSI_AV_v3_Vset1_Aset2_2023-06-25_14h04.10.751.csv,1,27,3,1,z,0,1,1,aud,B,27,1,3B,1B,0,1,z,2.31092340000214,0,1,1,1,1B,3B,B31,3.04452243772342,0.835789235078967,0.5,0.5,0.5,0.426470315212956,0.609933347980339,0.5,0.426470315212956,0.5,0.426470315212956,0.807476910979098,0.5,0.5,0.5,0.5,0.774283130439258,0.588509448240519,0.411490551759481,0.609933347980339,0.426470315212956,0.164699958582501,0.972897060825572,0.390066652019661,0.0573629559378861,0.5,0.147059369574087,0.657079438121265,7.89372595684213,2.56312509122275,0.5,32.891896461325
CBC_1015,CBC_1015_MSI_AV_v3_Vset1_Aset2_2023-06-25_14h04.10.751.csv,1,28,2,3,b,1,0,0,aud,C,63,1,2C,3C,1,0,b,1.29104460000053,1,0,1,1,2C,3C,C23,2.37490575457367,0.835789235078967,0.5,0.5,0.5,0.426470315212956,0.667296303918225,0.5,0.426470315212956,0.5,0.426470315212956,0.807476910979098,0.5,0.5,0.5,0.5,0.774283130439258,0.617584069132374,0.382415930867626,0.807476910979098,0.5,1.00389696327148,0.991459156670496,0.192523089020902,0.0283123240998698,0.5,0.147059369574087,0.657079438121265,7.89372595684213,2.56312509122275,0.5,32.891896461325
CBC_1015,CBC_1015_MSI_AV_v3_Vset1_Aset2_2023-06-25_14h04.10.751.csv,1,29,2,3,z,0,1,3,aud,D,63,1,2D,3D,0,1,z,1.84193679999953,0,1,1,1,3D,2D,D23,2.68557734525015,0.835789235078967,0.5,0.5,0.5,0.426470315212956,0.667296303918225,0.5,0.426470315212956,0.5,0.426470315212956,0.835789235078967,0.5,0.5,0.5,0.5,0.774283130439258,0.607622522768825,0.392377477231175,0.774283130439258,0.5,0.312910152925045,0.987270719552056,0.225716869560742,0.0331937805398391,0.5,0.147059369574087,0.657079438121265,7.89372595684213,2.56312509122275,0.5,32.891896461325
CBC_1015,CBC_1015_MSI_AV_v3_Vset1_Aset2_2023-06-25_14h04.10.751.csv,1,30,1,0,b,1,0,1,aud,B,63,1,1B,0B,1,0,b,0.98671640000066,1,0,1,1,1B,0B,B10,2.70805020110221,0.835789235078967,0.5,0.5,0.5,0.426470315212956,0.667296303918225,0.5,0.426470315212956,0.5,0.426470315212956,0.835789235078967,0.5,0.5,0.5,0.5,0.807476910979098,0.610090207770541,0.389909792229459,0.667296303918225,0.426470315212956,1.26112408948016,0.988507768600982,0.332703696081775,0.0489271958007545,0.5,0.147059369574087,0.657079438121265,7.89372595684213,2.56312509122275,0.5,32.891896461325
CBC_1015,CBC_1015_MSI_AV_v3_Vset1_Aset2_2023-06-25_14h04.10.751.csv,1,31,0,2,b,1,0,2,aud,A,27,1,0A,2A,1,0,b,1.07892820000052,1,0,1,1,0A,2A,A02,3.13549421592915,0.835789235078967,0.5,0.5,0.5,0.426470315212956,0.71622349971898,0.5,0.426470315212956,0.5,0.426470315212956,0.835789235078967,0.5,0.5,0.5,0.5,0.807476910979098,0.625689452445361,0.374310547554638,0.835789235078967,0.5,1.47738368654257,0.993877866441303,0.164210764921033,0.0241487315665657,0.5,0.147059369574087,0.657079438121265,7.89372595684213,2.56312509122275,0.5,32.891896461325
CBC_1015,CBC_1015_MSI_AV_v3_Vset1_Aset2_2023-06-25_14h04.10.751.csv,1,32,0,3,z,0,1,3,aud,D,9,1,0D,3D,0,1,z,1.21289240000078,0,1,1,1,3D,0D,D03,3.85014760171006,0.859937966645533,0.5,0.5,0.5,0.426470315212956,0.71622349971898,0.5,0.426470315212956,0.5,0.426470315212956,0.835789235078967,0.5,0.5,0.5,0.5,0.807476910979098,0.617584069132374,0.382415930867626,0.807476910979098,0.5,1.16635956386707,0.991482748836735,0.192523089020902,0.0283123240998698,0.5,0.147059369574087,0.657079438121265,7.89372595684213,2.56312509122275,0.5,32.891896461325
CBC_1015,CBC_1015_MSI_AV_v3_Vset1_Aset2_2023-06-25_14h04.10.751.csv,1,33,2,3,b,1,0,0,aud,C,63,1,2C,3C,1,0,b,1.29875210000137,1,0,1,1,2C,3C,C23,2.26176309847379,0.859937966645533,0.5,0.5,0.5,0.426470315212956,0.71622349971898,0.5,0.426470315212956,0.5,0.426470315212956,0.835789235078967,0.5,0.5,0.5,0.5,0.835789235078967,0.625689452445361,0.374310547554638,0.835789235078967,0.5,0.994505065267653,0.993843964962634,0.164210764921033,0.0241487315665657,0.5,0.147059369574087,0.657079438121265,7.89372595684213,2.56312509122275,0.5,32.891896461325
CBC_1015,CBC_1015_MSI_AV_v3_Vset1_Aset2_2023-06-25_14h04.10.751.csv,1,34,1,0,b,1,0,1,aud,B,63,1,1B,0B,1,0,b,1.40769980000005,1,0,1,1,1B,0B,B10,2.50552593699074,0.859937966645533,0.5,0.5,0.5,0.426470315212956,0.71622349971898,0.5,0.426470315212956,0.5,0.426470315212956,0.859937966645533,0.5,0.5,0.5,0.5,0.835789235078967,0.626785137330634,0.373214862669366,0.71622349971898,0.426470315212956,0.760712960310753,0.99411696614182,0.28377650028102,0.0417319932312676,0.5,0.147059369574087,0.657079438121265,7.89372595684213,2.56312509122275,0.5,32.891896461325
CBC_1015,CBC_1015_MSI_AV_v3_Vset1_Aset2_2023-06-25_14h04.10.751.csv,1,35,1,0,z,0,1,2,aud,A,63,0,1A,0A,1,0,z,0.956867000000784,0,1,1,0,0A,1A,A10,2.30258509299405,0.859937966645533,0.5,0.5,0.5,0.426470315212956,0.757955492950247,0.5,0.426470315212956,0.5,0.426470315212956,0.859937966645533,0.5,0.5,0.5,0.5,0.835789235078967,0.632336171014244,0.367663828985756,0.859937966645533,0.5,1.52218885713635,0.995298521393707,-0.859937966645533,-0.126461935247714,0.5,0.147059369574087,0.657079438121265,7.89372595684213,2.56312509122275,0.5,32.891896461325
CBC_1015,CBC_1015_MSI_AV_v3_Vset1_Aset2_2023-06-25_14h04.10.751.csv,1,36,3,2,b,1,0,3,aud,D,63,1,3D,2D,1,0,b,1.00527800000054,1,0,1,1,3D,2D,D32,2.83321334405622,0.733476031397819,0.5,0.5,0.5,0.426470315212956,0.757955492950247,0.5,0.426470315212956,0.5,0.426470315212956,0.859937966645533,0.5,0.5,0.5,0.5,0.835789235078967,0.625689452445361,0.374310547554638,0.835789235078967,0.5,1.50780767522878,0.99385459777062,0.164210764921033,0.0241487315665657,0.5,0.147059369574087,0.657079438121265,7.89372595684213,2.56312509122275,0.5,32.891896461325
CBC_1015,CBC_1015_MSI_AV_v3_Vset1_Aset2_2023-06-25_14h04.10.751.csv,1,37,2,1,z,0,1,1,aud,B,9,1,2B,1B,0,1,z,2.9276387000009,0,1,1,1,1B,2B,B21,3.95124371858143,0.733476031397819,0.5,0.5,0.5,0.426470315212956,0.757955492950247,0.5,0.426470315212956,0.5,0.426470315212956,0.859937966645533,0.5,0.5,0.5,0.5,0.859937966645533,0.602529658002952,0.397470341997048,0.757955492950247,0.5,0.0353807267665858,0.984433278378329,0.242044507049753,0.0355949126156073,0.5,0.147059369574087,0.657079438121265,7.89372595684213,2.56312509122275,0.5,32.891896461325
CBC_1015,CBC_1015_MSI_AV_v3_Vset1_Aset2_2023-06-25_14h04.10.751.csv,1,38,0,2,b,1,0,2,aud,A,27,1,0A,2A,1,0,b,0.959470800002237,1,0,1,1,0A,2A,A02,2.87167962488401,0.733476031397819,0.5,0.5,0.5,0.426470315212956,0.793550405565855,0.5,0.426470315212956,0.5,0.426470315212956,0.859937966645533,0.5,0.5,0.5,0.5,0.859937966645533,0.594641495033039,0.405358504966961,0.733476031397819,0.5,0.985370793079109,0.978774646926082,0.266523968602181,0.0391948467990206,0.5,0.147059369574087,0.657079438121265,7.89372595684213,2.56312509122275,0.5,32.891896461325
CBC_1015,CBC_1015_MSI_AV_v3_Vset1_Aset2_2023-06-25_14h04.10.751.csv,1,39,3,2,z,0,1,0,aud,C,63,1,3C,2C,0,1,z,2.24434070000098,0,1,1,1,2C,3C,C32,3.29583686600433,0.772670878196839,0.5,0.5,0.5,0.426470315212956,0.793550405565855,0.5,0.426470315212956,0.5,0.426470315212956,0.859937966645533,0.5,0.5,0.5,0.5,0.859937966645533,0.632336171014244,0.367663828985756,0.859937966645533,0.5,0.0659061089335847,0.995313300816358,0.140062033354467,0.0205974343263727,0.5,0.147059369574087,0.657079438121265,7.89372595684213,2.56312509122275,0.5,32.891896461325
CBC_1015,CBC_1015_MSI_AV_v3_Vset1_Aset2_2023-06-25_14h04.10.751.csv,1,40,3,1,b,1,0,3,aud,D,27,1,3D,1D,1,0,b,0.79406519999975,1,0,1,1,3D,1D,D31,3.31418600467253,0.772670878196839,0.5,0.5,0.5,0.426470315212956,0.793550405565855,0.5,0.426470315212956,0.5,0.426470315212956,0.880535400971906,0.5,0.5,0.5,0.5,0.859937966645533,0.632336171014244,0.367663828985756,0.859937966645533,0.5,0.270998725863607,0.995293657404881,0.140062033354467,0.0205974343263727,0.5,0.147059369574087,0.657079438121265,7.89372595684213,2.56312509122275,0.5,32.891896461325
CBC_1015,CBC_1015_MSI_AV_v3_Vset1_Aset2_2023-06-25_14h04.10.751.csv,1,41,1,0,z,0,1,2,aud,A,63,1,1A,0A,0,1,z,1.45676240000103,0,1,1,1,0A,1A,A10,2.23359222150709,0.772670878196839,0.5,0.5,0.5,0.426470315212956,0.793550405565855,0.5,0.426470315212956,0.5,0.426470315212956,0.880535400971906,0.5,0.5,0.5,0.5,0.880535400971906,0.607125448876134,0.392874551123866,0.772670878196839,0.5,0.712066512576979,0.987102951487194,0.227329121803161,0.0334308773382037,0.5,0.147059369574087,0.657079438121265,7.89372595684213,2.56312509122275,0.5,32.891896461325
CBC_1015,CBC_1015_MSI_AV_v3_Vset1_Aset2_2023-06-25_14h04.10.751.csv,1,42,2,0,b,1,0,0,aud,C,27,1,2C,0C,1,0,b,1.21518610000203,1,0,1,1,2C,0C,C20,3.3499040872746,0.806101755535043,0.5,0.5,0.5,0.426470315212956,0.793550405565855,0.5,0.426470315212956,0.5,0.426470315212956,0.880535400971906,0.5,0.5,0.5,0.5,0.880535400971906,0.637821674367787,0.362178325632213,0.880535400971906,0.5,1.22113182919442,0.996215787772608,0.119464599028094,0.0175683886194926,0.5,0.147059369574087,0.657079438121265,7.89372595684213,2.56312509122275,0.5,32.891896461325
CBC_1015,CBC_1015_MSI_AV_v3_Vset1_Aset2_2023-06-25_14h04.10.751.csv,1,43,2,3,z,0,1,3,aud,D,63,1,2D,3D,0,1,z,1.6297050000012,0,1,1,1,3D,2D,D23,2.67414864942653,0.806101755535043,0.5,0.5,0.5,0.426470315212956,0.793550405565855,0.5,0.426470315212956,0.5,0.426470315212956,0.898103789591398,0.5,0.5,0.5,0.5,0.880535400971906,0.637821674367787,0.362178325632213,0.880535400971906,0.5,0.370841454332376,0.996242530300008,0.119464599028094,0.0175683886194926,0.5,0.147059369574087,0.657079438121265,7.89372595684213,2.56312509122275,0.5,32.891896461325
CBC_1015,CBC_1015_MSI_AV_v3_Vset1_Aset2_2023-06-25_14h04.10.751.csv,1,44,0,1,z,0,1,1,aud,B,63,1,0B,1B,0,1,z,1.36525150000125,0,1,1,1,1B,0B,B01,2.97892515523761,0.806101755535043,0.5,0.5,0.5,0.426470315212956,0.793550405565855,0.5,0.426470315212956,0.5,0.426470315212956,0.898103789591398,0.5,0.5,0.5,0.5,0.898103789591398,0.650440104869108,0.349559895130892,0.793550405565855,0.426470315212956,0.766164449259079,0.997728946191897,0.206449594434145,0.0303603472063114,0.5,0.147059369574087,0.657079438121265,7.89372595684213,2.56312509122275,0.5,32.891896461325
CBC_1015,CBC_1015_MSI_TV_v3_Vset4_Tset3_2023-06-25_14h12.36.349.csv,2,1,1,0,b,1,0,1,tac,B,63,1,1B,0B,1,0,b,2.48233450000043,1,0,1,1,1B,0B,B10,2.77258872223978,0.5,0.5,0.5,0.5,0.5,0.5,0.5,0.5,0.5,0.5,0.5,0.5,0.5,0.5,0.5,0.5,0.5,0.5,0.5,0.5,0.145202483335534,0.499422653457472,0.5,0.011960708282587,0.5,0.023921416565174,0.89574132859777,8.1735011841485,2.57176797005264,0.5,75.4466145159456
CBC_1015,CBC_1015_MSI_TV_v3_Vset4_Tset3_2023-06-25_14h12.36.349.csv,2,2,1,0,z,0,1,2,tac,A,63,1,1A,0A,0,1,b,2.4178576000013,1,0,0,0,1A,0A,A10,2.83321334405622,0.5,0.5,0.5,0.5,0.5,0.511960708282587,0.5,0.5,0.5,0.5,0.5,0.5,0.5,0.5,0.5,0.5,0.5,0.5,0.5,0.5,0.152479913786533,0.499874878930655,-0.5,-0.011960708282587,0.5,0.023921416565174,0.89574132859777,8.1735011841485,2.57176797005264,0.5,75.4466145159456
CBC_1015,CBC_1015_MSI_TV_v3_Vset4_Tset3_2023-06-25_14h12.36.349.csv,2,3,3,2,b,1,0,3,tac,D,63,1,3D,2D,1,0,b,2.34215370000129,1,0,1,1,3D,2D,D32,2.89037175789616,0.5,0.488039291717413,0.5,0.5,0.5,0.511960708282587,0.5,0.5,0.5,0.5,0.5,0.5,0.5,0.5,0.5,0.5,0.5,0.5,0.5,0.5,0.161684770039257,0.501038856437461,0.5,0.011960708282587,0.5,0.023921416565174,0.89574132859777,8.1735011841485,2.57176797005264,0.5,75.4466145159456
CBC_1015,CBC_1015_MSI_TV_v3_Vset4_Tset3_2023-06-25_14h12.36.349.csv,2,4,1,2,b,1,0,1,tac,B,9,1,1B,2B,1,0,b,2.61137470000176,1,0,1,1,1B,2B,B12,2.94443897916644,0.5,0.488039291717413,0.5,0.5,0.5,0.511960708282587,0.5,0.5,0.5,0.5,0.5,0.5,0.5,0.5,0.5,0.511960708282587,0.505909670298803,0.494090329701197,0.511960708282587,0.5,0.148321521216606,0.561813805245706,0.488039291717413,0.0116745911973447,0.5,0.023921416565174,0.89574132859777,8.1735011841485,2.57176797005264,0.5,75.4466145159456
CBC_1015,CBC_1015_MSI_TV_v3_Vset4_Tset3_2023-06-25_14h12.36.349.csv,2,5,2,0,z,0,1,2,tac,A,27,1,2A,0A,0,1,z,2.62411720000273,0,1,1,1,0A,2A,A20,2.99573227355399,0.5,0.488039291717413,0.5,0.5,0.5,0.523635299479932,0.5,0.5,0.5,0.5,0.5,0.5,0.5,0.5,0.5,0.511960708282587,0.5,0.5,0.5,0.5,0.130815485636015,0.500078742353016,0.5,0.011960708282587,0.5,0.023921416565174,0.89574132859777,8.1735011841485,2.57176797005264,0.5,75.4466145159456
CBC_1015,CBC_1015_MSI_TV_v3_Vset4_Tset3_2023-06-25_14h12.36.349.csv,2,6,3,2,z,0,1,0,tac,C,63,1,3C,2C,0,1,z,2.70009230000142,0,1,1,1,2C,3C,C32,3.04452243772342,0.511960708282587,0.488039291717413,0.5,0.5,0.5,0.523635299479932,0.5,0.5,0.5,0.5,0.5,0.5,0.5,0.5,0.5,0.511960708282587,0.5,0.5,0.5,0.5,0.123744152762508,0.500618330442159,0.5,0.011960708282587,0.5,0.023921416565174,0.89574132859777,8.1735011841485,2.57176797005264,0.5,75.4466145159456
CBC_1015,CBC_1015_MSI_TV_v3_Vset4_Tset3_2023-06-25_14h12.36.349.csv,2,7,3,1,b,1,0,3,tac,D,27,1,3D,1D,1,0,b,2.34600720000162,1,0,1,1,3D,1D,D31,3.09104245335832,0.511960708282587,0.488039291717413,0.5,0.5,0.5,0.523635299479932,0.5,0.5,0.5,0.5,0.511960708282587,0.5,0.5,0.5,0.5,0.511960708282587,0.505909670298803,0.494090329701197,0.511960708282587,0.5,0.180937533720833,0.561786486129481,0.488039291717413,0.0116745911973447,0.5,0.023921416565174,0.89574132859777,8.1735011841485,2.57176797005264,0.5,75.4466145159456
CBC_1015,CBC_1015_MSI_TV_v3_Vset4_Tset3_2023-06-25_14h12.36.349.csv,2,8,0,1,b,1,0,2,tac,A,63,1,0A,1A,1,0,z,2.86098020000099,0,1,0,0,1A,0A,A01,3.13549421592915,0.511960708282587,0.488039291717413,0.5,0.5,0.5,0.523635299479932,0.5,0.5,0.5,0.5,0.511960708282587,0.5,0.5,0.5,0.5,0.523635299479932,0.488039291717413,0.511960708282587,0.488039291717413,0.511960708282587,0.0823178528238837,0.377813062971687,-0.488039291717413,-0.0116745911973447,0.5,0.023921416565174,0.89574132859777,8.1735011841485,2.57176797005264,0.5,75.4466145159456
CBC_1015,CBC_1015_MSI_TV_v3_Vset4_Tset3_2023-06-25_14h12.36.349.csv,2,9,0,2,z,0,1,0,tac,C,27,1,0C,2C,0,1,b,2.95038960000238,1,0,0,0,0C,2C,C02,3.17805383034795,0.511960708282587,0.476364700520068,0.5,0.5,0.5,0.523635299479932,0.5,0.5,0.5,0.5,0.511960708282587,0.5,0.5,0.5,0.5,0.523635299479932,0.494090329701197,0.505909670298803,0.5,0.511960708282587,0.0896547900297479,0.43799227449803,-0.5,-0.011960708282587,0.5,0.023921416565174,0.89574132859777,8.1735011841485,2.57176797005264,0.5,75.4466145159456
CBC_1015,CBC_1015_MSI_TV_v3_Vset4_Tset3_2023-06-25_14h12.36.349.csv,2,10,3,2,b,1,0,3,tac,D,63,1,3D,2D,1,0,b,2.30979560000196,1,0,1,1,3D,2D,D32,2.52572864430826,0.511960708282587,0.476364700520068,0.5,0.5,0.5,0.523635299479932,0.5,0.5,0.488039291717413,0.5,0.511960708282587,0.5,0.5,0.5,0.5,0.523635299479932,0.511544785282385,0.488455214717615,0.523635299479932,0.5,0.205537521670499,0.619327936545067,0.476364700520068,0.0113953184380849,0.5,0.023921416565174,0.89574132859777,8.1735011841485,2.57176797005264,0.5,75.4466145159456
CBC_1015,CBC_1015_MSI_TV_v3_Vset4_Tset3_2023-06-25_14h12.36.349.csv,2,11,0,1,z,0,1,1,tac,B,63,1,0B,1B,0,1,z,2.35704710000209,0,1,1,1,1B,0B,B01,3.25809653802148,0.511960708282587,0.476364700520068,0.5,0.5,0.5,0.523635299479932,0.5,0.5,0.488039291717413,0.5,0.511960708282587,0.5,0.5,0.5,0.5,0.535030617918017,0.511544785282385,0.488455214717615,0.523635299479932,0.5,0.198106888475455,0.618799515896224,0.476364700520068,0.0113953184380849,0.5,0.023921416565174,0.89574132859777,8.1735011841485,2.57176797005264,0.5,75.4466145159456
CBC_1015,CBC_1015_MSI_TV_v3_Vset4_Tset3_2023-06-25_14h12.36.349.csv,2,12,1,0,z,0,1,2,tac,A,63,1,1A,0A,0,1,b,1.93659670000125,1,0,0,0,1A,0A,A10,2.60268968544438,0.511960708282587,0.476364700520068,0.5,0.5,0.5,0.535030617918017,0.5,0.5,0.488039291717413,0.5,0.511960708282587,0.5,0.5,0.5,0.5,0.535030617918017,0.48199175724641,0.51800824275359,0.476364700520068,0.511960708282587,0.141967735248744,0.318778870766727,-0.476364700520068,-0.0113953184380849,0.5,0.023921416565174,0.89574132859777,8.1735011841485,2.57176797005264,0.5,75.4466145159456
CBC_1015,CBC_1015_MSI_TV_v3_Vset4_Tset3_2023-06-25_14h12.36.349.csv,2,13,3,2,b,1,0,3,tac,D,63,1,3D,2D,1,0,b,1.49097640000218,1,0,1,1,3D,2D,D32,2.23359222150709,0.511960708282587,0.464969382081983,0.5,0.5,0.5,0.535030617918017,0.5,0.5,0.488039291717413,0.5,0.511960708282587,0.5,0.5,0.5,0.5,0.535030617918017,0.516922503214678,0.483077496785321,0.535030617918017,0.5,0.388376870648826,0.670496503174998,0.464969382081983,0.0111227262788347,0.5,0.023921416565174,0.89574132859777,8.1735011841485,2.57176797005264,0.5,75.4466145159456
CBC_1015,CBC_1015_MSI_TV_v3_Vset4_Tset3_2023-06-25_14h12.36.349.csv,2,14,0,2,z,0,1,0,tac,C,27,1,0C,2C,0,1,z,3.73447200000192,0,1,1,1,2C,0C,C02,2.67414864942653,0.511960708282587,0.464969382081983,0.5,0.5,0.5,0.535030617918017,0.5,0.5,0.488039291717413,0.5,0.511960708282587,0.5,0.5,0.5,0.5,0.546153344196851,0.511960708282587,0.488039291717413,0.511960708282587,0.488039291717413,0.0694793941721858,0.621969235343144,0.488039291717413,0.0116745911973447,0.5,0.023921416565174,0.89574132859777,8.1735011841485,2.57176797005264,0.5,75.4466145159456
CBC_1015,CBC_1015_MSI_TV_v3_Vset4_Tset3_2023-06-25_14h12.36.349.csv,2,15,1,0,z,0,1,2,tac,A,63,1,1A,0A,0,1,b,1.93685800000276,1,0,0,0,1A,0A,A10,2.30258509299405,0.511960708282587,0.464969382081983,0.5,0.5,0.5,0.535030617918017,0.5,0.5,0.488039291717413,0.5,0.523635299479932,0.5,0.5,0.5,0.5,0.546153344196851,0.475949493897221,0.524050506102779,0.464969382081983,0.511960708282587,0.120457243106873,0.265823355070239,-0.464969382081983,-0.0111227262788347,0.5,0.023921416565174,0.89574132859777,8.1735011841485,2.57176797005264,0.5,75.4466145159456
CBC_1015,CBC_1015_MSI_TV_v3_Vset4_Tset3_2023-06-25_14h12.36.349.csv,2,16,3,1,z,0,1,1,tac,B,27,1,3B,1B,0,1,z,2.00672000000122,0,1,1,1,1B,3B,B31,3.43398720448515,0.511960708282587,0.453846655803149,0.5,0.5,0.5,0.535030617918017,0.5,0.5,0.488039291717413,0.5,0.523635299479932,0.5,0.5,0.5,0.5,0.546153344196851,0.516922503214678,0.483077496785321,0.535030617918017,0.5,0.282763039799453,0.671289698555722,0.464969382081983,0.0111227262788347,0.5,0.023921416565174,0.89574132859777,8.1735011841485,2.57176797005264,0.5,75.4466145159456
CBC_1015,CBC_1015_MSI_TV_v3_Vset4_Tset3_2023-06-25_14h12.36.349.csv,2,17,2,3,b,1,0,0,tac,C,63,1,2C,3C,1,0,b,2.54396250000173,1,0,1,1,2C,3C,C23,3.46573590279973,0.511960708282587,0.453846655803149,0.5,0.5,0.5,0.546153344196851,0.5,0.5,0.488039291717413,0.5,0.523635299479932,0.5,0.5,0.5,0.5,0.546153344196851,0.511544785282385,0.488455214717615,0.523635299479932,0.5,0.171906611682118,0.61916836602893,0.476364700520068,0.0113953184380849,0.5,0.023921416565174,0.89574132859777,8.1735011841485,2.57176797005264,0.5,75.4466145159456
CBC_1015,CBC_1015_MSI_TV_v3_Vset4_Tset3_2023-06-25_14h12.36.349.csv,2,18,3,2,b,1,0,3,tac,D,63,0,3D,2D,0,1,b,1.54328730000088,1,0,1,0,3D,2D,D32,2.11021320034659,0.511960708282587,0.453846655803149,0.5,0.5,0.5,0.546153344196851,0.5,0.5,0.488039291717413,0.5,0.535030617918017,0.5,0.5,0.5,0.5,0.546153344196851,0.52205859420747,0.47794140579253,0.546153344196851,0.5,0.418084348215074,0.715964682118192,-0.546153344196851,-0.0130647616549957,0.5,0.023921416565174,0.89574132859777,8.1735011841485,2.57176797005264,0.5,75.4466145159456
CBC_1015,CBC_1015_MSI_TV_v3_Vset4_Tset3_2023-06-25_14h12.36.349.csv,2,19,0,1,z,0,1,1,tac,B,63,1,0B,1B,0,1,b,3.25756220000221,1,0,0,0,0B,1B,B01,2.83321334405622,0.511960708282587,0.453846655803149,0.5,0.5,0.5,0.546153344196851,0.5,0.5,0.488039291717413,0.5,0.535030617918017,0.5,0.5,0.5,0.5,0.533088582541856,0.47794140579253,0.52205859420747,0.5,0.546153344196851,0.0440228284606897,0.283664601902674,-0.5,-0.011960708282587,0.5,0.023921416565174,0.89574132859777,8.1735011841485,2.57176797005264,0.5,75.4466145159456
CBC_1015,CBC_1015_MSI_TV_v3_Vset4_Tset3_2023-06-25_14h12.36.349.csv,2,20,0,2,b,1,0,2,tac,A,27,1,0A,2A,1,0,z,2.58052450000105,0,1,0,0,2A,0A,A02,3.55534806148941,0.511960708282587,0.453846655803149,0.5,0.5,0.488039291717413,0.546153344196851,0.5,0.5,0.488039291717413,0.5,0.535030617918017,0.5,0.5,0.5,0.5,0.533088582541856,0.494090329701197,0.505909670298803,0.5,0.511960708282587,0.118335685229997,0.437980567104751,-0.5,-0.011960708282587,0.5,0.023921416565174,0.89574132859777,8.1735011841485,2.57176797005264,0.5,75.4466145159456
CBC_1015,CBC_1015_MSI_TV_v3_Vset4_Tset3_2023-06-25_14h12.36.349.csv,2,21,3,0,b,1,0,3,tac,D,9,1,3D,0D,1,0,b,1.04467970000223,1,0,1,1,3D,0D,D30,3.58351893845611,0.511960708282587,0.453846655803149,0.488039291717413,0.5,0.488039291717413,0.546153344196851,0.5,0.5,0.488039291717413,0.5,0.535030617918017,0.5,0.5,0.5,0.5,0.533088582541856,0.516014397555553,0.483985602444447,0.533088582541856,0.5,0.048335449210938,0.662688143636315,0.466911417458144,0.0111691825160521,0.5,0.023921416565174,0.89574132859777,8.1735011841485,2.57176797005264,0.5,75.4466145159456
CBC_1015,CBC_1015_MSI_TV_v3_Vset4_Tset3_2023-06-25_14h12.36.349.csv,2,22,3,2,z,0,1,0,tac,C,63,1,3C,2C,0,1,z,2.64720350000243,0,1,1,1,2C,3C,C32,2.91777073208428,0.511960708282587,0.453846655803149,0.488039291717413,0.5,0.488039291717413,0.546153344196851,0.5,0.5,0.488039291717413,0.5,0.535030617918017,0.5,0.5,0.5,0.5,0.544257765057908,0.516922503214678,0.483077496785321,0.535030617918017,0.5,0.171589996705684,0.670709789137001,0.464969382081983,0.0111227262788347,0.5,0.023921416565174,0.89574132859777,8.1735011841485,2.57176797005264,0.5,75.4466145159456
CBC_1015,CBC_1015_MSI_TV_v3_Vset4_Tset3_2023-06-25_14h12.36.349.csv,2,23,1,3,b,1,0,1,tac,B,27,1,1B,3B,1,0,b,2.00771800000075,1,0,1,1,1B,3B,B13,3.63758615972639,0.511960708282587,0.453846655803149,0.488039291717413,0.5,0.488039291717413,0.546153344196851,0.5,0.5,0.488039291717413,0.5,0.546153344196851,0.5,0.5,0.5,0.5,0.544257765057908,0.52205859420747,0.47794140579253,0.546153344196851,0.5,0.305541810461979,0.717132507430711,0.453846655803149,0.0108566549101783,0.5,0.023921416565174,0.89574132859777,8.1735011841485,2.57176797005264,0.5,75.4466145159456
CBC_1015,CBC_1015_MSI_TV_v3_Vset4_Tset3_2023-06-25_14h12.36.349.csv,2,24,2,3,b,1,0,0,tac,C,63,1,2C,3C,1,0,b,2.27481380000245,1,0,1,1,2C,3C,C23,2.9704144655697,0.511960708282587,0.453846655803149,0.488039291717413,0.5,0.488039291717413,0.55700999910703,0.5,0.5,0.488039291717413,0.5,0.546153344196851,0.5,0.5,0.5,0.5,0.544257765057908,0.52205859420747,0.47794140579253,0.546153344196851,0.5,0.246371054123359,0.716052878147073,0.453846655803149,0.0108566549101783,0.5,0.023921416565174,0.89574132859777,8.1735011841485,2.57176797005264,0.5,75.4466145159456
CBC_1015,CBC_1015_MSI_TV_v3_Vset4_Tset3_2023-06-25_14h12.36.349.csv,2,25,3,2,b,1,0,3,tac,D,63,1,3D,2D,1,0,b,1.90273180000258,1,0,1,1,3D,2D,D32,2.07944154167984,0.511960708282587,0.453846655803149,0.488039291717413,0.5,0.488039291717413,0.55700999910703,0.5,0.5,0.488039291717413,0.5,0.55700999910703,0.5,0.5,0.5,0.5,0.544257765057908,0.521191015541768,0.478808984458232,0.544257765057908,0.5,0.327051058028819,0.709362101159889,0.455742234942092,0.0109019998483932,0.5,0.023921416565174,0.89574132859777,8.1735011841485,2.57176797005264,0.5,75.4466145159456
CBC_1015,CBC_1015_MSI_TV_v3_Vset4_Tset3_2023-06-25_14h12.36.349.csv,2,26,0,1,z,0,1,1,tac,B,63,1,0B,1B,0,1,z,3.33137400000123,0,1,1,1,1B,0B,B01,2.6149597780362,0.511960708282587,0.453846655803149,0.488039291717413,0.5,0.488039291717413,0.55700999910703,0.5,0.5,0.488039291717413,0.5,0.55700999910703,0.5,0.5,0.5,0.5,0.555159764906301,0.532998781969033,0.467001218030967,0.55700999910703,0.488039291717413,0.108346160309936,0.799853363034066,0.44299000089297,0.0105969483455675,0.5,0.023921416565174,0.89574132859777,8.1735011841485,2.57176797005264,0.5,75.4466145159456
CBC_1015,CBC_1015_MSI_TV_v3_Vset4_Tset3_2023-06-25_14h12.36.349.csv,2,27,3,0,z,0,1,2,tac,A,9,1,3A,0A,0,1,z,2.05863470000077,0,1,1,1,0A,3A,A30,3.73766961828337,0.511960708282587,0.453846655803149,0.488039291717413,0.5,0.488039291717413,0.567606947452597,0.5,0.5,0.488039291717413,0.5,0.55700999910703,0.5,0.5,0.5,0.5,0.555159764906301,0.505909670298803,0.494090329701197,0.511960708282587,0.5,0.223810690688348,0.561397221742694,0.488039291717413,0.0116745911973447,0.5,0.023921416565174,0.89574132859777,8.1735011841485,2.57176797005264,0.5,75.4466145159456
CBC_1015,CBC_1015_MSI_TV_v3_Vset4_Tset3_2023-06-25_14h12.36.349.csv,2,28,3,2,b,1,0,3,tac,D,63,1,3D,2D,1,0,b,1.35058870000103,1,0,1,1,3D,2D,D32,1.96944064646551,0.523635299479932,0.453846655803149,0.488039291717413,0.5,0.488039291717413,0.567606947452597,0.5,0.5,0.488039291717413,0.5,0.55700999910703,0.5,0.5,0.5,0.5,0.555159764906301,0.526138110426907,0.473861889573093,0.555159764906301,0.5,0.450907145715772,0.749622110928846,0.444840235093699,0.0106412085686263,0.5,0.023921416565174,0.89574132859777,8.1735011841485,2.57176797005264,0.5,75.4466145159456
CBC_1015,CBC_1015_MSI_TV_v3_Vset4_Tset3_2023-06-25_14h12.36.349.csv,2,29,0,2,z,0,1,0,tac,C,27,1,0C,2C,NaN,NaN,None,NaN,NaN,NaN,NaN,NaN,,,C02,2.68557734525015,0.523635299479932,0.453846655803149,0.488039291717413,0.5,0.488039291717413,0.567606947452597,0.5,0.5,0.488039291717413,0.5,0.55700999910703,0.5,0.5,0.5,0.5,0.565800973474927,0,0,0,0,NaN,0,0,0,0.5,0.023921416565174,0.89574132859777,8.1735011841485,2.57176797005264,0.5,75.4466145159456
CBC_1015,CBC_1015_MSI_TV_v3_Vset4_Tset3_2023-06-25_14h12.36.349.csv,2,30,0,1,b,1,0,2,tac,A,63,1,0A,1A,1,0,z,1.61435940000047,0,1,0,0,1A,0A,A01,3.11351530921037,0.523635299479932,0.453846655803149,0.488039291717413,0.5,0.488039291717413,0.567606947452597,0.5,0.5,0.488039291717413,0.5,0.55700999910703,0.5,0.5,0.5,0.5,0.565800973474927,0.464301825062043,0.535698174937957,0.453846655803149,0.523635299479932,0.111196175954554,0.182065922196005,-0.453846655803149,-0.0108566549101783,0.5,0.023921416565174,0.89574132859777,8.1735011841485,2.57176797005264,0.5,75.4466145159456
CBC_1015,CBC_1015_MSI_TV_v3_Vset4_Tset3_2023-06-25_14h12.36.349.csv,2,31,0,1,z,0,1,1,tac,B,63,1,0B,1B,0,1,z,2.21916240000246,0,1,1,1,1B,0B,B01,2.4423470353692,0.523635299479932,0.44299000089297,0.488039291717413,0.5,0.488039291717413,0.567606947452597,0.5,0.5,0.488039291717413,0.5,0.55700999910703,0.5,0.5,0.5,0.5,0.565800973474927,0.537686704495695,0.462313295504305,0.567606947452597,0.488039291717413,0.303634866941187,0.829840054516425,0.432393052547403,0.0103434543298736,0.5,0.023921416565174,0.89574132859777,8.1735011841485,2.57176797005264,0.5,75.4466145159456
CBC_1015,CBC_1015_MSI_TV_v3_Vset4_Tset3_2023-06-25_14h12.36.349.csv,2,32,1,3,z,0,1,3,tac,D,27,1,1D,3D,0,1,z,2.1522399000005,0,1,1,1,3D,1D,D13,3.85014760171006,0.523635299479932,0.44299000089297,0.488039291717413,0.5,0.488039291717413,0.577950401782471,0.5,0.5,0.488039291717413,0.5,0.55700999910703,0.5,0.5,0.5,0.5,0.565800973474927,0.530869259417352,0.469130740582648,0.565800973474927,0.5,0.30262061052051,0.785080743468094,0.434199026525073,0.0103866557856993,0.5,0.023921416565174,0.89574132859777,8.1735011841485,2.57176797005264,0.5,75.4466145159456
CBC_1015,CBC_1015_MSI_TV_v3_Vset4_Tset3_2023-06-25_14h12.36.349.csv,2,33,2,3,b,1,0,0,tac,C,63,1,2C,3C,1,0,b,2.42856639999991,1,0,1,1,2C,3C,C23,2.77258872223978,0.523635299479932,0.44299000089297,0.488039291717413,0.5,0.488039291717413,0.577950401782471,0.5,0.5,0.488039291717413,0.5,0.55700999910703,0.5,0.5,0.5,0.5,0.576187629260626,0.526967577958199,0.473032422041801,0.55700999910703,0.5,0.230038431685162,0.757311177638057,0.44299000089297,0.0105969483455675,0.5,0.023921416565174,0.89574132859777,8.1735011841485,2.57176797005264,0.5,75.4466145159456
CBC_1015,CBC_1015_MSI_TV_v3_Vset4_Tset3_2023-06-25_14h12.36.349.csv,2,34,0,1,z,0,1,1,tac,B,63,1,0B,1B,0,1,z,1.92993019999994,0,1,1,1,1B,0B,B01,2.28238238567653,0.523635299479932,0.44299000089297,0.488039291717413,0.5,0.488039291717413,0.577950401782471,0.5,0.5,0.488039291717413,0.5,0.567606947452597,0.5,0.5,0.5,0.5,0.576187629260626,0.542172598203018,0.457827401796982,0.577950401782471,0.488039291717413,0.414091523082026,0.854805421466904,0.422049598217529,0.0100960242501258,0.5,0.023921416565174,0.89574132859777,8.1735011841485,2.57176797005264,0.5,75.4466145159456
CBC_1015,CBC_1015_MSI_TV_v3_Vset4_Tset3_2023-06-25_14h12.36.349.csv,2,35,1,0,z,0,1,2,tac,A,63,1,1A,0A,0,1,z,2.90905610000118,0,1,1,1,0A,1A,A10,2.52572864430826,0.523635299479932,0.44299000089297,0.488039291717413,0.5,0.488039291717413,0.588046426032597,0.5,0.5,0.488039291717413,0.5,0.567606947452597,0.5,0.5,0.5,0.5,0.576187629260626,0.541714870568694,0.458285129431306,0.523635299479932,0.44299000089297,0.159142768692926,0.852687796590174,0.476364700520068,0.0113953184380849,0.5,0.023921416565174,0.89574132859777,8.1735011841485,2.57176797005264,0.5,75.4466145159456
CBC_1015,CBC_1015_MSI_TV_v3_Vset4_Tset3_2023-06-25_14h12.36.349.csv,2,36,2,1,b,1,0,0,tac,C,9,1,2C,1C,1,0,b,2.66617270000097,1,0,1,1,2C,1C,C21,3.93182563272433,0.535030617918017,0.44299000089297,0.488039291717413,0.5,0.488039291717413,0.588046426032597,0.5,0.5,0.488039291717413,0.5,0.567606947452597,0.5,0.5,0.5,0.5,0.576187629260626,0.531662845401069,0.468337154598931,0.567606947452597,0.5,0.194522610372269,0.790867806856401,0.432393052547403,0.0103434543298736,0.5,0.023921416565174,0.89574132859777,8.1735011841485,2.57176797005264,0.5,75.4466145159456
CBC_1015,CBC_1015_MSI_TV_v3_Vset4_Tset3_2023-06-25_14h12.36.349.csv,2,37,0,1,b,1,0,2,tac,A,63,1,0A,1A,1,0,z,2.4934557000015,0,1,0,0,1A,0A,A01,2.85263142991332,0.535030617918017,0.44299000089297,0.488039291717413,0.5,0.488039291717413,0.588046426032597,0.5,0.5,0.488039291717413,0.5,0.577950401782471,0.5,0.5,0.5,0.5,0.576187629260626,0.452945461856958,0.547054538143042,0.44299000089297,0.535030617918017,0.0333948699411811,0.121418916692339,-0.44299000089297,-0.0105969483455675,0.5,0.023921416565174,0.89574132859777,8.1735011841485,2.57176797005264,0.5,75.4466145159456
CBC_1015,CBC_1015_MSI_TV_v3_Vset4_Tset3_2023-06-25_14h12.36.349.csv,2,38,1,3,z,0,1,3,tac,D,27,1,1D,3D,0,1,z,1.33950750000076,0,1,1,1,3D,1D,D13,3.27714473299218,0.535030617918017,0.432393052547403,0.488039291717413,0.5,0.488039291717413,0.588046426032597,0.5,0.5,0.488039291717413,0.5,0.577950401782471,0.5,0.5,0.5,0.5,0.576187629260626,0.535397001038271,0.464602998961729,0.576187629260626,0.5,0.525642023004296,0.815394268558431,0.423812370739374,0.0101381922659305,0.5,0.023921416565174,0.89574132859777,8.1735011841485,2.57176797005264,0.5,75.4466145159456
CBC_1015,CBC_1015_MSI_TV_v3_Vset4_Tset3_2023-06-25_14h12.36.349.csv,2,39,1,0,b,1,0,1,tac,B,63,1,1B,0B,1,0,z,4.1798678999985,0,1,0,0,0B,1B,B10,3.29583686600433,0.535030617918017,0.432393052547403,0.488039291717413,0.5,0.488039291717413,0.588046426032597,0.5,0.5,0.488039291717413,0.5,0.577950401782471,0.5,0.5,0.5,0.5,0.586325821526557,0.453531985107892,0.546468014892108,0.488039291717413,0.588046426032597,0.0059742565265973,0.12407559020093,-0.488039291717413,-0.0116745911973447,0.5,0.023921416565174,0.89574132859777,8.1735011841485,2.57176797005264,0.5,75.4466145159456
CBC_1015,CBC_1015_MSI_TV_v3_Vset4_Tset3_2023-06-25_14h12.36.349.csv,2,40,3,2,z,0,1,0,tac,C,63,0,3C,2C,1,0,z,1.32355349999852,0,1,1,0,2C,3C,C32,2.90872089656436,0.535030617918017,0.432393052547403,0.488039291717413,0.5,0.476364700520068,0.588046426032597,0.5,0.5,0.488039291717413,0.5,0.577950401782471,0.5,0.5,0.5,0.5,0.586325821526557,0.536156766421523,0.463843233578477,0.577950401782471,0.5,0.526659527929729,0.820505868894273,-0.577950401782471,-0.0138253923150482,0.5,0.023921416565174,0.89574132859777,8.1735011841485,2.57176797005264,0.5,75.4466145159456
CBC_1015,CBC_1015_MSI_TV_v3_Vset4_Tset3_2023-06-25_14h12.36.349.csv,2,41,0,2,b,1,0,2,tac,A,27,1,0A,2A,1,0,b,2.48158230000263,1,0,1,1,0A,2A,A02,3.3322045101752,0.535030617918017,0.432393052547403,0.488039291717413,0.5,0.476364700520068,0.588046426032597,0.5,0.5,0.488039291717413,0.5,0.564125009467423,0.5,0.5,0.5,0.5,0.586325821526557,0.522965843173586,0.477034156826414,0.535030617918017,0.488039291717413,0.210807023770772,0.724299274323276,0.464969382081983,0.0111227262788347,0.5,0.023921416565174,0.89574132859777,8.1735011841485,2.57176797005264,0.5,75.4466145159456
CBC_1015,CBC_1015_MSI_TV_v3_Vset4_Tset3_2023-06-25_14h12.36.349.csv,2,42,2,3,z,0,1,3,tac,D,63,1,2D,3D,0,1,z,1.79484370000137,0,1,1,1,3D,2D,D23,4.04305126783455,0.546153344196851,0.432393052547403,0.488039291717413,0.5,0.476364700520068,0.588046426032597,0.5,0.5,0.488039291717413,0.5,0.564125009467423,0.5,0.5,0.5,0.5,0.586325821526557,0.539732932705792,0.460267067294208,0.586325821526557,0.5,0.456736876276672,0.841728237010424,0.413674178473443,0.00989567234551936,0.5,0.023921416565174,0.89574132859777,8.1735011841485,2.57176797005264,0.5,75.4466145159456
CBC_1015,CBC_1015_MSI_TV_v3_Vset4_Tset3_2023-06-25_14h12.36.349.csv,2,43,1,3,b,1,0,1,tac,B,27,1,1B,3B,1,0,b,1.5175464999993,1,0,1,1,1B,3B,B13,3.36729582998647,0.546153344196851,0.432393052547403,0.488039291717413,0.5,0.476364700520068,0.588046426032597,0.5,0.5,0.488039291717413,0.5,0.564125009467423,0.5,0.5,0.5,0.5,0.596221493872076,0.540460785461906,0.459539214538094,0.588046426032597,0.5,0.566202105954295,0.846114553215571,0.411953573967403,0.00985451304838647,0.5,0.023921416565174,0.89574132859777,8.1735011841485,2.57176797005264,0.5,75.4466145159456
CBC_1015,CBC_1015_MSI_TV_v3_Vset4_Tset3_2023-06-25_14h12.36.349.csv,2,44,3,2,z,0,1,0,tac,C,63,1,3C,2C,0,1,z,1.93298839999989,0,1,1,1,2C,3C,C32,2.69124308278583,0.546153344196851,0.432393052547403,0.488039291717413,0.5,0.476364700520068,0.597900939080983,0.5,0.5,0.488039291717413,0.5,0.564125009467423,0.5,0.5,0.5,0.5,0.596221493872076,0.53013039299749,0.46986960700251,0.564125009467423,0.5,0.361820949891212,0.780396196022569,0.435874990532577,0.0104267472188711,0.5,0.023921416565174,0.89574132859777,8.1735011841485,2.57176797005264,0.5,75.4466145159456
CBC_1015,CBC_1015_MSI_AV_v3_Vset2_Aset3_2023-06-25_15h52.10.699.csv,3,1,1,0,z,0,1,2,aud,A,63,1,1A,0A,0,1,b,2.15474869999889,1,0,0,0,1A,0A,A10,2.77258872223978,0.5,0.5,0.5,0.5,0.5,0.5,0.5,0.5,0.5,0.5,0.5,0.5,0.5,0.5,0.5,0.5,0.5,0.5,0.5,0.5,0.159692381580965,0.500652796795608,-0.5,-0.0357165814493515,0.5,0.0714331628987029,0.687718814566479,14.2082575471125,2.67404120633389,0.5,34.0608565432367
CBC_1015,CBC_1015_MSI_AV_v3_Vset2_Aset3_2023-06-25_15h52.10.699.csv,3,2,3,2,b,1,0,3,aud,D,63,1,3D,2D,1,0,z,2.01251509999929,0,1,0,0,2D,3D,D32,2.83321334405622,0.5,0.464283418550649,0.5,0.5,0.5,0.5,0.5,0.5,0.5,0.5,0.5,0.5,0.5,0.5,0.5,0.5,0.5,0.5,0.5,0.5,0.175530433105397,0.499398336265865,-0.5,-0.0357165814493515,0.5,0.0714331628987029,0.687718814566479,14.2082575471125,2.67404120633389,0.5,34.0608565432367
CBC_1015,CBC_1015_MSI_AV_v3_Vset2_Aset3_2023-06-25_15h52.10.699.csv,3,3,2,0,b,1,0,0,aud,C,27,1,2C,0C,1,0,b,2.59367500000008,1,0,1,1,2C,0C,C20,2.89037175789616,0.5,0.464283418550649,0.5,0.5,0.5,0.5,0.5,0.5,0.5,0.5,0.5,0.5,0.5,0.5,0.464283418550649,0.5,0.5,0.5,0.5,0.5,0.117812100264227,0.499617112853974,0.5,0.0357165814493515,0.5,0.0714331628987029,0.687718814566479,14.2082575471125,2.67404120633389,0.5,34.0608565432367
CBC_1015,CBC_1015_MSI_AV_v3_Vset2_Aset3_2023-06-25_15h52.10.699.csv,3,4,1,0,z,0,1,2,aud,A,63,1,1A,0A,0,1,z,2.24361919999865,0,1,1,1,0A,1A,A10,2.2512917986065,0.5,0.464283418550649,0.5,0.5,0.5,0.5,0.5,0.5,0.5,0.5,0.535716581449351,0.5,0.5,0.5,0.464283418550649,0.5,0.518519752990793,0.481480247009207,0.5,0.464283418550649,0.244407816050609,0.803090258192981,0.5,0.0357165814493515,0.5,0.0714331628987029,0.687718814566479,14.2082575471125,2.67404120633389,0.5,34.0608565432367
CBC_1015,CBC_1015_MSI_AV_v3_Vset2_Aset3_2023-06-25_15h52.10.699.csv,3,5,3,1,z,0,1,1,aud,B,27,1,3B,1B,NaN,NaN,[],NaN,NaN,NaN,NaN,NaN,,,B31,2.99573227355399,0.535716581449351,0.464283418550649,0.5,0.5,0.5,0.5,0.5,0.5,0.5,0.5,0.535716581449351,0.5,0.5,0.5,0.464283418550649,0.5,0,0,0,0,NaN,0,0,0,0.5,0.0714331628987029,0.687718814566479,14.2082575471125,2.67404120633389,0.5,34.0608565432367
CBC_1015,CBC_1015_MSI_AV_v3_Vset2_Aset3_2023-06-25_15h52.10.699.csv,3,6,2,3,b,1,0,0,aud,C,63,1,2C,3C,1,0,b,1.46730329999991,1,0,1,1,2C,3C,C23,3.04452243772342,0.535716581449351,0.464283418550649,0.5,0.5,0.5,0.5,0.5,0.5,0.5,0.5,0.535716581449351,0.5,0.5,0.5,0.464283418550649,0.5,0.517242449377112,0.482757550622888,0.535716581449351,0.5,0.431583325556225,0.787556857139971,0.464283418550649,0.0331652330684952,0.5,0.0714331628987029,0.687718814566479,14.2082575471125,2.67404120633389,0.5,34.0608565432367
CBC_1015,CBC_1015_MSI_AV_v3_Vset2_Aset3_2023-06-25_15h52.10.699.csv,3,7,2,3,z,0,1,3,aud,D,63,0,2D,3D,1,0,z,2.15687139999864,0,1,1,0,3D,2D,D23,3.09104245335832,0.535716581449351,0.464283418550649,0.5,0.5,0.5,0.5,0.5,0.5,0.5,0.5,0.568881814517847,0.5,0.5,0.5,0.464283418550649,0.5,0.518519752990793,0.481480247009207,0.5,0.464283418550649,0.262723684372158,0.803654840671688,-0.5,-0.0357165814493515,0.5,0.0714331628987029,0.687718814566479,14.2082575471125,2.67404120633389,0.5,34.0608565432367
CBC_1015,CBC_1015_MSI_AV_v3_Vset2_Aset3_2023-06-25_15h52.10.699.csv,3,8,1,0,b,1,0,1,aud,B,63,1,1B,0B,1,0,b,2.79461349999838,1,0,1,1,1B,0B,B10,3.13549421592915,0.535716581449351,0.464283418550649,0.5,0.5,0.5,0.5,0.5,0.5,0.5,0.5,0.568881814517847,0.5,0.5,0.5,0.464283418550649,0.464283418550649,0.5,0.5,0.5,0.5,0.102736888029718,0.500467547877282,0.5,0.0357165814493515,0.5,0.0714331628987029,0.687718814566479,14.2082575471125,2.67404120633389,0.5,34.0608565432367
CBC_1015,CBC_1015_MSI_AV_v3_Vset2_Aset3_2023-06-25_15h52.10.699.csv,3,9,0,2,b,1,0,2,aud,A,27,1,0A,2A,1,0,b,1.67905040000187,1,0,1,1,0A,2A,A02,3.17805383034795,0.535716581449351,0.464283418550649,0.5,0.5,0.5,0.535716581449351,0.5,0.5,0.5,0.5,0.568881814517847,0.5,0.5,0.5,0.464283418550649,0.464283418550649,0.517242449377112,0.482757550622888,0.535716581449351,0.5,0.374301000798139,0.787796908569325,0.464283418550649,0.0331652330684952,0.5,0.0714331628987029,0.687718814566479,14.2082575471125,2.67404120633389,0.5,34.0608565432367
CBC_1015,CBC_1015_MSI_AV_v3_Vset2_Aset3_2023-06-25_15h52.10.699.csv,3,10,0,3,z,0,1,3,aud,D,9,1,0D,3D,0,1,z,1.91363459999775,0,1,1,1,3D,0D,D03,3.2188758248682,0.568881814517847,0.464283418550649,0.5,0.5,0.5,0.535716581449351,0.5,0.5,0.5,0.5,0.568881814517847,0.5,0.5,0.5,0.464283418550649,0.464283418550649,0.481480247009207,0.518519752990793,0.464283418550649,0.5,0.0780820753761801,0.195678381232623,0.535716581449351,0.0382679298302078,0.5,0.0714331628987029,0.687718814566479,14.2082575471125,2.67404120633389,0.5,34.0608565432367
CBC_1015,CBC_1015_MSI_AV_v3_Vset2_Aset3_2023-06-25_15h52.10.699.csv,3,11,3,2,z,0,1,0,aud,C,63,1,3C,2C,0,1,z,1.88266970000041,0,1,1,1,2C,3C,C32,3.25809653802148,0.568881814517847,0.464283418550649,0.5,0.5,0.5,0.535716581449351,0.5,0.5,0.5,0.5,0.568881814517847,0.5,0.5,0.5,0.464283418550649,0.502551348380856,0.532221436262772,0.467778563737228,0.568881814517847,0.5,0.395358868723939,0.920415556116491,0.431118185482153,0.0307961355721399,0.5,0.0714331628987029,0.687718814566479,14.2082575471125,2.67404120633389,0.5,34.0608565432367
CBC_1015,CBC_1015_MSI_AV_v3_Vset2_Aset3_2023-06-25_15h52.10.699.csv,3,12,1,0,b,1,0,1,aud,B,63,1,1B,0B,1,0,b,1.8563768999993,1,0,1,1,1B,0B,B10,2.60268968544438,0.568881814517847,0.464283418550649,0.5,0.5,0.5,0.535716581449351,0.5,0.5,0.5,0.5,0.599677950089986,0.5,0.5,0.5,0.464283418550649,0.502551348380856,0.517242449377112,0.482757550622888,0.535716581449351,0.5,0.326990240383788,0.788178875670367,0.464283418550649,0.0331652330684952,0.5,0.0714331628987029,0.687718814566479,14.2082575471125,2.67404120633389,0.5,34.0608565432367
CBC_1015,CBC_1015_MSI_AV_v3_Vset2_Aset3_2023-06-25_15h52.10.699.csv,3,13,3,2,b,1,0,3,aud,D,63,1,3D,2D,1,0,b,1.84283860000141,1,0,1,1,3D,2D,D32,2.63905732961526,0.568881814517847,0.464283418550649,0.5,0.5,0.5,0.568881814517847,0.5,0.5,0.5,0.5,0.599677950089986,0.5,0.5,0.5,0.464283418550649,0.502551348380856,0.519790315335712,0.480209684664288,0.502551348380856,0.464283418550649,0.34785769065762,0.817878842285853,0.497448651619144,0.0355343305648504,0.5,0.0714331628987029,0.687718814566479,14.2082575471125,2.67404120633389,0.5,34.0608565432367
CBC_1015,CBC_1015_MSI_AV_v3_Vset2_Aset3_2023-06-25_15h52.10.699.csv,3,14,3,2,z,0,1,0,aud,C,63,1,3C,2C,0,1,z,1.33511780000117,0,1,1,1,2C,3C,C32,2.67414864942653,0.568881814517847,0.464283418550649,0.5,0.5,0.5,0.568881814517847,0.5,0.5,0.5,0.5,0.599677950089986,0.5,0.5,0.5,0.464283418550649,0.538085678945707,0.545321428006186,0.454678571993814,0.599677950089986,0.5,0.842101760442151,0.969062460331804,0.400322049910014,0.0285962702031647,0.5,0.0714331628987029,0.687718814566479,14.2082575471125,2.67404120633389,0.5,34.0608565432367
CBC_1015,CBC_1015_MSI_AV_v3_Vset2_Aset3_2023-06-25_15h52.10.699.csv,3,15,1,3,b,1,0,1,aud,B,27,1,1B,3B,1,0,b,2.69954279999729,1,0,1,1,1B,3B,B13,3.40119738166216,0.568881814517847,0.464283418550649,0.5,0.5,0.5,0.568881814517847,0.5,0.5,0.5,0.5,0.628274220293151,0.5,0.5,0.5,0.464283418550649,0.538085678945707,0.532221436262772,0.467778563737228,0.568881814517847,0.5,0.16041443517262,0.920427549100772,0.431118185482153,0.0307961355721399,0.5,0.0714331628987029,0.687718814566479,14.2082575471125,2.67404120633389,0.5,34.0608565432367
CBC_1015,CBC_1015_MSI_AV_v3_Vset2_Aset3_2023-06-25_15h52.10.699.csv,3,16,3,0,z,0,1,2,aud,A,9,1,3A,0A,0,1,b,1.62584509999942,1,0,0,0,3A,0A,A30,3.43398720448515,0.568881814517847,0.464283418550649,0.5,0.5,0.5,0.599677950089986,0.5,0.5,0.5,0.5,0.628274220293151,0.5,0.5,0.5,0.464283418550649,0.538085678945707,0.467778563737228,0.532221436262772,0.5,0.568881814517847,0.0449692475056418,0.0797866704028725,-0.5,-0.0357165814493515,0.5,0.0714331628987029,0.687718814566479,14.2082575471125,2.67404120633389,0.5,34.0608565432367
CBC_1015,CBC_1015_MSI_AV_v3_Vset2_Aset3_2023-06-25_15h52.10.699.csv,3,17,3,2,b,1,0,3,aud,D,63,1,3D,2D,1,0,b,1.73593999999866,1,0,1,1,3D,2D,D32,2.36712361413162,0.568881814517847,0.464283418550649,0.5,0.464283418550649,0.5,0.599677950089986,0.5,0.5,0.5,0.5,0.628274220293151,0.5,0.5,0.5,0.464283418550649,0.538085678945707,0.536813914444986,0.463186085555014,0.538085678945707,0.464283418550649,0.481925583017185,0.942549160271935,0.461914321054293,0.0329960009411151,0.5,0.0714331628987029,0.687718814566479,14.2082575471125,2.67404120633389,0.5,34.0608565432367
CBC_1015,CBC_1015_MSI_AV_v3_Vset2_Aset3_2023-06-25_15h52.10.699.csv,3,18,2,0,b,1,0,0,aud,C,27,1,2C,0C,1,0,b,0.873077999996895,1,0,1,1,2C,0C,C20,2.80336038090653,0.568881814517847,0.464283418550649,0.5,0.464283418550649,0.5,0.599677950089986,0.5,0.5,0.5,0.5,0.628274220293151,0.5,0.5,0.5,0.464283418550649,0.571081679886822,0.556845320927311,0.443154679072689,0.628274220293151,0.5,0.366252599795583,0.986868536840851,0.371725779706849,0.0265535481754467,0.5,0.0714331628987029,0.687718814566479,14.2082575471125,2.67404120633389,0.5,34.0608565432367
CBC_1015,CBC_1015_MSI_AV_v3_Vset2_Aset3_2023-06-25_15h52.10.699.csv,3,19,1,0,z,0,1,2,aud,A,63,1,1A,0A,0,1,z,1.41609320000134,0,1,1,1,0A,1A,A10,2.42774823594805,0.568881814517847,0.464283418550649,0.5,0.464283418550649,0.5,0.599677950089986,0.5,0.5,0.5,0.5,0.654827768468598,0.5,0.5,0.5,0.464283418550649,0.571081679886822,0.550620361883714,0.449379638116286,0.568881814517847,0.464283418550649,0.809912183054697,0.979066615800159,0.431118185482153,0.0307961355721399,0.5,0.0714331628987029,0.687718814566479,14.2082575471125,2.67404120633389,0.5,34.0608565432367
CBC_1015,CBC_1015_MSI_AV_v3_Vset2_Aset3_2023-06-25_15h52.10.699.csv,3,20,0,1,z,0,1,1,aud,B,63,0,0B,1B,1,0,z,1.64157819999673,0,1,1,0,1B,0B,B01,3.55534806148941,0.599677950089986,0.464283418550649,0.5,0.464283418550649,0.5,0.599677950089986,0.5,0.5,0.5,0.5,0.654827768468598,0.5,0.5,0.5,0.464283418550649,0.571081679886822,0.545321428006186,0.454678571993814,0.599677950089986,0.5,0.568172963616458,0.969159617239076,-0.599677950089986,-0.0428368926955383,0.5,0.0714331628987029,0.687718814566479,14.2082575471125,2.67404120633389,0.5,34.0608565432367
CBC_1015,CBC_1015_MSI_AV_v3_Vset2_Aset3_2023-06-25_15h52.10.699.csv,3,21,1,3,z,0,1,3,aud,D,27,1,1D,3D,0,1,z,1.48849080000218,0,1,1,1,3D,1D,D13,3.58351893845611,0.599677950089986,0.464283418550649,0.5,0.464283418550649,0.5,0.556841057394448,0.5,0.5,0.5,0.5,0.654827768468598,0.5,0.5,0.5,0.464283418550649,0.571081679886822,0.533182193861412,0.466817806138588,0.571081679886822,0.5,0.602702309223728,0.925868800726748,0.428918320113178,0.0306389922308827,0.5,0.0714331628987029,0.687718814566479,14.2082575471125,2.67404120633389,0.5,34.0608565432367
CBC_1015,CBC_1015_MSI_AV_v3_Vset2_Aset3_2023-06-25_15h52.10.699.csv,3,22,2,3,b,1,0,0,aud,C,63,1,2C,3C,1,0,b,1.246994000001,1,0,1,1,2C,3C,C23,2.91777073208428,0.599677950089986,0.464283418550649,0.5,0.464283418550649,0.5,0.556841057394448,0.5,0.5,0.5,0.5,0.654827768468598,0.5,0.5,0.5,0.464283418550649,0.601720672117705,0.567035004134821,0.432964995865179,0.654827768468598,0.5,1.19405108074469,0.99391221359402,0.345172231531402,0.0246567442430915,0.5,0.0714331628987029,0.687718814566479,14.2082575471125,2.67404120633389,0.5,34.0608565432367
CBC_1015,CBC_1015_MSI_AV_v3_Vset2_Aset3_2023-06-25_15h52.10.699.csv,3,23,1,0,b,1,0,1,aud,B,63,1,1B,0B,1,0,b,2.02961159999904,1,0,1,1,1B,0B,B10,2.53897387105828,0.599677950089986,0.464283418550649,0.5,0.464283418550649,0.5,0.556841057394448,0.5,0.5,0.5,0.5,0.679484512711689,0.5,0.5,0.5,0.464283418550649,0.601720672117705,0.526891961187894,0.473108038812106,0.556841057394448,0.5,0.325986774352534,0.884890635794659,0.443158942605552,0.0316562449371593,0.5,0.0714331628987029,0.687718814566479,14.2082575471125,2.67404120633389,0.5,34.0608565432367
CBC_1015,CBC_1015_MSI_AV_v3_Vset2_Aset3_2023-06-25_15h52.10.699.csv,3,24,2,0,z,0,1,2,aud,A,27,1,2A,0A,0,1,z,1.46015589999661,0,1,1,1,0A,2A,A20,3.66356164612965,0.599677950089986,0.464283418550649,0.5,0.464283418550649,0.5,0.588497302331608,0.5,0.5,0.5,0.5,0.679484512711689,0.5,0.5,0.5,0.464283418550649,0.601720672117705,0.545321428006186,0.454678571993814,0.599677950089986,0.5,0.728226226518253,0.969079024617155,0.400322049910014,0.0285962702031647,0.5,0.0714331628987029,0.687718814566479,14.2082575471125,2.67404120633389,0.5,34.0608565432367
CBC_1015,CBC_1015_MSI_AV_v3_Vset2_Aset3_2023-06-25_15h52.10.699.csv,3,25,2,3,z,0,1,3,aud,D,63,1,2D,3D,0,1,z,1.25674550000258,0,1,1,1,3D,2D,D23,2.99573227355399,0.628274220293151,0.464283418550649,0.5,0.464283418550649,0.5,0.588497302331608,0.5,0.5,0.5,0.5,0.679484512711689,0.5,0.5,0.5,0.464283418550649,0.601720672117705,0.564463755237978,0.435536244762022,0.601720672117705,0.464283418550649,1.15158242814064,0.992609480146346,0.398279327882295,0.0284503521078019,0.5,0.0714331628987029,0.687718814566479,14.2082575471125,2.67404120633389,0.5,34.0608565432367
CBC_1015,CBC_1015_MSI_AV_v3_Vset2_Aset3_2023-06-25_15h52.10.699.csv,3,26,2,0,b,1,0,0,aud,C,27,1,2C,0C,1,0,b,1.57212289999734,1,0,1,1,2C,0C,C20,2.6149597780362,0.628274220293151,0.464283418550649,0.5,0.464283418550649,0.5,0.588497302331608,0.5,0.5,0.5,0.5,0.679484512711689,0.5,0.5,0.5,0.464283418550649,0.630171024225506,0.576085998068362,0.423914001931638,0.679484512711689,0.5,0.531237326462431,0.99693082469975,0.320515487288311,0.022895435015023,0.5,0.0714331628987029,0.687718814566479,14.2082575471125,2.67404120633389,0.5,34.0608565432367
CBC_1015,CBC_1015_MSI_AV_v3_Vset2_Aset3_2023-06-25_15h52.10.699.csv,3,27,1,0,b,1,0,1,aud,B,63,1,1B,0B,1,0,b,0.831605399998807,1,0,1,1,1B,0B,B10,2.35137525716348,0.628274220293151,0.464283418550649,0.5,0.464283418550649,0.5,0.588497302331608,0.5,0.5,0.5,0.5,0.702379947726712,0.5,0.5,0.5,0.464283418550649,0.630171024225506,0.540651135350562,0.459348864649438,0.588497302331608,0.5,0.0833952622604716,0.956404444457958,0.411502697668392,0.029394939235802,0.5,0.0714331628987029,0.687718814566479,14.2082575471125,2.67404120633389,0.5,34.0608565432367
CBC_1015,CBC_1015_MSI_AV_v3_Vset2_Aset3_2023-06-25_15h52.10.699.csv,3,28,0,1,b,1,0,2,aud,A,63,1,0A,1A,1,0,b,1.59616040000037,1,0,1,1,0A,1A,A01,3.76120011569356,0.628274220293151,0.464283418550649,0.5,0.464283418550649,0.5,0.61789224156741,0.5,0.5,0.5,0.5,0.702379947726712,0.5,0.5,0.5,0.464283418550649,0.630171024225506,0.575049039021889,0.424950960978111,0.628274220293151,0.464283418550649,0.504960162685329,0.996663933647512,0.371725779706849,0.0265535481754467,0.5,0.0714331628987029,0.687718814566479,14.2082575471125,2.67404120633389,0.5,34.0608565432367
CBC_1015,CBC_1015_MSI_AV_v3_Vset2_Aset3_2023-06-25_15h52.10.699.csv,3,29,3,2,z,0,1,0,aud,C,63,0,3C,2C,1,0,z,1.53224969999792,0,1,1,0,2C,3C,C32,2.68557734525015,0.654827768468598,0.464283418550649,0.5,0.464283418550649,0.5,0.61789224156741,0.5,0.5,0.5,0.5,0.702379947726712,0.5,0.5,0.5,0.464283418550649,0.630171024225506,0.584158068383186,0.415841931616814,0.702379947726712,0.5,0.521027121340981,0.998335247613843,-0.702379947726712,-0.0501732212227447,0.5,0.0714331628987029,0.687718814566479,14.2082575471125,2.67404120633389,0.5,34.0608565432367
CBC_1015,CBC_1015_MSI_AV_v3_Vset2_Aset3_2023-06-25_15h52.10.699.csv,3,30,3,1,b,1,0,3,aud,D,27,1,3D,1D,1,0,b,1.9412747000024,1,0,1,1,3D,1D,D31,3.80666248977032,0.654827768468598,0.464283418550649,0.5,0.464283418550649,0.5,0.61789224156741,0.5,0.5,0.5,0.5,0.652206726503968,0.5,0.5,0.5,0.464283418550649,0.630171024225506,0.557589082287219,0.442410917712781,0.630171024225506,0.5,0.307447679200322,0.987505410607484,0.369828975774494,0.0264180534711599,0.5,0.0714331628987029,0.687718814566479,14.2082575471125,2.67404120633389,0.5,34.0608565432367
CBC_1015,CBC_1015_MSI_AV_v3_Vset2_Aset3_2023-06-25_15h52.10.699.csv,3,31,1,0,z,0,1,2,aud,A,63,1,1A,0A,0,1,z,1.49451260000205,0,1,1,1,0A,1A,A10,2.4423470353692,0.654827768468598,0.464283418550649,0.5,0.464283418550649,0.5,0.61789224156741,0.5,0.5,0.5,0.5,0.652206726503968,0.5,0.5,0.5,0.464283418550649,0.656589077696666,0.585132001238172,0.414867998761828,0.654827768468598,0.464283418550649,0.58278828787152,0.998443682430354,0.345172231531402,0.0246567442430915,0.5,0.0714331628987029,0.687718814566479,14.2082575471125,2.67404120633389,0.5,34.0608565432367
CBC_1015,CBC_1015_MSI_AV_v3_Vset2_Aset3_2023-06-25_15h52.10.699.csv,3,32,3,2,b,1,0,3,aud,D,63,1,3D,2D,1,0,b,1.90210989999832,1,0,1,1,3D,2D,D32,2.46385324059017,0.679484512711689,0.464283418550649,0.5,0.464283418550649,0.5,0.61789224156741,0.5,0.5,0.5,0.5,0.652206726503968,0.5,0.5,0.5,0.464283418550649,0.656589077696666,0.585783913776927,0.414216086223073,0.656589077696666,0.464283418550649,0.133221758377948,0.99853254856051,0.343410922303334,0.0245309283540879,0.5,0.0714331628987029,0.687718814566479,14.2082575471125,2.67404120633389,0.5,34.0608565432367
CBC_1015,CBC_1015_MSI_AV_v3_Vset2_Aset3_2023-06-25_15h52.10.699.csv,3,33,2,1,z,0,1,1,aud,B,9,1,2B,1B,0,1,z,1.13546700000006,0,1,1,1,1B,2B,B21,3.87120101090789,0.679484512711689,0.464283418550649,0.5,0.464283418550649,0.5,0.61789224156741,0.5,0.5,0.5,0.5,0.652206726503968,0.5,0.5,0.5,0.464283418550649,0.681120006050754,0.55272969843771,0.44727030156229,0.61789224156741,0.5,1.08406732539857,0.982092179094891,0.38210775843259,0.0272951657529735,0.5,0.0714331628987029,0.687718814566479,14.2082575471125,2.67404120633389,0.5,34.0608565432367
CBC_1015,CBC_1015_MSI_AV_v3_Vset2_Aset3_2023-06-25_15h52.10.699.csv,3,34,1,0,z,0,1,2,aud,A,63,1,1A,0A,0,1,z,1.50087050000002,0,1,1,1,0A,1A,A10,2.28238238567653,0.679484512711689,0.464283418550649,0.5,0.464283418550649,0.5,0.645187407320383,0.5,0.5,0.5,0.5,0.652206726503968,0.5,0.5,0.5,0.464283418550649,0.681120006050754,0.594075506175248,0.405924493824752,0.679484512711689,0.464283418550649,0.47238358444046,0.999216402089426,0.320515487288311,0.022895435015023,0.5,0.0714331628987029,0.687718814566479,14.2082575471125,2.67404120633389,0.5,34.0608565432367
CBC_1015,CBC_1015_MSI_AV_v3_Vset2_Aset3_2023-06-25_15h52.10.699.csv,3,35,2,1,b,1,0,0,aud,C,9,1,2C,1C,1,0,b,1.69454219999898,1,0,1,1,2C,1C,C21,3.91202300542815,0.702379947726712,0.464283418550649,0.5,0.464283418550649,0.5,0.645187407320383,0.5,0.5,0.5,0.5,0.652206726503968,0.5,0.5,0.5,0.464283418550649,0.681120006050754,0.566050094571915,0.433949905428085,0.652206726503968,0.5,0.452332736546051,0.993446583231241,0.347793273496032,0.0248439735607152,0.5,0.0714331628987029,0.687718814566479,14.2082575471125,2.67404120633389,0.5,34.0608565432367
CBC_1015,CBC_1015_MSI_AV_v3_Vset2_Aset3_2023-06-25_15h52.10.699.csv,3,36,1,0,b,1,0,1,aud,B,63,1,1B,0B,1,0,b,1.0045192999969,1,0,1,1,1B,0B,B10,2.32238772029023,0.702379947726712,0.464283418550649,0.5,0.464283418550649,0.5,0.645187407320383,0.5,0.5,0.5,0.5,0.677050700064683,0.5,0.5,0.5,0.464283418550649,0.681120006050754,0.563390239183692,0.436609760816308,0.645187407320383,0.5,1.18467924976377,0.991991289990262,0.354812592679617,0.0253453857313942,0.5,0.0714331628987029,0.687718814566479,14.2082575471125,2.67404120633389,0.5,34.0608565432367
CBC_1015,CBC_1015_MSI_AV_v3_Vset2_Aset3_2023-06-25_15h52.10.699.csv,3,37,0,1,b,1,0,2,aud,A,63,0,0A,1A,0,1,b,1.06808900000033,1,0,1,0,0A,1A,A01,3.25809653802148,0.702379947726712,0.464283418550649,0.5,0.464283418550649,0.5,0.670532793051777,0.5,0.5,0.5,0.5,0.677050700064683,0.5,0.5,0.5,0.464283418550649,0.681120006050754,0.602041658313054,0.397958341686946,0.702379947726712,0.464283418550649,2.11546760491788,0.999570489236014,-0.702379947726712,-0.0501732212227447,0.5,0.0714331628987029,0.687718814566479,14.2082575471125,2.67404120633389,0.5,34.0608565432367
CBC_1015,CBC_1015_MSI_AV_v3_Vset2_Aset3_2023-06-25_15h52.10.699.csv,3,38,0,1,z,0,1,1,aud,B,63,1,0B,1B,0,1,z,1.37136889999601,0,1,1,1,1B,0B,B01,3.27714473299218,0.652206726503968,0.464283418550649,0.5,0.464283418550649,0.5,0.670532793051777,0.5,0.5,0.5,0.5,0.677050700064683,0.5,0.5,0.5,0.464283418550649,0.681120006050754,0.572844090342471,0.427155909657529,0.670532793051777,0.5,0.93939230535476,0.996062234860569,0.329467206948223,0.0235348846637131,0.5,0.0714331628987029,0.687718814566479,14.2082575471125,2.67404120633389,0.5,34.0608565432367
CBC_1015,CBC_1015_MSI_AV_v3_Vset2_Aset3_2023-06-25_15h52.10.699.csv,3,39,1,3,z,0,1,3,aud,D,27,1,1D,3D,0,1,z,1.29514090000157,0,1,1,1,3D,1D,D13,3.29583686600433,0.652206726503968,0.464283418550649,0.5,0.464283418550649,0.5,0.69406767771549,0.5,0.5,0.5,0.5,0.677050700064683,0.5,0.5,0.5,0.464283418550649,0.681120006050754,0.576672990518701,0.423327009481299,0.681120006050754,0.5,1.12649750794201,0.997051361505151,0.318879993949246,0.0227786065529139,0.5,0.0714331628987029,0.687718814566479,14.2082575471125,2.67404120633389,0.5,34.0608565432367
CBC_1015,CBC_1015_MSI_AV_v3_Vset2_Aset3_2023-06-25_15h52.10.699.csv,3,40,3,2,z,0,1,0,aud,C,63,1,3C,2C,0,1,z,1.1238615000002,0,1,1,1,2C,3C,C32,2.62103882411258,0.652206726503968,0.464283418550649,0.5,0.464283418550649,0.5,0.69406767771549,0.5,0.5,0.5,0.5,0.677050700064683,0.5,0.5,0.5,0.464283418550649,0.703898612603668,0.575209462113634,0.424790537886366,0.677050700064683,0.5,1.53384442424979,0.996704549203234,0.322949299935317,0.0230692899503016,0.5,0.0714331628987029,0.687718814566479,14.2082575471125,2.67404120633389,0.5,34.0608565432367
CBC_1015,CBC_1015_MSI_AV_v3_Vset2_Aset3_2023-06-25_15h52.10.699.csv,3,41,0,2,b,1,0,2,aud,A,27,1,0A,2A,1,0,b,1.02735769999708,1,0,1,1,0A,2A,A02,3.3322045101752,0.652206726503968,0.464283418550649,0.5,0.464283418550649,0.5,0.69406767771549,0.5,0.5,0.5,0.5,0.700119990014984,0.5,0.5,0.5,0.464283418550649,0.703898612603668,0.566050094571915,0.433949905428085,0.652206726503968,0.5,1.31140624854912,0.993437132914406,0.347793273496032,0.0248439735607152,0.5,0.0714331628987029,0.687718814566479,14.2082575471125,2.67404120633389,0.5,34.0608565432367
CBC_1015,CBC_1015_MSI_AV_v3_Vset2_Aset3_2023-06-25_15h52.10.699.csv,3,42,2,3,z,0,1,3,aud,D,63,1,2D,3D,0,1,z,1.03121200000169,0,1,1,1,3D,2D,D23,2.94443897916644,0.677050700064683,0.464283418550649,0.5,0.464283418550649,0.5,0.69406767771549,0.5,0.5,0.5,0.5,0.700119990014984,0.5,0.5,0.5,0.464283418550649,0.703898612603668,0.60255901377641,0.39744098622359,0.703898612603668,0.464283418550649,2.24728360889938,0.999586387172438,0.296101387396332,0.0211514586404141,0.5,0.0714331628987029,0.687718814566479,14.2082575471125,2.67404120633389,0.5,34.0608565432367
CBC_1015,CBC_1015_MSI_AV_v3_Vset2_Aset3_2023-06-25_15h52.10.699.csv,3,43,1,3,b,1,0,1,aud,B,27,1,1B,3B,1,0,b,0.913490000002639,1,0,1,1,1B,3B,B13,3.36729582998647,0.677050700064683,0.464283418550649,0.5,0.464283418550649,0.5,0.69406767771549,0.5,0.5,0.5,0.5,0.700119990014984,0.5,0.5,0.5,0.464283418550649,0.725050071244082,0.581263265616059,0.418736734383941,0.69406767771549,0.5,1.13928293356641,0.997923139492873,0.30593232228451,0.0218537134137279,0.5,0.0714331628987029,0.687718814566479,14.2082575471125,2.67404120633389,0.5,34.0608565432367
CBC_1015,CBC_1015_MSI_AV_v3_Vset2_Aset3_2023-06-25_15h52.10.699.csv,3,44,3,2,z,0,1,0,aud,C,63,1,3C,2C,0,1,z,1.18031119999796,0,1,1,1,2C,3C,C32,2.46809953147162,0.677050700064683,0.464283418550649,0.5,0.464283418550649,0.5,0.715921391129218,0.5,0.5,0.5,0.5,0.700119990014984,0.5,0.5,0.5,0.464283418550649,0.725050071244082,0.583374992367424,0.416625007632576,0.700119990014984,0.5,1.49868630741791,0.99823892475467,0.299880009985016,0.0214213776033243,0.5,0.0714331628987029,0.687718814566479,14.2082575471125,2.67404120633389,0.5,34.0608565432367
CBC_1015,CBC_1015_MSI_TV_v3_Vset5_Tset2_2023-06-25_16h00.28.888.csv,4,1,3,1,z,0,1,1,tac,B,27,1,3B,1B,0,1,b,2.43882049999957,1,0,0,0,3B,1B,B31,2.77258872223978,0.5,0.5,0.5,0.5,0.5,0.5,0.5,0.5,0.5,0.5,0.5,0.5,0.5,0.5,0.5,0.5,0.5,0.5,0.5,0.5,0.16894552651264,0.499584645382692,-0.5,-0.104159416332933,0.5,0.208318832665867,1.05622047023501,0.634932050334376,2.65410234723471,0.5,82.7403646120708
CBC_1015,CBC_1015_MSI_TV_v3_Vset5_Tset2_2023-06-25_16h00.28.888.csv,4,2,2,3,b,1,0,0,tac,C,63,1,2C,3C,1,0,z,1.48763870000039,0,1,0,0,3C,2C,C23,2.83321334405622,0.5,0.5,0.5,0.5,0.5,0.5,0.5,0.395840583667067,0.5,0.5,0.5,0.5,0.5,0.5,0.5,0.5,0.5,0.5,0.5,0.5,0.242412453290473,0.4994335579122,-0.5,-0.104159416332933,0.5,0.208318832665867,1.05622047023501,0.634932050334376,2.65410234723471,0.5,82.7403646120708
CBC_1015,CBC_1015_MSI_TV_v3_Vset5_Tset2_2023-06-25_16h00.28.888.csv,4,3,2,3,z,0,1,3,tac,D,63,1,2D,3D,0,1,b,2.39299849999952,1,0,0,0,2D,3D,D23,2.89037175789616,0.5,0.5,0.5,0.5,0.5,0.5,0.5,0.395840583667067,0.5,0.5,0.5,0.395840583667067,0.5,0.5,0.5,0.5,0.5,0.5,0.5,0.5,0.174626840948504,0.500261676852097,-0.5,-0.104159416332933,0.5,0.208318832665867,1.05622047023501,0.634932050334376,2.65410234723471,0.5,82.7403646120708
CBC_1015,CBC_1015_MSI_TV_v3_Vset5_Tset2_2023-06-25_16h00.28.888.csv,4,4,1,0,b,1,0,1,tac,B,63,1,1B,0B,1,0,z,2.3995292000036,0,1,0,0,0B,1B,B10,2.94443897916644,0.5,0.5,0.5,0.5,0.5,0.5,0.5,0.395840583667067,0.5,0.5,0.5,0.395840583667067,0.5,0.5,0.395840583667067,0.5,0.5,0.5,0.5,0.5,0.173815596948543,0.500190851854203,-0.5,-0.104159416332933,0.5,0.208318832665867,1.05622047023501,0.634932050334376,2.65410234723471,0.5,82.7403646120708
CBC_1015,CBC_1015_MSI_TV_v3_Vset5_Tset2_2023-06-25_16h00.28.888.csv,4,5,3,0,z,0,1,2,tac,A,9,1,3A,0A,0,1,b,2.75897629999963,1,0,0,0,3A,0A,A30,2.99573227355399,0.5,0.5,0.5,0.5,0.395840583667067,0.5,0.5,0.395840583667067,0.5,0.5,0.5,0.395840583667067,0.5,0.5,0.395840583667067,0.5,0.5,0.5,0.5,0.5,0.135311142703183,0.500186292683898,-0.5,-0.104159416332933,0.5,0.208318832665867,1.05622047023501,0.634932050334376,2.65410234723471,0.5,82.7403646120708
CBC_1015,CBC_1015_MSI_TV_v3_Vset5_Tset2_2023-06-25_16h00.28.888.csv,4,6,2,3,z,0,1,3,tac,D,63,1,2D,3D,0,1,b,2.43948430000091,1,0,0,0,2D,3D,D23,2.35137525716348,0.5,0.5,0.5,0.395840583667067,0.395840583667067,0.5,0.5,0.395840583667067,0.5,0.5,0.5,0.395840583667067,0.5,0.5,0.395840583667067,0.5,0.441864982323884,0.558135017676116,0.395840583667067,0.5,0.152590139977307,0.45096327340925,-0.395840583667067,-0.0824610483112986,0.5,0.208318832665867,1.05622047023501,0.634932050334376,2.65410234723471,0.5,82.7403646120708
CBC_1015,CBC_1015_MSI_TV_v3_Vset5_Tset2_2023-06-25_16h00.28.888.csv,4,7,2,0,b,1,0,0,tac,C,27,1,2C,0C,1,0,b,2.42886870000075,1,0,1,1,2C,0C,C20,3.09104245335832,0.5,0.5,0.5,0.395840583667067,0.395840583667067,0.5,0.5,0.395840583667067,0.5,0.5,0.5,0.395840583667067,0.5,0.5,0.313379535355768,0.5,0.5,0.5,0.5,0.5,0.170413814221789,0.500462683235725,0.5,0.104159416332933,0.5,0.208318832665867,1.05622047023501,0.634932050334376,2.65410234723471,0.5,82.7403646120708
CBC_1015,CBC_1015_MSI_TV_v3_Vset5_Tset2_2023-06-25_16h00.28.888.csv,4,8,1,0,z,0,1,2,tac,A,63,1,1A,0A,0,1,z,2.66917680000188,0,1,1,1,0A,1A,A10,3.13549421592915,0.5,0.5,0.5,0.395840583667067,0.395840583667067,0.5,0.5,0.395840583667067,0.5,0.5,0.604159416332933,0.395840583667067,0.5,0.5,0.313379535355768,0.5,0.5,0.5,0.5,0.5,0.143993257765093,0.499897270099131,0.5,0.104159416332933,0.5,0.208318832665867,1.05622047023501,0.634932050334376,2.65410234723471,0.5,82.7403646120708
CBC_1015,CBC_1015_MSI_TV_v3_Vset5_Tset2_2023-06-25_16h00.28.888.csv,4,9,0,1,z,0,1,1,tac,B,63,1,0B,1B,0,1,b,2.28324070000235,1,0,0,0,0B,1B,B01,3.17805383034795,0.604159416332933,0.5,0.5,0.395840583667067,0.395840583667067,0.5,0.5,0.395840583667067,0.5,0.5,0.604159416332933,0.395840583667067,0.5,0.5,0.313379535355768,0.5,0.441864982323884,0.558135017676116,0.395840583667067,0.5,0.170152621744567,0.451364319854586,-0.395840583667067,-0.0824610483112986,0.5,0.208318832665867,1.05622047023501,0.634932050334376,2.65410234723471,0.5,82.7403646120708
CBC_1015,CBC_1015_MSI_TV_v3_Vset5_Tset2_2023-06-25_16h00.28.888.csv,4,10,3,1,b,1,0,3,tac,D,27,1,3D,1D,1,0,b,3.30679750000127,1,0,1,1,3D,1D,D31,3.2188758248682,0.604159416332933,0.5,0.5,0.395840583667067,0.313379535355768,0.5,0.5,0.395840583667067,0.5,0.5,0.604159416332933,0.395840583667067,0.5,0.5,0.313379535355768,0.5,0.5,0.5,0.5,0.5,0.0920323838541825,0.499252182702063,0.5,0.104159416332933,0.5,0.208318832665867,1.05622047023501,0.634932050334376,2.65410234723471,0.5,82.7403646120708
CBC_1015,CBC_1015_MSI_TV_v3_Vset5_Tset2_2023-06-25_16h00.28.888.csv,4,11,2,3,b,1,0,0,tac,C,63,1,2C,3C,1,0,b,1.77185180000379,1,0,1,1,2C,3C,C23,2.56494935746154,0.604159416332933,0.5,0.5,0.395840583667067,0.313379535355768,0.5,0.5,0.395840583667067,0.5,0.5,0.604159416332933,0.395840583667067,0.5,0.5,0.313379535355768,0.604159416332933,0.604159416332933,0.395840583667067,0.604159416332933,0.395840583667067,0.302472778996912,0.586690232822854,0.395840583667067,0.0824610483112986,0.5,0.208318832665867,1.05622047023501,0.634932050334376,2.65410234723471,0.5,82.7403646120708
CBC_1015,CBC_1015_MSI_TV_v3_Vset5_Tset2_2023-06-25_16h00.28.888.csv,4,12,0,1,z,0,1,1,tac,B,63,1,0B,1B,0,1,b,2.7398912000026,1,0,0,0,0B,1B,B01,2.60268968544438,0.604159416332933,0.5,0.5,0.395840583667067,0.313379535355768,0.5,0.5,0.395840583667067,0.5,0.5,0.686620464644232,0.395840583667067,0.5,0.5,0.313379535355768,0.604159416332933,0.385280821232732,0.614719178767268,0.313379535355768,0.5,0.110858820538758,0.404076377695838,-0.313379535355768,-0.0652828589866853,0.5,0.208318832665867,1.05622047023501,0.634932050334376,2.65410234723471,0.5,82.7403646120708
CBC_1015,CBC_1015_MSI_TV_v3_Vset5_Tset2_2023-06-25_16h00.28.888.csv,4,13,1,0,z,0,1,2,tac,A,63,1,1A,0A,0,1,z,2.60757100000046,0,1,1,1,0A,1A,A10,2.63905732961526,0.604159416332933,0.5,0.5,0.395840583667067,0.248096676369083,0.5,0.5,0.395840583667067,0.5,0.5,0.686620464644232,0.395840583667067,0.5,0.5,0.313379535355768,0.604159416332933,0.547166837864256,0.452833162135744,0.604159416332933,0.5,0.162304442551178,0.539546284752203,0.395840583667067,0.0824610483112986,0.5,0.208318832665867,1.05622047023501,0.634932050334376,2.65410234723471,0.5,82.7403646120708
CBC_1015,CBC_1015_MSI_TV_v3_Vset5_Tset2_2023-06-25_16h00.28.888.csv,4,14,2,1,b,1,0,0,tac,C,9,1,2C,1C,1,0,b,3.25271699999939,1,0,1,1,2C,1C,C21,3.36729582998647,0.686620464644232,0.5,0.5,0.395840583667067,0.248096676369083,0.5,0.5,0.395840583667067,0.5,0.5,0.686620464644232,0.395840583667067,0.5,0.5,0.313379535355768,0.604159416332933,0.578635279857652,0.421364720142348,0.686620464644232,0.5,0.107912284243368,0.564834846320452,0.313379535355768,0.0652828589866853,0.5,0.208318832665867,1.05622047023501,0.634932050334376,2.65410234723471,0.5,82.7403646120708
CBC_1015,CBC_1015_MSI_TV_v3_Vset5_Tset2_2023-06-25_16h00.28.888.csv,4,15,0,1,b,1,0,2,tac,A,63,1,0A,1A,1,0,b,3.64799470000071,1,0,1,1,0A,1A,A01,3.40119738166216,0.686620464644232,0.5,0.5,0.395840583667067,0.248096676369083,0.5,0.5,0.395840583667067,0.5,0.5,0.751903323630917,0.395840583667067,0.5,0.5,0.313379535355768,0.604159416332933,0.578635279857652,0.421364720142348,0.686620464644232,0.5,0.0818137636674653,0.566012339346006,0.313379535355768,0.0652828589866853,0.5,0.208318832665867,1.05622047023501,0.634932050334376,2.65410234723471,0.5,82.7403646120708
CBC_1015,CBC_1015_MSI_TV_v3_Vset5_Tset2_2023-06-25_16h00.28.888.csv,4,16,1,3,z,0,1,3,tac,D,27,1,1D,3D,0,1,b,1.98583770000187,1,0,0,0,1D,3D,D13,3.43398720448515,0.751903323630917,0.5,0.5,0.395840583667067,0.248096676369083,0.5,0.5,0.395840583667067,0.5,0.5,0.751903323630917,0.395840583667067,0.5,0.5,0.313379535355768,0.604159416332933,0.452833162135744,0.547166837864256,0.5,0.604159416332933,0.211052427571963,0.460696288544123,-0.5,-0.104159416332933,0.5,0.208318832665867,1.05622047023501,0.634932050334376,2.65410234723471,0.5,82.7403646120708
CBC_1015,CBC_1015_MSI_TV_v3_Vset5_Tset2_2023-06-25_16h00.28.888.csv,4,17,1,0,b,1,0,1,tac,B,63,1,1B,0B,1,0,b,2.70182110000314,1,0,1,1,1B,0B,B10,2.77258872223978,0.751903323630917,0.5,0.5,0.395840583667067,0.248096676369083,0.5,0.5,0.395840583667067,0.5,0.5,0.751903323630917,0.395840583667067,0.5,0.395840583667067,0.313379535355768,0.604159416332933,0.668362814318024,0.331637185681976,0.5,0.248096676369083,0.179799429091338,0.63727349767565,0.5,0.104159416332933,0.5,0.208318832665867,1.05622047023501,0.634932050334376,2.65410234723471,0.5,82.7403646120708
CBC_1015,CBC_1015_MSI_TV_v3_Vset5_Tset2_2023-06-25_16h00.28.888.csv,4,18,3,2,z,0,1,0,tac,C,63,0,3C,2C,1,0,z,2.3114327000003,0,1,1,0,2C,3C,C32,3.49650756146648,0.751903323630917,0.5,0.5,0.395840583667067,0.248096676369083,0.604159416332933,0.5,0.395840583667067,0.5,0.5,0.751903323630917,0.395840583667067,0.5,0.395840583667067,0.313379535355768,0.604159416332933,0.655114193026776,0.344885806973224,0.751903323630917,0.395840583667067,0.233854707547605,0.627431627690506,-0.751903323630917,-0.156635622656378,0.5,0.208318832665867,1.05622047023501,0.634932050334376,2.65410234723471,0.5,82.7403646120708
CBC_1015,CBC_1015_MSI_TV_v3_Vset5_Tset2_2023-06-25_16h00.28.888.csv,4,19,0,2,b,1,0,2,tac,A,27,1,0A,2A,1,0,b,3.12627550000252,1,0,1,1,0A,2A,A02,3.52636052461616,0.751903323630917,0.5,0.5,0.395840583667067,0.248096676369083,0.604159416332933,0.5,0.395840583667067,0.5,0.5,0.595267700974539,0.395840583667067,0.5,0.395840583667067,0.313379535355768,0.604159416332933,0.600608137575798,0.399391862424202,0.751903323630917,0.5,0.121692926676302,0.58322188413568,0.248096676369083,0.0516832100094886,0.5,0.208318832665867,1.05622047023501,0.634932050334376,2.65410234723471,0.5,82.7403646120708
CBC_1015,CBC_1015_MSI_TV_v3_Vset5_Tset2_2023-06-25_16h00.28.888.csv,4,20,2,3,z,0,1,3,tac,D,63,1,2D,3D,0,1,b,2.8379160000004,1,0,0,0,2D,3D,D23,2.4567357728213,0.803586533640406,0.5,0.5,0.395840583667067,0.248096676369083,0.604159416332933,0.5,0.395840583667067,0.5,0.5,0.595267700974539,0.395840583667067,0.5,0.395840583667067,0.313379535355768,0.604159416332933,0.341543576737536,0.658456423262464,0.313379535355768,0.604159416332933,0.0946043181254201,0.369872369918299,-0.313379535355768,-0.0652828589866853,0.5,0.208318832665867,1.05622047023501,0.634932050334376,2.65410234723471,0.5,82.7403646120708
CBC_1015,CBC_1015_MSI_TV_v3_Vset5_Tset2_2023-06-25_16h00.28.888.csv,4,21,1,3,b,1,0,1,tac,B,27,1,1B,3B,1,0,b,2.37343660000261,1,0,1,1,1B,3B,B13,3.58351893845611,0.803586533640406,0.5,0.5,0.395840583667067,0.248096676369083,0.604159416332933,0.5,0.395840583667067,0.5,0.5,0.595267700974539,0.395840583667067,0.5,0.395840583667067,0.248096676369083,0.604159416332933,0.604159416332933,0.395840583667067,0.604159416332933,0.395840583667067,0.20827910960348,0.586447066259667,0.395840583667067,0.0824610483112986,0.5,0.208318832665867,1.05622047023501,0.634932050334376,2.65410234723471,0.5,82.7403646120708
CBC_1015,CBC_1015_MSI_TV_v3_Vset5_Tset2_2023-06-25_16h00.28.888.csv,4,22,2,3,b,1,0,0,tac,C,63,1,2C,3C,1,0,z,3.58931819999998,0,1,0,0,3C,2C,C23,2.51230562397611,0.803586533640406,0.5,0.5,0.395840583667067,0.248096676369083,0.686620464644232,0.5,0.395840583667067,0.5,0.5,0.595267700974539,0.395840583667067,0.5,0.395840583667067,0.248096676369083,0.604159416332933,0.399391862424202,0.600608137575798,0.395840583667067,0.595267700974539,0.0625600927215982,0.416272206148076,-0.395840583667067,-0.0824610483112986,0.5,0.208318832665867,1.05622047023501,0.634932050334376,2.65410234723471,0.5,82.7403646120708
CBC_1015,CBC_1015_MSI_TV_v3_Vset5_Tset2_2023-06-25_16h00.28.888.csv,4,23,1,0,z,0,1,2,tac,A,63,1,1A,0A,0,1,z,2.63261110000167,0,1,1,1,0A,1A,A10,2.53897387105828,0.803586533640406,0.5,0.5,0.395840583667067,0.248096676369083,0.686620464644232,0.5,0.395840583667067,0.5,0.5,0.595267700974539,0.313379535355768,0.5,0.395840583667067,0.248096676369083,0.604159416332933,0.616442800614321,0.38355719938568,0.803586533640406,0.5,0.176781534323522,0.597115320721441,0.196413466359594,0.0409166240318871,0.5,0.208318832665867,1.05622047023501,0.634932050334376,2.65410234723471,0.5,82.7403646120708
CBC_1015,CBC_1015_MSI_TV_v3_Vset5_Tset2_2023-06-25_16h00.28.888.csv,4,24,1,2,b,1,0,1,tac,B,9,1,1B,2B,1,0,b,3.5651663000026,1,0,1,1,1B,2B,B12,3.66356164612965,0.844503157672293,0.5,0.5,0.395840583667067,0.248096676369083,0.686620464644232,0.5,0.395840583667067,0.5,0.5,0.595267700974539,0.313379535355768,0.5,0.395840583667067,0.248096676369083,0.604159416332933,0.578635279857652,0.421364720142348,0.686620464644232,0.5,0.0867714109486413,0.566250580096011,0.313379535355768,0.0652828589866853,0.5,0.208318832665867,1.05622047023501,0.634932050334376,2.65410234723471,0.5,82.7403646120708
CBC_1015,CBC_1015_MSI_TV_v3_Vset5_Tset2_2023-06-25_16h00.28.888.csv,4,25,3,2,z,0,1,0,tac,C,63,1,3C,2C,0,1,z,2.32264399999985,0,1,1,1,2C,3C,C32,2.99573227355399,0.844503157672293,0.5,0.5,0.395840583667067,0.248096676369083,0.751903323630917,0.5,0.395840583667067,0.5,0.5,0.595267700974539,0.313379535355768,0.5,0.395840583667067,0.248096676369083,0.604159416332933,0.655114193026776,0.344885806973224,0.595267700974539,0.313379535355768,0.232149779884174,0.627772042589249,0.404732299025461,0.0843133600751564,0.5,0.208318832665867,1.05622047023501,0.634932050334376,2.65410234723471,0.5,82.7403646120708
CBC_1015,CBC_1015_MSI_TV_v3_Vset5_Tset2_2023-06-25_16h00.28.888.csv,4,26,3,2,b,1,0,3,tac,D,63,1,3D,2D,1,0,b,2.65547820000211,1,0,1,1,3D,2D,D32,3.71357206670431,0.844503157672293,0.5,0.5,0.395840583667067,0.248096676369083,0.751903323630917,0.5,0.395840583667067,0.5,0.5,0.679581061049696,0.313379535355768,0.5,0.395840583667067,0.248096676369083,0.604159416332933,0.708894217954476,0.291105782045524,0.604159416332933,0.248096676369083,0.195443650615611,0.669068780736218,0.395840583667067,0.0824610483112986,0.5,0.208318832665867,1.05622047023501,0.634932050334376,2.65410234723471,0.5,82.7403646120708
CBC_1015,CBC_1015_MSI_TV_v3_Vset5_Tset2_2023-06-25_16h00.28.888.csv,4,27,1,0,b,1,0,1,tac,B,63,1,1B,0B,1,0,z,2.22857990000193,0,1,0,0,0B,1B,B10,2.63905732961526,0.844503157672293,0.5,0.5,0.395840583667067,0.248096676369083,0.751903323630917,0.5,0.395840583667067,0.5,0.5,0.679581061049696,0.313379535355768,0.5,0.395840583667067,0.248096676369083,0.686620464644232,0.248096676369083,0.751903323630917,0.248096676369083,0.751903323630917,0.120565824330836,0.300266591842476,-0.248096676369083,-0.0516832100094886,0.5,0.208318832665867,1.05622047023501,0.634932050334376,2.65410234723471,0.5,82.7403646120708
CBC_1015,CBC_1015_MSI_TV_v3_Vset5_Tset2_2023-06-25_16h00.28.888.csv,4,28,2,0,z,0,1,2,tac,A,27,1,2A,0A,NaN,NaN,None,NaN,NaN,NaN,NaN,NaN,,,A20,3.76120011569356,0.844503157672293,0.5,0.5,0.395840583667067,0.196413466359594,0.751903323630917,0.5,0.395840583667067,0.5,0.5,0.679581061049696,0.313379535355768,0.5,0.395840583667067,0.248096676369083,0.686620464644232,0,0,0,0,NaN,0,0,0,0.5,0.208318832665867,1.05622047023501,0.634932050334376,2.65410234723471,0.5,82.7403646120708
CBC_1015,CBC_1015_MSI_TV_v3_Vset5_Tset2_2023-06-25_16h00.28.888.csv,4,29,3,1,b,1,0,3,tac,D,27,1,3D,1D,1,0,b,2.39075229999798,1,0,1,1,3D,1D,D31,3.09104245335832,0.844503157672293,0.5,0.5,0.395840583667067,0.196413466359594,0.751903323630917,0.5,0.395840583667067,0.5,0.5,0.679581061049696,0.313379535355768,0.5,0.395840583667067,0.248096676369083,0.686620464644232,0.634314246887128,0.365685753112872,0.686620464644232,0.395840583667067,0.214966356681407,0.611202829532606,0.313379535355768,0.0652828589866853,0.5,0.208318832665867,1.05622047023501,0.634932050334376,2.65410234723471,0.5,82.7403646120708
CBC_1015,CBC_1015_MSI_TV_v3_Vset5_Tset2_2023-06-25_16h00.28.888.csv,4,30,0,1,b,1,0,2,tac,A,63,1,0A,1A,1,0,b,3.806262099999,1,0,1,1,0A,1A,A01,3.11351530921037,0.844503157672293,0.5,0.5,0.395840583667067,0.196413466359594,0.751903323630917,0.5,0.395840583667067,0.5,0.5,0.679581061049696,0.313379535355768,0.5,0.395840583667067,0.248096676369083,0.751903323630917,0.628115414123952,0.371884585876048,0.844503157672293,0.5,0.0777748718793484,0.606708757159187,0.155496842327707,0.0323929206769362,0.5,0.208318832665867,1.05622047023501,0.634932050334376,2.65410234723471,0.5,82.7403646120708
CBC_1015,CBC_1015_MSI_TV_v3_Vset5_Tset2_2023-06-25_16h00.28.888.csv,4,31,0,2,z,0,1,0,tac,C,27,1,0C,2C,0,1,b,2.38648430000103,1,0,0,0,0C,2C,C02,3.8286413964891,0.876896078349229,0.5,0.5,0.395840583667067,0.196413466359594,0.751903323630917,0.5,0.395840583667067,0.5,0.5,0.679581061049696,0.313379535355768,0.5,0.395840583667067,0.248096676369083,0.751903323630917,0.423879304704211,0.576120695295789,0.5,0.679581061049696,0.153201898622943,0.436040280828342,-0.5,-0.104159416332933,0.5,0.208318832665867,1.05622047023501,0.634932050334376,2.65410234723471,0.5,82.7403646120708
CBC_1015,CBC_1015_MSI_TV_v3_Vset5_Tset2_2023-06-25_16h00.28.888.csv,4,32,3,2,b,1,0,3,tac,D,63,1,3D,2D,1,0,b,5.06498989999818,1,0,1,1,3D,2D,D32,3.15700042115011,0.876896078349229,0.5,0.5,0.395840583667067,0.196413466359594,0.751903323630917,0.5,0.395840583667067,0.395840583667067,0.5,0.679581061049696,0.313379535355768,0.5,0.395840583667067,0.248096676369083,0.751903323630917,0.751903323630917,0.248096676369083,0.751903323630917,0.248096676369083,0.0334942495747331,0.70051329913601,0.248096676369083,0.0516832100094886,0.5,0.208318832665867,1.05622047023501,0.634932050334376,2.65410234723471,0.5,82.7403646120708
CBC_1015,CBC_1015_MSI_TV_v3_Vset5_Tset2_2023-06-25_16h00.28.888.csv,4,33,0,1,z,0,1,1,tac,B,63,1,0B,1B,0,1,b,1.75207060000321,1,0,0,0,0B,1B,B01,2.77258872223978,0.876896078349229,0.5,0.5,0.395840583667067,0.196413466359594,0.751903323630917,0.5,0.395840583667067,0.395840583667067,0.5,0.679581061049696,0.313379535355768,0.5,0.395840583667067,0.248096676369083,0.803586533640406,0.207117988875384,0.792882011124617,0.196413466359594,0.751903323630917,0.149866830713822,0.271896133184701,-0.196413466359594,-0.0409166240318871,0.5,0.208318832665867,1.05622047023501,0.634932050334376,2.65410234723471,0.5,82.7403646120708
CBC_1015,CBC_1015_MSI_TV_v3_Vset5_Tset2_2023-06-25_16h00.28.888.csv,4,34,1,0,z,0,1,2,tac,A,63,1,1A,0A,0,1,z,3.07736740000109,0,1,1,1,0A,1A,A10,2.50552593699074,0.876896078349229,0.5,0.5,0.395840583667067,0.155496842327707,0.751903323630917,0.5,0.395840583667067,0.395840583667067,0.5,0.679581061049696,0.313379535355768,0.5,0.395840583667067,0.248096676369083,0.803586533640406,0.636864388052108,0.363135611947892,0.876896078349229,0.5,0.132093998561391,0.612713303493287,0.123103921650771,0.0256448652548789,0.5,0.208318832665867,1.05622047023501,0.634932050334376,2.65410234723471,0.5,82.7403646120708
CBC_1015,CBC_1015_MSI_TV_v3_Vset5_Tset2_2023-06-25_16h00.28.888.csv,4,35,3,2,b,1,0,3,tac,D,63,0,3D,2D,0,1,b,1.72018090000347,1,0,1,0,3D,2D,D32,2.81341071676004,0.902540943604108,0.5,0.5,0.395840583667067,0.155496842327707,0.751903323630917,0.5,0.395840583667067,0.395840583667067,0.5,0.679581061049696,0.313379535355768,0.5,0.395840583667067,0.248096676369083,0.803586533640406,0.764095619281738,0.235904380718262,0.803586533640406,0.248096676369083,0.391194424678018,0.709740635134196,-0.803586533640406,-0.167402208633979,0.5,0.208318832665867,1.05622047023501,0.634932050334376,2.65410234723471,0.5,82.7403646120708
CBC_1015,CBC_1015_MSI_TV_v3_Vset5_Tset2_2023-06-25_16h00.28.888.csv,4,36,0,2,z,0,1,0,tac,C,27,1,0C,2C,0,1,z,2.8514224999999,0,1,1,1,2C,0C,C02,3.23867845216438,0.902540943604108,0.5,0.5,0.395840583667067,0.155496842327707,0.751903323630917,0.5,0.395840583667067,0.395840583667067,0.5,0.679581061049696,0.313379535355768,0.5,0.395840583667067,0.248096676369083,0.636184325006426,0.631920572166538,0.368079427833462,0.679581061049696,0.395840583667067,0.154493997893642,0.609671046488044,0.320418938950304,0.066749299326163,0.5,0.208318832665867,1.05622047023501,0.634932050334376,2.65410234723471,0.5,82.7403646120708
CBC_1015,CBC_1015_MSI_TV_v3_Vset5_Tset2_2023-06-25_16h00.28.888.csv,4,37,1,0,z,0,1,2,tac,A,63,1,1A,0A,0,1,b,2.55290980000063,1,0,0,0,1A,0A,A10,2.34180580614733,0.902540943604108,0.5,0.5,0.395840583667067,0.155496842327707,0.751903323630917,0.5,0.395840583667067,0.395840583667067,0.5,0.746330360375859,0.313379535355768,0.5,0.395840583667067,0.248096676369083,0.636184325006426,0.356495831569202,0.643504168430798,0.5,0.902540943604108,0.119999554686242,0.382593404375616,-0.5,-0.104159416332933,0.5,0.208318832665867,1.05622047023501,0.634932050334376,2.65410234723471,0.5,82.7403646120708
CBC_1015,CBC_1015_MSI_TV_v3_Vset5_Tset2_2023-06-25_16h00.28.888.csv,4,38,3,1,z,0,1,1,tac,B,27,1,3B,1B,0,1,b,2.69317840000076,1,0,0,0,3B,1B,B31,3.27714473299218,0.902540943604108,0.395840583667067,0.5,0.395840583667067,0.155496842327707,0.751903323630917,0.5,0.395840583667067,0.395840583667067,0.5,0.746330360375859,0.313379535355768,0.5,0.395840583667067,0.248096676369083,0.636184325006426,0.344885806973224,0.655114193026776,0.395840583667067,0.751903323630917,0.105747579717508,0.372577512385194,-0.395840583667067,-0.0824610483112986,0.5,0.208318832665867,1.05622047023501,0.634932050334376,2.65410234723471,0.5,82.7403646120708
CBC_1015,CBC_1015_MSI_TV_v3_Vset5_Tset2_2023-06-25_16h00.28.888.csv,4,39,2,3,b,1,0,0,tac,C,63,1,2C,3C,1,0,b,1.19651920000251,1,0,1,1,2C,3C,C23,2.60268968544438,0.902540943604108,0.395840583667067,0.5,0.395840583667067,0.155496842327707,0.751903323630917,0.5,0.313379535355768,0.395840583667067,0.5,0.746330360375859,0.313379535355768,0.5,0.395840583667067,0.248096676369083,0.636184325006426,0.704277994743637,0.295722005256363,0.746330360375859,0.313379535355768,0.0266077329542174,0.665655909166421,0.253669639624141,0.0528441632092722,0.5,0.208318832665867,1.05622047023501,0.634932050334376,2.65410234723471,0.5,82.7403646120708
CBC_1015,CBC_1015_MSI_TV_v3_Vset5_Tset2_2023-06-25_16h00.28.888.csv,4,40,2,3,z,0,1,3,tac,D,63,1,2D,3D,0,1,z,2.63724820000061,0,1,1,1,3D,2D,D23,2.62103882411258,0.902540943604108,0.395840583667067,0.5,0.395840583667067,0.155496842327707,0.751903323630917,0.5,0.313379535355768,0.395840583667067,0.5,0.799174523585131,0.313379535355768,0.5,0.395840583667067,0.248096676369083,0.636184325006426,0.719436835142714,0.280563164857286,0.636184325006426,0.248096676369083,0.20026550162743,0.676227904582375,0.363815674993574,0.0757896567202056,0.5,0.208318832665867,1.05622047023501,0.634932050334376,2.65410234723471,0.5,82.7403646120708
CBC_1015,CBC_1015_MSI_TV_v3_Vset5_Tset2_2023-06-25_16h00.28.888.csv,4,41,1,0,b,1,0,1,tac,B,63,1,1B,0B,1,0,b,3.2222757999989,1,0,1,1,1B,0B,B10,2.63905732961526,0.902540943604108,0.395840583667067,0.5,0.395840583667067,0.155496842327707,0.751903323630917,0.5,0.313379535355768,0.395840583667067,0.5,0.799174523585131,0.313379535355768,0.5,0.395840583667067,0.248096676369083,0.711973981726632,0.828634765386634,0.171365234613366,0.751903323630917,0.155496842327707,0.140900397942171,0.751708368397584,0.248096676369083,0.0516832100094886,0.5,0.208318832665867,1.05622047023501,0.634932050334376,2.65410234723471,0.5,82.7403646120708
CBC_1015,CBC_1015_MSI_TV_v3_Vset5_Tset2_2023-06-25_16h00.28.888.csv,4,42,0,2,b,1,0,2,tac,A,27,1,0A,2A,1,0,z,3.87274719999914,0,1,0,0,2A,0A,A02,3.3499040872746,0.902540943604108,0.395840583667067,0.5,0.395840583667067,0.155496842327707,0.803586533640406,0.5,0.313379535355768,0.395840583667067,0.5,0.799174523585131,0.313379535355768,0.5,0.395840583667067,0.248096676369083,0.711973981726632,0.356495831569202,0.643504168430798,0.5,0.902540943604108,0.046443677619989,0.381272852326407,-0.5,-0.104159416332933,0.5,0.208318832665867,1.05622047023501,0.634932050334376,2.65410234723471,0.5,82.7403646120708
CBC_1015,CBC_1015_MSI_TV_v3_Vset5_Tset2_2023-06-25_16h00.28.888.csv,4,43,0,3,z,0,1,3,tac,D,9,1,0D,3D,0,1,z,2.30880560000151,0,1,1,1,3D,0D,D03,4.06044301054642,0.902540943604108,0.395840583667067,0.395840583667067,0.395840583667067,0.155496842327707,0.803586533640406,0.5,0.313379535355768,0.395840583667067,0.5,0.799174523585131,0.313379535355768,0.5,0.395840583667067,0.248096676369083,0.711973981726632,0.587449889569677,0.412550110430323,0.711973981726632,0.5,0.212362551396681,0.572364308695168,0.288026018273368,0.0600012439041056,0.5,0.208318832665867,1.05622047023501,0.634932050334376,2.65410234723471,0.5,82.7403646120708
CBC_1015,CBC_1015_MSI_TV_v3_Vset5_Tset2_2023-06-25_16h00.28.888.csv,4,44,2,3,b,1,0,0,tac,C,63,1,2C,3C,1,0,z,2.97398659999817,0,1,0,0,3C,2C,C23,2.46809953147162,0.902540943604108,0.395840583667067,0.395840583667067,0.395840583667067,0.155496842327707,0.803586533640406,0.5,0.313379535355768,0.395840583667067,0.5,0.799174523585131,0.313379535355768,0.5,0.395840583667067,0.248096676369083,0.771975225630738,0.281675782706767,0.718324217293233,0.313379535355768,0.799174523585131,0.0751042020729096,0.325095825789742,-0.313379535355768,-0.0652828589866853,0.5,0.208318832665867,1.05622047023501,0.634932050334376,2.65410234723471,0.5,82.7403646120708
