ID,session,trialNr,mod2Stim,visStimLeft,visStimRight,correctKey,frequency,rewardAccurate,probFB,stimPairLeft,stimPairRight,leftCorrect,rightCorrect,pCorrectLeft,pCorrectRight,triplet,rt,surprise,0A belief,1A belief,2A belief,3A belief,0B belief,1B belief,2B belief,3B belief,0C belief,1C belief,2C belief,3C belief,0D belief,1D belief,2D belief,3D belief,reactionTime,choice,choiceLeft,choiceRight,chosenPair,otherPair,beliefPair,beliefOtherPair,beliefPairNorm,beliefOtherPairNorm,choiceAccurate,reward,rewardPE,update2,sim_CBCsimpleRW_CBCdriftDiffusionLR_startBelief,sim_CBCsimpleRW_CBCdriftDiffusionLR_alpha1,sim_CBCsimpleRW_CBCdriftDiffusionLR_nonDecisionTime,sim_CBCsimpleRW_CBCdriftDiffusionLR_weight,sim_CBCsimpleRW_CBCdriftDiffusionLR_startingBoundary,sim_CBCsimpleRW_CBCdriftDiffusionLR_startingPoint,lik,corrLik,fitCBCsimpleRW_CBCdriftDiffusionLR_startBelief,fitCBCsimpleRW_CBCdriftDiffusionLR_alpha1,fitCBCsimpleRW_CBCdriftDiffusionLR_nonDecisionTime,fitCBCsimpleRW_CBCdriftDiffusionLR_weight,fitCBCsimpleRW_CBCdriftDiffusionLR_startingBoundary,fitCBCsimpleRW_CBCdriftDiffusionLR_startingPoint,fit_CBCsimpleRW_CBCdriftDiffusionLR_NLL
182,1,1,A,0,1,a,63,1,0.95,0A,1A,1,0,1,0,A01,0.284288773667838,2.77258872223978,0.5,0.5,0.5,0.5,0.5,0.5,0.5,0.5,0.5,0.5,0.5,0.5,0.5,0.5,0.5,0.5,1.58984702871489,1,1,0,0A,1A,0.5,0.5,0.5,0.5,1,1,0.5,0.322278389156776,0.5,0.689636917991832,0.930847028714892,10.1822931824811,4.60329588224976,0.5,0.051647885866043,0.50007336720376,0.5,0.644556778313551,0.972112359722308,11.6971895467585,4.15833614978763,0.5,3.67296137280528
182,1,2,C,2,3,a,63,1,0.95,2C,3C,1,0,1,0,C23,2.95341174631348,2.83321334405622,0.822278389156776,0.5,0.5,0.5,0.5,0.5,0.5,0.5,0.5,0.5,0.5,0.5,0.5,0.5,0.5,0.5,8.89084702871489,1,1,0,2C,3C,0.5,0.5,0.5,0.5,1,1,0.5,0.322278389156776,0.5,0.689636917991832,0.930847028714892,10.1822931824811,4.60329588224976,0.5,0.018964498200744,0.500099381680212,0.5,0.644556778313551,0.972112359722308,11.6971895467585,4.15833614978763,0.5,3.67296137280528
182,1,3,A,2,0,l,27,1,0.95,2A,0A,0,1,0,1,A20,0.80945975698484,2.89037175789616,0.822278389156776,0.5,0.5,0.5,0.5,0.5,0.5,0.5,0.5,0.5,0.822278389156776,0.5,0.5,0.5,0.5,0.5,1.65684702871489,0,0,1,0A,2A,0.822278389156776,0.5,0.621864802374292,0.378135197625708,1,1,0.177721610843224,0.114551668921803,0.5,0.689636917991832,0.930847028714892,10.1822931824811,4.60329588224976,0.5,1.4469572257612,0.999992928759591,0.5,0.644556778313551,0.972112359722308,11.6971895467585,4.15833614978763,0.5,3.67296137280528
182,1,4,B,0,1,l,63,1,0.95,0B,1B,0,1,0,1,B01,2.47037477650719,2.94443897916644,0.936830058078579,0.5,0.5,0.5,0.5,0.5,0.5,0.5,0.5,0.5,0.822278389156776,0.5,0.5,0.5,0.5,0.5,4.66584702871489,0,0,1,1B,0B,0.5,0.5,0.5,0.5,1,1,0.5,0.322278389156776,0.5,0.689636917991832,0.930847028714892,10.1822931824811,4.60329588224976,0.5,0.0631445013715605,0.498980186075761,0.5,0.644556778313551,0.972112359722308,11.6971895467585,4.15833614978763,0.5,3.67296137280528
182,1,5,D,3,2,a,63,1,0.95,3D,2D,1,0,1,0,D32,2.11561687051656,2.99573227355399,0.936830058078579,0.5,0.5,0.5,0.5,0.822278389156776,0.5,0.5,0.5,0.5,0.822278389156776,0.5,0.5,0.5,0.5,0.5,6.41784702871489,1,1,0,3D,2D,0.5,0.5,0.5,0.5,1,1,0.5,0.322278389156776,0.5,0.689636917991832,0.930847028714892,10.1822931824811,4.60329588224976,0.5,0.0383468632648087,0.499279900730687,0.5,0.644556778313551,0.972112359722308,11.6971895467585,4.15833614978763,0.5,3.67296137280528
182,1,6,B,2,1,l,9,1,0.95,2B,1B,0,1,0,1,B21,2.07053685117717,3.04452243772342,0.936830058078579,0.5,0.5,0.5,0.5,0.822278389156776,0.5,0.5,0.5,0.5,0.822278389156776,0.5,0.5,0.5,0.5,0.822278389156776,1.49984702871489,0,0,1,1B,2B,0.822278389156776,0.5,0.621864802374292,0.378135197625708,1,1,0.177721610843224,0.114551668921803,0.5,0.689636917991832,0.930847028714892,10.1822931824811,4.60329588224976,0.5,1.5832752969436,0.999992927436634,0.5,0.644556778313551,0.972112359722308,11.6971895467585,4.15833614978763,0.5,3.67296137280528
182,1,7,D,3,1,a,27,1,0.95,3D,1D,1,0,1,0,D31,2.23974605991714,3.09104245335832,0.936830058078579,0.5,0.5,0.5,0.5,0.936830058078579,0.5,0.5,0.5,0.5,0.822278389156776,0.5,0.5,0.5,0.5,0.822278389156776,1.45584702871489,1,1,0,3D,1D,0.822278389156776,0.5,0.621864802374292,0.378135197625708,1,1,0.177721610843224,0.114551668921803,0.5,0.689636917991832,0.930847028714892,10.1822931824811,4.60329588224976,0.5,1.48693043036233,0.999992937554591,0.5,0.644556778313551,0.972112359722308,11.6971895467585,4.15833614978763,0.5,3.67296137280528
182,1,8,A,0,1,a,63,1,0.95,0A,1A,1,0,1,0,A01,1.21214277388069,2.4423470353692,0.936830058078579,0.5,0.5,0.5,0.5,0.936830058078579,0.5,0.5,0.5,0.5,0.822278389156776,0.5,0.5,0.5,0.5,0.936830058078579,1.65084702871489,1,1,0,0A,1A,0.936830058078579,0.5,0.652011734311411,0.347988265688589,1,1,0.063169941921421,0.0407166142511253,0.5,0.689636917991832,0.930847028714892,10.1822931824811,4.60329588224976,0.5,1.36564933657879,0.999999622926059,0.5,0.644556778313551,0.972112359722308,11.6971895467585,4.15833614978763,0.5,3.67296137280528
182,1,9,A,1,0,l,63,1,0.95,1A,0A,0,1,0,1,A10,0.387302150328814,3.17805383034795,0.977546672329704,0.5,0.5,0.5,0.5,0.936830058078579,0.5,0.5,0.5,0.5,0.822278389156776,0.5,0.5,0.5,0.5,0.936830058078579,1.55284702871489,0,0,1,0A,1A,0.977546672329704,0.5,0.661601214118244,0.338398785881756,1,1,0.0224533276702957,0.0144724445455843,0.5,0.689636917991832,0.930847028714892,10.1822931824811,4.60329588224976,0.5,1.85269025513051,0.999999850854769,0.5,0.644556778313551,0.972112359722308,11.6971895467585,4.15833614978763,0.5,3.67296137280528
182,1,10,C,0,2,l,27,1,0.95,0C,2C,0,1,0,1,C02,0.559873759337258,3.2188758248682,0.992019116875289,0.5,0.5,0.5,0.5,0.936830058078579,0.5,0.5,0.5,0.5,0.822278389156776,0.5,0.5,0.5,0.5,0.936830058078579,1.32984702871489,0,0,1,2C,0C,0.822278389156776,0.5,0.621864802374292,0.378135197625708,1,1,0.177721610843224,0.114551668921803,0.5,0.689636917991832,0.930847028714892,10.1822931824811,4.60329588224976,0.5,0.808237992241278,0.999992910958349,0.5,0.644556778313551,0.972112359722308,11.6971895467585,4.15833614978763,0.5,3.67296137280528
182,1,11,B,1,0,a,63,1,0.95,1B,0B,1,0,1,0,B10,0.652614305673568,3.25809653802148,0.992019116875289,0.5,0.5,0.5,0.5,0.936830058078579,0.5,0.5,0.5,0.5,0.936830058078579,0.5,0.5,0.5,0.5,0.936830058078579,1.57484702871489,1,1,0,1B,0B,0.936830058078579,0.5,0.652011734311411,0.347988265688589,1,1,0.063169941921421,0.0407166142511253,0.5,0.689636917991832,0.930847028714892,10.1822931824811,4.60329588224976,0.5,1.76652290424997,0.999999621962517,0.5,0.644556778313551,0.972112359722308,11.6971895467585,4.15833614978763,0.5,3.67296137280528
182,1,12,A,1,0,l,63,1,0.95,1A,0A,0,1,0,1,A10,1.98084529467643,2.60268968544438,0.992019116875289,0.5,0.5,0.5,0.5,0.977546672329704,0.5,0.5,0.5,0.5,0.936830058078579,0.5,0.5,0.5,0.5,0.936830058078579,1.40784702871489,0,0,1,0A,1A,0.992019116875289,0.5,0.664883650387039,0.335116349612961,1,1,0.00798088312471135,0.00514413231496093,0.5,0.689636917991832,0.930847028714892,10.1822931824811,4.60329588224976,0.5,2.40269672116041,0.999999891442366,0.5,0.644556778313551,0.972112359722308,11.6971895467585,4.15833614978763,0.5,3.67296137280528
182,1,13,C,2,3,a,63,1,0.95,2C,3C,1,0,1,0,C23,1.54224400669189,2.63905732961526,0.99716324919025,0.5,0.5,0.5,0.5,0.977546672329704,0.5,0.5,0.5,0.5,0.936830058078579,0.5,0.5,0.5,0.5,0.936830058078579,1.17284702871489,1,1,0,2C,3C,0.936830058078579,0.5,0.652011734311411,0.347988265688589,1,1,0.063169941921421,0.0407166142511253,0.5,0.689636917991832,0.930847028714892,10.1822931824811,4.60329588224976,0.5,0.0886494929931619,0.999999619974925,0.5,0.644556778313551,0.972112359722308,11.6971895467585,4.15833614978763,0.5,3.67296137280528
182,1,14,A,2,0,l,27,1,0.95,2A,0A,0,1,0,1,A20,0.984721325446985,2.67414864942653,0.99716324919025,0.5,0.5,0.5,0.5,0.977546672329704,0.5,0.5,0.5,0.5,0.977546672329704,0.5,0.5,0.5,0.5,0.936830058078579,1.28184702871489,0,0,1,0A,2A,0.99716324919025,0.5,0.666035083167832,0.333964916832168,1,1,0.00283675080975043,0.0018284469628111,0.5,0.689636917991832,0.930847028714892,10.1822931824811,4.60329588224976,0.5,1.39648060695106,0.999999904185306,0.5,0.644556778313551,0.972112359722308,11.6971895467585,4.15833614978763,0.5,3.67296137280528
182,1,15,B,0,1,l,63,1,0.95,0B,1B,0,1,0,1,B01,2.50579335502547,2.70805020110221,0.998991696153061,0.5,0.5,0.5,0.5,0.977546672329704,0.5,0.5,0.5,0.5,0.977546672329704,0.5,0.5,0.5,0.5,0.936830058078579,1.63584702871489,0,0,1,1B,0B,0.977546672329704,0.5,0.661601214118244,0.338398785881756,1,1,0.0224533276702957,0.0144724445455843,0.5,0.689636917991832,0.930847028714892,10.1822931824811,4.60329588224976,0.5,1.33550894053004,0.999999850011792,0.5,0.644556778313551,0.972112359722308,11.6971895467585,4.15833614978763,0.5,3.67296137280528
182,1,16,B,1,0,a,63,1,0.95,1B,0B,1,0,1,0,B10,0.49737637411354,2.7408400239252,0.998991696153061,0.5,0.5,0.5,0.5,0.992019116875289,0.5,0.5,0.5,0.5,0.977546672329704,0.5,0.5,0.5,0.5,0.936830058078579,1.44584702871489,1,1,0,1B,0B,0.992019116875289,0.5,0.664883650387039,0.335116349612961,1,1,0.00798088312471135,0.00514413231496093,0.5,0.689636917991832,0.930847028714892,10.1822931824811,4.60329588224976,0.5,2.37959042271714,0.99999989217959,0.5,0.644556778313551,0.972112359722308,11.6971895467585,4.15833614978763,0.5,3.67296137280528
182,1,17,C,2,3,a,63,1,0.95,2C,3C,1,0,1,0,C23,3.10008279183242,2.36712361413162,0.998991696153061,0.5,0.5,0.5,0.5,0.99716324919025,0.5,0.5,0.5,0.5,0.977546672329704,0.5,0.5,0.5,0.5,0.936830058078579,1.39484702871489,1,1,0,2C,3C,0.977546672329704,0.5,0.661601214118244,0.338398785881756,1,1,0.0224533276702957,0.0144724445455843,0.5,0.689636917991832,0.930847028714892,10.1822931824811,4.60329588224976,0.5,2.2953508603434,0.999999851203244,0.5,0.644556778313551,0.972112359722308,11.6971895467585,4.15833614978763,0.5,3.67296137280528
182,1,18,D,1,3,l,27,1,0.95,1D,3D,0,1,0,1,D13,2.45306730477834,3.49650756146648,0.998991696153061,0.5,0.5,0.5,0.5,0.99716324919025,0.5,0.5,0.5,0.5,0.992019116875289,0.5,0.5,0.5,0.5,0.936830058078579,1.51384702871489,0,0,1,3D,1D,0.936830058078579,0.5,0.652011734311411,0.347988265688589,1,1,0.063169941921421,0.0407166142511253,0.5,0.689636917991832,0.930847028714892,10.1822931824811,4.60329588224976,0.5,2.0358695321486,0.999999621116913,0.5,0.644556778313551,0.972112359722308,11.6971895467585,4.15833614978763,0.5,3.67296137280528
182,1,19,C,2,1,a,9,1,0.95,2C,1C,1,0,1,0,C21,2.1849655960789,3.52636052461616,0.998991696153061,0.5,0.5,0.5,0.5,0.99716324919025,0.5,0.5,0.5,0.5,0.992019116875289,0.5,0.5,0.5,0.5,0.977546672329704,1.58384702871489,1,1,0,2C,1C,0.992019116875289,0.5,0.664883650387039,0.335116349612961,1,1,0.00798088312471135,0.00514413231496093,0.5,0.689636917991832,0.930847028714892,10.1822931824811,4.60329588224976,0.5,1.62532010453637,0.999999892209984,0.5,0.644556778313551,0.972112359722308,11.6971895467585,4.15833614978763,0.5,3.67296137280528
182,1,20,B,1,3,a,27,1,0.95,1B,3B,1,0,1,0,B13,1.83244879092513,3.55534806148941,0.998991696153061,0.5,0.5,0.5,0.5,0.99716324919025,0.5,0.5,0.5,0.5,0.99716324919025,0.5,0.5,0.5,0.5,0.977546672329704,2.01784702871489,1,1,0,1B,3B,0.99716324919025,0.5,0.666035083167832,0.333964916832168,1,1,0.00283675080975043,0.0018284469628111,0.5,0.689636917991832,0.930847028714892,10.1822931824811,4.60329588224976,0.5,0.117985835200926,0.999999904042345,0.5,0.644556778313551,0.972112359722308,11.6971895467585,4.15833614978763,0.5,3.67296137280528
182,1,21,D,2,3,l,63,1,0.95,2D,3D,0,1,0,1,D23,0.0724233705133759,3.58351893845611,0.998991696153061,0.5,0.5,0.5,0.5,0.998991696153061,0.5,0.5,0.5,0.5,0.99716324919025,0.5,0.5,0.5,0.5,0.977546672329704,1.34984702871489,0,0,1,3D,2D,0.977546672329704,0.5,0.661601214118244,0.338398785881756,1,1,0.0224533276702957,0.0144724445455843,0.5,0.689636917991832,0.930847028714892,10.1822931824811,4.60329588224976,0.5,2.03660360804367,0.999999850361776,0.5,0.644556778313551,0.972112359722308,11.6971895467585,4.15833614978763,0.5,3.67296137280528
182,1,22,B,0,1,l,63,0,0.95,0B,1B,0,1,1,0,B01,0.534436529765501,2.51230562397611,0.998991696153061,0.5,0.5,0.5,0.5,0.998991696153061,0.5,0.5,0.5,0.5,0.99716324919025,0.5,0.5,0.5,0.5,0.992019116875289,1.50184702871489,0,0,1,1B,0B,0.998991696153061,0.5,0.666442448425048,0.333557551574952,1,0,-0.998991696153061,-0.643906869234407,0.5,0.689636917991832,0.930847028714892,10.1822931824811,4.60329588224976,0.5,2.15078200821462,0.999999906871546,0.5,0.644556778313551,0.972112359722308,11.6971895467585,4.15833614978763,0.5,3.67296137280528
182,1,23,A,0,3,a,9,1,0.95,0A,3A,1,0,1,0,A03,0.64783737977353,3.63758615972639,0.998991696153061,0.5,0.5,0.5,0.5,0.355084826918654,0.5,0.5,0.5,0.5,0.99716324919025,0.5,0.5,0.5,0.5,0.992019116875289,1.92384702871489,1,1,0,0A,3A,0.998991696153061,0.5,0.666442448425048,0.333557551574952,1,1,0.00100830384693928,0.000649909079144345,0.5,0.689636917991832,0.930847028714892,10.1822931824811,4.60329588224976,0.5,0.222951575953139,0.999999906590439,0.5,0.644556778313551,0.972112359722308,11.6971895467585,4.15833614978763,0.5,3.67296137280528
182,1,24,D,3,2,a,63,1,0.95,3D,2D,1,0,1,0,D32,2.26581533523852,2.9704144655697,0.999641605232205,0.5,0.5,0.5,0.5,0.355084826918654,0.5,0.5,0.5,0.5,0.99716324919025,0.5,0.5,0.5,0.5,0.992019116875289,1.50384702871489,1,1,0,3D,2D,0.992019116875289,0.5,0.664883650387039,0.335116349612961,1,1,0.00798088312471135,0.00514413231496093,0.5,0.689636917991832,0.930847028714892,10.1822931824811,4.60329588224976,0.5,2.13763138783918,0.999999891807939,0.5,0.644556778313551,0.972112359722308,11.6971895467585,4.15833614978763,0.5,3.67296137280528
182,1,25,B,3,1,l,27,1,0.95,3B,1B,0,1,0,1,B31,2.8104962461424,3.68887945411394,0.999641605232205,0.5,0.5,0.5,0.5,0.355084826918654,0.5,0.5,0.5,0.5,0.99716324919025,0.5,0.5,0.5,0.5,0.99716324919025,1.83584702871489,1,1,0,3B,1B,0.5,0.355084826918654,0.584737308229147,0.415262691770853,0,0,-0.5,-0.322278389156776,0.5,0.689636917991832,0.930847028714892,10.1822931824811,4.60329588224976,0.5,0.955818675608972,0.999737031091849,0.5,0.644556778313551,0.972112359722308,11.6971895467585,4.15833614978763,0.5,3.67296137280528
182,1,26,C,3,2,l,63,1,0.95,3C,2C,0,1,0,1,C32,0.160986439892902,3.71357206670431,0.999641605232205,0.5,0.5,0.5,0.5,0.355084826918654,0.5,0.177721610843224,0.5,0.5,0.99716324919025,0.5,0.5,0.5,0.5,0.99716324919025,1.44584702871489,0,0,1,2C,3C,0.99716324919025,0.5,0.666035083167832,0.333964916832168,1,1,0.00283675080975043,0.0018284469628111,0.5,0.689636917991832,0.930847028714892,10.1822931824811,4.60329588224976,0.5,2.39531897399753,0.999999903579953,0.5,0.644556778313551,0.972112359722308,11.6971895467585,4.15833614978763,0.5,3.67296137280528
182,1,27,C,0,2,l,27,1,0.95,0C,2C,0,1,0,1,C02,1.79492352353912,3.04452243772342,0.999641605232205,0.5,0.5,0.5,0.5,0.355084826918654,0.5,0.177721610843224,0.5,0.5,0.998991696153061,0.5,0.5,0.5,0.5,0.99716324919025,1.63284702871489,0,0,1,2C,0C,0.998991696153061,0.5,0.666442448425048,0.333557551574952,1,1,0.00100830384693928,0.000649909079144345,0.5,0.689636917991832,0.930847028714892,10.1822931824811,4.60329588224976,0.5,1.28450849000591,0.999999907009434,0.5,0.644556778313551,0.972112359722308,11.6971895467585,4.15833614978763,0.5,3.67296137280528
182,1,28,B,1,0,a,63,1,0.95,1B,0B,1,0,1,0,B10,1.99781881608137,2.66258782702545,0.999641605232205,0.5,0.5,0.5,0.5,0.355084826918654,0.5,0.177721610843224,0.5,0.5,0.999641605232205,0.5,0.5,0.5,0.5,0.99716324919025,2.41284702871489,0,0,1,0B,1B,0.5,0.355084826918654,0.584737308229147,0.415262691770853,0,0,-0.5,-0.322278389156776,0.5,0.689636917991832,0.930847028714892,10.1822931824811,4.60329588224976,0.5,0.388979353584469,0.999737129754461,0.5,0.644556778313551,0.972112359722308,11.6971895467585,4.15833614978763,0.5,3.67296137280528
182,1,29,C,3,2,l,63,1,0.95,3C,2C,0,1,0,1,C32,1.71909717778445,3.09104245335832,0.999641605232205,0.5,0.5,0.5,0.177721610843224,0.355084826918654,0.5,0.177721610843224,0.5,0.5,0.999641605232205,0.5,0.5,0.5,0.5,0.99716324919025,1.48184702871489,0,0,1,2C,3C,0.999641605232205,0.5,0.66658700435123,0.33341299564877,1,1,0.000358394767794978,0.000231005776894365,0.5,0.689636917991832,0.930847028714892,10.1822931824811,4.60329588224976,0.5,2.26029007505862,0.99999990874412,0.5,0.644556778313551,0.972112359722308,11.6971895467585,4.15833614978763,0.5,3.67296137280528
182,1,30,A,0,1,a,63,1,0.95,0A,1A,1,0,1,0,A01,1.35620110579352,2.70805020110221,0.999641605232205,0.5,0.5,0.5,0.177721610843224,0.355084826918654,0.5,0.177721610843224,0.5,0.5,0.999872611009099,0.5,0.5,0.5,0.5,0.99716324919025,1.66484702871489,1,1,0,0A,1A,0.999641605232205,0.5,0.66658700435123,0.33341299564877,1,1,0.000358394767794978,0.000231005776894365,0.5,0.689636917991832,0.930847028714892,10.1822931824811,4.60329588224976,0.5,1.08924899767915,0.999999908558108,0.5,0.644556778313551,0.972112359722308,11.6971895467585,4.15833614978763,0.5,3.67296137280528
182,1,31,D,3,2,a,63,1,0.95,3D,2D,1,0,1,0,D32,1.84445805530105,2.73002910782099,0.999872611009099,0.5,0.5,0.5,0.177721610843224,0.355084826918654,0.5,0.177721610843224,0.5,0.5,0.999872611009099,0.5,0.5,0.5,0.5,0.99716324919025,1.35684702871489,1,1,0,3D,2D,0.99716324919025,0.5,0.666035083167832,0.333964916832168,1,1,0.00283675080975043,0.0018284469628111,0.5,0.689636917991832,0.930847028714892,10.1822931824811,4.60329588224976,0.5,2.22727596267955,0.999999902881638,0.5,0.644556778313551,0.972112359722308,11.6971895467585,4.15833614978763,0.5,3.67296137280528
182,1,32,C,3,2,l,63,1,0.95,3C,2C,0,1,0,1,C32,0.541709957264378,2.75153531304195,0.999872611009099,0.5,0.5,0.5,0.177721610843224,0.355084826918654,0.5,0.177721610843224,0.5,0.5,0.999872611009099,0.5,0.5,0.5,0.5,0.998991696153061,1.33084702871489,0,0,1,2C,3C,0.999872611009099,0.5,0.666638355597676,0.333361644402324,1,1,0.00012738899090059,8.21094375674985e-05,0.5,0.689636917991832,0.930847028714892,10.1822931824811,4.60329588224976,0.5,2.02639781140156,0.999999909548854,0.5,0.644556778313551,0.972112359722308,11.6971895467585,4.15833614978763,0.5,3.67296137280528
182,1,33,D,1,3,l,27,1,0.95,1D,3D,0,1,0,1,D13,1.96951901017495,3.17805383034795,0.999872611009099,0.5,0.5,0.5,0.177721610843224,0.355084826918654,0.5,0.177721610843224,0.5,0.5,0.999954720446667,0.5,0.5,0.5,0.5,0.998991696153061,1.44284702871489,0,0,1,3D,1D,0.998991696153061,0.5,0.666442448425048,0.333557551574952,1,1,0.00100830384693928,0.000649909079144345,0.5,0.689636917991832,0.930847028714892,10.1822931824811,4.60329588224976,0.5,2.40824219397186,0.999999907209824,0.5,0.644556778313551,0.972112359722308,11.6971895467585,4.15833614978763,0.5,3.67296137280528
182,1,34,C,2,0,a,27,1,0.95,2C,0C,1,0,1,0,C20,3.04514735626654,3.89182029811063,0.999872611009099,0.5,0.5,0.5,0.177721610843224,0.355084826918654,0.5,0.177721610843224,0.5,0.5,0.999954720446667,0.5,0.5,0.5,0.5,0.999641605232205,1.38384702871489,1,1,0,2C,0C,0.999954720446667,0.5,0.666656604239956,0.333343395760044,1,1,4.52795533331107e-05,2.91852430198665e-05,0.5,0.689636917991832,0.930847028714892,10.1822931824811,4.60329588224976,0.5,2.39096152967841,0.999999909268996,0.5,0.644556778313551,0.972112359722308,11.6971895467585,4.15833614978763,0.5,3.67296137280528
182,1,35,D,3,2,a,63,0,0.95,3D,2D,1,0,0,1,D32,0.0351439716497925,2.52572864430826,0.999872611009099,0.5,0.5,0.5,0.177721610843224,0.355084826918654,0.5,0.177721610843224,0.5,0.5,0.999983905689687,0.5,0.5,0.5,0.5,0.999641605232205,1.65584702871489,1,1,0,3D,2D,0.999641605232205,0.5,0.66658700435123,0.33341299564877,1,0,-0.999641605232205,-0.644325772536657,0.5,0.689636917991832,0.930847028714892,10.1822931824811,4.60329588224976,0.5,1.14163555365836,0.999999908514008,0.5,0.644556778313551,0.972112359722308,11.6971895467585,4.15833614978763,0.5,3.67296137280528
182,1,36,A,0,1,a,63,1,0.95,0A,1A,1,0,1,0,A01,3.25307763307917,2.54553127160444,0.999872611009099,0.5,0.5,0.5,0.177721610843224,0.355084826918654,0.5,0.177721610843224,0.5,0.5,0.999983905689687,0.5,0.5,0.5,0.5,0.355315832695548,1.74384702871489,1,1,0,0A,1A,0.999872611009099,0.5,0.666638355597676,0.333361644402324,1,1,0.00012738899090059,8.21094375674985e-05,0.5,0.689636917991832,0.930847028714892,10.1822931824811,4.60329588224976,0.5,0.699259979543425,0.999999908794048,0.5,0.644556778313551,0.972112359722308,11.6971895467585,4.15833614978763,0.5,3.67296137280528
182,1,37,C,3,2,l,63,1,0.95,3C,2C,0,1,0,1,C32,3.22029256472791,2.56494935746154,0.999954720446667,0.5,0.5,0.5,0.177721610843224,0.355084826918654,0.5,0.177721610843224,0.5,0.5,0.999983905689687,0.5,0.5,0.5,0.5,0.355315832695548,1.78784702871489,0,0,1,2C,3C,0.999983905689687,0.5,0.666663090114889,0.333336909885111,1,1,1.60943103132416e-05,1.03736968046816e-05,0.5,0.689636917991832,0.930847028714892,10.1822931824811,4.60329588224976,0.5,0.535545246867472,0.999999908904541,0.5,0.644556778313551,0.972112359722308,11.6971895467585,4.15833614978763,0.5,3.67296137280528
182,1,38,A,2,0,l,27,1,0.95,2A,0A,0,1,0,1,A20,3.13145588241342,2.87167962488401,0.999954720446667,0.5,0.5,0.5,0.177721610843224,0.355084826918654,0.5,0.177721610843224,0.5,0.5,0.999994279386491,0.5,0.5,0.5,0.5,0.355315832695548,1.47484702871489,0,0,1,0A,2A,0.999954720446667,0.5,0.666656604239956,0.333343395760044,1,1,4.52795533331107e-05,2.91852430198665e-05,0.5,0.689636917991832,0.930847028714892,10.1822931824811,4.60329588224976,0.5,2.29399226581675,0.999999908484144,0.5,0.644556778313551,0.972112359722308,11.6971895467585,4.15833614978763,0.5,3.67296137280528
182,1,39,D,3,2,a,63,1,0.95,3D,2D,1,0,1,0,D32,0.66598900333285,2.37954613413017,0.999983905689687,0.5,0.5,0.5,0.177721610843224,0.355084826918654,0.5,0.177721610843224,0.5,0.5,0.999994279386491,0.5,0.5,0.5,0.5,0.355315832695548,2.21884702871489,0,0,1,2D,3D,0.5,0.355315832695548,0.584579380957135,0.415420619042865,0,0,-0.5,-0.322278389156776,0.5,0.689636917991832,0.930847028714892,10.1822931824811,4.60329588224976,0.5,0.560788626603235,0.999734025524656,0.5,0.644556778313551,0.972112359722308,11.6971895467585,4.15833614978763,0.5,3.67296137280528
182,1,40,D,2,3,l,63,1,0.95,2D,3D,0,1,0,1,D23,1.72459396637418,3.31418600467253,0.999983905689687,0.5,0.5,0.5,0.177721610843224,0.355084826918654,0.5,0.177721610843224,0.5,0.5,0.999994279386491,0.5,0.5,0.5,0.177721610843224,0.355315832695548,1.51984702871489,0,0,1,3D,2D,0.355315832695548,0.177721610843224,0.66658700435123,0.33341299564877,1,1,0.644684167304452,0.415535549907512,0.5,0.689636917991832,0.930847028714892,10.1822931824811,4.60329588224976,0.5,2.04054326636242,0.999999908068344,0.5,0.644556778313551,0.972112359722308,11.6971895467585,4.15833614978763,0.5,3.67296137280528
182,1,41,B,1,3,a,27,1,0.95,1B,3B,1,0,1,0,B13,1.49589501452035,3.3322045101752,0.999983905689687,0.5,0.5,0.5,0.177721610843224,0.355084826918654,0.5,0.177721610843224,0.5,0.5,0.999994279386491,0.5,0.5,0.5,0.177721610843224,0.77085138260306,1.60784702871489,1,1,0,1B,3B,0.355084826918654,0.177721610843224,0.666442448425048,0.333557551574952,1,1,0.644915173081346,0.415684446246839,0.5,0.689636917991832,0.930847028714892,10.1822931824811,4.60329588224976,0.5,1.44692150785603,0.999999906666879,0.5,0.644556778313551,0.972112359722308,11.6971895467585,4.15833614978763,0.5,3.67296137280528
182,1,42,D,0,3,l,9,1,0.95,0D,3D,0,1,0,1,D03,1.87767316438752,4.04305126783455,0.999983905689687,0.5,0.5,0.5,0.177721610843224,0.770769273165492,0.5,0.177721610843224,0.5,0.5,0.999994279386491,0.5,0.5,0.5,0.177721610843224,0.77085138260306,1.66684702871489,0,0,1,3D,0D,0.77085138260306,0.5,0.606562964918951,0.393437035081049,1,1,0.22914861739694,0.147699294584376,0.5,0.689636917991832,0.930847028714892,10.1822931824811,4.60329588224976,0.5,1.31400767190766,0.999968715880657,0.5,0.644556778313551,0.972112359722308,11.6971895467585,4.15833614978763,0.5,3.67296137280528
182,1,43,B,1,0,a,63,1,0.95,1B,0B,1,0,1,0,B10,1.42876704479361,2.67414864942653,0.999983905689687,0.5,0.5,0.5,0.177721610843224,0.770769273165492,0.5,0.177721610843224,0.5,0.5,0.999994279386491,0.5,0.5,0.5,0.177721610843224,0.918550677187436,1.28284702871489,1,1,0,1B,0B,0.770769273165492,0.177721610843224,0.812626970022001,0.187373029977999,1,1,0.229230726834508,0.147752218778924,0.5,0.689636917991832,0.930847028714892,10.1822931824811,4.60329588224976,0.5,4.50913024774505,0.999999999999938,0.5,0.644556778313551,0.972112359722308,11.6971895467585,4.15833614978763,0.5,3.67296137280528
182,1,44,A,1,0,l,63,1,0.95,1A,0A,0,1,0,1,A10,2.7631688110118,2.97892515523761,0.999983905689687,0.5,0.5,0.5,0.177721610843224,0.918521491944416,0.5,0.177721610843224,0.5,0.5,0.999994279386491,0.5,0.5,0.5,0.177721610843224,0.918550677187436,1.23084702871489,0,0,1,0A,1A,0.999983905689687,0.5,0.666663090114889,0.333336909885111,1,1,1.60943103132416e-05,1.03736968046816e-05,0.5,0.689636917991832,0.930847028714892,10.1822931824811,4.60329588224976,0.5,0.690667437198297,0.999999910118729,0.5,0.644556778313551,0.972112359722308,11.6971895467585,4.15833614978763,0.5,3.67296137280528
