ID,session,trialNr,mod2Stim,visStimLeft,visStimRight,correctKey,frequency,rewardAccurate,probFB,stimPairLeft,stimPairRight,leftCorrect,rightCorrect,pCorrectLeft,pCorrectRight,triplet,rt,surprise,0A belief,1A belief,2A belief,3A belief,0B belief,1B belief,2B belief,3B belief,0C belief,1C belief,2C belief,3C belief,0D belief,1D belief,2D belief,3D belief,reactionTime,choice,choiceLeft,choiceRight,chosenPair,otherPair,beliefPair,beliefOtherPair,beliefPairNorm,beliefOtherPairNorm,choiceAccurate,reward,rewardPE,update2,sim_CBCsimpleRW_CBCdriftDiffusionLR_startBelief,sim_CBCsimpleRW_CBCdriftDiffusionLR_alpha1,sim_CBCsimpleRW_CBCdriftDiffusionLR_nonDecisionTime,sim_CBCsimpleRW_CBCdriftDiffusionLR_weight,sim_CBCsimpleRW_CBCdriftDiffusionLR_startingBoundary,sim_CBCsimpleRW_CBCdriftDiffusionLR_startingPoint,lik,corrLik,fitCBCsimpleRW_CBCdriftDiffusionLR_startBelief,fitCBCsimpleRW_CBCdriftDiffusionLR_alpha1,fitCBCsimpleRW_CBCdriftDiffusionLR_nonDecisionTime,fitCBCsimpleRW_CBCdriftDiffusionLR_weight,fitCBCsimpleRW_CBCdriftDiffusionLR_startingBoundary,fitCBCsimpleRW_CBCdriftDiffusionLR_startingPoint,fit_CBCsimpleRW_CBCdriftDiffusionLR_NLL
131,1,1,B,1,0,a,63,1,1,1B,0B,1,0,1,0,B10,0.563014159511441,2.77258872223978,0.5,0.5,0.5,0.5,0.5,0.5,0.5,0.5,0.5,0.5,0.5,0.5,0.5,0.5,0.5,0.5,1.22047520113036,0,0,1,0B,1B,0.5,0.5,0.5,0.5,0,0,-0.5,-0.469963515123156,0.5,0.195879521736047,0.965475201130362,4.68553279683288,1.87319031889116,0.5,0.495676387820835,0.500698435725187,0.5,0.939927030246312,0.982816014731212,1.50776648035568,1.8929445334158,0.5,39.3146812005757
131,1,2,D,3,2,a,63,1,1,3D,2D,1,0,1,0,D32,1.70430530565049,2.83321334405622,0.5,0.5,0.5,0.5,0.030036484876844,0.5,0.5,0.5,0.5,0.5,0.5,0.5,0.5,0.5,0.5,0.5,1.18147520113036,0,0,1,2D,3D,0.5,0.5,0.5,0.5,0,0,-0.5,-0.469963515123156,0.5,0.195879521736047,0.965475201130362,4.68553279683288,1.87319031889116,0.5,0.447615621138923,0.500262310034038,0.5,0.939927030246312,0.982816014731212,1.50776648035568,1.8929445334158,0.5,39.3146812005757
131,1,3,B,3,1,l,27,1,1,3B,1B,0,1,0,1,B31,1.27124919821622,2.89037175789616,0.5,0.5,0.5,0.5,0.030036484876844,0.5,0.5,0.5,0.5,0.5,0.5,0.5,0.5,0.5,0.030036484876844,0.5,1.08847520113036,0,0,1,1B,3B,0.5,0.5,0.5,0.5,1,1,0.5,0.469963515123156,0.5,0.195879521736047,0.965475201130362,4.68553279683288,1.87319031889116,0.5,0.158602351102032,0.500219813378257,0.5,0.939927030246312,0.982816014731212,1.50776648035568,1.8929445334158,0.5,39.3146812005757
131,1,4,C,2,3,a,63,1,1,2C,3C,1,0,1,0,C23,3.43267401494655,2.94443897916644,0.5,0.5,0.5,0.5,0.030036484876844,0.969963515123156,0.5,0.5,0.5,0.5,0.5,0.5,0.5,0.5,0.030036484876844,0.5,1.33547520113036,1,1,0,2C,3C,0.5,0.5,0.5,0.5,1,1,0.5,0.469963515123156,0.5,0.195879521736047,0.965475201130362,4.68553279683288,1.87319031889116,0.5,0.506295797794402,0.500066382433955,0.5,0.939927030246312,0.982816014731212,1.50776648035568,1.8929445334158,0.5,39.3146812005757
131,1,5,C,0,2,l,27,1,1,0C,2C,0,1,0,1,C02,1.59599403896914,2.99573227355399,0.5,0.5,0.5,0.5,0.030036484876844,0.969963515123156,0.5,0.5,0.5,0.5,0.969963515123156,0.5,0.5,0.5,0.030036484876844,0.5,4.47347520113036,0,0,1,2C,0C,0.969963515123156,0.5,0.659855503312877,0.340144496687123,1,1,0.030036484876844,0.0282321040293302,0.5,0.195879521736047,0.965475201130362,4.68553279683288,1.87319031889116,0.5,0.00754204601129414,0.71303728432572,0.5,0.939927030246312,0.982816014731212,1.50776648035568,1.8929445334158,0.5,39.3146812005757
131,1,6,A,0,3,a,9,1,1,0A,3A,1,0,1,0,A03,2.32507802231859,3.04452243772342,0.5,0.5,0.5,0.5,0.030036484876844,0.969963515123156,0.5,0.5,0.5,0.5,0.998195619152486,0.5,0.5,0.5,0.030036484876844,0.5,1.59547520113036,0,0,1,3A,0A,0.5,0.5,0.5,0.5,0,0,-0.5,-0.469963515123156,0.5,0.195879521736047,0.965475201130362,4.68553279683288,1.87319031889116,0.5,0.375722488619528,0.499949986804379,0.5,0.939927030246312,0.982816014731212,1.50776648035568,1.8929445334158,0.5,39.3146812005757
131,1,7,C,2,3,a,63,1,1,2C,3C,1,0,1,0,C23,3.18862285856833,2.39789527279837,0.5,0.5,0.5,0.030036484876844,0.030036484876844,0.969963515123156,0.5,0.5,0.5,0.5,0.998195619152486,0.5,0.5,0.5,0.030036484876844,0.5,3.24547520113036,1,1,0,2C,3C,0.998195619152486,0.5,0.666265210224787,0.333734789775213,1,1,0.00180438084751378,0.00169598633143695,0.5,0.195879521736047,0.965475201130362,4.68553279683288,1.87319031889116,0.5,0.0470079990725762,0.720797648860871,0.5,0.939927030246312,0.982816014731212,1.50776648035568,1.8929445334158,0.5,39.3146812005757
131,1,8,A,1,0,l,63,1,1,1A,0A,0,1,0,1,A10,1.46157234872088,3.13549421592915,0.5,0.5,0.5,0.030036484876844,0.030036484876844,0.969963515123156,0.5,0.5,0.5,0.5,0.999891605483923,0.5,0.5,0.5,0.030036484876844,0.5,2.10847520113036,1,1,0,1A,0A,0.5,0.5,0.5,0.5,0,0,-0.5,-0.469963515123156,0.5,0.195879521736047,0.965475201130362,4.68553279683288,1.87319031889116,0.5,0.186108789188072,0.500186380703739,0.5,0.939927030246312,0.982816014731212,1.50776648035568,1.8929445334158,0.5,39.3146812005757
131,1,9,D,2,3,l,63,1,1,2D,3D,0,1,0,1,D23,0.647995881726694,3.17805383034795,0.5,0.030036484876844,0.5,0.030036484876844,0.030036484876844,0.969963515123156,0.5,0.5,0.5,0.5,0.999891605483923,0.5,0.5,0.5,0.030036484876844,0.5,1.29347520113036,0,0,1,3D,2D,0.5,0.030036484876844,0.9433312880644,0.0566687119356002,1,1,0.5,0.469963515123156,0.5,0.195879521736047,0.965475201130362,4.68553279683288,1.87319031889116,0.5,1.38572158375709,0.926431247362797,0.5,0.939927030246312,0.982816014731212,1.50776648035568,1.8929445334158,0.5,39.3146812005757
131,1,10,C,3,2,l,63,1,1,3C,2C,0,1,0,1,C32,1.17024019008787,3.2188758248682,0.5,0.030036484876844,0.5,0.030036484876844,0.030036484876844,0.969963515123156,0.5,0.5,0.5,0.5,0.999891605483923,0.5,0.5,0.5,0.030036484876844,0.969963515123156,1.24747520113036,0,0,1,2C,3C,0.999891605483923,0.5,0.666642577255654,0.333357422744346,1,1,0.000108394516076804,0.000101882935591057,0.5,0.195879521736047,0.965475201130362,4.68553279683288,1.87319031889116,0.5,0.794815677501583,0.721608905309092,0.5,0.939927030246312,0.982816014731212,1.50776648035568,1.8929445334158,0.5,39.3146812005757
131,1,11,D,3,1,a,27,1,1,3D,1D,1,0,1,0,D31,2.97765225174805,3.25809653802148,0.5,0.030036484876844,0.5,0.030036484876844,0.030036484876844,0.969963515123156,0.5,0.5,0.5,0.5,0.999993488419514,0.5,0.5,0.5,0.030036484876844,0.969963515123156,1.62347520113036,0,0,1,1D,3D,0.5,0.969963515123156,0.340144496687123,0.659855503312877,0,0,-0.5,-0.469963515123156,0.5,0.195879521736047,0.965475201130362,4.68553279683288,1.87319031889116,0.5,0.212877717358902,0.286513135088251,0.5,0.939927030246312,0.982816014731212,1.50776648035568,1.8929445334158,0.5,39.3146812005757
131,1,12,A,0,1,a,63,1,1,0A,1A,1,0,1,0,A01,2.16688283325765,3.29583686600433,0.5,0.030036484876844,0.5,0.030036484876844,0.030036484876844,0.969963515123156,0.5,0.5,0.5,0.5,0.999993488419514,0.5,0.5,0.030036484876844,0.030036484876844,0.969963515123156,1.56647520113036,1,1,0,0A,1A,0.5,0.030036484876844,0.9433312880644,0.0566687119356002,1,1,0.5,0.469963515123156,0.5,0.195879521736047,0.965475201130362,4.68553279683288,1.87319031889116,0.5,0.821717590233877,0.926330043389779,0.5,0.939927030246312,0.982816014731212,1.50776648035568,1.8929445334158,0.5,39.3146812005757
131,1,13,C,3,2,l,63,1,1,3C,2C,0,1,0,1,C32,3.06138654883862,2.63905732961526,0.969963515123156,0.030036484876844,0.5,0.030036484876844,0.030036484876844,0.969963515123156,0.5,0.5,0.5,0.5,0.999993488419514,0.5,0.5,0.030036484876844,0.030036484876844,0.969963515123156,2.17147520113036,1,1,0,3C,2C,0.5,0.999993488419514,0.333334780357501,0.666665219642499,0,0,-0.5,-0.469963515123156,0.5,0.195879521736047,0.965475201130362,4.68553279683288,1.87319031889116,0.5,0.0914104186635385,0.279094532762404,0.5,0.939927030246312,0.982816014731212,1.50776648035568,1.8929445334158,0.5,39.3146812005757
131,1,14,A,2,0,l,27,1,1,2A,0A,0,1,0,1,A20,2.106445002224,3.36729582998647,0.969963515123156,0.030036484876844,0.5,0.030036484876844,0.030036484876844,0.969963515123156,0.5,0.5,0.5,0.5,0.999993488419514,0.030036484876844,0.5,0.030036484876844,0.030036484876844,0.969963515123156,1.23247520113036,0,0,1,0A,2A,0.969963515123156,0.5,0.659855503312877,0.340144496687123,1,1,0.030036484876844,0.0282321040293302,0.5,0.195879521736047,0.965475201130362,4.68553279683288,1.87319031889116,0.5,0.770936140230451,0.713108049241097,0.5,0.939927030246312,0.982816014731212,1.50776648035568,1.8929445334158,0.5,39.3146812005757
131,1,15,B,1,0,a,63,1,1,1B,0B,1,0,1,0,B10,2.57534655720261,2.70805020110221,0.998195619152486,0.030036484876844,0.5,0.030036484876844,0.030036484876844,0.969963515123156,0.5,0.5,0.5,0.5,0.999993488419514,0.030036484876844,0.5,0.030036484876844,0.030036484876844,0.969963515123156,1.80747520113036,1,1,0,1B,0B,0.969963515123156,0.030036484876844,0.969963515123156,0.030036484876844,1,1,0.030036484876844,0.0282321040293302,0.5,0.195879521736047,0.965475201130362,4.68553279683288,1.87319031889116,0.5,0.47031799482346,0.935971970087976,0.5,0.939927030246312,0.982816014731212,1.50776648035568,1.8929445334158,0.5,39.3146812005757
131,1,16,D,2,3,l,63,1,1,2D,3D,0,1,0,1,D23,1.89034096116782,2.7408400239252,0.998195619152486,0.030036484876844,0.5,0.030036484876844,0.030036484876844,0.998195619152486,0.5,0.5,0.5,0.5,0.999993488419514,0.030036484876844,0.5,0.030036484876844,0.030036484876844,0.969963515123156,1.81747520113036,0,0,1,3D,2D,0.969963515123156,0.030036484876844,0.969963515123156,0.030036484876844,1,1,0.030036484876844,0.0282321040293302,0.5,0.195879521736047,0.965475201130362,4.68553279683288,1.87319031889116,0.5,0.459273852264729,0.935965624234154,0.5,0.939927030246312,0.982816014731212,1.50776648035568,1.8929445334158,0.5,39.3146812005757
131,1,17,B,2,1,l,9,1,1,2B,1B,0,1,0,1,B21,2.1005301196196,3.46573590279973,0.998195619152486,0.030036484876844,0.5,0.030036484876844,0.030036484876844,0.998195619152486,0.5,0.5,0.5,0.5,0.999993488419514,0.030036484876844,0.5,0.030036484876844,0.030036484876844,0.998195619152486,1.27947520113036,0,0,1,1B,2B,0.998195619152486,0.5,0.666265210224787,0.333734789775213,1,1,0.00180438084751378,0.00169598633143695,0.5,0.195879521736047,0.965475201130362,4.68553279683288,1.87319031889116,0.5,0.800483077939148,0.721526239156996,0.5,0.939927030246312,0.982816014731212,1.50776648035568,1.8929445334158,0.5,39.3146812005757
131,1,18,D,3,1,a,27,1,1,3D,1D,1,0,1,0,D31,0.622960043709681,2.80336038090653,0.998195619152486,0.030036484876844,0.5,0.030036484876844,0.030036484876844,0.999891605483923,0.5,0.5,0.5,0.5,0.999993488419514,0.030036484876844,0.5,0.030036484876844,0.030036484876844,0.998195619152486,1.78447520113036,1,1,0,3D,1D,0.998195619152486,0.030036484876844,0.970788224994007,0.0292117750059934,1,1,0.00180438084751378,0.00169598633143695,0.5,0.195879521736047,0.965475201130362,4.68553279683288,1.87319031889116,0.5,0.496463759279706,0.936307906301107,0.5,0.939927030246312,0.982816014731212,1.50776648035568,1.8929445334158,0.5,39.3146812005757
131,1,19,A,1,0,l,63,1,1,1A,0A,0,1,0,1,A10,1.13416883817983,2.83321334405622,0.998195619152486,0.030036484876844,0.5,0.030036484876844,0.030036484876844,0.999891605483923,0.5,0.5,0.5,0.5,0.999993488419514,0.030036484876844,0.5,0.030036484876844,0.030036484876844,0.999891605483923,1.73647520113036,0,0,1,0A,1A,0.998195619152486,0.030036484876844,0.970788224994007,0.0292117750059934,1,1,0.00180438084751378,0.00169598633143695,0.5,0.195879521736047,0.965475201130362,4.68553279683288,1.87319031889116,0.5,0.556569456909535,0.936224079986019,0.5,0.939927030246312,0.982816014731212,1.50776648035568,1.8929445334158,0.5,39.3146812005757
131,1,20,A,0,1,a,63,1,1,0A,1A,1,0,1,0,A01,0.447319037732451,2.86220088092947,0.999891605483923,0.030036484876844,0.5,0.030036484876844,0.030036484876844,0.999891605483923,0.5,0.5,0.5,0.5,0.999993488419514,0.030036484876844,0.5,0.030036484876844,0.030036484876844,0.999891605483923,1.43647520113036,1,1,0,0A,1A,0.999891605483923,0.030036484876844,0.970836328130129,0.0291636718698707,1,1,0.000108394516076804,0.000101882935591057,0.5,0.195879521736047,0.965475201130362,4.68553279683288,1.87319031889116,0.5,1.11642112970892,0.93642033574786,0.5,0.939927030246312,0.982816014731212,1.50776648035568,1.8929445334158,0.5,39.3146812005757
131,1,21,C,0,2,l,27,1,1,0C,2C,0,1,0,1,C02,2.97220431913208,2.89037175789616,0.999993488419514,0.030036484876844,0.5,0.030036484876844,0.030036484876844,0.999891605483923,0.5,0.5,0.5,0.5,0.999993488419514,0.030036484876844,0.5,0.030036484876844,0.030036484876844,0.999891605483923,1.40647520113036,0,0,1,2C,0C,0.999993488419514,0.5,0.666665219642499,0.333334780357501,1,1,6.51158048570188e-06,6.12041050813561e-06,0.5,0.195879521736047,0.965475201130362,4.68553279683288,1.87319031889116,0.5,0.725643309514356,0.721755980130892,0.5,0.939927030246312,0.982816014731212,1.50776648035568,1.8929445334158,0.5,39.3146812005757
131,1,22,B,1,0,a,63,1,1,1B,0B,1,0,1,0,B10,2.02962479579302,2.51230562397611,0.999993488419514,0.030036484876844,0.5,0.030036484876844,0.030036484876844,0.999891605483923,0.5,0.5,0.5,0.5,0.999999608830022,0.030036484876844,0.5,0.030036484876844,0.030036484876844,0.999891605483923,1.43847520113036,1,1,0,1B,0B,0.999891605483923,0.030036484876844,0.970836328130129,0.0291636718698707,1,1,0.000108394516076804,0.000101882935591057,0.5,0.195879521736047,0.965475201130362,4.68553279683288,1.87319031889116,0.5,1.11188101377089,0.936513901314365,0.5,0.939927030246312,0.982816014731212,1.50776648035568,1.8929445334158,0.5,39.3146812005757
131,1,23,C,0,2,l,27,1,1,0C,2C,0,1,0,1,C02,2.49917211708887,2.53897387105828,0.999993488419514,0.030036484876844,0.5,0.030036484876844,0.030036484876844,0.999993488419514,0.5,0.5,0.5,0.5,0.999999608830022,0.030036484876844,0.5,0.030036484876844,0.030036484876844,0.999891605483923,1.65347520113036,0,0,1,2C,0C,0.999999608830022,0.5,0.666666579739982,0.333333420260018,1,1,3.91169977520534e-07,3.67671235292392e-07,0.5,0.195879521736047,0.965475201130362,4.68553279683288,1.87319031889116,0.5,0.513723279162344,0.721368831302404,0.5,0.939927030246312,0.982816014731212,1.50776648035568,1.8929445334158,0.5,39.3146812005757
131,1,24,D,2,3,l,63,1,1,2D,3D,0,1,0,1,D23,0.333541502144936,2.56494935746154,0.999993488419514,0.030036484876844,0.5,0.030036484876844,0.030036484876844,0.999993488419514,0.5,0.5,0.5,0.5,0.999999976501258,0.030036484876844,0.5,0.030036484876844,0.030036484876844,0.999891605483923,1.61247520113036,0,0,1,3D,2D,0.999891605483923,0.030036484876844,0.970836328130129,0.0291636718698707,1,1,0.000108394516076804,0.000101882935591057,0.5,0.195879521736047,0.965475201130362,4.68553279683288,1.87319031889116,0.5,0.746418814929986,0.93626663488464,0.5,0.939927030246312,0.982816014731212,1.50776648035568,1.8929445334158,0.5,39.3146812005757
131,1,25,A,0,1,a,63,1,1,0A,1A,1,0,1,0,A01,3.41938845210901,2.59026716544583,0.999993488419514,0.030036484876844,0.5,0.030036484876844,0.030036484876844,0.999993488419514,0.5,0.5,0.5,0.5,0.999999976501258,0.030036484876844,0.5,0.030036484876844,0.030036484876844,0.999993488419514,1.16747520113036,1,1,0,0A,1A,0.999993488419514,0.030036484876844,0.970839212784537,0.0291607872154628,1,1,6.51158048570188e-06,6.12041050813561e-06,0.5,0.195879521736047,0.965475201130362,4.68553279683288,1.87319031889116,0.5,1.34011631929993,0.936412985014889,0.5,0.939927030246312,0.982816014731212,1.50776648035568,1.8929445334158,0.5,39.3146812005757
131,1,26,C,2,3,a,63,1,1,2C,3C,1,0,1,0,C23,2.21314194078856,2.6149597780362,0.999999608830022,0.030036484876844,0.5,0.030036484876844,0.030036484876844,0.999993488419514,0.5,0.5,0.5,0.5,0.999999976501258,0.030036484876844,0.5,0.030036484876844,0.030036484876844,0.999993488419514,1.22947520113036,1,1,0,2C,3C,0.999999976501258,0.030036484876844,0.970839396464997,0.0291606035350027,1,1,2.34987421743327e-08,2.20871029464443e-08,0.5,0.195879521736047,0.965475201130362,4.68553279683288,1.87319031889116,0.5,1.49846157962118,0.936190156328079,0.5,0.939927030246312,0.982816014731212,1.50776648035568,1.8929445334158,0.5,39.3146812005757
131,1,27,A,0,2,a,27,1,1,0A,2A,1,0,1,0,A02,0.506791269642463,3.73766961828337,0.999999608830022,0.030036484876844,0.5,0.030036484876844,0.030036484876844,0.999993488419514,0.5,0.5,0.5,0.5,0.999999998588361,0.030036484876844,0.5,0.030036484876844,0.030036484876844,0.999993488419514,1.25047520113036,0,0,1,2A,0A,0.5,0.999999608830022,0.333333420260018,0.666666579739982,0,0,-0.5,-0.469963515123156,0.5,0.195879521736047,0.965475201130362,4.68553279683288,1.87319031889116,0.5,0.306705281595443,0.277882324413956,0.5,0.939927030246312,0.982816014731212,1.50776648035568,1.8929445334158,0.5,39.3146812005757
131,1,28,D,2,3,l,63,1,1,2D,3D,0,1,0,1,D23,0.41808237754258,2.37490575457367,0.999999608830022,0.030036484876844,0.030036484876844,0.030036484876844,0.030036484876844,0.999993488419514,0.5,0.5,0.5,0.5,0.999999998588361,0.030036484876844,0.5,0.030036484876844,0.030036484876844,0.999993488419514,1.32447520113036,0,0,1,3D,2D,0.999993488419514,0.030036484876844,0.970839212784537,0.0291607872154628,1,1,6.51158048570188e-06,6.12041050813561e-06,0.5,0.195879521736047,0.965475201130362,4.68553279683288,1.87319031889116,0.5,1.38410071159908,0.936219227861889,0.5,0.939927030246312,0.982816014731212,1.50776648035568,1.8929445334158,0.5,39.3146812005757
131,1,29,D,2,3,l,63,1,1,2D,3D,0,1,0,1,D23,2.04749310471662,2.17475172148416,0.999999608830022,0.030036484876844,0.030036484876844,0.030036484876844,0.030036484876844,0.999993488419514,0.5,0.5,0.5,0.5,0.999999998588361,0.030036484876844,0.5,0.030036484876844,0.030036484876844,0.999999608830022,1.99047520113036,0,0,1,3D,2D,0.999999608830022,0.030036484876844,0.970839386056124,0.0291606139438759,1,1,3.91169977520534e-07,3.67671235292392e-07,0.5,0.195879521736047,0.965475201130362,4.68553279683288,1.87319031889116,0.5,0.304004682621705,0.936187562325068,0.5,0.939927030246312,0.982816014731212,1.50776648035568,1.8929445334158,0.5,39.3146812005757
131,1,30,B,1,3,a,27,1,1,1B,3B,1,0,1,0,B13,1.83107509630928,3.80666248977032,0.999999608830022,0.030036484876844,0.030036484876844,0.030036484876844,0.030036484876844,0.999993488419514,0.5,0.5,0.5,0.5,0.999999998588361,0.030036484876844,0.5,0.030036484876844,0.030036484876844,0.999999976501258,1.76947520113036,1,1,0,1B,3B,0.999993488419514,0.5,0.666665219642499,0.333334780357501,1,1,6.51158048570188e-06,6.12041050813561e-06,0.5,0.195879521736047,0.965475201130362,4.68553279683288,1.87319031889116,0.5,0.432534956293905,0.722087498495551,0.5,0.939927030246312,0.982816014731212,1.50776648035568,1.8929445334158,0.5,39.3146812005757
131,1,31,D,3,0,a,9,1,1,3D,0D,1,0,1,0,D30,0.163200001757919,3.8286413964891,0.999999608830022,0.030036484876844,0.030036484876844,0.030036484876844,0.030036484876844,0.999999608830022,0.5,0.5,0.5,0.5,0.999999998588361,0.030036484876844,0.5,0.030036484876844,0.030036484876844,0.999999976501258,2.56747520113036,1,1,0,3D,0D,0.999999976501258,0.5,0.666666661444724,0.333333338555276,1,1,2.34987421743327e-08,2.20871029464443e-08,0.5,0.195879521736047,0.965475201130362,4.68553279683288,1.87319031889116,0.5,0.130234308666398,0.721257342721144,0.5,0.939927030246312,0.982816014731212,1.50776648035568,1.8929445334158,0.5,39.3146812005757
131,1,32,B,0,1,l,63,1,1,0B,1B,0,1,0,1,B01,3.15072216259643,3.85014760171006,0.999999608830022,0.030036484876844,0.030036484876844,0.030036484876844,0.030036484876844,0.999999608830022,0.5,0.5,0.5,0.5,0.999999998588361,0.030036484876844,0.5,0.030036484876844,0.030036484876844,0.999999998588361,2.12647520113036,0,0,1,1B,0B,0.999999608830022,0.030036484876844,0.970839386056124,0.0291606139438759,1,1,3.91169977520534e-07,3.67671235292392e-07,0.5,0.195879521736047,0.965475201130362,4.68553279683288,1.87319031889116,0.5,0.219721634053194,0.936274282096072,0.5,0.939927030246312,0.982816014731212,1.50776648035568,1.8929445334158,0.5,39.3146812005757
131,1,33,A,0,1,a,63,1,1,0A,1A,1,0,1,0,A01,1.73480239552978,2.484906649788,0.999999608830022,0.030036484876844,0.030036484876844,0.030036484876844,0.030036484876844,0.999999976501258,0.5,0.5,0.5,0.5,0.999999998588361,0.030036484876844,0.5,0.030036484876844,0.030036484876844,0.999999998588361,1.13847520113036,1,1,0,0A,1A,0.999999608830022,0.030036484876844,0.970839386056124,0.0291606139438759,1,1,3.91169977520534e-07,3.67671235292392e-07,0.5,0.195879521736047,0.965475201130362,4.68553279683288,1.87319031889116,0.5,1.1329673069794,0.936170304745515,0.5,0.939927030246312,0.982816014731212,1.50776648035568,1.8929445334158,0.5,39.3146812005757
131,1,34,B,0,1,l,63,1,1,0B,1B,0,1,0,1,B01,1.28732822332271,3.19867311755068,0.999999976501258,0.030036484876844,0.030036484876844,0.030036484876844,0.030036484876844,0.999999976501258,0.5,0.5,0.5,0.5,0.999999998588361,0.030036484876844,0.5,0.030036484876844,0.030036484876844,0.999999998588361,1.40147520113036,0,0,1,1B,0B,0.999999976501258,0.030036484876844,0.970839396464997,0.0291606035350027,1,1,2.34987421743327e-08,2.20871029464443e-08,0.5,0.195879521736047,0.965475201130362,4.68553279683288,1.87319031889116,0.5,1.20222753518609,0.936510532028039,0.5,0.939927030246312,0.982816014731212,1.50776648035568,1.8929445334158,0.5,39.3146812005757
131,1,35,C,2,3,a,63,1,1,2C,3C,1,0,1,0,C23,2.37185573196084,2.52572864430826,0.999999976501258,0.030036484876844,0.030036484876844,0.030036484876844,0.030036484876844,0.999999998588361,0.5,0.5,0.5,0.5,0.999999998588361,0.030036484876844,0.5,0.030036484876844,0.030036484876844,0.999999998588361,1.82947520113036,1,1,0,2C,3C,0.999999998588361,0.030036484876844,0.970839397090289,0.029160602909711,1,1,1.41163924993748e-09,1.32683788797287e-09,0.5,0.195879521736047,0.965475201130362,4.68553279683288,1.87319031889116,0.5,0.445855415571968,0.936460868965767,0.5,0.939927030246312,0.982816014731212,1.50776648035568,1.8929445334158,0.5,39.3146812005757
131,1,36,A,2,0,l,27,1,1,2A,0A,0,1,0,1,A20,1.95883337322201,3.23867845216438,0.999999976501258,0.030036484876844,0.030036484876844,0.030036484876844,0.030036484876844,0.999999998588361,0.5,0.5,0.5,0.5,0.999999999915199,0.030036484876844,0.5,0.030036484876844,0.030036484876844,0.999999998588361,1.18247520113036,0,0,1,0A,2A,0.999999976501258,0.030036484876844,0.970839396464997,0.0291606035350027,1,1,2.34987421743327e-08,2.20871029464443e-08,0.5,0.195879521736047,0.965475201130362,4.68553279683288,1.87319031889116,0.5,1.40806307995923,0.936331595100267,0.5,0.939927030246312,0.982816014731212,1.50776648035568,1.8929445334158,0.5,39.3146812005757
131,1,37,B,0,1,l,63,1,1,0B,1B,0,1,0,1,B01,1.54649315406056,2.85263142991332,0.999999998588361,0.030036484876844,0.030036484876844,0.030036484876844,0.030036484876844,0.999999998588361,0.5,0.5,0.5,0.5,0.999999999915199,0.030036484876844,0.5,0.030036484876844,0.030036484876844,0.999999998588361,1.53747520113036,0,0,1,1B,0B,0.999999998588361,0.030036484876844,0.970839397090289,0.029160602909711,1,1,1.41163924993748e-09,1.32683788797287e-09,0.5,0.195879521736047,0.965475201130362,4.68553279683288,1.87319031889116,0.5,0.889310443774609,0.936309298387882,0.5,0.939927030246312,0.982816014731212,1.50776648035568,1.8929445334158,0.5,39.3146812005757
131,1,38,B,1,3,a,27,1,1,1B,3B,1,0,1,0,B13,1.06651098999004,3.27714473299218,0.999999998588361,0.030036484876844,0.030036484876844,0.030036484876844,0.030036484876844,0.999999999915199,0.5,0.5,0.5,0.5,0.999999999915199,0.030036484876844,0.5,0.030036484876844,0.030036484876844,0.999999998588361,1.31647520113036,1,1,0,1B,3B,0.999999999915199,0.5,0.666666666647822,0.333333333352178,1,1,8.48013881338261e-11,7.9707116909392e-11,0.5,0.195879521736047,0.965475201130362,4.68553279683288,1.87319031889116,0.5,0.790729815460722,0.722183124752898,0.5,0.939927030246312,0.982816014731212,1.50776648035568,1.8929445334158,0.5,39.3146812005757
131,1,39,C,2,3,a,63,1,1,2C,3C,1,0,1,0,C23,3.2002237593115,2.37954613413017,0.999999998588361,0.030036484876844,0.030036484876844,0.030036484876844,0.030036484876844,0.999999999994906,0.5,0.5,0.5,0.5,0.999999999915199,0.030036484876844,0.5,0.030036484876844,0.030036484876844,0.999999998588361,3.41747520113036,1,1,0,2C,3C,0.999999999915199,0.030036484876844,0.970839397127852,0.0291606028721479,1,1,8.48013881338261e-11,7.9707116909392e-11,0.5,0.195879521736047,0.965475201130362,4.68553279683288,1.87319031889116,0.5,0.0101074869019916,0.936283111434108,0.5,0.939927030246312,0.982816014731212,1.50776648035568,1.8929445334158,0.5,39.3146812005757
131,1,40,D,1,3,l,27,1,1,1D,3D,0,1,0,1,D13,1.3886860571097,4.00733318523247,0.999999998588361,0.030036484876844,0.030036484876844,0.030036484876844,0.030036484876844,0.999999999994906,0.5,0.5,0.5,0.5,0.999999999994906,0.030036484876844,0.5,0.030036484876844,0.030036484876844,0.999999998588361,1.73647520113036,0,0,1,3D,1D,0.999999998588361,0.030036484876844,0.970839397090289,0.029160602909711,1,1,1.41163924993748e-09,1.32683788797287e-09,0.5,0.195879521736047,0.965475201130362,4.68553279683288,1.87319031889116,0.5,0.556549729211885,0.936256581606923,0.5,0.939927030246312,0.982816014731212,1.50776648035568,1.8929445334158,0.5,39.3146812005757
131,1,41,C,2,1,a,9,1,1,2C,1C,1,0,1,0,C21,0.260298322499081,4.02535169073515,0.999999998588361,0.030036484876844,0.030036484876844,0.030036484876844,0.030036484876844,0.999999999994906,0.5,0.5,0.5,0.5,0.999999999994906,0.030036484876844,0.5,0.030036484876844,0.030036484876844,0.999999999915199,1.81447520113036,1,1,0,2C,1C,0.999999999994906,0.5,0.666666666665535,0.333333333334465,1,1,5.09425834849253e-12,4.78823112080607e-12,0.5,0.195879521736047,0.965475201130362,4.68553279683288,1.87319031889116,0.5,0.40391706383065,0.721398019651103,0.5,0.939927030246312,0.982816014731212,1.50776648035568,1.8929445334158,0.5,39.3146812005757
131,1,42,B,1,0,a,63,1,1,1B,0B,1,0,1,0,B10,2.79782577309663,2.65675690671466,0.999999998588361,0.030036484876844,0.030036484876844,0.030036484876844,0.030036484876844,0.999999999994906,0.5,0.5,0.5,0.5,0.999999999999694,0.030036484876844,0.5,0.030036484876844,0.030036484876844,0.999999999915199,1.10247520113036,1,1,0,1B,0B,0.999999999994906,0.030036484876844,0.970839397130108,0.0291606028698914,1,1,5.09425834849253e-12,4.78823112080607e-12,0.5,0.195879521736047,0.965475201130362,4.68553279683288,1.87319031889116,0.5,0.734624730458958,0.936417792769785,0.5,0.939927030246312,0.982816014731212,1.50776648035568,1.8929445334158,0.5,39.3146812005757
131,1,43,D,2,3,l,63,1,1,2D,3D,0,1,0,1,D23,1.17289416177203,2.26868354131836,0.999999998588361,0.030036484876844,0.030036484876844,0.030036484876844,0.030036484876844,0.999999999999694,0.5,0.5,0.5,0.5,0.999999999999694,0.030036484876844,0.5,0.030036484876844,0.030036484876844,0.999999999915199,2.03747520113036,1,1,0,2D,3D,0.030036484876844,0.999999999915199,0.0291606028721479,0.970839397127852,0,0,-0.030036484876844,-0.0282321040293302,0.5,0.195879521736047,0.965475201130362,4.68553279683288,1.87319031889116,0.5,0.0185022090628991,0.0637539257836245,0.5,0.939927030246312,0.982816014731212,1.50776648035568,1.8929445334158,0.5,39.3146812005757
131,1,44,A,1,0,l,63,1,1,1A,0A,0,1,0,1,A10,3.14588989630507,2.97892515523761,0.999999998588361,0.030036484876844,0.030036484876844,0.030036484876844,0.030036484876844,0.999999999999694,0.5,0.5,0.5,0.5,0.999999999999694,0.030036484876844,0.5,0.030036484876844,0.00180438084751375,0.999999999915199,1.30547520113036,0,0,1,0A,1A,0.999999998588361,0.030036484876844,0.970839397090289,0.029160602909711,1,1,1.41163924993748e-09,1.32683788797287e-09,0.5,0.195879521736047,0.965475201130362,4.68553279683288,1.87319031889116,0.5,1.42398609796179,0.936360115424622,0.5,0.939927030246312,0.982816014731212,1.50776648035568,1.8929445334158,0.5,39.3146812005757
