ID,filename,session,trial,visStimLeft,visStimRight,correctKey,leftCorrect,rightCorrect,secondStim,mod2Type,mod2Stim,frequency,rewardAccurate,stimPairLeft,stimPairRight,pCorrectLeft,pCorrectRight,key,reactionTime,choiceLeft,choiceRight,choiceAccurate,reward,chosenPair,otherPair,triplet,surprise,0A belief,1A belief,2A belief,3A belief,0B belief,1B belief,2B belief,3B belief,0C belief,1C belief,2C belief,3C belief,0D belief,1D belief,2D belief,3D belief,beliefPairNorm,beliefOtherPairNorm,beliefPair,beliefOtherPair,lik,corrLik,rewardPE,update2,fitCBCsimpleRW_CBCdriftDiffusionLR_startBelief,fitCBCsimpleRW_CBCdriftDiffusionLR_alpha1,fitCBCsimpleRW_CBCdriftDiffusionLR_nonDecisionTime,fitCBCsimpleRW_CBCdriftDiffusionLR_weight,fitCBCsimpleRW_CBCdriftDiffusionLR_startingBoundary,fitCBCsimpleRW_CBCdriftDiffusionLR_startingPoint,fit_CBCsimpleRW_CBCdriftDiffusionLR_NLL
CBC_1122,CBC_1122_MSI_AV_v3_Vset4_Aset2_2024-08-25_13h40.21.283.csv,1,1,0,1,z,0,1,2,aud,B,63,1,0B,1B,0,1,z,1.76373280000007,0,1,1,1,1B,0B,B01,2.77258872223978,0.5,0.5,0.5,0.5,0.5,0.5,0.5,0.5,0.5,0.5,0.5,0.5,0.5,0.5,0.5,0.5,0.5,0.5,0.5,0.5,0.2924818038824,0.499049391146007,0.5,0.0234458076463555,0.5,0.046891615292711,1.09720276764968,2.32860085632957,2.43789409302039,0.5,73.7585330610322
CBC_1122,CBC_1122_MSI_AV_v3_Vset4_Aset2_2024-08-25_13h40.21.283.csv,1,2,2,3,z,0,1,1,aud,D,63,1,2D,3D,0,1,b,1.6945826000001,1,0,0,0,2D,3D,D23,2.83321334405622,0.5,0.5,0.5,0.5,0.5,0.523445807646356,0.5,0.5,0.5,0.5,0.5,0.5,0.5,0.5,0.5,0.5,0.5,0.5,0.5,0.5,0.303990028851007,0.500577621511136,-0.5,-0.0234458076463555,0.5,0.046891615292711,1.09720276764968,2.32860085632957,2.43789409302039,0.5,73.7585330610322
CBC_1122,CBC_1122_MSI_AV_v3_Vset4_Aset2_2024-08-25_13h40.21.283.csv,1,3,1,3,b,1,0,2,aud,B,27,1,1B,3B,1,0,z,1.60075649999999,0,1,0,0,3B,1B,B13,2.89037175789616,0.5,0.5,0.5,0.5,0.5,0.523445807646356,0.5,0.5,0.5,0.5,0.5,0.5,0.5,0.5,0.476554192353644,0.5,0.488545652602616,0.511454347397384,0.5,0.523445807646356,0.291389785197706,0.467470049757814,-0.5,-0.0234458076463555,0.5,0.046891615292711,1.09720276764968,2.32860085632957,2.43789409302039,0.5,73.7585330610322
CBC_1122,CBC_1122_MSI_AV_v3_Vset4_Aset2_2024-08-25_13h40.21.283.csv,1,4,3,2,z,0,1,3,aud,C,63,1,3C,2C,0,1,b,2.83859359999951,1,0,0,0,3C,2C,C32,2.94443897916644,0.5,0.5,0.5,0.5,0.5,0.523445807646356,0.5,0.476554192353644,0.5,0.5,0.5,0.5,0.5,0.5,0.476554192353644,0.5,0.5,0.5,0.5,0.5,0.124380846573957,0.499527375611569,-0.5,-0.0234458076463555,0.5,0.046891615292711,1.09720276764968,2.32860085632957,2.43789409302039,0.5,73.7585330610322
CBC_1122,CBC_1122_MSI_AV_v3_Vset4_Aset2_2024-08-25_13h40.21.283.csv,1,5,2,0,b,1,0,3,aud,C,27,1,2C,0C,1,0,b,2.36627769999996,1,0,1,1,2C,0C,C20,2.99573227355399,0.5,0.5,0.5,0.5,0.5,0.523445807646356,0.5,0.476554192353644,0.5,0.5,0.5,0.476554192353644,0.5,0.5,0.476554192353644,0.5,0.5,0.5,0.5,0.5,0.184467962502557,0.500820562588565,0.5,0.0234458076463555,0.5,0.046891615292711,1.09720276764968,2.32860085632957,2.43789409302039,0.5,73.7585330610322
CBC_1122,CBC_1122_MSI_AV_v3_Vset4_Aset2_2024-08-25_13h40.21.283.csv,1,6,3,0,z,0,1,0,aud,A,9,1,3A,0A,0,1,z,2.04485569999997,0,1,1,1,0A,3A,A30,3.04452243772342,0.5,0.5,0.5,0.5,0.5,0.523445807646356,0.5,0.476554192353644,0.5,0.5,0.523445807646356,0.476554192353644,0.5,0.5,0.476554192353644,0.5,0.5,0.5,0.5,0.5,0.239052338900676,0.499432754531067,0.5,0.0234458076463555,0.5,0.046891615292711,1.09720276764968,2.32860085632957,2.43789409302039,0.5,73.7585330610322
CBC_1122,CBC_1122_MSI_AV_v3_Vset4_Aset2_2024-08-25_13h40.21.283.csv,1,7,3,2,z,0,1,3,aud,C,63,1,3C,2C,NaN,NaN,[],NaN,NaN,NaN,NaN,NaN,,,C32,2.39789527279837,0.523445807646356,0.5,0.5,0.5,0.5,0.523445807646356,0.5,0.476554192353644,0.5,0.5,0.523445807646356,0.476554192353644,0.5,0.5,0.476554192353644,0.5,0,0,0,0,NaN,0,0,0,0.5,0.046891615292711,1.09720276764968,2.32860085632957,2.43789409302039,0.5,73.7585330610322
CBC_1122,CBC_1122_MSI_AV_v3_Vset4_Aset2_2024-08-25_13h40.21.283.csv,1,8,0,1,b,1,0,0,aud,A,63,1,0A,1A,1,0,z,2.21938079999927,0,1,0,0,1A,0A,A01,3.13549421592915,0.523445807646356,0.5,0.5,0.5,0.5,0.523445807646356,0.5,0.476554192353644,0.5,0.5,0.523445807646356,0.476554192353644,0.5,0.5,0.476554192353644,0.5,0.488545652602616,0.511454347397384,0.5,0.523445807646356,0.194147929554675,0.46683134843963,-0.5,-0.0234458076463555,0.5,0.046891615292711,1.09720276764968,2.32860085632957,2.43789409302039,0.5,73.7585330610322
CBC_1122,CBC_1122_MSI_AV_v3_Vset4_Aset2_2024-08-25_13h40.21.283.csv,1,9,3,2,b,1,0,1,aud,D,63,1,3D,2D,1,0,z,3.92498230000001,0,1,0,0,2D,3D,D32,3.17805383034795,0.523445807646356,0.476554192353644,0.5,0.5,0.5,0.523445807646356,0.5,0.476554192353644,0.5,0.5,0.523445807646356,0.476554192353644,0.5,0.5,0.476554192353644,0.5,0.487995644363654,0.512004355636346,0.476554192353644,0.5,0.0469760813776836,0.465944505576418,-0.476554192353644,-0.0223463958539757,0.5,0.046891615292711,1.09720276764968,2.32860085632957,2.43789409302039,0.5,73.7585330610322
CBC_1122,CBC_1122_MSI_AV_v3_Vset4_Aset2_2024-08-25_13h40.21.283.csv,1,10,2,3,b,1,0,3,aud,C,63,1,2C,3C,1,0,b,1.73978970000007,1,0,1,1,2C,3C,C23,3.2188758248682,0.523445807646356,0.476554192353644,0.5,0.5,0.5,0.523445807646356,0.5,0.476554192353644,0.5,0.5,0.523445807646356,0.476554192353644,0.5,0.5,0.454207796499669,0.5,0.523445807646356,0.476554192353644,0.523445807646356,0.476554192353644,0.338196060912084,0.566469575750354,0.476554192353644,0.0223463958539757,0.5,0.046891615292711,1.09720276764968,2.32860085632957,2.43789409302039,0.5,73.7585330610322
CBC_1122,CBC_1122_MSI_AV_v3_Vset4_Aset2_2024-08-25_13h40.21.283.csv,1,11,1,3,z,0,1,1,aud,D,27,1,1D,3D,0,1,b,2.46157270000003,1,0,0,0,1D,3D,D13,3.25809653802148,0.523445807646356,0.476554192353644,0.5,0.5,0.5,0.523445807646356,0.5,0.476554192353644,0.5,0.5,0.545792203500331,0.476554192353644,0.5,0.5,0.454207796499669,0.5,0.5,0.5,0.5,0.5,0.16991422356901,0.499138192515105,-0.5,-0.0234458076463555,0.5,0.046891615292711,1.09720276764968,2.32860085632957,2.43789409302039,0.5,73.7585330610322
CBC_1122,CBC_1122_MSI_AV_v3_Vset4_Aset2_2024-08-25_13h40.21.283.csv,1,12,1,0,z,0,1,0,aud,A,63,0,1A,0A,1,0,z,2.48224850000042,0,1,1,0,0A,1A,A10,3.29583686600433,0.523445807646356,0.476554192353644,0.5,0.5,0.5,0.523445807646356,0.5,0.476554192353644,0.5,0.5,0.545792203500331,0.476554192353644,0.5,0.476554192353644,0.454207796499669,0.5,0.523445807646356,0.476554192353644,0.523445807646356,0.476554192353644,0.189444168985165,0.565798305840488,-0.523445807646356,-0.0245452194387353,0.5,0.046891615292711,1.09720276764968,2.32860085632957,2.43789409302039,0.5,73.7585330610322
CBC_1122,CBC_1122_MSI_AV_v3_Vset4_Aset2_2024-08-25_13h40.21.283.csv,1,13,2,3,b,1,0,3,aud,C,63,1,2C,3C,1,0,b,2.56997520000004,1,0,1,1,2C,3C,C23,2.63905732961526,0.49890058820762,0.476554192353644,0.5,0.5,0.5,0.523445807646356,0.5,0.476554192353644,0.5,0.5,0.545792203500331,0.476554192353644,0.5,0.476554192353644,0.454207796499669,0.5,0.533862305099072,0.466137694900929,0.545792203500331,0.476554192353644,0.185028639939853,0.594594078072415,0.454207796499669,0.0212985372564124,0.5,0.046891615292711,1.09720276764968,2.32860085632957,2.43789409302039,0.5,73.7585330610322
CBC_1122,CBC_1122_MSI_AV_v3_Vset4_Aset2_2024-08-25_13h40.21.283.csv,1,14,0,2,b,1,0,0,aud,A,27,1,0A,2A,1,0,z,3.77254489999996,0,1,0,0,2A,0A,A02,3.36729582998647,0.49890058820762,0.476554192353644,0.5,0.5,0.5,0.523445807646356,0.5,0.476554192353644,0.5,0.5,0.567090740756744,0.476554192353644,0.5,0.476554192353644,0.454207796499669,0.5,0.500550310914499,0.499449689085501,0.5,0.49890058820762,0.0574930561324535,0.501408875295411,-0.5,-0.0234458076463555,0.5,0.046891615292711,1.09720276764968,2.32860085632957,2.43789409302039,0.5,73.7585330610322
CBC_1122,CBC_1122_MSI_AV_v3_Vset4_Aset2_2024-08-25_13h40.21.283.csv,1,15,0,1,z,0,1,2,aud,B,63,1,0B,1B,0,1,z,2.67598400000043,0,1,1,1,1B,0B,B01,2.70805020110221,0.49890058820762,0.476554192353644,0.476554192353644,0.5,0.5,0.523445807646356,0.5,0.476554192353644,0.5,0.5,0.567090740756744,0.476554192353644,0.5,0.476554192353644,0.454207796499669,0.5,0.511454347397384,0.488545652602616,0.523445807646356,0.5,0.152087319653505,0.533763421868974,0.476554192353644,0.0223463958539757,0.5,0.046891615292711,1.09720276764968,2.32860085632957,2.43789409302039,0.5,73.7585330610322
CBC_1122,CBC_1122_MSI_AV_v3_Vset4_Aset2_2024-08-25_13h40.21.283.csv,1,16,3,2,b,1,0,1,aud,D,63,1,3D,2D,1,0,z,1.49613040000077,0,1,0,0,2D,3D,D32,2.7408400239252,0.49890058820762,0.476554192353644,0.476554192353644,0.5,0.5,0.545792203500331,0.5,0.476554192353644,0.5,0.5,0.567090740756744,0.476554192353644,0.5,0.476554192353644,0.454207796499669,0.5,0.476005119813362,0.523994880186638,0.454207796499669,0.5,0.26119309042903,0.432775869039235,-0.454207796499669,-0.0212985372564124,0.5,0.046891615292711,1.09720276764968,2.32860085632957,2.43789409302039,0.5,73.7585330610322
CBC_1122,CBC_1122_MSI_AV_v3_Vset4_Aset2_2024-08-25_13h40.21.283.csv,1,17,1,2,b,1,0,2,aud,B,9,1,1B,2B,1,0,z,2.03097359999992,0,1,0,0,2B,1B,B12,3.46573590279973,0.49890058820762,0.476554192353644,0.476554192353644,0.5,0.5,0.545792203500331,0.5,0.476554192353644,0.5,0.5,0.567090740756744,0.476554192353644,0.5,0.476554192353644,0.432909259243256,0.5,0.478106452052778,0.521893547947222,0.5,0.545792203500331,0.212711668194132,0.438299059317341,-0.5,-0.0234458076463555,0.5,0.046891615292711,1.09720276764968,2.32860085632957,2.43789409302039,0.5,73.7585330610322
CBC_1122,CBC_1122_MSI_AV_v3_Vset4_Aset2_2024-08-25_13h40.21.283.csv,1,18,1,3,z,0,1,1,aud,D,27,1,1D,3D,0,1,b,3.59004809999988,1,0,0,0,1D,3D,D13,2.80336038090653,0.49890058820762,0.476554192353644,0.476554192353644,0.5,0.5,0.545792203500331,0.476554192353644,0.476554192353644,0.5,0.5,0.567090740756744,0.476554192353644,0.5,0.476554192353644,0.432909259243256,0.5,0.487995644363654,0.512004355636346,0.476554192353644,0.5,0.0621994204533776,0.466876455966854,-0.476554192353644,-0.0223463958539757,0.5,0.046891615292711,1.09720276764968,2.32860085632957,2.43789409302039,0.5,73.7585330610322
CBC_1122,CBC_1122_MSI_AV_v3_Vset4_Aset2_2024-08-25_13h40.21.283.csv,1,19,0,1,b,1,0,0,aud,A,63,1,0A,1A,1,0,z,2.4668642000006,0,1,0,0,1A,0A,A01,2.83321334405622,0.49890058820762,0.476554192353644,0.476554192353644,0.5,0.5,0.545792203500331,0.476554192353644,0.476554192353644,0.5,0.5,0.567090740756744,0.476554192353644,0.5,0.454207796499669,0.432909259243256,0.5,0.488545652602616,0.511454347397384,0.476554192353644,0.49890058820762,0.158426427516318,0.46735805862796,-0.476554192353644,-0.0223463958539757,0.5,0.046891615292711,1.09720276764968,2.32860085632957,2.43789409302039,0.5,73.7585330610322
CBC_1122,CBC_1122_MSI_AV_v3_Vset4_Aset2_2024-08-25_13h40.21.283.csv,1,20,1,0,z,0,1,0,aud,A,63,1,1A,0A,0,1,z,2.30162120000023,0,1,1,1,0A,1A,A10,2.86220088092947,0.49890058820762,0.454207796499669,0.476554192353644,0.5,0.5,0.545792203500331,0.476554192353644,0.476554192353644,0.5,0.5,0.567090740756744,0.476554192353644,0.5,0.454207796499669,0.432909259243256,0.5,0.523445807646356,0.476554192353644,0.49890058820762,0.454207796499669,0.220347998632498,0.566225350282257,0.50109941179238,0.0234973608411721,0.5,0.046891615292711,1.09720276764968,2.32860085632957,2.43789409302039,0.5,73.7585330610322
CBC_1122,CBC_1122_MSI_AV_v3_Vset4_Aset2_2024-08-25_13h40.21.283.csv,1,21,2,0,b,1,0,3,aud,C,27,1,2C,0C,1,0,b,3.71639440000035,1,0,1,1,2C,0C,C20,2.89037175789616,0.522397949048792,0.454207796499669,0.476554192353644,0.5,0.5,0.545792203500331,0.476554192353644,0.476554192353644,0.5,0.5,0.567090740756744,0.476554192353644,0.5,0.454207796499669,0.432909259243256,0.5,0.531436286622244,0.468563713377756,0.567090740756744,0.5,0.0697809321907251,0.587938321375185,0.432909259243256,0.0202998144410873,0.5,0.046891615292711,1.09720276764968,2.32860085632957,2.43789409302039,0.5,73.7585330610322
CBC_1122,CBC_1122_MSI_AV_v3_Vset4_Aset2_2024-08-25_13h40.21.283.csv,1,22,0,1,z,0,1,2,aud,B,63,1,0B,1B,0,1,z,2.73352840000007,0,1,1,1,1B,0B,B01,2.51230562397611,0.522397949048792,0.454207796499669,0.476554192353644,0.5,0.5,0.545792203500331,0.476554192353644,0.476554192353644,0.5,0.5,0.587390555197831,0.476554192353644,0.5,0.454207796499669,0.432909259243256,0.5,0.521893547947222,0.478106452052778,0.545792203500331,0.5,0.152657414414967,0.562346730841967,0.454207796499669,0.0212985372564124,0.5,0.046891615292711,1.09720276764968,2.32860085632957,2.43789409302039,0.5,73.7585330610322
CBC_1122,CBC_1122_MSI_AV_v3_Vset4_Aset2_2024-08-25_13h40.21.283.csv,1,23,2,0,b,1,0,3,aud,C,27,1,2C,0C,NaN,NaN,[],NaN,NaN,NaN,NaN,NaN,,,C20,2.53897387105828,0.522397949048792,0.454207796499669,0.476554192353644,0.5,0.5,0.567090740756744,0.476554192353644,0.476554192353644,0.5,0.5,0.587390555197831,0.476554192353644,0.5,0.454207796499669,0.432909259243256,0.5,0,0,0,0,NaN,0,0,0,0.5,0.046891615292711,1.09720276764968,2.32860085632957,2.43789409302039,0.5,73.7585330610322
CBC_1122,CBC_1122_MSI_AV_v3_Vset4_Aset2_2024-08-25_13h40.21.283.csv,1,24,3,2,b,1,0,1,aud,D,63,1,3D,2D,1,0,z,2.34804829999939,0,1,0,0,2D,3D,D32,2.56494935746154,0.522397949048792,0.454207796499669,0.476554192353644,0.5,0.5,0.567090740756744,0.476554192353644,0.476554192353644,0.5,0.5,0.587390555197831,0.476554192353644,0.5,0.454207796499669,0.432909259243256,0.5,0.464042193765359,0.535957806234641,0.432909259243256,0.5,0.149938664473066,0.399742390807651,-0.432909259243256,-0.0202998144410873,0.5,0.046891615292711,1.09720276764968,2.32860085632957,2.43789409302039,0.5,73.7585330610322
CBC_1122,CBC_1122_MSI_AV_v3_Vset4_Aset2_2024-08-25_13h40.21.283.csv,1,25,1,0,z,0,1,0,aud,A,63,1,1A,0A,0,1,b,2.72384679999959,1,0,0,0,1A,0A,A10,2.59026716544583,0.522397949048792,0.454207796499669,0.476554192353644,0.5,0.5,0.567090740756744,0.476554192353644,0.476554192353644,0.5,0.5,0.587390555197831,0.476554192353644,0.5,0.454207796499669,0.412609444802169,0.5,0.465088187910041,0.534911812089959,0.454207796499669,0.522397949048792,0.109694705666194,0.401335849127103,-0.454207796499669,-0.0212985372564124,0.5,0.046891615292711,1.09720276764968,2.32860085632957,2.43789409302039,0.5,73.7585330610322
CBC_1122,CBC_1122_MSI_AV_v3_Vset4_Aset2_2024-08-25_13h40.21.283.csv,1,26,3,2,z,0,1,3,aud,C,63,1,3C,2C,0,1,z,2.90453999999954,0,1,1,1,2C,3C,C32,2.6149597780362,0.522397949048792,0.432909259243256,0.476554192353644,0.5,0.5,0.567090740756744,0.476554192353644,0.476554192353644,0.5,0.5,0.587390555197831,0.476554192353644,0.5,0.454207796499669,0.412609444802169,0.5,0.552087461825091,0.447912538174909,0.587390555197831,0.476554192353644,0.150247012896042,0.643838078958315,0.412609444802169,0.0193479233518024,0.5,0.046891615292711,1.09720276764968,2.32860085632957,2.43789409302039,0.5,73.7585330610322
CBC_1122,CBC_1122_MSI_AV_v3_Vset4_Aset2_2024-08-25_13h40.21.283.csv,1,27,2,0,z,0,1,0,aud,A,27,1,2A,0A,NaN,NaN,[],NaN,NaN,NaN,NaN,NaN,,,A20,3.73766961828337,0.522397949048792,0.432909259243256,0.476554192353644,0.5,0.5,0.567090740756744,0.476554192353644,0.476554192353644,0.5,0.5,0.606738478549633,0.476554192353644,0.5,0.454207796499669,0.412609444802169,0.5,0,0,0,0,NaN,0,0,0,0.5,0.046891615292711,1.09720276764968,2.32860085632957,2.43789409302039,0.5,73.7585330610322
CBC_1122,CBC_1122_MSI_AV_v3_Vset4_Aset2_2024-08-25_13h40.21.283.csv,1,28,3,2,b,1,0,1,aud,D,63,1,3D,2D,1,0,z,2.79116479999993,0,1,0,0,2D,3D,D32,2.37490575457367,0.522397949048792,0.432909259243256,0.476554192353644,0.5,0.5,0.567090740756744,0.476554192353644,0.476554192353644,0.5,0.5,0.606738478549633,0.476554192353644,0.5,0.454207796499669,0.412609444802169,0.5,0.452120506918063,0.547879493081937,0.412609444802169,0.5,0.0946919063055009,0.367661594371886,-0.412609444802169,-0.0193479233518024,0.5,0.046891615292711,1.09720276764968,2.32860085632957,2.43789409302039,0.5,73.7585330610322
CBC_1122,CBC_1122_MSI_AV_v3_Vset4_Aset2_2024-08-25_13h40.21.283.csv,1,29,3,2,b,1,0,1,aud,D,63,1,3D,2D,1,0,b,2.80284179999944,1,0,1,1,3D,2D,D32,2.17475172148416,0.522397949048792,0.432909259243256,0.476554192353644,0.5,0.5,0.567090740756744,0.476554192353644,0.476554192353644,0.5,0.5,0.606738478549633,0.476554192353644,0.5,0.454207796499669,0.393261521450367,0.5,0.55974648856268,0.44025351143732,0.5,0.393261521450367,0.168479292414685,0.663147687039627,0.5,0.0234458076463555,0.5,0.046891615292711,1.09720276764968,2.32860085632957,2.43789409302039,0.5,73.7585330610322
CBC_1122,CBC_1122_MSI_AV_v3_Vset4_Aset2_2024-08-25_13h40.21.283.csv,1,30,3,1,z,0,1,2,aud,B,27,1,3B,1B,0,1,z,2.9225722000001,0,1,1,1,1B,3B,B31,3.80666248977032,0.522397949048792,0.432909259243256,0.476554192353644,0.5,0.5,0.567090740756744,0.476554192353644,0.476554192353644,0.5,0.5,0.606738478549633,0.476554192353644,0.5,0.454207796499669,0.393261521450367,0.523445807646356,0.543375167899906,0.456624832100094,0.567090740756744,0.476554192353644,0.14294441128185,0.619937156769199,0.432909259243256,0.0202998144410873,0.5,0.046891615292711,1.09720276764968,2.32860085632957,2.43789409302039,0.5,73.7585330610322
CBC_1122,CBC_1122_MSI_AV_v3_Vset4_Aset2_2024-08-25_13h40.21.283.csv,1,31,0,3,z,0,1,1,aud,D,9,1,0D,3D,0,1,z,2.97697200000039,0,1,1,1,3D,0D,D03,3.8286413964891,0.522397949048792,0.432909259243256,0.476554192353644,0.5,0.5,0.587390555197831,0.476554192353644,0.476554192353644,0.5,0.5,0.606738478549633,0.476554192353644,0.5,0.454207796499669,0.393261521450367,0.523445807646356,0.511454347397384,0.488545652602616,0.523445807646356,0.5,0.118174016749416,0.53268043432164,0.476554192353644,0.0223463958539757,0.5,0.046891615292711,1.09720276764968,2.32860085632957,2.43789409302039,0.5,73.7585330610322
CBC_1122,CBC_1122_MSI_AV_v3_Vset4_Aset2_2024-08-25_13h40.21.283.csv,1,32,1,0,b,1,0,2,aud,B,63,1,1B,0B,1,0,z,1.3254551,0,1,0,0,0B,1B,B10,3.85014760171006,0.522397949048792,0.432909259243256,0.476554192353644,0.5,0.5,0.587390555197831,0.476554192353644,0.476554192353644,0.5,0.5,0.606738478549633,0.476554192353644,0.5,0.454207796499669,0.393261521450367,0.545792203500331,0.459816390357588,0.540183609642412,0.5,0.587390555197831,0.136270488352148,0.387328081286166,-0.5,-0.0234458076463555,0.5,0.046891615292711,1.09720276764968,2.32860085632957,2.43789409302039,0.5,73.7585330610322
CBC_1122,CBC_1122_MSI_AV_v3_Vset4_Aset2_2024-08-25_13h40.21.283.csv,1,33,1,0,z,0,1,0,aud,A,63,1,1A,0A,0,1,z,2.35928590000003,0,1,1,1,0A,1A,A10,2.484906649788,0.522397949048792,0.432909259243256,0.476554192353644,0.5,0.476554192353644,0.587390555197831,0.476554192353644,0.476554192353644,0.5,0.5,0.606738478549633,0.476554192353644,0.5,0.454207796499669,0.393261521450367,0.545792203500331,0.546837650249457,0.453162349750543,0.522397949048792,0.432909259243256,0.234660987256997,0.630300274791284,0.477602050951208,0.0223955316362138,0.5,0.046891615292711,1.09720276764968,2.32860085632957,2.43789409302039,0.5,73.7585330610322
CBC_1122,CBC_1122_MSI_AV_v3_Vset4_Aset2_2024-08-25_13h40.21.283.csv,1,34,1,0,b,1,0,2,aud,B,63,1,1B,0B,1,0,z,2.43089559999953,0,1,0,0,0B,1B,B10,3.19867311755068,0.544793480685006,0.432909259243256,0.476554192353644,0.5,0.476554192353644,0.587390555197831,0.476554192353644,0.476554192353644,0.5,0.5,0.606738478549633,0.476554192353644,0.5,0.454207796499669,0.393261521450367,0.545792203500331,0.447912538174909,0.552087461825091,0.476554192353644,0.587390555197831,0.125071121699388,0.356826498816489,-0.476554192353644,-0.0223463958539757,0.5,0.046891615292711,1.09720276764968,2.32860085632957,2.43789409302039,0.5,73.7585330610322
CBC_1122,CBC_1122_MSI_AV_v3_Vset4_Aset2_2024-08-25_13h40.21.283.csv,1,35,3,2,z,0,1,3,aud,C,63,1,3C,2C,0,1,b,2.33892640000067,1,0,0,0,3C,2C,C32,2.52572864430826,0.544793480685006,0.432909259243256,0.476554192353644,0.5,0.454207796499669,0.587390555197831,0.476554192353644,0.476554192353644,0.5,0.5,0.606738478549633,0.476554192353644,0.5,0.454207796499669,0.393261521450367,0.545792203500331,0.43991268948241,0.56008731051759,0.476554192353644,0.606738478549633,0.127520090293526,0.335623201343733,-0.476554192353644,-0.0223463958539757,0.5,0.046891615292711,1.09720276764968,2.32860085632957,2.43789409302039,0.5,73.7585330610322
CBC_1122,CBC_1122_MSI_AV_v3_Vset4_Aset2_2024-08-25_13h40.21.283.csv,1,36,0,2,b,1,0,0,aud,A,27,1,0A,2A,1,0,b,2.59522469999956,1,0,1,1,0A,2A,A02,3.23867845216438,0.544793480685006,0.432909259243256,0.476554192353644,0.5,0.454207796499669,0.587390555197831,0.476554192353644,0.476554192353644,0.5,0.5,0.606738478549633,0.454207796499669,0.5,0.454207796499669,0.393261521450367,0.545792203500331,0.533406493269985,0.466593506730015,0.544793480685006,0.476554192353644,0.180824872365822,0.593560693852946,0.455206519314994,0.0213453689824527,0.5,0.046891615292711,1.09720276764968,2.32860085632957,2.43789409302039,0.5,73.7585330610322
CBC_1122,CBC_1122_MSI_AV_v3_Vset4_Aset2_2024-08-25_13h40.21.283.csv,1,37,1,0,b,1,0,2,aud,B,63,1,1B,0B,1,0,b,1.31284590000087,1,0,1,1,1B,0B,B10,2.85263142991332,0.566138849667459,0.432909259243256,0.476554192353644,0.5,0.454207796499669,0.587390555197831,0.476554192353644,0.476554192353644,0.5,0.5,0.606738478549633,0.454207796499669,0.5,0.454207796499669,0.393261521450367,0.545792203500331,0.563931916981778,0.436068083018222,0.587390555197831,0.454207796499669,0.220622439433004,0.673988438160263,0.412609444802169,0.0193479233518024,0.5,0.046891615292711,1.09720276764968,2.32860085632957,2.43789409302039,0.5,73.7585330610322
CBC_1122,CBC_1122_MSI_AV_v3_Vset4_Aset2_2024-08-25_13h40.21.283.csv,1,38,3,1,z,0,1,2,aud,B,27,1,3B,1B,0,1,b,1.84161510000013,1,0,0,0,3B,1B,B31,3.27714473299218,0.566138849667459,0.432909259243256,0.476554192353644,0.5,0.454207796499669,0.606738478549633,0.476554192353644,0.476554192353644,0.5,0.5,0.606738478549633,0.454207796499669,0.5,0.454207796499669,0.393261521450367,0.545792203500331,0.43991268948241,0.56008731051759,0.476554192353644,0.606738478549633,0.192768711747898,0.336230003101895,-0.476554192353644,-0.0223463958539757,0.5,0.046891615292711,1.09720276764968,2.32860085632957,2.43789409302039,0.5,73.7585330610322
CBC_1122,CBC_1122_MSI_AV_v3_Vset4_Aset2_2024-08-25_13h40.21.283.csv,1,39,3,2,z,0,1,3,aud,C,63,1,3C,2C,0,1,z,2.45305239999925,0,1,1,1,2C,3C,C32,2.37954613413017,0.566138849667459,0.432909259243256,0.476554192353644,0.5,0.454207796499669,0.606738478549633,0.476554192353644,0.454207796499669,0.5,0.5,0.606738478549633,0.454207796499669,0.5,0.454207796499669,0.393261521450367,0.545792203500331,0.571884262962739,0.428115737037261,0.606738478549633,0.454207796499669,0.238965623347627,0.693520406776133,0.393261521450367,0.0184406679732768,0.5,0.046891615292711,1.09720276764968,2.32860085632957,2.43789409302039,0.5,73.7585330610322
CBC_1122,CBC_1122_MSI_AV_v3_Vset4_Aset2_2024-08-25_13h40.21.283.csv,1,40,3,1,b,1,0,1,aud,D,27,1,3D,1D,1,0,b,2.46734680000009,1,0,1,1,3D,1D,D31,4.00733318523247,0.566138849667459,0.432909259243256,0.476554192353644,0.5,0.454207796499669,0.606738478549633,0.476554192353644,0.454207796499669,0.5,0.5,0.62517914652291,0.454207796499669,0.5,0.454207796499669,0.393261521450367,0.545792203500331,0.545792203500331,0.454207796499669,0.545792203500331,0.454207796499669,0.212430464337869,0.625639584039129,0.454207796499669,0.0212985372564124,0.5,0.046891615292711,1.09720276764968,2.32860085632957,2.43789409302039,0.5,73.7585330610322
CBC_1122,CBC_1122_MSI_AV_v3_Vset4_Aset2_2024-08-25_13h40.21.283.csv,1,41,1,2,z,0,1,3,aud,C,9,1,1C,2C,0,1,z,2.72506359999988,0,1,1,1,2C,1C,C12,4.02535169073515,0.566138849667459,0.432909259243256,0.476554192353644,0.5,0.454207796499669,0.606738478549633,0.476554192353644,0.454207796499669,0.5,0.5,0.62517914652291,0.454207796499669,0.5,0.454207796499669,0.393261521450367,0.567090740756744,0.55562631822219,0.444373681777811,0.62517914652291,0.5,0.177523039629651,0.652439790585839,0.37482085347709,0.0175759552649333,0.5,0.046891615292711,1.09720276764968,2.32860085632957,2.43789409302039,0.5,73.7585330610322
CBC_1122,CBC_1122_MSI_AV_v3_Vset4_Aset2_2024-08-25_13h40.21.283.csv,1,42,0,1,z,0,1,2,aud,B,63,0,0B,1B,1,0,z,2.03752050000003,0,1,1,0,1B,0B,B01,2.65675690671466,0.566138849667459,0.432909259243256,0.476554192353644,0.5,0.454207796499669,0.606738478549633,0.476554192353644,0.454207796499669,0.5,0.5,0.642755101787843,0.454207796499669,0.5,0.454207796499669,0.393261521450367,0.567090740756744,0.571884262962739,0.428115737037261,0.606738478549633,0.454207796499669,0.343830237919313,0.694069951440392,-0.606738478549633,-0.0284509473194342,0.5,0.046891615292711,1.09720276764968,2.32860085632957,2.43789409302039,0.5,73.7585330610322
CBC_1122,CBC_1122_MSI_AV_v3_Vset4_Aset2_2024-08-25_13h40.21.283.csv,1,43,3,2,b,1,0,1,aud,D,63,1,3D,2D,1,0,b,2.05693439999959,1,0,1,1,3D,2D,D32,2.26868354131836,0.566138849667459,0.432909259243256,0.476554192353644,0.5,0.454207796499669,0.578287531230199,0.476554192353644,0.454207796499669,0.5,0.5,0.642755101787843,0.454207796499669,0.5,0.454207796499669,0.393261521450367,0.567090740756744,0.590502842627182,0.409497157372818,0.567090740756744,0.393261521450367,0.363830729680208,0.736409532681732,0.432909259243256,0.0202998144410873,0.5,0.046891615292711,1.09720276764968,2.32860085632957,2.43789409302039,0.5,73.7585330610322
CBC_1122,CBC_1122_MSI_AV_v3_Vset4_Aset2_2024-08-25_13h40.21.283.csv,1,44,0,1,b,1,0,0,aud,A,63,1,0A,1A,1,0,z,2.50193320000017,0,1,0,0,1A,0A,A01,2.97892515523761,0.566138849667459,0.432909259243256,0.476554192353644,0.5,0.454207796499669,0.578287531230199,0.476554192353644,0.454207796499669,0.5,0.5,0.642755101787843,0.454207796499669,0.5,0.454207796499669,0.393261521450367,0.587390555197831,0.433321734340969,0.566678265659031,0.432909259243256,0.566138849667459,0.10539235732655,0.319401242632761,-0.432909259243256,-0.0202998144410873,0.5,0.046891615292711,1.09720276764968,2.32860085632957,2.43789409302039,0.5,73.7585330610322
CBC_1122,CBC_1122_MSI_TV_v3_Vset5_Tset1_2024-08-25_13h49.30.818.csv,2,1,0,1,z,0,1,2,tac,B,63,1,0B,1B,0,1,z,2.49421890000031,0,1,1,1,1B,0B,B01,2.77258872223978,0.5,0.5,0.5,0.5,0.5,0.5,0.5,0.5,0.5,0.5,0.5,0.5,0.5,0.5,0.5,0.5,0.5,0.5,0.5,0.5,0.168038000605743,0.500821801684582,0.5,0.123277404557653,0.5,0.246554809115306,1.09967339071708,0.221209009929193,2.59737158590636,0.5,69.6940813089153
CBC_1122,CBC_1122_MSI_TV_v3_Vset5_Tset1_2024-08-25_13h49.30.818.csv,2,2,1,0,z,0,1,0,tac,A,63,1,1A,0A,0,1,b,2.39827179999975,1,0,0,0,1A,0A,A10,2.83321334405622,0.5,0.5,0.5,0.5,0.5,0.623277404557653,0.5,0.5,0.5,0.5,0.5,0.5,0.5,0.5,0.5,0.5,0.5,0.5,0.5,0.5,0.179747102716507,0.499733201387604,-0.5,-0.123277404557653,0.5,0.246554809115306,1.09967339071708,0.221209009929193,2.59737158590636,0.5,69.6940813089153
CBC_1122,CBC_1122_MSI_TV_v3_Vset5_Tset1_2024-08-25_13h49.30.818.csv,2,3,2,1,b,1,0,3,tac,C,9,1,2C,1C,1,0,z,1.89886529999967,0,1,0,0,1C,2C,C21,2.89037175789616,0.5,0.376722595442347,0.5,0.5,0.5,0.623277404557653,0.5,0.5,0.5,0.5,0.5,0.5,0.5,0.5,0.5,0.5,0.5,0.5,0.5,0.5,0.252424062487422,0.500269231191027,-0.5,-0.123277404557653,0.5,0.246554809115306,1.09967339071708,0.221209009929193,2.59737158590636,0.5,69.6940813089153
CBC_1122,CBC_1122_MSI_TV_v3_Vset5_Tset1_2024-08-25_13h49.30.818.csv,2,4,0,1,b,1,0,0,tac,A,63,1,0A,1A,1,0,z,1.86353409999992,0,1,0,0,1A,0A,A01,2.94443897916644,0.5,0.376722595442347,0.5,0.5,0.5,0.623277404557653,0.5,0.5,0.5,0.376722595442347,0.5,0.5,0.5,0.5,0.5,0.5,0.429694178524363,0.570305821475637,0.376722595442347,0.5,0.247231752468253,0.480446855672508,-0.376722595442347,-0.0928827676087106,0.5,0.246554809115306,1.09967339071708,0.221209009929193,2.59737158590636,0.5,69.6940813089153
CBC_1122,CBC_1122_MSI_TV_v3_Vset5_Tset1_2024-08-25_13h49.30.818.csv,2,5,1,3,z,0,1,1,tac,D,27,1,1D,3D,0,1,b,2.83059809999941,1,0,0,0,1D,3D,D13,2.99573227355399,0.5,0.283839827833636,0.5,0.5,0.5,0.623277404557653,0.5,0.5,0.5,0.376722595442347,0.5,0.5,0.5,0.5,0.5,0.5,0.5,0.5,0.5,0.5,0.131155061685682,0.49957474060276,-0.5,-0.123277404557653,0.5,0.246554809115306,1.09967339071708,0.221209009929193,2.59737158590636,0.5,69.6940813089153
CBC_1122,CBC_1122_MSI_TV_v3_Vset5_Tset1_2024-08-25_13h49.30.818.csv,2,6,1,0,b,1,0,2,tac,B,63,1,1B,0B,1,0,b,2.43771209999977,1,0,1,1,1B,0B,B10,3.04452243772342,0.5,0.283839827833636,0.5,0.5,0.5,0.623277404557653,0.5,0.5,0.5,0.376722595442347,0.5,0.5,0.5,0.376722595442347,0.5,0.5,0.554873980397656,0.445126019602344,0.623277404557653,0.5,0.180795167192381,0.517136317220908,0.376722595442347,0.0928827676087106,0.5,0.246554809115306,1.09967339071708,0.221209009929193,2.59737158590636,0.5,69.6940813089153
CBC_1122,CBC_1122_MSI_TV_v3_Vset5_Tset1_2024-08-25_13h49.30.818.csv,2,7,3,2,z,0,1,3,tac,C,63,1,3C,2C,0,1,z,2.83341689999907,0,1,1,1,2C,3C,C32,3.09104245335832,0.5,0.283839827833636,0.5,0.5,0.5,0.716160172166364,0.5,0.5,0.5,0.376722595442347,0.5,0.5,0.5,0.376722595442347,0.5,0.5,0.5,0.5,0.5,0.5,0.130914185190779,0.499685489877198,0.5,0.123277404557653,0.5,0.246554809115306,1.09967339071708,0.221209009929193,2.59737158590636,0.5,69.6940813089153
CBC_1122,CBC_1122_MSI_TV_v3_Vset5_Tset1_2024-08-25_13h49.30.818.csv,2,8,0,2,b,1,0,0,tac,A,27,1,0A,2A,1,0,b,2.00641129999985,1,0,1,1,0A,2A,A02,3.13549421592915,0.5,0.283839827833636,0.5,0.5,0.5,0.716160172166364,0.5,0.5,0.5,0.376722595442347,0.623277404557653,0.5,0.5,0.376722595442347,0.5,0.5,0.5,0.5,0.5,0.5,0.235984392522923,0.499267876315212,0.5,0.123277404557653,0.5,0.246554809115306,1.09967339071708,0.221209009929193,2.59737158590636,0.5,69.6940813089153
CBC_1122,CBC_1122_MSI_TV_v3_Vset5_Tset1_2024-08-25_13h49.30.818.csv,2,9,2,3,z,0,1,1,tac,D,63,1,2D,3D,0,1,z,2.5123395999999,0,1,1,1,3D,2D,D23,3.17805383034795,0.623277404557653,0.283839827833636,0.5,0.5,0.5,0.716160172166364,0.5,0.5,0.5,0.376722595442347,0.623277404557653,0.5,0.5,0.376722595442347,0.5,0.5,0.5,0.5,0.5,0.5,0.165657542926274,0.500271866220279,0.5,0.123277404557653,0.5,0.246554809115306,1.09967339071708,0.221209009929193,2.59737158590636,0.5,69.6940813089153
CBC_1122,CBC_1122_MSI_TV_v3_Vset5_Tset1_2024-08-25_13h49.30.818.csv,2,10,1,3,b,1,0,2,tac,B,27,1,1B,3B,1,0,b,2.51690469999994,1,0,1,1,1B,3B,B13,3.2188758248682,0.623277404557653,0.283839827833636,0.5,0.5,0.5,0.716160172166364,0.5,0.5,0.5,0.376722595442347,0.623277404557653,0.5,0.5,0.376722595442347,0.5,0.623277404557653,0.58886994374323,0.41113005625677,0.716160172166364,0.5,0.173579304756374,0.525825677806993,0.283839827833636,0.0699820745708436,0.5,0.246554809115306,1.09967339071708,0.221209009929193,2.59737158590636,0.5,69.6940813089153
CBC_1122,CBC_1122_MSI_TV_v3_Vset5_Tset1_2024-08-25_13h49.30.818.csv,2,11,2,3,b,1,0,3,tac,C,63,1,2C,3C,1,0,z,1.50931939999919,0,1,0,0,3C,2C,C23,3.25809653802148,0.623277404557653,0.283839827833636,0.5,0.5,0.5,0.786142246737207,0.5,0.5,0.5,0.376722595442347,0.623277404557653,0.5,0.5,0.376722595442347,0.5,0.623277404557653,0.445126019602344,0.554873980397656,0.5,0.623277404557653,0.244214310198042,0.483954121142057,-0.5,-0.123277404557653,0.5,0.246554809115306,1.09967339071708,0.221209009929193,2.59737158590636,0.5,69.6940813089153
CBC_1122,CBC_1122_MSI_TV_v3_Vset5_Tset1_2024-08-25_13h49.30.818.csv,2,12,3,1,z,0,1,2,tac,B,27,1,3B,1B,0,1,z,1.99714049999966,0,1,1,1,1B,3B,B31,3.29583686600433,0.623277404557653,0.283839827833636,0.5,0.5,0.5,0.786142246737207,0.5,0.5,0.5,0.376722595442347,0.623277404557653,0.376722595442347,0.5,0.376722595442347,0.5,0.623277404557653,0.61124051303933,0.38875948696067,0.786142246737207,0.5,0.253356554243018,0.532326715024868,0.213857753262793,0.0527276575335361,0.5,0.246554809115306,1.09967339071708,0.221209009929193,2.59737158590636,0.5,69.6940813089153
CBC_1122,CBC_1122_MSI_TV_v3_Vset5_Tset1_2024-08-25_13h49.30.818.csv,2,13,2,3,b,1,0,3,tac,C,63,1,2C,3C,1,0,b,2.55409319999944,1,0,1,1,2C,3C,C23,2.63905732961526,0.623277404557653,0.283839827833636,0.5,0.5,0.5,0.838869904270743,0.5,0.5,0.5,0.376722595442347,0.623277404557653,0.376722595442347,0.5,0.376722595442347,0.5,0.623277404557653,0.623277404557653,0.376722595442347,0.623277404557653,0.376722595442347,0.171861971032225,0.534837054114248,0.376722595442347,0.0928827676087106,0.5,0.246554809115306,1.09967339071708,0.221209009929193,2.59737158590636,0.5,69.6940813089153
CBC_1122,CBC_1122_MSI_TV_v3_Vset5_Tset1_2024-08-25_13h49.30.818.csv,2,14,2,3,z,0,1,1,tac,D,63,1,2D,3D,0,1,z,1.96719750000011,0,1,1,1,3D,2D,D23,2.67414864942653,0.623277404557653,0.283839827833636,0.5,0.5,0.5,0.838869904270743,0.5,0.5,0.5,0.376722595442347,0.716160172166364,0.376722595442347,0.5,0.376722595442347,0.5,0.623277404557653,0.554873980397656,0.445126019602344,0.623277404557653,0.5,0.25007713466539,0.516005898931427,0.376722595442347,0.0928827676087106,0.5,0.246554809115306,1.09967339071708,0.221209009929193,2.59737158590636,0.5,69.6940813089153
CBC_1122,CBC_1122_MSI_TV_v3_Vset5_Tset1_2024-08-25_13h49.30.818.csv,2,15,3,0,z,0,1,0,tac,A,9,1,3A,0A,0,1,z,2.53651400000035,0,1,1,1,0A,3A,A30,3.40119738166216,0.623277404557653,0.283839827833636,0.5,0.5,0.5,0.838869904270743,0.5,0.5,0.5,0.376722595442347,0.716160172166364,0.376722595442347,0.5,0.376722595442347,0.5,0.716160172166364,0.554873980397656,0.445126019602344,0.623277404557653,0.5,0.168127241739664,0.516693029862937,0.376722595442347,0.0928827676087106,0.5,0.246554809115306,1.09967339071708,0.221209009929193,2.59737158590636,0.5,69.6940813089153
CBC_1122,CBC_1122_MSI_TV_v3_Vset5_Tset1_2024-08-25_13h49.30.818.csv,2,16,1,0,b,1,0,2,tac,B,63,0,1B,0B,0,1,z,2.2892853000003,0,1,0,1,0B,1B,B10,2.7408400239252,0.716160172166364,0.283839827833636,0.5,0.5,0.5,0.838869904270743,0.5,0.5,0.5,0.376722595442347,0.716160172166364,0.376722595442347,0.5,0.376722595442347,0.5,0.716160172166364,0.373449278682786,0.626550721317214,0.5,0.838869904270743,0.180436587750323,0.463468462160109,0.5,0.123277404557653,0.5,0.246554809115306,1.09967339071708,0.221209009929193,2.59737158590636,0.5,69.6940813089153
CBC_1122,CBC_1122_MSI_TV_v3_Vset5_Tset1_2024-08-25_13h49.30.818.csv,2,17,3,2,b,1,0,1,tac,D,63,1,3D,2D,1,0,z,2.59744200000023,0,1,0,0,2D,3D,D32,3.46573590279973,0.716160172166364,0.283839827833636,0.5,0.5,0.623277404557653,0.838869904270743,0.5,0.5,0.5,0.376722595442347,0.716160172166364,0.376722595442347,0.5,0.376722595442347,0.5,0.716160172166364,0.41113005625677,0.58886994374323,0.5,0.716160172166364,0.147596259353171,0.474142673185382,-0.5,-0.123277404557653,0.5,0.246554809115306,1.09967339071708,0.221209009929193,2.59737158590636,0.5,69.6940813089153
CBC_1122,CBC_1122_MSI_TV_v3_Vset5_Tset1_2024-08-25_13h49.30.818.csv,2,18,2,0,b,1,0,3,tac,C,27,1,2C,0C,NaN,NaN,None,NaN,NaN,NaN,NaN,NaN,,,C20,3.49650756146648,0.716160172166364,0.283839827833636,0.5,0.5,0.623277404557653,0.838869904270743,0.5,0.5,0.5,0.376722595442347,0.716160172166364,0.376722595442347,0.5,0.376722595442347,0.376722595442347,0.716160172166364,0,0,0,0,NaN,0,0,0,0.5,0.246554809115306,1.09967339071708,0.221209009929193,2.59737158590636,0.5,69.6940813089153
CBC_1122,CBC_1122_MSI_TV_v3_Vset5_Tset1_2024-08-25_13h49.30.818.csv,2,19,1,0,z,0,1,0,tac,A,63,1,1A,0A,0,1,b,2.44992060000004,1,0,0,0,1A,0A,A10,2.83321334405622,0.716160172166364,0.283839827833636,0.5,0.5,0.623277404557653,0.838869904270743,0.5,0.5,0.5,0.376722595442347,0.716160172166364,0.376722595442347,0.5,0.376722595442347,0.376722595442347,0.716160172166364,0.283839827833636,0.716160172166364,0.283839827833636,0.716160172166364,0.152190800961011,0.438581437496879,-0.283839827833636,-0.0699820745708436,0.5,0.246554809115306,1.09967339071708,0.221209009929193,2.59737158590636,0.5,69.6940813089153
CBC_1122,CBC_1122_MSI_TV_v3_Vset5_Tset1_2024-08-25_13h49.30.818.csv,2,20,0,1,z,0,1,2,tac,B,63,1,0B,1B,0,1,b,2.55333259999952,1,0,0,0,0B,1B,B01,2.86220088092947,0.716160172166364,0.213857753262793,0.5,0.5,0.623277404557653,0.838869904270743,0.5,0.5,0.5,0.376722595442347,0.716160172166364,0.376722595442347,0.5,0.376722595442347,0.376722595442347,0.716160172166364,0.4262753833313,0.5737246166687,0.623277404557653,0.838869904270743,0.153977777975275,0.479017356971564,-0.623277404557653,-0.153672041506596,0.5,0.246554809115306,1.09967339071708,0.221209009929193,2.59737158590636,0.5,69.6940813089153
CBC_1122,CBC_1122_MSI_TV_v3_Vset5_Tset1_2024-08-25_13h49.30.818.csv,2,21,3,1,b,1,0,1,tac,D,27,1,3D,1D,1,0,z,2.45726370000011,0,1,0,0,1D,3D,D31,3.58351893845611,0.716160172166364,0.213857753262793,0.5,0.5,0.469605363051057,0.838869904270743,0.5,0.5,0.5,0.376722595442347,0.716160172166364,0.376722595442347,0.5,0.376722595442347,0.376722595442347,0.716160172166364,0.344705403550865,0.655294596449135,0.376722595442347,0.716160172166364,0.157021774048634,0.455246903847401,-0.376722595442347,-0.0928827676087106,0.5,0.246554809115306,1.09967339071708,0.221209009929193,2.59737158590636,0.5,69.6940813089153
CBC_1122,CBC_1122_MSI_TV_v3_Vset5_Tset1_2024-08-25_13h49.30.818.csv,2,22,2,3,b,1,0,3,tac,C,63,1,2C,3C,1,0,z,2.41490400000021,0,1,0,0,3C,2C,C23,2.51230562397611,0.716160172166364,0.213857753262793,0.5,0.5,0.469605363051057,0.838869904270743,0.5,0.5,0.5,0.376722595442347,0.716160172166364,0.376722595442347,0.5,0.283839827833636,0.376722595442347,0.716160172166364,0.344705403550865,0.655294596449135,0.376722595442347,0.716160172166364,0.162065042914627,0.455630197958846,-0.376722595442347,-0.0928827676087106,0.5,0.246554809115306,1.09967339071708,0.221209009929193,2.59737158590636,0.5,69.6940813089153
CBC_1122,CBC_1122_MSI_TV_v3_Vset5_Tset1_2024-08-25_13h49.30.818.csv,2,23,1,0,z,0,1,0,tac,A,63,1,1A,0A,0,1,b,0.0855697999995755,1,0,0,0,1A,0A,A10,2.53897387105828,0.716160172166364,0.213857753262793,0.5,0.5,0.469605363051057,0.838869904270743,0.5,0.5,0.5,0.376722595442347,0.716160172166364,0.283839827833636,0.5,0.283839827833636,0.376722595442347,0.716160172166364,0.229950141191212,0.770049858808788,0.213857753262793,0.716160172166364,1e-20,0.5,-0.213857753262793,-0.0527276575335361,0.5,0.246554809115306,1.09967339071708,0.221209009929193,2.59737158590636,0.5,69.6940813089153
CBC_1122,CBC_1122_MSI_TV_v3_Vset5_Tset1_2024-08-25_13h49.30.818.csv,2,24,3,2,b,1,0,1,tac,D,63,1,3D,2D,1,0,z,2.29632899999979,0,1,0,0,2D,3D,D32,2.9704144655697,0.716160172166364,0.161130095729257,0.5,0.5,0.469605363051057,0.838869904270743,0.5,0.5,0.5,0.376722595442347,0.716160172166364,0.283839827833636,0.5,0.283839827833636,0.376722595442347,0.716160172166364,0.344705403550865,0.655294596449135,0.376722595442347,0.716160172166364,0.176500067389883,0.45548006154003,-0.376722595442347,-0.0928827676087106,0.5,0.246554809115306,1.09967339071708,0.221209009929193,2.59737158590636,0.5,69.6940813089153
CBC_1122,CBC_1122_MSI_TV_v3_Vset5_Tset1_2024-08-25_13h49.30.818.csv,2,25,0,2,z,0,1,3,tac,C,27,1,0C,2C,NaN,NaN,None,NaN,NaN,NaN,NaN,NaN,,,C02,3.68887945411394,0.716160172166364,0.161130095729257,0.5,0.5,0.469605363051057,0.838869904270743,0.5,0.5,0.5,0.376722595442347,0.716160172166364,0.283839827833636,0.5,0.283839827833636,0.283839827833636,0.716160172166364,0,0,0,0,NaN,0,0,0,0.5,0.246554809115306,1.09967339071708,0.221209009929193,2.59737158590636,0.5,69.6940813089153
CBC_1122,CBC_1122_MSI_TV_v3_Vset5_Tset1_2024-08-25_13h49.30.818.csv,2,26,1,0,z,0,1,0,tac,A,63,1,1A,0A,0,1,z,1.69570199999907,0,1,1,1,0A,1A,A10,2.32727770558442,0.716160172166364,0.161130095729257,0.5,0.5,0.469605363051057,0.838869904270743,0.5,0.5,0.5,0.376722595442347,0.716160172166364,0.283839827833636,0.5,0.283839827833636,0.283839827833636,0.716160172166364,0.816332060635115,0.183667939364885,0.716160172166364,0.161130095729257,0.326304306971102,0.59011305823437,0.283839827833636,0.0699820745708436,0.5,0.246554809115306,1.09967339071708,0.221209009929193,2.59737158590636,0.5,69.6940813089153
CBC_1122,CBC_1122_MSI_TV_v3_Vset5_Tset1_2024-08-25_13h49.30.818.csv,2,27,3,1,z,0,1,2,tac,B,27,1,3B,1B,0,1,b,2.16856009999992,1,0,0,0,3B,1B,B31,3.04452243772342,0.786142246737207,0.161130095729257,0.5,0.5,0.469605363051057,0.838869904270743,0.5,0.5,0.5,0.376722595442347,0.716160172166364,0.283839827833636,0.5,0.283839827833636,0.283839827833636,0.716160172166364,0.373449278682786,0.626550721317214,0.5,0.838869904270743,0.196277298493289,0.462794629157565,-0.5,-0.123277404557653,0.5,0.246554809115306,1.09967339071708,0.221209009929193,2.59737158590636,0.5,69.6940813089153
CBC_1122,CBC_1122_MSI_TV_v3_Vset5_Tset1_2024-08-25_13h49.30.818.csv,2,28,2,3,b,1,0,3,tac,C,63,1,2C,3C,1,0,b,2.43023760000051,1,0,1,1,2C,3C,C23,2.37490575457367,0.786142246737207,0.161130095729257,0.5,0.5,0.469605363051057,0.838869904270743,0.5,0.376722595442347,0.5,0.376722595442347,0.716160172166364,0.283839827833636,0.5,0.283839827833636,0.283839827833636,0.716160172166364,0.716160172166364,0.283839827833636,0.716160172166364,0.283839827833636,0.197532509728772,0.561143668524467,0.283839827833636,0.0699820745708436,0.5,0.246554809115306,1.09967339071708,0.221209009929193,2.59737158590636,0.5,69.6940813089153
CBC_1122,CBC_1122_MSI_TV_v3_Vset5_Tset1_2024-08-25_13h49.30.818.csv,2,29,2,3,z,0,1,1,tac,D,63,1,2D,3D,0,1,z,3.32040159999997,0,1,1,1,3D,2D,D23,2.68557734525015,0.786142246737207,0.161130095729257,0.5,0.5,0.469605363051057,0.838869904270743,0.5,0.376722595442347,0.5,0.376722595442347,0.786142246737207,0.283839827833636,0.5,0.283839827833636,0.283839827833636,0.716160172166364,0.716160172166364,0.283839827833636,0.716160172166364,0.283839827833636,0.102893948910883,0.562130667262174,0.283839827833636,0.0699820745708436,0.5,0.246554809115306,1.09967339071708,0.221209009929193,2.59737158590636,0.5,69.6940813089153
CBC_1122,CBC_1122_MSI_TV_v3_Vset5_Tset1_2024-08-25_13h49.30.818.csv,2,30,1,0,b,1,0,2,tac,B,63,1,1B,0B,1,0,z,2.53084229999968,0,1,0,0,0B,1B,B10,2.70805020110221,0.786142246737207,0.161130095729257,0.5,0.5,0.469605363051057,0.838869904270743,0.5,0.376722595442347,0.5,0.376722595442347,0.786142246737207,0.283839827833636,0.5,0.283839827833636,0.283839827833636,0.786142246737207,0.35889510086977,0.64110489913023,0.469605363051057,0.838869904270743,0.149850798144877,0.458427642794862,-0.469605363051057,-0.115783460646578,0.5,0.246554809115306,1.09967339071708,0.221209009929193,2.59737158590636,0.5,69.6940813089153
CBC_1122,CBC_1122_MSI_TV_v3_Vset5_Tset1_2024-08-25_13h49.30.818.csv,2,31,0,2,b,1,0,0,tac,A,27,1,0A,2A,1,0,z,5.08381850000023,0,1,0,0,2A,0A,A02,3.13549421592915,0.786142246737207,0.161130095729257,0.5,0.5,0.35382190240448,0.838869904270743,0.5,0.376722595442347,0.5,0.376722595442347,0.786142246737207,0.283839827833636,0.5,0.283839827833636,0.283839827833636,0.786142246737207,0.38875948696067,0.61124051303933,0.5,0.786142246737207,0.0236026170344792,0.468488258729397,-0.5,-0.123277404557653,0.5,0.246554809115306,1.09967339071708,0.221209009929193,2.59737158590636,0.5,69.6940813089153
CBC_1122,CBC_1122_MSI_TV_v3_Vset5_Tset1_2024-08-25_13h49.30.818.csv,2,32,0,3,z,0,1,1,tac,D,9,1,0D,3D,NaN,NaN,None,NaN,NaN,NaN,NaN,NaN,,,D03,3.85014760171006,0.786142246737207,0.161130095729257,0.376722595442347,0.5,0.35382190240448,0.838869904270743,0.5,0.376722595442347,0.5,0.376722595442347,0.786142246737207,0.283839827833636,0.5,0.283839827833636,0.283839827833636,0.786142246737207,0,0,0,0,NaN,0,0,0,0.5,0.246554809115306,1.09967339071708,0.221209009929193,2.59737158590636,0.5,69.6940813089153
CBC_1122,CBC_1122_MSI_TV_v3_Vset5_Tset1_2024-08-25_13h49.30.818.csv,2,33,2,3,b,1,0,3,tac,C,63,1,2C,3C,1,0,z,2.84939380000014,0,1,0,0,3C,2C,C23,2.26176309847379,0.786142246737207,0.161130095729257,0.376722595442347,0.5,0.35382190240448,0.838869904270743,0.5,0.376722595442347,0.5,0.376722595442347,0.786142246737207,0.283839827833636,0.5,0.283839827833636,0.283839827833636,0.786142246737207,0.265275311221901,0.734724688778098,0.283839827833636,0.786142246737207,0.111987393734452,0.432625060149472,-0.283839827833636,-0.0699820745708436,0.5,0.246554809115306,1.09967339071708,0.221209009929193,2.59737158590636,0.5,69.6940813089153
CBC_1122,CBC_1122_MSI_TV_v3_Vset5_Tset1_2024-08-25_13h49.30.818.csv,2,34,1,0,b,1,0,2,tac,B,63,1,1B,0B,1,0,z,4.28928730000007,0,1,0,0,0B,1B,B10,2.50552593699074,0.786142246737207,0.161130095729257,0.376722595442347,0.5,0.35382190240448,0.838869904270743,0.5,0.376722595442347,0.5,0.376722595442347,0.786142246737207,0.213857753262793,0.5,0.283839827833636,0.283839827833636,0.786142246737207,0.296658282067689,0.703341717932311,0.35382190240448,0.838869904270743,0.0396658131634826,0.4417988917052,-0.35382190240448,-0.0872364916081511,0.5,0.246554809115306,1.09967339071708,0.221209009929193,2.59737158590636,0.5,69.6940813089153
CBC_1122,CBC_1122_MSI_TV_v3_Vset5_Tset1_2024-08-25_13h49.30.818.csv,2,35,1,0,z,0,1,0,tac,A,63,0,1A,0A,1,0,z,6.22464709999986,0,1,1,0,0A,1A,A10,2.30258509299405,0.786142246737207,0.161130095729257,0.376722595442347,0.5,0.266585410796329,0.838869904270743,0.5,0.376722595442347,0.5,0.376722595442347,0.786142246737207,0.213857753262793,0.5,0.283839827833636,0.283839827833636,0.786142246737207,0.829900981475176,0.170099018524824,0.786142246737207,0.161130095729257,0.0125552970688672,0.594232020029498,-0.786142246737207,-0.19382715158177,0.5,0.246554809115306,1.09967339071708,0.221209009929193,2.59737158590636,0.5,69.6940813089153
CBC_1122,CBC_1122_MSI_TV_v3_Vset5_Tset1_2024-08-25_13h49.30.818.csv,2,36,3,2,b,1,0,1,tac,D,63,1,3D,2D,1,0,b,2.41036869999971,1,0,1,1,3D,2D,D32,2.83321334405622,0.592315095155437,0.161130095729257,0.376722595442347,0.5,0.266585410796329,0.838869904270743,0.5,0.376722595442347,0.5,0.376722595442347,0.786142246737207,0.213857753262793,0.5,0.283839827833636,0.283839827833636,0.786142246737207,0.734724688778098,0.265275311221901,0.786142246737207,0.283839827833636,0.202865591607753,0.567798883237074,0.213857753262793,0.0527276575335361,0.5,0.246554809115306,1.09967339071708,0.221209009929193,2.59737158590636,0.5,69.6940813089153
CBC_1122,CBC_1122_MSI_TV_v3_Vset5_Tset1_2024-08-25_13h49.30.818.csv,2,37,2,1,z,0,1,2,tac,B,9,1,2B,1B,0,1,z,2.49126739999974,0,1,1,1,1B,2B,B21,3.95124371858143,0.592315095155437,0.161130095729257,0.376722595442347,0.5,0.266585410796329,0.838869904270743,0.5,0.376722595442347,0.5,0.376722595442347,0.786142246737207,0.213857753262793,0.5,0.283839827833636,0.283839827833636,0.838869904270743,0.626550721317214,0.373449278682786,0.838869904270743,0.5,0.18029064995364,0.535947040032844,0.161130095729257,0.0397273999952579,0.5,0.246554809115306,1.09967339071708,0.221209009929193,2.59737158590636,0.5,69.6940813089153
CBC_1122,CBC_1122_MSI_TV_v3_Vset5_Tset1_2024-08-25_13h49.30.818.csv,2,38,0,2,b,1,0,0,tac,A,27,1,0A,2A,1,0,b,3.49905910000052,1,0,1,1,0A,2A,A02,2.87167962488401,0.592315095155437,0.161130095729257,0.376722595442347,0.5,0.266585410796329,0.878597304266001,0.5,0.376722595442347,0.5,0.376722595442347,0.786142246737207,0.213857753262793,0.5,0.283839827833636,0.283839827833636,0.838869904270743,0.61124051303933,0.38875948696067,0.592315095155437,0.376722595442347,0.0855082677168291,0.531487185929513,0.407684904844563,0.100516673893143,0.5,0.246554809115306,1.09967339071708,0.221209009929193,2.59737158590636,0.5,69.6940813089153
CBC_1122,CBC_1122_MSI_TV_v3_Vset5_Tset1_2024-08-25_13h49.30.818.csv,2,39,3,2,z,0,1,3,tac,C,63,1,3C,2C,NaN,NaN,None,NaN,NaN,NaN,NaN,NaN,,,C32,3.29583686600433,0.69283176904858,0.161130095729257,0.376722595442347,0.5,0.266585410796329,0.878597304266001,0.5,0.376722595442347,0.5,0.376722595442347,0.786142246737207,0.213857753262793,0.5,0.283839827833636,0.283839827833636,0.838869904270743,0,0,0,0,NaN,0,0,0,0.5,0.246554809115306,1.09967339071708,0.221209009929193,2.59737158590636,0.5,69.6940813089153
CBC_1122,CBC_1122_MSI_TV_v3_Vset5_Tset1_2024-08-25_13h49.30.818.csv,2,40,3,1,b,1,0,1,tac,D,27,1,3D,1D,1,0,z,3.19856589999927,0,1,0,0,1D,3D,D31,3.31418600467253,0.69283176904858,0.161130095729257,0.376722595442347,0.5,0.266585410796329,0.878597304266001,0.5,0.376722595442347,0.5,0.376722595442347,0.786142246737207,0.213857753262793,0.5,0.283839827833636,0.283839827833636,0.838869904270743,0.2528167519325,0.7471832480675,0.283839827833636,0.838869904270743,0.0858224958029285,0.428912181537247,-0.283839827833636,-0.0699820745708436,0.5,0.246554809115306,1.09967339071708,0.221209009929193,2.59737158590636,0.5,69.6940813089153
CBC_1122,CBC_1122_MSI_TV_v3_Vset5_Tset1_2024-08-25_13h49.30.818.csv,2,41,1,0,z,0,1,0,tac,A,63,1,1A,0A,0,1,z,2.55025709999973,0,1,1,1,0A,1A,A10,2.23359222150709,0.69283176904858,0.161130095729257,0.376722595442347,0.5,0.266585410796329,0.878597304266001,0.5,0.376722595442347,0.5,0.376722595442347,0.786142246737207,0.213857753262793,0.5,0.213857753262793,0.283839827833636,0.838869904270743,0.811314647204796,0.188685352795204,0.69283176904858,0.161130095729257,0.190172040330342,0.589078005139882,0.30716823095142,0.0757338045485136,0.5,0.246554809115306,1.09967339071708,0.221209009929193,2.59737158590636,0.5,69.6940813089153
CBC_1122,CBC_1122_MSI_TV_v3_Vset5_Tset1_2024-08-25_13h49.30.818.csv,2,42,2,0,b,1,0,3,tac,C,27,1,2C,0C,1,0,b,1.71143119999942,1,0,1,1,2C,0C,C20,3.3499040872746,0.768565573597094,0.161130095729257,0.376722595442347,0.5,0.266585410796329,0.878597304266001,0.5,0.376722595442347,0.5,0.376722595442347,0.786142246737207,0.213857753262793,0.5,0.213857753262793,0.283839827833636,0.838869904270743,0.61124051303933,0.38875948696067,0.786142246737207,0.5,0.290659672426032,0.532018132614169,0.213857753262793,0.0527276575335361,0.5,0.246554809115306,1.09967339071708,0.221209009929193,2.59737158590636,0.5,69.6940813089153
CBC_1122,CBC_1122_MSI_TV_v3_Vset5_Tset1_2024-08-25_13h49.30.818.csv,2,43,2,3,z,0,1,1,tac,D,63,1,2D,3D,0,1,z,2.03971169999932,0,1,1,1,3D,2D,D23,2.67414864942653,0.768565573597094,0.161130095729257,0.376722595442347,0.5,0.266585410796329,0.878597304266001,0.5,0.376722595442347,0.5,0.376722595442347,0.838869904270743,0.213857753262793,0.5,0.213857753262793,0.283839827833636,0.838869904270743,0.7471832480675,0.2528167519325,0.838869904270743,0.283839827833636,0.264840418860181,0.570102792222816,0.161130095729257,0.0397273999952579,0.5,0.246554809115306,1.09967339071708,0.221209009929193,2.59737158590636,0.5,69.6940813089153
CBC_1122,CBC_1122_MSI_TV_v3_Vset5_Tset1_2024-08-25_13h49.30.818.csv,2,44,0,1,z,0,1,2,tac,B,63,1,0B,1B,0,1,z,3.01393170000028,0,1,1,1,1B,0B,B01,2.97892515523761,0.768565573597094,0.161130095729257,0.376722595442347,0.5,0.266585410796329,0.878597304266001,0.5,0.376722595442347,0.5,0.376722595442347,0.838869904270743,0.213857753262793,0.5,0.213857753262793,0.283839827833636,0.878597304266001,0.76721146128911,0.23278853871089,0.878597304266001,0.266585410796329,0.131700820489494,0.574499155659283,0.121402695733999,0.0299324184727796,0.5,0.246554809115306,1.09967339071708,0.221209009929193,2.59737158590636,0.5,69.6940813089153
