ID,filename,session,trial,visStimLeft,visStimRight,correctKey,leftCorrect,rightCorrect,secondStim,mod2Type,mod2Stim,frequency,rewardAccurate,stimPairLeft,stimPairRight,pCorrectLeft,pCorrectRight,key,reactionTime,choiceLeft,choiceRight,choiceAccurate,reward,chosenPair,otherPair,triplet,surprise,0A belief,1A belief,2A belief,3A belief,0B belief,1B belief,2B belief,3B belief,0C belief,1C belief,2C belief,3C belief,0D belief,1D belief,2D belief,3D belief,beliefPairNorm,beliefOtherPairNorm,beliefPair,beliefOtherPair,lik,corrLik,rewardPE,update2,fitCBCsimpleRW_CBCdriftDiffusionLR_pwBelief_startBelief,fitCBCsimpleRW_CBCdriftDiffusionLR_pwBelief_alpha1,fitCBCsimpleRW_CBCdriftDiffusionLR_pwBelief_nonDecisionTime,fitCBCsimpleRW_CBCdriftDiffusionLR_pwBelief_weight,fitCBCsimpleRW_CBCdriftDiffusionLR_pwBelief_startingBoundary,fitCBCsimpleRW_CBCdriftDiffusionLR_pwBelief_startingPoint,fit_CBCsimpleRW_CBCdriftDiffusionLR_pwBelief_NLL
CBC_1028,CBC_1028_MSI_TV_v3_Vset6_Tset3_2023-07-21_13h48.20.813.csv,1,1,1,3,b,1,0,2,tac,B,27,1,1B,3B,1,0,b,1.7934465999997,1,0,1,1,1B,3B,B13,2.77258872223978,0.5,0.5,0.5,0.5,0.5,0.5,0.5,0.5,0.5,0.5,0.5,0.5,0.5,0.5,0.5,0.5,0.5,0.5,0.5,0.5,0.250701377927913,0.500870634163712,0.5,0.492034735186163,0.5,0.984069470372327,0.96027811542165,0.121915973992113,2.56684677810246,0.5,83.676554699352
CBC_1028,CBC_1028_MSI_TV_v3_Vset6_Tset3_2023-07-21_13h48.20.813.csv,1,2,3,2,z,0,1,3,tac,C,63,1,3C,2C,0,1,z,1.58308149999903,0,1,1,1,2C,3C,C32,2.83321334405622,0.5,0.5,0.5,0.5,0.5,0.992034735186163,0.5,0.5,0.5,0.5,0.5,0.5,0.5,0.5,0.5,0.5,0.5,0.5,0.5,0.5,0.277701199975854,0.500187904857128,0.5,0.492034735186163,0.5,0.984069470372327,0.96027811542165,0.121915973992113,2.56684677810246,0.5,83.676554699352
CBC_1028,CBC_1028_MSI_TV_v3_Vset6_Tset3_2023-07-21_13h48.20.813.csv,1,3,3,2,b,1,0,1,tac,D,63,1,3D,2D,1,0,b,2.36755509999966,1,0,1,1,3D,2D,D32,2.89037175789616,0.5,0.5,0.5,0.5,0.5,0.992034735186163,0.5,0.5,0.5,0.5,0.992034735186163,0.5,0.5,0.5,0.5,0.5,0.5,0.5,0.5,0.5,0.166296361440063,0.500659200673275,0.5,0.492034735186163,0.5,0.984069470372327,0.96027811542165,0.121915973992113,2.56684677810246,0.5,83.676554699352
CBC_1028,CBC_1028_MSI_TV_v3_Vset6_Tset3_2023-07-21_13h48.20.813.csv,1,4,0,1,z,0,1,2,tac,B,63,1,0B,1B,0,1,b,2.1691123999999,1,0,0,0,0B,1B,B01,2.94443897916644,0.5,0.5,0.5,0.5,0.5,0.992034735186163,0.5,0.5,0.5,0.5,0.992034735186163,0.5,0.5,0.5,0.5,0.992034735186163,0.00796526481383675,0.992034735186163,0.5,0.992034735186163,0.163468160812977,0.423485127341977,-0.5,-0.492034735186163,0.5,0.984069470372327,0.96027811542165,0.121915973992113,2.56684677810246,0.5,83.676554699352
CBC_1028,CBC_1028_MSI_TV_v3_Vset6_Tset3_2023-07-21_13h48.20.813.csv,1,5,0,3,b,1,0,0,tac,A,9,1,0A,3A,1,0,b,2.84553219999998,1,0,1,1,0A,3A,A03,2.99573227355399,0.5,0.5,0.5,0.5,0.00796526481383675,0.992034735186163,0.5,0.5,0.5,0.5,0.992034735186163,0.5,0.5,0.5,0.5,0.992034735186163,0.5,0.5,0.5,0.5,0.11620942726818,0.500159488948142,0.5,0.492034735186163,0.5,0.984069470372327,0.96027811542165,0.121915973992113,2.56684677810246,0.5,83.676554699352
CBC_1028,CBC_1028_MSI_TV_v3_Vset6_Tset3_2023-07-21_13h48.20.813.csv,1,6,3,2,b,1,0,1,tac,D,63,1,3D,2D,1,0,b,3.0292658999997,1,0,1,1,3D,2D,D32,2.35137525716348,0.992034735186163,0.5,0.5,0.5,0.00796526481383675,0.992034735186163,0.5,0.5,0.5,0.5,0.992034735186163,0.5,0.5,0.5,0.5,0.992034735186163,0.992034735186163,0.00796526481383675,0.992034735186163,0.5,0.116245751664834,0.575860926193926,0.00796526481383675,0.00783837392672766,0.5,0.984069470372327,0.96027811542165,0.121915973992113,2.56684677810246,0.5,83.676554699352
CBC_1028,CBC_1028_MSI_TV_v3_Vset6_Tset3_2023-07-21_13h48.20.813.csv,1,7,0,2,z,0,1,3,tac,C,27,1,0C,2C,0,1,b,2.99261810000007,1,0,0,0,0C,2C,C02,3.09104245335832,0.992034735186163,0.5,0.5,0.5,0.00796526481383675,0.992034735186163,0.5,0.5,0.5,0.5,0.992034735186163,0.5,0.5,0.5,0.5,0.999873109112891,0.00796526481383675,0.992034735186163,0.5,0.992034735186163,0.0878653276574757,0.423399305143725,-0.5,-0.492034735186163,0.5,0.984069470372327,0.96027811542165,0.121915973992113,2.56684677810246,0.5,83.676554699352
CBC_1028,CBC_1028_MSI_TV_v3_Vset6_Tset3_2023-07-21_13h48.20.813.csv,1,8,0,1,b,1,0,0,tac,A,63,1,0A,1A,1,0,b,1.90665979999903,1,0,1,1,0A,1A,A01,3.13549421592915,0.992034735186163,0.5,0.5,0.5,0.00796526481383675,0.992034735186163,0.5,0.5,0.00796526481383675,0.5,0.992034735186163,0.5,0.5,0.5,0.5,0.999873109112891,0.992034735186163,0.00796526481383675,0.992034735186163,0.5,0.268929852275362,0.576046983523775,0.00796526481383675,0.00783837392672766,0.5,0.984069470372327,0.96027811542165,0.121915973992113,2.56684677810246,0.5,83.676554699352
CBC_1028,CBC_1028_MSI_TV_v3_Vset6_Tset3_2023-07-21_13h48.20.813.csv,1,9,1,0,b,1,0,2,tac,B,63,1,1B,0B,1,0,z,2.7337751999994,0,1,0,0,0B,1B,B10,3.17805383034795,0.999873109112891,0.5,0.5,0.5,0.00796526481383675,0.992034735186163,0.5,0.5,0.00796526481383675,0.5,0.992034735186163,0.5,0.5,0.5,0.5,0.999873109112891,6.44642126834682e-05,0.999935535787317,0.00796526481383675,0.992034735186163,0.106574144595209,0.422292039123024,-0.00796526481383675,-0.00783837392672766,0.5,0.984069470372327,0.96027811542165,0.121915973992113,2.56684677810246,0.5,83.676554699352
CBC_1028,CBC_1028_MSI_TV_v3_Vset6_Tset3_2023-07-21_13h48.20.813.csv,1,10,1,3,z,0,1,1,tac,D,27,1,1D,3D,0,1,b,2.95530199999939,1,0,0,0,1D,3D,D13,3.2188758248682,0.999873109112891,0.5,0.5,0.5,0.000126890887109092,0.992034735186163,0.5,0.5,0.00796526481383675,0.5,0.992034735186163,0.5,0.5,0.5,0.5,0.999873109112891,0.000126890887109044,0.999873109112891,0.5,0.999873109112891,0.0901263532653377,0.422246137738418,-0.5,-0.492034735186163,0.5,0.984069470372327,0.96027811542165,0.121915973992113,2.56684677810246,0.5,83.676554699352
CBC_1028,CBC_1028_MSI_TV_v3_Vset6_Tset3_2023-07-21_13h48.20.813.csv,1,11,3,2,z,0,1,3,tac,C,63,1,3C,2C,0,1,z,1.99207949999982,0,1,1,1,2C,3C,C32,2.56494935746154,0.999873109112891,0.5,0.5,0.5,0.000126890887109092,0.992034735186163,0.5,0.5,0.00796526481383675,0.5,0.992034735186163,0.5,0.5,0.00796526481383675,0.5,0.999873109112891,0.992034735186163,0.00796526481383675,0.992034735186163,0.5,0.253669273006974,0.577123717594157,0.00796526481383675,0.00783837392672766,0.5,0.984069470372327,0.96027811542165,0.121915973992113,2.56684677810246,0.5,83.676554699352
CBC_1028,CBC_1028_MSI_TV_v3_Vset6_Tset3_2023-07-21_13h48.20.813.csv,1,12,1,0,b,1,0,2,tac,B,63,1,1B,0B,1,0,b,4.04580239999996,1,0,1,1,1B,0B,B10,2.60268968544438,0.999873109112891,0.5,0.5,0.5,0.000126890887109092,0.992034735186163,0.5,0.5,0.00796526481383675,0.5,0.999873109112891,0.5,0.5,0.00796526481383675,0.5,0.999873109112891,0.999998981036934,1.01896306636817e-06,0.992034735186163,0.000126890887109092,0.0539946925095089,0.577059488309001,0.00796526481383675,0.00783837392672766,0.5,0.984069470372327,0.96027811542165,0.121915973992113,2.56684677810246,0.5,83.676554699352
CBC_1028,CBC_1028_MSI_TV_v3_Vset6_Tset3_2023-07-21_13h48.20.813.csv,1,13,0,1,b,1,0,0,tac,A,63,1,0A,1A,1,0,z,3.46465269999953,0,1,0,0,1A,0A,A01,2.63905732961526,0.999873109112891,0.5,0.5,0.5,0.000126890887109092,0.999873109112891,0.5,0.5,0.00796526481383675,0.5,0.999873109112891,0.5,0.5,0.00796526481383675,0.5,0.999873109112891,0.000126890887109044,0.999873109112891,0.5,0.999873109112891,0.0612587262130974,0.421918841686608,-0.5,-0.492034735186163,0.5,0.984069470372327,0.96027811542165,0.121915973992113,2.56684677810246,0.5,83.676554699352
CBC_1028,CBC_1028_MSI_TV_v3_Vset6_Tset3_2023-07-21_13h48.20.813.csv,1,14,1,2,z,0,1,3,tac,C,9,1,1C,2C,0,1,b,1.42943860000014,1,0,0,0,1C,2C,C12,3.36729582998647,0.999873109112891,0.00796526481383675,0.5,0.5,0.000126890887109092,0.999873109112891,0.5,0.5,0.00796526481383675,0.5,0.999873109112891,0.5,0.5,0.00796526481383675,0.5,0.999873109112891,0.000126890887109044,0.999873109112891,0.5,0.999873109112891,0.234990302872192,0.423046866995193,-0.5,-0.492034735186163,0.5,0.984069470372327,0.96027811542165,0.121915973992113,2.56684677810246,0.5,83.676554699352
CBC_1028,CBC_1028_MSI_TV_v3_Vset6_Tset3_2023-07-21_13h48.20.813.csv,1,15,1,0,z,0,1,0,tac,A,63,1,1A,0A,0,1,z,3.32511129999966,0,1,1,1,0A,1A,A10,3.40119738166216,0.999873109112891,0.00796526481383675,0.5,0.5,0.000126890887109092,0.999873109112891,0.5,0.5,0.00796526481383675,0.00796526481383675,0.999873109112891,0.5,0.5,0.00796526481383675,0.5,0.999873109112891,0.999998981036934,1.01896306630049e-06,0.999873109112891,0.00796526481383675,0.0931344864842821,0.577121070787672,0.000126890887109044,0.000124869448072471,0.5,0.984069470372327,0.96027811542165,0.121915973992113,2.56684677810246,0.5,83.676554699352
CBC_1028,CBC_1028_MSI_TV_v3_Vset6_Tset3_2023-07-21_13h48.20.813.csv,1,16,3,1,b,1,0,1,tac,D,27,1,3D,1D,1,0,b,2.6671666000002,1,0,1,1,3D,1D,D31,3.43398720448515,0.999997978560963,0.00796526481383675,0.5,0.5,0.000126890887109092,0.999873109112891,0.5,0.5,0.00796526481383675,0.00796526481383675,0.999873109112891,0.5,0.5,0.00796526481383675,0.5,0.999873109112891,0.999998981036934,1.01896306636817e-06,0.999873109112891,0.00796526481383675,0.153102699726653,0.576862546303044,0.000126890887109044,0.000124869448072471,0.5,0.984069470372327,0.96027811542165,0.121915973992113,2.56684677810246,0.5,83.676554699352
CBC_1028,CBC_1028_MSI_TV_v3_Vset6_Tset3_2023-07-21_13h48.20.813.csv,1,17,0,1,z,0,1,2,tac,B,63,1,0B,1B,0,1,z,3.33308829999987,0,1,1,1,1B,0B,B01,2.77258872223978,0.999997978560963,0.00796526481383675,0.5,0.5,0.000126890887109092,0.999873109112891,0.5,0.5,0.00796526481383675,0.00796526481383675,0.999873109112891,0.5,0.5,0.00796526481383675,0.5,0.999997978560963,0.999999983894616,1.61053839656083e-08,0.999873109112891,0.000126890887109092,0.0927027729986207,0.577994613780907,0.000126890887109044,0.000124869448072471,0.5,0.984069470372327,0.96027811542165,0.121915973992113,2.56684677810246,0.5,83.676554699352
CBC_1028,CBC_1028_MSI_TV_v3_Vset6_Tset3_2023-07-21_13h48.20.813.csv,1,18,2,3,b,1,0,3,tac,C,63,0,2C,3C,0,1,b,1.7680049999999,1,0,1,0,2C,3C,C23,3.49650756146648,0.999997978560963,0.00796526481383675,0.5,0.5,0.000126890887109092,0.999997978560963,0.5,0.5,0.00796526481383675,0.00796526481383675,0.999873109112891,0.5,0.5,0.00796526481383675,0.5,0.999997978560963,0.999873109112891,0.000126890887109044,0.999873109112891,0.5,0.295000445401512,0.576737156678177,-0.999873109112891,-0.983944600924254,0.5,0.984069470372327,0.96027811542165,0.121915973992113,2.56684677810246,0.5,83.676554699352
CBC_1028,CBC_1028_MSI_TV_v3_Vset6_Tset3_2023-07-21_13h48.20.813.csv,1,19,2,0,z,0,1,0,tac,A,27,1,2A,0A,0,1,z,2.44779930000004,0,1,1,1,0A,2A,A20,3.52636052461616,0.999997978560963,0.00796526481383675,0.5,0.5,0.000126890887109092,0.999997978560963,0.5,0.5,0.00796526481383675,0.00796526481383675,0.0159285081886369,0.5,0.5,0.00796526481383675,0.5,0.999997978560963,0.999997978560963,2.02143903660357e-06,0.999997978560963,0.5,0.180916502219404,0.577613199978424,2.02143903660357e-06,1.98923644214042e-06,0.5,0.984069470372327,0.96027811542165,0.121915973992113,2.56684677810246,0.5,83.676554699352
CBC_1028,CBC_1028_MSI_TV_v3_Vset6_Tset3_2023-07-21_13h48.20.813.csv,1,20,3,2,b,1,0,1,tac,D,63,1,3D,2D,1,0,b,3.05218539999987,1,0,1,1,3D,2D,D32,2.4567357728213,0.999999967797406,0.00796526481383675,0.5,0.5,0.000126890887109092,0.999997978560963,0.5,0.5,0.00796526481383675,0.00796526481383675,0.0159285081886369,0.5,0.5,0.00796526481383675,0.5,0.999997978560963,0.999997978560963,2.02143903660357e-06,0.999997978560963,0.5,0.114472981417971,0.577050705660766,2.02143903660357e-06,1.98923644214042e-06,0.5,0.984069470372327,0.96027811542165,0.121915973992113,2.56684677810246,0.5,83.676554699352
CBC_1028,CBC_1028_MSI_TV_v3_Vset6_Tset3_2023-07-21_13h48.20.813.csv,1,21,3,1,z,0,1,2,tac,B,27,1,3B,1B,0,1,z,1.13710129999981,0,1,1,1,1B,3B,B31,3.58351893845611,0.999999967797406,0.00796526481383675,0.5,0.5,0.000126890887109092,0.999997978560963,0.5,0.5,0.00796526481383675,0.00796526481383675,0.0159285081886369,0.5,0.5,0.00796526481383675,0.5,0.999999967797406,0.999997978560963,2.02143903660357e-06,0.999997978560963,0.5,0.0761923127874218,0.576878344955702,2.02143903660357e-06,1.98923644214042e-06,0.5,0.984069470372327,0.96027811542165,0.121915973992113,2.56684677810246,0.5,83.676554699352
CBC_1028,CBC_1028_MSI_TV_v3_Vset6_Tset3_2023-07-21_13h48.20.813.csv,1,22,3,2,z,0,1,3,tac,C,63,1,3C,2C,0,1,b,1.77732289999949,1,0,0,0,3C,2C,C32,2.51230562397611,0.999999967797406,0.00796526481383675,0.5,0.5,0.000126890887109092,0.999999967797406,0.5,0.5,0.00796526481383675,0.00796526481383675,0.0159285081886369,0.5,0.5,0.00796526481383675,0.5,0.999999967797406,0.984071491811363,0.0159285081886369,0.5,0.0159285081886369,0.292640808015137,0.575519810246906,-0.5,-0.492034735186163,0.5,0.984069470372327,0.96027811542165,0.121915973992113,2.56684677810246,0.5,83.676554699352
CBC_1028,CBC_1028_MSI_TV_v3_Vset6_Tset3_2023-07-21_13h48.20.813.csv,1,23,0,1,b,1,0,0,tac,A,63,1,0A,1A,NaN,NaN,None,NaN,NaN,NaN,NaN,NaN,,,A01,2.53897387105828,0.999999967797406,0.00796526481383675,0.5,0.5,0.000126890887109092,0.999999967797406,0.5,0.5,0.00796526481383675,0.00796526481383675,0.0159285081886369,0.00796526481383675,0.5,0.00796526481383675,0.5,0.999999967797406,0,0,0,0,NaN,0,0,0,0.5,0.984069470372327,0.96027811542165,0.121915973992113,2.56684677810246,0.5,83.676554699352
CBC_1028,CBC_1028_MSI_TV_v3_Vset6_Tset3_2023-07-21_13h48.20.813.csv,1,24,2,1,z,0,1,2,tac,B,9,1,2B,1B,0,1,z,1.48841709999942,0,1,1,1,1B,2B,B21,3.66356164612965,0.999999967797406,0.00796526481383675,0.5,0.5,0.000126890887109092,0.999999967797406,0.5,0.5,0.00796526481383675,0.00796526481383675,0.0159285081886369,0.00796526481383675,0.5,0.00796526481383675,0.5,0.999999967797406,0.999999967797406,3.22025944798909e-08,0.999999967797406,0.5,0.326901691131459,0.577910634343949,3.22025944798909e-08,3.16895900944411e-08,0.5,0.984069470372327,0.96027811542165,0.121915973992113,2.56684677810246,0.5,83.676554699352
CBC_1028,CBC_1028_MSI_TV_v3_Vset6_Tset3_2023-07-21_13h48.20.813.csv,1,25,2,3,b,1,0,3,tac,C,63,1,2C,3C,1,0,b,2.54652269999951,1,0,1,1,2C,3C,C23,2.99573227355399,0.999999967797406,0.00796526481383675,0.5,0.5,0.000126890887109092,0.999999999486996,0.5,0.5,0.00796526481383675,0.00796526481383675,0.0159285081886369,0.00796526481383675,0.5,0.00796526481383675,0.5,0.999999967797406,0.668427146404775,0.331572853595225,0.0159285081886369,0.00796526481383675,0.153039926123476,0.526585927821101,0.984071491811363,0.968394711755313,0.5,0.984069470372327,0.96027811542165,0.121915973992113,2.56684677810246,0.5,83.676554699352
CBC_1028,CBC_1028_MSI_TV_v3_Vset6_Tset3_2023-07-21_13h48.20.813.csv,1,26,2,3,z,0,1,1,tac,D,63,1,2D,3D,0,1,z,2.85414449999917,0,1,1,1,3D,2D,D23,3.71357206670431,0.999999967797406,0.00796526481383675,0.5,0.5,0.000126890887109092,0.999999999486996,0.5,0.5,0.00796526481383675,0.00796526481383675,0.98432321994395,0.00796526481383675,0.5,0.00796526481383675,0.5,0.999999967797406,0.999999967797406,3.22025944798909e-08,0.999999967797406,0.5,0.1330691101361,0.577511638815183,3.22025944798909e-08,3.16895900944411e-08,0.5,0.984069470372327,0.96027811542165,0.121915973992113,2.56684677810246,0.5,83.676554699352
CBC_1028,CBC_1028_MSI_TV_v3_Vset6_Tset3_2023-07-21_13h48.20.813.csv,1,27,0,1,z,0,1,2,tac,B,63,1,0B,1B,0,1,b,2.66703349999989,1,0,0,0,0B,1B,B01,2.63905732961526,0.999999967797406,0.00796526481383675,0.5,0.5,0.000126890887109092,0.999999999486996,0.5,0.5,0.00796526481383675,0.00796526481383675,0.98432321994395,0.00796526481383675,0.5,0.00796526481383675,0.5,0.999999999486996,6.5103846647303e-14,0.999999999999935,0.000126890887109092,0.999999999486996,0.112094367794865,0.422313200374238,-0.000126890887109092,-0.000124869448072519,0.5,0.984069470372327,0.96027811542165,0.121915973992113,2.56684677810246,0.5,83.676554699352
CBC_1028,CBC_1028_MSI_TV_v3_Vset6_Tset3_2023-07-21_13h48.20.813.csv,1,28,0,2,b,1,0,0,tac,A,27,1,0A,2A,1,0,z,2.88024209999912,0,1,0,0,2A,0A,A02,3.76120011569356,0.999999967797406,0.00796526481383675,0.5,0.5,2.02143903657316e-06,0.999999999486996,0.5,0.5,0.00796526481383675,0.00796526481383675,0.98432321994395,0.00796526481383675,0.5,0.00796526481383675,0.5,0.999999999486996,3.22025944798909e-08,0.999999967797406,0.5,0.999999967797406,0.0956104020550295,0.423196806330606,-0.5,-0.492034735186163,0.5,0.984069470372327,0.96027811542165,0.121915973992113,2.56684677810246,0.5,83.676554699352
CBC_1028,CBC_1028_MSI_TV_v3_Vset6_Tset3_2023-07-21_13h48.20.813.csv,1,29,1,3,z,0,1,1,tac,D,27,1,1D,3D,0,1,b,3.01660169999923,1,0,0,0,1D,3D,D13,3.09104245335832,0.999999967797406,0.00796526481383675,0.00796526481383675,0.5,2.02143903657316e-06,0.999999999486996,0.5,0.5,0.00796526481383675,0.00796526481383675,0.98432321994395,0.00796526481383675,0.5,0.00796526481383675,0.5,0.999999999486996,4.1190251581174e-12,0.999999999995881,0.00796526481383675,0.999999999486996,0.0861340396897674,0.422677177226519,-0.00796526481383675,-0.00783837392672766,0.5,0.984069470372327,0.96027811542165,0.121915973992113,2.56684677810246,0.5,83.676554699352
CBC_1028,CBC_1028_MSI_TV_v3_Vset6_Tset3_2023-07-21_13h48.20.813.csv,1,30,1,0,z,0,1,0,tac,A,63,1,1A,0A,0,1,z,3.85197549999975,0,1,1,1,0A,1A,A10,3.11351530921037,0.999999967797406,0.00796526481383675,0.00796526481383675,0.5,2.02143903657316e-06,0.999999999486996,0.5,0.5,0.00796526481383675,0.00796526481383675,0.98432321994395,0.00796526481383675,0.5,0.000126890887109092,0.5,0.999999999486996,0.999999999741438,2.58561713436888e-10,0.999999967797406,0.00796526481383675,0.062558767426215,0.577481570322485,3.22025944798909e-08,3.16895900944411e-08,0.5,0.984069470372327,0.96027811542165,0.121915973992113,2.56684677810246,0.5,83.676554699352
CBC_1028,CBC_1028_MSI_TV_v3_Vset6_Tset3_2023-07-21_13h48.20.813.csv,1,31,2,0,b,1,0,3,tac,C,27,1,2C,0C,1,0,b,1.25228089999928,1,0,1,1,2C,0C,C20,3.8286413964891,0.999999999486996,0.00796526481383675,0.00796526481383675,0.5,2.02143903657316e-06,0.999999999486996,0.5,0.5,0.00796526481383675,0.00796526481383675,0.98432321994395,0.00796526481383675,0.5,0.000126890887109092,0.5,0.999999999486996,0.999872139339806,0.000127860660194434,0.98432321994395,0.00796526481383675,0.225351578697482,0.577103532816865,0.0156767800560498,0.0154270406469004,0.5,0.984069470372327,0.96027811542165,0.121915973992113,2.56684677810246,0.5,83.676554699352
CBC_1028,CBC_1028_MSI_TV_v3_Vset6_Tset3_2023-07-21_13h48.20.813.csv,1,32,2,3,z,0,1,1,tac,D,63,1,2D,3D,0,1,z,2.80772969999907,0,1,1,1,3D,2D,D23,3.15700042115011,0.999999999486996,0.00796526481383675,0.00796526481383675,0.5,2.02143903657316e-06,0.999999999486996,0.5,0.5,0.00796526481383675,0.00796526481383675,0.999750260590851,0.00796526481383675,0.5,0.000126890887109092,0.5,0.999999999486996,0.999999999486996,5.13004416724527e-10,0.999999999486996,0.5,0.137867718377115,0.577706669930528,5.13004416724527e-10,5.0483198466477e-10,0.5,0.984069470372327,0.96027811542165,0.121915973992113,2.56684677810246,0.5,83.676554699352
CBC_1028,CBC_1028_MSI_TV_v3_Vset6_Tset3_2023-07-21_13h48.20.813.csv,1,33,1,0,b,1,0,2,tac,B,63,1,1B,0B,1,0,b,2.53697569999986,1,0,1,1,1B,0B,B10,2.77258872223978,0.999999999486996,0.00796526481383675,0.00796526481383675,0.5,2.02143903657316e-06,0.999999999486996,0.5,0.5,0.00796526481383675,0.00796526481383675,0.999750260590851,0.00796526481383675,0.5,0.000126890887109092,0.5,0.999999999991828,0.999999999999999,9.99200722162641e-16,0.999999999486996,2.02143903657316e-06,0.169212009399778,0.577844982074295,5.13004416724527e-10,5.0483198466477e-10,0.5,0.984069470372327,0.96027811542165,0.121915973992113,2.56684677810246,0.5,83.676554699352
CBC_1028,CBC_1028_MSI_TV_v3_Vset6_Tset3_2023-07-21_13h48.20.813.csv,1,34,0,1,b,1,0,0,tac,A,63,1,0A,1A,1,0,z,2.82206569999926,0,1,0,0,1A,0A,A01,2.50552593699074,0.999999999486996,0.00796526481383675,0.00796526481383675,0.5,2.02143903657316e-06,0.999999999991828,0.5,0.5,0.00796526481383675,0.00796526481383675,0.999750260590851,0.00796526481383675,0.5,0.000126890887109092,0.5,0.999999999991828,4.11903844366179e-12,0.999999999995881,0.00796526481383675,0.999999999486996,0.0998851931763412,0.423095517848128,-0.00796526481383675,-0.00783837392672766,0.5,0.984069470372327,0.96027811542165,0.121915973992113,2.56684677810246,0.5,83.676554699352
CBC_1028,CBC_1028_MSI_TV_v3_Vset6_Tset3_2023-07-21_13h48.20.813.csv,1,35,2,3,z,0,1,1,tac,D,63,0,2D,3D,1,0,b,2.9652604999992,1,0,0,1,2D,3D,D23,2.81341071676004,0.999999999486996,0.000126890887109092,0.00796526481383675,0.5,2.02143903657316e-06,0.999999999991828,0.5,0.5,0.00796526481383675,0.00796526481383675,0.999750260590851,0.00796526481383675,0.5,0.000126890887109092,0.5,0.999999999991828,8.17246270656824e-12,0.999999999991828,0.5,0.999999999991828,0.0892405999903649,0.421286759824804,0.5,0.492034735186163,0.5,0.984069470372327,0.96027811542165,0.121915973992113,2.56684677810246,0.5,83.676554699352
CBC_1028,CBC_1028_MSI_TV_v3_Vset6_Tset3_2023-07-21_13h48.20.813.csv,1,36,2,0,b,1,0,3,tac,C,27,1,2C,0C,1,0,b,2.32116659999974,1,0,1,1,2C,0C,C20,3.23867845216438,0.999999999486996,0.000126890887109092,0.00796526481383675,0.5,2.02143903657316e-06,0.999999999991828,0.5,0.5,0.00796526481383675,0.00796526481383675,0.999750260590851,0.00796526481383675,0.5,0.000126890887109092,0.992034735186163,0.999999999991828,0.99999799429054,2.00570946029544e-06,0.999750260590851,0.00796526481383675,0.198965863657085,0.577484302945407,0.000249739409149408,0.000245760928092755,0.5,0.984069470372327,0.96027811542165,0.121915973992113,2.56684677810246,0.5,83.676554699352
CBC_1028,CBC_1028_MSI_TV_v3_Vset6_Tset3_2023-07-21_13h48.20.813.csv,1,37,0,1,b,1,0,0,tac,A,63,1,0A,1A,NaN,NaN,None,NaN,NaN,NaN,NaN,NaN,,,A01,2.34180580614733,0.999999999486996,0.000126890887109092,0.00796526481383675,0.5,2.02143903657316e-06,0.999999999991828,0.5,0.5,0.00796526481383675,0.00796526481383675,0.999996021518943,0.00796526481383675,0.5,0.000126890887109092,0.992034735186163,0.999999999991828,0,0,0,0,NaN,0,0,0,0.5,0.984069470372327,0.96027811542165,0.121915973992113,2.56684677810246,0.5,83.676554699352
CBC_1028,CBC_1028_MSI_TV_v3_Vset6_Tset3_2023-07-21_13h48.20.813.csv,1,38,1,3,b,1,0,2,tac,B,27,1,1B,3B,1,0,z,2.29010860000017,0,1,0,0,3B,1B,B13,3.27714473299218,0.999999999486996,0.000126890887109092,0.00796526481383675,0.5,2.02143903657316e-06,0.999999999991828,0.5,0.5,0.00796526481383675,0.00796526481383675,0.999996021518943,0.00796526481383675,0.5,0.000126890887109092,0.992034735186163,0.999999999991828,8.17246270656824e-12,0.999999999991828,0.5,0.999999999991828,0.148550385798885,0.421187337396038,-0.5,-0.492034735186163,0.5,0.984069470372327,0.96027811542165,0.121915973992113,2.56684677810246,0.5,83.676554699352
CBC_1028,CBC_1028_MSI_TV_v3_Vset6_Tset3_2023-07-21_13h48.20.813.csv,1,39,3,2,z,0,1,3,tac,C,63,1,3C,2C,0,1,b,1.42578150000008,1,0,0,0,3C,2C,C32,2.60268968544438,0.999999999486996,0.000126890887109092,0.00796526481383675,0.5,2.02143903657316e-06,0.999999999991828,0.5,0.00796526481383675,0.00796526481383675,0.00796526481383675,0.999996021518943,0.00796526481383675,0.5,0.000126890887109092,0.992034735186163,0.999999999991828,3.19442244445064e-08,0.999999968055776,0.00796526481383675,0.999996021518943,0.234816246490669,0.423648007516204,-0.00796526481383675,-0.00783837392672766,0.5,0.984069470372327,0.96027811542165,0.121915973992113,2.56684677810246,0.5,83.676554699352
CBC_1028,CBC_1028_MSI_TV_v3_Vset6_Tset3_2023-07-21_13h48.20.813.csv,1,40,3,2,b,1,0,1,tac,D,63,1,3D,2D,1,0,b,2.73393729999952,1,0,1,1,3D,2D,D32,2.62103882411258,0.999999999486996,0.000126890887109092,0.00796526481383675,0.5,2.02143903657316e-06,0.999999999991828,0.5,0.00796526481383675,0.00796526481383675,0.00796526481383675,0.999996021518943,0.000126890887109092,0.5,0.000126890887109092,0.992034735186163,0.999999999991828,0.99999999898216,1.01784025652307e-09,0.999999999991828,0.992034735186163,0.145872177940383,0.5780843298184,8.17246270656824e-12,8.0422710472902e-12,0.5,0.984069470372327,0.96027811542165,0.121915973992113,2.56684677810246,0.5,83.676554699352
CBC_1028,CBC_1028_MSI_TV_v3_Vset6_Tset3_2023-07-21_13h48.20.813.csv,1,41,0,1,z,0,1,2,tac,B,63,1,0B,1B,0,1,z,2.53948209999999,0,1,1,1,1B,0B,B01,2.63905732961526,0.999999999486996,0.000126890887109092,0.00796526481383675,0.5,2.02143903657316e-06,0.999999999991828,0.5,0.00796526481383675,0.00796526481383675,0.00796526481383675,0.999996021518943,0.000126890887109092,0.5,0.000126890887109092,0.992034735186163,0.99999999999987,1,1.65201685346439e-17,0.999999999991828,2.02143903657316e-06,0.168508295424892,0.576539869967837,8.17246270656824e-12,8.0422710472902e-12,0.5,0.984069470372327,0.96027811542165,0.121915973992113,2.56684677810246,0.5,83.676554699352
CBC_1028,CBC_1028_MSI_TV_v3_Vset6_Tset3_2023-07-21_13h48.20.813.csv,1,42,2,0,z,0,1,0,tac,A,27,1,2A,0A,0,1,b,2.93172529999993,1,0,0,0,2A,0A,A20,3.3499040872746,0.999999999486996,0.000126890887109092,0.00796526481383675,0.5,2.02143903657316e-06,0.99999999999987,0.5,0.00796526481383675,0.00796526481383675,0.00796526481383675,0.999996021518943,0.000126890887109092,0.5,0.000126890887109092,0.992034735186163,0.99999999999987,4.1190251581174e-12,0.999999999995881,0.00796526481383675,0.999999999486996,0.0915956694622692,0.421564778610223,-0.00796526481383675,-0.00783837392672766,0.5,0.984069470372327,0.96027811542165,0.121915973992113,2.56684677810246,0.5,83.676554699352
CBC_1028,CBC_1028_MSI_TV_v3_Vset6_Tset3_2023-07-21_13h48.20.813.csv,1,43,3,0,b,1,0,1,tac,D,9,1,3D,0D,1,0,z,3.16109249999954,0,1,0,0,0D,3D,D30,4.06044301054642,0.999999999486996,0.000126890887109092,0.000126890887109092,0.5,2.02143903657316e-06,0.99999999999987,0.5,0.00796526481383675,0.00796526481383675,0.00796526481383675,0.999996021518943,0.000126890887109092,0.5,0.000126890887109092,0.992034735186163,0.99999999999987,1.30229160788531e-13,0.99999999999987,0.5,0.99999999999987,0.0770675470429274,0.421893045450395,-0.5,-0.492034735186163,0.5,0.984069470372327,0.96027811542165,0.121915973992113,2.56684677810246,0.5,83.676554699352
CBC_1028,CBC_1028_MSI_TV_v3_Vset6_Tset3_2023-07-21_13h48.20.813.csv,1,44,3,2,z,0,1,3,tac,C,63,1,3C,2C,0,1,b,2.82717090000006,1,0,0,0,3C,2C,C32,2.46809953147162,0.999999999486996,0.000126890887109092,0.000126890887109092,0.5,2.02143903657316e-06,0.99999999999987,0.5,0.00796526481383675,0.00796526481383675,0.00796526481383675,0.999996021518943,0.000126890887109092,0.00796526481383675,0.000126890887109092,0.992034735186163,0.99999999999987,5.04899065930536e-10,0.999999999495101,0.000126890887109092,0.999996021518943,0.0991381273961569,0.421583934706442,-0.000126890887109092,-0.000124869448072519,0.5,0.984069470372327,0.96027811542165,0.121915973992113,2.56684677810246,0.5,83.676554699352
CBC_1028,CBC_1028_MSI_AV_v3_Vset3_Aset1_2023-07-21_14h00.16.706.csv,2,1,1,0,b,1,0,2,aud,B,63,1,1B,0B,1,0,b,2.35687450000114,1,0,1,1,1B,0B,B10,2.77258872223978,0.5,0.5,0.5,0.5,0.5,0.5,0.5,0.5,0.5,0.5,0.5,0.5,0.5,0.5,0.5,0.5,0.5,0.5,0.5,0.5,0.111117876318419,0.499102897339737,0.5,0.00264131424825303,0.5,0.00528262849650607,0.38710632964505,0.0321343582598321,2.62748741473991,0.5,91.3121411543133
CBC_1028,CBC_1028_MSI_AV_v3_Vset3_Aset1_2023-07-21_14h00.16.706.csv,2,2,0,1,b,1,0,0,aud,A,63,1,0A,1A,1,0,b,2.14950190000036,1,0,1,1,0A,1A,A01,2.83321334405622,0.5,0.5,0.5,0.5,0.5,0.502641314248253,0.5,0.5,0.5,0.5,0.5,0.5,0.5,0.5,0.5,0.5,0.5,0.5,0.5,0.5,0.129227311637586,0.500521048999496,0.5,0.00264131424825303,0.5,0.00528262849650607,0.38710632964505,0.0321343582598321,2.62748741473991,0.5,91.3121411543133
CBC_1028,CBC_1028_MSI_AV_v3_Vset3_Aset1_2023-07-21_14h00.16.706.csv,2,3,1,2,z,0,1,3,aud,C,9,1,1C,2C,0,1,z,3.87452440000106,0,1,1,1,2C,1C,C12,2.89037175789616,0.502641314248253,0.5,0.5,0.5,0.5,0.502641314248253,0.5,0.5,0.5,0.5,0.5,0.5,0.5,0.5,0.5,0.5,0.5,0.5,0.5,0.5,0.037679262086628,0.500756001654919,0.5,0.00264131424825303,0.5,0.00528262849650607,0.38710632964505,0.0321343582598321,2.62748741473991,0.5,91.3121411543133
CBC_1028,CBC_1028_MSI_AV_v3_Vset3_Aset1_2023-07-21_14h00.16.706.csv,2,4,1,0,z,0,1,0,aud,A,63,1,1A,0A,0,1,z,2.36743460000071,0,1,1,1,0A,1A,A10,2.94443897916644,0.502641314248253,0.5,0.5,0.5,0.5,0.502641314248253,0.5,0.5,0.5,0.5,0.502641314248253,0.5,0.5,0.5,0.5,0.5,0.502641314248253,0.497358685751747,0.502641314248253,0.5,0.110462500257438,0.499917328291332,0.497358685751747,0.00262736116633699,0.5,0.00528262849650607,0.38710632964505,0.0321343582598321,2.62748741473991,0.5,91.3121411543133
CBC_1028,CBC_1028_MSI_AV_v3_Vset3_Aset1_2023-07-21_14h00.16.706.csv,2,5,3,1,b,1,0,1,aud,D,27,1,3D,1D,1,0,b,1.85752700000012,1,0,1,1,3D,1D,D31,2.99573227355399,0.50526867541459,0.5,0.5,0.5,0.5,0.502641314248253,0.5,0.5,0.5,0.5,0.502641314248253,0.5,0.5,0.5,0.5,0.5,0.5,0.5,0.5,0.5,0.159231948507146,0.500834647124423,0.5,0.00264131424825303,0.5,0.00528262849650607,0.38710632964505,0.0321343582598321,2.62748741473991,0.5,91.3121411543133
CBC_1028,CBC_1028_MSI_AV_v3_Vset3_Aset1_2023-07-21_14h00.16.706.csv,2,6,0,1,z,0,1,2,aud,B,63,1,0B,1B,0,1,z,1.32751960000041,0,1,1,1,1B,0B,B01,3.04452243772342,0.50526867541459,0.5,0.5,0.5,0.5,0.502641314248253,0.5,0.5,0.5,0.5,0.502641314248253,0.5,0.5,0.5,0.5,0.502641314248253,0.502641314248253,0.497358685751747,0.502641314248253,0.5,0.228913598615305,0.499540402050463,0.497358685751747,0.00262736116633699,0.5,0.00528262849650607,0.38710632964505,0.0321343582598321,2.62748741473991,0.5,91.3121411543133
CBC_1028,CBC_1028_MSI_AV_v3_Vset3_Aset1_2023-07-21_14h00.16.706.csv,2,7,2,3,b,1,0,3,aud,C,63,1,2C,3C,1,0,z,1.31665770000018,0,1,0,0,3C,2C,C23,3.09104245335832,0.50526867541459,0.5,0.5,0.5,0.5,0.50526867541459,0.5,0.5,0.5,0.5,0.502641314248253,0.5,0.5,0.5,0.5,0.502641314248253,0.497358685751747,0.502641314248253,0.5,0.502641314248253,0.23121293677088,0.501106423071502,-0.5,-0.00264131424825303,0.5,0.00528262849650607,0.38710632964505,0.0321343582598321,2.62748741473991,0.5,91.3121411543133
CBC_1028,CBC_1028_MSI_AV_v3_Vset3_Aset1_2023-07-21_14h00.16.706.csv,2,8,2,0,z,0,1,0,aud,A,27,1,2A,0A,0,1,b,2.7334277000009,1,0,0,0,2A,0A,A20,3.13549421592915,0.50526867541459,0.5,0.5,0.5,0.5,0.50526867541459,0.5,0.5,0.5,0.5,0.502641314248253,0.497358685751747,0.5,0.5,0.5,0.502641314248253,0.49473132458541,0.50526867541459,0.5,0.50526867541459,0.0851339644979294,0.500483858579716,-0.5,-0.00264131424825303,0.5,0.00528262849650607,0.38710632964505,0.0321343582598321,2.62748741473991,0.5,91.3121411543133
CBC_1028,CBC_1028_MSI_AV_v3_Vset3_Aset1_2023-07-21_14h00.16.706.csv,2,9,3,2,b,1,0,1,aud,D,63,1,3D,2D,1,0,z,1.14307180000014,0,1,0,0,2D,3D,D32,3.17805383034795,0.50526867541459,0.5,0.497358685751747,0.5,0.5,0.50526867541459,0.5,0.5,0.5,0.5,0.502641314248253,0.497358685751747,0.5,0.5,0.5,0.502641314248253,0.497358685751747,0.502641314248253,0.5,0.502641314248253,0.253937352866946,0.498805791407361,-0.5,-0.00264131424825303,0.5,0.00528262849650607,0.38710632964505,0.0321343582598321,2.62748741473991,0.5,91.3121411543133
CBC_1028,CBC_1028_MSI_AV_v3_Vset3_Aset1_2023-07-21_14h00.16.706.csv,2,10,3,1,z,0,1,2,aud,B,27,1,3B,1B,0,1,z,2.98732080000082,0,1,1,1,1B,3B,B31,3.2188758248682,0.50526867541459,0.5,0.497358685751747,0.5,0.5,0.50526867541459,0.5,0.5,0.5,0.5,0.502641314248253,0.497358685751747,0.5,0.5,0.497358685751747,0.502641314248253,0.50526867541459,0.49473132458541,0.50526867541459,0.5,0.0708464539240047,0.499369064984339,0.49473132458541,0.00261348179336908,0.5,0.00528262849650607,0.38710632964505,0.0321343582598321,2.62748741473991,0.5,91.3121411543133
CBC_1028,CBC_1028_MSI_AV_v3_Vset3_Aset1_2023-07-21_14h00.16.706.csv,2,11,3,2,z,0,1,3,aud,C,63,1,3C,2C,0,1,b,1.49887970000054,1,0,0,0,3C,2C,C32,3.25809653802148,0.50526867541459,0.5,0.497358685751747,0.5,0.5,0.507882157207959,0.5,0.5,0.5,0.5,0.502641314248253,0.497358685751747,0.5,0.5,0.497358685751747,0.502641314248253,0.494717518917276,0.505282481082724,0.497358685751747,0.502641314248253,0.204406674839621,0.499799617632323,-0.497358685751747,-0.00262736116633699,0.5,0.00528262849650607,0.38710632964505,0.0321343582598321,2.62748741473991,0.5,91.3121411543133
CBC_1028,CBC_1028_MSI_AV_v3_Vset3_Aset1_2023-07-21_14h00.16.706.csv,2,12,1,3,b,1,0,2,aud,B,27,1,1B,3B,1,0,z,2.08315980000043,0,1,0,0,3B,1B,B13,3.29583686600433,0.50526867541459,0.5,0.497358685751747,0.5,0.5,0.507882157207959,0.5,0.5,0.5,0.5,0.502641314248253,0.49473132458541,0.5,0.5,0.497358685751747,0.502641314248253,0.492117842792041,0.507882157207959,0.5,0.507882157207959,0.135111448277078,0.499103254522659,-0.5,-0.00264131424825303,0.5,0.00528262849650607,0.38710632964505,0.0321343582598321,2.62748741473991,0.5,91.3121411543133
CBC_1028,CBC_1028_MSI_AV_v3_Vset3_Aset1_2023-07-21_14h00.16.706.csv,2,13,3,2,z,0,1,3,aud,C,63,1,3C,2C,0,1,b,2.30096860000049,1,0,0,0,3C,2C,C32,2.63905732961526,0.50526867541459,0.5,0.497358685751747,0.5,0.5,0.507882157207959,0.5,0.497358685751747,0.5,0.5,0.502641314248253,0.49473132458541,0.5,0.5,0.497358685751747,0.502641314248253,0.492090450621509,0.507909549378491,0.49473132458541,0.502641314248253,0.115751477571095,0.499555431906756,-0.49473132458541,-0.00261348179336908,0.5,0.00528262849650607,0.38710632964505,0.0321343582598321,2.62748741473991,0.5,91.3121411543133
CBC_1028,CBC_1028_MSI_AV_v3_Vset3_Aset1_2023-07-21_14h00.16.706.csv,2,14,3,2,b,1,0,1,aud,D,63,1,3D,2D,1,0,z,1.5029226000006,0,1,0,0,2D,3D,D32,2.67414864942653,0.50526867541459,0.5,0.497358685751747,0.5,0.5,0.507882157207959,0.5,0.497358685751747,0.5,0.5,0.502641314248253,0.492117842792041,0.5,0.5,0.497358685751747,0.502641314248253,0.494717518917276,0.505282481082724,0.497358685751747,0.502641314248253,0.203646620286534,0.499322465212817,-0.497358685751747,-0.00262736116633699,0.5,0.00528262849650607,0.38710632964505,0.0321343582598321,2.62748741473991,0.5,91.3121411543133
CBC_1028,CBC_1028_MSI_AV_v3_Vset3_Aset1_2023-07-21_14h00.16.706.csv,2,15,0,3,b,1,0,0,aud,A,9,1,0A,3A,1,0,b,2.17136180000034,1,0,1,1,0A,3A,A03,3.40119738166216,0.50526867541459,0.5,0.497358685751747,0.5,0.5,0.507882157207959,0.5,0.497358685751747,0.5,0.5,0.502641314248253,0.492117842792041,0.5,0.5,0.49473132458541,0.502641314248253,0.50526867541459,0.49473132458541,0.50526867541459,0.5,0.127381612441536,0.501134720464031,0.49473132458541,0.00261348179336908,0.5,0.00528262849650607,0.38710632964505,0.0321343582598321,2.62748741473991,0.5,91.3121411543133
CBC_1028,CBC_1028_MSI_AV_v3_Vset3_Aset1_2023-07-21_14h00.16.706.csv,2,16,0,1,z,0,1,2,aud,B,63,0,0B,1B,1,0,z,2.8850351000001,0,1,1,0,1B,0B,B01,2.7408400239252,0.507882157207959,0.5,0.497358685751747,0.5,0.5,0.507882157207959,0.5,0.497358685751747,0.5,0.5,0.502641314248253,0.492117842792041,0.5,0.5,0.49473132458541,0.502641314248253,0.507882157207959,0.492117842792041,0.507882157207959,0.5,0.0762640703624763,0.499655320408418,-0.507882157207959,-0.00268295275653374,0.5,0.00528262849650607,0.38710632964505,0.0321343582598321,2.62748741473991,0.5,91.3121411543133
CBC_1028,CBC_1028_MSI_AV_v3_Vset3_Aset1_2023-07-21_14h00.16.706.csv,2,17,2,3,z,0,1,1,aud,D,63,1,2D,3D,0,1,b,1.60128390000045,1,0,0,0,2D,3D,D23,3.46573590279973,0.507882157207959,0.5,0.497358685751747,0.5,0.5,0.505199204451425,0.5,0.497358685751747,0.5,0.5,0.502641314248253,0.492117842792041,0.5,0.5,0.49473132458541,0.502641314248253,0.492090450621509,0.507909549378491,0.49473132458541,0.502641314248253,0.190482170081627,0.499965566421882,-0.49473132458541,-0.00261348179336908,0.5,0.00528262849650607,0.38710632964505,0.0321343582598321,2.62748741473991,0.5,91.3121411543133
CBC_1028,CBC_1028_MSI_AV_v3_Vset3_Aset1_2023-07-21_14h00.16.706.csv,2,18,0,2,z,0,1,3,aud,C,27,1,0C,2C,0,1,b,2.11909710000054,1,0,0,0,0C,2C,C02,3.49650756146648,0.507882157207959,0.5,0.497358685751747,0.5,0.5,0.505199204451425,0.5,0.497358685751747,0.5,0.5,0.502641314248253,0.492117842792041,0.5,0.5,0.492117842792041,0.502641314248253,0.497358685751747,0.502641314248253,0.5,0.502641314248253,0.132030564922634,0.500396361722896,-0.5,-0.00264131424825303,0.5,0.00528262849650607,0.38710632964505,0.0321343582598321,2.62748741473991,0.5,91.3121411543133
CBC_1028,CBC_1028_MSI_AV_v3_Vset3_Aset1_2023-07-21_14h00.16.706.csv,2,19,0,1,b,1,0,0,aud,A,63,1,0A,1A,1,0,z,1.5679209000009,0,1,0,0,1A,0A,A01,2.83321334405622,0.507882157207959,0.5,0.497358685751747,0.5,0.5,0.505199204451425,0.5,0.497358685751747,0.497358685751747,0.5,0.502641314248253,0.492117842792041,0.5,0.5,0.492117842792041,0.502641314248253,0.492117842792041,0.507882157207959,0.5,0.507882157207959,0.194502305589984,0.498790524833886,-0.5,-0.00264131424825303,0.5,0.00528262849650607,0.38710632964505,0.0321343582598321,2.62748741473991,0.5,91.3121411543133
CBC_1028,CBC_1028_MSI_AV_v3_Vset3_Aset1_2023-07-21_14h00.16.706.csv,2,20,1,0,b,1,0,2,aud,B,63,1,1B,0B,1,0,b,4.03585470000053,1,0,1,1,1B,0B,B10,2.86220088092947,0.507882157207959,0.497358685751747,0.497358685751747,0.5,0.5,0.505199204451425,0.5,0.497358685751747,0.497358685751747,0.5,0.502641314248253,0.492117842792041,0.5,0.5,0.492117842792041,0.502641314248253,0.505199204451425,0.494800795548575,0.505199204451425,0.5,0.033545889377222,0.500317261297845,0.494800795548575,0.00261384878265877,0.5,0.00528262849650607,0.38710632964505,0.0321343582598321,2.62748741473991,0.5,91.3121411543133
CBC_1028,CBC_1028_MSI_AV_v3_Vset3_Aset1_2023-07-21_14h00.16.706.csv,2,21,1,3,z,0,1,1,aud,D,27,1,1D,3D,0,1,z,2.24695400000019,0,1,1,1,3D,1D,D13,3.58351893845611,0.507882157207959,0.497358685751747,0.497358685751747,0.5,0.5,0.507813053234084,0.5,0.497358685751747,0.497358685751747,0.5,0.502641314248253,0.492117842792041,0.5,0.5,0.492117842792041,0.502641314248253,0.502641314248253,0.497358685751747,0.502641314248253,0.5,0.120556991944834,0.50059876529435,0.497358685751747,0.00262736116633699,0.5,0.00528262849650607,0.38710632964505,0.0321343582598321,2.62748741473991,0.5,91.3121411543133
CBC_1028,CBC_1028_MSI_AV_v3_Vset3_Aset1_2023-07-21_14h00.16.706.csv,2,22,3,2,z,0,1,3,aud,C,63,1,3C,2C,0,1,b,1.63883690000057,1,0,0,0,3C,2C,C32,2.51230562397611,0.507882157207959,0.497358685751747,0.497358685751747,0.5,0.5,0.507813053234084,0.5,0.497358685751747,0.497358685751747,0.5,0.502641314248253,0.492117842792041,0.5,0.5,0.492117842792041,0.50526867541459,0.48947740483412,0.51052259516588,0.492117842792041,0.502641314248253,0.184993090345378,0.498488218165798,-0.492117842792041,-0.00259967573997233,0.5,0.00528262849650607,0.38710632964505,0.0321343582598321,2.62748741473991,0.5,91.3121411543133
CBC_1028,CBC_1028_MSI_AV_v3_Vset3_Aset1_2023-07-21_14h00.16.706.csv,2,23,0,1,b,1,0,0,aud,A,63,1,0A,1A,1,0,z,1.61620320000111,0,1,0,0,1A,0A,A01,2.53897387105828,0.507882157207959,0.497358685751747,0.497358685751747,0.5,0.5,0.507813053234084,0.5,0.497358685751747,0.497358685751747,0.5,0.502641314248253,0.489518167052069,0.5,0.5,0.492117842792041,0.50526867541459,0.48947740483412,0.51052259516588,0.497358685751747,0.507882157207959,0.188319740061931,0.499470583952017,-0.497358685751747,-0.00262736116633699,0.5,0.00528262849650607,0.38710632964505,0.0321343582598321,2.62748741473991,0.5,91.3121411543133
CBC_1028,CBC_1028_MSI_AV_v3_Vset3_Aset1_2023-07-21_14h00.16.706.csv,2,24,2,3,z,0,1,1,aud,D,63,1,2D,3D,0,1,b,2.59434450000026,1,0,0,0,2D,3D,D23,2.9704144655697,0.507882157207959,0.49473132458541,0.497358685751747,0.5,0.5,0.507813053234084,0.5,0.497358685751747,0.497358685751747,0.5,0.502641314248253,0.489518167052069,0.5,0.5,0.492117842792041,0.50526867541459,0.486851351553506,0.513148648446494,0.492117842792041,0.50526867541459,0.093881228019557,0.499679793449141,-0.492117842792041,-0.00259967573997233,0.5,0.00528262849650607,0.38710632964505,0.0321343582598321,2.62748741473991,0.5,91.3121411543133
CBC_1028,CBC_1028_MSI_AV_v3_Vset3_Aset1_2023-07-21_14h00.16.706.csv,2,25,2,0,b,1,0,3,aud,C,27,1,2C,0C,1,0,z,2.61944130000029,0,1,0,0,0C,2C,C20,3.68887945411394,0.507882157207959,0.49473132458541,0.497358685751747,0.5,0.5,0.507813053234084,0.5,0.497358685751747,0.497358685751747,0.5,0.502641314248253,0.489518167052069,0.5,0.5,0.489518167052069,0.50526867541459,0.494717518917276,0.505282481082724,0.497358685751747,0.502641314248253,0.092320772297479,0.50026812920486,-0.497358685751747,-0.00262736116633699,0.5,0.00528262849650607,0.38710632964505,0.0321343582598321,2.62748741473991,0.5,91.3121411543133
CBC_1028,CBC_1028_MSI_AV_v3_Vset3_Aset1_2023-07-21_14h00.16.706.csv,2,26,0,1,b,1,0,0,aud,A,63,1,0A,1A,1,0,b,1.18960700000116,1,0,1,1,0A,1A,A01,2.32727770558442,0.507882157207959,0.49473132458541,0.497358685751747,0.5,0.5,0.507813053234084,0.5,0.497358685751747,0.49473132458541,0.5,0.502641314248253,0.489518167052069,0.5,0.5,0.489518167052069,0.50526867541459,0.513148648446494,0.486851351553506,0.507882157207959,0.49473132458541,0.248857111628347,0.500519430070871,0.492117842792041,0.00259967573997233,0.5,0.00528262849650607,0.38710632964505,0.0321343582598321,2.62748741473991,0.5,91.3121411543133
CBC_1028,CBC_1028_MSI_AV_v3_Vset3_Aset1_2023-07-21_14h00.16.706.csv,2,27,1,3,b,1,0,2,aud,B,27,1,1B,3B,1,0,b,2.15413870000066,1,0,1,1,1B,3B,B13,3.04452243772342,0.510481832947931,0.49473132458541,0.497358685751747,0.5,0.5,0.507813053234084,0.5,0.497358685751747,0.49473132458541,0.5,0.502641314248253,0.489518167052069,0.5,0.5,0.489518167052069,0.50526867541459,0.51045350457778,0.48954649542222,0.507813053234084,0.497358685751747,0.129223342471104,0.502165762280048,0.492186946765916,0.00260004079059394,0.5,0.00528262849650607,0.38710632964505,0.0321343582598321,2.62748741473991,0.5,91.3121411543133
CBC_1028,CBC_1028_MSI_AV_v3_Vset3_Aset1_2023-07-21_14h00.16.706.csv,2,28,3,2,z,0,1,3,aud,C,63,1,3C,2C,0,1,z,1.25935760000084,0,1,1,1,2C,3C,C32,2.37490575457367,0.510481832947931,0.49473132458541,0.497358685751747,0.5,0.5,0.510413094024678,0.5,0.497358685751747,0.49473132458541,0.5,0.502641314248253,0.489518167052069,0.5,0.5,0.489518167052069,0.50526867541459,0.513121694057023,0.486878305942977,0.502641314248253,0.489518167052069,0.239040103153945,0.500181521537328,0.497358685751747,0.00262736116633699,0.5,0.00528262849650607,0.38710632964505,0.0321343582598321,2.62748741473991,0.5,91.3121411543133
CBC_1028,CBC_1028_MSI_AV_v3_Vset3_Aset1_2023-07-21_14h00.16.706.csv,2,29,3,2,b,1,0,1,aud,D,63,1,3D,2D,1,0,b,2.42804299999989,1,0,1,1,3D,2D,D32,2.68557734525015,0.510481832947931,0.49473132458541,0.497358685751747,0.5,0.5,0.510413094024678,0.5,0.497358685751747,0.49473132458541,0.5,0.50526867541459,0.489518167052069,0.5,0.5,0.489518167052069,0.50526867541459,0.515747029819979,0.484252970180021,0.50526867541459,0.489518167052069,0.105994523528225,0.500930339644499,0.49473132458541,0.00261348179336908,0.5,0.00528262849650607,0.38710632964505,0.0321343582598321,2.62748741473991,0.5,91.3121411543133
CBC_1028,CBC_1028_MSI_AV_v3_Vset3_Aset1_2023-07-21_14h00.16.706.csv,2,30,0,1,z,0,1,2,aud,B,63,1,0B,1B,0,1,z,1.63861250000082,0,1,1,1,1B,0B,B01,2.70805020110221,0.510481832947931,0.49473132458541,0.497358685751747,0.5,0.5,0.510413094024678,0.5,0.497358685751747,0.49473132458541,0.5,0.50526867541459,0.489518167052069,0.5,0.5,0.489518167052069,0.507882157207959,0.510413094024678,0.489586905975322,0.510413094024678,0.5,0.185938082933489,0.500956147662597,0.489586905975322,0.00258630574102147,0.5,0.00528262849650607,0.38710632964505,0.0321343582598321,2.62748741473991,0.5,91.3121411543133
CBC_1028,CBC_1028_MSI_AV_v3_Vset3_Aset1_2023-07-21_14h00.16.706.csv,2,31,2,0,z,0,1,0,aud,A,27,1,2A,0A,0,1,b,2.28163490000134,1,0,0,0,2A,0A,A20,3.13549421592915,0.510481832947931,0.49473132458541,0.497358685751747,0.5,0.5,0.5129993997657,0.5,0.497358685751747,0.49473132458541,0.5,0.50526867541459,0.489518167052069,0.5,0.5,0.489518167052069,0.507882157207959,0.486878305942977,0.513121694057023,0.497358685751747,0.510481832947931,0.117476197565534,0.500043525080536,-0.497358685751747,-0.00262736116633699,0.5,0.00528262849650607,0.38710632964505,0.0321343582598321,2.62748741473991,0.5,91.3121411543133
CBC_1028,CBC_1028_MSI_AV_v3_Vset3_Aset1_2023-07-21_14h00.16.706.csv,2,32,3,0,b,1,0,1,aud,D,9,1,3D,0D,1,0,b,2.74578180000117,1,0,1,1,3D,0D,D30,3.85014760171006,0.510481832947931,0.49473132458541,0.49473132458541,0.5,0.5,0.5129993997657,0.5,0.497358685751747,0.49473132458541,0.5,0.50526867541459,0.489518167052069,0.5,0.5,0.489518167052069,0.507882157207959,0.507882157207959,0.492117842792041,0.507882157207959,0.5,0.0843107585895332,0.500040490889593,0.492117842792041,0.00259967573997233,0.5,0.00528262849650607,0.38710632964505,0.0321343582598321,2.62748741473991,0.5,91.3121411543133
CBC_1028,CBC_1028_MSI_AV_v3_Vset3_Aset1_2023-07-21_14h00.16.706.csv,2,33,3,2,z,0,1,3,aud,C,63,1,3C,2C,0,1,z,2.97322700000041,0,1,1,1,2C,3C,C32,2.26176309847379,0.510481832947931,0.49473132458541,0.49473132458541,0.5,0.5,0.5129993997657,0.5,0.497358685751747,0.49473132458541,0.5,0.50526867541459,0.489518167052069,0.5,0.5,0.489518167052069,0.510481832947931,0.515747029819979,0.484252970180021,0.50526867541459,0.489518167052069,0.0717527310926916,0.500687548913701,0.49473132458541,0.00261348179336908,0.5,0.00528262849650607,0.38710632964505,0.0321343582598321,2.62748741473991,0.5,91.3121411543133
CBC_1028,CBC_1028_MSI_AV_v3_Vset3_Aset1_2023-07-21_14h00.16.706.csv,2,34,0,1,z,0,1,2,aud,B,63,1,0B,1B,0,1,b,1.66607780000049,1,0,0,0,0B,1B,B01,2.50552593699074,0.510481832947931,0.49473132458541,0.49473132458541,0.5,0.5,0.5129993997657,0.5,0.497358685751747,0.49473132458541,0.5,0.507882157207959,0.489518167052069,0.5,0.5,0.489518167052069,0.510481832947931,0.4870006002343,0.5129993997657,0.5,0.5129993997657,0.181744973172965,0.499197168686853,-0.5,-0.00264131424825303,0.5,0.00528262849650607,0.38710632964505,0.0321343582598321,2.62748741473991,0.5,91.3121411543133
CBC_1028,CBC_1028_MSI_AV_v3_Vset3_Aset1_2023-07-21_14h00.16.706.csv,2,35,0,1,b,1,0,0,aud,A,63,0,0A,1A,0,1,z,2.05122840000058,0,1,0,1,1A,0A,A01,2.30258509299405,0.510481832947931,0.49473132458541,0.49473132458541,0.5,0.497358685751747,0.5129993997657,0.5,0.497358685751747,0.49473132458541,0.5,0.507882157207959,0.489518167052069,0.5,0.5,0.489518167052069,0.510481832947931,0.484252970180021,0.515747029819979,0.49473132458541,0.510481832947931,0.138387717894916,0.499688270717166,0.50526867541459,0.00266914670313699,0.5,0.00528262849650607,0.38710632964505,0.0321343582598321,2.62748741473991,0.5,91.3121411543133
CBC_1028,CBC_1028_MSI_AV_v3_Vset3_Aset1_2023-07-21_14h00.16.706.csv,2,36,2,3,z,0,1,1,aud,D,63,1,2D,3D,0,1,b,1.76922010000089,1,0,0,0,2D,3D,D23,2.83321334405622,0.510481832947931,0.497400471288547,0.49473132458541,0.5,0.497358685751747,0.5129993997657,0.5,0.497358685751747,0.49473132458541,0.5,0.507882157207959,0.489518167052069,0.5,0.5,0.489518167052069,0.510481832947931,0.479045543070127,0.520954456929873,0.489518167052069,0.510481832947931,0.169123699506024,0.499627129414309,-0.489518167052069,-0.00258594261882668,0.5,0.00528262849650607,0.38710632964505,0.0321343582598321,2.62748741473991,0.5,91.3121411543133
CBC_1028,CBC_1028_MSI_AV_v3_Vset3_Aset1_2023-07-21_14h00.16.706.csv,2,37,1,2,b,1,0,2,aud,B,9,1,1B,2B,1,0,z,2.37565740000082,0,1,0,0,2B,1B,B12,3.95124371858143,0.510481832947931,0.497400471288547,0.49473132458541,0.5,0.497358685751747,0.5129993997657,0.5,0.497358685751747,0.49473132458541,0.5,0.507882157207959,0.489518167052069,0.5,0.5,0.486932224433242,0.510481832947931,0.4870006002343,0.5129993997657,0.5,0.5129993997657,0.109780140088518,0.499757181676225,-0.5,-0.00264131424825303,0.5,0.00528262849650607,0.38710632964505,0.0321343582598321,2.62748741473991,0.5,91.3121411543133
CBC_1028,CBC_1028_MSI_AV_v3_Vset3_Aset1_2023-07-21_14h00.16.706.csv,2,38,2,0,z,0,1,0,aud,A,27,1,2A,0A,0,1,b,0.614991800001008,1,0,0,0,2A,0A,A20,2.87167962488401,0.510481832947931,0.497400471288547,0.49473132458541,0.5,0.497358685751747,0.5129993997657,0.497358685751747,0.497358685751747,0.49473132458541,0.5,0.507882157207959,0.489518167052069,0.5,0.5,0.486932224433242,0.510481832947931,0.484252970180021,0.515747029819979,0.49473132458541,0.510481832947931,0.109120974185137,0.499605723856218,-0.49473132458541,-0.00261348179336908,0.5,0.00528262849650607,0.38710632964505,0.0321343582598321,2.62748741473991,0.5,91.3121411543133
CBC_1028,CBC_1028_MSI_AV_v3_Vset3_Aset1_2023-07-21_14h00.16.706.csv,2,39,2,3,b,1,0,3,aud,C,63,1,2C,3C,1,0,z,0.522172500000124,0,1,0,0,3C,2C,C23,3.29583686600433,0.510481832947931,0.497400471288547,0.492117842792041,0.5,0.497358685751747,0.5129993997657,0.497358685751747,0.497358685751747,0.49473132458541,0.5,0.507882157207959,0.489518167052069,0.5,0.5,0.486932224433242,0.510481832947931,0.48164207673058,0.51835792326942,0.489518167052069,0.507882157207959,0.0177354498900924,0.50002807726481,-0.489518167052069,-0.00258594261882668,0.5,0.00528262849650607,0.38710632964505,0.0321343582598321,2.62748741473991,0.5,91.3121411543133
CBC_1028,CBC_1028_MSI_AV_v3_Vset3_Aset1_2023-07-21_14h00.16.706.csv,2,40,1,3,z,0,1,1,aud,D,27,1,1D,3D,0,1,b,2.19401930000095,1,0,0,0,1D,3D,D13,3.31418600467253,0.510481832947931,0.497400471288547,0.492117842792041,0.5,0.497358685751747,0.5129993997657,0.497358685751747,0.497358685751747,0.49473132458541,0.5,0.507882157207959,0.486932224433242,0.5,0.5,0.486932224433242,0.510481832947931,0.489518167052069,0.510481832947931,0.5,0.510481832947931,0.124917823390047,0.499459158917983,-0.5,-0.00264131424825303,0.5,0.00528262849650607,0.38710632964505,0.0321343582598321,2.62748741473991,0.5,91.3121411543133
CBC_1028,CBC_1028_MSI_AV_v3_Vset3_Aset1_2023-07-21_14h00.16.706.csv,2,41,0,1,b,1,0,0,aud,A,63,1,0A,1A,1,0,b,1.81241200000113,1,0,1,1,0A,1A,A01,2.23359222150709,0.510481832947931,0.497400471288547,0.492117842792041,0.5,0.497358685751747,0.5129993997657,0.497358685751747,0.497358685751747,0.49473132458541,0.5,0.507882157207959,0.486932224433242,0.5,0.497358685751747,0.486932224433242,0.510481832947931,0.513079936060113,0.486920063939887,0.510481832947931,0.497400471288547,0.164374240822461,0.500700645562358,0.489518167052069,0.00258594261882668,0.5,0.00528262849650607,0.38710632964505,0.0321343582598321,2.62748741473991,0.5,91.3121411543133
CBC_1028,CBC_1028_MSI_AV_v3_Vset3_Aset1_2023-07-21_14h00.16.706.csv,2,42,0,2,z,0,1,3,aud,C,27,1,0C,2C,0,1,z,3.34347150000121,0,1,1,1,2C,0C,C02,3.3499040872746,0.513067775566758,0.497400471288547,0.492117842792041,0.5,0.497358685751747,0.5129993997657,0.497358685751747,0.497358685751747,0.49473132458541,0.5,0.507882157207959,0.486932224433242,0.5,0.497358685751747,0.486932224433242,0.510481832947931,0.513148648446494,0.486851351553506,0.507882157207959,0.49473132458541,0.0549918085807326,0.499992080892489,0.492117842792041,0.00259967573997233,0.5,0.00528262849650607,0.38710632964505,0.0321343582598321,2.62748741473991,0.5,91.3121411543133
CBC_1028,CBC_1028_MSI_AV_v3_Vset3_Aset1_2023-07-21_14h00.16.706.csv,2,43,3,2,b,1,0,1,aud,D,63,1,3D,2D,1,0,b,1.00922940000055,1,0,1,1,3D,2D,D32,2.67414864942653,0.513067775566758,0.497400471288547,0.492117842792041,0.5,0.497358685751747,0.5129993997657,0.497358685751747,0.497358685751747,0.49473132458541,0.5,0.510481832947931,0.486932224433242,0.5,0.497358685751747,0.486932224433242,0.510481832947931,0.52353671282124,0.47646328717876,0.510481832947931,0.486932224433242,0.267283615192703,0.500927937329127,0.489518167052069,0.00258594261882668,0.5,0.00528262849650607,0.38710632964505,0.0321343582598321,2.62748741473991,0.5,91.3121411543133
CBC_1028,CBC_1028_MSI_AV_v3_Vset3_Aset1_2023-07-21_14h00.16.706.csv,2,44,1,0,b,1,0,2,aud,B,63,1,1B,0B,1,0,z,1.13421060000019,0,1,0,0,0B,1B,B10,2.97892515523761,0.513067775566758,0.497400471288547,0.492117842792041,0.5,0.497358685751747,0.5129993997657,0.497358685751747,0.497358685751747,0.49473132458541,0.5,0.510481832947931,0.486932224433242,0.5,0.497358685751747,0.486932224433242,0.513067775566758,0.484361433817993,0.515638566182007,0.497358685751747,0.5129993997657,0.255344194746935,0.499477555536139,-0.497358685751747,-0.00262736116633699,0.5,0.00528262849650607,0.38710632964505,0.0321343582598321,2.62748741473991,0.5,91.3121411543133
CBC_1028,CBC_1028_MSI_TV_v3_Vset1_Tset2_2023-07-21_14h15.28.088.csv,3,1,1,0,b,1,0,2,tac,B,63,1,1B,0B,1,0,b,1.92294290000063,1,0,1,1,1B,0B,B10,2.77258872223978,0.5,0.5,0.5,0.5,0.5,0.5,0.5,0.5,0.5,0.5,0.5,0.5,0.5,0.5,0.5,0.5,0.5,0.5,0.5,0.5,0.19924198172913,0.500151290485892,0.5,0.00595578884510006,0.5,0.0119115776902001,0.851034727597987,1.125,1.88173869360569,0.5,54.6721654457876
CBC_1028,CBC_1028_MSI_TV_v3_Vset1_Tset2_2023-07-21_14h15.28.088.csv,3,2,0,1,b,1,0,0,tac,A,63,1,0A,1A,1,0,b,1.35846889999993,1,0,1,1,0A,1A,A01,2.83321334405622,0.5,0.5,0.5,0.5,0.5,0.5059557888451,0.5,0.5,0.5,0.5,0.5,0.5,0.5,0.5,0.5,0.5,0.5,0.5,0.5,0.5,0.433562568664652,0.500827375289571,0.5,0.00595578884510006,0.5,0.0119115776902001,0.851034727597987,1.125,1.88173869360569,0.5,54.6721654457876
CBC_1028,CBC_1028_MSI_TV_v3_Vset1_Tset2_2023-07-21_14h15.28.088.csv,3,3,1,2,z,0,1,3,tac,C,9,1,1C,2C,0,1,z,1.92731390000063,0,1,1,1,2C,1C,C12,2.89037175789616,0.5059557888451,0.5,0.5,0.5,0.5,0.5059557888451,0.5,0.5,0.5,0.5,0.5,0.5,0.5,0.5,0.5,0.5,0.5,0.5,0.5,0.5,0.197767275503812,0.499482376373754,0.5,0.00595578884510006,0.5,0.0119115776902001,0.851034727597987,1.125,1.88173869360569,0.5,54.6721654457876
CBC_1028,CBC_1028_MSI_TV_v3_Vset1_Tset2_2023-07-21_14h15.28.088.csv,3,4,1,0,z,0,1,0,tac,A,63,1,1A,0A,0,1,b,1.45173259999956,1,0,0,0,1A,0A,A10,2.94443897916644,0.5059557888451,0.5,0.5,0.5,0.5,0.5059557888451,0.5,0.5,0.5,0.5,0.5059557888451,0.5,0.5,0.5,0.5,0.5,0.4940442111549,0.5059557888451,0.5,0.5059557888451,0.377927719275422,0.493765438524207,-0.5,-0.00595578884510006,0.5,0.0119115776902001,0.851034727597987,1.125,1.88173869360569,0.5,54.6721654457876
CBC_1028,CBC_1028_MSI_TV_v3_Vset1_Tset2_2023-07-21_14h15.28.088.csv,3,5,3,1,b,1,0,1,tac,D,27,1,3D,1D,1,0,b,1.47323810000034,1,0,1,1,3D,1D,D31,2.99573227355399,0.5059557888451,0.4940442111549,0.5,0.5,0.5,0.5059557888451,0.5,0.5,0.5,0.5,0.5059557888451,0.5,0.5,0.5,0.5,0.5,0.5,0.5,0.5,0.5,0.3718394438635,0.500207833895876,0.5,0.00595578884510006,0.5,0.0119115776902001,0.851034727597987,1.125,1.88173869360569,0.5,54.6721654457876
CBC_1028,CBC_1028_MSI_TV_v3_Vset1_Tset2_2023-07-21_14h15.28.088.csv,3,6,0,1,z,0,1,2,tac,B,63,1,0B,1B,0,1,b,1.75322730000062,1,0,0,0,0B,1B,B01,3.04452243772342,0.5059557888451,0.4940442111549,0.5,0.5,0.5,0.5059557888451,0.5,0.5,0.5,0.5,0.5059557888451,0.5,0.5,0.5,0.5,0.5059557888451,0.4940442111549,0.5059557888451,0.5,0.5059557888451,0.249118598532904,0.493689864701836,-0.5,-0.00595578884510006,0.5,0.0119115776902001,0.851034727597987,1.125,1.88173869360569,0.5,54.6721654457876
CBC_1028,CBC_1028_MSI_TV_v3_Vset1_Tset2_2023-07-21_14h15.28.088.csv,3,7,2,3,b,1,0,3,tac,C,63,1,2C,3C,1,0,z,2.2432058000004,0,1,0,0,3C,2C,C23,3.09104245335832,0.5059557888451,0.4940442111549,0.5,0.5,0.4940442111549,0.5059557888451,0.5,0.5,0.5,0.5,0.5059557888451,0.5,0.5,0.5,0.5,0.5059557888451,0.4940442111549,0.5059557888451,0.5,0.5059557888451,0.125969755369233,0.494123187488176,-0.5,-0.00595578884510006,0.5,0.0119115776902001,0.851034727597987,1.125,1.88173869360569,0.5,54.6721654457876
CBC_1028,CBC_1028_MSI_TV_v3_Vset1_Tset2_2023-07-21_14h15.28.088.csv,3,8,2,0,z,0,1,0,tac,A,27,1,2A,0A,0,1,b,1.59663760000058,1,0,0,0,2A,0A,A20,3.13549421592915,0.5059557888451,0.4940442111549,0.5,0.5,0.4940442111549,0.5059557888451,0.5,0.5,0.5,0.5,0.5059557888451,0.4940442111549,0.5,0.5,0.5,0.5059557888451,0.4940442111549,0.5059557888451,0.5,0.5059557888451,0.30979752718042,0.493864862271741,-0.5,-0.00595578884510006,0.5,0.0119115776902001,0.851034727597987,1.125,1.88173869360569,0.5,54.6721654457876
CBC_1028,CBC_1028_MSI_TV_v3_Vset1_Tset2_2023-07-21_14h15.28.088.csv,3,9,3,2,b,1,0,1,tac,D,63,1,3D,2D,1,0,b,1.8971945000003,1,0,1,1,3D,2D,D32,3.17805383034795,0.5059557888451,0.4940442111549,0.4940442111549,0.5,0.4940442111549,0.5059557888451,0.5,0.5,0.5,0.5,0.5059557888451,0.4940442111549,0.5,0.5,0.5,0.5059557888451,0.5059557888451,0.4940442111549,0.5059557888451,0.5,0.209260940221049,0.506797614046456,0.4940442111549,0.00588484600356523,0.5,0.0119115776902001,0.851034727597987,1.125,1.88173869360569,0.5,54.6721654457876
CBC_1028,CBC_1028_MSI_TV_v3_Vset1_Tset2_2023-07-21_14h15.28.088.csv,3,10,3,1,z,0,1,2,tac,B,27,1,3B,1B,0,1,z,2.23917970000093,0,1,1,1,1B,3B,B31,3.2188758248682,0.5059557888451,0.4940442111549,0.4940442111549,0.5,0.4940442111549,0.5059557888451,0.5,0.5,0.5,0.5,0.5059557888451,0.4940442111549,0.5,0.5,0.5,0.511840634848665,0.5059557888451,0.4940442111549,0.5059557888451,0.5,0.129878196901188,0.506608864236439,0.4940442111549,0.00588484600356523,0.5,0.0119115776902001,0.851034727597987,1.125,1.88173869360569,0.5,54.6721654457876
CBC_1028,CBC_1028_MSI_TV_v3_Vset1_Tset2_2023-07-21_14h15.28.088.csv,3,11,3,2,z,0,1,3,tac,C,63,1,3C,2C,0,1,b,4.22521410000081,1,0,0,0,3C,2C,C32,3.25809653802148,0.5059557888451,0.4940442111549,0.4940442111549,0.5,0.4940442111549,0.511840634848665,0.5,0.5,0.5,0.5,0.5059557888451,0.4940442111549,0.5,0.5,0.5,0.511840634848665,0.488090112152372,0.511909887847628,0.4940442111549,0.5059557888451,0.00784182643022879,0.48748756769068,-0.4940442111549,-0.00588484600356523,0.5,0.0119115776902001,0.851034727597987,1.125,1.88173869360569,0.5,54.6721654457876
CBC_1028,CBC_1028_MSI_TV_v3_Vset1_Tset2_2023-07-21_14h15.28.088.csv,3,12,1,3,b,1,0,2,tac,B,27,1,1B,3B,1,0,z,1.34962180000002,0,1,0,0,3B,1B,B13,3.29583686600433,0.5059557888451,0.4940442111549,0.4940442111549,0.5,0.4940442111549,0.511840634848665,0.5,0.5,0.5,0.5,0.5059557888451,0.488159365151335,0.5,0.5,0.5,0.511840634848665,0.488159365151335,0.511840634848665,0.5,0.511840634848665,0.42734559882796,0.488071955942952,-0.5,-0.00595578884510006,0.5,0.0119115776902001,0.851034727597987,1.125,1.88173869360569,0.5,54.6721654457876
CBC_1028,CBC_1028_MSI_TV_v3_Vset1_Tset2_2023-07-21_14h15.28.088.csv,3,13,3,2,z,0,1,3,tac,C,63,1,3C,2C,0,1,z,2.42478380000102,0,1,1,1,2C,3C,C32,2.63905732961526,0.5059557888451,0.4940442111549,0.4940442111549,0.5,0.4940442111549,0.511840634848665,0.5,0.4940442111549,0.5,0.5,0.5059557888451,0.488159365151335,0.5,0.5,0.5,0.511840634848665,0.517791405071382,0.482208594928618,0.5059557888451,0.488159365151335,0.102479518643602,0.517973291493742,0.4940442111549,0.00588484600356523,0.5,0.0119115776902001,0.851034727597987,1.125,1.88173869360569,0.5,54.6721654457876
CBC_1028,CBC_1028_MSI_TV_v3_Vset1_Tset2_2023-07-21_14h15.28.088.csv,3,14,3,2,b,1,0,1,tac,D,63,1,3D,2D,1,0,b,1.24319940000078,1,0,1,1,3D,2D,D32,2.67414864942653,0.5059557888451,0.4940442111549,0.4940442111549,0.5,0.4940442111549,0.511840634848665,0.5,0.4940442111549,0.5,0.5,0.511840634848665,0.488159365151335,0.5,0.5,0.5,0.511840634848665,0.511840634848665,0.488159365151335,0.511840634848665,0.5,0.506396986990698,0.512242449057962,0.488159365151335,0.0058147482031989,0.5,0.0119115776902001,0.851034727597987,1.125,1.88173869360569,0.5,54.6721654457876
CBC_1028,CBC_1028_MSI_TV_v3_Vset1_Tset2_2023-07-21_14h15.28.088.csv,3,15,0,3,b,1,0,0,tac,A,9,1,0A,3A,1,0,b,1.29483619999974,1,0,1,1,0A,3A,A03,3.40119738166216,0.5059557888451,0.4940442111549,0.4940442111549,0.5,0.4940442111549,0.511840634848665,0.5,0.4940442111549,0.5,0.5,0.511840634848665,0.488159365151335,0.5,0.5,0.5,0.517655383051864,0.5059557888451,0.4940442111549,0.5059557888451,0.5,0.473732817635585,0.506305490851168,0.4940442111549,0.00588484600356523,0.5,0.0119115776902001,0.851034727597987,1.125,1.88173869360569,0.5,54.6721654457876
CBC_1028,CBC_1028_MSI_TV_v3_Vset1_Tset2_2023-07-21_14h15.28.088.csv,3,16,0,1,z,0,1,2,tac,B,63,0,0B,1B,1,0,b,4.91629829999965,1,0,0,1,0B,1B,B01,2.7408400239252,0.511840634848665,0.4940442111549,0.4940442111549,0.5,0.4940442111549,0.511840634848665,0.5,0.4940442111549,0.5,0.5,0.511840634848665,0.488159365151335,0.5,0.5,0.5,0.517655383051864,0.482208594928618,0.517791405071382,0.4940442111549,0.511840634848665,0.00295039675422108,0.481299887114379,0.5059557888451,0.0060267316866349,0.5,0.0119115776902001,0.851034727597987,1.125,1.88173869360569,0.5,54.6721654457876
CBC_1028,CBC_1028_MSI_TV_v3_Vset1_Tset2_2023-07-21_14h15.28.088.csv,3,17,2,3,z,0,1,1,tac,D,63,1,2D,3D,0,1,z,2.05749330000071,0,1,1,1,3D,2D,D23,3.46573590279973,0.511840634848665,0.4940442111549,0.4940442111549,0.5,0.500070942841535,0.511840634848665,0.5,0.4940442111549,0.5,0.5,0.511840634848665,0.488159365151335,0.5,0.5,0.5,0.517655383051864,0.517655383051864,0.482344616948136,0.517655383051864,0.5,0.171092796957601,0.518187450761282,0.482344616948136,0.00574548537822754,0.5,0.0119115776902001,0.851034727597987,1.125,1.88173869360569,0.5,54.6721654457876
CBC_1028,CBC_1028_MSI_TV_v3_Vset1_Tset2_2023-07-21_14h15.28.088.csv,3,18,0,2,z,0,1,3,tac,C,27,1,0C,2C,0,1,z,1.89557450000029,0,1,1,1,2C,0C,C02,3.49650756146648,0.511840634848665,0.4940442111549,0.4940442111549,0.5,0.500070942841535,0.511840634848665,0.5,0.4940442111549,0.5,0.5,0.511840634848665,0.488159365151335,0.5,0.5,0.5,0.523400868430092,0.511840634848665,0.488159365151335,0.511840634848665,0.5,0.211808296890371,0.511827530933652,0.488159365151335,0.0058147482031989,0.5,0.0119115776902001,0.851034727597987,1.125,1.88173869360569,0.5,54.6721654457876
CBC_1028,CBC_1028_MSI_TV_v3_Vset1_Tset2_2023-07-21_14h15.28.088.csv,3,19,0,1,b,1,0,0,tac,A,63,1,0A,1A,1,0,b,1.91474780000044,1,0,1,1,0A,1A,A01,2.83321334405622,0.511840634848665,0.4940442111549,0.4940442111549,0.5,0.500070942841535,0.511840634848665,0.5,0.4940442111549,0.5,0.5,0.517655383051864,0.488159365151335,0.5,0.5,0.5,0.523400868430092,0.517791405071382,0.482208594928618,0.511840634848665,0.4940442111549,0.208889644072295,0.518487314550316,0.488159365151335,0.0058147482031989,0.5,0.0119115776902001,0.851034727597987,1.125,1.88173869360569,0.5,54.6721654457876
CBC_1028,CBC_1028_MSI_TV_v3_Vset1_Tset2_2023-07-21_14h15.28.088.csv,3,20,1,0,b,1,0,2,tac,B,63,1,1B,0B,1,0,b,1.797987500001,1,0,1,1,1B,0B,B10,2.86220088092947,0.517655383051864,0.4940442111549,0.4940442111549,0.5,0.500070942841535,0.511840634848665,0.5,0.4940442111549,0.5,0.5,0.517655383051864,0.488159365151335,0.5,0.5,0.5,0.523400868430092,0.511769731553818,0.488230268446182,0.511840634848665,0.500070942841535,0.24265294604419,0.511812232029459,0.488159365151335,0.0058147482031989,0.5,0.0119115776902001,0.851034727597987,1.125,1.88173869360569,0.5,54.6721654457876
CBC_1028,CBC_1028_MSI_TV_v3_Vset1_Tset2_2023-07-21_14h15.28.088.csv,3,21,1,3,z,0,1,1,tac,D,27,1,1D,3D,0,1,z,1.1528287000001,0,1,1,1,3D,1D,D13,3.58351893845611,0.517655383051864,0.4940442111549,0.4940442111549,0.5,0.500070942841535,0.517655383051864,0.5,0.4940442111549,0.5,0.5,0.517655383051864,0.488159365151335,0.5,0.5,0.5,0.523400868430092,0.523400868430092,0.476599131569908,0.523400868430092,0.5,0.548864715800299,0.525000510640677,0.476599131569908,0.00567704758277687,0.5,0.0119115776902001,0.851034727597987,1.125,1.88173869360569,0.5,54.6721654457876
CBC_1028,CBC_1028_MSI_TV_v3_Vset1_Tset2_2023-07-21_14h15.28.088.csv,3,22,3,2,z,0,1,3,tac,C,63,1,3C,2C,0,1,b,2.29411110000092,1,0,0,0,3C,2C,C32,2.51230562397611,0.517655383051864,0.4940442111549,0.4940442111549,0.5,0.500070942841535,0.517655383051864,0.5,0.4940442111549,0.5,0.5,0.517655383051864,0.488159365151335,0.5,0.5,0.5,0.529077916012869,0.470528626173528,0.529471373826472,0.488159365151335,0.517655383051864,0.111472067172226,0.469921242499972,-0.488159365151335,-0.0058147482031989,0.5,0.0119115776902001,0.851034727597987,1.125,1.88173869360569,0.5,54.6721654457876
CBC_1028,CBC_1028_MSI_TV_v3_Vset1_Tset2_2023-07-21_14h15.28.088.csv,3,23,0,1,b,1,0,0,tac,A,63,1,0A,1A,1,0,z,1.26306070000101,0,1,0,0,1A,0A,A01,2.53897387105828,0.517655383051864,0.4940442111549,0.4940442111549,0.5,0.500070942841535,0.517655383051864,0.5,0.4940442111549,0.5,0.5,0.517655383051864,0.482344616948136,0.5,0.5,0.5,0.529077916012869,0.476398754950349,0.523601245049651,0.4940442111549,0.517655383051864,0.460831020576946,0.475287320897169,-0.4940442111549,-0.00588484600356523,0.5,0.0119115776902001,0.851034727597987,1.125,1.88173869360569,0.5,54.6721654457876
CBC_1028,CBC_1028_MSI_TV_v3_Vset1_Tset2_2023-07-21_14h15.28.088.csv,3,24,2,3,z,0,1,1,tac,D,63,1,2D,3D,0,1,b,1.40550420000091,1,0,0,0,2D,3D,D23,2.9704144655697,0.517655383051864,0.488159365151335,0.4940442111549,0.5,0.500070942841535,0.517655383051864,0.5,0.4940442111549,0.5,0.5,0.517655383051864,0.482344616948136,0.5,0.5,0.5,0.529077916012869,0.470922083987131,0.529077916012869,0.5,0.529077916012869,0.382230235173022,0.469080407123601,-0.5,-0.00595578884510006,0.5,0.0119115776902001,0.851034727597987,1.125,1.88173869360569,0.5,54.6721654457876
CBC_1028,CBC_1028_MSI_TV_v3_Vset1_Tset2_2023-07-21_14h15.28.088.csv,3,25,2,0,b,1,0,3,tac,C,27,1,2C,0C,1,0,z,2.65207809999993,0,1,0,0,0C,2C,C20,3.68887945411394,0.517655383051864,0.488159365151335,0.4940442111549,0.5,0.500070942841535,0.517655383051864,0.5,0.4940442111549,0.5,0.5,0.517655383051864,0.482344616948136,0.5,0.5,0.4940442111549,0.529077916012869,0.482344616948136,0.517655383051864,0.5,0.517655383051864,0.0694219646191803,0.481746410167074,-0.5,-0.00595578884510006,0.5,0.0119115776902001,0.851034727597987,1.125,1.88173869360569,0.5,54.6721654457876
CBC_1028,CBC_1028_MSI_TV_v3_Vset1_Tset2_2023-07-21_14h15.28.088.csv,3,26,0,1,b,1,0,0,tac,A,63,1,0A,1A,1,0,b,1.0208805000002,1,0,1,1,0A,1A,A01,2.32727770558442,0.517655383051864,0.488159365151335,0.4940442111549,0.5,0.500070942841535,0.517655383051864,0.5,0.4940442111549,0.4940442111549,0.5,0.517655383051864,0.482344616948136,0.5,0.5,0.4940442111549,0.529077916012869,0.529471373826472,0.470528626173528,0.517655383051864,0.488159365151335,0.420994581320897,0.530871224225272,0.482344616948136,0.00574548537822754,0.5,0.0119115776902001,0.851034727597987,1.125,1.88173869360569,0.5,54.6721654457876
CBC_1028,CBC_1028_MSI_TV_v3_Vset1_Tset2_2023-07-21_14h15.28.088.csv,3,27,1,3,b,1,0,2,tac,B,27,1,1B,3B,1,0,z,2.00847310000063,0,1,0,0,3B,1B,B13,3.04452243772342,0.523400868430092,0.488159365151335,0.4940442111549,0.5,0.500070942841535,0.517655383051864,0.5,0.4940442111549,0.4940442111549,0.5,0.517655383051864,0.482344616948136,0.5,0.5,0.4940442111549,0.529077916012869,0.476398754950349,0.523601245049651,0.4940442111549,0.517655383051864,0.168103051547813,0.475573894699761,-0.4940442111549,-0.00588484600356523,0.5,0.0119115776902001,0.851034727597987,1.125,1.88173869360569,0.5,54.6721654457876
CBC_1028,CBC_1028_MSI_TV_v3_Vset1_Tset2_2023-07-21_14h15.28.088.csv,3,28,3,2,z,0,1,3,tac,C,63,1,3C,2C,0,1,b,2.10258500000054,1,0,0,0,3C,2C,C32,2.37490575457367,0.523400868430092,0.488159365151335,0.4940442111549,0.5,0.500070942841535,0.517655383051864,0.5,0.488159365151335,0.4940442111549,0.5,0.517655383051864,0.482344616948136,0.5,0.5,0.4940442111549,0.529077916012869,0.464733206305143,0.535266793694857,0.482344616948136,0.517655383051864,0.143593484027615,0.463508702522768,-0.482344616948136,-0.00574548537822754,0.5,0.0119115776902001,0.851034727597987,1.125,1.88173869360569,0.5,54.6721654457876
CBC_1028,CBC_1028_MSI_TV_v3_Vset1_Tset2_2023-07-21_14h15.28.088.csv,3,29,3,2,b,1,0,1,tac,D,63,1,3D,2D,1,0,z,1.90432820000024,0,1,0,0,2D,3D,D32,2.68557734525015,0.523400868430092,0.488159365151335,0.4940442111549,0.5,0.500070942841535,0.517655383051864,0.5,0.488159365151335,0.4940442111549,0.5,0.517655383051864,0.476599131569908,0.5,0.5,0.4940442111549,0.529077916012869,0.464990547160171,0.535009452839829,0.4940442111549,0.529077916012869,0.189184150856027,0.462986675876366,-0.4940442111549,-0.00588484600356523,0.5,0.0119115776902001,0.851034727597987,1.125,1.88173869360569,0.5,54.6721654457876
CBC_1028,CBC_1028_MSI_TV_v3_Vset1_Tset2_2023-07-21_14h15.28.088.csv,3,30,0,1,z,0,1,2,tac,B,63,1,0B,1B,0,1,b,2.00790159999997,1,0,0,0,0B,1B,B01,2.70805020110221,0.523400868430092,0.488159365151335,0.4940442111549,0.5,0.500070942841535,0.517655383051864,0.5,0.488159365151335,0.4940442111549,0.5,0.517655383051864,0.476599131569908,0.5,0.5,0.488159365151335,0.529077916012869,0.482415471689563,0.517584528310437,0.500070942841535,0.517655383051864,0.170334743061752,0.481428761457349,-0.500070942841535,-0.00595663388626857,0.5,0.0119115776902001,0.851034727597987,1.125,1.88173869360569,0.5,54.6721654457876
CBC_1028,CBC_1028_MSI_TV_v3_Vset1_Tset2_2023-07-21_14h15.28.088.csv,3,31,2,0,z,0,1,0,tac,A,27,1,2A,0A,0,1,z,1.14332700000068,0,1,1,1,0A,2A,A20,3.13549421592915,0.523400868430092,0.488159365151335,0.4940442111549,0.5,0.494114308955266,0.517655383051864,0.5,0.488159365151335,0.4940442111549,0.5,0.517655383051864,0.476599131569908,0.5,0.5,0.488159365151335,0.529077916012869,0.529340300570356,0.470659699429644,0.523400868430092,0.4940442111549,0.555870786652518,0.531274341254685,0.476599131569908,0.00567704758277687,0.5,0.0119115776902001,0.851034727597987,1.125,1.88173869360569,0.5,54.6721654457876
CBC_1028,CBC_1028_MSI_TV_v3_Vset1_Tset2_2023-07-21_14h15.28.088.csv,3,32,3,0,b,1,0,1,tac,D,9,1,3D,0D,1,0,z,1.14219969999976,0,1,0,0,0D,3D,D30,3.85014760171006,0.529077916012869,0.488159365151335,0.4940442111549,0.5,0.494114308955266,0.517655383051864,0.5,0.488159365151335,0.4940442111549,0.5,0.517655383051864,0.476599131569908,0.5,0.5,0.488159365151335,0.529077916012869,0.470922083987131,0.529077916012869,0.5,0.529077916012869,0.491317054942498,0.469642479263365,-0.5,-0.00595578884510006,0.5,0.0119115776902001,0.851034727597987,1.125,1.88173869360569,0.5,54.6721654457876
CBC_1028,CBC_1028_MSI_TV_v3_Vset1_Tset2_2023-07-21_14h15.28.088.csv,3,33,3,2,z,0,1,3,tac,C,63,1,3C,2C,0,1,b,1.62345399999958,1,0,0,0,3C,2C,C32,2.26176309847379,0.529077916012869,0.488159365151335,0.4940442111549,0.5,0.494114308955266,0.517655383051864,0.5,0.488159365151335,0.4940442111549,0.5,0.517655383051864,0.476599131569908,0.4940442111549,0.5,0.488159365151335,0.529077916012869,0.45901148634817,0.54098851365183,0.476599131569908,0.517655383051864,0.275937011778741,0.456334460911536,-0.476599131569908,-0.00567704758277687,0.5,0.0119115776902001,0.851034727597987,1.125,1.88173869360569,0.5,54.6721654457876
CBC_1028,CBC_1028_MSI_TV_v3_Vset1_Tset2_2023-07-21_14h15.28.088.csv,3,34,0,1,z,0,1,2,tac,B,63,1,0B,1B,0,1,z,1.88187900000048,0,1,1,1,1B,0B,B01,2.50552593699074,0.529077916012869,0.488159365151335,0.4940442111549,0.5,0.494114308955266,0.517655383051864,0.5,0.488159365151335,0.4940442111549,0.5,0.517655383051864,0.470922083987131,0.4940442111549,0.5,0.488159365151335,0.529077916012869,0.523531293161179,0.476468706838821,0.517655383051864,0.494114308955266,0.221444117814535,0.525080460068197,0.482344616948136,0.00574548537822754,0.5,0.0119115776902001,0.851034727597987,1.125,1.88173869360569,0.5,54.6721654457876
CBC_1028,CBC_1028_MSI_TV_v3_Vset1_Tset2_2023-07-21_14h15.28.088.csv,3,35,0,1,b,1,0,0,tac,A,63,0,0A,1A,0,1,b,1.41226740000002,1,0,1,0,0A,1A,A01,2.30258509299405,0.529077916012869,0.488159365151335,0.4940442111549,0.5,0.494114308955266,0.523400868430092,0.5,0.488159365151335,0.4940442111549,0.5,0.517655383051864,0.470922083987131,0.4940442111549,0.5,0.488159365151335,0.529077916012869,0.540862275175056,0.459137724824944,0.529077916012869,0.488159365151335,0.438713630702804,0.542905779375152,-0.529077916012869,-0.00630215270075646,0.5,0.0119115776902001,0.851034727597987,1.125,1.88173869360569,0.5,54.6721654457876
CBC_1028,CBC_1028_MSI_TV_v3_Vset1_Tset2_2023-07-21_14h15.28.088.csv,3,36,2,3,z,0,1,1,tac,D,63,1,2D,3D,0,1,z,1.04243610000049,0,1,1,1,3D,2D,D23,2.83321334405622,0.522775763312112,0.488159365151335,0.4940442111549,0.5,0.494114308955266,0.523400868430092,0.5,0.488159365151335,0.4940442111549,0.5,0.517655383051864,0.470922083987131,0.4940442111549,0.5,0.488159365151335,0.529077916012869,0.540862275175056,0.459137724824944,0.529077916012869,0.488159365151335,0.483748282933191,0.543366895970178,0.470922083987131,0.00560942498944366,0.5,0.0119115776902001,0.851034727597987,1.125,1.88173869360569,0.5,54.6721654457876
CBC_1028,CBC_1028_MSI_TV_v3_Vset1_Tset2_2023-07-21_14h15.28.088.csv,3,37,1,2,b,1,0,2,tac,B,9,1,1B,2B,NaN,NaN,None,NaN,NaN,NaN,NaN,NaN,,,B12,3.95124371858143,0.522775763312112,0.488159365151335,0.4940442111549,0.5,0.494114308955266,0.523400868430092,0.5,0.488159365151335,0.4940442111549,0.5,0.517655383051864,0.470922083987131,0.4940442111549,0.5,0.488159365151335,0.534687341002312,0,0,0,0,NaN,0,0,0,0.5,0.0119115776902001,0.851034727597987,1.125,1.88173869360569,0.5,54.6721654457876
CBC_1028,CBC_1028_MSI_TV_v3_Vset1_Tset2_2023-07-21_14h15.28.088.csv,3,38,2,0,z,0,1,0,tac,A,27,1,2A,0A,0,1,b,0.955764000000272,1,0,0,0,2A,0A,A20,2.87167962488401,0.522775763312112,0.488159365151335,0.4940442111549,0.5,0.494114308955266,0.523400868430092,0.5,0.488159365151335,0.4940442111549,0.5,0.517655383051864,0.470922083987131,0.4940442111549,0.5,0.488159365151335,0.534687341002312,0.471284028857315,0.528715971142685,0.4940442111549,0.522775763312112,0.152022660988989,0.469103245929883,-0.4940442111549,-0.00588484600356523,0.5,0.0119115776902001,0.851034727597987,1.125,1.88173869360569,0.5,54.6721654457876
CBC_1028,CBC_1028_MSI_TV_v3_Vset1_Tset2_2023-07-21_14h15.28.088.csv,3,39,2,3,b,1,0,3,tac,C,63,1,2C,3C,1,0,b,2.83378350000021,1,0,1,1,2C,3C,C23,3.29583686600433,0.522775763312112,0.488159365151335,0.488159365151335,0.5,0.494114308955266,0.523400868430092,0.5,0.488159365151335,0.4940442111549,0.5,0.517655383051864,0.470922083987131,0.4940442111549,0.5,0.488159365151335,0.534687341002312,0.546637527643333,0.453362472356667,0.517655383051864,0.470922083987131,0.0611099570565636,0.549211364946091,0.482344616948136,0.00574548537822754,0.5,0.0119115776902001,0.851034727597987,1.125,1.88173869360569,0.5,54.6721654457876
CBC_1028,CBC_1028_MSI_TV_v3_Vset1_Tset2_2023-07-21_14h15.28.088.csv,3,40,1,3,z,0,1,1,tac,D,27,1,1D,3D,0,1,z,2.03412840000055,0,1,1,1,3D,1D,D13,3.31418600467253,0.522775763312112,0.488159365151335,0.488159365151335,0.5,0.494114308955266,0.523400868430092,0.5,0.488159365151335,0.4940442111549,0.5,0.523400868430092,0.470922083987131,0.4940442111549,0.5,0.488159365151335,0.534687341002312,0.534687341002312,0.465312658997688,0.534687341002312,0.5,0.182760119135217,0.536136135749346,0.465312658997688,0.00554260788788456,0.5,0.0119115776902001,0.851034727597987,1.125,1.88173869360569,0.5,54.6721654457876
CBC_1028,CBC_1028_MSI_TV_v3_Vset1_Tset2_2023-07-21_14h15.28.088.csv,3,41,0,1,b,1,0,0,tac,A,63,1,0A,1A,NaN,NaN,None,NaN,NaN,NaN,NaN,NaN,,,A01,2.23359222150709,0.522775763312112,0.488159365151335,0.488159365151335,0.5,0.494114308955266,0.523400868430092,0.5,0.488159365151335,0.4940442111549,0.5,0.523400868430092,0.470922083987131,0.4940442111549,0.5,0.488159365151335,0.540229948890197,0,0,0,0,NaN,0,0,0,0.5,0.0119115776902001,0.851034727597987,1.125,1.88173869360569,0.5,54.6721654457876
CBC_1028,CBC_1028_MSI_TV_v3_Vset1_Tset2_2023-07-21_14h15.28.088.csv,3,42,0,2,z,0,1,3,tac,C,27,1,0C,2C,NaN,NaN,None,NaN,NaN,NaN,NaN,NaN,,,C02,3.3499040872746,0.522775763312112,0.488159365151335,0.488159365151335,0.5,0.494114308955266,0.523400868430092,0.5,0.488159365151335,0.4940442111549,0.5,0.523400868430092,0.470922083987131,0.4940442111549,0.5,0.488159365151335,0.540229948890197,0,0,0,0,NaN,0,0,0,0.5,0.0119115776902001,0.851034727597987,1.125,1.88173869360569,0.5,54.6721654457876
CBC_1028,CBC_1028_MSI_TV_v3_Vset1_Tset2_2023-07-21_14h15.28.088.csv,3,43,3,2,b,1,0,1,tac,D,63,1,3D,2D,1,0,b,1.80608450000091,1,0,1,1,3D,2D,D32,2.67414864942653,0.522775763312112,0.488159365151335,0.488159365151335,0.5,0.494114308955266,0.523400868430092,0.5,0.488159365151335,0.4940442111549,0.5,0.523400868430092,0.470922083987131,0.4940442111549,0.5,0.488159365151335,0.540229948890197,0.551971557520913,0.448028442479087,0.540229948890197,0.488159365151335,0.260265651363476,0.555455453254024,0.459770051109803,0.0054765866834217,0.5,0.0119115776902001,0.851034727597987,1.125,1.88173869360569,0.5,54.6721654457876
CBC_1028,CBC_1028_MSI_TV_v3_Vset1_Tset2_2023-07-21_14h15.28.088.csv,3,44,1,0,b,1,0,2,tac,B,63,1,1B,0B,1,0,z,1.40827960000024,0,1,0,0,0B,1B,B10,2.97892515523761,0.522775763312112,0.488159365151335,0.488159365151335,0.5,0.494114308955266,0.523400868430092,0.5,0.488159365151335,0.4940442111549,0.5,0.523400868430092,0.470922083987131,0.4940442111549,0.5,0.488159365151335,0.545706535573618,0.470729566225538,0.529270433774462,0.494114308955266,0.523400868430092,0.380634292254096,0.468840641167601,-0.494114308955266,-0.0058856809789602,0.5,0.0119115776902001,0.851034727597987,1.125,1.88173869360569,0.5,54.6721654457876
