ID,session,trialNr,mod2Stim,visStimLeft,visStimRight,correctKey,frequency,rewardAccurate,probFB,stimPairLeft,stimPairRight,leftCorrect,rightCorrect,pCorrectLeft,pCorrectRight,triplet,rt,surprise,0A belief,1A belief,2A belief,3A belief,0B belief,1B belief,2B belief,3B belief,0C belief,1C belief,2C belief,3C belief,0D belief,1D belief,2D belief,3D belief,reactionTime,choice,choiceLeft,choiceRight,chosenPair,otherPair,beliefPair,beliefOtherPair,beliefPairNorm,beliefOtherPairNorm,choiceAccurate,reward,rewardPE,update2,sim_CBCsimpleRW_CBCdriftDiffusionLR_startBelief,sim_CBCsimpleRW_CBCdriftDiffusionLR_alpha1,sim_CBCsimpleRW_CBCdriftDiffusionLR_nonDecisionTime,sim_CBCsimpleRW_CBCdriftDiffusionLR_weight,sim_CBCsimpleRW_CBCdriftDiffusionLR_startingBoundary,sim_CBCsimpleRW_CBCdriftDiffusionLR_startingPoint,lik,corrLik,fitCBCsimpleRW_CBCdriftDiffusionLR_startBelief,fitCBCsimpleRW_CBCdriftDiffusionLR_alpha1,fitCBCsimpleRW_CBCdriftDiffusionLR_nonDecisionTime,fitCBCsimpleRW_CBCdriftDiffusionLR_weight,fitCBCsimpleRW_CBCdriftDiffusionLR_startingBoundary,fitCBCsimpleRW_CBCdriftDiffusionLR_startingPoint,fit_CBCsimpleRW_CBCdriftDiffusionLR_NLL
105,1,1,C,2,0,a,27,1,1,2C,0C,1,0,1,0,C20,1.15750898940645,2.77258872223978,0.5,0.5,0.5,0.5,0.5,0.5,0.5,0.5,0.5,0.5,0.5,0.5,0.5,0.5,0.5,0.5,3.27766263516345,1,1,0,2C,0C,0.5,0.5,0.5,0.5,1,1,0.5,0.26363438040291,0.5,0.347737211648981,1.09666263516345,9.38645008247693,4.76950384921038,0.5,0.0739802880516766,0.500182303978755,0.5,0.527268760805821,1.09296566483471,8.44077858719979,4.99736744937304,0.5,14.7078729845844
105,1,2,D,3,2,a,63,1,1,3D,2D,1,0,1,0,D32,2.28280555526178,2.83321334405622,0.5,0.5,0.5,0.5,0.5,0.5,0.5,0.5,0.5,0.5,0.76363438040291,0.5,0.5,0.5,0.5,0.5,6.88366263516345,1,1,0,3D,2D,0.5,0.5,0.5,0.5,1,1,0.5,0.26363438040291,0.5,0.347737211648981,1.09666263516345,9.38645008247693,4.76950384921038,0.5,0.0400490031049985,0.500000480383789,0.5,0.527268760805821,1.09296566483471,8.44077858719979,4.99736744937304,0.5,14.7078729845844
105,1,3,A,1,0,l,63,1,1,1A,0A,0,1,0,1,A10,2.75715206757557,2.89037175789616,0.5,0.5,0.5,0.5,0.5,0.5,0.5,0.5,0.5,0.5,0.76363438040291,0.5,0.5,0.5,0.5,0.76363438040291,4.10066263516345,1,1,0,1A,0A,0.5,0.5,0.5,0.5,0,0,-0.5,-0.26363438040291,0.5,0.347737211648981,1.09666263516345,9.38645008247693,4.76950384921038,0.5,0.0673503503983249,0.497872101328329,0.5,0.527268760805821,1.09296566483471,8.44077858719979,4.99736744937304,0.5,14.7078729845844
105,1,4,C,2,3,a,63,1,1,2C,3C,1,0,1,0,C23,2.43527297508096,2.94443897916644,0.5,0.23636561959709,0.5,0.5,0.5,0.5,0.5,0.5,0.5,0.5,0.76363438040291,0.5,0.5,0.5,0.5,0.76363438040291,1.69866263516345,1,1,0,2C,3C,0.76363438040291,0.5,0.604315925750157,0.395684074249843,1,1,0.23636561959709,0.124628207342057,0.5,0.347737211648981,1.09666263516345,9.38645008247693,4.76950384921038,0.5,0.389837948921962,0.999850386712947,0.5,0.527268760805821,1.09296566483471,8.44077858719979,4.99736744937304,0.5,14.7078729845844
105,1,5,A,0,2,a,27,1,1,0A,2A,1,0,1,0,A02,3.42673636816957,2.99573227355399,0.5,0.23636561959709,0.5,0.5,0.5,0.5,0.5,0.5,0.5,0.5,0.888262587744968,0.5,0.5,0.5,0.5,0.76363438040291,3.60366263516345,0,0,1,2A,0A,0.5,0.5,0.5,0.5,0,0,-0.5,-0.26363438040291,0.5,0.347737211648981,1.09666263516345,9.38645008247693,4.76950384921038,0.5,0.0724633222445918,0.50142476704991,0.5,0.527268760805821,1.09296566483471,8.44077858719979,4.99736744937304,0.5,14.7078729845844
105,1,6,D,2,3,l,63,1,1,2D,3D,0,1,0,1,D23,0.600448553033109,3.04452243772342,0.5,0.23636561959709,0.23636561959709,0.5,0.5,0.5,0.5,0.5,0.5,0.5,0.888262587744968,0.5,0.5,0.5,0.5,0.76363438040291,1.88166263516345,0,0,1,3D,2D,0.76363438040291,0.5,0.604315925750157,0.395684074249843,1,1,0.23636561959709,0.124628207342057,0.5,0.347737211648981,1.09666263516345,9.38645008247693,4.76950384921038,0.5,0.651696400240794,0.999849167351585,0.5,0.527268760805821,1.09296566483471,8.44077858719979,4.99736744937304,0.5,14.7078729845844
105,1,7,D,3,2,a,63,1,1,3D,2D,1,0,1,0,D32,2.37203814217136,2.39789527279837,0.5,0.23636561959709,0.23636561959709,0.5,0.5,0.5,0.5,0.5,0.5,0.5,0.888262587744968,0.5,0.5,0.5,0.5,0.888262587744968,2.09766263516345,1,1,0,3D,2D,0.888262587744968,0.5,0.639837589506624,0.360162410493376,1,1,0.111737412255032,0.05891564689536,0.5,0.347737211648981,1.09666263516345,9.38645008247693,4.76950384921038,0.5,0.981945235451571,0.999992474291449,0.5,0.527268760805821,1.09296566483471,8.44077858719979,4.99736744937304,0.5,14.7078729845844
105,1,8,B,3,1,l,27,1,1,3B,1B,0,1,0,1,B31,2.44860238467786,3.13549421592915,0.5,0.23636561959709,0.23636561959709,0.5,0.5,0.5,0.5,0.5,0.5,0.5,0.888262587744968,0.5,0.5,0.5,0.5,0.947178234640328,2.65966263516345,0,0,1,1B,3B,0.5,0.5,0.5,0.5,1,1,0.5,0.26363438040291,0.5,0.347737211648981,1.09666263516345,9.38645008247693,4.76950384921038,0.5,0.0693115441680499,0.500013885882505,0.5,0.527268760805821,1.09296566483471,8.44077858719979,4.99736744937304,0.5,14.7078729845844
105,1,9,D,0,3,l,9,1,1,0D,3D,0,1,0,1,D03,1.44860372050781,3.17805383034795,0.5,0.23636561959709,0.23636561959709,0.5,0.5,0.76363438040291,0.5,0.5,0.5,0.5,0.888262587744968,0.5,0.5,0.5,0.5,0.947178234640328,2.18266263516345,0,0,1,3D,0D,0.947178234640328,0.5,0.65450005532714,0.34549994467286,1,1,0.0528217653596723,0.0278512667647702,0.5,0.347737211648981,1.09666263516345,9.38645008247693,4.76950384921038,0.5,0.830659074887067,0.999997795782453,0.5,0.527268760805821,1.09296566483471,8.44077858719979,4.99736744937304,0.5,14.7078729845844
105,1,10,B,1,0,a,63,1,1,1B,0B,1,0,1,0,B10,1.43914381026661,3.2188758248682,0.5,0.23636561959709,0.23636561959709,0.5,0.5,0.76363438040291,0.5,0.5,0.5,0.5,0.888262587744968,0.5,0.5,0.5,0.5,0.975029501405098,1.98566263516345,1,1,0,1B,0B,0.76363438040291,0.5,0.604315925750157,0.395684074249843,1,1,0.23636561959709,0.124628207342057,0.5,0.347737211648981,1.09666263516345,9.38645008247693,4.76950384921038,0.5,0.729802077303286,0.999848425696058,0.5,0.527268760805821,1.09296566483471,8.44077858719979,4.99736744937304,0.5,14.7078729845844
105,1,11,A,1,0,l,63,1,1,1A,0A,0,1,0,1,A10,0.124832396100309,2.56494935746154,0.5,0.23636561959709,0.23636561959709,0.5,0.5,0.888262587744968,0.5,0.5,0.5,0.5,0.888262587744968,0.5,0.5,0.5,0.5,0.975029501405098,1.99666263516345,0,0,1,0A,1A,0.5,0.23636561959709,0.679010516913568,0.320989483086432,1,1,0.5,0.26363438040291,0.5,0.347737211648981,1.09666263516345,9.38645008247693,4.76950384921038,0.5,1.12617555517479,0.999999723986643,0.5,0.527268760805821,1.09296566483471,8.44077858719979,4.99736744937304,0.5,14.7078729845844
105,1,12,B,0,1,l,63,1,1,0B,1B,0,1,0,1,B01,3.23656454172504,3.29583686600433,0.76363438040291,0.23636561959709,0.23636561959709,0.5,0.5,0.888262587744968,0.5,0.5,0.5,0.5,0.888262587744968,0.5,0.5,0.5,0.5,0.975029501405098,2.26066263516345,0,0,1,1B,0B,0.888262587744968,0.5,0.639837589506624,0.360162410493376,1,1,0.111737412255032,0.05891564689536,0.5,0.347737211648981,1.09666263516345,9.38645008247693,4.76950384921038,0.5,0.767543091017523,0.999992526705288,0.5,0.527268760805821,1.09296566483471,8.44077858719979,4.99736744937304,0.5,14.7078729845844
105,1,13,D,2,3,l,63,1,1,2D,3D,0,1,0,1,D23,3.17923909540978,2.63905732961526,0.76363438040291,0.23636561959709,0.23636561959709,0.5,0.5,0.947178234640328,0.5,0.5,0.5,0.5,0.888262587744968,0.5,0.5,0.5,0.5,0.975029501405098,1.61566263516345,0,0,1,3D,2D,0.975029501405098,0.5,0.661023729000874,0.338976270999126,1,1,0.0249704985949021,0.0131661638508375,0.5,0.347737211648981,1.09666263516345,9.38645008247693,4.76950384921038,0.5,0.868876587236911,0.999998744459615,0.5,0.527268760805821,1.09296566483471,8.44077858719979,4.99736744937304,0.5,14.7078729845844
105,1,14,B,1,3,a,27,1,1,1B,3B,1,0,1,0,B13,2.73021644718699,3.36729582998647,0.76363438040291,0.23636561959709,0.23636561959709,0.5,0.5,0.947178234640328,0.5,0.5,0.5,0.5,0.888262587744968,0.5,0.5,0.5,0.5,0.988195665255935,1.54766263516345,1,1,0,1B,3B,0.947178234640328,0.5,0.65450005532714,0.34549994467286,1,1,0.0528217653596723,0.0278512667647702,0.5,0.347737211648981,1.09666263516345,9.38645008247693,4.76950384921038,0.5,0.489051138225414,0.999997821277026,0.5,0.527268760805821,1.09296566483471,8.44077858719979,4.99736744937304,0.5,14.7078729845844
105,1,15,C,3,2,l,63,1,1,3C,2C,0,1,0,1,C32,0.735904982015475,3.40119738166216,0.76363438040291,0.23636561959709,0.23636561959709,0.5,0.5,0.975029501405098,0.5,0.5,0.5,0.5,0.888262587744968,0.5,0.5,0.5,0.5,0.988195665255935,1.73066263516345,0,0,1,2C,3C,0.888262587744968,0.5,0.639837589506624,0.360162410493376,1,1,0.111737412255032,0.05891564689536,0.5,0.347737211648981,1.09666263516345,9.38645008247693,4.76950384921038,0.5,0.902685308228888,0.999992456615274,0.5,0.527268760805821,1.09296566483471,8.44077858719979,4.99736744937304,0.5,14.7078729845844
105,1,16,C,2,0,a,27,1,1,2C,0C,1,0,1,0,C20,2.29011372006778,2.7408400239252,0.76363438040291,0.23636561959709,0.23636561959709,0.5,0.5,0.975029501405098,0.5,0.5,0.5,0.5,0.947178234640328,0.5,0.5,0.5,0.5,0.988195665255935,1.61966263516345,1,1,0,2C,0C,0.947178234640328,0.5,0.65450005532714,0.34549994467286,1,1,0.0528217653596723,0.0278512667647702,0.5,0.347737211648981,1.09666263516345,9.38645008247693,4.76950384921038,0.5,0.783901491364925,0.999997809505072,0.5,0.527268760805821,1.09296566483471,8.44077858719979,4.99736744937304,0.5,14.7078729845844
105,1,17,A,0,3,a,9,1,1,0A,3A,1,0,1,0,A03,0.336530569301876,3.46573590279973,0.76363438040291,0.23636561959709,0.23636561959709,0.5,0.5,0.975029501405098,0.5,0.5,0.5,0.5,0.975029501405098,0.5,0.5,0.5,0.5,0.988195665255935,3.53366263516345,1,1,0,0A,3A,0.76363438040291,0.5,0.604315925750157,0.395684074249843,1,1,0.23636561959709,0.124628207342057,0.5,0.347737211648981,1.09666263516345,9.38645008247693,4.76950384921038,0.5,0.134203592948049,0.999850757983552,0.5,0.527268760805821,1.09296566483471,8.44077858719979,4.99736744937304,0.5,14.7078729845844
105,1,18,C,2,3,a,63,1,1,2C,3C,1,0,1,0,C23,3.08594884454541,2.80336038090653,0.888262587744968,0.23636561959709,0.23636561959709,0.5,0.5,0.975029501405098,0.5,0.5,0.5,0.5,0.975029501405098,0.5,0.5,0.5,0.5,0.988195665255935,1.87666263516345,1,1,0,2C,3C,0.975029501405098,0.5,0.661023729000874,0.338976270999126,1,1,0.0249704985949021,0.0131661638508375,0.5,0.347737211648981,1.09666263516345,9.38645008247693,4.76950384921038,0.5,1.31758462557499,0.99999873899872,0.5,0.527268760805821,1.09296566483471,8.44077858719979,4.99736744937304,0.5,14.7078729845844
105,1,19,A,1,0,l,63,1,1,1A,0A,0,1,0,1,A10,0.578163477150083,2.42774823594805,0.888262587744968,0.23636561959709,0.23636561959709,0.5,0.5,0.975029501405098,0.5,0.5,0.5,0.5,0.988195665255935,0.5,0.5,0.5,0.5,0.988195665255935,1.56966263516345,0,0,1,0A,1A,0.888262587744968,0.23636561959709,0.789827768809289,0.210172231190711,1,1,0.111737412255032,0.05891564689536,0.5,0.347737211648981,1.09666263516345,9.38645008247693,4.76950384921038,0.5,2.94205337236659,0.99999999997594,0.5,0.527268760805821,1.09296566483471,8.44077858719979,4.99736744937304,0.5,14.7078729845844
105,1,20,D,3,2,a,63,1,1,3D,2D,1,0,1,0,D32,3.37454298465377,2.4567357728213,0.947178234640328,0.23636561959709,0.23636561959709,0.5,0.5,0.975029501405098,0.5,0.5,0.5,0.5,0.988195665255935,0.5,0.5,0.5,0.5,0.988195665255935,1.83566263516345,1,1,0,3D,2D,0.988195665255935,0.5,0.664022674119259,0.335977325880741,1,1,0.0118043347440646,0.00622405695264004,0.5,0.347737211648981,1.09666263516345,9.38645008247693,4.76950384921038,0.5,1.36588339804339,0.999999026274357,0.5,0.527268760805821,1.09296566483471,8.44077858719979,4.99736744937304,0.5,14.7078729845844
105,1,21,C,3,2,l,63,1,1,3C,2C,0,1,0,1,C32,1.86574927113284,2.89037175789616,0.947178234640328,0.23636561959709,0.23636561959709,0.5,0.5,0.975029501405098,0.5,0.5,0.5,0.5,0.988195665255935,0.5,0.5,0.5,0.5,0.994419722208575,2.22366263516345,0,0,1,2C,3C,0.988195665255935,0.5,0.664022674119259,0.335977325880741,1,1,0.0118043347440646,0.00622405695264004,0.5,0.347737211648981,1.09666263516345,9.38645008247693,4.76950384921038,0.5,0.694806803260554,0.999999021549942,0.5,0.527268760805821,1.09296566483471,8.44077858719979,4.99736744937304,0.5,14.7078729845844
105,1,22,D,3,1,a,27,1,1,3D,1D,1,0,1,0,D31,0.825264239885604,3.61091791264422,0.947178234640328,0.23636561959709,0.23636561959709,0.5,0.5,0.975029501405098,0.5,0.5,0.5,0.5,0.994419722208575,0.5,0.5,0.5,0.5,0.994419722208575,2.46166263516345,1,1,0,3D,1D,0.994419722208575,0.5,0.665421974449682,0.334578025550318,1,1,0.00558027779142456,0.00294230615603667,0.5,0.347737211648981,1.09666263516345,9.38645008247693,4.76950384921038,0.5,0.328738400170978,0.999999126132429,0.5,0.527268760805821,1.09296566483471,8.44077858719979,4.99736744937304,0.5,14.7078729845844
105,1,23,A,0,1,a,63,1,1,0A,1A,1,0,1,0,A01,0.480933497878491,3.63758615972639,0.947178234640328,0.23636561959709,0.23636561959709,0.5,0.5,0.975029501405098,0.5,0.5,0.5,0.5,0.994419722208575,0.5,0.5,0.5,0.5,0.997362028364612,1.69766263516345,1,1,0,0A,1A,0.947178234640328,0.23636561959709,0.800289935391211,0.199710064608789,1,1,0.0528217653596723,0.0278512667647702,0.5,0.347737211648981,1.09666263516345,9.38645008247693,4.76950384921038,0.5,1.62458507966551,0.999999999990096,0.5,0.527268760805821,1.09296566483471,8.44077858719979,4.99736744937304,0.5,14.7078729845844
105,1,24,C,3,2,l,63,1,1,3C,2C,0,1,0,1,C32,1.60208100413087,2.56494935746154,0.975029501405098,0.23636561959709,0.23636561959709,0.5,0.5,0.975029501405098,0.5,0.5,0.5,0.5,0.994419722208575,0.5,0.5,0.5,0.5,0.997362028364612,2.10366263516345,0,0,1,2C,3C,0.994419722208575,0.5,0.665421974449682,0.334578025550318,1,1,0.00558027779142456,0.00294230615603667,0.5,0.347737211648981,1.09666263516345,9.38645008247693,4.76950384921038,0.5,0.931375039973441,0.99999913201934,0.5,0.527268760805821,1.09296566483471,8.44077858719979,4.99736744937304,0.5,14.7078729845844
105,1,25,A,0,2,a,27,1,1,0A,2A,1,0,1,0,A02,3.02657279998145,2.99573227355399,0.975029501405098,0.23636561959709,0.23636561959709,0.5,0.5,0.975029501405098,0.5,0.5,0.5,0.5,0.997362028364612,0.5,0.5,0.5,0.5,0.997362028364612,1.64966263516345,1,1,0,0A,2A,0.975029501405098,0.23636561959709,0.804881482928919,0.195118517071081,1,1,0.0249704985949021,0.0131661638508375,0.5,0.347737211648981,1.09666263516345,9.38645008247693,4.76950384921038,0.5,2.12755701058041,0.999999999993224,0.5,0.527268760805821,1.09296566483471,8.44077858719979,4.99736744937304,0.5,14.7078729845844
105,1,26,B,1,0,a,63,1,1,1B,0B,1,0,1,0,B10,2.12949545146119,3.02042488614436,0.988195665255935,0.23636561959709,0.23636561959709,0.5,0.5,0.975029501405098,0.5,0.5,0.5,0.5,0.997362028364612,0.5,0.5,0.5,0.5,0.997362028364612,1.69266263516345,1,1,0,1B,0B,0.975029501405098,0.5,0.661023729000874,0.338976270999126,1,1,0.0249704985949021,0.0131661638508375,0.5,0.347737211648981,1.09666263516345,9.38645008247693,4.76950384921038,0.5,1.14336593690659,0.999998733312453,0.5,0.527268760805821,1.09296566483471,8.44077858719979,4.99736744937304,0.5,14.7078729845844
105,1,27,B,0,1,l,63,1,1,0B,1B,0,1,0,1,B01,2.88966240046461,3.04452243772342,0.988195665255935,0.23636561959709,0.23636561959709,0.5,0.5,0.988195665255935,0.5,0.5,0.5,0.5,0.997362028364612,0.5,0.5,0.5,0.5,0.997362028364612,1.94666263516345,0,0,1,1B,0B,0.988195665255935,0.5,0.664022674119259,0.335977325880741,1,1,0.0118043347440646,0.00622405695264004,0.5,0.347737211648981,1.09666263516345,9.38645008247693,4.76950384921038,0.5,1.25013967853385,0.999999014831522,0.5,0.527268760805821,1.09296566483471,8.44077858719979,4.99736744937304,0.5,14.7078729845844
105,1,28,C,3,2,l,63,1,1,3C,2C,0,1,0,1,C32,1.45797079658647,2.37490575457367,0.988195665255935,0.23636561959709,0.23636561959709,0.5,0.5,0.994419722208575,0.5,0.5,0.5,0.5,0.997362028364612,0.5,0.5,0.5,0.5,0.997362028364612,1.77366263516345,0,0,1,2C,3C,0.997362028364612,0.5,0.666079417984113,0.333920582015887,1,1,0.00263797163538793,0.0013909200352319,0.5,0.347737211648981,1.09666263516345,9.38645008247693,4.76950384921038,0.5,1.3741550023821,0.999999177216585,0.5,0.527268760805821,1.09296566483471,8.44077858719979,4.99736744937304,0.5,14.7078729845844
105,1,29,D,3,1,a,27,1,1,3D,1D,1,0,1,0,D31,2.6026614945281,3.09104245335832,0.988195665255935,0.23636561959709,0.23636561959709,0.5,0.5,0.994419722208575,0.5,0.5,0.5,0.5,0.998752948399844,0.5,0.5,0.5,0.5,0.997362028364612,1.91466263516345,1,1,0,3D,1D,0.997362028364612,0.5,0.666079417984113,0.333920582015887,1,1,0.00263797163538793,0.0013909200352319,0.5,0.347737211648981,1.09666263516345,9.38645008247693,4.76950384921038,0.5,1.307615252427,0.999999175906915,0.5,0.527268760805821,1.09296566483471,8.44077858719979,4.99736744937304,0.5,14.7078729845844
105,1,30,C,1,2,l,9,1,1,1C,2C,0,1,0,1,C12,1.89821347421937,3.80666248977032,0.988195665255935,0.23636561959709,0.23636561959709,0.5,0.5,0.994419722208575,0.5,0.5,0.5,0.5,0.998752948399844,0.5,0.5,0.5,0.5,0.998752948399844,2.24066263516345,0,0,1,2C,1C,0.998752948399844,0.5,0.666389313506386,0.333610686493614,1,1,0.00124705160015604,0.000657531351875188,0.5,0.347737211648981,1.09666263516345,9.38645008247693,4.76950384921038,0.5,0.644731065883839,0.999999199138436,0.5,0.527268760805821,1.09296566483471,8.44077858719979,4.99736744937304,0.5,14.7078729845844
105,1,31,B,3,1,l,27,1,1,3B,1B,0,1,0,1,B31,1.35445399471947,3.13549421592915,0.988195665255935,0.23636561959709,0.23636561959709,0.5,0.5,0.994419722208575,0.5,0.5,0.5,0.5,0.999410479751719,0.5,0.5,0.5,0.5,0.998752948399844,2.13366263516345,0,0,1,1B,3B,0.994419722208575,0.5,0.665421974449682,0.334578025550318,1,1,0.00558027779142456,0.00294230615603667,0.5,0.347737211648981,1.09666263516345,9.38645008247693,4.76950384921038,0.5,0.86683782620757,0.999999131673687,0.5,0.527268760805821,1.09296566483471,8.44077858719979,4.99736744937304,0.5,14.7078729845844
105,1,32,D,3,2,a,63,1,1,3D,2D,1,0,1,0,D32,1.76744431752213,2.46385324059017,0.988195665255935,0.23636561959709,0.23636561959709,0.5,0.5,0.997362028364612,0.5,0.5,0.5,0.5,0.999410479751719,0.5,0.5,0.5,0.5,0.998752948399844,1.79866263516345,1,1,0,3D,2D,0.998752948399844,0.5,0.666389313506386,0.333610686493614,1,1,0.00124705160015604,0.000657531351875188,0.5,0.347737211648981,1.09666263516345,9.38645008247693,4.76950384921038,0.5,1.39208334674052,0.999999199533287,0.5,0.527268760805821,1.09296566483471,8.44077858719979,4.99736744937304,0.5,14.7078729845844
105,1,33,B,0,1,l,63,1,1,0B,1B,0,1,0,1,B01,2.58639772132257,2.77258872223978,0.988195665255935,0.23636561959709,0.23636561959709,0.5,0.5,0.997362028364612,0.5,0.5,0.5,0.5,0.999410479751719,0.5,0.5,0.5,0.5,0.999410479751719,1.82466263516345,0,0,1,1B,0B,0.997362028364612,0.5,0.666079417984113,0.333920582015887,1,1,0.00263797163538793,0.0013909200352319,0.5,0.347737211648981,1.09666263516345,9.38645008247693,4.76950384921038,0.5,1.38883692693155,0.99999917521432,0.5,0.527268760805821,1.09296566483471,8.44077858719979,4.99736744937304,0.5,14.7078729845844
105,1,34,A,1,0,l,63,1,1,1A,0A,0,1,0,1,A10,0.828114048203494,2.50552593699074,0.988195665255935,0.23636561959709,0.23636561959709,0.5,0.5,0.998752948399844,0.5,0.5,0.5,0.5,0.999410479751719,0.5,0.5,0.5,0.5,0.999410479751719,1.46166263516345,0,0,1,0A,1A,0.988195665255935,0.23636561959709,0.80697934638244,0.19302065361756,1,1,0.0118043347440646,0.00622405695264004,0.5,0.347737211648981,1.09666263516345,9.38645008247693,4.76950384921038,0.5,2.7840117053721,0.999999999994305,0.5,0.527268760805821,1.09296566483471,8.44077858719979,4.99736744937304,0.5,14.7078729845844
105,1,35,C,2,3,a,63,1,1,2C,3C,1,0,1,0,C23,2.275037444285,2.81341071676004,0.994419722208575,0.23636561959709,0.23636561959709,0.5,0.5,0.998752948399844,0.5,0.5,0.5,0.5,0.999410479751719,0.5,0.5,0.5,0.5,0.999410479751719,1.87366263516345,1,1,0,2C,3C,0.999410479751719,0.5,0.666535610660269,0.333464389339731,1,1,0.00058952024828085,0.000310835610780984,0.5,0.347737211648981,1.09666263516345,9.38645008247693,4.76950384921038,0.5,1.36223353769585,0.99999920962779,0.5,0.527268760805821,1.09296566483471,8.44077858719979,4.99736744937304,0.5,14.7078729845844
105,1,36,A,0,2,a,27,1,1,0A,2A,1,0,1,0,A02,2.20743987388292,2.83321334405622,0.994419722208575,0.23636561959709,0.23636561959709,0.5,0.5,0.998752948399844,0.5,0.5,0.5,0.5,0.9997213153625,0.5,0.5,0.5,0.5,0.999410479751719,1.73666263516345,1,1,0,0A,2A,0.994419722208575,0.23636561959709,0.807955447982244,0.192044552017756,1,1,0.00558027779142456,0.00294230615603667,0.5,0.347737211648981,1.09666263516345,9.38645008247693,4.76950384921038,0.5,1.1050682633313,0.999999999994772,0.5,0.527268760805821,1.09296566483471,8.44077858719979,4.99736744937304,0.5,14.7078729845844
105,1,37,B,0,1,l,63,1,1,0B,1B,0,1,0,1,B01,2.90517735176042,2.56494935746154,0.997362028364612,0.23636561959709,0.23636561959709,0.5,0.5,0.998752948399844,0.5,0.5,0.5,0.5,0.9997213153625,0.5,0.5,0.5,0.5,0.999410479751719,1.92066263516345,0,0,1,1B,0B,0.998752948399844,0.5,0.666389313506386,0.333610686493614,1,1,0.00124705160015604,0.000657531351875188,0.5,0.347737211648981,1.09666263516345,9.38645008247693,4.76950384921038,0.5,1.29970349714373,0.999999196189785,0.5,0.527268760805821,1.09296566483471,8.44077858719979,4.99736744937304,0.5,14.7078729845844
105,1,38,D,2,3,l,63,1,1,2D,3D,0,1,0,1,D23,2.99639526501733,2.87167962488401,0.997362028364612,0.23636561959709,0.23636561959709,0.5,0.5,0.999410479751719,0.5,0.5,0.5,0.5,0.9997213153625,0.5,0.5,0.5,0.5,0.999410479751719,2.09566263516345,0,0,1,3D,2D,0.999410479751719,0.5,0.666535610660269,0.333464389339731,1,1,0.00058952024828085,0.000310835610780984,0.5,0.347737211648981,1.09666263516345,9.38645008247693,4.76950384921038,0.5,0.942908382797773,0.999999213794267,0.5,0.527268760805821,1.09296566483471,8.44077858719979,4.99736744937304,0.5,14.7078729845844
105,1,39,B,1,2,a,9,1,1,1B,2B,1,0,1,0,B12,0.5812893958177,3.98898404656427,0.997362028364612,0.23636561959709,0.23636561959709,0.5,0.5,0.999410479751719,0.5,0.5,0.5,0.5,0.9997213153625,0.5,0.5,0.5,0.5,0.9997213153625,1.68266263516345,1,1,0,1B,2B,0.999410479751719,0.5,0.666535610660269,0.333464389339731,1,1,0.00058952024828085,0.000310835610780984,0.5,0.347737211648981,1.09666263516345,9.38645008247693,4.76950384921038,0.5,1.20857456487805,0.999999207878744,0.5,0.527268760805821,1.09296566483471,8.44077858719979,4.99736744937304,0.5,14.7078729845844
105,1,40,D,1,3,l,27,1,1,1D,3D,0,1,0,1,D13,0.00301884340529712,4.00733318523247,0.997362028364612,0.23636561959709,0.23636561959709,0.5,0.5,0.9997213153625,0.5,0.5,0.5,0.5,0.9997213153625,0.5,0.5,0.5,0.5,0.9997213153625,2.54966263516345,0,0,1,3D,1D,0.9997213153625,0.5,0.666604725239139,0.333395274760861,1,1,0.000278684637499915,0.0001469417034702,0.5,0.347737211648981,1.09666263516345,9.38645008247693,4.76950384921038,0.5,0.236399557732829,0.999999208086788,0.5,0.527268760805821,1.09296566483471,8.44077858719979,4.99736744937304,0.5,14.7078729845844
105,1,41,A,1,0,l,63,1,1,1A,0A,0,1,0,1,A10,1.90597959651074,2.41591377830105,0.997362028364612,0.23636561959709,0.23636561959709,0.5,0.5,0.9997213153625,0.5,0.5,0.5,0.5,0.9997213153625,0.5,0.5,0.5,0.5,0.99986825706597,1.63766263516345,0,0,1,0A,1A,0.997362028364612,0.23636561959709,0.808413453335831,0.191586546664169,1,1,0.00263797163538793,0.0013909200352319,0.5,0.347737211648981,1.09666263516345,9.38645008247693,4.76950384921038,0.5,2.23427458123924,0.999999999994969,0.5,0.527268760805821,1.09296566483471,8.44077858719979,4.99736744937304,0.5,14.7078729845844
105,1,42,A,0,1,a,63,1,1,0A,1A,1,0,1,0,A01,1.703552800245,3.3499040872746,0.998752948399844,0.23636561959709,0.23636561959709,0.5,0.5,0.9997213153625,0.5,0.5,0.5,0.5,0.9997213153625,0.5,0.5,0.5,0.5,0.99986825706597,1.63266263516345,1,1,0,0A,1A,0.998752948399844,0.23636561959709,0.808629207169626,0.191370792830374,1,1,0.00124705160015604,0.000657531351875188,0.5,0.347737211648981,1.09666263516345,9.38645008247693,4.76950384921038,0.5,2.29668074706293,0.999999999995045,0.5,0.527268760805821,1.09296566483471,8.44077858719979,4.99736744937304,0.5,14.7078729845844
105,1,43,C,2,0,a,27,1,1,2C,0C,1,0,1,0,C20,1.74460029868922,2.96183072187831,0.999410479751719,0.23636561959709,0.23636561959709,0.5,0.5,0.9997213153625,0.5,0.5,0.5,0.5,0.9997213153625,0.5,0.5,0.5,0.5,0.99986825706597,2.13166263516345,1,1,0,2C,0C,0.9997213153625,0.5,0.666604725239139,0.333395274760861,1,1,0.000278684637499915,0.0001469417034702,0.5,0.347737211648981,1.09666263516345,9.38645008247693,4.76950384921038,0.5,0.863866892771184,0.999999215108178,0.5,0.527268760805821,1.09296566483471,8.44077858719979,4.99736744937304,0.5,14.7078729845844
105,1,44,B,0,1,l,63,1,1,0B,1B,0,1,0,1,B01,0.412106352466505,2.46809953147162,0.999410479751719,0.23636561959709,0.23636561959709,0.5,0.5,0.9997213153625,0.5,0.5,0.5,0.5,0.99986825706597,0.5,0.5,0.5,0.5,0.99986825706597,2.03366263516345,0,0,1,1B,0B,0.9997213153625,0.5,0.666604725239139,0.333395274760861,1,1,0.000278684637499915,0.0001469417034702,0.5,0.347737211648981,1.09666263516345,9.38645008247693,4.76950384921038,0.5,1.0798507280695,0.999999218731283,0.5,0.527268760805821,1.09296566483471,8.44077858719979,4.99736744937304,0.5,14.7078729845844
