ID,session,trialNr,mod2Stim,visStimLeft,visStimRight,correctKey,frequency,rewardAccurate,probFB,stimPairLeft,stimPairRight,leftCorrect,rightCorrect,pCorrectLeft,pCorrectRight,triplet,rt,surprise,0A belief,1A belief,2A belief,3A belief,0B belief,1B belief,2B belief,3B belief,0C belief,1C belief,2C belief,3C belief,0D belief,1D belief,2D belief,3D belief,reactionTime,choice,choiceLeft,choiceRight,chosenPair,otherPair,beliefPair,beliefOtherPair,beliefPairNorm,beliefOtherPairNorm,choiceAccurate,reward,rewardPE,update2,sim_CBCsimpleRW_CBCdriftDiffusionLR_startBelief,sim_CBCsimpleRW_CBCdriftDiffusionLR_alpha1,sim_CBCsimpleRW_CBCdriftDiffusionLR_nonDecisionTime,sim_CBCsimpleRW_CBCdriftDiffusionLR_weight,sim_CBCsimpleRW_CBCdriftDiffusionLR_startingBoundary,sim_CBCsimpleRW_CBCdriftDiffusionLR_startingPoint,lik,corrLik,fitCBCsimpleRW_CBCdriftDiffusionLR_startBelief,fitCBCsimpleRW_CBCdriftDiffusionLR_alpha1,fitCBCsimpleRW_CBCdriftDiffusionLR_nonDecisionTime,fitCBCsimpleRW_CBCdriftDiffusionLR_weight,fitCBCsimpleRW_CBCdriftDiffusionLR_startingBoundary,fitCBCsimpleRW_CBCdriftDiffusionLR_startingPoint,fit_CBCsimpleRW_CBCdriftDiffusionLR_NLL
186,1,1,B,1,0,a,63,1,0.95,1B,0B,1,0,1,0,B10,0.346627309509274,2.77258872223978,0.5,0.5,0.5,0.5,0.5,0.5,0.5,0.5,0.5,0.5,0.5,0.5,0.5,0.5,0.5,0.5,3.16450106552543,1,1,0,1B,0B,0.5,0.5,0.5,0.5,1,1,0.5,0.0174512545512201,0.5,0.294376965945566,0.813501065525434,0.33354617441857,2.40467548360683,0.5,0.0686826307504493,0.499646262332941,0.5,0.0349025091024402,0.765519082346528,6.24253885527015,2.38208261641021,0.5,77.6246995239923
186,1,2,D,3,2,a,63,1,0.95,3D,2D,1,0,1,0,D32,1.0026950554589,2.83321334405622,0.5,0.5,0.5,0.5,0.5,0.51745125455122,0.5,0.5,0.5,0.5,0.5,0.5,0.5,0.5,0.5,0.5,4.48150106552543,0,0,1,2D,3D,0.5,0.5,0.5,0.5,0,0,-0.5,-0.0174512545512201,0.5,0.294376965945566,0.813501065525434,0.33354617441857,2.40467548360683,0.5,0.0218927117791723,0.500655647568257,0.5,0.0349025091024402,0.765519082346528,6.24253885527015,2.38208261641021,0.5,77.6246995239923
186,1,3,B,3,1,l,27,1,0.95,3B,1B,0,1,0,1,B31,1.34343531192952,2.89037175789616,0.5,0.5,0.5,0.5,0.5,0.51745125455122,0.5,0.5,0.5,0.5,0.5,0.5,0.5,0.5,0.48254874544878,0.5,1.00650106552543,0,0,1,1B,3B,0.51745125455122,0.5,0.508575965911466,0.491424034088534,1,1,0.48254874544878,0.0168421619803971,0.5,0.294376965945566,0.813501065525434,0.33354617441857,2.40467548360683,0.5,0.240381697574777,0.564032943825361,0.5,0.0349025091024402,0.765519082346528,6.24253885527015,2.38208261641021,0.5,77.6246995239923
186,1,4,C,2,3,a,63,1,0.95,2C,3C,1,0,1,0,C23,2.79071872734537,2.94443897916644,0.5,0.5,0.5,0.5,0.5,0.534293416531617,0.5,0.5,0.5,0.5,0.5,0.5,0.5,0.5,0.48254874544878,0.5,1.81150106552543,0,0,1,3C,2C,0.5,0.5,0.5,0.5,0,0,-0.5,-0.0174512545512201,0.5,0.294376965945566,0.813501065525434,0.33354617441857,2.40467548360683,0.5,0.222185931642156,0.499359076958166,0.5,0.0349025091024402,0.765519082346528,6.24253885527015,2.38208261641021,0.5,77.6246995239923
186,1,5,C,0,2,l,27,1,0.95,0C,2C,0,1,0,1,C02,2.85391723526618,2.99573227355399,0.5,0.5,0.5,0.5,0.5,0.534293416531617,0.5,0.5,0.5,0.5,0.5,0.48254874544878,0.5,0.5,0.48254874544878,0.5,2.79450106552543,0,0,1,2C,0C,0.5,0.5,0.5,0.5,1,1,0.5,0.0174512545512201,0.5,0.294376965945566,0.813501065525434,0.33354617441857,2.40467548360683,0.5,0.0949829936191901,0.50085934172688,0.5,0.0349025091024402,0.765519082346528,6.24253885527015,2.38208261641021,0.5,77.6246995239923
186,1,6,A,0,3,a,9,1,0.95,0A,3A,1,0,1,0,A03,1.61142808854697,3.04452243772342,0.5,0.5,0.5,0.5,0.5,0.534293416531617,0.5,0.5,0.5,0.5,0.51745125455122,0.48254874544878,0.5,0.5,0.48254874544878,0.5,2.05850106552543,1,1,0,0A,3A,0.5,0.5,0.5,0.5,1,1,0.5,0.0174512545512201,0.5,0.294376965945566,0.813501065525434,0.33354617441857,2.40467548360683,0.5,0.17990174505959,0.500359962601918,0.5,0.0349025091024402,0.765519082346528,6.24253885527015,2.38208261641021,0.5,77.6246995239923
186,1,7,C,2,3,a,63,1,0.95,2C,3C,1,0,1,0,C23,2.34026934477259,2.39789527279837,0.51745125455122,0.5,0.5,0.5,0.5,0.534293416531617,0.5,0.5,0.5,0.5,0.51745125455122,0.48254874544878,0.5,0.5,0.48254874544878,0.5,1.17250106552543,0,0,1,3C,2C,0.48254874544878,0.51745125455122,0.48254874544878,0.51745125455122,0,0,-0.48254874544878,-0.0168421619803971,0.5,0.294376965945566,0.813501065525434,0.33354617441857,2.40467548360683,0.5,0.244301994978725,0.372323356197223,0.5,0.0349025091024402,0.765519082346528,6.24253885527015,2.38208261641021,0.5,77.6246995239923
186,1,8,A,1,0,l,63,1,0.95,1A,0A,0,1,0,1,A10,1.13217271865824,3.13549421592915,0.51745125455122,0.5,0.5,0.5,0.5,0.534293416531617,0.5,0.5,0.5,0.5,0.51745125455122,0.465706583468383,0.5,0.5,0.48254874544878,0.5,1.35650106552543,1,1,0,1A,0A,0.5,0.51745125455122,0.491424034088534,0.508575965911466,0,0,-0.5,-0.0174512545512201,0.5,0.294376965945566,0.813501065525434,0.33354617441857,2.40467548360683,0.5,0.275882348417287,0.435964048425952,0.5,0.0349025091024402,0.765519082346528,6.24253885527015,2.38208261641021,0.5,77.6246995239923
186,1,9,D,2,3,l,63,1,0.95,2D,3D,0,1,0,1,D23,1.53888872713535,3.17805383034795,0.51745125455122,0.48254874544878,0.5,0.5,0.5,0.534293416531617,0.5,0.5,0.5,0.5,0.51745125455122,0.465706583468383,0.5,0.5,0.48254874544878,0.5,1.86650106552543,1,1,0,2D,3D,0.48254874544878,0.5,0.491119395026427,0.508880604973573,0,0,-0.48254874544878,-0.0168421619803971,0.5,0.294376965945566,0.813501065525434,0.33354617441857,2.40467548360683,0.5,0.185021857595964,0.435098883869556,0.5,0.0349025091024402,0.765519082346528,6.24253885527015,2.38208261641021,0.5,77.6246995239923
186,1,10,C,3,2,l,63,1,0.95,3C,2C,0,1,0,1,C32,2.07761777894765,3.2188758248682,0.51745125455122,0.48254874544878,0.5,0.5,0.5,0.534293416531617,0.5,0.5,0.5,0.5,0.51745125455122,0.465706583468383,0.5,0.5,0.465706583468383,0.5,3.37450106552543,0,0,1,2C,3C,0.51745125455122,0.465706583468383,0.526315546233689,0.473684453766311,1,1,0.48254874544878,0.0168421619803971,0.5,0.294376965945566,0.813501065525434,0.33354617441857,2.40467548360683,0.5,0.073586597150153,0.686843847233398,0.5,0.0349025091024402,0.765519082346528,6.24253885527015,2.38208261641021,0.5,77.6246995239923
186,1,11,D,3,1,a,27,1,0.95,3D,1D,1,0,1,0,D31,3.20786619931772,3.25809653802148,0.51745125455122,0.48254874544878,0.5,0.5,0.5,0.534293416531617,0.5,0.5,0.5,0.5,0.534293416531617,0.465706583468383,0.5,0.5,0.465706583468383,0.5,1.76250106552543,1,1,0,3D,1D,0.5,0.5,0.5,0.5,1,1,0.5,0.0174512545512201,0.5,0.294376965945566,0.813501065525434,0.33354617441857,2.40467548360683,0.5,0.232103223302634,0.50030780329829,0.5,0.0349025091024402,0.765519082346528,6.24253885527015,2.38208261641021,0.5,77.6246995239923
186,1,12,A,0,1,a,63,0,0.95,0A,1A,1,0,0,1,A01,3.47247917793035,3.29583686600433,0.51745125455122,0.48254874544878,0.5,0.5,0.5,0.534293416531617,0.5,0.5,0.5,0.5,0.534293416531617,0.465706583468383,0.5,0.5,0.465706583468383,0.51745125455122,2.46550106552543,0,0,1,1A,0A,0.48254874544878,0.51745125455122,0.48254874544878,0.51745125455122,0,1,0.51745125455122,0.0180603471220431,0.5,0.294376965945566,0.813501065525434,0.33354617441857,2.40467548360683,0.5,0.0936605600194409,0.373601153139556,0.5,0.0349025091024402,0.765519082346528,6.24253885527015,2.38208261641021,0.5,77.6246995239923
186,1,13,C,3,2,l,63,1,0.95,3C,2C,0,1,0,1,C32,2.27662501811939,2.63905732961526,0.51745125455122,0.500609092570823,0.5,0.5,0.5,0.534293416531617,0.5,0.5,0.5,0.5,0.534293416531617,0.465706583468383,0.5,0.5,0.465706583468383,0.51745125455122,4.30250106552543,1,1,0,3C,2C,0.465706583468383,0.534293416531617,0.465706583468383,0.534293416531617,0,0,-0.465706583468383,-0.0162543282685716,0.5,0.294376965945566,0.813501065525434,0.33354617441857,2.40467548360683,0.5,0.011144790162943,0.265837391004517,0.5,0.0349025091024402,0.765519082346528,6.24253885527015,2.38208261641021,0.5,77.6246995239923
186,1,14,A,2,0,l,27,1,0.95,2A,0A,0,1,0,1,A20,2.35053824291469,3.36729582998647,0.51745125455122,0.500609092570823,0.5,0.5,0.5,0.534293416531617,0.5,0.5,0.5,0.5,0.534293416531617,0.449452255199811,0.5,0.5,0.465706583468383,0.51745125455122,1.20950106552543,0,0,1,0A,2A,0.51745125455122,0.5,0.508575965911466,0.491424034088534,1,1,0.48254874544878,0.0168421619803971,0.5,0.294376965945566,0.813501065525434,0.33354617441857,2.40467548360683,0.5,0.368104918089073,0.563090558902645,0.5,0.0349025091024402,0.765519082346528,6.24253885527015,2.38208261641021,0.5,77.6246995239923
186,1,15,B,1,0,a,63,1,0.95,1B,0B,1,0,1,0,B10,3.21284346306528,2.70805020110221,0.534293416531617,0.500609092570823,0.5,0.5,0.5,0.534293416531617,0.5,0.5,0.5,0.5,0.534293416531617,0.449452255199811,0.5,0.5,0.465706583468383,0.51745125455122,2.29950106552543,1,1,0,1B,0B,0.534293416531617,0.5,0.516578185640307,0.483421814359693,1,1,0.465706583468383,0.0162543282685716,0.5,0.294376965945566,0.813501065525434,0.33354617441857,2.40467548360683,0.5,0.180630670637678,0.621072858803814,0.5,0.0349025091024402,0.765519082346528,6.24253885527015,2.38208261641021,0.5,77.6246995239923
186,1,16,D,2,3,l,63,1,0.95,2D,3D,0,1,0,1,D23,0.0354330518017527,2.7408400239252,0.534293416531617,0.500609092570823,0.5,0.5,0.5,0.550547744800189,0.5,0.5,0.5,0.5,0.534293416531617,0.449452255199811,0.5,0.5,0.465706583468383,0.51745125455122,2.87850106552543,1,1,0,2D,3D,0.465706583468383,0.51745125455122,0.473684453766311,0.526315546233689,0,0,-0.465706583468383,-0.0162543282685716,0.5,0.294376965945566,0.813501065525434,0.33354617441857,2.40467548360683,0.5,0.0529388263911603,0.31254945988628,0.5,0.0349025091024402,0.765519082346528,6.24253885527015,2.38208261641021,0.5,77.6246995239923
186,1,17,B,2,1,l,9,1,0.95,2B,1B,0,1,0,1,B21,1.62356802880089,3.46573590279973,0.534293416531617,0.500609092570823,0.5,0.5,0.5,0.550547744800189,0.5,0.5,0.5,0.5,0.534293416531617,0.449452255199811,0.5,0.5,0.449452255199811,0.51745125455122,1.23950106552543,0,0,1,1B,2B,0.550547744800189,0.5,0.524057804631146,0.475942195368854,1,1,0.449452255199811,0.0156870114282237,0.5,0.294376965945566,0.813501065525434,0.33354617441857,2.40467548360683,0.5,0.457479482294757,0.672770834321449,0.5,0.0349025091024402,0.765519082346528,6.24253885527015,2.38208261641021,0.5,77.6246995239923
186,1,18,D,3,1,a,27,1,0.95,3D,1D,1,0,1,0,D31,2.03657764638806,2.80336038090653,0.534293416531617,0.500609092570823,0.5,0.5,0.5,0.566234756228412,0.5,0.5,0.5,0.5,0.534293416531617,0.449452255199811,0.5,0.5,0.449452255199811,0.51745125455122,2.30650106552543,0,0,1,1D,3D,0.5,0.51745125455122,0.491424034088534,0.508575965911466,0,0,-0.5,-0.0174512545512201,0.5,0.294376965945566,0.813501065525434,0.33354617441857,2.40467548360683,0.5,0.126594309404997,0.437025202508472,0.5,0.0349025091024402,0.765519082346528,6.24253885527015,2.38208261641021,0.5,77.6246995239923
186,1,19,A,1,0,l,63,1,0.95,1A,0A,0,1,0,1,A10,2.58905545561989,2.83321334405622,0.534293416531617,0.500609092570823,0.5,0.5,0.5,0.566234756228412,0.5,0.5,0.5,0.5,0.534293416531617,0.449452255199811,0.5,0.48254874544878,0.449452255199811,0.51745125455122,1.96250106552543,0,0,1,0A,1A,0.534293416531617,0.500609092570823,0.516274153200193,0.483725846799807,1,1,0.465706583468383,0.0162543282685716,0.5,0.294376965945566,0.813501065525434,0.33354617441857,2.40467548360683,0.5,0.242903196117522,0.619014867239109,0.5,0.0349025091024402,0.765519082346528,6.24253885527015,2.38208261641021,0.5,77.6246995239923
186,1,20,A,0,1,a,63,1,0.95,0A,1A,1,0,1,0,A01,2.75141421403309,2.86220088092947,0.550547744800189,0.500609092570823,0.5,0.5,0.5,0.566234756228412,0.5,0.5,0.5,0.5,0.534293416531617,0.449452255199811,0.5,0.48254874544878,0.449452255199811,0.51745125455122,1.40650106552543,0,0,1,1A,0A,0.500609092570823,0.550547744800189,0.476245860534825,0.523754139465175,0,0,-0.500609092570823,-0.0174725134102175,0.5,0.294376965945566,0.813501065525434,0.33354617441857,2.40467548360683,0.5,0.208851974027724,0.330101330321141,0.5,0.0349025091024402,0.765519082346528,6.24253885527015,2.38208261641021,0.5,77.6246995239923
186,1,21,C,0,2,l,27,1,0.95,0C,2C,0,1,0,1,C02,1.63550127568713,2.89037175789616,0.550547744800189,0.483136579160605,0.5,0.5,0.5,0.566234756228412,0.5,0.5,0.5,0.5,0.534293416531617,0.449452255199811,0.5,0.48254874544878,0.449452255199811,0.51745125455122,3.05350106552543,1,1,0,0C,2C,0.5,0.534293416531617,0.483421814359693,0.516578185640307,0,0,-0.5,-0.0174512545512201,0.5,0.294376965945566,0.813501065525434,0.33354617441857,2.40467548360683,0.5,0.0562508512968331,0.378710532828577,0.5,0.0349025091024402,0.765519082346528,6.24253885527015,2.38208261641021,0.5,77.6246995239923
186,1,22,B,1,0,a,63,1,0.95,1B,0B,1,0,1,0,B10,0.343661505860903,2.51230562397611,0.550547744800189,0.483136579160605,0.5,0.5,0.5,0.566234756228412,0.5,0.5,0.48254874544878,0.5,0.534293416531617,0.449452255199811,0.5,0.48254874544878,0.449452255199811,0.51745125455122,3.65450106552543,0,0,1,0B,1B,0.5,0.566234756228412,0.468939881277785,0.531060118722215,0,0,-0.5,-0.0174512545512201,0.5,0.294376965945566,0.813501065525434,0.33354617441857,2.40467548360683,0.5,0.0227232009555428,0.283863870878011,0.5,0.0349025091024402,0.765519082346528,6.24253885527015,2.38208261641021,0.5,77.6246995239923
186,1,23,C,0,2,l,27,1,0.95,0C,2C,0,1,0,1,C02,1.70795517471882,2.53897387105828,0.550547744800189,0.483136579160605,0.5,0.5,0.48254874544878,0.566234756228412,0.5,0.5,0.48254874544878,0.5,0.534293416531617,0.449452255199811,0.5,0.48254874544878,0.449452255199811,0.51745125455122,2.85650106552543,0,0,1,2C,0C,0.534293416531617,0.48254874544878,0.525443806825466,0.474556193174534,1,1,0.465706583468383,0.0162543282685716,0.5,0.294376965945566,0.813501065525434,0.33354617441857,2.40467548360683,0.5,0.117922573120456,0.679770546722768,0.5,0.0349025091024402,0.765519082346528,6.24253885527015,2.38208261641021,0.5,77.6246995239923
186,1,24,D,2,3,l,63,1,0.95,2D,3D,0,1,0,1,D23,1.48471890855149,2.56494935746154,0.550547744800189,0.483136579160605,0.5,0.5,0.48254874544878,0.566234756228412,0.5,0.5,0.48254874544878,0.5,0.550547744800189,0.449452255199811,0.5,0.48254874544878,0.449452255199811,0.51745125455122,4.52650106552543,1,1,0,2D,3D,0.449452255199811,0.51745125455122,0.464836719142266,0.535163280857734,0,0,-0.449452255199811,-0.0156870114282237,0.5,0.294376965945566,0.813501065525434,0.33354617441857,2.40467548360683,0.5,0.00866161571384553,0.25979834103565,0.5,0.0349025091024402,0.765519082346528,6.24253885527015,2.38208261641021,0.5,77.6246995239923
186,1,25,A,0,1,a,63,1,0.95,0A,1A,1,0,1,0,A01,2.87955315422085,2.59026716544583,0.550547744800189,0.483136579160605,0.5,0.5,0.48254874544878,0.566234756228412,0.5,0.5,0.48254874544878,0.5,0.550547744800189,0.449452255199811,0.5,0.48254874544878,0.433765243771588,0.51745125455122,1.09050106552543,1,1,0,0A,1A,0.550547744800189,0.483136579160605,0.532607230310547,0.467392769689453,1,1,0.449452255199811,0.0156870114282237,0.5,0.294376965945566,0.813501065525434,0.33354617441857,2.40467548360683,0.5,0.45720636142571,0.725122437719859,0.5,0.0349025091024402,0.765519082346528,6.24253885527015,2.38208261641021,0.5,77.6246995239923
186,1,26,C,2,3,a,63,1,0.95,2C,3C,1,0,1,0,C23,0.366362880935949,2.6149597780362,0.566234756228412,0.483136579160605,0.5,0.5,0.48254874544878,0.566234756228412,0.5,0.5,0.48254874544878,0.5,0.550547744800189,0.449452255199811,0.5,0.48254874544878,0.433765243771588,0.51745125455122,1.34850106552543,1,1,0,2C,3C,0.550547744800189,0.449452255199811,0.550547744800189,0.449452255199811,1,1,0.449452255199811,0.0156870114282237,0.5,0.294376965945566,0.813501065525434,0.33354617441857,2.40467548360683,0.5,0.59776086005066,0.818679725092125,0.5,0.0349025091024402,0.765519082346528,6.24253885527015,2.38208261641021,0.5,77.6246995239923
186,1,27,A,0,2,a,27,1,0.95,0A,2A,1,0,1,0,A02,1.42027803645543,3.73766961828337,0.566234756228412,0.483136579160605,0.5,0.5,0.48254874544878,0.566234756228412,0.5,0.5,0.48254874544878,0.5,0.566234756228412,0.449452255199811,0.5,0.48254874544878,0.433765243771588,0.51745125455122,2.04350106552543,1,1,0,0A,2A,0.566234756228412,0.5,0.531060118722215,0.468939881277785,1,1,0.433765243771588,0.01513949536906,0.5,0.294376965945566,0.813501065525434,0.33354617441857,2.40467548360683,0.5,0.262427887380047,0.71545631336188,0.5,0.0349025091024402,0.765519082346528,6.24253885527015,2.38208261641021,0.5,77.6246995239923
186,1,28,D,2,3,l,63,1,0.95,2D,3D,0,1,0,1,D23,2.917752487333,2.37490575457367,0.581374251597472,0.483136579160605,0.5,0.5,0.48254874544878,0.566234756228412,0.5,0.5,0.48254874544878,0.5,0.566234756228412,0.449452255199811,0.5,0.48254874544878,0.433765243771588,0.51745125455122,1.27550106552543,0,0,1,3D,2D,0.51745125455122,0.433765243771588,0.543988939913883,0.456011060086117,1,1,0.48254874544878,0.0168421619803971,0.5,0.294376965945566,0.813501065525434,0.33354617441857,2.40467548360683,0.5,0.578832143009034,0.787632664051241,0.5,0.0349025091024402,0.765519082346528,6.24253885527015,2.38208261641021,0.5,77.6246995239923
186,1,29,D,2,3,l,63,1,0.95,2D,3D,0,1,0,1,D23,2.45784908362619,2.17475172148416,0.581374251597472,0.483136579160605,0.5,0.5,0.48254874544878,0.566234756228412,0.5,0.5,0.48254874544878,0.5,0.566234756228412,0.449452255199811,0.5,0.48254874544878,0.433765243771588,0.534293416531617,2.00050106552543,1,1,0,2D,3D,0.433765243771588,0.534293416531617,0.448077437410382,0.551922562589618,0,0,-0.433765243771588,-0.01513949536906,0.5,0.294376965945566,0.813501065525434,0.33354617441857,2.40467548360683,0.5,0.0673413544993974,0.175824886808104,0.5,0.0349025091024402,0.765519082346528,6.24253885527015,2.38208261641021,0.5,77.6246995239923
186,1,30,B,1,3,a,27,1,0.95,1B,3B,1,0,1,0,B13,1.71094577694761,3.80666248977032,0.581374251597472,0.483136579160605,0.5,0.5,0.48254874544878,0.566234756228412,0.5,0.5,0.48254874544878,0.5,0.566234756228412,0.449452255199811,0.5,0.48254874544878,0.418625748402528,0.534293416531617,1.79950106552543,0,0,1,3B,1B,0.5,0.566234756228412,0.468939881277785,0.531060118722215,0,0,-0.5,-0.0174512545512201,0.5,0.294376965945566,0.813501065525434,0.33354617441857,2.40467548360683,0.5,0.130893375057569,0.283875576011683,0.5,0.0349025091024402,0.765519082346528,6.24253885527015,2.38208261641021,0.5,77.6246995239923
186,1,31,D,3,0,a,9,1,0.95,3D,0D,1,0,1,0,D30,0.44906668775146,3.8286413964891,0.581374251597472,0.483136579160605,0.5,0.5,0.48254874544878,0.566234756228412,0.5,0.48254874544878,0.48254874544878,0.5,0.566234756228412,0.449452255199811,0.5,0.48254874544878,0.418625748402528,0.534293416531617,1.15950106552543,0,0,1,0D,3D,0.5,0.534293416531617,0.483421814359693,0.516578185640307,0,0,-0.5,-0.0174512545512201,0.5,0.294376965945566,0.813501065525434,0.33354617441857,2.40467548360683,0.5,0.246004199765517,0.379089347826821,0.5,0.0349025091024402,0.765519082346528,6.24253885527015,2.38208261641021,0.5,77.6246995239923
186,1,32,B,0,1,l,63,1,0.95,0B,1B,0,1,0,1,B01,0.168391009037278,3.85014760171006,0.581374251597472,0.483136579160605,0.5,0.5,0.48254874544878,0.566234756228412,0.5,0.48254874544878,0.48254874544878,0.5,0.566234756228412,0.449452255199811,0.48254874544878,0.48254874544878,0.418625748402528,0.534293416531617,2.07250106552543,0,0,1,1B,0B,0.566234756228412,0.48254874544878,0.539896704441767,0.460103295558233,1,1,0.433765243771588,0.01513949536906,0.5,0.294376965945566,0.813501065525434,0.33354617441857,2.40467548360683,0.5,0.273308781676573,0.766060180550263,0.5,0.0349025091024402,0.765519082346528,6.24253885527015,2.38208261641021,0.5,77.6246995239923
186,1,33,A,0,1,a,63,1,0.95,0A,1A,1,0,1,0,A01,0.389793685220278,2.484906649788,0.581374251597472,0.483136579160605,0.5,0.5,0.48254874544878,0.581374251597472,0.5,0.48254874544878,0.48254874544878,0.5,0.566234756228412,0.449452255199811,0.48254874544878,0.48254874544878,0.418625748402528,0.534293416531617,3.34950106552543,1,1,0,0A,1A,0.581374251597472,0.483136579160605,0.546142166710933,0.453857833289067,1,1,0.418625748402528,0.0146110889941351,0.5,0.294376965945566,0.813501065525434,0.33354617441857,2.40467548360683,0.5,0.0757137473200072,0.797382558703165,0.5,0.0349025091024402,0.765519082346528,6.24253885527015,2.38208261641021,0.5,77.6246995239923
186,1,34,B,0,1,l,63,1,0.95,0B,1B,0,1,0,1,B01,1.24643576067993,3.19867311755068,0.595985340591608,0.483136579160605,0.5,0.5,0.48254874544878,0.581374251597472,0.5,0.48254874544878,0.48254874544878,0.5,0.566234756228412,0.449452255199811,0.48254874544878,0.48254874544878,0.418625748402528,0.534293416531617,1.01950106552543,0,0,1,1B,0B,0.581374251597472,0.48254874544878,0.54644391860269,0.45355608139731,1,1,0.418625748402528,0.0146110889941351,0.5,0.294376965945566,0.813501065525434,0.33354617441857,2.40467548360683,0.5,0.434991372254062,0.799445549277307,0.5,0.0349025091024402,0.765519082346528,6.24253885527015,2.38208261641021,0.5,77.6246995239923
186,1,35,C,2,3,a,63,1,0.95,2C,3C,1,0,1,0,C23,2.83745622497261,2.52572864430826,0.595985340591608,0.483136579160605,0.5,0.5,0.48254874544878,0.595985340591608,0.5,0.48254874544878,0.48254874544878,0.5,0.566234756228412,0.449452255199811,0.48254874544878,0.48254874544878,0.418625748402528,0.534293416531617,1.25750106552543,1,1,0,2C,3C,0.566234756228412,0.449452255199811,0.557489413428841,0.442510586571159,1,1,0.433765243771588,0.01513949536906,0.5,0.294376965945566,0.813501065525434,0.33354617441857,2.40467548360683,0.5,0.67412094941168,0.846573428858815,0.5,0.0349025091024402,0.765519082346528,6.24253885527015,2.38208261641021,0.5,77.6246995239923
186,1,36,A,2,0,l,27,1,0.95,2A,0A,0,1,0,1,A20,0.849075382500315,3.23867845216438,0.595985340591608,0.483136579160605,0.5,0.5,0.48254874544878,0.595985340591608,0.5,0.48254874544878,0.48254874544878,0.5,0.581374251597472,0.449452255199811,0.48254874544878,0.48254874544878,0.418625748402528,0.534293416531617,1.39850106552543,0,0,1,0A,2A,0.595985340591608,0.5,0.543789518452772,0.456210481547228,1,1,0.404014659408392,0.0141011253275207,0.5,0.294376965945566,0.813501065525434,0.33354617441857,2.40467548360683,0.5,0.536616918697677,0.78624625255551,0.5,0.0349025091024402,0.765519082346528,6.24253885527015,2.38208261641021,0.5,77.6246995239923
186,1,37,B,0,1,l,63,1,0.95,0B,1B,0,1,0,1,B01,0.531575987974663,2.85263142991332,0.610086465919128,0.483136579160605,0.5,0.5,0.48254874544878,0.595985340591608,0.5,0.48254874544878,0.48254874544878,0.5,0.581374251597472,0.449452255199811,0.48254874544878,0.48254874544878,0.418625748402528,0.534293416531617,1.36150106552543,0,0,1,1B,0B,0.595985340591608,0.48254874544878,0.552588321783731,0.447411678216269,1,1,0.404014659408392,0.0141011253275207,0.5,0.294376965945566,0.813501065525434,0.33354617441857,2.40467548360683,0.5,0.60353733998431,0.826774688343208,0.5,0.0349025091024402,0.765519082346528,6.24253885527015,2.38208261641021,0.5,77.6246995239923
186,1,38,B,1,3,a,27,1,0.95,1B,3B,1,0,1,0,B13,2.24876049457831,3.27714473299218,0.610086465919128,0.483136579160605,0.5,0.5,0.48254874544878,0.610086465919128,0.5,0.48254874544878,0.48254874544878,0.5,0.581374251597472,0.449452255199811,0.48254874544878,0.48254874544878,0.418625748402528,0.534293416531617,1.12250106552543,1,1,0,1B,3B,0.610086465919128,0.48254874544878,0.558362442992607,0.441637557007393,1,1,0.389913534080872,0.0136089606724222,0.5,0.294376965945566,0.813501065525434,0.33354617441857,2.40467548360683,0.5,0.662265049121077,0.850380718976302,0.5,0.0349025091024402,0.765519082346528,6.24253885527015,2.38208261641021,0.5,77.6246995239923
186,1,39,C,2,3,a,63,1,0.95,2C,3C,1,0,1,0,C23,0.93603123743525,2.37954613413017,0.610086465919128,0.483136579160605,0.5,0.5,0.48254874544878,0.623695426591551,0.5,0.48254874544878,0.48254874544878,0.5,0.581374251597472,0.449452255199811,0.48254874544878,0.48254874544878,0.418625748402528,0.534293416531617,2.55650106552543,1,1,0,2C,3C,0.581374251597472,0.449452255199811,0.563988457576404,0.436011542423596,1,1,0.418625748402528,0.0146110889941351,0.5,0.294376965945566,0.813501065525434,0.33354617441857,2.40467548360683,0.5,0.170602370360964,0.869786150579069,0.5,0.0349025091024402,0.765519082346528,6.24253885527015,2.38208261641021,0.5,77.6246995239923
186,1,40,D,1,3,l,27,1,0.95,1D,3D,0,1,0,1,D13,1.49135295099373,4.00733318523247,0.610086465919128,0.483136579160605,0.5,0.5,0.48254874544878,0.623695426591551,0.5,0.48254874544878,0.48254874544878,0.5,0.595985340591608,0.449452255199811,0.48254874544878,0.48254874544878,0.418625748402528,0.534293416531617,3.22450106552543,0,0,1,3D,1D,0.534293416531617,0.48254874544878,0.525443806825466,0.474556193174534,1,1,0.465706583468383,0.0162543282685716,0.5,0.294376965945566,0.813501065525434,0.33354617441857,2.40467548360683,0.5,0.0841219057913329,0.680587502899134,0.5,0.0349025091024402,0.765519082346528,6.24253885527015,2.38208261641021,0.5,77.6246995239923
186,1,41,C,2,1,a,9,1,0.95,2C,1C,1,0,1,0,C21,0.095760700302488,4.02535169073515,0.610086465919128,0.483136579160605,0.5,0.5,0.48254874544878,0.623695426591551,0.5,0.48254874544878,0.48254874544878,0.5,0.595985340591608,0.449452255199811,0.48254874544878,0.48254874544878,0.418625748402528,0.550547744800189,1.54050106552543,1,1,0,2C,1C,0.595985340591608,0.5,0.543789518452772,0.456210481547228,1,1,0.404014659408392,0.0141011253275207,0.5,0.294376965945566,0.813501065525434,0.33354617441857,2.40467548360683,0.5,0.475148149010199,0.785957572391137,0.5,0.0349025091024402,0.765519082346528,6.24253885527015,2.38208261641021,0.5,77.6246995239923
186,1,42,B,1,0,a,63,0,0.95,1B,0B,1,0,0,1,B10,1.18195107067192,2.65675690671466,0.610086465919128,0.483136579160605,0.5,0.5,0.48254874544878,0.623695426591551,0.5,0.48254874544878,0.48254874544878,0.5,0.610086465919128,0.449452255199811,0.48254874544878,0.48254874544878,0.418625748402528,0.550547744800189,2.24850106552543,1,1,0,1B,0B,0.623695426591551,0.48254874544878,0.56379544620897,0.43620455379103,1,0,-0.623695426591551,-0.0217685353037619,0.5,0.294376965945566,0.813501065525434,0.33354617441857,2.40467548360683,0.5,0.245914093117165,0.869669175255332,0.5,0.0349025091024402,0.765519082346528,6.24253885527015,2.38208261641021,0.5,77.6246995239923
186,1,43,D,2,3,l,63,1,0.95,2D,3D,0,1,0,1,D23,0.00225449063867822,2.26868354131836,0.610086465919128,0.483136579160605,0.5,0.5,0.48254874544878,0.601926891287789,0.5,0.48254874544878,0.48254874544878,0.5,0.610086465919128,0.449452255199811,0.48254874544878,0.48254874544878,0.418625748402528,0.550547744800189,0.965501065525434,0,0,1,3D,2D,0.550547744800189,0.418625748402528,0.568059020042796,0.431940979957204,1,1,0.449452255199811,0.0156870114282237,0.5,0.294376965945566,0.813501065525434,0.33354617441857,2.40467548360683,0.5,0.392238324090309,0.883507726191,0.5,0.0349025091024402,0.765519082346528,6.24253885527015,2.38208261641021,0.5,77.6246995239923
186,1,44,A,1,0,l,63,1,0.95,1A,0A,0,1,0,1,A10,2.25368280843725,2.97892515523761,0.610086465919128,0.483136579160605,0.5,0.5,0.48254874544878,0.601926891287789,0.5,0.48254874544878,0.48254874544878,0.5,0.610086465919128,0.449452255199811,0.48254874544878,0.48254874544878,0.418625748402528,0.566234756228412,1.06750106552543,0,0,1,0A,1A,0.610086465919128,0.483136579160605,0.55806220758421,0.44193779241579,1,1,0.389913534080872,0.0136089606724222,0.5,0.294376965945566,0.813501065525434,0.33354617441857,2.40467548360683,0.5,0.599011058210024,0.84909069332162,0.5,0.0349025091024402,0.765519082346528,6.24253885527015,2.38208261641021,0.5,77.6246995239923
