ID,session,trialNr,mod2Stim,visStimLeft,visStimRight,correctKey,frequency,rewardAccurate,probFB,stimPairLeft,stimPairRight,leftCorrect,rightCorrect,pCorrectLeft,pCorrectRight,triplet,rt,surprise,0A belief,1A belief,2A belief,3A belief,0B belief,1B belief,2B belief,3B belief,0C belief,1C belief,2C belief,3C belief,0D belief,1D belief,2D belief,3D belief,reactionTime,choice,choiceLeft,choiceRight,chosenPair,otherPair,beliefPair,beliefOtherPair,beliefPairNorm,beliefOtherPairNorm,choiceAccurate,reward,rewardPE,update2,sim_CBCsimpleRW_CBCdriftDiffusionLR_startBelief,sim_CBCsimpleRW_CBCdriftDiffusionLR_alpha1,sim_CBCsimpleRW_CBCdriftDiffusionLR_nonDecisionTime,sim_CBCsimpleRW_CBCdriftDiffusionLR_weight,sim_CBCsimpleRW_CBCdriftDiffusionLR_startingBoundary,sim_CBCsimpleRW_CBCdriftDiffusionLR_startingPoint,lik,corrLik,fitCBCsimpleRW_CBCdriftDiffusionLR_startBelief,fitCBCsimpleRW_CBCdriftDiffusionLR_alpha1,fitCBCsimpleRW_CBCdriftDiffusionLR_nonDecisionTime,fitCBCsimpleRW_CBCdriftDiffusionLR_weight,fitCBCsimpleRW_CBCdriftDiffusionLR_startingBoundary,fitCBCsimpleRW_CBCdriftDiffusionLR_startingPoint,fit_CBCsimpleRW_CBCdriftDiffusionLR_NLL
185,1,1,A,1,0,l,63,1,0.95,1A,0A,0,1,0,1,A10,2.66158698130565,2.77258872223978,0.5,0.5,0.5,0.5,0.5,0.5,0.5,0.5,0.5,0.5,0.5,0.5,0.5,0.5,0.5,0.5,4.11557580833938,0,0,1,0A,1A,0.5,0.5,0.5,0.5,1,1,0.5,0.455190683751628,0.5,0.431014023908205,0.79857580833938,1.00689555629816,3.19868679116186,0.5,0.0637757330402942,0.50041652294057,0.5,0.910381367503256,0.675605013396027,0.497311029942302,3.47096809219869,0.5,104.514510069541
185,1,2,C,3,2,l,63,1,0.95,3C,2C,0,1,0,1,C32,0.364049919901032,2.83321334405622,0.955190683751628,0.5,0.5,0.5,0.5,0.5,0.5,0.5,0.5,0.5,0.5,0.5,0.5,0.5,0.5,0.5,1.94057580833938,1,1,0,3C,2C,0.5,0.5,0.5,0.5,0,0,-0.5,-0.455190683751628,0.5,0.431014023908205,0.79857580833938,1.00689555629816,3.19868679116186,0.5,0.148070482175504,0.50044098265129,0.5,0.910381367503256,0.675605013396027,0.497311029942302,3.47096809219869,0.5,104.514510069541
185,1,3,A,0,2,a,27,1,0.95,0A,2A,1,0,1,0,A02,1.3316871840597,2.89037175789616,0.955190683751628,0.5,0.5,0.5,0.5,0.5,0.5,0.5,0.5,0.5,0.5,0.044809316248372,0.5,0.5,0.5,0.5,2.55157580833938,0,0,1,2A,0A,0.5,0.955190683751628,0.343597581803472,0.656402418196528,0,0,-0.5,-0.455190683751628,0.5,0.431014023908205,0.79857580833938,1.00689555629816,3.19868679116186,0.5,0.0896532004534932,0.368141753471176,0.5,0.910381367503256,0.675605013396027,0.497311029942302,3.47096809219869,0.5,104.514510069541
185,1,4,B,1,0,a,63,1,0.95,1B,0B,1,0,1,0,B10,2.43711091430504,2.94443897916644,0.955190683751628,0.5,0.044809316248372,0.5,0.5,0.5,0.5,0.5,0.5,0.5,0.5,0.044809316248372,0.5,0.5,0.5,0.5,9.72757580833938,1,1,0,1B,0B,0.5,0.5,0.5,0.5,1,1,0.5,0.455190683751628,0.5,0.431014023908205,0.79857580833938,1.00689555629816,3.19868679116186,0.5,0.006399375115429,0.500171378569219,0.5,0.910381367503256,0.675605013396027,0.497311029942302,3.47096809219869,0.5,104.514510069541
185,1,5,D,2,3,l,63,1,0.95,2D,3D,0,1,0,1,D23,1.71105024229495,2.99573227355399,0.955190683751628,0.5,0.044809316248372,0.5,0.5,0.955190683751628,0.5,0.5,0.5,0.5,0.5,0.044809316248372,0.5,0.5,0.5,0.5,9.70257580833938,0,0,1,3D,2D,0.5,0.5,0.5,0.5,1,1,0.5,0.455190683751628,0.5,0.431014023908205,0.79857580833938,1.00689555629816,3.19868679116186,0.5,0.00646523063804255,0.500170446000882,0.5,0.910381367503256,0.675605013396027,0.497311029942302,3.47096809219869,0.5,104.514510069541
185,1,6,B,1,2,a,9,1,0.95,1B,2B,1,0,1,0,B12,3.48117411916795,3.04452243772342,0.955190683751628,0.5,0.044809316248372,0.5,0.5,0.955190683751628,0.5,0.5,0.5,0.5,0.5,0.044809316248372,0.5,0.5,0.5,0.955190683751628,1.85657580833938,1,1,0,1B,2B,0.955190683751628,0.5,0.656402418196528,0.343597581803472,1,1,0.044809316248372,0.0407935666030788,0.5,0.431014023908205,0.79857580833938,1.00689555629816,3.19868679116186,0.5,0.194486962738296,0.631475460144685,0.5,0.910381367503256,0.675605013396027,0.497311029942302,3.47096809219869,0.5,104.514510069541
185,1,7,D,1,3,l,27,1,0.95,1D,3D,0,1,0,1,D13,2.28466367699499,3.09104245335832,0.955190683751628,0.5,0.044809316248372,0.5,0.5,0.995984250354707,0.5,0.5,0.5,0.5,0.5,0.044809316248372,0.5,0.5,0.5,0.955190683751628,3.24657580833938,1,1,0,1D,3D,0.5,0.955190683751628,0.343597581803472,0.656402418196528,0,0,-0.5,-0.455190683751628,0.5,0.431014023908205,0.79857580833938,1.00689555629816,3.19868679116186,0.5,0.0670591963381402,0.36698718787532,0.5,0.910381367503256,0.675605013396027,0.497311029942302,3.47096809219869,0.5,104.514510069541
185,1,8,A,1,0,l,63,1,0.95,1A,0A,0,1,0,1,A10,1.18008696014596,2.4423470353692,0.955190683751628,0.5,0.044809316248372,0.5,0.5,0.995984250354707,0.5,0.5,0.5,0.5,0.5,0.044809316248372,0.5,0.044809316248372,0.5,0.955190683751628,1.51157580833938,1,1,0,1A,0A,0.5,0.955190683751628,0.343597581803472,0.656402418196528,0,0,-0.5,-0.455190683751628,0.5,0.431014023908205,0.79857580833938,1.00689555629816,3.19868679116186,0.5,0.1128743952072,0.367750660185646,0.5,0.910381367503256,0.675605013396027,0.497311029942302,3.47096809219869,0.5,104.514510069541
185,1,9,A,0,1,a,63,1,0.95,0A,1A,1,0,1,0,A01,2.59944450715544,3.17805383034795,0.955190683751628,0.044809316248372,0.044809316248372,0.5,0.5,0.995984250354707,0.5,0.5,0.5,0.5,0.5,0.044809316248372,0.5,0.044809316248372,0.5,0.955190683751628,2.59057580833938,1,1,0,0A,1A,0.955190683751628,0.044809316248372,0.955190683751628,0.044809316248372,1,1,0.044809316248372,0.0407935666030788,0.5,0.431014023908205,0.79857580833938,1.00689555629816,3.19868679116186,0.5,0.213439273712887,0.828172745542941,0.5,0.910381367503256,0.675605013396027,0.497311029942302,3.47096809219869,0.5,104.514510069541
185,1,10,C,2,0,a,27,1,0.95,2C,0C,1,0,1,0,C20,1.8186384145593,3.2188758248682,0.995984250354707,0.044809316248372,0.044809316248372,0.5,0.5,0.995984250354707,0.5,0.5,0.5,0.5,0.5,0.044809316248372,0.5,0.044809316248372,0.5,0.955190683751628,2.62357580833938,1,1,0,2C,0C,0.5,0.5,0.5,0.5,1,1,0.5,0.455190683751628,0.5,0.431014023908205,0.79857580833938,1.00689555629816,3.19868679116186,0.5,0.116815770981269,0.499983188172245,0.5,0.910381367503256,0.675605013396027,0.497311029942302,3.47096809219869,0.5,104.514510069541
185,1,11,B,0,1,l,63,1,0.95,0B,1B,0,1,0,1,B01,0.542674440921303,3.25809653802148,0.995984250354707,0.044809316248372,0.044809316248372,0.5,0.5,0.995984250354707,0.5,0.5,0.5,0.5,0.955190683751628,0.044809316248372,0.5,0.044809316248372,0.5,0.955190683751628,1.86057580833938,1,1,0,0B,1B,0.5,0.995984250354707,0.334228117629879,0.665771882370121,0,0,-0.5,-0.455190683751628,0.5,0.431014023908205,0.79857580833938,1.00689555629816,3.19868679116186,0.5,0.111193576156248,0.360290497065316,0.5,0.910381367503256,0.675605013396027,0.497311029942302,3.47096809219869,0.5,104.514510069541
185,1,12,A,0,1,a,63,1,0.95,0A,1A,1,0,1,0,A01,3.42130858350959,2.60268968544438,0.995984250354707,0.044809316248372,0.044809316248372,0.5,0.044809316248372,0.995984250354707,0.5,0.5,0.5,0.5,0.955190683751628,0.044809316248372,0.5,0.044809316248372,0.5,0.955190683751628,2.30757580833938,1,1,0,0A,1A,0.995984250354707,0.044809316248372,0.956946970382782,0.0430530296172177,1,1,0.00401574964529328,0.00365586365363281,0.5,0.431014023908205,0.79857580833938,1.00689555629816,3.19868679116186,0.5,0.244910127032504,0.828809103675652,0.5,0.910381367503256,0.675605013396027,0.497311029942302,3.47096809219869,0.5,104.514510069541
185,1,13,C,3,2,l,63,1,0.95,3C,2C,0,1,0,1,C32,0.887214083322302,2.63905732961526,0.99964011400834,0.044809316248372,0.044809316248372,0.5,0.044809316248372,0.995984250354707,0.5,0.5,0.5,0.5,0.955190683751628,0.044809316248372,0.5,0.044809316248372,0.5,0.955190683751628,2.76357580833938,0,0,1,2C,3C,0.955190683751628,0.044809316248372,0.955190683751628,0.044809316248372,1,1,0.044809316248372,0.0407935666030788,0.5,0.431014023908205,0.79857580833938,1.00689555629816,3.19868679116186,0.5,0.195687538784367,0.827755801349406,0.5,0.910381367503256,0.675605013396027,0.497311029942302,3.47096809219869,0.5,104.514510069541
185,1,14,A,0,2,a,27,1,0.95,0A,2A,1,0,1,0,A02,2.25251317904985,2.67414864942653,0.99964011400834,0.044809316248372,0.044809316248372,0.5,0.044809316248372,0.995984250354707,0.5,0.5,0.5,0.5,0.995984250354707,0.044809316248372,0.5,0.044809316248372,0.5,0.955190683751628,2.18657580833938,1,1,0,0A,2A,0.99964011400834,0.044809316248372,0.957097667967171,0.0429023320328285,1,1,0.00035988599166048,0.000327633501233133,0.5,0.431014023908205,0.79857580833938,1.00689555629816,3.19868679116186,0.5,0.25873569440024,0.828777458750275,0.5,0.910381367503256,0.675605013396027,0.497311029942302,3.47096809219869,0.5,104.514510069541
185,1,15,B,1,0,a,63,1,0.95,1B,0B,1,0,1,0,B10,2.13702563045127,2.70805020110221,0.999967747509573,0.044809316248372,0.044809316248372,0.5,0.044809316248372,0.995984250354707,0.5,0.5,0.5,0.5,0.995984250354707,0.044809316248372,0.5,0.044809316248372,0.5,0.955190683751628,1.78657580833938,1,1,0,1B,0B,0.995984250354707,0.044809316248372,0.956946970382782,0.0430530296172177,1,1,0.00401574964529328,0.00365586365363281,0.5,0.431014023908205,0.79857580833938,1.00689555629816,3.19868679116186,0.5,0.298965757032378,0.828711275192486,0.5,0.910381367503256,0.675605013396027,0.497311029942302,3.47096809219869,0.5,104.514510069541
185,1,16,B,0,1,l,63,1,0.95,0B,1B,0,1,0,1,B01,0.908482312797313,2.7408400239252,0.999967747509573,0.044809316248372,0.044809316248372,0.5,0.044809316248372,0.99964011400834,0.5,0.5,0.5,0.5,0.995984250354707,0.044809316248372,0.5,0.044809316248372,0.5,0.955190683751628,3.06157580833938,0,0,1,1B,0B,0.99964011400834,0.044809316248372,0.957097667967171,0.0429023320328285,1,1,0.00035988599166048,0.000327633501233133,0.5,0.431014023908205,0.79857580833938,1.00689555629816,3.19868679116186,0.5,0.168452151004204,0.828262349838156,0.5,0.910381367503256,0.675605013396027,0.497311029942302,3.47096809219869,0.5,104.514510069541
185,1,17,C,3,2,l,63,1,0.95,3C,2C,0,1,0,1,C32,1.63996921304133,2.36712361413162,0.999967747509573,0.044809316248372,0.044809316248372,0.5,0.044809316248372,0.999967747509573,0.5,0.5,0.5,0.5,0.995984250354707,0.044809316248372,0.5,0.044809316248372,0.5,0.955190683751628,4.56457580833938,0,0,1,2C,3C,0.995984250354707,0.044809316248372,0.956946970382782,0.0430530296172177,1,1,0.00401574964529328,0.00365586365363281,0.5,0.431014023908205,0.79857580833938,1.00689555629816,3.19868679116186,0.5,0.0780823263723031,0.828802440982611,0.5,0.910381367503256,0.675605013396027,0.497311029942302,3.47096809219869,0.5,104.514510069541
185,1,18,D,3,1,a,27,1,0.95,3D,1D,1,0,1,0,D31,3.05505804073779,3.49650756146648,0.999967747509573,0.044809316248372,0.044809316248372,0.5,0.044809316248372,0.999967747509573,0.5,0.5,0.5,0.5,0.99964011400834,0.044809316248372,0.5,0.044809316248372,0.5,0.955190683751628,7.18357580833938,0,0,1,1D,3D,0.044809316248372,0.955190683751628,0.044809316248372,0.955190683751628,0,0,-0.044809316248372,-0.0407935666030788,0.5,0.431014023908205,0.79857580833938,1.00689555629816,3.19868679116186,0.5,0.00430092571131083,0.173457561061339,0.5,0.910381367503256,0.675605013396027,0.497311029942302,3.47096809219869,0.5,104.514510069541
185,1,19,C,1,2,l,9,1,0.95,1C,2C,0,1,0,1,C12,2.31730649508115,3.52636052461616,0.999967747509573,0.044809316248372,0.044809316248372,0.5,0.044809316248372,0.999967747509573,0.5,0.5,0.5,0.5,0.99964011400834,0.044809316248372,0.5,0.00401574964529323,0.5,0.955190683751628,0.96657580833938,0,0,1,2C,1C,0.99964011400834,0.5,0.666586672809407,0.333413327190593,1,1,0.00035988599166048,0.000327633501233133,0.5,0.431014023908205,0.79857580833938,1.00689555629816,3.19868679116186,0.5,0.0331108680711864,0.639947471342434,0.5,0.910381367503256,0.675605013396027,0.497311029942302,3.47096809219869,0.5,104.514510069541
185,1,20,B,3,1,l,27,1,0.95,3B,1B,0,1,0,1,B31,2.04245498079038,3.55534806148941,0.999967747509573,0.044809316248372,0.044809316248372,0.5,0.044809316248372,0.999967747509573,0.5,0.5,0.5,0.5,0.999967747509573,0.044809316248372,0.5,0.00401574964529323,0.5,0.955190683751628,2.12957580833938,1,1,0,3B,1B,0.5,0.999967747509573,0.333340500707539,0.666659499292461,0,0,-0.5,-0.455190683751628,0.5,0.431014023908205,0.79857580833938,1.00689555629816,3.19868679116186,0.5,0.102782284492585,0.359241293956969,0.5,0.910381367503256,0.675605013396027,0.497311029942302,3.47096809219869,0.5,104.514510069541
185,1,21,D,3,2,a,63,1,0.95,3D,2D,1,0,1,0,D32,2.09743896643676,3.58351893845611,0.999967747509573,0.044809316248372,0.044809316248372,0.5,0.044809316248372,0.999967747509573,0.5,0.044809316248372,0.5,0.5,0.999967747509573,0.044809316248372,0.5,0.00401574964529323,0.5,0.955190683751628,5.01057580833938,1,1,0,3D,2D,0.955190683751628,0.5,0.656402418196528,0.343597581803472,1,1,0.044809316248372,0.0407935666030788,0.5,0.431014023908205,0.79857580833938,1.00689555629816,3.19868679116186,0.5,0.0548990118490383,0.6317972355466,0.5,0.910381367503256,0.675605013396027,0.497311029942302,3.47096809219869,0.5,104.514510069541
185,1,22,B,1,0,a,63,0,0.95,1B,0B,1,0,0,1,B10,1.47693525452024,2.51230562397611,0.999967747509573,0.044809316248372,0.044809316248372,0.5,0.044809316248372,0.999967747509573,0.5,0.044809316248372,0.5,0.5,0.999967747509573,0.044809316248372,0.5,0.00401574964529323,0.5,0.995984250354707,4.29757580833938,1,1,0,1B,0B,0.999967747509573,0.044809316248372,0.957111121785926,0.0428888782140737,1,0,-0.999967747509573,-0.910352005436915,0.5,0.431014023908205,0.79857580833938,1.00689555629816,3.19868679116186,0.5,0.0895415414985904,0.828925933764355,0.5,0.910381367503256,0.675605013396027,0.497311029942302,3.47096809219869,0.5,104.514510069541
185,1,23,A,3,0,l,9,1,0.95,3A,0A,0,1,0,1,A30,0.541515265172732,3.63758615972639,0.999967747509573,0.044809316248372,0.044809316248372,0.5,0.044809316248372,0.0896157420726573,0.5,0.044809316248372,0.5,0.5,0.999967747509573,0.044809316248372,0.5,0.00401574964529323,0.5,0.995984250354707,1.68057580833938,1,1,0,3A,0A,0.5,0.999967747509573,0.333340500707539,0.666659499292461,0,0,-0.5,-0.455190683751628,0.5,0.431014023908205,0.79857580833938,1.00689555629816,3.19868679116186,0.5,0.113553029403086,0.359838675166415,0.5,0.910381367503256,0.675605013396027,0.497311029942302,3.47096809219869,0.5,104.514510069541
185,1,24,D,2,3,l,63,1,0.95,2D,3D,0,1,0,1,D23,1.06138683366582,2.9704144655697,0.999967747509573,0.044809316248372,0.044809316248372,0.044809316248372,0.044809316248372,0.0896157420726573,0.5,0.044809316248372,0.5,0.5,0.999967747509573,0.044809316248372,0.5,0.00401574964529323,0.5,0.995984250354707,6.02057580833938,0,0,1,3D,2D,0.995984250354707,0.5,0.665771882370121,0.334228117629879,1,1,0.00401574964529328,0.00365586365363281,0.5,0.431014023908205,0.79857580833938,1.00689555629816,3.19868679116186,0.5,0.0361322755088061,0.638747534064899,0.5,0.910381367503256,0.675605013396027,0.497311029942302,3.47096809219869,0.5,104.514510069541
185,1,25,B,1,3,a,27,1,0.95,1B,3B,1,0,1,0,B13,3.01589819171459,3.68887945411394,0.999967747509573,0.044809316248372,0.044809316248372,0.044809316248372,0.044809316248372,0.0896157420726573,0.5,0.044809316248372,0.5,0.5,0.999967747509573,0.044809316248372,0.5,0.00401574964529323,0.5,0.99964011400834,2.39657580833938,1,1,0,1B,3B,0.0896157420726573,0.044809316248372,0.666659499292461,0.333340500707539,1,1,0.910384257927343,0.828796865685331,0.5,0.431014023908205,0.79857580833938,1.00689555629816,3.19868679116186,0.5,0.165965875946619,0.639874348697732,0.5,0.910381367503256,0.675605013396027,0.497311029942302,3.47096809219869,0.5,104.514510069541
185,1,26,C,2,3,a,63,1,0.95,2C,3C,1,0,1,0,C23,1.69130730085496,3.71357206670431,0.999967747509573,0.044809316248372,0.044809316248372,0.044809316248372,0.044809316248372,0.918412607757988,0.5,0.044809316248372,0.5,0.5,0.999967747509573,0.044809316248372,0.5,0.00401574964529323,0.5,0.99964011400834,1.59757580833938,1,1,0,2C,3C,0.999967747509573,0.044809316248372,0.957111121785926,0.0428888782140737,1,1,3.22524904273758e-05,2.936206634066e-05,0.5,0.431014023908205,0.79857580833938,1.00689555629816,3.19868679116186,0.5,0.307099796561805,0.830747507160197,0.5,0.910381367503256,0.675605013396027,0.497311029942302,3.47096809219869,0.5,104.514510069541
185,1,27,C,2,0,a,27,1,0.95,2C,0C,1,0,1,0,C20,2.67669608816278,3.04452243772342,0.999967747509573,0.044809316248372,0.044809316248372,0.044809316248372,0.044809316248372,0.918412607757988,0.5,0.044809316248372,0.5,0.5,0.999997109575913,0.044809316248372,0.5,0.00401574964529323,0.5,0.99964011400834,5.53957580833938,0,0,1,0C,2C,0.5,0.999997109575913,0.333333975651035,0.666666024348965,0,0,-0.5,-0.455190683751628,0.5,0.431014023908205,0.79857580833938,1.00689555629816,3.19868679116186,0.5,0.024886671344669,0.359228474250482,0.5,0.910381367503256,0.675605013396027,0.497311029942302,3.47096809219869,0.5,104.514510069541
185,1,28,B,0,1,l,63,1,0.95,0B,1B,0,1,0,1,B01,1.39800869598653,2.66258782702545,0.999967747509573,0.044809316248372,0.044809316248372,0.044809316248372,0.044809316248372,0.918412607757988,0.5,0.044809316248372,0.044809316248372,0.5,0.999997109575913,0.044809316248372,0.5,0.00401574964529323,0.5,0.99964011400834,2.29457580833938,0,0,1,1B,0B,0.918412607757988,0.044809316248372,0.953479758784979,0.0465202412150205,1,1,0.0815873922420116,0.0742756417203071,0.5,0.431014023908205,0.79857580833938,1.00689555629816,3.19868679116186,0.5,0.245308373254442,0.826632828117257,0.5,0.910381367503256,0.675605013396027,0.497311029942302,3.47096809219869,0.5,104.514510069541
185,1,29,C,2,3,a,63,1,0.95,2C,3C,1,0,1,0,C23,0.808318709209639,3.09104245335832,0.999967747509573,0.044809316248372,0.044809316248372,0.044809316248372,0.044809316248372,0.992688249478295,0.5,0.044809316248372,0.044809316248372,0.5,0.999997109575913,0.044809316248372,0.5,0.00401574964529323,0.5,0.99964011400834,1.71457580833938,1,1,0,2C,3C,0.999997109575913,0.044809316248372,0.95711232708679,0.0428876729132101,1,1,2.89042408674334e-06,2.63138823275375e-06,0.5,0.431014023908205,0.79857580833938,1.00689555629816,3.19868679116186,0.5,0.30351653825183,0.829132574152197,0.5,0.910381367503256,0.675605013396027,0.497311029942302,3.47096809219869,0.5,104.514510069541
185,1,30,A,1,0,l,63,1,0.95,1A,0A,0,1,0,1,A10,0.932531753019547,2.70805020110221,0.999967747509573,0.044809316248372,0.044809316248372,0.044809316248372,0.044809316248372,0.992688249478295,0.5,0.044809316248372,0.044809316248372,0.5,0.999999740964146,0.044809316248372,0.5,0.00401574964529323,0.5,0.99964011400834,4.19357580833938,1,1,0,1A,0A,0.044809316248372,0.999967747509573,0.0428888782140737,0.957111121785926,0,0,-0.044809316248372,-0.0407935666030788,0.5,0.431014023908205,0.79857580833938,1.00689555629816,3.19868679116186,0.5,0.0195653973144898,0.171629357957663,0.5,0.910381367503256,0.675605013396027,0.497311029942302,3.47096809219869,0.5,104.514510069541
185,1,31,D,2,3,l,63,1,0.95,2D,3D,0,1,0,1,D23,3.27828771148866,2.73002910782099,0.999967747509573,0.00401574964529323,0.044809316248372,0.044809316248372,0.044809316248372,0.992688249478295,0.5,0.044809316248372,0.044809316248372,0.5,0.999999740964146,0.044809316248372,0.5,0.00401574964529323,0.5,0.99964011400834,2.28057580833938,0,0,1,3D,2D,0.99964011400834,0.5,0.666586672809407,0.333413327190593,1,1,0.00035988599166048,0.000327633501233133,0.5,0.431014023908205,0.79857580833938,1.00689555629816,3.19868679116186,0.5,0.173496466647918,0.640019702377623,0.5,0.910381367503256,0.675605013396027,0.497311029942302,3.47096809219869,0.5,104.514510069541
185,1,32,C,2,3,a,63,1,0.95,2C,3C,1,0,1,0,C23,0.473913875741373,2.75153531304195,0.999967747509573,0.00401574964529323,0.044809316248372,0.044809316248372,0.044809316248372,0.992688249478295,0.5,0.044809316248372,0.044809316248372,0.5,0.999999740964146,0.044809316248372,0.5,0.00401574964529323,0.5,0.999967747509573,2.04357580833938,1,1,0,2C,3C,0.999999740964146,0.044809316248372,0.957112435100897,0.0428875648991026,1,1,2.59035853988898e-07,2.35821414986787e-07,0.5,0.431014023908205,0.79857580833938,1.00689555629816,3.19868679116186,0.5,0.275011709567648,0.829093057716671,0.5,0.910381367503256,0.675605013396027,0.497311029942302,3.47096809219869,0.5,104.514510069541
185,1,33,D,3,1,a,27,1,0.95,3D,1D,1,0,1,0,D31,2.82225695322327,3.17805383034795,0.999967747509573,0.00401574964529323,0.044809316248372,0.044809316248372,0.044809316248372,0.992688249478295,0.5,0.044809316248372,0.044809316248372,0.5,0.999999976785561,0.044809316248372,0.5,0.00401574964529323,0.5,0.999967747509573,1.37857580833938,1,1,0,3D,1D,0.999967747509573,0.00401574964529323,0.996000183611909,0.00399981638809129,1,1,3.22524904273758e-05,2.936206634066e-05,0.5,0.431014023908205,0.79857580833938,1.00689555629816,3.19868679116186,0.5,0.297131158390085,0.84618374948366,0.5,0.910381367503256,0.675605013396027,0.497311029942302,3.47096809219869,0.5,104.514510069541
185,1,34,C,0,2,l,27,1,0.95,0C,2C,0,1,0,1,C02,1.07244917043283,3.89182029811063,0.999967747509573,0.00401574964529323,0.044809316248372,0.044809316248372,0.044809316248372,0.992688249478295,0.5,0.044809316248372,0.044809316248372,0.5,0.999999976785561,0.044809316248372,0.5,0.00401574964529323,0.5,0.999997109575913,2.89157580833938,0,0,1,2C,0C,0.999999976785561,0.044809316248372,0.957112444780947,0.0428875552190525,1,1,2.32144390377442e-08,2.11339927570026e-08,0.5,0.431014023908205,0.79857580833938,1.00689555629816,3.19868679116186,0.5,0.183784774287791,0.8288813957466,0.5,0.910381367503256,0.675605013396027,0.497311029942302,3.47096809219869,0.5,104.514510069541
185,1,35,D,2,3,l,63,0,0.95,2D,3D,0,1,1,0,D23,3.42025709452119,2.52572864430826,0.999967747509573,0.00401574964529323,0.044809316248372,0.044809316248372,0.044809316248372,0.992688249478295,0.5,0.044809316248372,0.044809316248372,0.5,0.999999997919554,0.044809316248372,0.5,0.00401574964529323,0.5,0.999997109575913,7.43357580833938,0,0,1,3D,2D,0.999997109575913,0.5,0.666666024348965,0.333333975651035,1,0,-0.999997109575913,-0.910378736115023,0.5,0.431014023908205,0.79857580833938,1.00689555629816,3.19868679116186,0.5,0.0199017597433516,0.640619812159023,0.5,0.910381367503256,0.675605013396027,0.497311029942302,3.47096809219869,0.5,104.514510069541
185,1,36,A,1,0,l,63,1,0.95,1A,0A,0,1,0,1,A10,1.08717123065166,2.54553127160444,0.999967747509573,0.00401574964529323,0.044809316248372,0.044809316248372,0.044809316248372,0.992688249478295,0.5,0.044809316248372,0.044809316248372,0.5,0.999999997919554,0.044809316248372,0.5,0.00401574964529323,0.5,0.0896183734608901,4.76557580833938,0,0,1,0A,1A,0.999967747509573,0.00401574964529323,0.996000183611909,0.00399981638809129,1,1,3.22524904273758e-05,2.936206634066e-05,0.5,0.431014023908205,0.79857580833938,1.00689555629816,3.19868679116186,0.5,0.0699085905636494,0.846508469214192,0.5,0.910381367503256,0.675605013396027,0.497311029942302,3.47096809219869,0.5,104.514510069541
185,1,37,C,2,3,a,63,1,0.95,2C,3C,1,0,1,0,C23,1.61693655226102,2.56494935746154,0.999997109575913,0.00401574964529323,0.044809316248372,0.044809316248372,0.044809316248372,0.992688249478295,0.5,0.044809316248372,0.044809316248372,0.5,0.999999997919554,0.044809316248372,0.5,0.00401574964529323,0.5,0.0896183734608901,4.64957580833938,1,1,0,2C,3C,0.999999997919554,0.044809316248372,0.95711244564846,0.0428875543515399,1,1,2.08044625971127e-09,1.89399951093298e-09,0.5,0.431014023908205,0.79857580833938,1.00689555629816,3.19868679116186,0.5,0.0747542918635422,0.828572622223678,0.5,0.910381367503256,0.675605013396027,0.497311029942302,3.47096809219869,0.5,104.514510069541
185,1,38,A,0,2,a,27,1,0.95,0A,2A,1,0,1,0,A02,1.54803446411668,2.87167962488401,0.999997109575913,0.00401574964529323,0.044809316248372,0.044809316248372,0.044809316248372,0.992688249478295,0.5,0.044809316248372,0.044809316248372,0.5,0.999999999813553,0.044809316248372,0.5,0.00401574964529323,0.5,0.0896183734608901,2.28857580833938,0,0,1,2A,0A,0.044809316248372,0.999997109575913,0.0428876729132101,0.95711232708679,0,0,-0.044809316248372,-0.0407935666030788,0.5,0.431014023908205,0.79857580833938,1.00689555629816,3.19868679116186,0.5,0.0509503547112839,0.170863536272505,0.5,0.910381367503256,0.675605013396027,0.497311029942302,3.47096809219869,0.5,104.514510069541
185,1,39,D,2,3,l,63,1,0.95,2D,3D,0,1,0,1,D23,3.20339856593092,2.37954613413017,0.999997109575913,0.00401574964529323,0.00401574964529323,0.044809316248372,0.044809316248372,0.992688249478295,0.5,0.044809316248372,0.044809316248372,0.5,0.999999999813553,0.044809316248372,0.5,0.00401574964529323,0.5,0.0896183734608901,2.81657580833938,1,1,0,2D,3D,0.5,0.0896183734608901,0.848006138385994,0.151993861614006,0,0,-0.5,-0.455190683751628,0.5,0.431014023908205,0.79857580833938,1.00689555629816,3.19868679116186,0.5,0.173381121295293,0.768202375548672,0.5,0.910381367503256,0.675605013396027,0.497311029942302,3.47096809219869,0.5,104.514510069541
185,1,40,D,3,2,a,63,1,0.95,3D,2D,1,0,1,0,D32,3.28016429141418,3.31418600467253,0.999997109575913,0.00401574964529323,0.00401574964529323,0.044809316248372,0.044809316248372,0.992688249478295,0.5,0.044809316248372,0.044809316248372,0.5,0.999999999813553,0.044809316248372,0.5,0.00401574964529323,0.044809316248372,0.0896183734608901,2.48657580833938,1,1,0,3D,2D,0.0896183734608901,0.044809316248372,0.666666024348965,0.333333975651035,1,1,0.91038162653911,0.828794470118513,0.5,0.431014023908205,0.79857580833938,1.00689555629816,3.19868679116186,0.5,0.160052466617191,0.639355672541729,0.5,0.910381367503256,0.675605013396027,0.497311029942302,3.47096809219869,0.5,104.514510069541
185,1,41,B,3,1,l,27,1,0.95,3B,1B,0,1,0,1,B31,2.07712978098923,3.3322045101752,0.999997109575913,0.00401574964529323,0.00401574964529323,0.044809316248372,0.044809316248372,0.992688249478295,0.5,0.044809316248372,0.044809316248372,0.5,0.999999999813553,0.044809316248372,0.5,0.00401574964529323,0.044809316248372,0.918412843579403,2.51757580833938,0,0,1,1B,3B,0.992688249478295,0.044809316248372,0.956810196256232,0.0431898037437682,1,1,0.00731175052170452,0.00665648143879201,0.5,0.431014023908205,0.79857580833938,1.00689555629816,3.19868679116186,0.5,0.221509296706457,0.828859707110255,0.5,0.910381367503256,0.675605013396027,0.497311029942302,3.47096809219869,0.5,104.514510069541
185,1,42,D,3,0,a,9,1,0.95,3D,0D,1,0,1,0,D30,0.528204003674632,4.04305126783455,0.999997109575913,0.00401574964529323,0.00401574964529323,0.044809316248372,0.044809316248372,0.999344730917088,0.5,0.044809316248372,0.044809316248372,0.5,0.999999999813553,0.044809316248372,0.5,0.00401574964529323,0.044809316248372,0.918412843579403,1.60357580833938,0,0,1,0D,3D,0.5,0.918412843579403,0.352506678336496,0.647493321663504,0,0,-0.5,-0.455190683751628,0.5,0.431014023908205,0.79857580833938,1.00689555629816,3.19868679116186,0.5,0.11739002717933,0.375687107152761,0.5,0.910381367503256,0.675605013396027,0.497311029942302,3.47096809219869,0.5,104.514510069541
185,1,43,B,0,1,l,63,1,0.95,0B,1B,0,1,0,1,B01,1.16037147288495,2.67414864942653,0.999997109575913,0.00401574964529323,0.00401574964529323,0.044809316248372,0.044809316248372,0.999344730917088,0.5,0.044809316248372,0.044809316248372,0.5,0.999999999813553,0.044809316248372,0.044809316248372,0.00401574964529323,0.044809316248372,0.918412843579403,2.29757580833938,1,1,0,0B,1B,0.044809316248372,0.999344730917088,0.0429144687702115,0.957085531229789,0,0,-0.044809316248372,-0.0407935666030788,0.5,0.431014023908205,0.79857580833938,1.00689555629816,3.19868679116186,0.5,0.0507345813203279,0.170848863571494,0.5,0.910381367503256,0.675605013396027,0.497311029942302,3.47096809219869,0.5,104.514510069541
185,1,44,A,0,1,a,63,1,0.95,0A,1A,1,0,1,0,A01,3.49165074250469,2.97892515523761,0.999997109575913,0.00401574964529323,0.00401574964529323,0.044809316248372,0.00401574964529323,0.999344730917088,0.5,0.044809316248372,0.044809316248372,0.5,0.999999999813553,0.044809316248372,0.044809316248372,0.00401574964529323,0.044809316248372,0.918412843579403,2.71357580833938,1,1,0,0A,1A,0.999997109575913,0.00401574964529323,0.996000300585385,0.00399969941461524,1,1,2.89042408674334e-06,2.63138823275375e-06,0.5,0.431014023908205,0.79857580833938,1.00689555629816,3.19868679116186,0.5,0.207124463528804,0.847188608328102,0.5,0.910381367503256,0.675605013396027,0.497311029942302,3.47096809219869,0.5,104.514510069541
