ID,filename,session,trial,visStimLeft,visStimRight,correctKey,leftCorrect,rightCorrect,secondStim,mod2Type,mod2Stim,frequency,rewardAccurate,stimPairLeft,stimPairRight,pCorrectLeft,pCorrectRight,key,reactionTime,choiceLeft,choiceRight,choiceAccurate,reward,chosenPair,otherPair,triplet,surprise,0A belief,1A belief,2A belief,3A belief,0B belief,1B belief,2B belief,3B belief,0C belief,1C belief,2C belief,3C belief,0D belief,1D belief,2D belief,3D belief,beliefPairNorm,beliefOtherPairNorm,beliefPair,beliefOtherPair,lik,corrLik,rewardPE,update2,fitCBCsimpleRW_CBCdriftDiffusionLR_pwBelief_startBelief,fitCBCsimpleRW_CBCdriftDiffusionLR_pwBelief_alpha1,fitCBCsimpleRW_CBCdriftDiffusionLR_pwBelief_nonDecisionTime,fitCBCsimpleRW_CBCdriftDiffusionLR_pwBelief_weight,fitCBCsimpleRW_CBCdriftDiffusionLR_pwBelief_startingBoundary,fitCBCsimpleRW_CBCdriftDiffusionLR_pwBelief_startingPoint,fit_CBCsimpleRW_CBCdriftDiffusionLR_pwBelief_NLL
CBC_1072,CBC_1072_MSI_TV_v3_Vset5_Tset2_2024-02-02_14h13.45.206.csv,1,1,1,0,b,1,0,1,tac,B,63,1,1B,0B,1,0,z,2.51443319999998,0,1,0,0,0B,1B,B10,2.77258872223978,0.5,0.5,0.5,0.5,0.5,0.5,0.5,0.5,0.5,0.5,0.5,0.5,0.5,0.5,0.5,0.5,0.5,0.5,0.5,0.5,0.154225247971536,0.499754701425878,-0.5,-0.00104548473184612,0.5,0.00209096946369225,1.09967320918083,0.00871353560226062,2.21489311920188,0.5,71.2026672955485
CBC_1072,CBC_1072_MSI_TV_v3_Vset5_Tset2_2024-02-02_14h13.45.206.csv,1,2,0,1,b,1,0,0,tac,A,63,1,0A,1A,1,0,z,2.41368379999949,0,1,0,0,1A,0A,A01,2.83321334405622,0.5,0.5,0.5,0.5,0.498954515268154,0.5,0.5,0.5,0.5,0.5,0.5,0.5,0.5,0.5,0.5,0.5,0.5,0.5,0.5,0.5,0.170548713497731,0.499406695527482,-0.5,-0.00104548473184612,0.5,0.00209096946369225,1.09967320918083,0.00871353560226062,2.21489311920188,0.5,71.2026672955485
CBC_1072,CBC_1072_MSI_TV_v3_Vset5_Tset2_2024-02-02_14h13.45.206.csv,1,3,1,2,z,0,1,3,tac,C,9,1,1C,2C,0,1,b,2.45216210000035,1,0,0,0,1C,2C,C12,2.89037175789616,0.5,0.498954515268154,0.5,0.5,0.498954515268154,0.5,0.5,0.5,0.5,0.5,0.5,0.5,0.5,0.5,0.5,0.5,0.5,0.5,0.5,0.5,0.16411965364041,0.499536818237299,-0.5,-0.00104548473184612,0.5,0.00209096946369225,1.09967320918083,0.00871353560226062,2.21489311920188,0.5,71.2026672955485
CBC_1072,CBC_1072_MSI_TV_v3_Vset5_Tset2_2024-02-02_14h13.45.206.csv,1,4,1,0,z,0,1,0,tac,A,63,1,1A,0A,0,1,z,2.44689970000036,0,1,1,1,0A,1A,A10,2.94443897916644,0.5,0.498954515268154,0.5,0.5,0.498954515268154,0.5,0.5,0.5,0.5,0.498954515268154,0.5,0.5,0.5,0.5,0.5,0.5,0.501045484731846,0.498954515268154,0.5,0.498954515268154,0.165121895797169,0.499935125113634,0.5,0.00104548473184612,0.5,0.00209096946369225,1.09967320918083,0.00871353560226062,2.21489311920188,0.5,71.2026672955485
CBC_1072,CBC_1072_MSI_TV_v3_Vset5_Tset2_2024-02-02_14h13.45.206.csv,1,5,3,1,b,1,0,2,tac,D,27,1,3D,1D,1,0,b,2.7392006,1,0,1,1,3D,1D,D31,2.99573227355399,0.501045484731846,0.498954515268154,0.5,0.5,0.498954515268154,0.5,0.5,0.5,0.5,0.498954515268154,0.5,0.5,0.5,0.5,0.5,0.5,0.5,0.5,0.5,0.5,0.123062550083104,0.499928885349268,0.5,0.00104548473184612,0.5,0.00209096946369225,1.09967320918083,0.00871353560226062,2.21489311920188,0.5,71.2026672955485
CBC_1072,CBC_1072_MSI_TV_v3_Vset5_Tset2_2024-02-02_14h13.45.206.csv,1,6,0,1,z,0,1,1,tac,B,63,1,0B,1B,0,1,b,2.38905820000036,1,0,0,0,0B,1B,B01,3.04452243772342,0.501045484731846,0.498954515268154,0.5,0.5,0.498954515268154,0.5,0.5,0.5,0.5,0.498954515268154,0.5,0.5,0.5,0.5,0.5,0.501045484731846,0.498954515268154,0.501045484731846,0.498954515268154,0.5,0.175284916569946,0.50072545201316,-0.498954515268154,-0.00104329865519708,0.5,0.00209096946369225,1.09967320918083,0.00871353560226062,2.21489311920188,0.5,71.2026672955485
CBC_1072,CBC_1072_MSI_TV_v3_Vset5_Tset2_2024-02-02_14h13.45.206.csv,1,7,2,3,b,1,0,3,tac,C,63,1,2C,3C,1,0,z,2.32406830000036,0,1,0,0,3C,2C,C23,3.09104245335832,0.501045484731846,0.498954515268154,0.5,0.5,0.497911216612957,0.5,0.5,0.5,0.5,0.498954515268154,0.5,0.5,0.5,0.5,0.5,0.501045484731846,0.5,0.5,0.5,0.5,0.186677328061322,0.499554277013112,-0.5,-0.00104548473184612,0.5,0.00209096946369225,1.09967320918083,0.00871353560226062,2.21489311920188,0.5,71.2026672955485
CBC_1072,CBC_1072_MSI_TV_v3_Vset5_Tset2_2024-02-02_14h13.45.206.csv,1,8,2,0,z,0,1,0,tac,A,27,1,2A,0A,0,1,z,1.96673960000044,0,1,1,1,0A,2A,A20,3.13549421592915,0.501045484731846,0.498954515268154,0.5,0.5,0.497911216612957,0.5,0.5,0.5,0.5,0.498954515268154,0.5,0.498954515268154,0.5,0.5,0.5,0.501045484731846,0.501045484731846,0.498954515268154,0.501045484731846,0.5,0.266797634868208,0.49970808105442,0.498954515268154,0.00104329865519708,0.5,0.00209096946369225,1.09967320918083,0.00871353560226062,2.21489311920188,0.5,71.2026672955485
CBC_1072,CBC_1072_MSI_TV_v3_Vset5_Tset2_2024-02-02_14h13.45.206.csv,1,9,3,2,b,1,0,2,tac,D,63,1,3D,2D,1,0,z,2.86256230000072,0,1,0,0,2D,3D,D32,3.17805383034795,0.502088783387043,0.498954515268154,0.5,0.5,0.497911216612957,0.5,0.5,0.5,0.5,0.498954515268154,0.5,0.498954515268154,0.5,0.5,0.5,0.501045484731846,0.498954515268154,0.501045484731846,0.5,0.501045484731846,0.108702571468199,0.499934579320567,-0.5,-0.00104548473184612,0.5,0.00209096946369225,1.09967320918083,0.00871353560226062,2.21489311920188,0.5,71.2026672955485
CBC_1072,CBC_1072_MSI_TV_v3_Vset5_Tset2_2024-02-02_14h13.45.206.csv,1,10,3,1,z,0,1,1,tac,B,27,1,3B,1B,0,1,b,1.99888550000014,1,0,0,0,3B,1B,B31,3.2188758248682,0.502088783387043,0.498954515268154,0.5,0.5,0.497911216612957,0.5,0.5,0.5,0.5,0.498954515268154,0.5,0.498954515268154,0.5,0.5,0.498954515268154,0.501045484731846,0.5,0.5,0.5,0.5,0.258448686167556,0.499659965284355,-0.5,-0.00104548473184612,0.5,0.00209096946369225,1.09967320918083,0.00871353560226062,2.21489311920188,0.5,71.2026672955485
CBC_1072,CBC_1072_MSI_TV_v3_Vset5_Tset2_2024-02-02_14h13.45.206.csv,1,11,3,2,z,0,1,3,tac,C,63,1,3C,2C,0,1,b,2.62443100000019,1,0,0,0,3C,2C,C32,3.25809653802148,0.502088783387043,0.498954515268154,0.5,0.5,0.497911216612957,0.5,0.5,0.498954515268154,0.5,0.498954515268154,0.5,0.498954515268154,0.5,0.5,0.498954515268154,0.501045484731846,0.498954515268154,0.501045484731846,0.498954515268154,0.5,0.138007433163729,0.499516183395782,-0.498954515268154,-0.00104329865519708,0.5,0.00209096946369225,1.09967320918083,0.00871353560226062,2.21489311920188,0.5,71.2026672955485
CBC_1072,CBC_1072_MSI_TV_v3_Vset5_Tset2_2024-02-02_14h13.45.206.csv,1,12,1,3,b,1,0,1,tac,B,27,1,1B,3B,1,0,b,2.54836699999942,1,0,1,1,1B,3B,B13,3.29583686600433,0.502088783387043,0.498954515268154,0.5,0.5,0.497911216612957,0.5,0.5,0.498954515268154,0.5,0.498954515268154,0.5,0.497911216612957,0.5,0.5,0.498954515268154,0.501045484731846,0.501045484731846,0.498954515268154,0.5,0.498954515268154,0.1492860376506,0.500543280154358,0.5,0.00104548473184612,0.5,0.00209096946369225,1.09967320918083,0.00871353560226062,2.21489311920188,0.5,71.2026672955485
CBC_1072,CBC_1072_MSI_TV_v3_Vset5_Tset2_2024-02-02_14h13.45.206.csv,1,13,3,2,z,0,1,3,tac,C,63,1,3C,2C,0,1,b,2.42050850000032,1,0,0,0,3C,2C,C32,2.63905732961526,0.502088783387043,0.498954515268154,0.5,0.5,0.497911216612957,0.501045484731846,0.5,0.498954515268154,0.5,0.498954515268154,0.5,0.497911216612957,0.5,0.5,0.498954515268154,0.501045484731846,0.497911216612957,0.502088783387043,0.497911216612957,0.5,0.169437463955877,0.499568500973947,-0.497911216612957,-0.00104111714956755,0.5,0.00209096946369225,1.09967320918083,0.00871353560226062,2.21489311920188,0.5,71.2026672955485
CBC_1072,CBC_1072_MSI_TV_v3_Vset5_Tset2_2024-02-02_14h13.45.206.csv,1,14,3,2,b,1,0,2,tac,D,63,1,3D,2D,1,0,z,1.98047899999983,0,1,0,0,2D,3D,D32,2.67414864942653,0.502088783387043,0.498954515268154,0.5,0.5,0.497911216612957,0.501045484731846,0.5,0.498954515268154,0.5,0.498954515268154,0.5,0.496870099463389,0.5,0.5,0.498954515268154,0.501045484731846,0.497909039678307,0.502090960321693,0.498954515268154,0.501045484731846,0.26272369347762,0.498778887859934,-0.498954515268154,-0.00104329865519708,0.5,0.00209096946369225,1.09967320918083,0.00871353560226062,2.21489311920188,0.5,71.2026672955485
CBC_1072,CBC_1072_MSI_TV_v3_Vset5_Tset2_2024-02-02_14h13.45.206.csv,1,15,0,3,b,1,0,0,tac,A,9,1,0A,3A,1,0,b,2.71073080000042,1,0,1,1,0A,3A,A03,3.40119738166216,0.502088783387043,0.498954515268154,0.5,0.5,0.497911216612957,0.501045484731846,0.5,0.498954515268154,0.5,0.498954515268154,0.5,0.496870099463389,0.5,0.5,0.497911216612957,0.501045484731846,0.502088783387043,0.497911216612957,0.502088783387043,0.5,0.126760300923264,0.500413198963844,0.497911216612957,0.00104111714956755,0.5,0.00209096946369225,1.09967320918083,0.00871353560226062,2.21489311920188,0.5,71.2026672955485
CBC_1072,CBC_1072_MSI_TV_v3_Vset5_Tset2_2024-02-02_14h13.45.206.csv,1,16,0,1,z,0,1,1,tac,B,63,0,0B,1B,1,0,z,2.36452240000017,0,1,1,0,1B,0B,B01,2.7408400239252,0.503129900536611,0.498954515268154,0.5,0.5,0.497911216612957,0.501045484731846,0.5,0.498954515268154,0.5,0.498954515268154,0.5,0.496870099463389,0.5,0.5,0.497911216612957,0.501045484731846,0.503134240740781,0.496865759259219,0.501045484731846,0.497911216612957,0.179407281556156,0.500017454383348,-0.501045484731846,-0.00104767080849517,0.5,0.00209096946369225,1.09967320918083,0.00871353560226062,2.21489311920188,0.5,71.2026672955485
CBC_1072,CBC_1072_MSI_TV_v3_Vset5_Tset2_2024-02-02_14h13.45.206.csv,1,17,2,3,z,0,1,2,tac,D,63,1,2D,3D,0,1,z,2.31511970000065,0,1,1,1,3D,2D,D23,3.46573590279973,0.503129900536611,0.498954515268154,0.5,0.5,0.497911216612957,0.499997813923351,0.5,0.498954515268154,0.5,0.498954515268154,0.5,0.496870099463389,0.5,0.5,0.497911216612957,0.501045484731846,0.503134240740781,0.496865759259219,0.501045484731846,0.497911216612957,0.188735854563596,0.500542882152879,0.498954515268154,0.00104329865519708,0.5,0.00209096946369225,1.09967320918083,0.00871353560226062,2.21489311920188,0.5,71.2026672955485
CBC_1072,CBC_1072_MSI_TV_v3_Vset5_Tset2_2024-02-02_14h13.45.206.csv,1,18,0,2,z,0,1,3,tac,C,27,1,0C,2C,0,1,b,1.93151929999931,1,0,0,0,0C,2C,C02,3.49650756146648,0.503129900536611,0.498954515268154,0.5,0.5,0.497911216612957,0.499997813923351,0.5,0.498954515268154,0.5,0.498954515268154,0.5,0.496870099463389,0.5,0.5,0.497911216612957,0.502088783387043,0.5,0.5,0.5,0.5,0.27652798609693,0.500364317293931,-0.5,-0.00104548473184612,0.5,0.00209096946369225,1.09967320918083,0.00871353560226062,2.21489311920188,0.5,71.2026672955485
CBC_1072,CBC_1072_MSI_TV_v3_Vset5_Tset2_2024-02-02_14h13.45.206.csv,1,19,0,1,b,1,0,0,tac,A,63,1,0A,1A,1,0,b,1.35464270000011,1,0,1,1,0A,1A,A01,2.83321334405622,0.503129900536611,0.498954515268154,0.5,0.5,0.497911216612957,0.499997813923351,0.5,0.498954515268154,0.498954515268154,0.498954515268154,0.5,0.496870099463389,0.5,0.5,0.497911216612957,0.502088783387043,0.504175330617334,0.495824669382666,0.503129900536611,0.498954515268154,0.309821202627012,0.500136253886263,0.496870099463389,0.00103894020539968,0.5,0.00209096946369225,1.09967320918083,0.00871353560226062,2.21489311920188,0.5,71.2026672955485
CBC_1072,CBC_1072_MSI_TV_v3_Vset5_Tset2_2024-02-02_14h13.45.206.csv,1,20,1,0,b,1,0,1,tac,B,63,1,1B,0B,1,0,z,2.40167780000047,0,1,0,0,0B,1B,B10,2.86220088092947,0.50416884074201,0.498954515268154,0.5,0.5,0.497911216612957,0.499997813923351,0.5,0.498954515268154,0.498954515268154,0.498954515268154,0.5,0.496870099463389,0.5,0.5,0.497911216612957,0.502088783387043,0.497913402651494,0.502086597348506,0.497911216612957,0.499997813923351,0.172700148962502,0.499639738728413,-0.497911216612957,-0.00104111714956755,0.5,0.00209096946369225,1.09967320918083,0.00871353560226062,2.21489311920188,0.5,71.2026672955485
CBC_1072,CBC_1072_MSI_TV_v3_Vset5_Tset2_2024-02-02_14h13.45.206.csv,1,21,1,3,z,0,1,2,tac,D,27,1,1D,3D,0,1,z,1.82626430000073,0,1,1,1,3D,1D,D13,3.58351893845611,0.50416884074201,0.498954515268154,0.5,0.5,0.496870099463389,0.499997813923351,0.5,0.498954515268154,0.498954515268154,0.498954515268154,0.5,0.496870099463389,0.5,0.5,0.497911216612957,0.502088783387043,0.502088783387043,0.497911216612957,0.502088783387043,0.5,0.305904447881788,0.500395941451838,0.497911216612957,0.00104111714956755,0.5,0.00209096946369225,1.09967320918083,0.00871353560226062,2.21489311920188,0.5,71.2026672955485
CBC_1072,CBC_1072_MSI_TV_v3_Vset5_Tset2_2024-02-02_14h13.45.206.csv,1,22,3,2,z,0,1,3,tac,C,63,1,3C,2C,0,1,b,2.36074850000023,1,0,0,0,3C,2C,C32,2.51230562397611,0.50416884074201,0.498954515268154,0.5,0.5,0.496870099463389,0.499997813923351,0.5,0.498954515268154,0.498954515268154,0.498954515268154,0.5,0.496870099463389,0.5,0.5,0.497911216612957,0.503129900536611,0.496870099463389,0.503129900536611,0.496870099463389,0.5,0.180250296538993,0.500465250971259,-0.496870099463389,-0.00103894020539968,0.5,0.00209096946369225,1.09967320918083,0.00871353560226062,2.21489311920188,0.5,71.2026672955485
CBC_1072,CBC_1072_MSI_TV_v3_Vset5_Tset2_2024-02-02_14h13.45.206.csv,1,23,0,1,b,1,0,0,tac,A,63,1,0A,1A,1,0,z,1.36701110000013,0,1,0,0,1A,0A,A01,2.53897387105828,0.50416884074201,0.498954515268154,0.5,0.5,0.496870099463389,0.499997813923351,0.5,0.498954515268154,0.498954515268154,0.498954515268154,0.5,0.49583115925799,0.5,0.5,0.497911216612957,0.503129900536611,0.494785765430261,0.505214234569739,0.498954515268154,0.50416884074201,0.323216327955748,0.501191621612833,-0.498954515268154,-0.00104329865519708,0.5,0.00209096946369225,1.09967320918083,0.00871353560226062,2.21489311920188,0.5,71.2026672955485
CBC_1072,CBC_1072_MSI_TV_v3_Vset5_Tset2_2024-02-02_14h13.45.206.csv,1,24,2,3,z,0,1,2,tac,D,63,1,2D,3D,0,1,b,2.7732702000003,1,0,0,0,2D,3D,D23,2.9704144655697,0.50416884074201,0.497911216612957,0.5,0.5,0.496870099463389,0.499997813923351,0.5,0.498954515268154,0.498954515268154,0.498954515268154,0.5,0.49583115925799,0.5,0.5,0.497911216612957,0.503129900536611,0.494781452545208,0.505218547454792,0.497911216612957,0.503129900536611,0.119048173688125,0.50048193596659,-0.497911216612957,-0.00104111714956755,0.5,0.00209096946369225,1.09967320918083,0.00871353560226062,2.21489311920188,0.5,71.2026672955485
CBC_1072,CBC_1072_MSI_TV_v3_Vset5_Tset2_2024-02-02_14h13.45.206.csv,1,25,2,0,b,1,0,3,tac,C,27,1,2C,0C,1,0,z,2.65853770000012,0,1,0,0,0C,2C,C20,3.68887945411394,0.50416884074201,0.497911216612957,0.5,0.5,0.496870099463389,0.499997813923351,0.5,0.498954515268154,0.498954515268154,0.498954515268154,0.5,0.49583115925799,0.5,0.5,0.496870099463389,0.503129900536611,0.498954515268154,0.501045484731846,0.498954515268154,0.5,0.133612310821507,0.500486268458312,-0.498954515268154,-0.00104329865519708,0.5,0.00209096946369225,1.09967320918083,0.00871353560226062,2.21489311920188,0.5,71.2026672955485
CBC_1072,CBC_1072_MSI_TV_v3_Vset5_Tset2_2024-02-02_14h13.45.206.csv,1,26,0,1,b,1,0,0,tac,A,63,1,0A,1A,1,0,z,2.54486069999984,0,1,0,0,1A,0A,A01,2.32727770558442,0.50416884074201,0.497911216612957,0.5,0.5,0.496870099463389,0.499997813923351,0.5,0.498954515268154,0.497911216612957,0.498954515268154,0.5,0.49583115925799,0.5,0.5,0.496870099463389,0.503129900536611,0.493742593824045,0.506257406175955,0.497911216612957,0.50416884074201,0.149729760228291,0.500263797905428,-0.497911216612957,-0.00104111714956755,0.5,0.00209096946369225,1.09967320918083,0.00871353560226062,2.21489311920188,0.5,71.2026672955485
CBC_1072,CBC_1072_MSI_TV_v3_Vset5_Tset2_2024-02-02_14h13.45.206.csv,1,27,1,3,b,1,0,1,tac,B,27,1,1B,3B,1,0,z,1.39395419999983,0,1,0,0,3B,1B,B13,3.04452243772342,0.50416884074201,0.496870099463389,0.5,0.5,0.496870099463389,0.499997813923351,0.5,0.498954515268154,0.497911216612957,0.498954515268154,0.5,0.49583115925799,0.5,0.5,0.496870099463389,0.503129900536611,0.498956701335265,0.501043298664735,0.498954515268154,0.499997813923351,0.344449679471072,0.500015637074714,-0.498954515268154,-0.00104329865519708,0.5,0.00209096946369225,1.09967320918083,0.00871353560226062,2.21489311920188,0.5,71.2026672955485
CBC_1072,CBC_1072_MSI_TV_v3_Vset5_Tset2_2024-02-02_14h13.45.206.csv,1,28,3,2,z,0,1,3,tac,C,63,1,3C,2C,0,1,b,3.32132100000035,1,0,0,0,3C,2C,C32,2.37490575457367,0.50416884074201,0.496870099463389,0.5,0.5,0.496870099463389,0.499997813923351,0.5,0.497911216612957,0.497911216612957,0.498954515268154,0.5,0.49583115925799,0.5,0.5,0.496870099463389,0.503129900536611,0.49583115925799,0.50416884074201,0.49583115925799,0.5,0.0685109963130809,0.499860684122812,-0.49583115925799,-0.00103676781315558,0.5,0.00209096946369225,1.09967320918083,0.00871353560226062,2.21489311920188,0.5,71.2026672955485
CBC_1072,CBC_1072_MSI_TV_v3_Vset5_Tset2_2024-02-02_14h13.45.206.csv,1,29,3,2,b,1,0,2,tac,D,63,1,3D,2D,1,0,z,2.29305509999995,0,1,0,0,2D,3D,D32,2.68557734525015,0.50416884074201,0.496870099463389,0.5,0.5,0.496870099463389,0.499997813923351,0.5,0.497911216612957,0.497911216612957,0.498954515268154,0.5,0.494794391444834,0.5,0.5,0.496870099463389,0.503129900536611,0.493740444208157,0.506259555791843,0.496870099463389,0.503129900536611,0.192709207999734,0.499878404071163,-0.496870099463389,-0.00103894020539968,0.5,0.00209096946369225,1.09967320918083,0.00871353560226062,2.21489311920188,0.5,71.2026672955485
CBC_1072,CBC_1072_MSI_TV_v3_Vset5_Tset2_2024-02-02_14h13.45.206.csv,1,30,0,1,z,0,1,1,tac,B,63,1,0B,1B,0,1,z,2.14099660000011,0,1,1,1,1B,0B,B01,2.70805020110221,0.50416884074201,0.496870099463389,0.5,0.5,0.496870099463389,0.499997813923351,0.5,0.497911216612957,0.497911216612957,0.498954515268154,0.5,0.494794391444834,0.5,0.5,0.49583115925799,0.503129900536611,0.503127714545563,0.496872285454436,0.499997813923351,0.496870099463389,0.224919600175746,0.500922980926554,0.500002186076649,0.00104548930286564,0.5,0.00209096946369225,1.09967320918083,0.00871353560226062,2.21489311920188,0.5,71.2026672955485
CBC_1072,CBC_1072_MSI_TV_v3_Vset5_Tset2_2024-02-02_14h13.45.206.csv,1,31,2,0,z,0,1,0,tac,A,27,1,2A,0A,0,1,b,2.20762809999997,1,0,0,0,2A,0A,A20,3.13549421592915,0.50416884074201,0.496870099463389,0.5,0.5,0.496870099463389,0.501043303226217,0.5,0.497911216612957,0.497911216612957,0.498954515268154,0.5,0.494794391444834,0.5,0.5,0.49583115925799,0.503129900536611,0.49583115925799,0.50416884074201,0.5,0.50416884074201,0.209859507208034,0.499640147041401,-0.5,-0.00104548473184612,0.5,0.00209096946369225,1.09967320918083,0.00871353560226062,2.21489311920188,0.5,71.2026672955485
CBC_1072,CBC_1072_MSI_TV_v3_Vset5_Tset2_2024-02-02_14h13.45.206.csv,1,32,3,0,b,1,0,2,tac,D,9,1,3D,0D,1,0,z,1.43048149999959,0,1,0,0,0D,3D,D30,3.85014760171006,0.50416884074201,0.496870099463389,0.498954515268154,0.5,0.496870099463389,0.501043303226217,0.5,0.497911216612957,0.497911216612957,0.498954515268154,0.5,0.494794391444834,0.5,0.5,0.49583115925799,0.503129900536611,0.496870099463389,0.503129900536611,0.5,0.503129900536611,0.364095546427439,0.500459129736196,-0.5,-0.00104548473184612,0.5,0.00209096946369225,1.09967320918083,0.00871353560226062,2.21489311920188,0.5,71.2026672955485
CBC_1072,CBC_1072_MSI_TV_v3_Vset5_Tset2_2024-02-02_14h13.45.206.csv,1,33,3,2,z,0,1,3,tac,C,63,1,3C,2C,0,1,z,1.69322720000036,0,1,1,1,2C,3C,C32,2.26176309847379,0.50416884074201,0.496870099463389,0.498954515268154,0.5,0.496870099463389,0.501043303226217,0.5,0.497911216612957,0.497911216612957,0.498954515268154,0.5,0.494794391444834,0.498954515268154,0.5,0.49583115925799,0.503129900536611,0.505205608555166,0.494794391444834,0.5,0.494794391444834,0.34308806774851,0.499288261221807,0.5,0.00104548473184612,0.5,0.00209096946369225,1.09967320918083,0.00871353560226062,2.21489311920188,0.5,71.2026672955485
CBC_1072,CBC_1072_MSI_TV_v3_Vset5_Tset2_2024-02-02_14h13.45.206.csv,1,34,0,1,z,0,1,1,tac,B,63,1,0B,1B,0,1,z,1.41166150000026,0,1,1,1,1B,0B,B01,2.50552593699074,0.50416884074201,0.496870099463389,0.498954515268154,0.5,0.496870099463389,0.501043303226217,0.5,0.497911216612957,0.497911216612957,0.498954515268154,0.501045484731846,0.494794391444834,0.498954515268154,0.5,0.49583115925799,0.503129900536611,0.504173149254231,0.495826850745769,0.501043303226217,0.496870099463389,0.355576778492123,0.500601385121364,0.498956696773783,0.00104330321665873,0.5,0.00209096946369225,1.09967320918083,0.00871353560226062,2.21489311920188,0.5,71.2026672955485
CBC_1072,CBC_1072_MSI_TV_v3_Vset5_Tset2_2024-02-02_14h13.45.206.csv,1,35,0,1,b,1,0,0,tac,A,63,0,0A,1A,0,1,z,2.20469030000004,0,1,0,1,1A,0A,A01,2.30258509299405,0.50416884074201,0.496870099463389,0.498954515268154,0.5,0.496870099463389,0.502086606442875,0.5,0.497911216612957,0.497911216612957,0.498954515268154,0.501045484731846,0.494794391444834,0.498954515268154,0.5,0.49583115925799,0.503129900536611,0.492701639639063,0.507298360360937,0.496870099463389,0.50416884074201,0.210871436382116,0.50057271876909,0.503129900536611,0.00105202925829257,0.5,0.00209096946369225,1.09967320918083,0.00871353560226062,2.21489311920188,0.5,71.2026672955485
CBC_1072,CBC_1072_MSI_TV_v3_Vset5_Tset2_2024-02-02_14h13.45.206.csv,1,36,2,3,z,0,1,2,tac,D,63,1,2D,3D,0,1,b,1.7558927,1,0,0,0,2D,3D,D23,2.83321334405622,0.50416884074201,0.497922128721682,0.498954515268154,0.5,0.496870099463389,0.502086606442875,0.5,0.497911216612957,0.497911216612957,0.498954515268154,0.501045484731846,0.494794391444834,0.498954515268154,0.5,0.49583115925799,0.503129900536611,0.492701639639063,0.507298360360937,0.49583115925799,0.503129900536611,0.325898304471563,0.499997709994582,-0.49583115925799,-0.00103676781315558,0.5,0.00209096946369225,1.09967320918083,0.00871353560226062,2.21489311920188,0.5,71.2026672955485
CBC_1072,CBC_1072_MSI_TV_v3_Vset5_Tset2_2024-02-02_14h13.45.206.csv,1,37,1,2,b,1,0,1,tac,B,9,1,1B,2B,1,0,b,2.02328959999977,1,0,1,1,1B,2B,B12,3.95124371858143,0.50416884074201,0.497922128721682,0.498954515268154,0.5,0.496870099463389,0.502086606442875,0.5,0.497911216612957,0.497911216612957,0.498954515268154,0.501045484731846,0.494794391444834,0.498954515268154,0.5,0.494794391444834,0.503129900536611,0.502086606442875,0.497913393557125,0.502086606442875,0.5,0.252603149461535,0.500302568102724,0.497913393557125,0.00104112170149133,0.5,0.00209096946369225,1.09967320918083,0.00871353560226062,2.21489311920188,0.5,71.2026672955485
CBC_1072,CBC_1072_MSI_TV_v3_Vset5_Tset2_2024-02-02_14h13.45.206.csv,1,38,2,0,z,0,1,0,tac,A,27,1,2A,0A,0,1,z,2.65438059999997,0,1,1,1,0A,2A,A20,2.87167962488401,0.50416884074201,0.497922128721682,0.498954515268154,0.5,0.496870099463389,0.503127728144367,0.5,0.497911216612957,0.497911216612957,0.498954515268154,0.501045484731846,0.494794391444834,0.498954515268154,0.5,0.494794391444834,0.503129900536611,0.505214234569739,0.494785765430261,0.50416884074201,0.498954515268154,0.133967018925626,0.499721009193006,0.49583115925799,0.00103676781315558,0.5,0.00209096946369225,1.09967320918083,0.00871353560226062,2.21489311920188,0.5,71.2026672955485
CBC_1072,CBC_1072_MSI_TV_v3_Vset5_Tset2_2024-02-02_14h13.45.206.csv,1,39,2,3,b,1,0,3,tac,C,63,1,2C,3C,1,0,b,2.24384069999996,1,0,1,1,2C,3C,C23,3.29583686600433,0.505205608555166,0.497922128721682,0.498954515268154,0.5,0.496870099463389,0.503127728144367,0.5,0.497911216612957,0.497911216612957,0.498954515268154,0.501045484731846,0.494794391444834,0.498954515268154,0.5,0.494794391444834,0.503129900536611,0.506250957206568,0.493749042793432,0.501045484731846,0.494794391444834,0.202516892374006,0.4999951471958,0.498954515268154,0.00104329865519708,0.5,0.00209096946369225,1.09967320918083,0.00871353560226062,2.21489311920188,0.5,71.2026672955485
CBC_1072,CBC_1072_MSI_TV_v3_Vset5_Tset2_2024-02-02_14h13.45.206.csv,1,40,1,3,z,0,1,2,tac,D,27,1,1D,3D,0,1,z,2.02191720000064,0,1,1,1,3D,1D,D13,3.31418600467253,0.505205608555166,0.497922128721682,0.498954515268154,0.5,0.496870099463389,0.503127728144367,0.5,0.497911216612957,0.497911216612957,0.498954515268154,0.502088783387043,0.494794391444834,0.498954515268154,0.5,0.494794391444834,0.503129900536611,0.503129900536611,0.496870099463389,0.503129900536611,0.5,0.252776006194258,0.499964142918934,0.496870099463389,0.00103894020539968,0.5,0.00209096946369225,1.09967320918083,0.00871353560226062,2.21489311920188,0.5,71.2026672955485
CBC_1072,CBC_1072_MSI_TV_v3_Vset5_Tset2_2024-02-02_14h13.45.206.csv,1,41,0,1,b,1,0,0,tac,A,63,1,0A,1A,1,0,b,3.01752279999982,1,0,1,1,0A,1A,A01,2.23359222150709,0.505205608555166,0.497922128721682,0.498954515268154,0.5,0.496870099463389,0.503127728144367,0.5,0.497911216612957,0.497911216612957,0.498954515268154,0.502088783387043,0.494794391444834,0.498954515268154,0.5,0.494794391444834,0.50416884074201,0.507283164717618,0.492716835282382,0.505205608555166,0.497922128721682,0.092929111089526,0.49948407416839,0.494794391444834,0.00103459996331734,0.5,0.00209096946369225,1.09967320918083,0.00871353560226062,2.21489311920188,0.5,71.2026672955485
CBC_1072,CBC_1072_MSI_TV_v3_Vset5_Tset2_2024-02-02_14h13.45.206.csv,1,42,0,2,z,0,1,3,tac,C,27,1,0C,2C,0,1,b,1.69587430000047,1,0,0,0,0C,2C,C02,3.3499040872746,0.506240208518483,0.497922128721682,0.498954515268154,0.5,0.496870099463389,0.503127728144367,0.5,0.497911216612957,0.497911216612957,0.498954515268154,0.502088783387043,0.494794391444834,0.498954515268154,0.5,0.494794391444834,0.50416884074201,0.495822506131805,0.504177493868196,0.497911216612957,0.502088783387043,0.342691760009761,0.499768439633821,-0.497911216612957,-0.00104111714956755,0.5,0.00209096946369225,1.09967320918083,0.00871353560226062,2.21489311920188,0.5,71.2026672955485
CBC_1072,CBC_1072_MSI_TV_v3_Vset5_Tset2_2024-02-02_14h13.45.206.csv,1,43,3,2,b,1,0,2,tac,D,63,1,3D,2D,1,0,b,1.60240040000008,1,0,1,1,3D,2D,D32,2.67414864942653,0.506240208518483,0.497922128721682,0.498954515268154,0.5,0.496870099463389,0.503127728144367,0.5,0.497911216612957,0.496870099463389,0.498954515268154,0.502088783387043,0.494794391444834,0.498954515268154,0.5,0.494794391444834,0.50416884074201,0.509373635614874,0.490626364385126,0.50416884074201,0.494794391444834,0.365567974274845,0.499487738636587,0.49583115925799,0.00103676781315558,0.5,0.00209096946369225,1.09967320918083,0.00871353560226062,2.21489311920188,0.5,71.2026672955485
CBC_1072,CBC_1072_MSI_TV_v3_Vset5_Tset2_2024-02-02_14h13.45.206.csv,1,44,1,0,b,1,0,1,tac,B,63,1,1B,0B,1,0,z,2.43331160000071,0,1,0,0,0B,1B,B10,2.97892515523761,0.506240208518483,0.497922128721682,0.498954515268154,0.5,0.496870099463389,0.503127728144367,0.5,0.497911216612957,0.496870099463389,0.498954515268154,0.502088783387043,0.494794391444834,0.498954515268154,0.5,0.494794391444834,0.505205608555166,0.493742616345101,0.506257383654899,0.496870099463389,0.503127728144367,0.167253545862426,0.499517950500887,-0.496870099463389,-0.00103894020539968,0.5,0.00209096946369225,1.09967320918083,0.00871353560226062,2.21489311920188,0.5,71.2026672955485
CBC_1072,CBC_1072_MSI_AV_v3_Vset6_Aset2_2024-02-02_15h59.48.628.csv,2,1,1,0,b,1,0,1,aud,B,63,1,1B,0B,1,0,b,2.82828010000048,1,0,1,1,1B,0B,B10,2.77258872223978,0.5,0.5,0.5,0.5,0.5,0.5,0.5,0.5,0.5,0.5,0.5,0.5,0.5,0.5,0.5,0.5,0.5,0.5,0.5,0.5,0.127052130987135,0.500181240520515,0.5,0.0300922532997615,0.5,0.0601845065995229,1.09657085008049,0.952006068503808,2.47293080670736,0.5,73.4165162644047
CBC_1072,CBC_1072_MSI_AV_v3_Vset6_Aset2_2024-02-02_15h59.48.628.csv,2,2,3,2,b,1,0,2,aud,D,63,1,3D,2D,1,0,z,1.51599950000127,0,1,0,0,2D,3D,D32,2.83321334405622,0.5,0.5,0.5,0.5,0.5,0.530092253299761,0.5,0.5,0.5,0.5,0.5,0.5,0.5,0.5,0.5,0.5,0.5,0.5,0.5,0.5,0.2931373495394,0.499405697712762,-0.5,-0.0300922532997615,0.5,0.0601845065995229,1.09657085008049,0.952006068503808,2.47293080670736,0.5,73.4165162644047
CBC_1072,CBC_1072_MSI_AV_v3_Vset6_Aset2_2024-02-02_15h59.48.628.csv,2,3,3,1,z,0,1,1,aud,B,27,1,3B,1B,0,1,b,1.72579860000042,1,0,0,0,3B,1B,B31,2.89037175789616,0.5,0.5,0.5,0.5,0.5,0.530092253299761,0.5,0.5,0.5,0.5,0.5,0.5,0.5,0.5,0.469907746700239,0.5,0.469907746700239,0.530092253299761,0.5,0.530092253299761,0.272989143218432,0.464821936394825,-0.5,-0.0300922532997615,0.5,0.0601845065995229,1.09657085008049,0.952006068503808,2.47293080670736,0.5,73.4165162644047
CBC_1072,CBC_1072_MSI_AV_v3_Vset6_Aset2_2024-02-02_15h59.48.628.csv,2,4,2,3,b,1,0,3,aud,C,63,1,2C,3C,1,0,b,2.04879269999947,1,0,1,1,2C,3C,C23,2.94443897916644,0.5,0.5,0.5,0.5,0.5,0.530092253299761,0.5,0.469907746700239,0.5,0.5,0.5,0.5,0.5,0.5,0.469907746700239,0.5,0.5,0.5,0.5,0.5,0.236331978590538,0.499197248554075,0.5,0.0300922532997615,0.5,0.0601845065995229,1.09657085008049,0.952006068503808,2.47293080670736,0.5,73.4165162644047
CBC_1072,CBC_1072_MSI_AV_v3_Vset6_Aset2_2024-02-02_15h59.48.628.csv,2,5,0,2,z,0,1,3,aud,C,27,1,0C,2C,0,1,z,1.44874739999977,0,1,1,1,2C,0C,C02,2.99573227355399,0.5,0.5,0.5,0.5,0.5,0.530092253299761,0.5,0.469907746700239,0.5,0.5,0.530092253299761,0.5,0.5,0.5,0.469907746700239,0.5,0.530092253299761,0.469907746700239,0.530092253299761,0.5,0.289468969737087,0.536295160941035,0.469907746700239,0.0282811658824474,0.5,0.0601845065995229,1.09657085008049,0.952006068503808,2.47293080670736,0.5,73.4165162644047
CBC_1072,CBC_1072_MSI_AV_v3_Vset6_Aset2_2024-02-02_15h59.48.628.csv,2,6,0,3,b,1,0,0,aud,A,9,1,0A,3A,1,0,b,2.5882158000004,1,0,1,1,0A,3A,A03,3.04452243772342,0.5,0.5,0.5,0.5,0.5,0.530092253299761,0.5,0.469907746700239,0.5,0.5,0.558373419182209,0.5,0.5,0.5,0.469907746700239,0.5,0.5,0.5,0.5,0.5,0.153921068595548,0.499320825790177,0.5,0.0300922532997615,0.5,0.0601845065995229,1.09657085008049,0.952006068503808,2.47293080670736,0.5,73.4165162644047
CBC_1072,CBC_1072_MSI_AV_v3_Vset6_Aset2_2024-02-02_15h59.48.628.csv,2,7,2,3,b,1,0,3,aud,C,63,1,2C,3C,1,0,z,2.33727270000054,0,1,0,0,3C,2C,C23,2.39789527279837,0.530092253299761,0.5,0.5,0.5,0.5,0.530092253299761,0.5,0.469907746700239,0.5,0.5,0.558373419182209,0.5,0.5,0.5,0.469907746700239,0.5,0.441626580817791,0.558373419182209,0.5,0.558373419182209,0.163262956167861,0.432137692855714,-0.5,-0.0300922532997615,0.5,0.0601845065995229,1.09657085008049,0.952006068503808,2.47293080670736,0.5,73.4165162644047
CBC_1072,CBC_1072_MSI_AV_v3_Vset6_Aset2_2024-02-02_15h59.48.628.csv,2,8,1,0,z,0,1,0,aud,A,63,1,1A,0A,0,1,z,2.37405100000069,0,1,1,1,0A,1A,A10,3.13549421592915,0.530092253299761,0.5,0.5,0.5,0.5,0.530092253299761,0.5,0.469907746700239,0.5,0.5,0.558373419182209,0.469907746700239,0.5,0.5,0.469907746700239,0.5,0.530092253299761,0.469907746700239,0.530092253299761,0.5,0.196094998208836,0.535268817345724,0.469907746700239,0.0282811658824474,0.5,0.0601845065995229,1.09657085008049,0.952006068503808,2.47293080670736,0.5,73.4165162644047
CBC_1072,CBC_1072_MSI_AV_v3_Vset6_Aset2_2024-02-02_15h59.48.628.csv,2,9,2,3,z,0,1,2,aud,D,63,1,2D,3D,0,1,z,1.91795370000182,0,1,1,1,3D,2D,D23,3.17805383034795,0.558373419182209,0.5,0.5,0.5,0.5,0.530092253299761,0.5,0.469907746700239,0.5,0.5,0.558373419182209,0.469907746700239,0.5,0.5,0.469907746700239,0.5,0.530092253299761,0.469907746700239,0.5,0.469907746700239,0.279246729993291,0.534735041020657,0.5,0.0300922532997615,0.5,0.0601845065995229,1.09657085008049,0.952006068503808,2.47293080670736,0.5,73.4165162644047
CBC_1072,CBC_1072_MSI_AV_v3_Vset6_Aset2_2024-02-02_15h59.48.628.csv,2,10,3,2,z,0,1,3,aud,C,63,1,3C,2C,0,1,b,2.39705230000072,1,0,0,0,3C,2C,C32,3.2188758248682,0.558373419182209,0.5,0.5,0.5,0.5,0.530092253299761,0.5,0.469907746700239,0.5,0.5,0.558373419182209,0.469907746700239,0.5,0.5,0.469907746700239,0.530092253299761,0.412151581330451,0.587848418669549,0.469907746700239,0.558373419182209,0.1435918441695,0.398206693798172,-0.469907746700239,-0.0282811658824474,0.5,0.0601845065995229,1.09657085008049,0.952006068503808,2.47293080670736,0.5,73.4165162644047
CBC_1072,CBC_1072_MSI_AV_v3_Vset6_Aset2_2024-02-02_15h59.48.628.csv,2,11,3,1,b,1,0,2,aud,D,27,1,3D,1D,1,0,b,2.41847349999989,1,0,1,1,3D,1D,D31,3.25809653802148,0.558373419182209,0.5,0.5,0.5,0.5,0.530092253299761,0.5,0.469907746700239,0.5,0.5,0.558373419182209,0.441626580817791,0.5,0.5,0.469907746700239,0.530092253299761,0.530092253299761,0.469907746700239,0.530092253299761,0.5,0.18952054859298,0.536128479870648,0.469907746700239,0.0282811658824474,0.5,0.0601845065995229,1.09657085008049,0.952006068503808,2.47293080670736,0.5,73.4165162644047
CBC_1072,CBC_1072_MSI_AV_v3_Vset6_Aset2_2024-02-02_15h59.48.628.csv,2,12,0,1,b,1,0,0,aud,A,63,0,0A,1A,0,1,b,2.1558700000005,1,0,1,0,0A,1A,A01,3.29583686600433,0.558373419182209,0.5,0.5,0.5,0.5,0.530092253299761,0.5,0.469907746700239,0.5,0.5,0.558373419182209,0.441626580817791,0.5,0.5,0.469907746700239,0.558373419182209,0.558373419182209,0.441626580817791,0.558373419182209,0.5,0.248109567607451,0.567920705000588,-0.558373419182209,-0.0336054287317698,0.5,0.0601845065995229,1.09657085008049,0.952006068503808,2.47293080670736,0.5,73.4165162644047
CBC_1072,CBC_1072_MSI_AV_v3_Vset6_Aset2_2024-02-02_15h59.48.628.csv,2,13,3,2,z,0,1,3,aud,C,63,1,3C,2C,0,1,b,2.8351928000011,1,0,0,0,3C,2C,C32,2.63905732961526,0.524767990450439,0.5,0.5,0.5,0.5,0.530092253299761,0.5,0.469907746700239,0.5,0.5,0.558373419182209,0.441626580817791,0.5,0.5,0.469907746700239,0.558373419182209,0.384823003852795,0.615176996147205,0.441626580817791,0.558373419182209,0.0923366091496292,0.367559323231892,-0.441626580817791,-0.0265790778677531,0.5,0.0601845065995229,1.09657085008049,0.952006068503808,2.47293080670736,0.5,73.4165162644047
CBC_1072,CBC_1072_MSI_AV_v3_Vset6_Aset2_2024-02-02_15h59.48.628.csv,2,14,2,0,z,0,1,0,aud,A,27,1,2A,0A,0,1,z,2.07072110000081,0,1,1,1,0A,2A,A20,3.36729582998647,0.524767990450439,0.5,0.5,0.5,0.5,0.530092253299761,0.5,0.469907746700239,0.5,0.5,0.558373419182209,0.415047502950038,0.5,0.5,0.469907746700239,0.558373419182209,0.524767990450439,0.475232009549561,0.524767990450439,0.5,0.246453994292995,0.529094829611147,0.475232009549561,0.0286016040150401,0.5,0.0601845065995229,1.09657085008049,0.952006068503808,2.47293080670736,0.5,73.4165162644047
CBC_1072,CBC_1072_MSI_AV_v3_Vset6_Aset2_2024-02-02_15h59.48.628.csv,2,15,1,0,b,1,0,1,aud,B,63,1,1B,0B,1,0,b,2.34016110000084,1,0,1,1,1B,0B,B10,2.70805020110221,0.553369594465479,0.5,0.5,0.5,0.5,0.530092253299761,0.5,0.469907746700239,0.5,0.5,0.558373419182209,0.415047502950038,0.5,0.5,0.469907746700239,0.558373419182209,0.530092253299761,0.469907746700239,0.530092253299761,0.5,0.201324220416144,0.534797678065011,0.469907746700239,0.0282811658824474,0.5,0.0601845065995229,1.09657085008049,0.952006068503808,2.47293080670736,0.5,73.4165162644047
CBC_1072,CBC_1072_MSI_AV_v3_Vset6_Aset2_2024-02-02_15h59.48.628.csv,2,16,2,3,z,0,1,2,aud,D,63,1,2D,3D,0,1,b,2.51818490000005,1,0,0,0,2D,3D,D23,2.7408400239252,0.553369594465479,0.5,0.5,0.5,0.5,0.558373419182209,0.5,0.469907746700239,0.5,0.5,0.558373419182209,0.415047502950038,0.5,0.5,0.469907746700239,0.558373419182209,0.412151581330451,0.587848418669549,0.469907746700239,0.558373419182209,0.129831518694388,0.397536376166832,-0.469907746700239,-0.0282811658824474,0.5,0.0601845065995229,1.09657085008049,0.952006068503808,2.47293080670736,0.5,73.4165162644047
CBC_1072,CBC_1072_MSI_AV_v3_Vset6_Aset2_2024-02-02_15h59.48.628.csv,2,17,2,1,z,0,1,1,aud,B,9,1,2B,1B,NaN,NaN,[],NaN,NaN,NaN,NaN,NaN,,,B21,3.46573590279973,0.553369594465479,0.5,0.5,0.5,0.5,0.558373419182209,0.5,0.469907746700239,0.5,0.5,0.558373419182209,0.415047502950038,0.5,0.5,0.441626580817791,0.558373419182209,0,0,0,0,NaN,0,0,0,0.5,0.0601845065995229,1.09657085008049,0.952006068503808,2.47293080670736,0.5,73.4165162644047
CBC_1072,CBC_1072_MSI_AV_v3_Vset6_Aset2_2024-02-02_15h59.48.628.csv,2,18,3,1,b,1,0,2,aud,D,27,1,3D,1D,1,0,b,3.50824370000191,1,0,1,1,3D,1D,D31,2.80336038090653,0.553369594465479,0.5,0.5,0.5,0.5,0.558373419182209,0.5,0.469907746700239,0.5,0.5,0.558373419182209,0.415047502950038,0.5,0.5,0.441626580817791,0.558373419182209,0.558373419182209,0.441626580817791,0.558373419182209,0.5,0.082898908008841,0.567977365652917,0.441626580817791,0.0265790778677531,0.5,0.0601845065995229,1.09657085008049,0.952006068503808,2.47293080670736,0.5,73.4165162644047
CBC_1072,CBC_1072_MSI_AV_v3_Vset6_Aset2_2024-02-02_15h59.48.628.csv,2,19,1,0,z,0,1,0,aud,A,63,1,1A,0A,0,1,z,2.65651610000168,0,1,1,1,0A,1A,A10,2.83321334405622,0.553369594465479,0.5,0.5,0.5,0.5,0.558373419182209,0.5,0.469907746700239,0.5,0.5,0.558373419182209,0.415047502950038,0.5,0.5,0.441626580817791,0.584952497049962,0.553369594465479,0.446630405534521,0.553369594465479,0.5,0.163835014385704,0.561655752494605,0.446630405534521,0.02688023058944,0.5,0.0601845065995229,1.09657085008049,0.952006068503808,2.47293080670736,0.5,73.4165162644047
CBC_1072,CBC_1072_MSI_AV_v3_Vset6_Aset2_2024-02-02_15h59.48.628.csv,2,20,0,1,b,1,0,0,aud,A,63,1,0A,1A,1,0,z,2.01329609999993,0,1,0,0,1A,0A,A01,2.86220088092947,0.580249825054919,0.5,0.5,0.5,0.5,0.558373419182209,0.5,0.469907746700239,0.5,0.5,0.558373419182209,0.415047502950038,0.5,0.5,0.441626580817791,0.584952497049962,0.419750174945081,0.580249825054919,0.5,0.580249825054919,0.198649212783836,0.4054954421054,-0.5,-0.0300922532997615,0.5,0.0601845065995229,1.09657085008049,0.952006068503808,2.47293080670736,0.5,73.4165162644047
CBC_1072,CBC_1072_MSI_AV_v3_Vset6_Aset2_2024-02-02_15h59.48.628.csv,2,21,0,2,z,0,1,3,aud,C,27,1,0C,2C,0,1,b,2.34306689999903,1,0,0,0,0C,2C,C02,2.89037175789616,0.580249825054919,0.469907746700239,0.5,0.5,0.5,0.558373419182209,0.5,0.469907746700239,0.5,0.5,0.558373419182209,0.415047502950038,0.5,0.5,0.441626580817791,0.584952497049962,0.441626580817791,0.558373419182209,0.5,0.558373419182209,0.162635180131537,0.432500718415655,-0.5,-0.0300922532997615,0.5,0.0601845065995229,1.09657085008049,0.952006068503808,2.47293080670736,0.5,73.4165162644047
CBC_1072,CBC_1072_MSI_AV_v3_Vset6_Aset2_2024-02-02_15h59.48.628.csv,2,22,1,0,b,1,0,1,aud,B,63,1,1B,0B,1,0,b,2.44834889999947,1,0,1,1,1B,0B,B10,2.51230562397611,0.580249825054919,0.469907746700239,0.5,0.5,0.5,0.558373419182209,0.5,0.469907746700239,0.469907746700239,0.5,0.558373419182209,0.415047502950038,0.5,0.5,0.441626580817791,0.584952497049962,0.558373419182209,0.441626580817791,0.558373419182209,0.5,0.19597783182504,0.567474140330711,0.441626580817791,0.0265790778677531,0.5,0.0601845065995229,1.09657085008049,0.952006068503808,2.47293080670736,0.5,73.4165162644047
CBC_1072,CBC_1072_MSI_AV_v3_Vset6_Aset2_2024-02-02_15h59.48.628.csv,2,23,0,2,z,0,1,3,aud,C,27,1,0C,2C,0,1,b,3.15824770000108,1,0,0,0,0C,2C,C02,2.53897387105828,0.580249825054919,0.469907746700239,0.5,0.5,0.5,0.584952497049962,0.5,0.469907746700239,0.469907746700239,0.5,0.558373419182209,0.415047502950038,0.5,0.5,0.441626580817791,0.584952497049962,0.412151581330451,0.587848418669549,0.469907746700239,0.558373419182209,0.0767134046334999,0.397191073792294,-0.469907746700239,-0.0282811658824474,0.5,0.0601845065995229,1.09657085008049,0.952006068503808,2.47293080670736,0.5,73.4165162644047
CBC_1072,CBC_1072_MSI_AV_v3_Vset6_Aset2_2024-02-02_15h59.48.628.csv,2,24,2,3,z,0,1,2,aud,D,63,1,2D,3D,0,1,z,2.38521550000041,0,1,1,1,3D,2D,D23,2.56494935746154,0.580249825054919,0.469907746700239,0.5,0.5,0.5,0.584952497049962,0.5,0.469907746700239,0.441626580817791,0.5,0.558373419182209,0.415047502950038,0.5,0.5,0.441626580817791,0.584952497049962,0.640538218280169,0.359461781719831,0.584952497049962,0.441626580817791,0.241155874193491,0.659424236231916,0.415047502950038,0.0249794291804121,0.5,0.0601845065995229,1.09657085008049,0.952006068503808,2.47293080670736,0.5,73.4165162644047
CBC_1072,CBC_1072_MSI_AV_v3_Vset6_Aset2_2024-02-02_15h59.48.628.csv,2,25,0,1,b,1,0,0,aud,A,63,1,0A,1A,1,0,b,2.47196890000123,1,0,1,1,0A,1A,A01,2.59026716544583,0.580249825054919,0.469907746700239,0.5,0.5,0.5,0.584952497049962,0.5,0.469907746700239,0.441626580817791,0.5,0.558373419182209,0.415047502950038,0.5,0.5,0.441626580817791,0.609931926230374,0.609286416136204,0.390713583863796,0.580249825054919,0.469907746700239,0.212484438312129,0.625862392229919,0.419750174945081,0.0252624571741331,0.5,0.0601845065995229,1.09657085008049,0.952006068503808,2.47293080670736,0.5,73.4165162644047
CBC_1072,CBC_1072_MSI_AV_v3_Vset6_Aset2_2024-02-02_15h59.48.628.csv,2,26,2,3,b,1,0,3,aud,C,63,1,2C,3C,1,0,z,3.01185850000184,0,1,0,0,3C,2C,C23,2.6149597780362,0.605512282229052,0.469907746700239,0.5,0.5,0.5,0.584952497049962,0.5,0.469907746700239,0.441626580817791,0.5,0.558373419182209,0.415047502950038,0.5,0.5,0.441626580817791,0.609931926230374,0.35946178171983,0.64053821828017,0.415047502950038,0.558373419182209,0.0735752607393635,0.340865551320666,-0.415047502950038,-0.0249794291804121,0.5,0.0601845065995229,1.09657085008049,0.952006068503808,2.47293080670736,0.5,73.4165162644047
CBC_1072,CBC_1072_MSI_AV_v3_Vset6_Aset2_2024-02-02_15h59.48.628.csv,2,27,0,2,b,1,0,0,aud,A,27,1,0A,2A,1,0,z,2.45972560000155,0,1,0,0,2A,0A,A02,3.73766961828337,0.605512282229052,0.469907746700239,0.5,0.5,0.5,0.584952497049962,0.5,0.469907746700239,0.441626580817791,0.5,0.558373419182209,0.390068073769626,0.5,0.5,0.441626580817791,0.609931926230374,0.394487717770948,0.605512282229052,0.5,0.605512282229052,0.129593421397782,0.377939082458543,-0.5,-0.0300922532997615,0.5,0.0601845065995229,1.09657085008049,0.952006068503808,2.47293080670736,0.5,73.4165162644047
CBC_1072,CBC_1072_MSI_AV_v3_Vset6_Aset2_2024-02-02_15h59.48.628.csv,2,28,2,3,z,0,1,2,aud,D,63,1,2D,3D,0,1,z,3.11460650000117,0,1,1,1,3D,2D,D23,2.37490575457367,0.605512282229052,0.469907746700239,0.469907746700239,0.5,0.5,0.584952497049962,0.5,0.469907746700239,0.441626580817791,0.5,0.558373419182209,0.390068073769626,0.5,0.5,0.441626580817791,0.609931926230374,0.664093330583096,0.335906669416904,0.609931926230374,0.441626580817791,0.134509764130865,0.684617545583373,0.390068073769626,0.0234760545600512,0.5,0.0601845065995229,1.09657085008049,0.952006068503808,2.47293080670736,0.5,73.4165162644047
CBC_1072,CBC_1072_MSI_AV_v3_Vset6_Aset2_2024-02-02_15h59.48.628.csv,2,29,2,3,z,0,1,2,aud,D,63,1,2D,3D,0,1,z,2.69712590000017,0,1,1,1,3D,2D,D23,2.17475172148416,0.605512282229052,0.469907746700239,0.469907746700239,0.5,0.5,0.584952497049962,0.5,0.469907746700239,0.441626580817791,0.5,0.558373419182209,0.390068073769626,0.5,0.5,0.441626580817791,0.633407980790425,0.685987892026258,0.314012107973742,0.633407980790425,0.441626580817791,0.197815759858753,0.705795803892237,0.366592019209575,0.0220631597994511,0.5,0.0601845065995229,1.09657085008049,0.952006068503808,2.47293080670736,0.5,73.4165162644047
CBC_1072,CBC_1072_MSI_AV_v3_Vset6_Aset2_2024-02-02_15h59.48.628.csv,2,30,1,3,b,1,0,1,aud,B,27,1,1B,3B,1,0,b,1.57309730000088,1,0,1,1,1B,3B,B13,3.80666248977032,0.605512282229052,0.469907746700239,0.469907746700239,0.5,0.5,0.584952497049962,0.5,0.469907746700239,0.441626580817791,0.5,0.558373419182209,0.390068073769626,0.5,0.5,0.441626580817791,0.655471140589876,0.613880250962051,0.386119749037949,0.584952497049962,0.469907746700239,0.389847488178224,0.630979307570099,0.415047502950038,0.0249794291804121,0.5,0.0601845065995229,1.09657085008049,0.952006068503808,2.47293080670736,0.5,73.4165162644047
CBC_1072,CBC_1072_MSI_AV_v3_Vset6_Aset2_2024-02-02_15h59.48.628.csv,2,31,3,0,b,1,0,2,aud,D,9,1,3D,0D,1,0,b,2.29181530000096,1,0,1,1,3D,0D,D30,3.8286413964891,0.605512282229052,0.469907746700239,0.469907746700239,0.5,0.5,0.609931926230374,0.5,0.469907746700239,0.441626580817791,0.5,0.558373419182209,0.390068073769626,0.5,0.5,0.441626580817791,0.655471140589876,0.655471140589876,0.344528859410124,0.655471140589876,0.5,0.267542144465759,0.675122079894323,0.344528859410124,0.0207352994128947,0.5,0.0601845065995229,1.09657085008049,0.952006068503808,2.47293080670736,0.5,73.4165162644047
CBC_1072,CBC_1072_MSI_AV_v3_Vset6_Aset2_2024-02-02_15h59.48.628.csv,2,32,0,1,z,0,1,1,aud,B,63,1,0B,1B,0,1,z,2.23978080000052,0,1,1,1,1B,0B,B01,3.85014760171006,0.605512282229052,0.469907746700239,0.469907746700239,0.5,0.5,0.609931926230374,0.5,0.469907746700239,0.441626580817791,0.5,0.558373419182209,0.390068073769626,0.5,0.5,0.441626580817791,0.676206440002771,0.609931926230374,0.390068073769626,0.609931926230374,0.5,0.25725632463572,0.626018639137194,0.390068073769626,0.0234760545600512,0.5,0.0601845065995229,1.09657085008049,0.952006068503808,2.47293080670736,0.5,73.4165162644047
CBC_1072,CBC_1072_MSI_AV_v3_Vset6_Aset2_2024-02-02_15h59.48.628.csv,2,33,0,1,b,1,0,0,aud,A,63,1,0A,1A,1,0,z,1.94069770000169,0,1,0,0,1A,0A,A01,2.484906649788,0.605512282229052,0.469907746700239,0.469907746700239,0.5,0.5,0.633407980790425,0.5,0.469907746700239,0.441626580817791,0.5,0.558373419182209,0.390068073769626,0.5,0.5,0.441626580817791,0.676206440002771,0.366096098821982,0.633903901178018,0.469907746700239,0.605512282229052,0.182597483516687,0.34834099675576,-0.469907746700239,-0.0282811658824474,0.5,0.0601845065995229,1.09657085008049,0.952006068503808,2.47293080670736,0.5,73.4165162644047
CBC_1072,CBC_1072_MSI_AV_v3_Vset6_Aset2_2024-02-02_15h59.48.628.csv,2,34,0,1,z,0,1,1,aud,B,63,1,0B,1B,0,1,z,2.11356580000211,0,1,1,1,1B,0B,B01,3.19867311755068,0.605512282229052,0.441626580817791,0.469907746700239,0.5,0.5,0.633407980790425,0.5,0.469907746700239,0.441626580817791,0.5,0.558373419182209,0.390068073769626,0.5,0.5,0.441626580817791,0.676206440002771,0.633407980790425,0.366592019209575,0.633407980790425,0.5,0.298350994174884,0.652198386666057,0.366592019209575,0.0220631597994511,0.5,0.0601845065995229,1.09657085008049,0.952006068503808,2.47293080670736,0.5,73.4165162644047
CBC_1072,CBC_1072_MSI_AV_v3_Vset6_Aset2_2024-02-02_15h59.48.628.csv,2,35,2,3,b,1,0,3,aud,C,63,1,2C,3C,1,0,b,2.28802650000216,1,0,1,1,2C,3C,C23,2.52572864430826,0.605512282229052,0.441626580817791,0.469907746700239,0.5,0.5,0.655471140589876,0.5,0.469907746700239,0.441626580817791,0.5,0.558373419182209,0.390068073769626,0.5,0.5,0.441626580817791,0.676206440002771,0.664093330583096,0.335906669416904,0.558373419182209,0.390068073769626,0.272628638030956,0.684760732296821,0.441626580817791,0.0265790778677531,0.5,0.0601845065995229,1.09657085008049,0.952006068503808,2.47293080670736,0.5,73.4165162644047
CBC_1072,CBC_1072_MSI_AV_v3_Vset6_Aset2_2024-02-02_15h59.48.628.csv,2,36,2,0,z,0,1,0,aud,A,27,1,2A,0A,0,1,b,3.39380270000038,1,0,0,0,2A,0A,A20,3.23867845216438,0.605512282229052,0.441626580817791,0.469907746700239,0.5,0.5,0.655471140589876,0.5,0.469907746700239,0.441626580817791,0.5,0.584952497049962,0.390068073769626,0.5,0.5,0.441626580817791,0.676206440002771,0.366096098821982,0.633903901178018,0.469907746700239,0.605512282229052,0.0544895072585174,0.347395815433923,-0.469907746700239,-0.0282811658824474,0.5,0.0601845065995229,1.09657085008049,0.952006068503808,2.47293080670736,0.5,73.4165162644047
CBC_1072,CBC_1072_MSI_AV_v3_Vset6_Aset2_2024-02-02_15h59.48.628.csv,2,37,0,1,z,0,1,1,aud,B,63,1,0B,1B,0,1,z,2.32708989999992,0,1,1,1,1B,0B,B01,2.85263142991332,0.605512282229052,0.441626580817791,0.441626580817791,0.5,0.5,0.655471140589876,0.5,0.469907746700239,0.441626580817791,0.5,0.584952497049962,0.390068073769626,0.5,0.5,0.441626580817791,0.676206440002771,0.655471140589876,0.344528859410124,0.655471140589876,0.5,0.259823039935507,0.675407391573,0.344528859410124,0.0207352994128947,0.5,0.0601845065995229,1.09657085008049,0.952006068503808,2.47293080670736,0.5,73.4165162644047
CBC_1072,CBC_1072_MSI_AV_v3_Vset6_Aset2_2024-02-02_15h59.48.628.csv,2,38,1,3,b,1,0,1,aud,B,27,1,1B,3B,1,0,b,3.31956250000076,1,0,1,1,1B,3B,B13,3.27714473299218,0.605512282229052,0.441626580817791,0.441626580817791,0.5,0.5,0.676206440002771,0.5,0.469907746700239,0.441626580817791,0.5,0.584952497049962,0.390068073769626,0.5,0.5,0.441626580817791,0.676206440002771,0.70201401734639,0.29798598265361,0.676206440002771,0.469907746700239,0.116639204102321,0.721483529433385,0.323793559997229,0.0194873556485363,0.5,0.0601845065995229,1.09657085008049,0.952006068503808,2.47293080670736,0.5,73.4165162644047
CBC_1072,CBC_1072_MSI_AV_v3_Vset6_Aset2_2024-02-02_15h59.48.628.csv,2,39,2,3,b,1,0,3,aud,C,63,1,2C,3C,1,0,z,3.21630230000119,0,1,0,0,3C,2C,C23,2.37954613413017,0.605512282229052,0.441626580817791,0.441626580817791,0.5,0.5,0.695693795651307,0.5,0.469907746700239,0.441626580817791,0.5,0.584952497049962,0.390068073769626,0.5,0.5,0.441626580817791,0.676206440002771,0.312133510999593,0.687866489000407,0.390068073769626,0.584952497049962,0.0522296737694344,0.292844262639921,-0.390068073769626,-0.0234760545600512,0.5,0.0601845065995229,1.09657085008049,0.952006068503808,2.47293080670736,0.5,73.4165162644047
CBC_1072,CBC_1072_MSI_AV_v3_Vset6_Aset2_2024-02-02_15h59.48.628.csv,2,40,1,3,z,0,1,2,aud,D,27,1,1D,3D,0,1,b,1.56661290000011,1,0,0,0,1D,3D,D13,4.00733318523247,0.605512282229052,0.441626580817791,0.441626580817791,0.5,0.5,0.695693795651307,0.5,0.469907746700239,0.441626580817791,0.5,0.584952497049962,0.366592019209575,0.5,0.5,0.441626580817791,0.676206440002771,0.323793559997229,0.676206440002771,0.5,0.676206440002771,0.194012142230404,0.304477220528474,-0.5,-0.0300922532997615,0.5,0.0601845065995229,1.09657085008049,0.952006068503808,2.47293080670736,0.5,73.4165162644047
CBC_1072,CBC_1072_MSI_AV_v3_Vset6_Aset2_2024-02-02_15h59.48.628.csv,2,41,2,1,b,1,0,3,aud,C,9,1,2C,1C,1,0,b,3.15718530000049,1,0,1,1,2C,1C,C21,4.02535169073515,0.605512282229052,0.441626580817791,0.441626580817791,0.5,0.5,0.695693795651307,0.5,0.469907746700239,0.441626580817791,0.5,0.584952497049962,0.366592019209575,0.5,0.469907746700239,0.441626580817791,0.676206440002771,0.584952497049962,0.415047502950038,0.584952497049962,0.5,0.115984936261725,0.599711806520271,0.415047502950038,0.0249794291804121,0.5,0.0601845065995229,1.09657085008049,0.952006068503808,2.47293080670736,0.5,73.4165162644047
CBC_1072,CBC_1072_MSI_AV_v3_Vset6_Aset2_2024-02-02_15h59.48.628.csv,2,42,1,0,b,1,0,1,aud,B,63,0,1B,0B,0,1,b,2.27911490000042,1,0,1,0,1B,0B,B10,2.65675690671466,0.605512282229052,0.441626580817791,0.441626580817791,0.5,0.5,0.695693795651307,0.5,0.469907746700239,0.441626580817791,0.5,0.609931926230374,0.366592019209575,0.5,0.469907746700239,0.441626580817791,0.676206440002771,0.695693795651307,0.304306204348693,0.695693795651307,0.5,0.288174530221596,0.714680630815666,-0.695693795651307,-0.0418699878356232,0.5,0.0601845065995229,1.09657085008049,0.952006068503808,2.47293080670736,0.5,73.4165162644047
CBC_1072,CBC_1072_MSI_AV_v3_Vset6_Aset2_2024-02-02_15h59.48.628.csv,2,43,2,3,z,0,1,2,aud,D,63,1,2D,3D,0,1,z,1.4966527000015,0,1,1,1,3D,2D,D23,2.26868354131836,0.605512282229052,0.441626580817791,0.441626580817791,0.5,0.5,0.653823807815684,0.5,0.469907746700239,0.441626580817791,0.5,0.609931926230374,0.366592019209575,0.5,0.469907746700239,0.441626580817791,0.676206440002771,0.725309913249988,0.274690086750012,0.676206440002771,0.441626580817791,0.472520367363493,0.742823807681829,0.323793559997229,0.0194873556485363,0.5,0.0601845065995229,1.09657085008049,0.952006068503808,2.47293080670736,0.5,73.4165162644047
CBC_1072,CBC_1072_MSI_AV_v3_Vset6_Aset2_2024-02-02_15h59.48.628.csv,2,44,1,0,z,0,1,0,aud,A,63,1,1A,0A,0,1,z,1.9015556000013,0,1,1,1,0A,1A,A10,2.97892515523761,0.605512282229052,0.441626580817791,0.441626580817791,0.5,0.5,0.653823807815684,0.5,0.469907746700239,0.441626580817791,0.5,0.609931926230374,0.366592019209575,0.5,0.469907746700239,0.441626580817791,0.695693795651307,0.659945218908098,0.340054781091902,0.605512282229052,0.441626580817791,0.370713208942176,0.680317998460491,0.394487717770948,0.0237420486536163,0.5,0.0601845065995229,1.09657085008049,0.952006068503808,2.47293080670736,0.5,73.4165162644047
