ID,filename,session,trial,visStimLeft,visStimRight,correctKey,leftCorrect,rightCorrect,secondStim,mod2Type,mod2Stim,frequency,rewardAccurate,stimPairLeft,stimPairRight,pCorrectLeft,pCorrectRight,key,reactionTime,choiceLeft,choiceRight,choiceAccurate,reward,chosenPair,otherPair,triplet,surprise,0A belief,1A belief,2A belief,3A belief,0B belief,1B belief,2B belief,3B belief,0C belief,1C belief,2C belief,3C belief,0D belief,1D belief,2D belief,3D belief,beliefPairNorm,beliefOtherPairNorm,beliefPair,beliefOtherPair,lik,corrLik,rewardPE,update2,fitCBCsimpleRW_CBCdriftDiffusionLR_startBelief,fitCBCsimpleRW_CBCdriftDiffusionLR_alpha1,fitCBCsimpleRW_CBCdriftDiffusionLR_nonDecisionTime,fitCBCsimpleRW_CBCdriftDiffusionLR_weight,fitCBCsimpleRW_CBCdriftDiffusionLR_startingBoundary,fitCBCsimpleRW_CBCdriftDiffusionLR_startingPoint,fit_CBCsimpleRW_CBCdriftDiffusionLR_NLL
CBC_1013,CBC_1013_MSI_AV_v3_Vset5_Aset2_2023-06-23_14h24.40.256.csv,1,1,1,3,b,1,0,0,aud,B,27,1,1B,3B,1,0,b,2.79824739999822,1,0,1,1,1B,3B,B13,2.77258872223978,0.5,0.5,0.5,0.5,0.5,0.5,0.5,0.5,0.5,0.5,0.5,0.5,0.5,0.5,0.5,0.5,0.5,0.5,0.5,0.5,0.0955786946014553,0.499209460371911,0.5,0.5,0.5,1,0.942320549242185,0.304546263741863,2.17399702182239,0.5,66.707882087616
CBC_1013,CBC_1013_MSI_AV_v3_Vset5_Aset2_2023-06-23_14h24.40.256.csv,1,2,3,2,z,0,1,1,aud,C,63,1,3C,2C,0,1,b,2.60718030000135,1,0,0,0,3C,2C,C32,2.83321334405622,0.5,0.5,0.5,0.5,0.5,1,0.5,0.5,0.5,0.5,0.5,0.5,0.5,0.5,0.5,0.5,0.5,0.5,0.5,0.5,0.117011844954314,0.500623912499499,-0.5,-0.5,0.5,1,0.942320549242185,0.304546263741863,2.17399702182239,0.5,66.707882087616
CBC_1013,CBC_1013_MSI_AV_v3_Vset5_Aset2_2023-06-23_14h24.40.256.csv,1,3,3,2,b,1,0,3,aud,D,63,1,3D,2D,1,0,z,2.43318480000016,0,1,0,0,2D,3D,D32,2.89037175789616,0.5,0.5,0.5,0.5,0.5,1,0.5,0.5,0.5,0.5,0.5,0,0.5,0.5,0.5,0.5,0.5,0.5,0.5,0.5,0.14017026721881,0.500082823216306,-0.5,-0.5,0.5,1,0.942320549242185,0.304546263741863,2.17399702182239,0.5,66.707882087616
CBC_1013,CBC_1013_MSI_AV_v3_Vset5_Aset2_2023-06-23_14h24.40.256.csv,1,4,0,1,z,0,1,0,aud,B,63,1,0B,1B,0,1,z,2.62709480000194,0,1,1,1,1B,0B,B01,2.94443897916644,0.5,0.5,0.5,0.5,0.5,1,0.5,0.5,0.5,0.5,0.5,0,0.5,0.5,0,0.5,0.666666666666667,0.333333333333333,1,0.5,0.126548370355547,0.554202939040966,0,0,0.5,1,0.942320549242185,0.304546263741863,2.17399702182239,0.5,66.707882087616
CBC_1013,CBC_1013_MSI_AV_v3_Vset5_Aset2_2023-06-23_14h24.40.256.csv,1,5,0,3,b,1,0,2,aud,A,9,1,0A,3A,1,0,b,1.73527250000188,1,0,1,1,0A,3A,A03,2.99573227355399,0.5,0.5,0.5,0.5,0.5,1,0.5,0.5,0.5,0.5,0.5,0,0.5,0.5,0,0.5,0.5,0.5,0.5,0.5,0.288934420076631,0.499391928657804,0.5,0.5,0.5,1,0.942320549242185,0.304546263741863,2.17399702182239,0.5,66.707882087616
CBC_1013,CBC_1013_MSI_AV_v3_Vset5_Aset2_2023-06-23_14h24.40.256.csv,1,6,3,2,b,1,0,3,aud,D,63,1,3D,2D,1,0,z,3.28556509999908,0,1,0,0,2D,3D,D32,2.35137525716348,1,0.5,0.5,0.5,0.5,1,0.5,0.5,0.5,0.5,0.5,0,0.5,0.5,0,0.5,0,1,0,0.5,0.0371082904543074,0.340498123934063,0,0,0.5,1,0.942320549242185,0.304546263741863,2.17399702182239,0.5,66.707882087616
CBC_1013,CBC_1013_MSI_AV_v3_Vset5_Aset2_2023-06-23_14h24.40.256.csv,1,7,0,2,z,0,1,1,aud,C,27,1,0C,2C,0,1,z,2.25848079999923,0,1,1,1,2C,0C,C02,3.09104245335832,1,0.5,0.5,0.5,0.5,1,0.5,0.5,0.5,0.5,0.5,0,0.5,0.5,0,0.5,0.5,0.5,0.5,0.5,0.168181069536144,0.499987548044291,0.5,0.5,0.5,1,0.942320549242185,0.304546263741863,2.17399702182239,0.5,66.707882087616
CBC_1013,CBC_1013_MSI_AV_v3_Vset5_Aset2_2023-06-23_14h24.40.256.csv,1,8,0,1,b,1,0,2,aud,A,63,1,0A,1A,1,0,b,1.55469850000009,1,0,1,1,0A,1A,A01,3.13549421592915,1,0.5,0.5,0.5,0.5,1,0.5,0.5,0.5,0.5,1,0,0.5,0.5,0,0.5,0.666666666666667,0.333333333333333,1,0.5,0.383522588315758,0.555177260444953,0,0,0.5,1,0.942320549242185,0.304546263741863,2.17399702182239,0.5,66.707882087616
CBC_1013,CBC_1013_MSI_AV_v3_Vset5_Aset2_2023-06-23_14h24.40.256.csv,1,9,1,0,b,1,0,0,aud,B,63,1,1B,0B,1,0,b,2.03591600000073,1,0,1,1,1B,0B,B10,3.17805383034795,1,0.5,0.5,0.5,0.5,1,0.5,0.5,0.5,0.5,1,0,0.5,0.5,0,0.5,0.666666666666667,0.333333333333333,1,0.5,0.23523888398888,0.554242150413926,0,0,0.5,1,0.942320549242185,0.304546263741863,2.17399702182239,0.5,66.707882087616
CBC_1013,CBC_1013_MSI_AV_v3_Vset5_Aset2_2023-06-23_14h24.40.256.csv,1,10,1,3,z,0,1,3,aud,D,27,1,1D,3D,0,1,z,2.57845549999911,0,1,1,1,3D,1D,D13,3.2188758248682,1,0.5,0.5,0.5,0.5,1,0.5,0.5,0.5,0.5,1,0,0.5,0.5,0,0.5,0.5,0.5,0.5,0.5,0.120514743787951,0.50037627864801,0.5,0.5,0.5,1,0.942320549242185,0.304546263741863,2.17399702182239,0.5,66.707882087616
CBC_1013,CBC_1013_MSI_AV_v3_Vset5_Aset2_2023-06-23_14h24.40.256.csv,1,11,3,2,z,0,1,1,aud,C,63,1,3C,2C,0,1,b,1.73101809999935,1,0,0,0,3C,2C,C32,2.56494935746154,1,0.5,0.5,0.5,0.5,1,0.5,0.5,0.5,0.5,1,0,0.5,0.5,0,1,0,1,0,1,0.201327508361013,0.340579399808543,0,0,0.5,1,0.942320549242185,0.304546263741863,2.17399702182239,0.5,66.707882087616
CBC_1013,CBC_1013_MSI_AV_v3_Vset5_Aset2_2023-06-23_14h24.40.256.csv,1,12,1,0,b,1,0,0,aud,B,63,1,1B,0B,1,0,b,1.91491669999959,1,0,1,1,1B,0B,B10,2.60268968544438,1,0.5,0.5,0.5,0.5,1,0.5,0.5,0.5,0.5,1,0,0.5,0.5,0,1,0.666666666666667,0.333333333333333,1,0.5,0.266888306490226,0.554160133695737,0,0,0.5,1,0.942320549242185,0.304546263741863,2.17399702182239,0.5,66.707882087616
CBC_1013,CBC_1013_MSI_AV_v3_Vset5_Aset2_2023-06-23_14h24.40.256.csv,1,13,0,1,b,1,0,2,aud,A,63,1,0A,1A,1,0,b,1.26508409999951,1,0,1,1,0A,1A,A01,2.63905732961526,1,0.5,0.5,0.5,0.5,1,0.5,0.5,0.5,0.5,1,0,0.5,0.5,0,1,0.666666666666667,0.333333333333333,1,0.5,0.422970473642335,0.555214978714313,0,0,0.5,1,0.942320549242185,0.304546263741863,2.17399702182239,0.5,66.707882087616
CBC_1013,CBC_1013_MSI_AV_v3_Vset5_Aset2_2023-06-23_14h24.40.256.csv,1,14,1,2,z,0,1,1,aud,C,9,1,1C,2C,0,1,z,2.40471400000024,0,1,1,1,2C,1C,C12,3.36729582998647,1,0.5,0.5,0.5,0.5,1,0.5,0.5,0.5,0.5,1,0,0.5,0.5,0,1,0.666666666666667,0.333333333333333,1,0.5,0.159877874975352,0.554483144267128,0,0,0.5,1,0.942320549242185,0.304546263741863,2.17399702182239,0.5,66.707882087616
CBC_1013,CBC_1013_MSI_AV_v3_Vset5_Aset2_2023-06-23_14h24.40.256.csv,1,15,1,0,z,0,1,2,aud,A,63,1,1A,0A,0,1,z,1.53218919999927,0,1,1,1,0A,1A,A10,3.40119738166216,1,0.5,0.5,0.5,0.5,1,0.5,0.5,0.5,0.5,1,0,0.5,0.5,0,1,0.666666666666667,0.333333333333333,1,0.5,0.391353543738535,0.55538357786202,0,0,0.5,1,0.942320549242185,0.304546263741863,2.17399702182239,0.5,66.707882087616
CBC_1013,CBC_1013_MSI_AV_v3_Vset5_Aset2_2023-06-23_14h24.40.256.csv,1,16,3,1,b,1,0,3,aud,D,27,1,3D,1D,1,0,b,1.5336853000008,1,0,1,1,3D,1D,D31,3.43398720448515,1,0.5,0.5,0.5,0.5,1,0.5,0.5,0.5,0.5,1,0,0.5,0.5,0,1,0.666666666666667,0.333333333333333,1,0.5,0.390692038598826,0.555175612887378,0,0,0.5,1,0.942320549242185,0.304546263741863,2.17399702182239,0.5,66.707882087616
CBC_1013,CBC_1013_MSI_AV_v3_Vset5_Aset2_2023-06-23_14h24.40.256.csv,1,17,0,1,z,0,1,0,aud,B,63,1,0B,1B,0,1,z,2.45271010000215,0,1,1,1,1B,0B,B01,2.77258872223978,1,0.5,0.5,0.5,0.5,1,0.5,0.5,0.5,0.5,1,0,0.5,0.5,0,1,0.666666666666667,0.333333333333333,1,0.5,0.151962320883669,0.554238754927447,0,0,0.5,1,0.942320549242185,0.304546263741863,2.17399702182239,0.5,66.707882087616
CBC_1013,CBC_1013_MSI_AV_v3_Vset5_Aset2_2023-06-23_14h24.40.256.csv,1,18,2,3,b,1,0,1,aud,C,63,0,2C,3C,0,1,b,1.62948089999918,1,0,1,0,2C,3C,C23,3.49650756146648,1,0.5,0.5,0.5,0.5,1,0.5,0.5,0.5,0.5,1,0,0.5,0.5,0,1,1,0,1,0,0.433313371188119,0.659788561454923,-1,-1,0.5,1,0.942320549242185,0.304546263741863,2.17399702182239,0.5,66.707882087616
CBC_1013,CBC_1013_MSI_AV_v3_Vset5_Aset2_2023-06-23_14h24.40.256.csv,1,19,2,0,z,0,1,2,aud,A,27,1,2A,0A,0,1,z,1.81802009999956,0,1,1,1,0A,2A,A20,3.52636052461616,1,0.5,0.5,0.5,0.5,1,0.5,0.5,0.5,0.5,0,0,0.5,0.5,0,1,0.666666666666667,0.333333333333333,1,0.5,0.296008109157005,0.555779076875153,0,0,0.5,1,0.942320549242185,0.304546263741863,2.17399702182239,0.5,66.707882087616
CBC_1013,CBC_1013_MSI_AV_v3_Vset5_Aset2_2023-06-23_14h24.40.256.csv,1,20,3,2,b,1,0,3,aud,D,63,1,3D,2D,1,0,z,2.58035989999917,0,1,0,0,2D,3D,D32,2.4567357728213,1,0.5,0.5,0.5,0.5,1,0.5,0.5,0.5,0.5,0,0,0.5,0.5,0,1,0,1,0,1,0.0799554249405455,0.340100210569349,0,0,0.5,1,0.942320549242185,0.304546263741863,2.17399702182239,0.5,66.707882087616
CBC_1013,CBC_1013_MSI_AV_v3_Vset5_Aset2_2023-06-23_14h24.40.256.csv,1,21,3,1,z,0,1,0,aud,B,27,1,3B,1B,0,1,z,1.78323489999821,0,1,1,1,1B,3B,B31,3.58351893845611,1,0.5,0.5,0.5,0.5,1,0.5,0.5,0.5,0.5,0,0,0.5,0.5,0,1,0.666666666666667,0.333333333333333,1,0.5,0.306153745259203,0.554637324672425,0,0,0.5,1,0.942320549242185,0.304546263741863,2.17399702182239,0.5,66.707882087616
CBC_1013,CBC_1013_MSI_AV_v3_Vset5_Aset2_2023-06-23_14h24.40.256.csv,1,22,3,2,z,0,1,1,aud,C,63,1,3C,2C,0,1,b,2.78485219999857,1,0,0,0,3C,2C,C32,2.51230562397611,1,0.5,0.5,0.5,0.5,1,0.5,0.5,0.5,0.5,0,0,0.5,0.5,0,1,NaN,NaN,0,0,NaN,NaN,0,0,0.5,1,0.942320549242185,0.304546263741863,2.17399702182239,0.5,66.707882087616
CBC_1013,CBC_1013_MSI_AV_v3_Vset5_Aset2_2023-06-23_14h24.40.256.csv,1,23,0,1,b,1,0,2,aud,A,63,1,0A,1A,1,0,z,1.40452379999988,0,1,0,0,1A,0A,A01,2.53897387105828,1,0.5,0.5,0.5,0.5,1,0.5,0.5,0.5,0.5,0,0,0.5,0.5,0,1,0.333333333333333,0.666666666666667,0.5,1,0.342964505397054,0.444476567688026,-0.5,-0.5,0.5,1,0.942320549242185,0.304546263741863,2.17399702182239,0.5,66.707882087616
CBC_1013,CBC_1013_MSI_AV_v3_Vset5_Aset2_2023-06-23_14h24.40.256.csv,1,24,2,1,z,0,1,0,aud,B,9,1,2B,1B,0,1,b,2.23736089999875,1,0,0,0,2B,1B,B21,3.66356164612965,1,0,0.5,0.5,0.5,1,0.5,0.5,0.5,0.5,0,0,0.5,0.5,0,1,0.333333333333333,0.666666666666667,0.5,1,0.153131168606521,0.445581420303974,-0.5,-0.5,0.5,1,0.942320549242185,0.304546263741863,2.17399702182239,0.5,66.707882087616
CBC_1013,CBC_1013_MSI_AV_v3_Vset5_Aset2_2023-06-23_14h24.40.256.csv,1,25,2,3,b,1,0,1,aud,C,63,1,2C,3C,1,0,z,2.47701860000234,0,1,0,0,3C,2C,C23,2.99573227355399,1,0,0.5,0.5,0.5,1,0,0.5,0.5,0.5,0,0,0.5,0.5,0,1,NaN,NaN,0,0,NaN,NaN,0,0,0.5,1,0.942320549242185,0.304546263741863,2.17399702182239,0.5,66.707882087616
CBC_1013,CBC_1013_MSI_AV_v3_Vset5_Aset2_2023-06-23_14h24.40.256.csv,1,26,2,3,z,0,1,3,aud,D,63,1,2D,3D,0,1,b,3.25851429999966,1,0,0,0,2D,3D,D23,3.71357206670431,1,0,0.5,0.5,0.5,1,0,0.5,0.5,0.5,0,0,0.5,0.5,0,1,0,1,0,1,0.0381687531221731,0.340139127336035,0,0,0.5,1,0.942320549242185,0.304546263741863,2.17399702182239,0.5,66.707882087616
CBC_1013,CBC_1013_MSI_AV_v3_Vset5_Aset2_2023-06-23_14h24.40.256.csv,1,27,0,1,z,0,1,0,aud,B,63,1,0B,1B,0,1,z,1.28280069999892,0,1,1,1,1B,0B,B01,2.63905732961526,1,0,0.5,0.5,0.5,1,0,0.5,0.5,0.5,0,0,0.5,0.5,0,1,0.666666666666667,0.333333333333333,1,0.5,0.429251933392404,0.555086286107692,0,0,0.5,1,0.942320549242185,0.304546263741863,2.17399702182239,0.5,66.707882087616
CBC_1013,CBC_1013_MSI_AV_v3_Vset5_Aset2_2023-06-23_14h24.40.256.csv,1,28,0,2,b,1,0,2,aud,A,27,1,0A,2A,1,0,b,1.61357810000118,1,0,1,1,0A,2A,A02,3.76120011569356,1,0,0.5,0.5,0.5,1,0,0.5,0.5,0.5,0,0,0.5,0.5,0,1,0.666666666666667,0.333333333333333,1,0.5,0.363308039852712,0.555459458135819,0,0,0.5,1,0.942320549242185,0.304546263741863,2.17399702182239,0.5,66.707882087616
CBC_1013,CBC_1013_MSI_AV_v3_Vset5_Aset2_2023-06-23_14h24.40.256.csv,1,29,1,3,z,0,1,3,aud,D,27,1,1D,3D,0,1,z,1.65493009999773,0,1,1,1,3D,1D,D13,3.09104245335832,1,0,0.5,0.5,0.5,1,0,0.5,0.5,0.5,0,0,0.5,0.5,0,1,0.666666666666667,0.333333333333333,1,0.5,0.348767196245089,0.55508857761289,0,0,0.5,1,0.942320549242185,0.304546263741863,2.17399702182239,0.5,66.707882087616
CBC_1013,CBC_1013_MSI_AV_v3_Vset5_Aset2_2023-06-23_14h24.40.256.csv,1,30,1,0,z,0,1,2,aud,A,63,1,1A,0A,0,1,z,1.28256370000236,0,1,1,1,0A,1A,A10,3.11351530921037,1,0,0.5,0.5,0.5,1,0,0.5,0.5,0.5,0,0,0.5,0.5,0,1,1,0,1,0,0.527070751344701,0.659256811025362,0,0,0.5,1,0.942320549242185,0.304546263741863,2.17399702182239,0.5,66.707882087616
CBC_1013,CBC_1013_MSI_AV_v3_Vset5_Aset2_2023-06-23_14h24.40.256.csv,1,31,2,0,b,1,0,1,aud,C,27,1,2C,0C,1,0,b,2.24144290000186,1,0,1,1,2C,0C,C20,3.8286413964891,1,0,0.5,0.5,0.5,1,0,0.5,0.5,0.5,0,0,0.5,0.5,0,1,0,1,0,0.5,0.115943228044489,0.340779156843474,1,1,0.5,1,0.942320549242185,0.304546263741863,2.17399702182239,0.5,66.707882087616
CBC_1013,CBC_1013_MSI_AV_v3_Vset5_Aset2_2023-06-23_14h24.40.256.csv,1,32,2,3,z,0,1,3,aud,D,63,1,2D,3D,0,1,z,2.72450219999882,0,1,1,1,3D,2D,D23,3.15700042115011,1,0,0.5,0.5,0.5,1,0,0.5,0.5,0.5,1,0,0.5,0.5,0,1,1,0,1,0,0.132541319503833,0.659700080856212,0,0,0.5,1,0.942320549242185,0.304546263741863,2.17399702182239,0.5,66.707882087616
CBC_1013,CBC_1013_MSI_AV_v3_Vset5_Aset2_2023-06-23_14h24.40.256.csv,1,33,1,0,b,1,0,0,aud,B,63,1,1B,0B,1,0,b,2.42343439999968,1,0,1,1,1B,0B,B10,2.77258872223978,1,0,0.5,0.5,0.5,1,0,0.5,0.5,0.5,1,0,0.5,0.5,0,1,0.666666666666667,0.333333333333333,1,0.5,0.156706198023308,0.554255051469067,0,0,0.5,1,0.942320549242185,0.304546263741863,2.17399702182239,0.5,66.707882087616
CBC_1013,CBC_1013_MSI_AV_v3_Vset5_Aset2_2023-06-23_14h24.40.256.csv,1,34,0,1,b,1,0,2,aud,A,63,1,0A,1A,1,0,b,1.38459890000013,1,0,1,1,0A,1A,A01,2.50552593699074,1,0,0.5,0.5,0.5,1,0,0.5,0.5,0.5,1,0,0.5,0.5,0,1,1,0,1,0,0.529107387829345,0.660004727677945,0,0,0.5,1,0.942320549242185,0.304546263741863,2.17399702182239,0.5,66.707882087616
CBC_1013,CBC_1013_MSI_AV_v3_Vset5_Aset2_2023-06-23_14h24.40.256.csv,1,35,2,3,z,0,1,3,aud,D,63,0,2D,3D,1,0,z,2.7593386999979,0,1,1,0,3D,2D,D23,2.81341071676004,1,0,0.5,0.5,0.5,1,0,0.5,0.5,0.5,1,0,0.5,0.5,0,1,1,0,1,0,0.127603227678424,0.65971789296964,-1,-1,0.5,1,0.942320549242185,0.304546263741863,2.17399702182239,0.5,66.707882087616
CBC_1013,CBC_1013_MSI_AV_v3_Vset5_Aset2_2023-06-23_14h24.40.256.csv,1,36,2,0,b,1,0,1,aud,C,27,1,2C,0C,1,0,b,2.50353389999873,1,0,1,1,2C,0C,C20,3.23867845216438,1,0,0.5,0.5,0.5,1,0,0.5,0.5,0.5,1,0,0.5,0.5,0,0,0.666666666666667,0.333333333333333,1,0.5,0.144479308384003,0.555870908664199,0,0,0.5,1,0.942320549242185,0.304546263741863,2.17399702182239,0.5,66.707882087616
CBC_1013,CBC_1013_MSI_AV_v3_Vset5_Aset2_2023-06-23_14h24.40.256.csv,1,37,0,1,b,1,0,2,aud,A,63,1,0A,1A,1,0,b,1.57866809999905,1,0,1,1,0A,1A,A01,2.34180580614733,1,0,0.5,0.5,0.5,1,0,0.5,0.5,0.5,1,0,0.5,0.5,0,0,1,0,1,0,0.4558486661573,0.660033966842409,0,0,0.5,1,0.942320549242185,0.304546263741863,2.17399702182239,0.5,66.707882087616
CBC_1013,CBC_1013_MSI_AV_v3_Vset5_Aset2_2023-06-23_14h24.40.256.csv,1,38,1,3,b,1,0,0,aud,B,27,1,1B,3B,1,0,b,1.16878569999972,1,0,1,1,1B,3B,B13,3.27714473299218,1,0,0.5,0.5,0.5,1,0,0.5,0.5,0.5,1,0,0.5,0.5,0,0,0.666666666666667,0.333333333333333,1,0.5,0.32998987153109,0.554250653358409,0,0,0.5,1,0.942320549242185,0.304546263741863,2.17399702182239,0.5,66.707882087616
CBC_1013,CBC_1013_MSI_AV_v3_Vset5_Aset2_2023-06-23_14h24.40.256.csv,1,39,3,2,z,0,1,1,aud,C,63,1,3C,2C,0,1,z,3.63241629999902,0,1,1,1,2C,3C,C32,2.60268968544438,1,0,0.5,0.5,0.5,1,0,0.5,0.5,0.5,1,0,0.5,0.5,0,0,1,0,1,0,0.0492462147365323,0.659698996847588,0,0,0.5,1,0.942320549242185,0.304546263741863,2.17399702182239,0.5,66.707882087616
CBC_1013,CBC_1013_MSI_AV_v3_Vset5_Aset2_2023-06-23_14h24.40.256.csv,1,40,3,2,b,1,0,3,aud,D,63,1,3D,2D,1,0,b,2.41442550000284,1,0,1,1,3D,2D,D32,2.62103882411258,1,0,0.5,0.5,0.5,1,0,0.5,0.5,0.5,1,0,0.5,0.5,0,0,NaN,NaN,0,0,NaN,NaN,1,1,0.5,1,0.942320549242185,0.304546263741863,2.17399702182239,0.5,66.707882087616
CBC_1013,CBC_1013_MSI_AV_v3_Vset5_Aset2_2023-06-23_14h24.40.256.csv,1,41,0,1,z,0,1,0,aud,B,63,1,0B,1B,0,1,z,1.47933189999821,0,1,1,1,1B,0B,B01,2.63905732961526,1,0,0.5,0.5,0.5,1,0,0.5,0.5,0.5,1,0,0.5,0.5,0,1,0.666666666666667,0.333333333333333,1,0.5,0.408556103005408,0.555362122155561,0,0,0.5,1,0.942320549242185,0.304546263741863,2.17399702182239,0.5,66.707882087616
CBC_1013,CBC_1013_MSI_AV_v3_Vset5_Aset2_2023-06-23_14h24.40.256.csv,1,42,2,0,z,0,1,2,aud,A,27,1,2A,0A,0,1,b,1.33160869999847,1,0,0,0,2A,0A,A20,3.3499040872746,1,0,0.5,0.5,0.5,1,0,0.5,0.5,0.5,1,0,0.5,0.5,0,1,0.333333333333333,0.666666666666667,0.5,1,0.349917238271106,0.445179617261222,-0.5,-0.5,0.5,1,0.942320549242185,0.304546263741863,2.17399702182239,0.5,66.707882087616
CBC_1013,CBC_1013_MSI_AV_v3_Vset5_Aset2_2023-06-23_14h24.40.256.csv,1,43,3,0,b,1,0,3,aud,D,9,1,3D,0D,1,0,z,1.06522469999982,0,1,0,0,0D,3D,D30,4.06044301054642,1,0,0,0.5,0.5,1,0,0.5,0.5,0.5,1,0,0.5,0.5,0,1,0.333333333333333,0.666666666666667,0.5,1,0.0734668277663549,0.444029134275799,-0.5,-0.5,0.5,1,0.942320549242185,0.304546263741863,2.17399702182239,0.5,66.707882087616
CBC_1013,CBC_1013_MSI_AV_v3_Vset5_Aset2_2023-06-23_14h24.40.256.csv,1,44,3,2,z,0,1,1,aud,C,63,1,3C,2C,0,1,b,2.4016870000014,1,0,0,0,3C,2C,C32,2.46809953147162,1,0,0,0.5,0.5,1,0,0.5,0.5,0.5,1,0,0,0.5,0,1,0,1,0,1,0.0971308540520614,0.340017433933399,0,0,0.5,1,0.942320549242185,0.304546263741863,2.17399702182239,0.5,66.707882087616
CBC_1013,CBC_1013_MSI_TV_v3_Vset4_Tset2_2023-06-23_15h01.09.889.csv,2,1,0,1,b,1,0,2,tac,A,63,1,0A,1A,1,0,z,1.72054339999522,0,1,0,0,1A,0A,A01,2.77258872223978,0.5,0.5,0.5,0.5,0.5,0.5,0.5,0.5,0.5,0.5,0.5,0.5,0.5,0.5,0.5,0.5,0.5,0.5,0.5,0.5,0.331280219349869,0.500054819005838,-0.5,-0.000841745676636863,0.5,0.00168349135327373,1.09812274423247,0.0520305787512285,2.2441839053621,0.5,70.2549414055393
CBC_1013,CBC_1013_MSI_TV_v3_Vset4_Tset2_2023-06-23_15h01.09.889.csv,2,2,2,3,b,1,0,1,tac,C,63,1,2C,3C,1,0,b,1.51106989999971,1,0,1,1,2C,3C,C23,2.83321334405622,0.5,0.499158254323363,0.5,0.5,0.5,0.5,0.5,0.5,0.5,0.5,0.5,0.5,0.5,0.5,0.5,0.5,0.5,0.5,0.5,0.5,0.366766640949174,0.499296907525834,0.5,0.000841745676636863,0.5,0.00168349135327373,1.09812274423247,0.0520305787512285,2.2441839053621,0.5,70.2549414055393
CBC_1013,CBC_1013_MSI_TV_v3_Vset4_Tset2_2023-06-23_15h01.09.889.csv,2,3,2,0,z,0,1,2,tac,A,27,1,2A,0A,0,1,z,2.83011970000007,0,1,1,1,0A,2A,A20,2.89037175789616,0.5,0.499158254323363,0.5,0.5,0.5,0.5,0.5,0.5,0.5,0.5,0.500841745676637,0.5,0.5,0.5,0.5,0.5,0.5,0.5,0.5,0.5,0.114378493453432,0.500393458667468,0.5,0.000841745676636863,0.5,0.00168349135327373,1.09812274423247,0.0520305787512285,2.2441839053621,0.5,70.2549414055393
CBC_1013,CBC_1013_MSI_TV_v3_Vset4_Tset2_2023-06-23_15h01.09.889.csv,2,4,0,1,z,0,1,0,tac,B,63,1,0B,1B,0,1,z,2.72701719999895,0,1,1,1,1B,0B,B01,2.94443897916644,0.500841745676637,0.499158254323363,0.5,0.5,0.5,0.5,0.5,0.5,0.5,0.5,0.500841745676637,0.5,0.5,0.5,0.5,0.5,0.5,0.5,0.5,0.5,0.126396963930497,0.499841136164038,0.5,0.000841745676636863,0.5,0.00168349135327373,1.09812274423247,0.0520305787512285,2.2441839053621,0.5,70.2549414055393
CBC_1013,CBC_1013_MSI_TV_v3_Vset4_Tset2_2023-06-23_15h01.09.889.csv,2,5,3,2,b,1,0,3,tac,D,63,1,3D,2D,1,0,z,2.47174939999604,0,1,0,0,2D,3D,D32,2.99573227355399,0.500841745676637,0.499158254323363,0.5,0.5,0.5,0.500841745676637,0.5,0.5,0.5,0.5,0.500841745676637,0.5,0.5,0.5,0.5,0.5,0.5,0.5,0.5,0.5,0.162411774713111,0.500162067663419,-0.5,-0.000841745676636863,0.5,0.00168349135327373,1.09812274423247,0.0520305787512285,2.2441839053621,0.5,70.2549414055393
CBC_1013,CBC_1013_MSI_TV_v3_Vset4_Tset2_2023-06-23_15h01.09.889.csv,2,6,2,1,z,0,1,0,tac,B,9,1,2B,1B,0,1,z,1.69762809999884,0,1,1,1,1B,2B,B21,3.04452243772342,0.500841745676637,0.499158254323363,0.5,0.5,0.5,0.500841745676637,0.5,0.5,0.5,0.5,0.500841745676637,0.5,0.5,0.5,0.499158254323363,0.5,0.500420518868379,0.499579481131621,0.500841745676637,0.5,0.337892059173705,0.501011163428866,0.499158254323363,0.000840328605068589,0.5,0.00168349135327373,1.09812274423247,0.0520305787512285,2.2441839053621,0.5,70.2549414055393
CBC_1013,CBC_1013_MSI_TV_v3_Vset4_Tset2_2023-06-23_15h01.09.889.csv,2,7,3,1,b,1,0,3,tac,D,27,1,3D,1D,1,0,b,2.69308999999703,1,0,1,1,3D,1D,D31,3.09104245335832,0.500841745676637,0.499158254323363,0.5,0.5,0.5,0.501682074281705,0.5,0.5,0.5,0.5,0.500841745676637,0.5,0.5,0.5,0.499158254323363,0.5,0.5,0.5,0.5,0.5,0.130702322614995,0.499968345830992,0.5,0.000841745676636863,0.5,0.00168349135327373,1.09812274423247,0.0520305787512285,2.2441839053621,0.5,70.2549414055393
CBC_1013,CBC_1013_MSI_TV_v3_Vset4_Tset2_2023-06-23_15h01.09.889.csv,2,8,0,1,b,1,0,2,tac,A,63,1,0A,1A,1,0,z,1.58249309999519,0,1,0,0,1A,0A,A01,2.4423470353692,0.500841745676637,0.499158254323363,0.5,0.5,0.5,0.501682074281705,0.5,0.5,0.5,0.5,0.500841745676637,0.5,0.5,0.5,0.499158254323363,0.500841745676637,0.499158254323363,0.500841745676637,0.499158254323363,0.500841745676637,0.360962560964156,0.498608087237915,-0.499158254323363,-0.000840328605068589,0.5,0.00168349135327373,1.09812274423247,0.0520305787512285,2.2441839053621,0.5,70.2549414055393
CBC_1013,CBC_1013_MSI_TV_v3_Vset4_Tset2_2023-06-23_15h01.09.889.csv,2,9,1,0,z,0,1,2,tac,A,63,1,1A,0A,0,1,b,1.83622589999504,1,0,0,0,1A,0A,A10,3.17805383034795,0.500841745676637,0.498317925718295,0.5,0.5,0.5,0.501682074281705,0.5,0.5,0.5,0.5,0.500841745676637,0.5,0.5,0.5,0.499158254323363,0.500841745676637,0.498737028709926,0.501262971290074,0.498317925718295,0.500841745676637,0.299910734514541,0.500079152834816,-0.498317925718295,-0.000838913919128047,0.5,0.00168349135327373,1.09812274423247,0.0520305787512285,2.2441839053621,0.5,70.2549414055393
CBC_1013,CBC_1013_MSI_TV_v3_Vset4_Tset2_2023-06-23_15h01.09.889.csv,2,10,0,2,z,0,1,1,tac,C,27,1,0C,2C,0,1,z,1.45046329999968,0,1,1,1,2C,0C,C02,3.2188758248682,0.500841745676637,0.497479011799166,0.5,0.5,0.5,0.501682074281705,0.5,0.5,0.5,0.5,0.500841745676637,0.5,0.5,0.5,0.499158254323363,0.500841745676637,0.500420518868379,0.499579481131621,0.500841745676637,0.5,0.35921482083921,0.500963897344158,0.499158254323363,0.000840328605068589,0.5,0.00168349135327373,1.09812274423247,0.0520305787512285,2.2441839053621,0.5,70.2549414055393
CBC_1013,CBC_1013_MSI_TV_v3_Vset4_Tset2_2023-06-23_15h01.09.889.csv,2,11,1,0,b,1,0,0,tac,B,63,1,1B,0B,1,0,z,2.3907691999957,0,1,0,0,0B,1B,B10,3.25809653802148,0.500841745676637,0.497479011799166,0.5,0.5,0.5,0.501682074281705,0.5,0.5,0.5,0.5,0.501682074281705,0.5,0.5,0.5,0.499158254323363,0.500841745676637,0.499160375170479,0.500839624829521,0.5,0.501682074281705,0.175793148758273,0.500103012636871,-0.5,-0.000841745676636863,0.5,0.00168349135327373,1.09812274423247,0.0520305787512285,2.2441839053621,0.5,70.2549414055393
CBC_1013,CBC_1013_MSI_TV_v3_Vset4_Tset2_2023-06-23_15h01.09.889.csv,2,12,1,0,z,0,1,2,tac,A,63,1,1A,0A,0,1,b,1.62133739999626,1,0,0,0,1A,0A,A10,2.60268968544438,0.500841745676637,0.497479011799166,0.5,0.5,0.499158254323363,0.501682074281705,0.5,0.5,0.5,0.5,0.501682074281705,0.5,0.5,0.5,0.499158254323363,0.500841745676637,0.498315804889216,0.501684195110784,0.497479011799166,0.500841745676637,0.355140636967238,0.500140317592349,-0.497479011799166,-0.000837501614799054,0.5,0.00168349135327373,1.09812274423247,0.0520305787512285,2.2441839053621,0.5,70.2549414055393
CBC_1013,CBC_1013_MSI_TV_v3_Vset4_Tset2_2023-06-23_15h01.09.889.csv,2,13,2,3,b,1,0,1,tac,C,63,1,2C,3C,1,0,b,2.38345779999872,1,0,1,1,2C,3C,C23,2.63905732961526,0.500841745676637,0.496641510184367,0.5,0.5,0.499158254323363,0.501682074281705,0.5,0.5,0.5,0.5,0.501682074281705,0.5,0.5,0.5,0.499158254323363,0.500841745676637,0.500839624829521,0.499160375170479,0.501682074281705,0.5,0.176943470183312,0.499785730590216,0.498317925718295,0.000838913919128047,0.5,0.00168349135327373,1.09812274423247,0.0520305787512285,2.2441839053621,0.5,70.2549414055393
CBC_1013,CBC_1013_MSI_TV_v3_Vset4_Tset2_2023-06-23_15h01.09.889.csv,2,14,2,0,z,0,1,2,tac,A,27,1,2A,0A,0,1,b,1.28939169999649,1,0,0,0,2A,0A,A20,2.67414864942653,0.500841745676637,0.496641510184367,0.5,0.5,0.499158254323363,0.501682074281705,0.5,0.5,0.5,0.5,0.502520988200833,0.5,0.5,0.5,0.499158254323363,0.500841745676637,0.499579481131621,0.500420518868379,0.5,0.500841745676637,0.199367197166662,0.500719096794523,-0.5,-0.000841745676636863,0.5,0.00168349135327373,1.09812274423247,0.0520305787512285,2.2441839053621,0.5,70.2549414055393
CBC_1013,CBC_1013_MSI_TV_v3_Vset4_Tset2_2023-06-23_15h01.09.889.csv,2,15,0,1,z,0,1,0,tac,B,63,1,0B,1B,0,1,z,2.49269839999761,0,1,1,1,1B,0B,B01,2.70805020110221,0.500841745676637,0.496641510184367,0.499158254323363,0.5,0.499158254323363,0.501682074281705,0.5,0.5,0.5,0.5,0.502520988200833,0.5,0.5,0.5,0.499158254323363,0.500841745676637,0.501260850450471,0.498739149549529,0.501682074281705,0.499158254323363,0.158905214475853,0.499507279905848,0.498317925718295,0.000838913919128047,0.5,0.00168349135327373,1.09812274423247,0.0520305787512285,2.2441839053621,0.5,70.2549414055393
CBC_1013,CBC_1013_MSI_TV_v3_Vset4_Tset2_2023-06-23_15h01.09.889.csv,2,16,1,0,b,1,0,0,tac,B,63,1,1B,0B,1,0,b,1.76422559999628,1,0,1,1,1B,0B,B10,2.7408400239252,0.500841745676637,0.496641510184367,0.499158254323363,0.5,0.499158254323363,0.502520988200833,0.5,0.5,0.5,0.5,0.502520988200833,0.5,0.5,0.5,0.499158254323363,0.500841745676637,0.501678548249136,0.498321451750864,0.502520988200833,0.499158254323363,0.319361045625295,0.499761747990127,0.497479011799167,0.000837501614799054,0.5,0.00168349135327373,1.09812274423247,0.0520305787512285,2.2441839053621,0.5,70.2549414055393
CBC_1013,CBC_1013_MSI_TV_v3_Vset4_Tset2_2023-06-23_15h01.09.889.csv,2,17,2,3,b,1,0,1,tac,C,63,1,2C,3C,1,0,b,2.32085919999736,1,0,1,1,2C,3C,C23,2.36712361413162,0.500841745676637,0.496641510184367,0.499158254323363,0.5,0.499158254323363,0.503358489815632,0.5,0.5,0.5,0.5,0.502520988200833,0.5,0.5,0.5,0.499158254323363,0.500841745676637,0.501257324400439,0.498742675599561,0.502520988200833,0.5,0.188047721319722,0.499590448789176,0.497479011799167,0.000837501614799054,0.5,0.00168349135327373,1.09812274423247,0.0520305787512285,2.2441839053621,0.5,70.2549414055393
CBC_1013,CBC_1013_MSI_TV_v3_Vset4_Tset2_2023-06-23_15h01.09.889.csv,2,18,1,3,z,0,1,3,tac,D,27,1,1D,3D,0,1,z,2.50630459999593,0,1,1,1,3D,1D,D13,3.49650756146648,0.500841745676637,0.496641510184367,0.499158254323363,0.5,0.499158254323363,0.503358489815632,0.5,0.5,0.5,0.5,0.503358489815632,0.5,0.5,0.5,0.499158254323363,0.500841745676637,0.500420518868379,0.499579481131621,0.500841745676637,0.5,0.156918129297277,0.49987838307713,0.499158254323363,0.000840328605068589,0.5,0.00168349135327373,1.09812274423247,0.0520305787512285,2.2441839053621,0.5,70.2549414055393
CBC_1013,CBC_1013_MSI_TV_v3_Vset4_Tset2_2023-06-23_15h01.09.889.csv,2,19,2,1,b,1,0,1,tac,C,9,1,2C,1C,1,0,z,1.89382719999412,0,1,0,0,1C,2C,C21,3.52636052461616,0.500841745676637,0.496641510184367,0.499158254323363,0.5,0.499158254323363,0.503358489815632,0.5,0.5,0.5,0.5,0.503358489815632,0.5,0.5,0.5,0.499158254323363,0.501682074281705,0.498326375941539,0.501673624058461,0.5,0.503358489815632,0.283363789524056,0.498237951169996,-0.5,-0.000841745676636863,0.5,0.00168349135327373,1.09812274423247,0.0520305787512285,2.2441839053621,0.5,70.2549414055393
CBC_1013,CBC_1013_MSI_TV_v3_Vset4_Tset2_2023-06-23_15h01.09.889.csv,2,20,1,3,b,1,0,0,tac,B,27,1,1B,3B,1,0,b,2.3971547000001,1,0,1,1,1B,3B,B13,3.55534806148941,0.500841745676637,0.496641510184367,0.499158254323363,0.5,0.499158254323363,0.503358489815632,0.5,0.5,0.5,0.499158254323363,0.503358489815632,0.5,0.5,0.5,0.499158254323363,0.501682074281705,0.501673624058461,0.498326375941539,0.503358489815632,0.5,0.174809479066104,0.500422980274221,0.496641510184368,0.000836091688072187,0.5,0.00168349135327373,1.09812274423247,0.0520305787512285,2.2441839053621,0.5,70.2549414055393
CBC_1013,CBC_1013_MSI_TV_v3_Vset4_Tset2_2023-06-23_15h01.09.889.csv,2,21,2,3,z,0,1,3,tac,D,63,1,2D,3D,0,1,z,2.33522009999797,0,1,1,1,3D,2D,D23,3.58351893845611,0.500841745676637,0.496641510184367,0.499158254323363,0.5,0.499158254323363,0.504194581503705,0.5,0.5,0.5,0.499158254323363,0.503358489815632,0.5,0.5,0.5,0.499158254323363,0.501682074281705,0.501260850450471,0.498739149549529,0.501682074281705,0.499158254323363,0.185675175350644,0.500266529920186,0.498317925718295,0.000838913919128047,0.5,0.00168349135327373,1.09812274423247,0.0520305787512285,2.2441839053621,0.5,70.2549414055393
CBC_1013,CBC_1013_MSI_TV_v3_Vset4_Tset2_2023-06-23_15h01.09.889.csv,2,22,0,1,z,0,1,0,tac,B,63,0,0B,1B,1,0,b,2.49464779999471,1,0,0,1,0B,1B,B01,2.51230562397611,0.500841745676637,0.496641510184367,0.499158254323363,0.5,0.499158254323363,0.504194581503705,0.5,0.5,0.5,0.499158254323363,0.503358489815632,0.5,0.5,0.5,0.499158254323363,0.502520988200833,0.497490251185571,0.502509748814429,0.499158254323363,0.504194581503705,0.158467266755374,0.499082665409443,0.500841745676637,0.000843162748205136,0.5,0.00168349135327373,1.09812274423247,0.0520305787512285,2.2441839053621,0.5,70.2549414055393
CBC_1013,CBC_1013_MSI_TV_v3_Vset4_Tset2_2023-06-23_15h01.09.889.csv,2,23,0,3,b,1,0,2,tac,A,9,1,0A,3A,1,0,z,2.32500699999946,0,1,0,0,3A,0A,A03,3.63758615972639,0.500841745676637,0.496641510184367,0.499158254323363,0.5,0.500001417071568,0.504194581503705,0.5,0.5,0.5,0.499158254323363,0.503358489815632,0.5,0.5,0.5,0.499158254323363,0.502520988200833,0.499579481131621,0.500420518868379,0.5,0.500841745676637,0.187477566978369,0.500100788148518,-0.5,-0.000841745676636863,0.5,0.00168349135327373,1.09812274423247,0.0520305787512285,2.2441839053621,0.5,70.2549414055393
CBC_1013,CBC_1013_MSI_TV_v3_Vset4_Tset2_2023-06-23_15h01.09.889.csv,2,24,3,2,b,1,0,3,tac,D,63,1,3D,2D,1,0,z,2.38668929999767,0,1,0,0,2D,3D,D32,2.9704144655697,0.500841745676637,0.496641510184367,0.499158254323363,0.499158254323363,0.500001417071568,0.504194581503705,0.5,0.5,0.5,0.499158254323363,0.503358489815632,0.5,0.5,0.5,0.499158254323363,0.502520988200833,0.498321451750864,0.501678548249136,0.499158254323363,0.502520988200833,0.176257929777507,0.499426672625149,-0.499158254323363,-0.000840328605068589,0.5,0.00168349135327373,1.09812274423247,0.0520305787512285,2.2441839053621,0.5,70.2549414055393
CBC_1013,CBC_1013_MSI_TV_v3_Vset4_Tset2_2023-06-23_15h01.09.889.csv,2,25,3,1,z,0,1,0,tac,B,27,1,3B,1B,0,1,z,2.4429541999998,0,1,1,1,1B,3B,B31,3.68887945411394,0.500841745676637,0.496641510184367,0.499158254323363,0.499158254323363,0.500001417071568,0.504194581503705,0.5,0.5,0.5,0.499158254323363,0.503358489815632,0.5,0.5,0.5,0.498317925718295,0.502520988200833,0.502088530241531,0.497911469758469,0.504194581503705,0.5,0.167043727086316,0.500123134873032,0.495805418496295,0.000834684134944774,0.5,0.00168349135327373,1.09812274423247,0.0520305787512285,2.2441839053621,0.5,70.2549414055393
CBC_1013,CBC_1013_MSI_TV_v3_Vset4_Tset2_2023-06-23_15h01.09.889.csv,2,26,3,2,z,0,1,1,tac,C,63,1,3C,2C,0,1,z,2.05481039999722,0,1,1,1,2C,3C,C32,3.71357206670431,0.500841745676637,0.496641510184367,0.499158254323363,0.499158254323363,0.500001417071568,0.505029265638649,0.5,0.5,0.5,0.499158254323363,0.503358489815632,0.5,0.5,0.5,0.498317925718295,0.502520988200833,0.501673624058461,0.498326375941539,0.503358489815632,0.5,0.243931340928072,0.500071698031686,0.496641510184368,0.000836091688072187,0.5,0.00168349135327373,1.09812274423247,0.0520305787512285,2.2441839053621,0.5,70.2549414055393
CBC_1013,CBC_1013_MSI_TV_v3_Vset4_Tset2_2023-06-23_15h01.09.889.csv,2,27,0,2,z,0,1,1,tac,C,27,1,0C,2C,0,1,b,2.7247196999997,1,0,0,0,0C,2C,C02,3.04452243772342,0.500841745676637,0.496641510184367,0.499158254323363,0.499158254323363,0.500001417071568,0.505029265638649,0.5,0.5,0.5,0.499158254323363,0.504194581503705,0.5,0.5,0.5,0.498317925718295,0.502520988200833,0.497911469758469,0.502088530241531,0.5,0.504194581503705,0.126772646068841,0.500199563304767,-0.5,-0.000841745676636863,0.5,0.00168349135327373,1.09812274423247,0.0520305787512285,2.2441839053621,0.5,70.2549414055393
CBC_1013,CBC_1013_MSI_TV_v3_Vset4_Tset2_2023-06-23_15h01.09.889.csv,2,28,1,0,b,1,0,0,tac,B,63,1,1B,0B,1,0,z,2.30304649999744,0,1,0,0,0B,1B,B10,2.66258782702545,0.500841745676637,0.496641510184367,0.499158254323363,0.499158254323363,0.500001417071568,0.505029265638649,0.5,0.5,0.499158254323363,0.499158254323363,0.504194581503705,0.5,0.5,0.5,0.498317925718295,0.502520988200833,0.497498659168533,0.502501340831467,0.500001417071568,0.505029265638649,0.191734877025406,0.50058822811275,-0.500001417071568,-0.000841748062264595,0.5,0.00168349135327373,1.09812274423247,0.0520305787512285,2.2441839053621,0.5,70.2549414055393
CBC_1013,CBC_1013_MSI_TV_v3_Vset4_Tset2_2023-06-23_15h01.09.889.csv,2,29,3,2,z,0,1,1,tac,C,63,1,3C,2C,0,1,z,2.14051949999703,0,1,1,1,2C,3C,C32,3.09104245335832,0.500841745676637,0.496641510184367,0.499158254323363,0.499158254323363,0.499159669009304,0.505029265638649,0.5,0.5,0.499158254323363,0.499158254323363,0.504194581503705,0.5,0.5,0.5,0.498317925718295,0.502520988200833,0.502088530241531,0.497911469758469,0.504194581503705,0.5,0.224550687262473,0.500262732362069,0.495805418496295,0.000834684134944774,0.5,0.00168349135327373,1.09812274423247,0.0520305787512285,2.2441839053621,0.5,70.2549414055393
CBC_1013,CBC_1013_MSI_TV_v3_Vset4_Tset2_2023-06-23_15h01.09.889.csv,2,30,0,1,b,1,0,2,tac,A,63,1,0A,1A,1,0,b,1.66469520000101,1,0,1,1,0A,1A,A01,2.70805020110221,0.500841745676637,0.496641510184367,0.499158254323363,0.499158254323363,0.499159669009304,0.505029265638649,0.5,0.5,0.499158254323363,0.499158254323363,0.505029265638649,0.5,0.5,0.5,0.498317925718295,0.502520988200833,0.502105416540874,0.497894583459126,0.500841745676637,0.496641510184367,0.346092878985925,0.501015825694495,0.499158254323363,0.000840328605068589,0.5,0.00168349135327373,1.09812274423247,0.0520305787512285,2.2441839053621,0.5,70.2549414055393
CBC_1013,CBC_1013_MSI_TV_v3_Vset4_Tset2_2023-06-23_15h01.09.889.csv,2,31,3,2,b,1,0,3,tac,D,63,1,3D,2D,1,0,z,1.68298009999853,0,1,0,0,2D,3D,D32,2.73002910782099,0.501682074281705,0.496641510184367,0.499158254323363,0.499158254323363,0.499159669009304,0.505029265638649,0.5,0.5,0.499158254323363,0.499158254323363,0.505029265638649,0.5,0.5,0.5,0.498317925718295,0.502520988200833,0.497900230284772,0.502099769715228,0.498317925718295,0.502520988200833,0.341373836756876,0.500670242039114,-0.498317925718295,-0.000838913919128047,0.5,0.00168349135327373,1.09812274423247,0.0520305787512285,2.2441839053621,0.5,70.2549414055393
CBC_1013,CBC_1013_MSI_TV_v3_Vset4_Tset2_2023-06-23_15h01.09.889.csv,2,32,3,2,z,0,1,1,tac,C,63,1,3C,2C,0,1,b,2.40184629999931,1,0,0,0,3C,2C,C32,2.75153531304195,0.501682074281705,0.496641510184367,0.499158254323363,0.499158254323363,0.499159669009304,0.505029265638649,0.5,0.5,0.499158254323363,0.499158254323363,0.505029265638649,0.5,0.5,0.5,0.497479011799166,0.502520988200833,0.49749795065149,0.50250204934851,0.5,0.505029265638649,0.173849768665424,0.49996666382969,-0.5,-0.000841745676636863,0.5,0.00168349135327373,1.09812274423247,0.0520305787512285,2.2441839053621,0.5,70.2549414055393
CBC_1013,CBC_1013_MSI_TV_v3_Vset4_Tset2_2023-06-23_15h01.09.889.csv,2,33,1,3,z,0,1,3,tac,D,27,1,1D,3D,0,1,z,2.44482809999681,0,1,1,1,3D,1D,D13,3.17805383034795,0.501682074281705,0.496641510184367,0.499158254323363,0.499158254323363,0.499159669009304,0.505029265638649,0.5,0.5,0.499158254323363,0.499158254323363,0.505029265638649,0.499158254323363,0.5,0.5,0.497479011799166,0.502520988200833,0.501257324400439,0.498742675599561,0.502520988200833,0.5,0.166767143238871,0.500212080543891,0.497479011799167,0.000837501614799054,0.5,0.00168349135327373,1.09812274423247,0.0520305787512285,2.2441839053621,0.5,70.2549414055393
CBC_1013,CBC_1013_MSI_TV_v3_Vset4_Tset2_2023-06-23_15h01.09.889.csv,2,34,2,0,b,1,0,1,tac,C,27,1,2C,0C,1,0,b,1.82400549999875,1,0,1,1,2C,0C,C20,3.89182029811063,0.501682074281705,0.496641510184367,0.499158254323363,0.499158254323363,0.499159669009304,0.505029265638649,0.5,0.5,0.499158254323363,0.499158254323363,0.505029265638649,0.499158254323363,0.5,0.5,0.497479011799166,0.503358489815632,0.502923264429491,0.49707673557051,0.505029265638649,0.499158254323363,0.30256390015649,0.498964181524462,0.494970734361351,0.000833278951420879,0.5,0.00168349135327373,1.09812274423247,0.0520305787512285,2.2441839053621,0.5,70.2549414055393
CBC_1013,CBC_1013_MSI_TV_v3_Vset4_Tset2_2023-06-23_15h01.09.889.csv,2,35,3,2,b,1,0,3,tac,D,63,0,3D,2D,0,1,z,2.70410839999749,0,1,0,1,2D,3D,D32,2.52572864430826,0.501682074281705,0.496641510184367,0.499158254323363,0.499158254323363,0.499159669009304,0.505029265638649,0.5,0.5,0.499158254323363,0.499158254323363,0.50586254459007,0.499158254323363,0.5,0.5,0.497479011799166,0.503358489815632,0.4970627209677,0.5029372790323,0.497479011799166,0.503358489815632,0.129127472716412,0.499305447811186,0.502520988200833,0.000845989738474671,0.5,0.00168349135327373,1.09812274423247,0.0520305787512285,2.2441839053621,0.5,70.2549414055393
CBC_1013,CBC_1013_MSI_TV_v3_Vset4_Tset2_2023-06-23_15h01.09.889.csv,2,36,0,1,b,1,0,2,tac,A,63,1,0A,1A,1,0,z,2.2869271999989,0,1,0,0,1A,0A,A01,2.54553127160444,0.501682074281705,0.496641510184367,0.499158254323363,0.499158254323363,0.499159669009304,0.505029265638649,0.5,0.5,0.499158254323363,0.499158254323363,0.50586254459007,0.499158254323363,0.5,0.5,0.498325001537641,0.503358489815632,0.497475485816538,0.502524514183462,0.496641510184367,0.501682074281705,0.1944772689981,0.499807646674102,-0.496641510184367,-0.000836091688072187,0.5,0.00168349135327373,1.09812274423247,0.0520305787512285,2.2441839053621,0.5,70.2549414055393
CBC_1013,CBC_1013_MSI_TV_v3_Vset4_Tset2_2023-06-23_15h01.09.889.csv,2,37,3,2,z,0,1,1,tac,C,63,1,3C,2C,0,1,z,1.92312569999922,0,1,1,1,2C,3C,C32,2.56494935746154,0.501682074281705,0.495805418496295,0.499158254323363,0.499158254323363,0.499159669009304,0.505029265638649,0.5,0.5,0.499158254323363,0.499158254323363,0.50586254459007,0.499158254323363,0.5,0.5,0.498325001537641,0.503358489815632,0.503335398766849,0.496664601233151,0.50586254459007,0.499158254323363,0.276715585704082,0.500114194707108,0.49413745540993,0.000831876133511297,0.5,0.00168349135327373,1.09812274423247,0.0520305787512285,2.2441839053621,0.5,70.2549414055393
CBC_1013,CBC_1013_MSI_TV_v3_Vset4_Tset2_2023-06-23_15h01.09.889.csv,2,38,2,0,z,0,1,2,tac,A,27,1,2A,0A,0,1,b,2.05149940000047,1,0,0,0,2A,0A,A20,2.87167962488401,0.501682074281705,0.495805418496295,0.499158254323363,0.499158254323363,0.499159669009304,0.505029265638649,0.5,0.5,0.499158254323363,0.499158254323363,0.506694420723582,0.499158254323363,0.5,0.5,0.498325001537641,0.503358489815632,0.498739149549529,0.501260850450471,0.499158254323363,0.501682074281705,0.24464541340511,0.499932986775665,-0.499158254323363,-0.000840328605068589,0.5,0.00168349135327373,1.09812274423247,0.0520305787512285,2.2441839053621,0.5,70.2549414055393
CBC_1013,CBC_1013_MSI_TV_v3_Vset4_Tset2_2023-06-23_15h01.09.889.csv,2,39,3,2,b,1,0,3,tac,D,63,1,3D,2D,1,0,z,2.68382859999838,0,1,0,0,2D,3D,D32,2.37954613413017,0.501682074281705,0.495805418496295,0.498317925718295,0.499158254323363,0.499159669009304,0.505029265638649,0.5,0.5,0.499158254323363,0.499158254323363,0.506694420723582,0.499158254323363,0.5,0.5,0.498325001537641,0.503358489815632,0.497487485657175,0.502512514342825,0.498325001537641,0.503358489815632,0.131940684736195,0.500146506682389,-0.498325001537641,-0.000838925831208735,0.5,0.00168349135327373,1.09812274423247,0.0520305787512285,2.2441839053621,0.5,70.2549414055393
CBC_1013,CBC_1013_MSI_TV_v3_Vset4_Tset2_2023-06-23_15h01.09.889.csv,2,40,2,3,z,0,1,3,tac,D,63,1,2D,3D,0,1,b,2.52548409999872,1,0,0,0,2D,3D,D23,3.31418600467253,0.501682074281705,0.495805418496295,0.498317925718295,0.499158254323363,0.499159669009304,0.505029265638649,0.5,0.5,0.499158254323363,0.499158254323363,0.506694420723582,0.499158254323363,0.5,0.5,0.497486075706432,0.503358489815632,0.497066270672041,0.502933729327959,0.497486075706432,0.503358489815632,0.153675512980451,0.498832479475404,-0.497486075706432,-0.000837513506825857,0.5,0.00168349135327373,1.09812274423247,0.0520305787512285,2.2441839053621,0.5,70.2549414055393
CBC_1013,CBC_1013_MSI_TV_v3_Vset4_Tset2_2023-06-23_15h01.09.889.csv,2,41,1,3,b,1,0,0,tac,B,27,1,1B,3B,1,0,z,2.16022449999582,0,1,0,0,3B,1B,B13,3.3322045101752,0.501682074281705,0.495805418496295,0.498317925718295,0.499158254323363,0.499159669009304,0.505029265638649,0.5,0.5,0.499158254323363,0.499158254323363,0.506694420723582,0.499158254323363,0.5,0.5,0.496648562199607,0.503358489815632,0.49749795065149,0.50250204934851,0.5,0.505029265638649,0.220283447713087,0.500262637670393,-0.5,-0.000841745676636863,0.5,0.00168349135327373,1.09812274423247,0.0520305787512285,2.2441839053621,0.5,70.2549414055393
CBC_1013,CBC_1013_MSI_TV_v3_Vset4_Tset2_2023-06-23_15h01.09.889.csv,2,42,0,3,z,0,1,3,tac,D,9,1,0D,3D,0,1,z,2.40067689999705,0,1,1,1,3D,0D,D03,4.04305126783455,0.501682074281705,0.495805418496295,0.498317925718295,0.499158254323363,0.499159669009304,0.505029265638649,0.5,0.499158254323363,0.499158254323363,0.499158254323363,0.506694420723582,0.499158254323363,0.5,0.5,0.496648562199607,0.503358489815632,0.501673624058461,0.498326375941539,0.503358489815632,0.5,0.173938647988251,0.499649939422607,0.496641510184368,0.000836091688072187,0.5,0.00168349135327373,1.09812274423247,0.0520305787512285,2.2441839053621,0.5,70.2549414055393
CBC_1013,CBC_1013_MSI_TV_v3_Vset4_Tset2_2023-06-23_15h01.09.889.csv,2,43,1,0,b,1,0,0,tac,B,63,1,1B,0B,1,0,b,3.08699239999623,1,0,1,1,1B,0B,B10,2.67414864942653,0.501682074281705,0.495805418496295,0.498317925718295,0.499158254323363,0.499159669009304,0.505029265638649,0.5,0.499158254323363,0.499158254323363,0.499158254323363,0.506694420723582,0.499158254323363,0.5,0.5,0.496648562199607,0.504194581503705,0.502922555918924,0.497077444081077,0.505029265638649,0.499159669009304,0.0889156020606485,0.500325449399651,0.494970734361351,0.000833278951420879,0.5,0.00168349135327373,1.09812274423247,0.0520305787512285,2.2441839053621,0.5,70.2549414055393
CBC_1013,CBC_1013_MSI_TV_v3_Vset4_Tset2_2023-06-23_15h01.09.889.csv,2,44,1,0,z,0,1,2,tac,A,63,1,1A,0A,0,1,z,2.60529799999495,0,1,1,1,0A,1A,A10,2.97892515523761,0.501682074281705,0.495805418496295,0.498317925718295,0.499158254323363,0.499159669009304,0.50586254459007,0.5,0.499158254323363,0.499158254323363,0.499158254323363,0.506694420723582,0.499158254323363,0.5,0.5,0.496648562199607,0.504194581503705,0.502945729058238,0.497054270941762,0.501682074281705,0.495805418496295,0.142767536537549,0.501112164732852,0.498317925718295,0.000838913919128047,0.5,0.00168349135327373,1.09812274423247,0.0520305787512285,2.2441839053621,0.5,70.2549414055393
CBC_1013,CBC_1013_MSI_AV_v3_Vset3_Aset1_2023-06-23_16h50.00.877.csv,3,1,1,0,b,1,0,0,aud,B,63,1,1B,0B,1,0,b,1.6248302999993,1,0,1,1,1B,0B,B10,2.77258872223978,0.5,0.5,0.5,0.5,0.5,0.5,0.5,0.5,0.5,0.5,0.5,0.5,0.5,0.5,0.5,0.5,0.5,0.5,0.5,0.5,0.274363727627355,0.499592169122501,0.5,0.0684588190686469,0.5,0.136917638137294,0.907541080921755,2.21003263603667,2.51155220586844,0.5,72.0932685531034
CBC_1013,CBC_1013_MSI_AV_v3_Vset3_Aset1_2023-06-23_16h50.00.877.csv,3,2,0,1,b,1,0,2,aud,A,63,1,0A,1A,1,0,b,1.44742380000025,1,0,1,1,0A,1A,A01,2.83321334405622,0.5,0.5,0.5,0.5,0.5,0.568458819068647,0.5,0.5,0.5,0.5,0.5,0.5,0.5,0.5,0.5,0.5,0.5,0.5,0.5,0.5,0.293401715768917,0.50043526319948,0.5,0.0684588190686469,0.5,0.136917638137294,0.907541080921755,2.21003263603667,2.51155220586844,0.5,72.0932685531034
CBC_1013,CBC_1013_MSI_AV_v3_Vset3_Aset1_2023-06-23_16h50.00.877.csv,3,3,1,2,z,0,1,1,aud,C,9,1,1C,2C,0,1,z,1.24562669999796,0,1,1,1,2C,1C,C12,2.89037175789616,0.568458819068647,0.5,0.5,0.5,0.5,0.568458819068647,0.5,0.5,0.5,0.5,0.5,0.5,0.5,0.5,0.5,0.5,0.5,0.5,0.5,0.5,0.247731444240834,0.500650612262621,0.5,0.0684588190686469,0.5,0.136917638137294,0.907541080921755,2.21003263603667,2.51155220586844,0.5,72.0932685531034
CBC_1013,CBC_1013_MSI_AV_v3_Vset3_Aset1_2023-06-23_16h50.00.877.csv,3,4,1,0,z,0,1,2,aud,A,63,1,1A,0A,0,1,b,2.38273529999788,1,0,0,0,1A,0A,A10,2.94443897916644,0.568458819068647,0.5,0.5,0.5,0.5,0.568458819068647,0.5,0.5,0.5,0.5,0.568458819068647,0.5,0.5,0.5,0.5,0.5,0.467963754032036,0.532036245967964,0.5,0.568458819068647,0.129506571435797,0.412026933615506,-0.5,-0.0684588190686469,0.5,0.136917638137294,0.907541080921755,2.21003263603667,2.51155220586844,0.5,72.0932685531034
CBC_1013,CBC_1013_MSI_AV_v3_Vset3_Aset1_2023-06-23_16h50.00.877.csv,3,5,3,1,b,1,0,3,aud,D,27,1,3D,1D,1,0,b,2.03948099999616,1,0,1,1,3D,1D,D31,2.99573227355399,0.568458819068647,0.431541180931353,0.5,0.5,0.5,0.568458819068647,0.5,0.5,0.5,0.5,0.568458819068647,0.5,0.5,0.5,0.5,0.5,0.5,0.5,0.5,0.5,0.204954300899187,0.500081229708101,0.5,0.0684588190686469,0.5,0.136917638137294,0.907541080921755,2.21003263603667,2.51155220586844,0.5,72.0932685531034
CBC_1013,CBC_1013_MSI_AV_v3_Vset3_Aset1_2023-06-23_16h50.00.877.csv,3,6,0,1,z,0,1,0,aud,B,63,1,0B,1B,0,1,z,2.28716159999749,0,1,1,1,1B,0B,B01,3.04452243772342,0.568458819068647,0.431541180931353,0.5,0.5,0.5,0.568458819068647,0.5,0.5,0.5,0.5,0.568458819068647,0.5,0.5,0.5,0.5,0.568458819068647,0.532036245967964,0.467963754032036,0.568458819068647,0.5,0.198905961358638,0.586838567172784,0.431541180931353,0.0590855992520995,0.5,0.136917638137294,0.907541080921755,2.21003263603667,2.51155220586844,0.5,72.0932685531034
CBC_1013,CBC_1013_MSI_AV_v3_Vset3_Aset1_2023-06-23_16h50.00.877.csv,3,7,2,3,b,1,0,1,aud,C,63,1,2C,3C,1,0,b,2.21444189999966,1,0,1,1,2C,3C,C23,3.09104245335832,0.568458819068647,0.431541180931353,0.5,0.5,0.5,0.627544418320746,0.5,0.5,0.5,0.5,0.568458819068647,0.5,0.5,0.5,0.5,0.568458819068647,0.532036245967964,0.467963754032036,0.568458819068647,0.5,0.21109334787409,0.588074300772459,0.431541180931353,0.0590855992520995,0.5,0.136917638137294,0.907541080921755,2.21003263603667,2.51155220586844,0.5,72.0932685531034
CBC_1013,CBC_1013_MSI_AV_v3_Vset3_Aset1_2023-06-23_16h50.00.877.csv,3,8,2,0,z,0,1,2,aud,A,27,1,2A,0A,0,1,z,2.55901079999967,0,1,1,1,0A,2A,A20,3.13549421592915,0.568458819068647,0.431541180931353,0.5,0.5,0.5,0.627544418320746,0.5,0.5,0.5,0.5,0.627544418320746,0.5,0.5,0.5,0.5,0.568458819068647,0.532036245967964,0.467963754032036,0.568458819068647,0.5,0.160488489436081,0.587005294609933,0.431541180931353,0.0590855992520995,0.5,0.136917638137294,0.907541080921755,2.21003263603667,2.51155220586844,0.5,72.0932685531034
CBC_1013,CBC_1013_MSI_AV_v3_Vset3_Aset1_2023-06-23_16h50.00.877.csv,3,9,3,2,b,1,0,3,aud,D,63,1,3D,2D,1,0,b,2.2502381000013,1,0,1,1,3D,2D,D32,3.17805383034795,0.627544418320746,0.431541180931353,0.5,0.5,0.5,0.627544418320746,0.5,0.5,0.5,0.5,0.627544418320746,0.5,0.5,0.5,0.5,0.568458819068647,0.532036245967964,0.467963754032036,0.568458819068647,0.5,0.20496417131807,0.587349188367835,0.431541180931353,0.0590855992520995,0.5,0.136917638137294,0.907541080921755,2.21003263603667,2.51155220586844,0.5,72.0932685531034
CBC_1013,CBC_1013_MSI_AV_v3_Vset3_Aset1_2023-06-23_16h50.00.877.csv,3,10,3,1,z,0,1,0,aud,B,27,1,3B,1B,0,1,z,1.72423780000099,0,1,1,1,1B,3B,B31,3.2188758248682,0.627544418320746,0.431541180931353,0.5,0.5,0.5,0.627544418320746,0.5,0.5,0.5,0.5,0.627544418320746,0.5,0.5,0.5,0.5,0.627544418320746,0.556558489514186,0.443441510485814,0.627544418320746,0.5,0.343703803663525,0.650841250951543,0.372455581679254,0.0509957385545753,0.5,0.136917638137294,0.907541080921755,2.21003263603667,2.51155220586844,0.5,72.0932685531034
CBC_1013,CBC_1013_MSI_AV_v3_Vset3_Aset1_2023-06-23_16h50.00.877.csv,3,11,3,2,z,0,1,1,aud,C,63,1,3C,2C,0,1,z,2.34041889999935,0,1,1,1,2C,3C,C32,3.25809653802148,0.627544418320746,0.431541180931353,0.5,0.5,0.5,0.678540156875322,0.5,0.5,0.5,0.5,0.627544418320746,0.5,0.5,0.5,0.5,0.627544418320746,0.556558489514186,0.443441510485814,0.627544418320746,0.5,0.212361040760204,0.65187822661364,0.372455581679254,0.0509957385545753,0.5,0.136917638137294,0.907541080921755,2.21003263603667,2.51155220586844,0.5,72.0932685531034
CBC_1013,CBC_1013_MSI_AV_v3_Vset3_Aset1_2023-06-23_16h50.00.877.csv,3,12,1,3,b,1,0,0,aud,B,27,1,1B,3B,1,0,b,2.02770080000118,1,0,1,1,1B,3B,B13,3.29583686600433,0.627544418320746,0.431541180931353,0.5,0.5,0.5,0.678540156875322,0.5,0.5,0.5,0.5,0.678540156875322,0.5,0.5,0.5,0.5,0.627544418320746,0.575746318796929,0.424253681203071,0.678540156875322,0.5,0.295289482983399,0.697840391886053,0.321459843124678,0.0440135224766159,0.5,0.136917638137294,0.907541080921755,2.21003263603667,2.51155220586844,0.5,72.0932685531034
CBC_1013,CBC_1013_MSI_AV_v3_Vset3_Aset1_2023-06-23_16h50.00.877.csv,3,13,3,2,z,0,1,1,aud,C,63,1,3C,2C,0,1,z,2.85262969999894,0,1,1,1,2C,3C,C32,2.63905732961526,0.627544418320746,0.431541180931353,0.5,0.5,0.5,0.722553679351938,0.5,0.5,0.5,0.5,0.678540156875322,0.5,0.5,0.5,0.5,0.627544418320746,0.575746318796929,0.424253681203071,0.678540156875322,0.5,0.148451418494235,0.698520756053261,0.321459843124678,0.0440135224766159,0.5,0.136917638137294,0.907541080921755,2.21003263603667,2.51155220586844,0.5,72.0932685531034
CBC_1013,CBC_1013_MSI_AV_v3_Vset3_Aset1_2023-06-23_16h50.00.877.csv,3,14,3,2,b,1,0,3,aud,D,63,1,3D,2D,1,0,z,2.23503640000126,0,1,0,0,2D,3D,D32,2.67414864942653,0.627544418320746,0.431541180931353,0.5,0.5,0.5,0.722553679351938,0.5,0.5,0.5,0.5,0.722553679351938,0.5,0.5,0.5,0.5,0.627544418320746,0.443441510485814,0.556558489514186,0.5,0.627544418320746,0.123527528907201,0.348160843913606,-0.5,-0.0684588190686469,0.5,0.136917638137294,0.907541080921755,2.21003263603667,2.51155220586844,0.5,72.0932685531034
CBC_1013,CBC_1013_MSI_AV_v3_Vset3_Aset1_2023-06-23_16h50.00.877.csv,3,15,0,3,b,1,0,2,aud,A,9,1,0A,3A,1,0,b,2.49769419999939,1,0,1,1,0A,3A,A03,3.40119738166216,0.627544418320746,0.431541180931353,0.5,0.5,0.5,0.722553679351938,0.5,0.5,0.5,0.5,0.722553679351938,0.5,0.5,0.5,0.431541180931353,0.627544418320746,0.556558489514186,0.443441510485814,0.627544418320746,0.5,0.186973026122541,0.652132250150458,0.372455581679254,0.0509957385545753,0.5,0.136917638137294,0.907541080921755,2.21003263603667,2.51155220586844,0.5,72.0932685531034
CBC_1013,CBC_1013_MSI_AV_v3_Vset3_Aset1_2023-06-23_16h50.00.877.csv,3,16,0,1,z,0,1,0,aud,B,63,0,0B,1B,1,0,z,2.02205699999831,0,1,1,0,1B,0B,B01,2.7408400239252,0.678540156875322,0.431541180931353,0.5,0.5,0.5,0.722553679351938,0.5,0.5,0.5,0.5,0.722553679351938,0.5,0.5,0.5,0.431541180931353,0.627544418320746,0.591020003092997,0.408979996907002,0.722553679351938,0.5,0.314886055320926,0.733850582904805,-0.722553679351938,-0.0989303432042789,0.5,0.136917638137294,0.907541080921755,2.21003263603667,2.51155220586844,0.5,72.0932685531034
CBC_1013,CBC_1013_MSI_AV_v3_Vset3_Aset1_2023-06-23_16h50.00.877.csv,3,17,2,3,z,0,1,3,aud,D,63,1,2D,3D,0,1,b,2.39136990000043,1,0,0,0,2D,3D,D23,3.46573590279973,0.678540156875322,0.431541180931353,0.5,0.5,0.5,0.623623336147659,0.5,0.5,0.5,0.5,0.722553679351938,0.5,0.5,0.5,0.431541180931353,0.627544418320746,0.407465818849862,0.592534181150138,0.431541180931353,0.627544418320746,0.0825995468237404,0.264186136899406,-0.431541180931353,-0.0590855992520995,0.5,0.136917638137294,0.907541080921755,2.21003263603667,2.51155220586844,0.5,72.0932685531034
CBC_1013,CBC_1013_MSI_AV_v3_Vset3_Aset1_2023-06-23_16h50.00.877.csv,3,18,0,2,z,0,1,1,aud,C,27,1,0C,2C,0,1,z,2.81760660000145,0,1,1,1,2C,0C,C02,3.49650756146648,0.678540156875322,0.431541180931353,0.5,0.5,0.5,0.623623336147659,0.5,0.5,0.5,0.5,0.722553679351938,0.5,0.5,0.5,0.372455581679254,0.627544418320746,0.591020003092997,0.408979996907002,0.722553679351938,0.5,0.15876396630526,0.733510867020292,0.277446320648062,0.037987294933015,0.5,0.136917638137294,0.907541080921755,2.21003263603667,2.51155220586844,0.5,72.0932685531034
CBC_1013,CBC_1013_MSI_AV_v3_Vset3_Aset1_2023-06-23_16h50.00.877.csv,3,19,0,1,b,1,0,2,aud,A,63,1,0A,1A,1,0,b,1.58201569999801,1,0,1,1,0A,1A,A01,2.83321334405622,0.678540156875322,0.431541180931353,0.5,0.5,0.5,0.623623336147659,0.5,0.5,0.5,0.5,0.760540974284953,0.5,0.5,0.5,0.372455581679254,0.627544418320746,0.611252647680752,0.388747352319248,0.678540156875322,0.431541180931353,0.47951270831904,0.774127546564031,0.321459843124678,0.0440135224766159,0.5,0.136917638137294,0.907541080921755,2.21003263603667,2.51155220586844,0.5,72.0932685531034
CBC_1013,CBC_1013_MSI_AV_v3_Vset3_Aset1_2023-06-23_16h50.00.877.csv,3,20,1,0,b,1,0,0,aud,B,63,1,1B,0B,1,0,b,1.62303519999841,1,0,1,1,1B,0B,B10,2.86220088092947,0.722553679351938,0.431541180931353,0.5,0.5,0.5,0.623623336147659,0.5,0.5,0.5,0.5,0.760540974284953,0.5,0.5,0.5,0.372455581679254,0.627544418320746,0.555011022008274,0.444988977991726,0.623623336147659,0.5,0.364983737067481,0.647768710019168,0.376376663852341,0.0515326038646567,0.5,0.136917638137294,0.907541080921755,2.21003263603667,2.51155220586844,0.5,72.0932685531034
CBC_1013,CBC_1013_MSI_AV_v3_Vset3_Aset1_2023-06-23_16h50.00.877.csv,3,21,1,3,z,0,1,3,aud,D,27,1,1D,3D,0,1,z,1.86557469999752,0,1,1,1,3D,1D,D13,3.58351893845611,0.722553679351938,0.431541180931353,0.5,0.5,0.5,0.675155940012316,0.5,0.5,0.5,0.5,0.760540974284953,0.5,0.5,0.5,0.372455581679254,0.627544418320746,0.556558489514186,0.443441510485814,0.627544418320746,0.5,0.310325549927425,0.651964556253159,0.372455581679254,0.0509957385545753,0.5,0.136917638137294,0.907541080921755,2.21003263603667,2.51155220586844,0.5,72.0932685531034
CBC_1013,CBC_1013_MSI_AV_v3_Vset3_Aset1_2023-06-23_16h50.00.877.csv,3,22,3,2,z,0,1,1,aud,C,63,1,3C,2C,0,1,b,2.80694950000179,1,0,0,0,3C,2C,C32,2.51230562397611,0.722553679351938,0.431541180931353,0.5,0.5,0.5,0.675155940012316,0.5,0.5,0.5,0.5,0.760540974284953,0.5,0.5,0.5,0.372455581679254,0.678540156875322,0.396655095074261,0.603344904925739,0.5,0.760540974284953,0.0520830960969518,0.240972912604794,-0.5,-0.0684588190686469,0.5,0.136917638137294,0.907541080921755,2.21003263603667,2.51155220586844,0.5,72.0932685531034
CBC_1013,CBC_1013_MSI_AV_v3_Vset3_Aset1_2023-06-23_16h50.00.877.csv,3,23,0,1,b,1,0,2,aud,A,63,1,0A,1A,1,0,b,1.7307802999967,1,0,1,1,0A,1A,A01,2.53897387105828,0.722553679351938,0.431541180931353,0.5,0.5,0.5,0.675155940012316,0.5,0.5,0.5,0.5,0.760540974284953,0.431541180931353,0.5,0.5,0.372455581679254,0.678540156875322,0.626078240374951,0.373921759625049,0.722553679351938,0.431541180931353,0.454934729576335,0.801642251974465,0.277446320648062,0.037987294933015,0.5,0.136917638137294,0.907541080921755,2.21003263603667,2.51155220586844,0.5,72.0932685531034
CBC_1013,CBC_1013_MSI_AV_v3_Vset3_Aset1_2023-06-23_16h50.00.877.csv,3,24,2,3,z,0,1,3,aud,D,63,1,2D,3D,0,1,b,2.48139860000083,1,0,0,0,2D,3D,D23,2.9704144655697,0.760540974284953,0.431541180931353,0.5,0.5,0.5,0.675155940012316,0.5,0.5,0.5,0.5,0.760540974284953,0.431541180931353,0.5,0.5,0.372455581679254,0.678540156875322,0.354383531746274,0.645616468253726,0.372455581679254,0.678540156875322,0.0470293957772949,0.166570580034305,-0.372455581679254,-0.0509957385545753,0.5,0.136917638137294,0.907541080921755,2.21003263603667,2.51155220586844,0.5,72.0932685531034
CBC_1013,CBC_1013_MSI_AV_v3_Vset3_Aset1_2023-06-23_16h50.00.877.csv,3,25,2,0,b,1,0,1,aud,C,27,1,2C,0C,1,0,b,2.63205450000169,1,0,1,1,2C,0C,C20,3.68887945411394,0.760540974284953,0.431541180931353,0.5,0.5,0.5,0.675155940012316,0.5,0.5,0.5,0.5,0.760540974284953,0.431541180931353,0.5,0.5,0.321459843124678,0.678540156875322,0.603344904925739,0.396655095074261,0.760540974284953,0.5,0.191331002623053,0.757831862324135,0.239459025715047,0.0327861642315618,0.5,0.136917638137294,0.907541080921755,2.21003263603667,2.51155220586844,0.5,72.0932685531034
CBC_1013,CBC_1013_MSI_AV_v3_Vset3_Aset1_2023-06-23_16h50.00.877.csv,3,26,0,1,b,1,0,2,aud,A,63,1,0A,1A,1,0,b,3.35273500000039,1,0,1,1,0A,1A,A01,2.32727770558442,0.760540974284953,0.431541180931353,0.5,0.5,0.5,0.675155940012316,0.5,0.5,0.5,0.5,0.793327138516514,0.431541180931353,0.5,0.5,0.321459843124678,0.678540156875322,0.637993758196096,0.362006241803904,0.760540974284953,0.431541180931353,0.100377935585186,0.822160765456915,0.239459025715047,0.0327861642315618,0.5,0.136917638137294,0.907541080921755,2.21003263603667,2.51155220586844,0.5,72.0932685531034
CBC_1013,CBC_1013_MSI_AV_v3_Vset3_Aset1_2023-06-23_16h50.00.877.csv,3,27,1,3,b,1,0,0,aud,B,27,1,1B,3B,1,0,b,1.05382739999914,1,0,1,1,1B,3B,B13,3.04452243772342,0.793327138516514,0.431541180931353,0.5,0.5,0.5,0.675155940012316,0.5,0.5,0.5,0.5,0.793327138516514,0.431541180931353,0.5,0.5,0.321459843124678,0.678540156875322,0.574524552039655,0.425475447960345,0.675155940012316,0.5,0.0612460249723817,0.695499581621921,0.324844059987684,0.0444768814564431,0.5,0.136917638137294,0.907541080921755,2.21003263603667,2.51155220586844,0.5,72.0932685531034
CBC_1013,CBC_1013_MSI_AV_v3_Vset3_Aset1_2023-06-23_16h50.00.877.csv,3,28,3,2,z,0,1,1,aud,C,63,1,3C,2C,0,1,b,1.78966030000083,1,0,0,0,3C,2C,C32,2.37490575457367,0.793327138516514,0.431541180931353,0.5,0.5,0.5,0.719632821468759,0.5,0.5,0.5,0.5,0.793327138516514,0.431541180931353,0.5,0.5,0.321459843124678,0.678540156875322,0.352316387059368,0.647683612940632,0.431541180931353,0.793327138516514,0.0900442530276904,0.162439121806024,-0.431541180931353,-0.0590855992520995,0.5,0.136917638137294,0.907541080921755,2.21003263603667,2.51155220586844,0.5,72.0932685531034
CBC_1013,CBC_1013_MSI_AV_v3_Vset3_Aset1_2023-06-23_16h50.00.877.csv,3,29,3,2,b,1,0,3,aud,D,63,1,3D,2D,1,0,b,2.38532430000123,1,0,1,1,3D,2D,D32,2.68557734525015,0.793327138516514,0.431541180931353,0.5,0.5,0.5,0.719632821468759,0.5,0.5,0.5,0.5,0.793327138516514,0.372455581679254,0.5,0.5,0.321459843124678,0.678540156875322,0.678540156875322,0.321459843124678,0.678540156875322,0.321459843124678,0.26645994178823,0.879151493190216,0.321459843124678,0.0440135224766159,0.5,0.136917638137294,0.907541080921755,2.21003263603667,2.51155220586844,0.5,72.0932685531034
CBC_1013,CBC_1013_MSI_AV_v3_Vset3_Aset1_2023-06-23_16h50.00.877.csv,3,30,0,1,z,0,1,0,aud,B,63,1,0B,1B,0,1,z,1.37549630000285,0,1,1,1,1B,0B,B01,2.70805020110221,0.793327138516514,0.431541180931353,0.5,0.5,0.5,0.719632821468759,0.5,0.5,0.5,0.5,0.793327138516514,0.372455581679254,0.5,0.5,0.321459843124678,0.722553679351938,0.590040550566794,0.409959449433206,0.719632821468759,0.5,0.46087953238554,0.730851353509855,0.280367178531241,0.0383872118957146,0.5,0.136917638137294,0.907541080921755,2.21003263603667,2.51155220586844,0.5,72.0932685531034
CBC_1013,CBC_1013_MSI_AV_v3_Vset3_Aset1_2023-06-23_16h50.00.877.csv,3,31,2,0,z,0,1,2,aud,A,27,1,2A,0A,0,1,b,3.05689499999789,1,0,0,0,2A,0A,A20,3.13549421592915,0.793327138516514,0.431541180931353,0.5,0.5,0.5,0.758020033364473,0.5,0.5,0.5,0.5,0.793327138516514,0.372455581679254,0.5,0.5,0.321459843124678,0.722553679351938,0.38659978988264,0.61340021011736,0.5,0.793327138516514,0.0377153546332585,0.221224882759129,-0.5,-0.0684588190686469,0.5,0.136917638137294,0.907541080921755,2.21003263603667,2.51155220586844,0.5,72.0932685531034
CBC_1013,CBC_1013_MSI_AV_v3_Vset3_Aset1_2023-06-23_16h50.00.877.csv,3,32,3,0,b,1,0,3,aud,D,9,1,3D,0D,1,0,b,3.61074789999839,1,0,1,1,3D,0D,D30,3.85014760171006,0.793327138516514,0.431541180931353,0.431541180931353,0.5,0.5,0.758020033364473,0.5,0.5,0.5,0.5,0.793327138516514,0.372455581679254,0.5,0.5,0.321459843124678,0.722553679351938,0.591020003092997,0.408979996907002,0.722553679351938,0.5,0.0800275431229491,0.733147082217704,0.277446320648062,0.037987294933015,0.5,0.136917638137294,0.907541080921755,2.21003263603667,2.51155220586844,0.5,72.0932685531034
CBC_1013,CBC_1013_MSI_AV_v3_Vset3_Aset1_2023-06-23_16h50.00.877.csv,3,33,3,2,z,0,1,1,aud,C,63,1,3C,2C,0,1,z,2.25690160000158,0,1,1,1,2C,3C,C32,2.26176309847379,0.793327138516514,0.431541180931353,0.431541180931353,0.5,0.5,0.758020033364473,0.5,0.5,0.5,0.5,0.793327138516514,0.372455581679254,0.5,0.5,0.321459843124678,0.760540974284953,0.680510291303076,0.319489708696924,0.793327138516514,0.372455581679254,0.307044322459497,0.88141235840081,0.206672861483486,0.0282971600613949,0.5,0.136917638137294,0.907541080921755,2.21003263603667,2.51155220586844,0.5,72.0932685531034
CBC_1013,CBC_1013_MSI_AV_v3_Vset3_Aset1_2023-06-23_16h50.00.877.csv,3,34,0,1,z,0,1,0,aud,B,63,1,0B,1B,0,1,z,1.25709920000008,0,1,1,1,1B,0B,B01,2.50552593699074,0.793327138516514,0.431541180931353,0.431541180931353,0.5,0.5,0.758020033364473,0.5,0.5,0.5,0.5,0.821624298577909,0.372455581679254,0.5,0.5,0.321459843124678,0.760540974284953,0.602550049491032,0.397449950508968,0.758020033364473,0.5,0.432749840850347,0.757106729117906,0.241979966635527,0.0331313255082775,0.5,0.136917638137294,0.907541080921755,2.21003263603667,2.51155220586844,0.5,72.0932685531034
CBC_1013,CBC_1013_MSI_AV_v3_Vset3_Aset1_2023-06-23_16h50.00.877.csv,3,35,0,1,b,1,0,2,aud,A,63,0,0A,1A,0,1,b,3.16199319999942,1,0,1,0,0A,1A,A01,2.30258509299405,0.793327138516514,0.431541180931353,0.431541180931353,0.5,0.5,0.791151358872751,0.5,0.5,0.5,0.5,0.821624298577909,0.372455581679254,0.5,0.5,0.321459843124678,0.760540974284953,0.647683612940632,0.352316387059368,0.793327138516514,0.431541180931353,0.119880377139641,0.837290914804126,-0.793327138516514,-0.108620478075899,0.5,0.136917638137294,0.907541080921755,2.21003263603667,2.51155220586844,0.5,72.0932685531034
CBC_1013,CBC_1013_MSI_AV_v3_Vset3_Aset1_2023-06-23_16h50.00.877.csv,3,36,2,3,z,0,1,3,aud,D,63,1,2D,3D,0,1,z,2.29431839999961,0,1,1,1,3D,2D,D23,2.83321334405622,0.684706660440616,0.431541180931353,0.431541180931353,0.5,0.5,0.791151358872751,0.5,0.5,0.5,0.5,0.821624298577909,0.372455581679254,0.5,0.5,0.321459843124678,0.760540974284953,0.702902402704029,0.297097597295971,0.760540974284953,0.321459843124678,0.297014750477643,0.904729514893283,0.239459025715047,0.0327861642315618,0.5,0.136917638137294,0.907541080921755,2.21003263603667,2.51155220586844,0.5,72.0932685531034
CBC_1013,CBC_1013_MSI_AV_v3_Vset3_Aset1_2023-06-23_16h50.00.877.csv,3,37,1,2,b,1,0,0,aud,B,9,1,1B,2B,1,0,b,1.34020719999899,1,0,1,1,1B,2B,B12,3.95124371858143,0.684706660440616,0.431541180931353,0.431541180931353,0.5,0.5,0.791151358872751,0.5,0.5,0.5,0.5,0.821624298577909,0.372455581679254,0.5,0.5,0.321459843124678,0.793327138516514,0.612748732699682,0.387251267300318,0.791151358872751,0.5,0.504586036296505,0.777911040024154,0.208848641127249,0.0285950626713263,0.5,0.136917638137294,0.907541080921755,2.21003263603667,2.51155220586844,0.5,72.0932685531034
CBC_1013,CBC_1013_MSI_AV_v3_Vset3_Aset1_2023-06-23_16h50.00.877.csv,3,38,2,0,z,0,1,2,aud,A,27,1,2A,0A,0,1,z,2.63005699999849,0,1,1,1,0A,2A,A20,2.87167962488401,0.684706660440616,0.431541180931353,0.431541180931353,0.5,0.5,0.819746421544077,0.5,0.5,0.5,0.5,0.821624298577909,0.372455581679254,0.5,0.5,0.321459843124678,0.793327138516514,0.61340021011736,0.38659978988264,0.684706660440616,0.431541180931353,0.195517928594599,0.778319155522088,0.315293339559384,0.0431692193728907,0.5,0.136917638137294,0.907541080921755,2.21003263603667,2.51155220586844,0.5,72.0932685531034
CBC_1013,CBC_1013_MSI_AV_v3_Vset3_Aset1_2023-06-23_16h50.00.877.csv,3,39,2,3,b,1,0,1,aud,C,63,1,2C,3C,1,0,b,1.51981490000253,1,0,1,1,2C,3C,C23,3.29583686600433,0.727875879813506,0.431541180931353,0.431541180931353,0.5,0.5,0.819746421544077,0.5,0.5,0.5,0.5,0.821624298577909,0.372455581679254,0.5,0.5,0.321459843124678,0.793327138516514,0.688081519639172,0.311918480360828,0.821624298577909,0.372455581679254,0.663086391425685,0.889718638147483,0.178375701422091,0.0244227797397958,0.5,0.136917638137294,0.907541080921755,2.21003263603667,2.51155220586844,0.5,72.0932685531034
CBC_1013,CBC_1013_MSI_AV_v3_Vset3_Aset1_2023-06-23_16h50.00.877.csv,3,40,1,3,z,0,1,3,aud,D,27,1,1D,3D,0,1,z,2.77609660000235,0,1,1,1,3D,1D,D13,3.31418600467253,0.727875879813506,0.431541180931353,0.431541180931353,0.5,0.5,0.819746421544077,0.5,0.5,0.5,0.5,0.846047078317705,0.372455581679254,0.5,0.5,0.321459843124678,0.793327138516514,0.61340021011736,0.38659978988264,0.793327138516514,0.5,0.171388719354908,0.779339918586396,0.206672861483486,0.0282971600613949,0.5,0.136917638137294,0.907541080921755,2.21003263603667,2.51155220586844,0.5,72.0932685531034
CBC_1013,CBC_1013_MSI_AV_v3_Vset3_Aset1_2023-06-23_16h50.00.877.csv,3,41,0,1,b,1,0,2,aud,A,63,1,0A,1A,1,0,b,2.5527762999991,1,0,1,1,0A,1A,A01,2.23359222150709,0.727875879813506,0.431541180931353,0.431541180931353,0.5,0.5,0.819746421544077,0.5,0.5,0.5,0.5,0.846047078317705,0.372455581679254,0.5,0.5,0.321459843124678,0.821624298577909,0.627794694814899,0.372205305185101,0.727875879813506,0.431541180931353,0.21496980146431,0.805313007819773,0.272124120186494,0.0372585918161238,0.5,0.136917638137294,0.907541080921755,2.21003263603667,2.51155220586844,0.5,72.0932685531034
CBC_1013,CBC_1013_MSI_AV_v3_Vset3_Aset1_2023-06-23_16h50.00.877.csv,3,42,0,2,z,0,1,1,aud,C,27,1,0C,2C,0,1,z,2.29615420000118,0,1,1,1,2C,0C,C02,3.3499040872746,0.76513447162963,0.431541180931353,0.431541180931353,0.5,0.5,0.819746421544077,0.5,0.5,0.5,0.5,0.846047078317705,0.372455581679254,0.5,0.5,0.321459843124678,0.821624298577909,0.628541967027705,0.371458032972295,0.846047078317705,0.5,0.274071037869632,0.806591681058007,0.153952921682295,0.0210788704210756,0.5,0.136917638137294,0.907541080921755,2.21003263603667,2.51155220586844,0.5,72.0932685531034
CBC_1013,CBC_1013_MSI_AV_v3_Vset3_Aset1_2023-06-23_16h50.00.877.csv,3,43,3,2,b,1,0,3,aud,D,63,1,3D,2D,1,0,b,3.55162790000031,1,0,1,1,3D,2D,D32,2.67414864942653,0.76513447162963,0.431541180931353,0.431541180931353,0.5,0.5,0.819746421544077,0.5,0.5,0.5,0.5,0.867125948738781,0.372455581679254,0.5,0.5,0.321459843124678,0.821624298577909,0.718778494603316,0.281221505396684,0.821624298577909,0.321459843124678,0.0614637971056557,0.919247833594378,0.178375701422091,0.0244227797397958,0.5,0.136917638137294,0.907541080921755,2.21003263603667,2.51155220586844,0.5,72.0932685531034
CBC_1013,CBC_1013_MSI_AV_v3_Vset3_Aset1_2023-06-23_16h50.00.877.csv,3,44,1,0,b,1,0,0,aud,B,63,1,1B,0B,1,0,b,1.66608890000134,1,0,1,1,1B,0B,B10,2.97892515523761,0.76513447162963,0.431541180931353,0.431541180931353,0.5,0.5,0.819746421544077,0.5,0.5,0.5,0.5,0.867125948738781,0.372455581679254,0.5,0.5,0.321459843124678,0.846047078317705,0.621139340226428,0.378860659773572,0.819746421544077,0.5,0.470938774032695,0.7933630439926,0.180253578455923,0.0246798942279804,0.5,0.136917638137294,0.907541080921755,2.21003263603667,2.51155220586844,0.5,72.0932685531034
CBC_1013,CBC_1013_MSI_TV_v3_Vset6_Tset3_2023-06-23_16h58.24.978.csv,4,1,1,0,z,0,1,2,tac,A,63,1,1A,0A,0,1,b,2.37187400000039,1,0,0,0,1A,0A,A10,2.77258872223978,0.5,0.5,0.5,0.5,0.5,0.5,0.5,0.5,0.5,0.5,0.5,0.5,0.5,0.5,0.5,0.5,0.5,0.5,0.5,0.5,0.182697685169138,0.500945377427225,-0.5,-0.038226580413173,0.5,0.0764531608263459,1.09979321259182,1.70089220472271,2.66208833815144,0.5,81.1203118443661
CBC_1013,CBC_1013_MSI_TV_v3_Vset6_Tset3_2023-06-23_16h58.24.978.csv,4,2,2,3,b,1,0,1,tac,C,63,1,2C,3C,1,0,b,2.41450840000107,1,0,1,1,2C,3C,C23,2.83321334405622,0.5,0.461773419586827,0.5,0.5,0.5,0.5,0.5,0.5,0.5,0.5,0.5,0.5,0.5,0.5,0.5,0.5,0.5,0.5,0.5,0.5,0.176709993723363,0.498862595384385,0.5,0.038226580413173,0.5,0.0764531608263459,1.09979321259182,1.70089220472271,2.66208833815144,0.5,81.1203118443661
CBC_1013,CBC_1013_MSI_TV_v3_Vset6_Tset3_2023-06-23_16h58.24.978.csv,4,3,2,0,z,0,1,2,tac,A,27,1,2A,0A,0,1,z,2.24328460000106,0,1,1,1,0A,2A,A20,2.89037175789616,0.5,0.461773419586827,0.5,0.5,0.5,0.5,0.5,0.5,0.5,0.5,0.538226580413173,0.5,0.5,0.5,0.5,0.5,0.5,0.5,0.5,0.5,0.199219790503489,0.500780177828425,0.5,0.038226580413173,0.5,0.0764531608263459,1.09979321259182,1.70089220472271,2.66208833815144,0.5,81.1203118443661
CBC_1013,CBC_1013_MSI_TV_v3_Vset6_Tset3_2023-06-23_16h58.24.978.csv,4,4,0,1,z,0,1,0,tac,B,63,1,0B,1B,0,1,b,2.45999289999963,1,0,0,0,0B,1B,B01,2.94443897916644,0.538226580413173,0.461773419586827,0.5,0.5,0.5,0.5,0.5,0.5,0.5,0.5,0.538226580413173,0.5,0.5,0.5,0.5,0.5,0.5,0.5,0.5,0.5,0.17165848601592,0.49997478357304,-0.5,-0.038226580413173,0.5,0.0764531608263459,1.09979321259182,1.70089220472271,2.66208833815144,0.5,81.1203118443661
CBC_1013,CBC_1013_MSI_TV_v3_Vset6_Tset3_2023-06-23_16h58.24.978.csv,4,5,1,0,b,1,0,0,tac,B,63,1,1B,0B,1,0,b,2.91645879999851,1,0,1,1,1B,0B,B10,2.99573227355399,0.538226580413173,0.461773419586827,0.5,0.5,0.461773419586827,0.5,0.5,0.5,0.5,0.5,0.538226580413173,0.5,0.5,0.5,0.5,0.5,0.519872965729077,0.480127034270923,0.5,0.461773419586827,0.136471223781952,0.545508224597888,0.5,0.038226580413173,0.5,0.0764531608263459,1.09979321259182,1.70089220472271,2.66208833815144,0.5,81.1203118443661
CBC_1013,CBC_1013_MSI_TV_v3_Vset6_Tset3_2023-06-23_16h58.24.978.csv,4,6,2,3,b,1,0,1,tac,C,63,1,2C,3C,1,0,z,2.50937169999816,0,1,0,0,3C,2C,C23,2.35137525716348,0.538226580413173,0.461773419586827,0.5,0.5,0.461773419586827,0.538226580413173,0.5,0.5,0.5,0.5,0.538226580413173,0.5,0.5,0.5,0.5,0.5,0.481590444160098,0.518409555839902,0.5,0.538226580413173,0.151986757278531,0.457660208096425,-0.5,-0.038226580413173,0.5,0.0764531608263459,1.09979321259182,1.70089220472271,2.66208833815144,0.5,81.1203118443661
CBC_1013,CBC_1013_MSI_TV_v3_Vset6_Tset3_2023-06-23_16h58.24.978.csv,4,7,1,3,z,0,1,3,tac,D,27,1,1D,3D,0,1,b,3.73350760000176,1,0,0,0,1D,3D,D13,3.09104245335832,0.538226580413173,0.461773419586827,0.5,0.5,0.461773419586827,0.538226580413173,0.5,0.5,0.5,0.5,0.538226580413173,0.461773419586827,0.5,0.5,0.5,0.5,0.5,0.5,0.5,0.5,0.0707487735645879,0.499424739610822,-0.5,-0.038226580413173,0.5,0.0764531608263459,1.09979321259182,1.70089220472271,2.66208833815144,0.5,81.1203118443661
CBC_1013,CBC_1013_MSI_TV_v3_Vset6_Tset3_2023-06-23_16h58.24.978.csv,4,8,2,1,b,1,0,1,tac,C,9,1,2C,1C,1,0,z,3.20131149999725,0,1,0,0,1C,2C,C21,3.13549421592915,0.538226580413173,0.461773419586827,0.5,0.5,0.461773419586827,0.538226580413173,0.5,0.5,0.5,0.5,0.538226580413173,0.461773419586827,0.5,0.461773419586827,0.5,0.5,0.481590444160098,0.518409555839902,0.5,0.538226580413173,0.0939754973726116,0.458262536653738,-0.5,-0.038226580413173,0.5,0.0764531608263459,1.09979321259182,1.70089220472271,2.66208833815144,0.5,81.1203118443661
CBC_1013,CBC_1013_MSI_TV_v3_Vset6_Tset3_2023-06-23_16h58.24.978.csv,4,9,1,3,b,1,0,0,tac,B,27,1,1B,3B,1,0,b,3.886256400001,1,0,1,1,1B,3B,B13,3.17805383034795,0.538226580413173,0.461773419586827,0.5,0.5,0.461773419586827,0.538226580413173,0.5,0.5,0.5,0.461773419586827,0.538226580413173,0.461773419586827,0.5,0.461773419586827,0.5,0.5,0.518409555839902,0.481590444160098,0.538226580413173,0.5,0.0689011995494349,0.5420736640154,0.461773419586827,0.0353040375130034,0.5,0.0764531608263459,1.09979321259182,1.70089220472271,2.66208833815144,0.5,81.1203118443661
CBC_1013,CBC_1013_MSI_TV_v3_Vset6_Tset3_2023-06-23_16h58.24.978.csv,4,10,2,3,z,0,1,3,tac,D,63,1,2D,3D,0,1,b,3.80491299999994,1,0,0,0,2D,3D,D23,3.2188758248682,0.538226580413173,0.461773419586827,0.5,0.5,0.461773419586827,0.573530617926176,0.5,0.5,0.5,0.461773419586827,0.538226580413173,0.461773419586827,0.5,0.461773419586827,0.5,0.5,0.5,0.5,0.5,0.5,0.0674408964335328,0.500343838317827,-0.5,-0.038226580413173,0.5,0.0764531608263459,1.09979321259182,1.70089220472271,2.66208833815144,0.5,81.1203118443661
CBC_1013,CBC_1013_MSI_TV_v3_Vset6_Tset3_2023-06-23_16h58.24.978.csv,4,11,0,1,z,0,1,0,tac,B,63,1,0B,1B,0,1,z,2.57575649999853,0,1,1,1,1B,0B,B01,2.56494935746154,0.538226580413173,0.461773419586827,0.5,0.5,0.461773419586827,0.573530617926176,0.5,0.5,0.5,0.461773419586827,0.538226580413173,0.461773419586827,0.5,0.461773419586827,0.461773419586827,0.5,0.553973129771526,0.446026870228474,0.573530617926176,0.461773419586827,0.197550724574529,0.620296915863364,0.426469382073824,0.0326049322552024,0.5,0.0764531608263459,1.09979321259182,1.70089220472271,2.66208833815144,0.5,81.1203118443661
CBC_1013,CBC_1013_MSI_TV_v3_Vset6_Tset3_2023-06-23_16h58.24.978.csv,4,12,2,0,b,1,0,1,tac,C,27,1,2C,0C,1,0,z,2.42411260000154,0,1,0,0,0C,2C,C20,3.29583686600433,0.538226580413173,0.461773419586827,0.5,0.5,0.461773419586827,0.606135550181379,0.5,0.5,0.5,0.461773419586827,0.538226580413173,0.461773419586827,0.5,0.461773419586827,0.461773419586827,0.5,0.481590444160098,0.518409555839902,0.5,0.538226580413173,0.161353306475453,0.458113205607992,-0.5,-0.038226580413173,0.5,0.0764531608263459,1.09979321259182,1.70089220472271,2.66208833815144,0.5,81.1203118443661
CBC_1013,CBC_1013_MSI_TV_v3_Vset6_Tset3_2023-06-23_16h58.24.978.csv,4,13,2,3,z,0,1,3,tac,D,63,0,2D,3D,1,0,b,2.9585905999993,1,0,0,1,2D,3D,D23,2.63905732961526,0.538226580413173,0.461773419586827,0.5,0.5,0.461773419586827,0.606135550181379,0.5,0.5,0.461773419586827,0.461773419586827,0.538226580413173,0.461773419586827,0.5,0.461773419586827,0.461773419586827,0.5,0.480127034270923,0.519872965729077,0.461773419586827,0.5,0.110465902891489,0.454737684500253,0.538226580413173,0.0411491233133425,0.5,0.0764531608263459,1.09979321259182,1.70089220472271,2.66208833815144,0.5,81.1203118443661
CBC_1013,CBC_1013_MSI_TV_v3_Vset6_Tset3_2023-06-23_16h58.24.978.csv,4,14,0,1,b,1,0,2,tac,A,63,1,0A,1A,1,0,b,1.98090519999823,1,0,1,1,0A,1A,A01,3.36729582998647,0.538226580413173,0.461773419586827,0.5,0.5,0.461773419586827,0.606135550181379,0.5,0.5,0.461773419586827,0.461773419586827,0.538226580413173,0.461773419586827,0.5,0.461773419586827,0.50292254290017,0.5,0.538226580413173,0.461773419586827,0.538226580413173,0.461773419586827,0.27724179907256,0.586192034800671,0.461773419586827,0.0353040375130034,0.5,0.0764531608263459,1.09979321259182,1.70089220472271,2.66208833815144,0.5,81.1203118443661
CBC_1013,CBC_1013_MSI_TV_v3_Vset6_Tset3_2023-06-23_16h58.24.978.csv,4,15,3,2,z,0,1,1,tac,C,63,1,3C,2C,0,1,z,3.48404300000038,0,1,1,1,2C,3C,C32,3.40119738166216,0.573530617926176,0.461773419586827,0.5,0.5,0.461773419586827,0.606135550181379,0.5,0.5,0.461773419586827,0.461773419586827,0.538226580413173,0.461773419586827,0.5,0.461773419586827,0.50292254290017,0.5,0.538226580413173,0.461773419586827,0.538226580413173,0.461773419586827,0.0983575240403383,0.586756869785126,0.461773419586827,0.0353040375130034,0.5,0.0764531608263459,1.09979321259182,1.70089220472271,2.66208833815144,0.5,81.1203118443661
CBC_1013,CBC_1013_MSI_TV_v3_Vset6_Tset3_2023-06-23_16h58.24.978.csv,4,16,2,0,z,0,1,2,tac,A,27,1,2A,0A,0,1,z,2.38295629999993,0,1,1,1,0A,2A,A20,2.7408400239252,0.573530617926176,0.461773419586827,0.5,0.5,0.461773419586827,0.606135550181379,0.5,0.5,0.461773419586827,0.461773419586827,0.573530617926176,0.461773419586827,0.5,0.461773419586827,0.50292254290017,0.5,0.534247098638053,0.465752901361947,0.573530617926176,0.5,0.209507855225165,0.576931820067428,0.426469382073824,0.0326049322552024,0.5,0.0764531608263459,1.09979321259182,1.70089220472271,2.66208833815144,0.5,81.1203118443661
CBC_1013,CBC_1013_MSI_TV_v3_Vset6_Tset3_2023-06-23_16h58.24.978.csv,4,17,3,2,b,1,0,3,tac,D,63,1,3D,2D,1,0,b,1.82062470000164,1,0,1,1,3D,2D,D32,3.46573590279973,0.606135550181379,0.461773419586827,0.5,0.5,0.461773419586827,0.606135550181379,0.5,0.5,0.461773419586827,0.461773419586827,0.573530617926176,0.461773419586827,0.5,0.461773419586827,0.50292254290017,0.5,0.498542986733692,0.501457013266308,0.5,0.50292254290017,0.252626573008081,0.497593117509302,0.5,0.038226580413173,0.5,0.0764531608263459,1.09979321259182,1.70089220472271,2.66208833815144,0.5,81.1203118443661
CBC_1013,CBC_1013_MSI_TV_v3_Vset6_Tset3_2023-06-23_16h58.24.978.csv,4,18,2,3,z,0,1,3,tac,D,63,1,2D,3D,0,1,z,1.90730189999886,0,1,1,1,3D,2D,D23,2.39789527279837,0.606135550181379,0.461773419586827,0.5,0.5,0.461773419586827,0.606135550181379,0.5,0.5,0.461773419586827,0.461773419586827,0.573530617926176,0.461773419586827,0.5,0.461773419586827,0.50292254290017,0.538226580413173,0.516954361638731,0.483045638361269,0.538226580413173,0.50292254290017,0.263278924688179,0.538191587394362,0.461773419586827,0.0353040375130034,0.5,0.0764531608263459,1.09979321259182,1.70089220472271,2.66208833815144,0.5,81.1203118443661
CBC_1013,CBC_1013_MSI_TV_v3_Vset6_Tset3_2023-06-23_16h58.24.978.csv,4,19,1,3,b,1,0,0,tac,B,27,1,1B,3B,1,0,z,3.13693559999956,0,1,0,0,3B,1B,B13,2.83321334405622,0.606135550181379,0.461773419586827,0.5,0.5,0.461773419586827,0.606135550181379,0.5,0.5,0.461773419586827,0.461773419586827,0.573530617926176,0.461773419586827,0.5,0.461773419586827,0.50292254290017,0.573530617926176,0.452024166403487,0.547975833596513,0.5,0.606135550181379,0.0841209315260655,0.39342175353351,-0.5,-0.038226580413173,0.5,0.0764531608263459,1.09979321259182,1.70089220472271,2.66208833815144,0.5,81.1203118443661
CBC_1013,CBC_1013_MSI_TV_v3_Vset6_Tset3_2023-06-23_16h58.24.978.csv,4,20,3,0,b,1,0,3,tac,D,9,1,3D,0D,1,0,b,3.14860409999892,1,0,1,1,3D,0D,D30,3.55534806148941,0.606135550181379,0.461773419586827,0.5,0.5,0.461773419586827,0.606135550181379,0.5,0.461773419586827,0.461773419586827,0.461773419586827,0.573530617926176,0.461773419586827,0.5,0.461773419586827,0.50292254290017,0.573530617926176,0.534247098638053,0.465752901361947,0.573530617926176,0.5,0.12253497618651,0.576729594426716,0.426469382073824,0.0326049322552024,0.5,0.0764531608263459,1.09979321259182,1.70089220472271,2.66208833815144,0.5,81.1203118443661
CBC_1013,CBC_1013_MSI_TV_v3_Vset6_Tset3_2023-06-23_16h58.24.978.csv,4,21,0,1,z,0,1,0,tac,B,63,1,0B,1B,0,1,b,2.87806759999876,1,0,0,0,0B,1B,B01,2.484906649788,0.606135550181379,0.461773419586827,0.5,0.5,0.461773419586827,0.606135550181379,0.5,0.461773419586827,0.461773419586827,0.461773419586827,0.573530617926176,0.461773419586827,0.5,0.461773419586827,0.50292254290017,0.606135550181379,0.432408971793782,0.567591028206218,0.461773419586827,0.606135550181379,0.0902731787060411,0.351607441621157,-0.461773419586827,-0.0353040375130034,0.5,0.0764531608263459,1.09979321259182,1.70089220472271,2.66208833815144,0.5,81.1203118443661
CBC_1013,CBC_1013_MSI_TV_v3_Vset6_Tset3_2023-06-23_16h58.24.978.csv,4,22,0,1,b,1,0,2,tac,A,63,1,0A,1A,1,0,b,2.21671330000027,1,0,1,1,0A,1A,A01,2.91777073208428,0.606135550181379,0.461773419586827,0.5,0.5,0.426469382073824,0.606135550181379,0.5,0.461773419586827,0.461773419586827,0.461773419586827,0.573530617926176,0.461773419586827,0.5,0.461773419586827,0.50292254290017,0.606135550181379,0.567591028206218,0.432408971793782,0.606135550181379,0.461773419586827,0.266805379006033,0.648118374301963,0.393864449818621,0.0301121821257633,0.5,0.0764531608263459,1.09979321259182,1.70089220472271,2.66208833815144,0.5,81.1203118443661
CBC_1013,CBC_1013_MSI_TV_v3_Vset6_Tset3_2023-06-23_16h58.24.978.csv,4,23,3,2,z,0,1,1,tac,C,63,1,3C,2C,0,1,z,2.65937549999944,0,1,1,1,2C,3C,C32,2.94443897916644,0.636247732307142,0.461773419586827,0.5,0.5,0.426469382073824,0.606135550181379,0.5,0.461773419586827,0.461773419586827,0.461773419586827,0.573530617926176,0.461773419586827,0.5,0.461773419586827,0.50292254290017,0.606135550181379,0.553973129771526,0.446026870228474,0.573530617926176,0.461773419586827,0.185761937978291,0.61898773926707,0.426469382073824,0.0326049322552024,0.5,0.0764531608263459,1.09979321259182,1.70089220472271,2.66208833815144,0.5,81.1203118443661
CBC_1013,CBC_1013_MSI_TV_v3_Vset6_Tset3_2023-06-23_16h58.24.978.csv,4,24,2,0,z,0,1,2,tac,A,27,1,2A,0A,0,1,b,2.58903350000037,1,0,0,0,2A,0A,A20,2.56494935746154,0.636247732307142,0.461773419586827,0.5,0.5,0.426469382073824,0.606135550181379,0.5,0.461773419586827,0.461773419586827,0.461773419586827,0.606135550181379,0.461773419586827,0.5,0.461773419586827,0.50292254290017,0.606135550181379,0.440044882628504,0.559955117371496,0.5,0.636247732307142,0.116338883062532,0.368437070523288,-0.5,-0.038226580413173,0.5,0.0764531608263459,1.09979321259182,1.70089220472271,2.66208833815144,0.5,81.1203118443661
CBC_1013,CBC_1013_MSI_TV_v3_Vset6_Tset3_2023-06-23_16h58.24.978.csv,4,25,0,1,z,0,1,0,tac,B,63,1,0B,1B,0,1,z,2.5290657000005,0,1,1,1,1B,0B,B01,2.30258509299405,0.636247732307142,0.461773419586827,0.461773419586827,0.5,0.426469382073824,0.606135550181379,0.5,0.461773419586827,0.461773419586827,0.461773419586827,0.606135550181379,0.461773419586827,0.5,0.461773419586827,0.50292254290017,0.606135550181379,0.586996566884087,0.413003433115913,0.606135550181379,0.426469382073824,0.228045128883973,0.687534404531472,0.393864449818621,0.0301121821257633,0.5,0.0764531608263459,1.09979321259182,1.70089220472271,2.66208833815144,0.5,81.1203118443661
CBC_1013,CBC_1013_MSI_TV_v3_Vset6_Tset3_2023-06-23_16h58.24.978.csv,4,26,3,2,b,1,0,3,tac,D,63,1,3D,2D,1,0,b,1.78953729999921,1,0,1,1,3D,2D,D32,3.02042488614436,0.636247732307142,0.461773419586827,0.461773419586827,0.5,0.426469382073824,0.636247732307142,0.5,0.461773419586827,0.461773419586827,0.461773419586827,0.606135550181379,0.461773419586827,0.5,0.461773419586827,0.50292254290017,0.606135550181379,0.546531830895544,0.453468169104456,0.606135550181379,0.50292254290017,0.31380810441977,0.603399120641466,0.393864449818621,0.0301121821257633,0.5,0.0764531608263459,1.09979321259182,1.70089220472271,2.66208833815144,0.5,81.1203118443661
CBC_1013,CBC_1013_MSI_TV_v3_Vset6_Tset3_2023-06-23_16h58.24.978.csv,4,27,2,1,z,0,1,0,tac,B,9,1,2B,1B,0,1,z,2.99107519999961,0,1,1,1,1B,2B,B21,3.73766961828337,0.636247732307142,0.461773419586827,0.461773419586827,0.5,0.426469382073824,0.636247732307142,0.5,0.461773419586827,0.461773419586827,0.461773419586827,0.606135550181379,0.461773419586827,0.5,0.461773419586827,0.50292254290017,0.636247732307142,0.559955117371496,0.440044882628504,0.636247732307142,0.5,0.149826547654892,0.632591655599684,0.363752267692858,0.0278100106228701,0.5,0.0764531608263459,1.09979321259182,1.70089220472271,2.66208833815144,0.5,81.1203118443661
CBC_1013,CBC_1013_MSI_TV_v3_Vset6_Tset3_2023-06-23_16h58.24.978.csv,4,28,3,1,b,1,0,3,tac,D,27,1,3D,1D,1,0,b,1.58636819999811,1,0,1,1,3D,1D,D31,3.76120011569356,0.636247732307142,0.461773419586827,0.461773419586827,0.5,0.426469382073824,0.664057742930012,0.5,0.461773419586827,0.461773419586827,0.461773419586827,0.606135550181379,0.461773419586827,0.5,0.461773419586827,0.50292254290017,0.636247732307142,0.579449431561207,0.420550568438793,0.636247732307142,0.461773419586827,0.356808956522724,0.672720626741778,0.363752267692858,0.0278100106228701,0.5,0.0764531608263459,1.09979321259182,1.70089220472271,2.66208833815144,0.5,81.1203118443661
CBC_1013,CBC_1013_MSI_TV_v3_Vset6_Tset3_2023-06-23_16h58.24.978.csv,4,29,0,1,b,1,0,2,tac,A,63,1,0A,1A,1,0,b,2.16656610000064,1,0,1,1,0A,1A,A01,2.68557734525015,0.636247732307142,0.461773419586827,0.461773419586827,0.5,0.426469382073824,0.664057742930012,0.5,0.461773419586827,0.461773419586827,0.461773419586827,0.606135550181379,0.461773419586827,0.5,0.461773419586827,0.50292254290017,0.664057742930012,0.579449431561207,0.420550568438793,0.636247732307142,0.461773419586827,0.288871965850199,0.673442704379067,0.363752267692858,0.0278100106228701,0.5,0.0764531608263459,1.09979321259182,1.70089220472271,2.66208833815144,0.5,81.1203118443661
CBC_1013,CBC_1013_MSI_TV_v3_Vset6_Tset3_2023-06-23_16h58.24.978.csv,4,30,1,0,z,0,1,2,tac,A,63,1,1A,0A,0,1,z,2.23418680000032,0,1,1,1,0A,1A,A10,3.11351530921037,0.664057742930012,0.461773419586827,0.461773419586827,0.5,0.426469382073824,0.664057742930012,0.5,0.461773419586827,0.461773419586827,0.461773419586827,0.606135550181379,0.461773419586827,0.5,0.461773419586827,0.50292254290017,0.664057742930012,0.589837770563648,0.410162229436352,0.664057742930012,0.461773419586827,0.285145306312449,0.693027371040683,0.335942257069988,0.0256838474081374,0.5,0.0764531608263459,1.09979321259182,1.70089220472271,2.66208833815144,0.5,81.1203118443661
CBC_1013,CBC_1013_MSI_TV_v3_Vset6_Tset3_2023-06-23_16h58.24.978.csv,4,31,2,0,b,1,0,1,tac,C,27,1,2C,0C,1,0,z,2.36062320000201,0,1,0,0,0C,2C,C20,3.13549421592915,0.68974159033815,0.461773419586827,0.461773419586827,0.5,0.426469382073824,0.664057742930012,0.5,0.461773419586827,0.461773419586827,0.461773419586827,0.606135550181379,0.461773419586827,0.5,0.461773419586827,0.50292254290017,0.664057742930012,0.432408971793782,0.567591028206218,0.461773419586827,0.606135550181379,0.130666632931938,0.35098680087174,-0.461773419586827,-0.0353040375130034,0.5,0.0764531608263459,1.09979321259182,1.70089220472271,2.66208833815144,0.5,81.1203118443661
CBC_1013,CBC_1013_MSI_TV_v3_Vset6_Tset3_2023-06-23_16h58.24.978.csv,4,32,0,1,b,1,0,2,tac,A,63,1,0A,1A,1,0,b,2.64808189999894,1,0,1,1,0A,1A,A01,2.46385324059017,0.68974159033815,0.461773419586827,0.461773419586827,0.5,0.426469382073824,0.664057742930012,0.5,0.461773419586827,0.426469382073824,0.461773419586827,0.606135550181379,0.461773419586827,0.5,0.461773419586827,0.50292254290017,0.664057742930012,0.598986191576511,0.401013808423489,0.68974159033815,0.461773419586827,0.216050868814759,0.709877824990713,0.31025840966185,0.0237202360916038,0.5,0.0764531608263459,1.09979321259182,1.70089220472271,2.66208833815144,0.5,81.1203118443661
CBC_1013,CBC_1013_MSI_TV_v3_Vset6_Tset3_2023-06-23_16h58.24.978.csv,4,33,0,1,z,0,1,0,tac,B,63,1,0B,1B,0,1,z,1.74986910000007,0,1,1,1,1B,0B,B01,2.26176309847379,0.713461826429753,0.461773419586827,0.461773419586827,0.5,0.426469382073824,0.664057742930012,0.5,0.461773419586827,0.426469382073824,0.461773419586827,0.606135550181379,0.461773419586827,0.5,0.461773419586827,0.50292254290017,0.664057742930012,0.608932806625673,0.391067193374327,0.664057742930012,0.426469382073824,0.406741193493001,0.729124771459982,0.335942257069988,0.0256838474081374,0.5,0.0764531608263459,1.09979321259182,1.70089220472271,2.66208833815144,0.5,81.1203118443661
CBC_1013,CBC_1013_MSI_TV_v3_Vset6_Tset3_2023-06-23_16h58.24.978.csv,4,34,2,3,z,0,1,3,tac,D,63,1,2D,3D,0,1,z,1.42010609999852,0,1,1,1,3D,2D,D23,2.50552593699074,0.713461826429753,0.461773419586827,0.461773419586827,0.5,0.426469382073824,0.68974159033815,0.5,0.461773419586827,0.426469382073824,0.461773419586827,0.606135550181379,0.461773419586827,0.5,0.461773419586827,0.50292254290017,0.664057742930012,0.569039383949495,0.430960616050505,0.664057742930012,0.50292254290017,0.249308593502133,0.65043849276915,0.335942257069988,0.0256838474081374,0.5,0.0764531608263459,1.09979321259182,1.70089220472271,2.66208833815144,0.5,81.1203118443661
CBC_1013,CBC_1013_MSI_TV_v3_Vset6_Tset3_2023-06-23_16h58.24.978.csv,4,35,1,3,b,1,0,0,tac,B,27,1,1B,3B,1,0,b,2.56848209999953,1,0,1,1,1B,3B,B13,2.81341071676004,0.713461826429753,0.461773419586827,0.461773419586827,0.5,0.426469382073824,0.68974159033815,0.5,0.461773419586827,0.426469382073824,0.461773419586827,0.606135550181379,0.461773419586827,0.5,0.461773419586827,0.50292254290017,0.68974159033815,0.598986191576511,0.401013808423489,0.68974159033815,0.461773419586827,0.229434659427191,0.710191918058351,0.31025840966185,0.0237202360916038,0.5,0.0764531608263459,1.09979321259182,1.70089220472271,2.66208833815144,0.5,81.1203118443661
CBC_1013,CBC_1013_MSI_TV_v3_Vset6_Tset3_2023-06-23_16h58.24.978.csv,4,36,2,3,b,1,0,1,tac,C,63,1,2C,3C,1,0,z,2.4832994999997,0,1,0,0,3C,2C,C23,2.83321334405622,0.713461826429753,0.461773419586827,0.461773419586827,0.5,0.426469382073824,0.713461826429753,0.5,0.461773419586827,0.426469382073824,0.461773419586827,0.606135550181379,0.461773419586827,0.5,0.461773419586827,0.50292254290017,0.68974159033815,0.432408971793782,0.567591028206218,0.461773419586827,0.606135550181379,0.120244626447347,0.352551312847117,-0.461773419586827,-0.0353040375130034,0.5,0.0764531608263459,1.09979321259182,1.70089220472271,2.66208833815144,0.5,81.1203118443661
CBC_1013,CBC_1013_MSI_TV_v3_Vset6_Tset3_2023-06-23_16h58.24.978.csv,4,37,0,2,z,0,1,1,tac,C,27,1,0C,2C,0,1,b,2.59901070000342,1,0,0,0,0C,2C,C02,3.95124371858143,0.713461826429753,0.461773419586827,0.461773419586827,0.5,0.426469382073824,0.713461826429753,0.5,0.461773419586827,0.426469382073824,0.461773419586827,0.606135550181379,0.426469382073824,0.5,0.461773419586827,0.50292254290017,0.68974159033815,0.413003433115913,0.586996566884087,0.426469382073824,0.606135550181379,0.0984162331041422,0.312374482757115,-0.426469382073824,-0.0326049322552024,0.5,0.0764531608263459,1.09979321259182,1.70089220472271,2.66208833815144,0.5,81.1203118443661
CBC_1013,CBC_1013_MSI_TV_v3_Vset6_Tset3_2023-06-23_16h58.24.978.csv,4,38,0,1,z,0,1,0,tac,B,63,1,0B,1B,0,1,z,3.78044080000109,0,1,1,1,1B,0B,B01,2.17853244432407,0.713461826429753,0.461773419586827,0.461773419586827,0.5,0.426469382073824,0.713461826429753,0.5,0.461773419586827,0.393864449818621,0.461773419586827,0.606135550181379,0.426469382073824,0.5,0.461773419586827,0.50292254290017,0.68974159033815,0.625881475221945,0.374118524778055,0.713461826429753,0.426469382073824,0.0947882963984094,0.757245736838204,0.286538173570247,0.0219067490668535,0.5,0.0764531608263459,1.09979321259182,1.70089220472271,2.66208833815144,0.5,81.1203118443661
CBC_1013,CBC_1013_MSI_TV_v3_Vset6_Tset3_2023-06-23_16h58.24.978.csv,4,39,0,3,b,1,0,2,tac,A,9,1,0A,3A,1,0,b,2.29764199999772,1,0,1,1,0A,3A,A03,3.98898404656427,0.713461826429753,0.461773419586827,0.461773419586827,0.5,0.426469382073824,0.735368575496607,0.5,0.461773419586827,0.393864449818621,0.461773419586827,0.606135550181379,0.426469382073824,0.5,0.461773419586827,0.50292254290017,0.68974159033815,0.587955723773281,0.412044276226719,0.713461826429753,0.5,0.270757286718666,0.689368304286321,0.286538173570247,0.0219067490668535,0.5,0.0764531608263459,1.09979321259182,1.70089220472271,2.66208833815144,0.5,81.1203118443661
CBC_1013,CBC_1013_MSI_TV_v3_Vset6_Tset3_2023-06-23_16h58.24.978.csv,4,40,2,3,b,1,0,1,tac,C,63,0,2C,3C,0,1,z,2.3790966000015,0,1,0,1,3C,2C,C23,2.62103882411258,0.735368575496607,0.461773419586827,0.461773419586827,0.5,0.426469382073824,0.735368575496607,0.5,0.461773419586827,0.393864449818621,0.461773419586827,0.606135550181379,0.426469382073824,0.5,0.461773419586827,0.50292254290017,0.68974159033815,0.413003433115913,0.586996566884087,0.426469382073824,0.606135550181379,0.115518214651651,0.31208408655114,0.573530617926176,0.0438482285711435,0.5,0.0764531608263459,1.09979321259182,1.70089220472271,2.66208833815144,0.5,81.1203118443661
CBC_1013,CBC_1013_MSI_TV_v3_Vset6_Tset3_2023-06-23_16h58.24.978.csv,4,41,0,1,b,1,0,2,tac,A,63,1,0A,1A,1,0,z,2.34778740000183,0,1,0,0,1A,0A,A01,2.41591377830105,0.735368575496607,0.461773419586827,0.461773419586827,0.5,0.426469382073824,0.735368575496607,0.5,0.461773419586827,0.393864449818621,0.461773419586827,0.606135550181379,0.470317610644967,0.5,0.461773419586827,0.50292254290017,0.68974159033815,0.3857298645301,0.6142701354699,0.461773419586827,0.735368575496607,0.100425866174461,0.261800943777279,-0.461773419586827,-0.0353040375130034,0.5,0.0764531608263459,1.09979321259182,1.70089220472271,2.66208833815144,0.5,81.1203118443661
CBC_1013,CBC_1013_MSI_TV_v3_Vset6_Tset3_2023-06-23_16h58.24.978.csv,4,42,2,3,z,0,1,3,tac,D,63,1,2D,3D,0,1,z,2.43028929999855,0,1,1,1,3D,2D,D23,2.43361335540045,0.735368575496607,0.426469382073824,0.461773419586827,0.5,0.426469382073824,0.735368575496607,0.5,0.461773419586827,0.393864449818621,0.461773419586827,0.606135550181379,0.470317610644967,0.5,0.461773419586827,0.50292254290017,0.68974159033815,0.578320057689137,0.421679942310863,0.68974159033815,0.50292254290017,0.238421385879334,0.670639953843781,0.31025840966185,0.0237202360916038,0.5,0.0764531608263459,1.09979321259182,1.70089220472271,2.66208833815144,0.5,81.1203118443661
CBC_1013,CBC_1013_MSI_TV_v3_Vset6_Tset3_2023-06-23_16h58.24.978.csv,4,43,3,2,z,0,1,1,tac,C,63,1,3C,2C,0,1,b,2.79549469999984,1,0,0,0,3C,2C,C32,2.96183072187831,0.735368575496607,0.426469382073824,0.461773419586827,0.5,0.426469382073824,0.735368575496607,0.5,0.461773419586827,0.393864449818621,0.461773419586827,0.606135550181379,0.470317610644967,0.5,0.461773419586827,0.50292254290017,0.713461826429753,0.436914143374269,0.563085856625731,0.470317610644967,0.606135550181379,0.0982739133456693,0.360656195184314,-0.470317610644967,-0.0359572679261024,0.5,0.0764531608263459,1.09979321259182,1.70089220472271,2.66208833815144,0.5,81.1203118443661
CBC_1013,CBC_1013_MSI_TV_v3_Vset6_Tset3_2023-06-23_16h58.24.978.csv,4,44,3,1,b,1,0,3,tac,D,27,1,3D,1D,1,0,z,2.95037050000246,0,1,0,0,1D,3D,D31,3.38439026334577,0.735368575496607,0.426469382073824,0.461773419586827,0.5,0.426469382073824,0.735368575496607,0.5,0.461773419586827,0.393864449818621,0.461773419586827,0.606135550181379,0.434360342718865,0.5,0.461773419586827,0.50292254290017,0.713461826429753,0.39291998870183,0.60708001129817,0.461773419586827,0.713461826429753,0.0664048608534582,0.274377843952665,-0.461773419586827,-0.0353040375130034,0.5,0.0764531608263459,1.09979321259182,1.70089220472271,2.66208833815144,0.5,81.1203118443661
