ID,filename,session,trial,visStimLeft,visStimRight,correctKey,leftCorrect,rightCorrect,secondStim,mod2Type,mod2Stim,frequency,rewardAccurate,stimPairLeft,stimPairRight,pCorrectLeft,pCorrectRight,key,reactionTime,choiceLeft,choiceRight,choiceAccurate,reward,chosenPair,otherPair,triplet,surprise,0A belief,1A belief,2A belief,3A belief,0B belief,1B belief,2B belief,3B belief,0C belief,1C belief,2C belief,3C belief,0D belief,1D belief,2D belief,3D belief,beliefPairNorm,beliefOtherPairNorm,beliefPair,beliefOtherPair,lik,corrLik,rewardPE,update2,fitCBCsimpleRW_CBCdriftDiffusionLR_pwBelief_startBelief,fitCBCsimpleRW_CBCdriftDiffusionLR_pwBelief_alpha1,fitCBCsimpleRW_CBCdriftDiffusionLR_pwBelief_nonDecisionTime,fitCBCsimpleRW_CBCdriftDiffusionLR_pwBelief_weight,fitCBCsimpleRW_CBCdriftDiffusionLR_pwBelief_startingBoundary,fitCBCsimpleRW_CBCdriftDiffusionLR_pwBelief_startingPoint,fit_CBCsimpleRW_CBCdriftDiffusionLR_pwBelief_NLL
CBC_1013,CBC_1013_MSI_AV_v3_Vset5_Aset2_2023-06-23_14h24.40.256.csv,1,1,1,3,b,1,0,0,aud,B,27,1,1B,3B,1,0,b,2.79824739999822,1,0,1,1,1B,3B,B13,2.77258872223978,0.5,0.5,0.5,0.5,0.5,0.5,0.5,0.5,0.5,0.5,0.5,0.5,0.5,0.5,0.5,0.5,0.5,0.5,0.5,0.5,0.0995370530628058,0.499532153634627,0.5,0.278425705956952,0.5,0.556851411913904,0.956004639827025,0.458278943214736,2.20532397457381,0.5,70.6501332472142
CBC_1013,CBC_1013_MSI_AV_v3_Vset5_Aset2_2023-06-23_14h24.40.256.csv,1,2,3,2,z,0,1,1,aud,C,63,1,3C,2C,0,1,b,2.60718030000135,1,0,0,0,3C,2C,C32,2.83321334405622,0.5,0.5,0.5,0.5,0.5,0.778425705956952,0.5,0.5,0.5,0.5,0.5,0.5,0.5,0.5,0.5,0.5,0.5,0.5,0.5,0.5,0.12097485693537,0.500124952838541,-0.5,-0.278425705956952,0.5,0.556851411913904,0.956004639827025,0.458278943214736,2.20532397457381,0.5,70.6501332472142
CBC_1013,CBC_1013_MSI_AV_v3_Vset5_Aset2_2023-06-23_14h24.40.256.csv,1,3,3,2,b,1,0,3,aud,D,63,1,3D,2D,1,0,z,2.43318480000016,0,1,0,0,2D,3D,D32,2.89037175789616,0.5,0.5,0.5,0.5,0.5,0.778425705956952,0.5,0.5,0.5,0.5,0.5,0.221574294043048,0.5,0.5,0.5,0.5,0.5,0.5,0.5,0.5,0.144410773200258,0.500397676029944,-0.5,-0.278425705956952,0.5,0.556851411913904,0.956004639827025,0.458278943214736,2.20532397457381,0.5,70.6501332472142
CBC_1013,CBC_1013_MSI_AV_v3_Vset5_Aset2_2023-06-23_14h24.40.256.csv,1,4,0,1,z,0,1,0,aud,B,63,1,0B,1B,0,1,z,2.62709480000194,0,1,1,1,1B,0B,B01,2.94443897916644,0.5,0.5,0.5,0.5,0.5,0.778425705956952,0.5,0.5,0.5,0.5,0.5,0.221574294043048,0.5,0.5,0.221574294043048,0.5,0.778425705956952,0.221574294043048,0.778425705956952,0.5,0.148872739854306,0.637841469101158,0.221574294043048,0.123383958481698,0.5,0.556851411913904,0.956004639827025,0.458278943214736,2.20532397457381,0.5,70.6501332472142
CBC_1013,CBC_1013_MSI_AV_v3_Vset5_Aset2_2023-06-23_14h24.40.256.csv,1,5,0,3,b,1,0,2,aud,A,9,1,0A,3A,1,0,b,1.73527250000188,1,0,1,1,0A,3A,A03,2.99573227355399,0.5,0.5,0.5,0.5,0.5,0.90180966443865,0.5,0.5,0.5,0.5,0.5,0.221574294043048,0.5,0.5,0.221574294043048,0.5,0.5,0.5,0.5,0.5,0.292389668818198,0.501719467248821,0.5,0.278425705956952,0.5,0.556851411913904,0.956004639827025,0.458278943214736,2.20532397457381,0.5,70.6501332472142
CBC_1013,CBC_1013_MSI_AV_v3_Vset5_Aset2_2023-06-23_14h24.40.256.csv,1,6,3,2,b,1,0,3,aud,D,63,1,3D,2D,1,0,z,3.28556509999908,0,1,0,0,2D,3D,D32,2.35137525716348,0.778425705956952,0.5,0.5,0.5,0.5,0.90180966443865,0.5,0.5,0.5,0.5,0.5,0.221574294043048,0.5,0.5,0.221574294043048,0.5,0.221574294043048,0.778425705956952,0.221574294043048,0.5,0.0425222573875643,0.362985845377803,-0.221574294043048,-0.123383958481698,0.5,0.556851411913904,0.956004639827025,0.458278943214736,2.20532397457381,0.5,70.6501332472142
CBC_1013,CBC_1013_MSI_AV_v3_Vset5_Aset2_2023-06-23_14h24.40.256.csv,1,7,0,2,z,0,1,1,aud,C,27,1,0C,2C,0,1,z,2.25848079999923,0,1,1,1,2C,0C,C02,3.09104245335832,0.778425705956952,0.5,0.5,0.5,0.5,0.90180966443865,0.5,0.5,0.5,0.5,0.5,0.221574294043048,0.5,0.5,0.0981903355613503,0.5,0.5,0.5,0.5,0.5,0.172386564038505,0.500332025711953,0.5,0.278425705956952,0.5,0.556851411913904,0.956004639827025,0.458278943214736,2.20532397457381,0.5,70.6501332472142
CBC_1013,CBC_1013_MSI_AV_v3_Vset5_Aset2_2023-06-23_14h24.40.256.csv,1,8,0,1,b,1,0,2,aud,A,63,1,0A,1A,1,0,b,1.55469850000009,1,0,1,1,0A,1A,A01,3.13549421592915,0.778425705956952,0.5,0.5,0.5,0.5,0.90180966443865,0.5,0.5,0.5,0.5,0.778425705956952,0.221574294043048,0.5,0.5,0.0981903355613503,0.5,0.778425705956952,0.221574294043048,0.778425705956952,0.5,0.446937412543734,0.637520389331063,0.221574294043048,0.123383958481698,0.5,0.556851411913904,0.956004639827025,0.458278943214736,2.20532397457381,0.5,70.6501332472142
CBC_1013,CBC_1013_MSI_AV_v3_Vset5_Aset2_2023-06-23_14h24.40.256.csv,1,9,1,0,b,1,0,0,aud,B,63,1,1B,0B,1,0,b,2.03591600000073,1,0,1,1,1B,0B,B10,3.17805383034795,0.90180966443865,0.5,0.5,0.5,0.5,0.90180966443865,0.5,0.5,0.5,0.5,0.778425705956952,0.221574294043048,0.5,0.5,0.0981903355613503,0.5,0.90180966443865,0.0981903355613503,0.90180966443865,0.5,0.300858050158468,0.692087153968852,0.0981903355613503,0.0546774269936379,0.5,0.556851411913904,0.956004639827025,0.458278943214736,2.20532397457381,0.5,70.6501332472142
CBC_1013,CBC_1013_MSI_AV_v3_Vset5_Aset2_2023-06-23_14h24.40.256.csv,1,10,1,3,z,0,1,3,aud,D,27,1,1D,3D,0,1,z,2.57845549999911,0,1,1,1,3D,1D,D13,3.2188758248682,0.90180966443865,0.5,0.5,0.5,0.5,0.956487091432288,0.5,0.5,0.5,0.5,0.778425705956952,0.221574294043048,0.5,0.5,0.0981903355613503,0.5,0.5,0.5,0.5,0.5,0.124541114579694,0.500079018484312,0.5,0.278425705956952,0.5,0.556851411913904,0.956004639827025,0.458278943214736,2.20532397457381,0.5,70.6501332472142
CBC_1013,CBC_1013_MSI_AV_v3_Vset5_Aset2_2023-06-23_14h24.40.256.csv,1,11,3,2,z,0,1,1,aud,C,63,1,3C,2C,0,1,b,1.73101809999935,1,0,0,0,3C,2C,C32,2.56494935746154,0.90180966443865,0.5,0.5,0.5,0.5,0.956487091432288,0.5,0.5,0.5,0.5,0.778425705956952,0.221574294043048,0.5,0.5,0.0981903355613503,0.778425705956952,0.0749496775891064,0.925050322410894,0.221574294043048,0.778425705956952,0.179603432275839,0.29763505753504,-0.221574294043048,-0.123383958481698,0.5,0.556851411913904,0.956004639827025,0.458278943214736,2.20532397457381,0.5,70.6501332472142
CBC_1013,CBC_1013_MSI_AV_v3_Vset5_Aset2_2023-06-23_14h24.40.256.csv,1,12,1,0,b,1,0,0,aud,B,63,1,1B,0B,1,0,b,1.91491669999959,1,0,1,1,1B,0B,B10,2.60268968544438,0.90180966443865,0.5,0.5,0.5,0.5,0.956487091432288,0.5,0.5,0.5,0.5,0.778425705956952,0.0981903355613503,0.5,0.5,0.0981903355613503,0.778425705956952,0.956487091432288,0.0435129085677124,0.956487091432288,0.5,0.355916400309666,0.716085161665898,0.0435129085677124,0.0242302245724112,0.5,0.556851411913904,0.956004639827025,0.458278943214736,2.20532397457381,0.5,70.6501332472142
CBC_1013,CBC_1013_MSI_AV_v3_Vset5_Aset2_2023-06-23_14h24.40.256.csv,1,13,0,1,b,1,0,2,aud,A,63,1,0A,1A,1,0,b,1.26508409999951,1,0,1,1,0A,1A,A01,2.63905732961526,0.90180966443865,0.5,0.5,0.5,0.5,0.980717316004699,0.5,0.5,0.5,0.5,0.778425705956952,0.0981903355613503,0.5,0.5,0.0981903355613503,0.778425705956952,0.90180966443865,0.0981903355613503,0.90180966443865,0.5,0.525681439879736,0.691955262292439,0.0981903355613503,0.0546774269936379,0.5,0.556851411913904,0.956004639827025,0.458278943214736,2.20532397457381,0.5,70.6501332472142
CBC_1013,CBC_1013_MSI_AV_v3_Vset5_Aset2_2023-06-23_14h24.40.256.csv,1,14,1,2,z,0,1,1,aud,C,9,1,1C,2C,0,1,z,2.40471400000024,0,1,1,1,2C,1C,C12,3.36729582998647,0.956487091432288,0.5,0.5,0.5,0.5,0.980717316004699,0.5,0.5,0.5,0.5,0.778425705956952,0.0981903355613503,0.5,0.5,0.0981903355613503,0.778425705956952,0.778425705956952,0.221574294043048,0.778425705956952,0.5,0.187958269718176,0.637967093670141,0.221574294043048,0.123383958481698,0.5,0.556851411913904,0.956004639827025,0.458278943214736,2.20532397457381,0.5,70.6501332472142
CBC_1013,CBC_1013_MSI_AV_v3_Vset5_Aset2_2023-06-23_14h24.40.256.csv,1,15,1,0,z,0,1,2,aud,A,63,1,1A,0A,0,1,z,1.53218919999927,0,1,1,1,0A,1A,A10,3.40119738166216,0.956487091432288,0.5,0.5,0.5,0.5,0.980717316004699,0.5,0.5,0.5,0.5,0.90180966443865,0.0981903355613503,0.5,0.5,0.0981903355613503,0.778425705956952,0.956487091432288,0.0435129085677124,0.956487091432288,0.5,0.527643572061261,0.71544352684206,0.0435129085677124,0.0242302245724112,0.5,0.556851411913904,0.956004639827025,0.458278943214736,2.20532397457381,0.5,70.6501332472142
CBC_1013,CBC_1013_MSI_AV_v3_Vset5_Aset2_2023-06-23_14h24.40.256.csv,1,16,3,1,b,1,0,3,aud,D,27,1,3D,1D,1,0,b,1.5336853000008,1,0,1,1,3D,1D,D31,3.43398720448515,0.980717316004699,0.5,0.5,0.5,0.5,0.980717316004699,0.5,0.5,0.5,0.5,0.90180966443865,0.0981903355613503,0.5,0.5,0.0981903355613503,0.778425705956952,0.778425705956952,0.221574294043048,0.778425705956952,0.5,0.453998720350457,0.636507300329226,0.221574294043048,0.123383958481698,0.5,0.556851411913904,0.956004639827025,0.458278943214736,2.20532397457381,0.5,70.6501332472142
CBC_1013,CBC_1013_MSI_AV_v3_Vset5_Aset2_2023-06-23_14h24.40.256.csv,1,17,0,1,z,0,1,0,aud,B,63,1,0B,1B,0,1,z,2.45271010000215,0,1,1,1,1B,0B,B01,2.77258872223978,0.980717316004699,0.5,0.5,0.5,0.5,0.980717316004699,0.5,0.5,0.5,0.5,0.90180966443865,0.0981903355613503,0.5,0.5,0.0981903355613503,0.90180966443865,0.980717316004699,0.0192826839953012,0.980717316004699,0.5,0.198778964595388,0.725034881795196,0.0192826839953012,0.0107375898082731,0.5,0.556851411913904,0.956004639827025,0.458278943214736,2.20532397457381,0.5,70.6501332472142
CBC_1013,CBC_1013_MSI_AV_v3_Vset5_Aset2_2023-06-23_14h24.40.256.csv,1,18,2,3,b,1,0,1,aud,C,63,0,2C,3C,0,1,b,1.62948089999918,1,0,1,0,2C,3C,C23,3.49650756146648,0.980717316004699,0.5,0.5,0.5,0.5,0.991454905812972,0.5,0.5,0.5,0.5,0.90180966443865,0.0981903355613503,0.5,0.5,0.0981903355613503,0.90180966443865,0.988283730205016,0.0117162697949837,0.90180966443865,0.0981903355613503,0.492632028811282,0.727997712082412,-0.90180966443865,-0.502173984920266,0.5,0.556851411913904,0.956004639827025,0.458278943214736,2.20532397457381,0.5,70.6501332472142
CBC_1013,CBC_1013_MSI_AV_v3_Vset5_Aset2_2023-06-23_14h24.40.256.csv,1,19,2,0,z,0,1,2,aud,A,27,1,2A,0A,0,1,z,1.81802009999956,0,1,1,1,0A,2A,A20,3.52636052461616,0.980717316004699,0.5,0.5,0.5,0.5,0.991454905812972,0.5,0.5,0.5,0.5,0.399635679518384,0.0981903355613503,0.5,0.5,0.0981903355613503,0.90180966443865,0.980717316004699,0.0192826839953012,0.980717316004699,0.5,0.40104251775382,0.724587136857846,0.0192826839953012,0.0107375898082731,0.5,0.556851411913904,0.956004639827025,0.458278943214736,2.20532397457381,0.5,70.6501332472142
CBC_1013,CBC_1013_MSI_AV_v3_Vset5_Aset2_2023-06-23_14h24.40.256.csv,1,20,3,2,b,1,0,3,aud,D,63,1,3D,2D,1,0,z,2.58035989999917,0,1,0,0,2D,3D,D32,2.4567357728213,0.991454905812972,0.5,0.5,0.5,0.5,0.991454905812972,0.5,0.5,0.5,0.5,0.399635679518384,0.0981903355613503,0.5,0.5,0.0981903355613503,0.90180966443865,0.0117162697949837,0.988283730205016,0.0981903355613503,0.90180966443865,0.0645265260359495,0.271675120525118,-0.0981903355613503,-0.0546774269936379,0.5,0.556851411913904,0.956004639827025,0.458278943214736,2.20532397457381,0.5,70.6501332472142
CBC_1013,CBC_1013_MSI_AV_v3_Vset5_Aset2_2023-06-23_14h24.40.256.csv,1,21,3,1,z,0,1,0,aud,B,27,1,3B,1B,0,1,z,1.78323489999821,0,1,1,1,1B,3B,B31,3.58351893845611,0.991454905812972,0.5,0.5,0.5,0.5,0.991454905812972,0.5,0.5,0.5,0.5,0.399635679518384,0.0981903355613503,0.5,0.5,0.0435129085677124,0.90180966443865,0.991454905812972,0.00854509418702809,0.991454905812972,0.5,0.419836173334544,0.729381007605922,0.00854509418702809,0.00475834776298388,0.5,0.556851411913904,0.956004639827025,0.458278943214736,2.20532397457381,0.5,70.6501332472142
CBC_1013,CBC_1013_MSI_AV_v3_Vset5_Aset2_2023-06-23_14h24.40.256.csv,1,22,3,2,z,0,1,1,aud,C,63,1,3C,2C,0,1,b,2.78485219999857,1,0,0,0,3C,2C,C32,2.51230562397611,0.991454905812972,0.5,0.5,0.5,0.5,0.996213253575956,0.5,0.5,0.5,0.5,0.399635679518384,0.0981903355613503,0.5,0.5,0.0435129085677124,0.90180966443865,0.140576215336857,0.859423784663143,0.0981903355613503,0.399635679518384,0.0635906012789383,0.325933364160254,-0.0981903355613503,-0.0546774269936379,0.5,0.556851411913904,0.956004639827025,0.458278943214736,2.20532397457381,0.5,70.6501332472142
CBC_1013,CBC_1013_MSI_AV_v3_Vset5_Aset2_2023-06-23_14h24.40.256.csv,1,23,0,1,b,1,0,2,aud,A,63,1,0A,1A,1,0,z,1.40452379999988,0,1,0,0,1A,0A,A01,2.53897387105828,0.991454905812972,0.5,0.5,0.5,0.5,0.996213253575956,0.5,0.5,0.5,0.5,0.399635679518384,0.0435129085677124,0.5,0.5,0.0435129085677124,0.90180966443865,0.00854509418702809,0.991454905812972,0.5,0.991454905812972,0.219820980585308,0.270656838997113,-0.5,-0.278425705956952,0.5,0.556851411913904,0.956004639827025,0.458278943214736,2.20532397457381,0.5,70.6501332472142
CBC_1013,CBC_1013_MSI_AV_v3_Vset5_Aset2_2023-06-23_14h24.40.256.csv,1,24,2,1,z,0,1,0,aud,B,9,1,2B,1B,0,1,b,2.23736089999875,1,0,0,0,2B,1B,B21,3.66356164612965,0.991454905812972,0.221574294043048,0.5,0.5,0.5,0.996213253575956,0.5,0.5,0.5,0.5,0.399635679518384,0.0435129085677124,0.5,0.5,0.0435129085677124,0.90180966443865,0.0037867464240442,0.996213253575956,0.5,0.996213253575956,0.0933149608772046,0.268227227711665,-0.5,-0.278425705956952,0.5,0.556851411913904,0.956004639827025,0.458278943214736,2.20532397457381,0.5,70.6501332472142
CBC_1013,CBC_1013_MSI_AV_v3_Vset5_Aset2_2023-06-23_14h24.40.256.csv,1,25,2,3,b,1,0,1,aud,C,63,1,2C,3C,1,0,z,2.47701860000234,0,1,0,0,3C,2C,C23,2.99573227355399,0.991454905812972,0.221574294043048,0.5,0.5,0.5,0.996213253575956,0.221574294043048,0.5,0.5,0.5,0.399635679518384,0.0435129085677124,0.5,0.5,0.0435129085677124,0.90180966443865,0.0639704188020485,0.936029581197952,0.0435129085677124,0.399635679518384,0.0787724180903832,0.293247730514035,-0.0435129085677124,-0.0242302245724112,0.5,0.556851411913904,0.956004639827025,0.458278943214736,2.20532397457381,0.5,70.6501332472142
CBC_1013,CBC_1013_MSI_AV_v3_Vset5_Aset2_2023-06-23_14h24.40.256.csv,1,26,2,3,z,0,1,3,aud,D,63,1,2D,3D,0,1,b,3.25851429999966,1,0,0,0,2D,3D,D23,3.71357206670431,0.991454905812972,0.221574294043048,0.5,0.5,0.5,0.996213253575956,0.221574294043048,0.5,0.5,0.5,0.399635679518384,0.0192826839953011,0.5,0.5,0.0435129085677124,0.90180966443865,0.00492886573626819,0.995071134263732,0.0435129085677124,0.90180966443865,0.0298798566111504,0.268830755029833,-0.0435129085677124,-0.0242302245724112,0.5,0.556851411913904,0.956004639827025,0.458278943214736,2.20532397457381,0.5,70.6501332472142
CBC_1013,CBC_1013_MSI_AV_v3_Vset5_Aset2_2023-06-23_14h24.40.256.csv,1,27,0,1,z,0,1,0,aud,B,63,1,0B,1B,0,1,z,1.28280069999892,0,1,1,1,1B,0B,B01,2.63905732961526,0.991454905812972,0.221574294043048,0.5,0.5,0.5,0.996213253575956,0.221574294043048,0.5,0.5,0.5,0.399635679518384,0.0192826839953011,0.5,0.5,0.0192826839953011,0.90180966443865,0.996213253575956,0.0037867464240442,0.996213253575956,0.5,0.585315272167012,0.731900684725099,0.0037867464240442,0.00210865509278894,0.5,0.556851411913904,0.956004639827025,0.458278943214736,2.20532397457381,0.5,70.6501332472142
CBC_1013,CBC_1013_MSI_AV_v3_Vset5_Aset2_2023-06-23_14h24.40.256.csv,1,28,0,2,b,1,0,2,aud,A,27,1,0A,2A,1,0,b,1.61357810000118,1,0,1,1,0A,2A,A02,3.76120011569356,0.991454905812972,0.221574294043048,0.5,0.5,0.5,0.998321908668745,0.221574294043048,0.5,0.5,0.5,0.399635679518384,0.0192826839953011,0.5,0.5,0.0192826839953011,0.90180966443865,0.991454905812972,0.00854509418702809,0.991454905812972,0.5,0.501629111746841,0.72915668682107,0.00854509418702809,0.00475834776298388,0.5,0.556851411913904,0.956004639827025,0.458278943214736,2.20532397457381,0.5,70.6501332472142
CBC_1013,CBC_1013_MSI_AV_v3_Vset5_Aset2_2023-06-23_14h24.40.256.csv,1,29,1,3,z,0,1,3,aud,D,27,1,1D,3D,0,1,z,1.65493009999773,0,1,1,1,3D,1D,D13,3.09104245335832,0.996213253575956,0.221574294043048,0.5,0.5,0.5,0.998321908668745,0.221574294043048,0.5,0.5,0.5,0.399635679518384,0.0192826839953011,0.5,0.5,0.0192826839953011,0.90180966443865,0.90180966443865,0.0981903355613503,0.90180966443865,0.5,0.450524958336614,0.692865826734242,0.0981903355613503,0.0546774269936379,0.5,0.556851411913904,0.956004639827025,0.458278943214736,2.20532397457381,0.5,70.6501332472142
CBC_1013,CBC_1013_MSI_AV_v3_Vset5_Aset2_2023-06-23_14h24.40.256.csv,1,30,1,0,z,0,1,2,aud,A,63,1,1A,0A,0,1,z,1.28256370000236,0,1,1,1,0A,1A,A10,3.11351530921037,0.996213253575956,0.221574294043048,0.5,0.5,0.5,0.998321908668745,0.221574294043048,0.5,0.5,0.5,0.399635679518384,0.0192826839953011,0.5,0.5,0.0192826839953011,0.956487091432288,0.998919197169902,0.0010808028300984,0.996213253575956,0.221574294043048,0.585477780678678,0.732134205421644,0.0037867464240442,0.00210865509278894,0.5,0.556851411913904,0.956004639827025,0.458278943214736,2.20532397457381,0.5,70.6501332472142
CBC_1013,CBC_1013_MSI_AV_v3_Vset5_Aset2_2023-06-23_14h24.40.256.csv,1,31,2,0,b,1,0,1,aud,C,27,1,2C,0C,1,0,b,2.24144290000186,1,0,1,1,2C,0C,C20,3.8286413964891,0.998321908668745,0.221574294043048,0.5,0.5,0.5,0.998321908668745,0.221574294043048,0.5,0.5,0.5,0.399635679518384,0.0192826839953011,0.5,0.5,0.0192826839953011,0.956487091432288,0.399635679518384,0.600364320481616,0.399635679518384,0.5,0.157316836344583,0.448912436452823,0.600364320481616,0.334313719522919,0.5,0.556851411913904,0.956004639827025,0.458278943214736,2.20532397457381,0.5,70.6501332472142
CBC_1013,CBC_1013_MSI_AV_v3_Vset5_Aset2_2023-06-23_14h24.40.256.csv,1,32,2,3,z,0,1,3,aud,D,63,1,2D,3D,0,1,z,2.72450219999882,0,1,1,1,3D,2D,D23,3.15700042115011,0.998321908668745,0.221574294043048,0.5,0.5,0.5,0.998321908668745,0.221574294043048,0.5,0.5,0.5,0.733949399041303,0.0192826839953011,0.5,0.5,0.0192826839953011,0.956487091432288,0.999106335812278,0.000893664187721476,0.956487091432288,0.0192826839953011,0.147740128903898,0.732478842999984,0.0435129085677124,0.0242302245724112,0.5,0.556851411913904,0.956004639827025,0.458278943214736,2.20532397457381,0.5,70.6501332472142
CBC_1013,CBC_1013_MSI_AV_v3_Vset5_Aset2_2023-06-23_14h24.40.256.csv,1,33,1,0,b,1,0,0,aud,B,63,1,1B,0B,1,0,b,2.42343439999968,1,0,1,1,1B,0B,B10,2.77258872223978,0.998321908668745,0.221574294043048,0.5,0.5,0.5,0.998321908668745,0.221574294043048,0.5,0.5,0.5,0.733949399041303,0.0192826839953011,0.5,0.5,0.0192826839953011,0.980717316004699,0.998321908668745,0.00167809133125529,0.998321908668745,0.5,0.206849431160251,0.73214789946156,0.00167809133125529,0.000934447527129993,0.5,0.556851411913904,0.956004639827025,0.458278943214736,2.20532397457381,0.5,70.6501332472142
CBC_1013,CBC_1013_MSI_AV_v3_Vset5_Aset2_2023-06-23_14h24.40.256.csv,1,34,0,1,b,1,0,2,aud,A,63,1,0A,1A,1,0,b,1.38459890000013,1,0,1,1,0A,1A,A01,2.50552593699074,0.998321908668745,0.221574294043048,0.5,0.5,0.5,0.999256356195875,0.221574294043048,0.5,0.5,0.5,0.733949399041303,0.0192826839953011,0.5,0.5,0.0192826839953011,0.980717316004699,0.999521767096374,0.000478232903625919,0.998321908668745,0.221574294043048,0.600656276227252,0.732556980304847,0.00167809133125529,0.000934447527129993,0.5,0.556851411913904,0.956004639827025,0.458278943214736,2.20532397457381,0.5,70.6501332472142
CBC_1013,CBC_1013_MSI_AV_v3_Vset5_Aset2_2023-06-23_14h24.40.256.csv,1,35,2,3,z,0,1,3,aud,D,63,0,2D,3D,1,0,z,2.7593386999979,0,1,1,0,3D,2D,D23,2.81341071676004,0.999256356195875,0.221574294043048,0.5,0.5,0.5,0.999256356195875,0.221574294043048,0.5,0.5,0.5,0.733949399041303,0.0192826839953011,0.5,0.5,0.0192826839953011,0.980717316004699,0.999613562360106,0.000386437639893988,0.980717316004699,0.0192826839953011,0.142235276129501,0.734056184510905,-0.980717316004699,-0.546113822105631,0.5,0.556851411913904,0.956004639827025,0.458278943214736,2.20532397457381,0.5,70.6501332472142
CBC_1013,CBC_1013_MSI_AV_v3_Vset5_Aset2_2023-06-23_14h24.40.256.csv,1,36,2,0,b,1,0,1,aud,C,27,1,2C,0C,1,0,b,2.50353389999873,1,0,1,1,2C,0C,C20,3.23867845216438,0.999256356195875,0.221574294043048,0.5,0.5,0.5,0.999256356195875,0.221574294043048,0.5,0.5,0.5,0.733949399041303,0.0192826839953011,0.5,0.5,0.0192826839953011,0.434603493899068,0.733949399041303,0.266050600958697,0.733949399041303,0.5,0.16424594757067,0.616070530735089,0.266050600958697,0.148150652784393,0.5,0.556851411913904,0.956004639827025,0.458278943214736,2.20532397457381,0.5,70.6501332472142
CBC_1013,CBC_1013_MSI_AV_v3_Vset5_Aset2_2023-06-23_14h24.40.256.csv,1,37,0,1,b,1,0,2,aud,A,63,1,0A,1A,1,0,b,1.57866809999905,1,0,1,1,0A,1A,A01,2.34180580614733,0.999256356195875,0.221574294043048,0.5,0.5,0.5,0.999256356195875,0.221574294043048,0.5,0.5,0.5,0.882100051825696,0.0192826839953011,0.5,0.5,0.0192826839953011,0.434603493899068,0.999788213505471,0.000211786494528798,0.999256356195875,0.221574294043048,0.523296433407648,0.73346318521451,0.000743643804125282,0.00041409910228819,0.5,0.556851411913904,0.956004639827025,0.458278943214736,2.20532397457381,0.5,70.6501332472142
CBC_1013,CBC_1013_MSI_AV_v3_Vset5_Aset2_2023-06-23_14h24.40.256.csv,1,38,1,3,b,1,0,0,aud,B,27,1,1B,3B,1,0,b,1.16878569999972,1,0,1,1,1B,3B,B13,3.27714473299218,0.999670455298163,0.221574294043048,0.5,0.5,0.5,0.999256356195875,0.221574294043048,0.5,0.5,0.5,0.882100051825696,0.0192826839953011,0.5,0.5,0.0192826839953011,0.434603493899068,0.999256356195875,0.000743643804125282,0.999256356195875,0.5,0.417115077191275,0.733008297389228,0.000743643804125282,0.00041409910228819,0.5,0.556851411913904,0.956004639827025,0.458278943214736,2.20532397457381,0.5,70.6501332472142
CBC_1013,CBC_1013_MSI_AV_v3_Vset5_Aset2_2023-06-23_14h24.40.256.csv,1,39,3,2,z,0,1,1,aud,C,63,1,3C,2C,0,1,z,3.63241629999902,0,1,1,1,2C,3C,C32,2.60268968544438,0.999670455298163,0.221574294043048,0.5,0.5,0.5,0.999670455298163,0.221574294043048,0.5,0.5,0.5,0.882100051825696,0.0192826839953011,0.5,0.5,0.0192826839953011,0.434603493899068,0.997378924119577,0.00262107588042299,0.882100051825696,0.0192826839953011,0.0535048439164716,0.731571584692249,0.117899948174304,0.0656527526054372,0.5,0.556851411913904,0.956004639827025,0.458278943214736,2.20532397457381,0.5,70.6501332472142
CBC_1013,CBC_1013_MSI_AV_v3_Vset5_Aset2_2023-06-23_14h24.40.256.csv,1,40,3,2,b,1,0,3,aud,D,63,1,3D,2D,1,0,b,2.41442550000284,1,0,1,1,3D,2D,D32,2.62103882411258,0.999670455298163,0.221574294043048,0.5,0.5,0.5,0.999670455298163,0.221574294043048,0.5,0.5,0.5,0.947752804431133,0.0192826839953011,0.5,0.5,0.0192826839953011,0.434603493899068,0.975058967491817,0.0249410325081832,0.434603493899068,0.0192826839953011,0.207015854980325,0.723196177253776,0.565396506100932,0.314841842713492,0.5,0.556851411913904,0.956004639827025,0.458278943214736,2.20532397457381,0.5,70.6501332472142
CBC_1013,CBC_1013_MSI_AV_v3_Vset5_Aset2_2023-06-23_14h24.40.256.csv,1,41,0,1,z,0,1,0,aud,B,63,1,0B,1B,0,1,z,1.47933189999821,0,1,1,1,1B,0B,B01,2.63905732961526,0.999670455298163,0.221574294043048,0.5,0.5,0.5,0.999670455298163,0.221574294043048,0.5,0.5,0.5,0.947752804431133,0.0192826839953011,0.5,0.5,0.0192826839953011,0.74944533661256,0.999670455298163,0.000329544701837103,0.999670455298163,0.5,0.570406406050201,0.733174544839715,0.000329544701837103,0.000183507432506737,0.5,0.556851411913904,0.956004639827025,0.458278943214736,2.20532397457381,0.5,70.6501332472142
CBC_1013,CBC_1013_MSI_AV_v3_Vset5_Aset2_2023-06-23_14h24.40.256.csv,1,42,2,0,z,0,1,2,aud,A,27,1,2A,0A,0,1,b,1.33160869999847,1,0,0,0,2A,0A,A20,3.3499040872746,0.999670455298163,0.221574294043048,0.5,0.5,0.5,0.99985396273067,0.221574294043048,0.5,0.5,0.5,0.947752804431133,0.0192826839953011,0.5,0.5,0.0192826839953011,0.74944533661256,0.000329544701837103,0.999670455298163,0.5,0.999670455298163,0.219898061037112,0.267228072533287,-0.5,-0.278425705956952,0.5,0.556851411913904,0.956004639827025,0.458278943214736,2.20532397457381,0.5,70.6501332472142
CBC_1013,CBC_1013_MSI_AV_v3_Vset5_Aset2_2023-06-23_14h24.40.256.csv,1,43,3,0,b,1,0,3,aud,D,9,1,3D,0D,1,0,z,1.06522469999982,0,1,0,0,0D,3D,D30,4.06044301054642,0.999670455298163,0.221574294043048,0.221574294043048,0.5,0.5,0.99985396273067,0.221574294043048,0.5,0.5,0.5,0.947752804431133,0.0192826839953011,0.5,0.5,0.0192826839953011,0.74944533661256,0.25055466338744,0.74944533661256,0.5,0.74944533661256,0.0361608754873066,0.376976830173739,-0.5,-0.278425705956952,0.5,0.556851411913904,0.956004639827025,0.458278943214736,2.20532397457381,0.5,70.6501332472142
CBC_1013,CBC_1013_MSI_AV_v3_Vset5_Aset2_2023-06-23_14h24.40.256.csv,1,44,3,2,z,0,1,1,aud,C,63,1,3C,2C,0,1,b,2.4016870000014,1,0,0,0,3C,2C,C32,2.46809953147162,0.999670455298163,0.221574294043048,0.221574294043048,0.5,0.5,0.99985396273067,0.221574294043048,0.5,0.5,0.5,0.947752804431133,0.0192826839953011,0.221574294043048,0.5,0.0192826839953011,0.74944533661256,0.00108273223606058,0.998917267763939,0.0192826839953011,0.947752804431133,0.0773675825603593,0.267312948617845,-0.0192826839953011,-0.0107375898082731,0.5,0.556851411913904,0.956004639827025,0.458278943214736,2.20532397457381,0.5,70.6501332472142
CBC_1013,CBC_1013_MSI_TV_v3_Vset4_Tset2_2023-06-23_15h01.09.889.csv,2,1,0,1,b,1,0,2,tac,A,63,1,0A,1A,1,0,z,1.72054339999522,0,1,0,0,1A,0A,A01,2.77258872223978,0.5,0.5,0.5,0.5,0.5,0.5,0.5,0.5,0.5,0.5,0.5,0.5,0.5,0.5,0.5,0.5,0.5,0.5,0.5,0.5,0.33563238255813,0.500650989468586,-0.5,-0.5,0.5,1,1.09997137411322,0.0542471904833342,2.22080584144527,0.5,66.4523409155667
CBC_1013,CBC_1013_MSI_TV_v3_Vset4_Tset2_2023-06-23_15h01.09.889.csv,2,2,2,3,b,1,0,1,tac,C,63,1,2C,3C,1,0,b,1.51106989999971,1,0,1,1,2C,3C,C23,2.83321334405622,0.5,0,0.5,0.5,0.5,0.5,0.5,0.5,0.5,0.5,0.5,0.5,0.5,0.5,0.5,0.5,0.5,0.5,0.5,0.5,0.374786225283702,0.499542586113774,0.5,0.5,0.5,1,1.09997137411322,0.0542471904833342,2.22080584144527,0.5,66.4523409155667
CBC_1013,CBC_1013_MSI_TV_v3_Vset4_Tset2_2023-06-23_15h01.09.889.csv,2,3,2,0,z,0,1,2,tac,A,27,1,2A,0A,0,1,z,2.83011970000007,0,1,1,1,0A,2A,A20,2.89037175789616,0.5,0,0.5,0.5,0.5,0.5,0.5,0.5,0.5,0.5,1,0.5,0.5,0.5,0.5,0.5,0.5,0.5,0.5,0.5,0.112603637772951,0.499136475964083,0.5,0.5,0.5,1,1.09997137411322,0.0542471904833342,2.22080584144527,0.5,66.4523409155667
CBC_1013,CBC_1013_MSI_TV_v3_Vset4_Tset2_2023-06-23_15h01.09.889.csv,2,4,0,1,z,0,1,0,tac,B,63,1,0B,1B,0,1,z,2.72701719999895,0,1,1,1,1B,0B,B01,2.94443897916644,1,0,0.5,0.5,0.5,0.5,0.5,0.5,0.5,0.5,1,0.5,0.5,0.5,0.5,0.5,0.5,0.5,0.5,0.5,0.125118772090863,0.500251329007845,0.5,0.5,0.5,1,1.09997137411322,0.0542471904833342,2.22080584144527,0.5,66.4523409155667
CBC_1013,CBC_1013_MSI_TV_v3_Vset4_Tset2_2023-06-23_15h01.09.889.csv,2,5,3,2,b,1,0,3,tac,D,63,1,3D,2D,1,0,z,2.47174939999604,0,1,0,0,2D,3D,D32,2.99573227355399,1,0,0.5,0.5,0.5,1,0.5,0.5,0.5,0.5,1,0.5,0.5,0.5,0.5,0.5,0.5,0.5,0.5,0.5,0.161626263398832,0.500578476972627,-0.5,-0.5,0.5,1,1.09997137411322,0.0542471904833342,2.22080584144527,0.5,66.4523409155667
CBC_1013,CBC_1013_MSI_TV_v3_Vset4_Tset2_2023-06-23_15h01.09.889.csv,2,6,2,1,z,0,1,0,tac,B,9,1,2B,1B,0,1,z,1.69762809999884,0,1,1,1,1B,2B,B21,3.04452243772342,1,0,0.5,0.5,0.5,1,0.5,0.5,0.5,0.5,1,0.5,0.5,0.5,0,0.5,1,0,1,0.5,0.362158554077003,0.529765642894175,0,0,0.5,1,1.09997137411322,0.0542471904833342,2.22080584144527,0.5,66.4523409155667
CBC_1013,CBC_1013_MSI_TV_v3_Vset4_Tset2_2023-06-23_15h01.09.889.csv,2,7,3,1,b,1,0,3,tac,D,27,1,3D,1D,1,0,b,2.69308999999703,1,0,1,1,3D,1D,D31,3.09104245335832,1,0,0.5,0.5,0.5,1,0.5,0.5,0.5,0.5,1,0.5,0.5,0.5,0,0.5,0.5,0.5,0.5,0.5,0.129300795671448,0.499718057859725,0.5,0.5,0.5,1,1.09997137411322,0.0542471904833342,2.22080584144527,0.5,66.4523409155667
CBC_1013,CBC_1013_MSI_TV_v3_Vset4_Tset2_2023-06-23_15h01.09.889.csv,2,8,0,1,b,1,0,2,tac,A,63,1,0A,1A,1,0,z,1.58249309999519,0,1,0,0,1A,0A,A01,2.4423470353692,1,0,0.5,0.5,0.5,1,0.5,0.5,0.5,0.5,1,0.5,0.5,0.5,0,1,0,1,0,1,0.346371283334841,0.469718769992424,0,0,0.5,1,1.09997137411322,0.0542471904833342,2.22080584144527,0.5,66.4523409155667
CBC_1013,CBC_1013_MSI_TV_v3_Vset4_Tset2_2023-06-23_15h01.09.889.csv,2,9,1,0,z,0,1,2,tac,A,63,1,1A,0A,0,1,b,1.83622589999504,1,0,0,0,1A,0A,A10,3.17805383034795,1,0,0.5,0.5,0.5,1,0.5,0.5,0.5,0.5,1,0.5,0.5,0.5,0,1,0,1,0,1,0.284739355234388,0.470462772385256,0,0,0.5,1,1.09997137411322,0.0542471904833342,2.22080584144527,0.5,66.4523409155667
CBC_1013,CBC_1013_MSI_TV_v3_Vset4_Tset2_2023-06-23_15h01.09.889.csv,2,10,0,2,z,0,1,1,tac,C,27,1,0C,2C,0,1,z,1.45046329999968,0,1,1,1,2C,0C,C02,3.2188758248682,1,0,0.5,0.5,0.5,1,0.5,0.5,0.5,0.5,1,0.5,0.5,0.5,0,1,1,0,1,0.5,0.390193805470384,0.529933722469433,0,0,0.5,1,1.09997137411322,0.0542471904833342,2.22080584144527,0.5,66.4523409155667
CBC_1013,CBC_1013_MSI_TV_v3_Vset4_Tset2_2023-06-23_15h01.09.889.csv,2,11,1,0,b,1,0,0,tac,B,63,1,1B,0B,1,0,z,2.3907691999957,0,1,0,0,0B,1B,B10,3.25809653802148,1,0,0.5,0.5,0.5,1,0.5,0.5,0.5,0.5,1,0.5,0.5,0.5,0,1,0,1,0.5,1,0.164446098888357,0.469734558174418,-0.5,-0.5,0.5,1,1.09997137411322,0.0542471904833342,2.22080584144527,0.5,66.4523409155667
CBC_1013,CBC_1013_MSI_TV_v3_Vset4_Tset2_2023-06-23_15h01.09.889.csv,2,12,1,0,z,0,1,2,tac,A,63,1,1A,0A,0,1,b,1.62133739999626,1,0,0,0,1A,0A,A10,2.60268968544438,1,0,0.5,0.5,0,1,0.5,0.5,0.5,0.5,1,0.5,0.5,0.5,0,1,0,1,0,1,0.338714231258659,0.469124442707515,0,0,0.5,1,1.09997137411322,0.0542471904833342,2.22080584144527,0.5,66.4523409155667
CBC_1013,CBC_1013_MSI_TV_v3_Vset4_Tset2_2023-06-23_15h01.09.889.csv,2,13,2,3,b,1,0,1,tac,C,63,1,2C,3C,1,0,b,2.38345779999872,1,0,1,1,2C,3C,C23,2.63905732961526,1,0,0.5,0.5,0,1,0.5,0.5,0.5,0.5,1,0.5,0.5,0.5,0,1,1,0,1,0.5,0.187225503373348,0.530904116017125,0,0,0.5,1,1.09997137411322,0.0542471904833342,2.22080584144527,0.5,66.4523409155667
CBC_1013,CBC_1013_MSI_TV_v3_Vset4_Tset2_2023-06-23_15h01.09.889.csv,2,14,2,0,z,0,1,2,tac,A,27,1,2A,0A,0,1,b,1.28939169999649,1,0,0,0,2A,0A,A20,2.67414864942653,1,0,0.5,0.5,0,1,0.5,0.5,0.5,0.5,1,0.5,0.5,0.5,0,1,0,1,0.5,1,0.195443438002876,0.470519844360817,-0.5,-0.5,0.5,1,1.09997137411322,0.0542471904833342,2.22080584144527,0.5,66.4523409155667
CBC_1013,CBC_1013_MSI_TV_v3_Vset4_Tset2_2023-06-23_15h01.09.889.csv,2,15,0,1,z,0,1,0,tac,B,63,1,0B,1B,0,1,z,2.49269839999761,0,1,1,1,1B,0B,B01,2.70805020110221,1,0,0,0.5,0,1,0.5,0.5,0.5,0.5,1,0.5,0.5,0.5,0,1,1,0,1,0,0.167584146158886,0.530146561227079,0,0,0.5,1,1.09997137411322,0.0542471904833342,2.22080584144527,0.5,66.4523409155667
CBC_1013,CBC_1013_MSI_TV_v3_Vset4_Tset2_2023-06-23_15h01.09.889.csv,2,16,1,0,b,1,0,0,tac,B,63,1,1B,0B,1,0,b,1.76422559999628,1,0,1,1,1B,0B,B10,2.7408400239252,1,0,0,0.5,0,1,0.5,0.5,0.5,0.5,1,0.5,0.5,0.5,0,1,1,0,1,0,0.342035242972356,0.529245127058566,0,0,0.5,1,1.09997137411322,0.0542471904833342,2.22080584144527,0.5,66.4523409155667
CBC_1013,CBC_1013_MSI_TV_v3_Vset4_Tset2_2023-06-23_15h01.09.889.csv,2,17,2,3,b,1,0,1,tac,C,63,1,2C,3C,1,0,b,2.32085919999736,1,0,1,1,2C,3C,C23,2.36712361413162,1,0,0,0.5,0,1,0.5,0.5,0.5,0.5,1,0.5,0.5,0.5,0,1,1,0,1,0.5,0.199143123957494,0.530398008189615,0,0,0.5,1,1.09997137411322,0.0542471904833342,2.22080584144527,0.5,66.4523409155667
CBC_1013,CBC_1013_MSI_TV_v3_Vset4_Tset2_2023-06-23_15h01.09.889.csv,2,18,1,3,z,0,1,3,tac,D,27,1,1D,3D,0,1,z,2.50630459999593,0,1,1,1,3D,1D,D13,3.49650756146648,1,0,0,0.5,0,1,0.5,0.5,0.5,0.5,1,0.5,0.5,0.5,0,1,1,0,1,0.5,0.164954270303363,0.528977631911978,0,0,0.5,1,1.09997137411322,0.0542471904833342,2.22080584144527,0.5,66.4523409155667
CBC_1013,CBC_1013_MSI_TV_v3_Vset4_Tset2_2023-06-23_15h01.09.889.csv,2,19,2,1,b,1,0,1,tac,C,9,1,2C,1C,1,0,z,1.89382719999412,0,1,0,0,1C,2C,C21,3.52636052461616,1,0,0,0.5,0,1,0.5,0.5,0.5,0.5,1,0.5,0.5,0.5,0,1,0,1,0.5,1,0.268764497450001,0.468976832205086,-0.5,-0.5,0.5,1,1.09997137411322,0.0542471904833342,2.22080584144527,0.5,66.4523409155667
CBC_1013,CBC_1013_MSI_TV_v3_Vset4_Tset2_2023-06-23_15h01.09.889.csv,2,20,1,3,b,1,0,0,tac,B,27,1,1B,3B,1,0,b,2.3971547000001,1,0,1,1,1B,3B,B13,3.55534806148941,1,0,0,0.5,0,1,0.5,0.5,0.5,0,1,0.5,0.5,0.5,0,1,1,0,1,0.5,0.184077526745313,0.529180096486605,0,0,0.5,1,1.09997137411322,0.0542471904833342,2.22080584144527,0.5,66.4523409155667
CBC_1013,CBC_1013_MSI_TV_v3_Vset4_Tset2_2023-06-23_15h01.09.889.csv,2,21,2,3,z,0,1,3,tac,D,63,1,2D,3D,0,1,z,2.33522009999797,0,1,1,1,3D,2D,D23,3.58351893845611,1,0,0,0.5,0,1,0.5,0.5,0.5,0,1,0.5,0.5,0.5,0,1,1,0,1,0,0.196485504372152,0.530895329271577,0,0,0.5,1,1.09997137411322,0.0542471904833342,2.22080584144527,0.5,66.4523409155667
CBC_1013,CBC_1013_MSI_TV_v3_Vset4_Tset2_2023-06-23_15h01.09.889.csv,2,22,0,1,z,0,1,0,tac,B,63,0,0B,1B,1,0,b,2.49464779999471,1,0,0,1,0B,1B,B01,2.51230562397611,1,0,0,0.5,0,1,0.5,0.5,0.5,0,1,0.5,0.5,0.5,0,1,0,1,0,1,0.148239086848481,0.469865677952614,1,1,0.5,1,1.09997137411322,0.0542471904833342,2.22080584144527,0.5,66.4523409155667
CBC_1013,CBC_1013_MSI_TV_v3_Vset4_Tset2_2023-06-23_15h01.09.889.csv,2,23,0,3,b,1,0,2,tac,A,9,1,0A,3A,1,0,z,2.32500699999946,0,1,0,0,3A,0A,A03,3.63758615972639,1,0,0,0.5,1,1,0.5,0.5,0.5,0,1,0.5,0.5,0.5,0,1,0,1,0.5,1,0.175854051053801,0.470318241108988,-0.5,-0.5,0.5,1,1.09997137411322,0.0542471904833342,2.22080584144527,0.5,66.4523409155667
CBC_1013,CBC_1013_MSI_TV_v3_Vset4_Tset2_2023-06-23_15h01.09.889.csv,2,24,3,2,b,1,0,3,tac,D,63,1,3D,2D,1,0,z,2.38668929999767,0,1,0,0,2D,3D,D32,2.9704144655697,1,0,0,0,1,1,0.5,0.5,0.5,0,1,0.5,0.5,0.5,0,1,0,1,0,1,0.165211128977654,0.469995282400356,0,0,0.5,1,1.09997137411322,0.0542471904833342,2.22080584144527,0.5,66.4523409155667
CBC_1013,CBC_1013_MSI_TV_v3_Vset4_Tset2_2023-06-23_15h01.09.889.csv,2,25,3,1,z,0,1,0,tac,B,27,1,3B,1B,0,1,z,2.4429541999998,0,1,1,1,1B,3B,B31,3.68887945411394,1,0,0,0,1,1,0.5,0.5,0.5,0,1,0.5,0.5,0.5,0,1,1,0,1,0.5,0.176169882071589,0.530220220043671,0,0,0.5,1,1.09997137411322,0.0542471904833342,2.22080584144527,0.5,66.4523409155667
CBC_1013,CBC_1013_MSI_TV_v3_Vset4_Tset2_2023-06-23_15h01.09.889.csv,2,26,3,2,z,0,1,1,tac,C,63,1,3C,2C,0,1,z,2.05481039999722,0,1,1,1,2C,3C,C32,3.71357206670431,1,0,0,0,1,1,0.5,0.5,0.5,0,1,0.5,0.5,0.5,0,1,1,0,1,0.5,0.259840997609074,0.530771039188435,0,0,0.5,1,1.09997137411322,0.0542471904833342,2.22080584144527,0.5,66.4523409155667
CBC_1013,CBC_1013_MSI_TV_v3_Vset4_Tset2_2023-06-23_15h01.09.889.csv,2,27,0,2,z,0,1,1,tac,C,27,1,0C,2C,0,1,b,2.7247196999997,1,0,0,0,0C,2C,C02,3.04452243772342,1,0,0,0,1,1,0.5,0.5,0.5,0,1,0.5,0.5,0.5,0,1,0,1,0.5,1,0.117781694191757,0.470102948636329,-0.5,-0.5,0.5,1,1.09997137411322,0.0542471904833342,2.22080584144527,0.5,66.4523409155667
CBC_1013,CBC_1013_MSI_TV_v3_Vset4_Tset2_2023-06-23_15h01.09.889.csv,2,28,1,0,b,1,0,0,tac,B,63,1,1B,0B,1,0,z,2.30304649999744,0,1,0,0,0B,1B,B10,2.66258782702545,1,0,0,0,1,1,0.5,0.5,0,0,1,0.5,0.5,0.5,0,1,NaN,NaN,1,1,NaN,NaN,-1,-1,0.5,1,1.09997137411322,0.0542471904833342,2.22080584144527,0.5,66.4523409155667
CBC_1013,CBC_1013_MSI_TV_v3_Vset4_Tset2_2023-06-23_15h01.09.889.csv,2,29,3,2,z,0,1,1,tac,C,63,1,3C,2C,0,1,z,2.14051949999703,0,1,1,1,2C,3C,C32,3.09104245335832,1,0,0,0,0,1,0.5,0.5,0,0,1,0.5,0.5,0.5,0,1,1,0,1,0.5,0.238300889134191,0.530056678033878,0,0,0.5,1,1.09997137411322,0.0542471904833342,2.22080584144527,0.5,66.4523409155667
CBC_1013,CBC_1013_MSI_TV_v3_Vset4_Tset2_2023-06-23_15h01.09.889.csv,2,30,0,1,b,1,0,2,tac,A,63,1,0A,1A,1,0,b,1.66469520000101,1,0,1,1,0A,1A,A01,2.70805020110221,1,0,0,0,0,1,0.5,0.5,0,0,1,0.5,0.5,0.5,0,1,1,0,1,0,0.371479175948018,0.529868051306644,0,0,0.5,1,1.09997137411322,0.0542471904833342,2.22080584144527,0.5,66.4523409155667
CBC_1013,CBC_1013_MSI_TV_v3_Vset4_Tset2_2023-06-23_15h01.09.889.csv,2,31,3,2,b,1,0,3,tac,D,63,1,3D,2D,1,0,z,1.68298009999853,0,1,0,0,2D,3D,D32,2.73002910782099,1,0,0,0,0,1,0.5,0.5,0,0,1,0.5,0.5,0.5,0,1,0,1,0,1,0.324787891174938,0.46966341595827,0,0,0.5,1,1.09997137411322,0.0542471904833342,2.22080584144527,0.5,66.4523409155667
CBC_1013,CBC_1013_MSI_TV_v3_Vset4_Tset2_2023-06-23_15h01.09.889.csv,2,32,3,2,z,0,1,1,tac,C,63,1,3C,2C,0,1,b,2.40184629999931,1,0,0,0,3C,2C,C32,2.75153531304195,1,0,0,0,0,1,0.5,0.5,0,0,1,0.5,0.5,0.5,0,1,0,1,0.5,1,0.163033926952384,0.470891174006589,-0.5,-0.5,0.5,1,1.09997137411322,0.0542471904833342,2.22080584144527,0.5,66.4523409155667
CBC_1013,CBC_1013_MSI_TV_v3_Vset4_Tset2_2023-06-23_15h01.09.889.csv,2,33,1,3,z,0,1,3,tac,D,27,1,1D,3D,0,1,z,2.44482809999681,0,1,1,1,3D,1D,D13,3.17805383034795,1,0,0,0,0,1,0.5,0.5,0,0,1,0,0.5,0.5,0,1,1,0,1,0.5,0.175626552220006,0.52957415450037,0,0,0.5,1,1.09997137411322,0.0542471904833342,2.22080584144527,0.5,66.4523409155667
CBC_1013,CBC_1013_MSI_TV_v3_Vset4_Tset2_2023-06-23_15h01.09.889.csv,2,34,2,0,b,1,0,1,tac,C,27,1,2C,0C,1,0,b,1.82400549999875,1,0,1,1,2C,0C,C20,3.89182029811063,1,0,0,0,0,1,0.5,0.5,0,0,1,0,0.5,0.5,0,1,1,0,1,0,0.324330307687753,0.529802801778476,0,0,0.5,1,1.09997137411322,0.0542471904833342,2.22080584144527,0.5,66.4523409155667
CBC_1013,CBC_1013_MSI_TV_v3_Vset4_Tset2_2023-06-23_15h01.09.889.csv,2,35,3,2,b,1,0,3,tac,D,63,0,3D,2D,0,1,z,2.70410839999749,0,1,0,1,2D,3D,D32,2.52572864430826,1,0,0,0,0,1,0.5,0.5,0,0,1,0,0.5,0.5,0,1,0,1,0,1,0.12017061900512,0.469838587151478,1,1,0.5,1,1.09997137411322,0.0542471904833342,2.22080584144527,0.5,66.4523409155667
CBC_1013,CBC_1013_MSI_TV_v3_Vset4_Tset2_2023-06-23_15h01.09.889.csv,2,36,0,1,b,1,0,2,tac,A,63,1,0A,1A,1,0,z,2.2869271999989,0,1,0,0,1A,0A,A01,2.54553127160444,1,0,0,0,0,1,0.5,0.5,0,0,1,0,0.5,0.5,1,1,0,1,0,1,0.182477691290301,0.46978897383655,0,0,0.5,1,1.09997137411322,0.0542471904833342,2.22080584144527,0.5,66.4523409155667
CBC_1013,CBC_1013_MSI_TV_v3_Vset4_Tset2_2023-06-23_15h01.09.889.csv,2,37,3,2,z,0,1,1,tac,C,63,1,3C,2C,0,1,z,1.92312569999922,0,1,1,1,2C,3C,C32,2.56494935746154,1,0,0,0,0,1,0.5,0.5,0,0,1,0,0.5,0.5,1,1,1,0,1,0,0.295444628603726,0.530326667964125,0,0,0.5,1,1.09997137411322,0.0542471904833342,2.22080584144527,0.5,66.4523409155667
CBC_1013,CBC_1013_MSI_TV_v3_Vset4_Tset2_2023-06-23_15h01.09.889.csv,2,38,2,0,z,0,1,2,tac,A,27,1,2A,0A,0,1,b,2.05149940000047,1,0,0,0,2A,0A,A20,2.87167962488401,1,0,0,0,0,1,0.5,0.5,0,0,1,0,0.5,0.5,1,1,0,1,0,1,0.230881509104553,0.470083255869086,0,0,0.5,1,1.09997137411322,0.0542471904833342,2.22080584144527,0.5,66.4523409155667
CBC_1013,CBC_1013_MSI_TV_v3_Vset4_Tset2_2023-06-23_15h01.09.889.csv,2,39,3,2,b,1,0,3,tac,D,63,1,3D,2D,1,0,z,2.68382859999838,0,1,0,0,2D,3D,D32,2.37954613413017,1,0,0,0,0,1,0.5,0.5,0,0,1,0,0.5,0.5,1,1,NaN,NaN,1,1,NaN,NaN,-1,-1,0.5,1,1.09997137411322,0.0542471904833342,2.22080584144527,0.5,66.4523409155667
CBC_1013,CBC_1013_MSI_TV_v3_Vset4_Tset2_2023-06-23_15h01.09.889.csv,2,40,2,3,z,0,1,3,tac,D,63,1,2D,3D,0,1,b,2.52548409999872,1,0,0,0,2D,3D,D23,3.31418600467253,1,0,0,0,0,1,0.5,0.5,0,0,1,0,0.5,0.5,0,1,0,1,0,1,0.143649813637571,0.469606016456979,0,0,0.5,1,1.09997137411322,0.0542471904833342,2.22080584144527,0.5,66.4523409155667
CBC_1013,CBC_1013_MSI_TV_v3_Vset4_Tset2_2023-06-23_15h01.09.889.csv,2,41,1,3,b,1,0,0,tac,B,27,1,1B,3B,1,0,z,2.16022449999582,0,1,0,0,3B,1B,B13,3.3322045101752,1,0,0,0,0,1,0.5,0.5,0,0,1,0,0.5,0.5,0,1,0,1,0.5,1,0.207266572826699,0.470172146574377,-0.5,-0.5,0.5,1,1.09997137411322,0.0542471904833342,2.22080584144527,0.5,66.4523409155667
CBC_1013,CBC_1013_MSI_TV_v3_Vset4_Tset2_2023-06-23_15h01.09.889.csv,2,42,0,3,z,0,1,3,tac,D,9,1,0D,3D,0,1,z,2.40067689999705,0,1,1,1,3D,0D,D03,4.04305126783455,1,0,0,0,0,1,0.5,0,0,0,1,0,0.5,0.5,0,1,1,0,1,0.5,0.183821867075941,0.530316032216128,0,0,0.5,1,1.09997137411322,0.0542471904833342,2.22080584144527,0.5,66.4523409155667
CBC_1013,CBC_1013_MSI_TV_v3_Vset4_Tset2_2023-06-23_15h01.09.889.csv,2,43,1,0,b,1,0,0,tac,B,63,1,1B,0B,1,0,b,3.08699239999623,1,0,1,1,1B,0B,B10,2.67414864942653,1,0,0,0,0,1,0.5,0,0,0,1,0,0.5,0.5,0,1,1,0,1,0,0.0924386324759534,0.530438654545231,0,0,0.5,1,1.09997137411322,0.0542471904833342,2.22080584144527,0.5,66.4523409155667
CBC_1013,CBC_1013_MSI_TV_v3_Vset4_Tset2_2023-06-23_15h01.09.889.csv,2,44,1,0,z,0,1,2,tac,A,63,1,1A,0A,0,1,z,2.60529799999495,0,1,1,1,0A,1A,A10,2.97892515523761,1,0,0,0,0,1,0.5,0,0,0,1,0,0.5,0.5,0,1,1,0,1,0,0.149593853779869,0.529739730728646,0,0,0.5,1,1.09997137411322,0.0542471904833342,2.22080584144527,0.5,66.4523409155667
CBC_1013,CBC_1013_MSI_AV_v3_Vset3_Aset1_2023-06-23_16h50.00.877.csv,3,1,1,0,b,1,0,0,aud,B,63,1,1B,0B,1,0,b,1.6248302999993,1,0,1,1,1B,0B,B10,2.77258872223978,0.5,0.5,0.5,0.5,0.5,0.5,0.5,0.5,0.5,0.5,0.5,0.5,0.5,0.5,0.5,0.5,0.5,0.5,0.5,0.5,0.272264210242199,0.500421228092144,0.5,0.367110014754986,0.5,0.734220029509972,0.902955046217052,0.586369220544202,2.52582508887718,0.5,71.6601692912111
CBC_1013,CBC_1013_MSI_AV_v3_Vset3_Aset1_2023-06-23_16h50.00.877.csv,3,2,0,1,b,1,0,2,aud,A,63,1,0A,1A,1,0,b,1.44742380000025,1,0,1,1,0A,1A,A01,2.83321334405622,0.5,0.5,0.5,0.5,0.5,0.867110014754986,0.5,0.5,0.5,0.5,0.5,0.5,0.5,0.5,0.5,0.5,0.5,0.5,0.5,0.5,0.289628402626815,0.49957586508958,0.5,0.367110014754986,0.5,0.734220029509972,0.902955046217052,0.586369220544202,2.52582508887718,0.5,71.6601692912111
CBC_1013,CBC_1013_MSI_AV_v3_Vset3_Aset1_2023-06-23_16h50.00.877.csv,3,3,1,2,z,0,1,1,aud,C,9,1,1C,2C,0,1,z,1.24562669999796,0,1,1,1,2C,1C,C12,2.89037175789616,0.867110014754986,0.5,0.5,0.5,0.5,0.867110014754986,0.5,0.5,0.5,0.5,0.5,0.5,0.5,0.5,0.5,0.5,0.5,0.5,0.5,0.5,0.244748020364085,0.499371608468995,0.5,0.367110014754986,0.5,0.734220029509972,0.902955046217052,0.586369220544202,2.52582508887718,0.5,71.6601692912111
CBC_1013,CBC_1013_MSI_AV_v3_Vset3_Aset1_2023-06-23_16h50.00.877.csv,3,4,1,0,z,0,1,2,aud,A,63,1,1A,0A,0,1,b,2.38273529999788,1,0,0,0,1A,0A,A10,2.94443897916644,0.867110014754986,0.5,0.5,0.5,0.5,0.867110014754986,0.5,0.5,0.5,0.5,0.867110014754986,0.5,0.5,0.5,0.5,0.5,0.132889985245014,0.867110014754986,0.5,0.867110014754986,0.0793862964829687,0.252294368867891,-0.5,-0.367110014754986,0.5,0.734220029509972,0.902955046217052,0.586369220544202,2.52582508887718,0.5,71.6601692912111
CBC_1013,CBC_1013_MSI_AV_v3_Vset3_Aset1_2023-06-23_16h50.00.877.csv,3,5,3,1,b,1,0,3,aud,D,27,1,3D,1D,1,0,b,2.03948099999616,1,0,1,1,3D,1D,D31,2.99573227355399,0.867110014754986,0.132889985245014,0.5,0.5,0.5,0.867110014754986,0.5,0.5,0.5,0.5,0.867110014754986,0.5,0.5,0.5,0.5,0.5,0.5,0.5,0.5,0.5,0.204641519566592,0.501837154689962,0.5,0.367110014754986,0.5,0.734220029509972,0.902955046217052,0.586369220544202,2.52582508887718,0.5,71.6601692912111
CBC_1013,CBC_1013_MSI_AV_v3_Vset3_Aset1_2023-06-23_16h50.00.877.csv,3,6,0,1,z,0,1,0,aud,B,63,1,0B,1B,0,1,z,2.28716159999749,0,1,1,1,1B,0B,B01,3.04452243772342,0.867110014754986,0.132889985245014,0.5,0.5,0.5,0.867110014754986,0.5,0.5,0.5,0.5,0.867110014754986,0.5,0.5,0.5,0.5,0.867110014754986,0.867110014754986,0.132889985245014,0.867110014754986,0.5,0.255534441260146,0.747781590024328,0.132889985245014,0.0975704888881739,0.5,0.734220029509972,0.902955046217052,0.586369220544202,2.52582508887718,0.5,71.6601692912111
CBC_1013,CBC_1013_MSI_AV_v3_Vset3_Aset1_2023-06-23_16h50.00.877.csv,3,7,2,3,b,1,0,1,aud,C,63,1,2C,3C,1,0,b,2.21444189999966,1,0,1,1,2C,3C,C23,3.09104245335832,0.867110014754986,0.132889985245014,0.5,0.5,0.5,0.96468050364316,0.5,0.5,0.5,0.5,0.867110014754986,0.5,0.5,0.5,0.5,0.867110014754986,0.867110014754986,0.132889985245014,0.867110014754986,0.5,0.272155557110097,0.748027752465095,0.132889985245014,0.0975704888881739,0.5,0.734220029509972,0.902955046217052,0.586369220544202,2.52582508887718,0.5,71.6601692912111
CBC_1013,CBC_1013_MSI_AV_v3_Vset3_Aset1_2023-06-23_16h50.00.877.csv,3,8,2,0,z,0,1,2,aud,A,27,1,2A,0A,0,1,z,2.55901079999967,0,1,1,1,0A,2A,A20,3.13549421592915,0.867110014754986,0.132889985245014,0.5,0.5,0.5,0.96468050364316,0.5,0.5,0.5,0.5,0.96468050364316,0.5,0.5,0.5,0.5,0.867110014754986,0.867110014754986,0.132889985245014,0.867110014754986,0.5,0.202115012038282,0.748176841018171,0.132889985245014,0.0975704888881739,0.5,0.734220029509972,0.902955046217052,0.586369220544202,2.52582508887718,0.5,71.6601692912111
CBC_1013,CBC_1013_MSI_AV_v3_Vset3_Aset1_2023-06-23_16h50.00.877.csv,3,9,3,2,b,1,0,3,aud,D,63,1,3D,2D,1,0,b,2.2502381000013,1,0,1,1,3D,2D,D32,3.17805383034795,0.96468050364316,0.132889985245014,0.5,0.5,0.5,0.96468050364316,0.5,0.5,0.5,0.5,0.96468050364316,0.5,0.5,0.5,0.5,0.867110014754986,0.867110014754986,0.132889985245014,0.867110014754986,0.5,0.263958029221263,0.748200919706399,0.132889985245014,0.0975704888881739,0.5,0.734220029509972,0.902955046217052,0.586369220544202,2.52582508887718,0.5,71.6601692912111
CBC_1013,CBC_1013_MSI_AV_v3_Vset3_Aset1_2023-06-23_16h50.00.877.csv,3,10,3,1,z,0,1,0,aud,B,27,1,3B,1B,0,1,z,1.72423780000099,0,1,1,1,1B,3B,B31,3.2188758248682,0.96468050364316,0.132889985245014,0.5,0.5,0.5,0.96468050364316,0.5,0.5,0.5,0.5,0.96468050364316,0.5,0.5,0.5,0.5,0.96468050364316,0.96468050364316,0.0353194963568401,0.96468050364316,0.5,0.45109031179686,0.79847128504338,0.0353194963568401,0.0259322816573965,0.5,0.734220029509972,0.902955046217052,0.586369220544202,2.52582508887718,0.5,71.6601692912111
CBC_1013,CBC_1013_MSI_AV_v3_Vset3_Aset1_2023-06-23_16h50.00.877.csv,3,11,3,2,z,0,1,1,aud,C,63,1,3C,2C,0,1,z,2.34041889999935,0,1,1,1,2C,3C,C32,3.25809653802148,0.96468050364316,0.132889985245014,0.5,0.5,0.5,0.990612785300556,0.5,0.5,0.5,0.5,0.96468050364316,0.5,0.5,0.5,0.5,0.96468050364316,0.96468050364316,0.0353194963568401,0.96468050364316,0.5,0.260308043974244,0.798446303699023,0.0353194963568401,0.0259322816573965,0.5,0.734220029509972,0.902955046217052,0.586369220544202,2.52582508887718,0.5,71.6601692912111
CBC_1013,CBC_1013_MSI_AV_v3_Vset3_Aset1_2023-06-23_16h50.00.877.csv,3,12,1,3,b,1,0,0,aud,B,27,1,1B,3B,1,0,b,2.02770080000118,1,0,1,1,1B,3B,B13,3.29583686600433,0.96468050364316,0.132889985245014,0.5,0.5,0.5,0.990612785300556,0.5,0.5,0.5,0.5,0.990612785300556,0.5,0.5,0.5,0.5,0.96468050364316,0.990612785300556,0.00938721469944359,0.990612785300556,0.5,0.353301229718286,0.81072471377249,0.00938721469944359,0.00689228105364192,0.5,0.734220029509972,0.902955046217052,0.586369220544202,2.52582508887718,0.5,71.6601692912111
CBC_1013,CBC_1013_MSI_AV_v3_Vset3_Aset1_2023-06-23_16h50.00.877.csv,3,13,3,2,z,0,1,1,aud,C,63,1,3C,2C,0,1,z,2.85262969999894,0,1,1,1,2C,3C,C32,2.63905732961526,0.96468050364316,0.132889985245014,0.5,0.5,0.5,0.997505066354198,0.5,0.5,0.5,0.5,0.990612785300556,0.5,0.5,0.5,0.5,0.96468050364316,0.990612785300556,0.00938721469944359,0.990612785300556,0.5,0.163221901883056,0.810339368170767,0.00938721469944359,0.00689228105364192,0.5,0.734220029509972,0.902955046217052,0.586369220544202,2.52582508887718,0.5,71.6601692912111
CBC_1013,CBC_1013_MSI_AV_v3_Vset3_Aset1_2023-06-23_16h50.00.877.csv,3,14,3,2,b,1,0,3,aud,D,63,1,3D,2D,1,0,z,2.23503640000126,0,1,0,0,2D,3D,D32,2.67414864942653,0.96468050364316,0.132889985245014,0.5,0.5,0.5,0.997505066354198,0.5,0.5,0.5,0.5,0.997505066354198,0.5,0.5,0.5,0.5,0.96468050364316,0.0353194963568401,0.96468050364316,0.5,0.96468050364316,0.0722309941285931,0.201110404758901,-0.5,-0.367110014754986,0.5,0.734220029509972,0.902955046217052,0.586369220544202,2.52582508887718,0.5,71.6601692912111
CBC_1013,CBC_1013_MSI_AV_v3_Vset3_Aset1_2023-06-23_16h50.00.877.csv,3,15,0,3,b,1,0,2,aud,A,9,1,0A,3A,1,0,b,2.49769419999939,1,0,1,1,0A,3A,A03,3.40119738166216,0.96468050364316,0.132889985245014,0.5,0.5,0.5,0.997505066354198,0.5,0.5,0.5,0.5,0.997505066354198,0.5,0.5,0.5,0.132889985245014,0.96468050364316,0.96468050364316,0.0353194963568401,0.96468050364316,0.5,0.22518564723338,0.798255878268105,0.0353194963568401,0.0259322816573965,0.5,0.734220029509972,0.902955046217052,0.586369220544202,2.52582508887718,0.5,71.6601692912111
CBC_1013,CBC_1013_MSI_AV_v3_Vset3_Aset1_2023-06-23_16h50.00.877.csv,3,16,0,1,z,0,1,0,aud,B,63,0,0B,1B,1,0,z,2.02205699999831,0,1,1,0,1B,0B,B01,2.7408400239252,0.990612785300556,0.132889985245014,0.5,0.5,0.5,0.997505066354198,0.5,0.5,0.5,0.5,0.997505066354198,0.5,0.5,0.5,0.132889985245014,0.96468050364316,0.997505066354198,0.00249493364580167,0.997505066354198,0.5,0.356678407493404,0.813430625761677,-0.997505066354198,-0.732388199254926,0.5,0.734220029509972,0.902955046217052,0.586369220544202,2.52582508887718,0.5,71.6601692912111
CBC_1013,CBC_1013_MSI_AV_v3_Vset3_Aset1_2023-06-23_16h50.00.877.csv,3,17,2,3,z,0,1,3,aud,D,63,1,2D,3D,0,1,b,2.39136990000043,1,0,0,0,2D,3D,D23,3.46573590279973,0.990612785300556,0.132889985245014,0.5,0.5,0.5,0.265116867099272,0.5,0.5,0.5,0.5,0.997505066354198,0.5,0.5,0.5,0.132889985245014,0.96468050364316,0.00557980455858937,0.994420195441411,0.132889985245014,0.96468050364316,0.0583691381621322,0.188046996568509,-0.132889985245014,-0.0975704888881739,0.5,0.734220029509972,0.902955046217052,0.586369220544202,2.52582508887718,0.5,71.6601692912111
CBC_1013,CBC_1013_MSI_AV_v3_Vset3_Aset1_2023-06-23_16h50.00.877.csv,3,18,0,2,z,0,1,1,aud,C,27,1,0C,2C,0,1,z,2.81760660000145,0,1,1,1,2C,0C,C02,3.49650756146648,0.990612785300556,0.132889985245014,0.5,0.5,0.5,0.265116867099272,0.5,0.5,0.5,0.5,0.997505066354198,0.5,0.5,0.5,0.03531949635684,0.96468050364316,0.997505066354198,0.00249493364580167,0.997505066354198,0.5,0.168937568940052,0.814240068341495,0.00249493364580167,0.00183183025504592,0.5,0.734220029509972,0.902955046217052,0.586369220544202,2.52582508887718,0.5,71.6601692912111
CBC_1013,CBC_1013_MSI_AV_v3_Vset3_Aset1_2023-06-23_16h50.00.877.csv,3,19,0,1,b,1,0,2,aud,A,63,1,0A,1A,1,0,b,1.58201569999801,1,0,1,1,0A,1A,A01,2.83321334405622,0.990612785300556,0.132889985245014,0.5,0.5,0.5,0.265116867099272,0.5,0.5,0.5,0.5,0.999336896609244,0.5,0.5,0.5,0.03531949635684,0.96468050364316,0.998549824336295,0.00145017566370464,0.990612785300556,0.132889985245014,0.51773771244607,0.813629656283549,0.00938721469944359,0.00689228105364192,0.5,0.734220029509972,0.902955046217052,0.586369220544202,2.52582508887718,0.5,71.6601692912111
CBC_1013,CBC_1013_MSI_AV_v3_Vset3_Aset1_2023-06-23_16h50.00.877.csv,3,20,1,0,b,1,0,0,aud,B,63,1,1B,0B,1,0,b,1.62303519999841,1,0,1,1,1B,0B,B10,2.86220088092947,0.997505066354198,0.132889985245014,0.5,0.5,0.5,0.265116867099272,0.5,0.5,0.5,0.5,0.999336896609244,0.5,0.5,0.5,0.03531949635684,0.96468050364316,0.265116867099272,0.734883132900728,0.265116867099272,0.5,0.187098866511048,0.332720412586912,0.734883132900728,0.539565915524753,0.5,0.734220029509972,0.902955046217052,0.586369220544202,2.52582508887718,0.5,71.6601692912111
CBC_1013,CBC_1013_MSI_AV_v3_Vset3_Aset1_2023-06-23_16h50.00.877.csv,3,21,1,3,z,0,1,3,aud,D,27,1,1D,3D,0,1,z,1.86557469999752,0,1,1,1,3D,1D,D13,3.58351893845611,0.997505066354198,0.132889985245014,0.5,0.5,0.5,0.804682782624025,0.5,0.5,0.5,0.5,0.999336896609244,0.5,0.5,0.5,0.03531949635684,0.96468050364316,0.96468050364316,0.0353194963568401,0.96468050364316,0.5,0.400259920991848,0.798343847857042,0.0353194963568401,0.0259322816573965,0.5,0.734220029509972,0.902955046217052,0.586369220544202,2.52582508887718,0.5,71.6601692912111
CBC_1013,CBC_1013_MSI_AV_v3_Vset3_Aset1_2023-06-23_16h50.00.877.csv,3,22,3,2,z,0,1,1,aud,C,63,1,3C,2C,0,1,b,2.80694950000179,1,0,0,0,3C,2C,C32,2.51230562397611,0.997505066354198,0.132889985245014,0.5,0.5,0.5,0.804682782624025,0.5,0.5,0.5,0.5,0.999336896609244,0.5,0.5,0.5,0.03531949635684,0.990612785300556,0.000663103390755704,0.999336896609244,0.5,0.999336896609244,0.0388579925245682,0.185457843500399,-0.5,-0.367110014754986,0.5,0.734220029509972,0.902955046217052,0.586369220544202,2.52582508887718,0.5,71.6601692912111
CBC_1013,CBC_1013_MSI_AV_v3_Vset3_Aset1_2023-06-23_16h50.00.877.csv,3,23,0,1,b,1,0,2,aud,A,63,1,0A,1A,1,0,b,1.7307802999967,1,0,1,1,0A,1A,A01,2.53897387105828,0.997505066354198,0.132889985245014,0.5,0.5,0.5,0.804682782624025,0.5,0.5,0.5,0.5,0.999336896609244,0.132889985245014,0.5,0.5,0.03531949635684,0.990612785300556,0.999616826471166,0.000383173528833991,0.997505066354198,0.132889985245014,0.463662486820597,0.814713139519226,0.00249493364580167,0.00183183025504592,0.5,0.734220029509972,0.902955046217052,0.586369220544202,2.52582508887718,0.5,71.6601692912111
CBC_1013,CBC_1013_MSI_AV_v3_Vset3_Aset1_2023-06-23_16h50.00.877.csv,3,24,2,3,z,0,1,3,aud,D,63,1,2D,3D,0,1,b,2.48139860000083,1,0,0,0,2D,3D,D23,2.9704144655697,0.999336896609244,0.132889985245014,0.5,0.5,0.5,0.804682782624025,0.5,0.5,0.5,0.5,0.999336896609244,0.132889985245014,0.5,0.5,0.03531949635684,0.990612785300556,0.000346827217262719,0.999653172782737,0.03531949635684,0.990612785300556,0.0529924284188352,0.185929041232533,-0.03531949635684,-0.0259322816573965,0.5,0.734220029509972,0.902955046217052,0.586369220544202,2.52582508887718,0.5,71.6601692912111
CBC_1013,CBC_1013_MSI_AV_v3_Vset3_Aset1_2023-06-23_16h50.00.877.csv,3,25,2,0,b,1,0,1,aud,C,27,1,2C,0C,1,0,b,2.63205450000169,1,0,1,1,2C,0C,C20,3.68887945411394,0.999336896609244,0.132889985245014,0.5,0.5,0.5,0.804682782624025,0.5,0.5,0.5,0.5,0.999336896609244,0.132889985245014,0.5,0.5,0.00938721469944359,0.990612785300556,0.999336896609244,0.000663103390755704,0.999336896609244,0.5,0.201407363433067,0.815100420611481,0.000663103390755704,0.000486863791128815,0.5,0.734220029509972,0.902955046217052,0.586369220544202,2.52582508887718,0.5,71.6601692912111
CBC_1013,CBC_1013_MSI_AV_v3_Vset3_Aset1_2023-06-23_16h50.00.877.csv,3,26,0,1,b,1,0,2,aud,A,63,1,0A,1A,1,0,b,3.35273500000039,1,0,1,1,0A,1A,A01,2.32727770558442,0.999336896609244,0.132889985245014,0.5,0.5,0.5,0.804682782624025,0.5,0.5,0.5,0.5,0.999823760400373,0.132889985245014,0.5,0.5,0.00938721469944359,0.990612785300556,0.999898318202421,0.000101681797578856,0.999336896609244,0.132889985245014,0.101874565699063,0.814886066623225,0.000663103390755704,0.000486863791128815,0.5,0.734220029509972,0.902955046217052,0.586369220544202,2.52582508887718,0.5,71.6601692912111
CBC_1013,CBC_1013_MSI_AV_v3_Vset3_Aset1_2023-06-23_16h50.00.877.csv,3,27,1,3,b,1,0,0,aud,B,27,1,1B,3B,1,0,b,1.05382739999914,1,0,1,1,1B,3B,B13,3.04452243772342,0.999823760400373,0.132889985245014,0.5,0.5,0.5,0.804682782624025,0.5,0.5,0.5,0.5,0.999823760400373,0.132889985245014,0.5,0.5,0.00938721469944359,0.990612785300556,0.804682782624025,0.195317217375975,0.804682782624025,0.5,0.0675742553851197,0.710665676011799,0.195317217375975,0.143405813105594,0.5,0.734220029509972,0.902955046217052,0.586369220544202,2.52582508887718,0.5,71.6601692912111
CBC_1013,CBC_1013_MSI_AV_v3_Vset3_Aset1_2023-06-23_16h50.00.877.csv,3,28,3,2,z,0,1,1,aud,C,63,1,3C,2C,0,1,b,1.78966030000083,1,0,0,0,3C,2C,C32,2.37490575457367,0.999823760400373,0.132889985245014,0.5,0.5,0.5,0.948088595729619,0.5,0.5,0.5,0.5,0.999823760400373,0.132889985245014,0.5,0.5,0.00938721469944359,0.990612785300556,2.70138424767329e-05,0.999972986157523,0.132889985245014,0.999823760400373,0.100258295909601,0.185210921092607,-0.132889985245014,-0.0975704888881739,0.5,0.734220029509972,0.902955046217052,0.586369220544202,2.52582508887718,0.5,71.6601692912111
CBC_1013,CBC_1013_MSI_AV_v3_Vset3_Aset1_2023-06-23_16h50.00.877.csv,3,29,3,2,b,1,0,3,aud,D,63,1,3D,2D,1,0,b,2.38532430000123,1,0,1,1,3D,2D,D32,2.68557734525015,0.999823760400373,0.132889985245014,0.5,0.5,0.5,0.948088595729619,0.5,0.5,0.5,0.5,0.999823760400373,0.03531949635684,0.5,0.5,0.00938721469944359,0.990612785300556,0.999910210273817,8.97897261831204e-05,0.990612785300556,0.00938721469944359,0.254358546435671,0.815349179070336,0.00938721469944359,0.00689228105364192,0.5,0.734220029509972,0.902955046217052,0.586369220544202,2.52582508887718,0.5,71.6601692912111
CBC_1013,CBC_1013_MSI_AV_v3_Vset3_Aset1_2023-06-23_16h50.00.877.csv,3,30,0,1,z,0,1,0,aud,B,63,1,0B,1B,0,1,z,1.37549630000285,0,1,1,1,1B,0B,B01,2.70805020110221,0.999823760400373,0.132889985245014,0.5,0.5,0.5,0.948088595729619,0.5,0.5,0.5,0.5,0.999823760400373,0.03531949635684,0.5,0.5,0.00938721469944359,0.997505066354198,0.948088595729619,0.0519114042703809,0.948088595729619,0.5,0.521398621867501,0.790005314761509,0.0519114042703809,0.0381143927753031,0.5,0.734220029509972,0.902955046217052,0.586369220544202,2.52582508887718,0.5,71.6601692912111
CBC_1013,CBC_1013_MSI_AV_v3_Vset3_Aset1_2023-06-23_16h50.00.877.csv,3,31,2,0,z,0,1,2,aud,A,27,1,2A,0A,0,1,b,3.05689499999789,1,0,0,0,2A,0A,A20,3.13549421592915,0.999823760400373,0.132889985245014,0.5,0.5,0.5,0.986202988504922,0.5,0.5,0.5,0.5,0.999823760400373,0.03531949635684,0.5,0.5,0.00938721469944359,0.997505066354198,0.000176239599626871,0.999823760400373,0.5,0.999823760400373,0.0306074592228331,0.185086791425426,-0.5,-0.367110014754986,0.5,0.734220029509972,0.902955046217052,0.586369220544202,2.52582508887718,0.5,71.6601692912111
CBC_1013,CBC_1013_MSI_AV_v3_Vset3_Aset1_2023-06-23_16h50.00.877.csv,3,32,3,0,b,1,0,3,aud,D,9,1,3D,0D,1,0,b,3.61074789999839,1,0,1,1,3D,0D,D30,3.85014760171006,0.999823760400373,0.132889985245014,0.132889985245014,0.5,0.5,0.986202988504922,0.5,0.5,0.5,0.5,0.999823760400373,0.03531949635684,0.5,0.5,0.00938721469944359,0.997505066354198,0.997505066354198,0.00249493364580167,0.997505066354198,0.5,0.0798864535147698,0.813874083133469,0.00249493364580167,0.00183183025504592,0.5,0.734220029509972,0.902955046217052,0.586369220544202,2.52582508887718,0.5,71.6601692912111
CBC_1013,CBC_1013_MSI_AV_v3_Vset3_Aset1_2023-06-23_16h50.00.877.csv,3,33,3,2,z,0,1,1,aud,C,63,1,3C,2C,0,1,z,2.25690160000158,0,1,1,1,2C,3C,C32,2.26176309847379,0.999823760400373,0.132889985245014,0.132889985245014,0.5,0.5,0.986202988504922,0.5,0.5,0.5,0.5,0.999823760400373,0.03531949635684,0.5,0.5,0.00938721469944359,0.999336896609244,0.999993546307897,6.45369210327883e-06,0.999823760400373,0.03531949635684,0.2865785296238,0.813814094898852,0.000176239599626871,0.000129398644038867,0.5,0.734220029509972,0.902955046217052,0.586369220544202,2.52582508887718,0.5,71.6601692912111
CBC_1013,CBC_1013_MSI_AV_v3_Vset3_Aset1_2023-06-23_16h50.00.877.csv,3,34,0,1,z,0,1,0,aud,B,63,1,0B,1B,0,1,z,1.25709920000008,0,1,1,1,1B,0B,B01,2.50552593699074,0.999823760400373,0.132889985245014,0.132889985245014,0.5,0.5,0.986202988504922,0.5,0.5,0.5,0.5,0.999953159044412,0.03531949635684,0.5,0.5,0.00938721469944359,0.999336896609244,0.986202988504922,0.0137970114950777,0.986202988504922,0.5,0.487628432498119,0.808317189822429,0.0137970114950777,0.0101300421870654,0.5,0.734220029509972,0.902955046217052,0.586369220544202,2.52582508887718,0.5,71.6601692912111
CBC_1013,CBC_1013_MSI_AV_v3_Vset3_Aset1_2023-06-23_16h50.00.877.csv,3,35,0,1,b,1,0,2,aud,A,63,0,0A,1A,0,1,b,3.16199319999942,1,0,1,0,0A,1A,A01,2.30258509299405,0.999823760400373,0.132889985245014,0.132889985245014,0.5,0.5,0.996333030691988,0.5,0.5,0.5,0.5,0.999953159044412,0.03531949635684,0.5,0.5,0.00938721469944359,0.999336896609244,0.999972986157523,2.70138424767197e-05,0.999823760400373,0.132889985245014,0.122014147251422,0.81475961237553,-0.999823760400373,-0.734090630865933,0.5,0.734220029509972,0.902955046217052,0.586369220544202,2.52582508887718,0.5,71.6601692912111
CBC_1013,CBC_1013_MSI_AV_v3_Vset3_Aset1_2023-06-23_16h50.00.877.csv,3,36,2,3,z,0,1,3,aud,D,63,1,2D,3D,0,1,z,2.29431839999961,0,1,1,1,3D,2D,D23,2.83321334405622,0.26573312953444,0.132889985245014,0.132889985245014,0.5,0.5,0.996333030691988,0.5,0.5,0.5,0.5,0.999953159044412,0.03531949635684,0.5,0.5,0.00938721469944359,0.999336896609244,0.999993712189891,6.28781010925519e-06,0.999336896609244,0.00938721469944359,0.276937640567773,0.814630317780128,0.000663103390755704,0.000486863791128815,0.5,0.734220029509972,0.902955046217052,0.586369220544202,2.52582508887718,0.5,71.6601692912111
CBC_1013,CBC_1013_MSI_AV_v3_Vset3_Aset1_2023-06-23_16h50.00.877.csv,3,37,1,2,b,1,0,0,aud,B,9,1,1B,2B,1,0,b,1.34020719999899,1,0,1,1,1B,2B,B12,3.95124371858143,0.26573312953444,0.132889985245014,0.132889985245014,0.5,0.5,0.996333030691988,0.5,0.5,0.5,0.5,0.999953159044412,0.03531949635684,0.5,0.5,0.00938721469944359,0.999823760400373,0.996333030691988,0.00366696930801236,0.996333030691988,0.5,0.544892185212666,0.813196701174839,0.00366696930801236,0.002692362313541,0.5,0.734220029509972,0.902955046217052,0.586369220544202,2.52582508887718,0.5,71.6601692912111
CBC_1013,CBC_1013_MSI_AV_v3_Vset3_Aset1_2023-06-23_16h50.00.877.csv,3,38,2,0,z,0,1,2,aud,A,27,1,2A,0A,0,1,z,2.63005699999849,0,1,1,1,0A,2A,A20,2.87167962488401,0.26573312953444,0.132889985245014,0.132889985245014,0.5,0.5,0.999025393005529,0.5,0.5,0.5,0.5,0.999953159044412,0.03531949635684,0.5,0.5,0.00938721469944359,0.999823760400373,0.70250690990566,0.29749309009434,0.26573312953444,0.132889985245014,0.166453139640117,0.645712935666151,0.73426687046556,0.539113443301418,0.5,0.734220029509972,0.902955046217052,0.586369220544202,2.52582508887718,0.5,71.6601692912111
CBC_1013,CBC_1013_MSI_AV_v3_Vset3_Aset1_2023-06-23_16h50.00.877.csv,3,39,2,3,b,1,0,1,aud,C,63,1,2C,3C,1,0,b,1.51981490000253,1,0,1,1,2C,3C,C23,3.29583686600433,0.804846572835858,0.132889985245014,0.132889985245014,0.5,0.5,0.999025393005529,0.5,0.5,0.5,0.5,0.999953159044412,0.03531949635684,0.5,0.5,0.00938721469944359,0.999823760400373,0.999998284951739,1.715048260853e-06,0.999953159044412,0.03531949635684,0.537299096177102,0.81390965422395,4.68409555880456e-05,3.43915677941301e-05,0.5,0.734220029509972,0.902955046217052,0.586369220544202,2.52582508887718,0.5,71.6601692912111
CBC_1013,CBC_1013_MSI_AV_v3_Vset3_Aset1_2023-06-23_16h50.00.877.csv,3,40,1,3,z,0,1,3,aud,D,27,1,1D,3D,0,1,z,2.77609660000235,0,1,1,1,3D,1D,D13,3.31418600467253,0.804846572835858,0.132889985245014,0.132889985245014,0.5,0.5,0.999025393005529,0.5,0.5,0.5,0.5,0.999987550612206,0.03531949635684,0.5,0.5,0.00938721469944359,0.999823760400373,0.999823760400373,0.000176239599626871,0.999823760400373,0.5,0.175778652703283,0.815376757096588,0.000176239599626871,0.000129398644038867,0.5,0.734220029509972,0.902955046217052,0.586369220544202,2.52582508887718,0.5,71.6601692912111
CBC_1013,CBC_1013_MSI_AV_v3_Vset3_Aset1_2023-06-23_16h50.00.877.csv,3,41,0,1,b,1,0,2,aud,A,63,1,0A,1A,1,0,b,2.5527762999991,1,0,1,1,0A,1A,A01,2.23359222150709,0.804846572835858,0.132889985245014,0.132889985245014,0.5,0.5,0.999025393005529,0.5,0.5,0.5,0.5,0.999987550612206,0.03531949635684,0.5,0.5,0.00938721469944359,0.999953159044412,0.964170959258578,0.0358290407414222,0.804846572835858,0.132889985245014,0.214020385893222,0.798115662469315,0.195153427164142,0.143285555051428,0.5,0.734220029509972,0.902955046217052,0.586369220544202,2.52582508887718,0.5,71.6601692912111
CBC_1013,CBC_1013_MSI_AV_v3_Vset3_Aset1_2023-06-23_16h50.00.877.csv,3,42,0,2,z,0,1,1,aud,C,27,1,0C,2C,0,1,z,2.29615420000118,0,1,1,1,2C,0C,C02,3.3499040872746,0.948132127887287,0.132889985245014,0.132889985245014,0.5,0.5,0.999025393005529,0.5,0.5,0.5,0.5,0.999987550612206,0.03531949635684,0.5,0.5,0.00938721469944359,0.999953159044412,0.999987550612206,1.24493877938781e-05,0.999987550612206,0.5,0.276530883304367,0.814851974095006,1.24493877938781e-05,9.14058987340223e-06,0.5,0.734220029509972,0.902955046217052,0.586369220544202,2.52582508887718,0.5,71.6601692912111
CBC_1013,CBC_1013_MSI_AV_v3_Vset3_Aset1_2023-06-23_16h50.00.877.csv,3,43,3,2,b,1,0,3,aud,D,63,1,3D,2D,1,0,b,3.55162790000031,1,0,1,1,3D,2D,D32,2.67414864942653,0.948132127887287,0.132889985245014,0.132889985245014,0.5,0.5,0.999025393005529,0.5,0.5,0.5,0.5,0.99999669120208,0.03531949635684,0.5,0.5,0.00938721469944359,0.999953159044412,0.999999556106568,4.43893431789633e-07,0.999953159044412,0.00938721469944359,0.0843935251231516,0.815105504522054,4.68409555880456e-05,3.43915677941301e-05,0.5,0.734220029509972,0.902955046217052,0.586369220544202,2.52582508887718,0.5,71.6601692912111
CBC_1013,CBC_1013_MSI_AV_v3_Vset3_Aset1_2023-06-23_16h50.00.877.csv,3,44,1,0,b,1,0,0,aud,B,63,1,1B,0B,1,0,b,1.66608890000134,1,0,1,1,1B,0B,B10,2.97892515523761,0.948132127887287,0.132889985245014,0.132889985245014,0.5,0.5,0.999025393005529,0.5,0.5,0.5,0.5,0.99999669120208,0.03531949635684,0.5,0.5,0.00938721469944359,0.999987550612206,0.999025393005529,0.000974606994471383,0.999025393005529,0.5,0.488241146433765,0.814476963215336,0.000974606994471383,0.000715575976241404,0.5,0.734220029509972,0.902955046217052,0.586369220544202,2.52582508887718,0.5,71.6601692912111
CBC_1013,CBC_1013_MSI_TV_v3_Vset6_Tset3_2023-06-23_16h58.24.978.csv,4,1,1,0,z,0,1,2,tac,A,63,1,1A,0A,0,1,b,2.37187400000039,1,0,0,0,1A,0A,A10,2.77258872223978,0.5,0.5,0.5,0.5,0.5,0.5,0.5,0.5,0.5,0.5,0.5,0.5,0.5,0.5,0.5,0.5,0.5,0.5,0.5,0.5,0.182369548522118,0.499847578408068,-0.5,-0.00533433830414748,0.5,0.010668676608295,1.09931256507218,4.6552739853642,2.65461270498864,0.5,81.1312343947885
CBC_1013,CBC_1013_MSI_TV_v3_Vset6_Tset3_2023-06-23_16h58.24.978.csv,4,2,2,3,b,1,0,1,tac,C,63,1,2C,3C,1,0,b,2.41450840000107,1,0,1,1,2C,3C,C23,2.83321334405622,0.5,0.494665661695853,0.5,0.5,0.5,0.5,0.5,0.5,0.5,0.5,0.5,0.5,0.5,0.5,0.5,0.5,0.5,0.5,0.5,0.5,0.177191958674023,0.50011874527287,0.5,0.00533433830414748,0.5,0.010668676608295,1.09931256507218,4.6552739853642,2.65461270498864,0.5,81.1312343947885
CBC_1013,CBC_1013_MSI_TV_v3_Vset6_Tset3_2023-06-23_16h58.24.978.csv,4,3,2,0,z,0,1,2,tac,A,27,1,2A,0A,0,1,z,2.24328460000106,0,1,1,1,0A,2A,A20,2.89037175789616,0.5,0.494665661695853,0.5,0.5,0.5,0.5,0.5,0.5,0.5,0.5,0.505334338304148,0.5,0.5,0.5,0.5,0.5,0.5,0.5,0.5,0.5,0.198974088960086,0.499666712902138,0.5,0.00533433830414748,0.5,0.010668676608295,1.09931256507218,4.6552739853642,2.65461270498864,0.5,81.1312343947885
CBC_1013,CBC_1013_MSI_TV_v3_Vset6_Tset3_2023-06-23_16h58.24.978.csv,4,4,0,1,z,0,1,0,tac,B,63,1,0B,1B,0,1,b,2.45999289999963,1,0,0,0,0B,1B,B01,2.94443897916644,0.505334338304148,0.494665661695853,0.5,0.5,0.5,0.5,0.5,0.5,0.5,0.5,0.505334338304148,0.5,0.5,0.5,0.5,0.5,0.5,0.5,0.5,0.5,0.171839248431179,0.500494286037326,-0.5,-0.00533433830414748,0.5,0.010668676608295,1.09931256507218,4.6552739853642,2.65461270498864,0.5,81.1312343947885
CBC_1013,CBC_1013_MSI_TV_v3_Vset6_Tset3_2023-06-23_16h58.24.978.csv,4,5,1,0,b,1,0,0,tac,B,63,1,1B,0B,1,0,b,2.91645879999851,1,0,1,1,1B,0B,B10,2.99573227355399,0.505334338304148,0.494665661695853,0.5,0.5,0.494665661695853,0.5,0.5,0.5,0.5,0.5,0.505334338304148,0.5,0.5,0.5,0.5,0.5,0.505334338304148,0.494665661695852,0.5,0.494665661695853,0.132759398665596,0.531623560368879,0.5,0.00533433830414748,0.5,0.010668676608295,1.09931256507218,4.6552739853642,2.65461270498864,0.5,81.1312343947885
CBC_1013,CBC_1013_MSI_TV_v3_Vset6_Tset3_2023-06-23_16h58.24.978.csv,4,6,2,3,b,1,0,1,tac,C,63,1,2C,3C,1,0,z,2.50937169999816,0,1,0,0,3C,2C,C23,2.35137525716348,0.505334338304148,0.494665661695853,0.5,0.5,0.494665661695853,0.505334338304148,0.5,0.5,0.5,0.5,0.505334338304148,0.5,0.5,0.5,0.5,0.5,0.494665661695852,0.505334338304148,0.5,0.505334338304148,0.154901522786781,0.466662636318047,-0.5,-0.00533433830414748,0.5,0.010668676608295,1.09931256507218,4.6552739853642,2.65461270498864,0.5,81.1312343947885
CBC_1013,CBC_1013_MSI_TV_v3_Vset6_Tset3_2023-06-23_16h58.24.978.csv,4,7,1,3,z,0,1,3,tac,D,27,1,1D,3D,0,1,b,3.73350760000176,1,0,0,0,1D,3D,D13,3.09104245335832,0.505334338304148,0.494665661695853,0.5,0.5,0.494665661695853,0.505334338304148,0.5,0.5,0.5,0.5,0.505334338304148,0.494665661695853,0.5,0.5,0.5,0.5,0.5,0.5,0.5,0.5,0.0704855503488337,0.500088544083337,-0.5,-0.00533433830414748,0.5,0.010668676608295,1.09931256507218,4.6552739853642,2.65461270498864,0.5,81.1312343947885
CBC_1013,CBC_1013_MSI_TV_v3_Vset6_Tset3_2023-06-23_16h58.24.978.csv,4,8,2,1,b,1,0,1,tac,C,9,1,2C,1C,1,0,z,3.20131149999725,0,1,0,0,1C,2C,C21,3.13549421592915,0.505334338304148,0.494665661695853,0.5,0.5,0.494665661695853,0.505334338304148,0.5,0.5,0.5,0.5,0.505334338304148,0.494665661695853,0.5,0.494665661695853,0.5,0.5,0.494665661695852,0.505334338304148,0.5,0.505334338304148,0.0955303447305724,0.467117633996968,-0.5,-0.00533433830414748,0.5,0.010668676608295,1.09931256507218,4.6552739853642,2.65461270498864,0.5,81.1312343947885
CBC_1013,CBC_1013_MSI_TV_v3_Vset6_Tset3_2023-06-23_16h58.24.978.csv,4,9,1,3,b,1,0,0,tac,B,27,1,1B,3B,1,0,b,3.886256400001,1,0,1,1,1B,3B,B13,3.17805383034795,0.505334338304148,0.494665661695853,0.5,0.5,0.494665661695853,0.505334338304148,0.5,0.5,0.5,0.494665661695853,0.505334338304148,0.494665661695853,0.5,0.494665661695853,0.5,0.5,0.505334338304148,0.494665661695852,0.505334338304148,0.5,0.0673456230416983,0.532406727927602,0.494665661695852,0.00527742797386129,0.5,0.010668676608295,1.09931256507218,4.6552739853642,2.65461270498864,0.5,81.1312343947885
CBC_1013,CBC_1013_MSI_TV_v3_Vset6_Tset3_2023-06-23_16h58.24.978.csv,4,10,2,3,z,0,1,3,tac,D,63,1,2D,3D,0,1,b,3.80491299999994,1,0,0,0,2D,3D,D23,3.2188758248682,0.505334338304148,0.494665661695853,0.5,0.5,0.494665661695853,0.510611766278009,0.5,0.5,0.5,0.494665661695853,0.505334338304148,0.494665661695853,0.5,0.494665661695853,0.5,0.5,0.5,0.5,0.5,0.5,0.0669374938083391,0.499266568003461,-0.5,-0.00533433830414748,0.5,0.010668676608295,1.09931256507218,4.6552739853642,2.65461270498864,0.5,81.1312343947885
CBC_1013,CBC_1013_MSI_TV_v3_Vset6_Tset3_2023-06-23_16h58.24.978.csv,4,11,0,1,z,0,1,0,tac,B,63,1,0B,1B,0,1,z,2.57575649999853,0,1,1,1,1B,0B,B01,2.56494935746154,0.505334338304148,0.494665661695853,0.5,0.5,0.494665661695853,0.510611766278009,0.5,0.5,0.5,0.494665661695853,0.505334338304148,0.494665661695853,0.5,0.494665661695853,0.494665661695853,0.5,0.515942494770808,0.484057505229192,0.510611766278009,0.494665661695853,0.189271935599255,0.595656914549413,0.489388233721991,0.00522112480148459,0.5,0.010668676608295,1.09931256507218,4.6552739853642,2.65461270498864,0.5,81.1312343947885
CBC_1013,CBC_1013_MSI_TV_v3_Vset6_Tset3_2023-06-23_16h58.24.978.csv,4,12,2,0,b,1,0,1,tac,C,27,1,2C,0C,1,0,z,2.42411260000154,0,1,0,0,0C,2C,C20,3.29583686600433,0.505334338304148,0.494665661695853,0.5,0.5,0.494665661695853,0.515832891079493,0.5,0.5,0.5,0.494665661695853,0.505334338304148,0.494665661695853,0.5,0.494665661695853,0.494665661695853,0.5,0.494665661695852,0.505334338304148,0.5,0.505334338304148,0.164611360831636,0.467453553174675,-0.5,-0.00533433830414748,0.5,0.010668676608295,1.09931256507218,4.6552739853642,2.65461270498864,0.5,81.1312343947885
CBC_1013,CBC_1013_MSI_TV_v3_Vset6_Tset3_2023-06-23_16h58.24.978.csv,4,13,2,3,z,0,1,3,tac,D,63,0,2D,3D,1,0,b,2.9585905999993,1,0,0,1,2D,3D,D23,2.63905732961526,0.505334338304148,0.494665661695853,0.5,0.5,0.494665661695853,0.515832891079493,0.5,0.5,0.494665661695853,0.494665661695853,0.505334338304148,0.494665661695853,0.5,0.494665661695853,0.494665661695853,0.5,0.494665661695853,0.505334338304148,0.494665661695853,0.5,0.113285551022243,0.467240898155921,0.505334338304148,0.00539124863443367,0.5,0.010668676608295,1.09931256507218,4.6552739853642,2.65461270498864,0.5,81.1312343947885
CBC_1013,CBC_1013_MSI_TV_v3_Vset6_Tset3_2023-06-23_16h58.24.978.csv,4,14,0,1,b,1,0,2,tac,A,63,1,0A,1A,1,0,b,1.98090519999823,1,0,1,1,0A,1A,A01,3.36729582998647,0.505334338304148,0.494665661695853,0.5,0.5,0.494665661695853,0.515832891079493,0.5,0.5,0.494665661695853,0.494665661695853,0.505334338304148,0.494665661695853,0.5,0.494665661695853,0.500056910330286,0.5,0.510667462430675,0.489332537569325,0.505334338304148,0.494665661695853,0.266957464893258,0.564902767884596,0.494665661695852,0.00527742797386129,0.5,0.010668676608295,1.09931256507218,4.6552739853642,2.65461270498864,0.5,81.1312343947885
CBC_1013,CBC_1013_MSI_TV_v3_Vset6_Tset3_2023-06-23_16h58.24.978.csv,4,15,3,2,z,0,1,1,tac,C,63,1,3C,2C,0,1,z,3.48404300000038,0,1,1,1,2C,3C,C32,3.40119738166216,0.510611766278009,0.494665661695853,0.5,0.5,0.494665661695853,0.515832891079493,0.5,0.5,0.494665661695853,0.494665661695853,0.505334338304148,0.494665661695853,0.5,0.494665661695853,0.500056910330286,0.5,0.510667462430675,0.489332537569325,0.505334338304148,0.494665661695853,0.0945306512351131,0.56489997641611,0.494665661695852,0.00527742797386129,0.5,0.010668676608295,1.09931256507218,4.6552739853642,2.65461270498864,0.5,81.1312343947885
CBC_1013,CBC_1013_MSI_TV_v3_Vset6_Tset3_2023-06-23_16h58.24.978.csv,4,16,2,0,z,0,1,2,tac,A,27,1,2A,0A,0,1,z,2.38295629999993,0,1,1,1,0A,2A,A20,2.7408400239252,0.510611766278009,0.494665661695853,0.5,0.5,0.494665661695853,0.515832891079493,0.5,0.5,0.494665661695853,0.494665661695853,0.510611766278009,0.494665661695853,0.5,0.494665661695853,0.500056910330286,0.5,0.510611766278009,0.489388233721991,0.510611766278009,0.5,0.205074039961113,0.565072775517424,0.489388233721991,0.00522112480148459,0.5,0.010668676608295,1.09931256507218,4.6552739853642,2.65461270498864,0.5,81.1312343947885
CBC_1013,CBC_1013_MSI_TV_v3_Vset6_Tset3_2023-06-23_16h58.24.978.csv,4,17,3,2,b,1,0,3,tac,D,63,1,3D,2D,1,0,b,1.82062470000164,1,0,1,1,3D,2D,D32,3.46573590279973,0.515832891079493,0.494665661695853,0.5,0.5,0.494665661695853,0.515832891079493,0.5,0.5,0.494665661695853,0.494665661695853,0.510611766278009,0.494665661695853,0.5,0.494665661695853,0.500056910330286,0.5,0.499943089669714,0.500056910330286,0.5,0.500056910330286,0.254856336040363,0.500042349160037,0.5,0.00533433830414748,0.5,0.010668676608295,1.09931256507218,4.6552739853642,2.65461270498864,0.5,81.1312343947885
CBC_1013,CBC_1013_MSI_TV_v3_Vset6_Tset3_2023-06-23_16h58.24.978.csv,4,18,2,3,z,0,1,3,tac,D,63,1,2D,3D,0,1,z,1.90730189999886,0,1,1,1,3D,2D,D23,2.39789527279837,0.515832891079493,0.494665661695853,0.5,0.5,0.494665661695853,0.515832891079493,0.5,0.5,0.494665661695853,0.494665661695853,0.510611766278009,0.494665661695853,0.5,0.494665661695853,0.500056910330286,0.505334338304148,0.505277434382333,0.494722565617667,0.505334338304148,0.500056910330286,0.26087038655363,0.531892537491867,0.494665661695852,0.00527742797386129,0.5,0.010668676608295,1.09931256507218,4.6552739853642,2.65461270498864,0.5,81.1312343947885
CBC_1013,CBC_1013_MSI_TV_v3_Vset6_Tset3_2023-06-23_16h58.24.978.csv,4,19,1,3,b,1,0,0,tac,B,27,1,1B,3B,1,0,z,3.13693559999956,0,1,0,0,3B,1B,B13,2.83321334405622,0.515832891079493,0.494665661695853,0.5,0.5,0.494665661695853,0.515832891079493,0.5,0.5,0.494665661695853,0.494665661695853,0.510611766278009,0.494665661695853,0.5,0.494665661695853,0.500056910330286,0.510611766278009,0.484167108920507,0.515832891079493,0.5,0.515832891079493,0.0859420880695101,0.402815406478064,-0.5,-0.00533433830414748,0.5,0.010668676608295,1.09931256507218,4.6552739853642,2.65461270498864,0.5,81.1312343947885
CBC_1013,CBC_1013_MSI_TV_v3_Vset6_Tset3_2023-06-23_16h58.24.978.csv,4,20,3,0,b,1,0,3,tac,D,9,1,3D,0D,1,0,b,3.14860409999892,1,0,1,1,3D,0D,D30,3.55534806148941,0.515832891079493,0.494665661695853,0.5,0.5,0.494665661695853,0.515832891079493,0.5,0.494665661695853,0.494665661695853,0.494665661695853,0.510611766278009,0.494665661695853,0.5,0.494665661695853,0.500056910330286,0.510611766278009,0.510611766278009,0.489388233721991,0.510611766278009,0.5,0.119809040904411,0.565178408941422,0.489388233721991,0.00522112480148459,0.5,0.010668676608295,1.09931256507218,4.6552739853642,2.65461270498864,0.5,81.1312343947885
CBC_1013,CBC_1013_MSI_TV_v3_Vset6_Tset3_2023-06-23_16h58.24.978.csv,4,21,0,1,z,0,1,0,tac,B,63,1,0B,1B,0,1,b,2.87806759999876,1,0,0,0,0B,1B,B01,2.484906649788,0.515832891079493,0.494665661695853,0.5,0.5,0.494665661695853,0.515832891079493,0.5,0.494665661695853,0.494665661695853,0.494665661695853,0.510611766278009,0.494665661695853,0.5,0.494665661695853,0.500056910330286,0.515832891079493,0.478839919168562,0.521160080831438,0.494665661695853,0.515832891079493,0.0956874582870116,0.373253000076438,-0.494665661695853,-0.00527742797386129,0.5,0.010668676608295,1.09931256507218,4.6552739853642,2.65461270498864,0.5,81.1312343947885
CBC_1013,CBC_1013_MSI_TV_v3_Vset6_Tset3_2023-06-23_16h58.24.978.csv,4,22,0,1,b,1,0,2,tac,A,63,1,0A,1A,1,0,b,2.21671330000027,1,0,1,1,0A,1A,A01,2.91777073208428,0.515832891079493,0.494665661695853,0.5,0.5,0.489388233721991,0.515832891079493,0.5,0.494665661695853,0.494665661695853,0.494665661695853,0.510611766278009,0.494665661695853,0.5,0.494665661695853,0.500056910330286,0.515832891079493,0.521160080831438,0.478839919168562,0.515832891079493,0.494665661695853,0.257983147751936,0.628649820816716,0.484167108920507,0.005165422309446,0.5,0.010668676608295,1.09931256507218,4.6552739853642,2.65461270498864,0.5,81.1312343947885
CBC_1013,CBC_1013_MSI_TV_v3_Vset6_Tset3_2023-06-23_16h58.24.978.csv,4,23,3,2,z,0,1,1,tac,C,63,1,3C,2C,0,1,z,2.65937549999944,0,1,1,1,2C,3C,C32,2.94443897916644,0.52099831338894,0.494665661695853,0.5,0.5,0.489388233721991,0.515832891079493,0.5,0.494665661695853,0.494665661695853,0.494665661695853,0.510611766278009,0.494665661695853,0.5,0.494665661695853,0.500056910330286,0.515832891079493,0.515942494770808,0.484057505229192,0.510611766278009,0.494665661695853,0.17905532017142,0.597793668039753,0.489388233721991,0.00522112480148459,0.5,0.010668676608295,1.09931256507218,4.6552739853642,2.65461270498864,0.5,81.1312343947885
CBC_1013,CBC_1013_MSI_TV_v3_Vset6_Tset3_2023-06-23_16h58.24.978.csv,4,24,2,0,z,0,1,2,tac,A,27,1,2A,0A,0,1,b,2.58903350000037,1,0,0,0,2A,0A,A20,2.56494935746154,0.52099831338894,0.494665661695853,0.5,0.5,0.489388233721991,0.515832891079493,0.5,0.494665661695853,0.494665661695853,0.494665661695853,0.515832891079493,0.494665661695853,0.5,0.494665661695853,0.500056910330286,0.515832891079493,0.47900168661106,0.52099831338894,0.5,0.52099831338894,0.117492380262644,0.37246556105044,-0.5,-0.00533433830414748,0.5,0.010668676608295,1.09931256507218,4.6552739853642,2.65461270498864,0.5,81.1312343947885
CBC_1013,CBC_1013_MSI_TV_v3_Vset6_Tset3_2023-06-23_16h58.24.978.csv,4,25,0,1,z,0,1,0,tac,B,63,1,0B,1B,0,1,z,2.5290657000005,0,1,1,1,1B,0B,B01,2.30258509299405,0.52099831338894,0.494665661695853,0.494665661695853,0.5,0.489388233721991,0.515832891079493,0.5,0.494665661695853,0.494665661695853,0.494665661695853,0.515832891079493,0.494665661695853,0.5,0.494665661695853,0.500056910330286,0.515832891079493,0.52642689690355,0.47357310309645,0.515832891079493,0.489388233721991,0.217015779739528,0.657106872261337,0.484167108920507,0.005165422309446,0.5,0.010668676608295,1.09931256507218,4.6552739853642,2.65461270498864,0.5,81.1312343947885
CBC_1013,CBC_1013_MSI_TV_v3_Vset6_Tset3_2023-06-23_16h58.24.978.csv,4,26,3,2,b,1,0,3,tac,D,63,1,3D,2D,1,0,b,1.78953729999921,1,0,1,1,3D,2D,D32,3.02042488614436,0.52099831338894,0.494665661695853,0.494665661695853,0.5,0.489388233721991,0.52099831338894,0.5,0.494665661695853,0.494665661695853,0.494665661695853,0.515832891079493,0.494665661695853,0.5,0.494665661695853,0.500056910330286,0.515832891079493,0.515776037609521,0.484223962390479,0.515832891079493,0.500056910330286,0.310772207545293,0.596154023788395,0.484167108920507,0.005165422309446,0.5,0.010668676608295,1.09931256507218,4.6552739853642,2.65461270498864,0.5,81.1312343947885
CBC_1013,CBC_1013_MSI_TV_v3_Vset6_Tset3_2023-06-23_16h58.24.978.csv,4,27,2,1,z,0,1,0,tac,B,9,1,2B,1B,0,1,z,2.99107519999961,0,1,1,1,1B,2B,B21,3.73766961828337,0.52099831338894,0.494665661695853,0.494665661695853,0.5,0.489388233721991,0.52099831338894,0.5,0.494665661695853,0.494665661695853,0.494665661695853,0.515832891079493,0.494665661695853,0.5,0.494665661695853,0.500056910330286,0.52099831338894,0.52099831338894,0.47900168661106,0.52099831338894,0.5,0.148117700686274,0.626654547806023,0.47900168661106,0.00511031408928125,0.5,0.010668676608295,1.09931256507218,4.6552739853642,2.65461270498864,0.5,81.1312343947885
CBC_1013,CBC_1013_MSI_TV_v3_Vset6_Tset3_2023-06-23_16h58.24.978.csv,4,28,3,1,b,1,0,3,tac,D,27,1,3D,1D,1,0,b,1.58636819999811,1,0,1,1,3D,1D,D31,3.76120011569356,0.52099831338894,0.494665661695853,0.494665661695853,0.5,0.489388233721991,0.526108627478221,0.5,0.494665661695853,0.494665661695853,0.494665661695853,0.515832891079493,0.494665661695853,0.5,0.494665661695853,0.500056910330286,0.52099831338894,0.526320858673689,0.473679141326311,0.52099831338894,0.494665661695853,0.347939139642647,0.656594275997123,0.47900168661106,0.00511031408928125,0.5,0.010668676608295,1.09931256507218,4.6552739853642,2.65461270498864,0.5,81.1312343947885
CBC_1013,CBC_1013_MSI_TV_v3_Vset6_Tset3_2023-06-23_16h58.24.978.csv,4,29,0,1,b,1,0,2,tac,A,63,1,0A,1A,1,0,b,2.16656610000064,1,0,1,1,0A,1A,A01,2.68557734525015,0.52099831338894,0.494665661695853,0.494665661695853,0.5,0.489388233721991,0.526108627478221,0.5,0.494665661695853,0.494665661695853,0.494665661695853,0.515832891079493,0.494665661695853,0.5,0.494665661695853,0.500056910330286,0.526108627478221,0.526320858673689,0.473679141326311,0.52099831338894,0.494665661695853,0.28062086163948,0.656506912301103,0.47900168661106,0.00511031408928125,0.5,0.010668676608295,1.09931256507218,4.6552739853642,2.65461270498864,0.5,81.1312343947885
CBC_1013,CBC_1013_MSI_TV_v3_Vset6_Tset3_2023-06-23_16h58.24.978.csv,4,30,1,0,z,0,1,2,tac,A,63,1,1A,0A,0,1,z,2.23418680000032,0,1,1,1,0A,1A,A10,3.11351530921037,0.526108627478221,0.494665661695853,0.494665661695853,0.5,0.489388233721991,0.526108627478221,0.5,0.494665661695853,0.494665661695853,0.494665661695853,0.515832891079493,0.494665661695853,0.5,0.494665661695853,0.500056910330286,0.526108627478221,0.531425459004632,0.468574540995368,0.526108627478221,0.494665661695853,0.28142276099328,0.685044122260479,0.473891372521779,0.0050557938008959,0.5,0.010668676608295,1.09931256507218,4.6552739853642,2.65461270498864,0.5,81.1312343947885
CBC_1013,CBC_1013_MSI_TV_v3_Vset6_Tset3_2023-06-23_16h58.24.978.csv,4,31,2,0,b,1,0,1,tac,C,27,1,2C,0C,1,0,z,2.36062320000201,0,1,0,0,0C,2C,C20,3.13549421592915,0.531164421279117,0.494665661695853,0.494665661695853,0.5,0.489388233721991,0.526108627478221,0.5,0.494665661695853,0.494665661695853,0.494665661695853,0.515832891079493,0.494665661695853,0.5,0.494665661695853,0.500056910330286,0.526108627478221,0.478839919168562,0.521160080831438,0.494665661695853,0.515832891079493,0.138620867558742,0.373594028233876,-0.494665661695853,-0.00527742797386129,0.5,0.010668676608295,1.09931256507218,4.6552739853642,2.65461270498864,0.5,81.1312343947885
CBC_1013,CBC_1013_MSI_TV_v3_Vset6_Tset3_2023-06-23_16h58.24.978.csv,4,32,0,1,b,1,0,2,tac,A,63,1,0A,1A,1,0,b,2.64808189999894,1,0,1,1,0A,1A,A01,2.46385324059017,0.531164421279117,0.494665661695853,0.494665661695853,0.5,0.489388233721991,0.526108627478221,0.5,0.494665661695853,0.489388233721991,0.494665661695853,0.515832891079493,0.494665661695853,0.5,0.494665661695853,0.500056910330286,0.526108627478221,0.536474505267742,0.463525494732258,0.531164421279117,0.494665661695853,0.216213820515998,0.711264785862525,0.468835578720883,0.00500185517183592,0.5,0.010668676608295,1.09931256507218,4.6552739853642,2.65461270498864,0.5,81.1312343947885
CBC_1013,CBC_1013_MSI_TV_v3_Vset6_Tset3_2023-06-23_16h58.24.978.csv,4,33,0,1,z,0,1,0,tac,B,63,1,0B,1B,0,1,z,1.74986910000007,0,1,1,1,1B,0B,B01,2.26176309847379,0.536166276450953,0.494665661695853,0.494665661695853,0.5,0.489388233721991,0.526108627478221,0.5,0.494665661695853,0.489388233721991,0.494665661695853,0.515832891079493,0.494665661695853,0.5,0.494665661695853,0.500056910330286,0.526108627478221,0.536679743994429,0.463320256005571,0.526108627478221,0.489388233721991,0.393530762342474,0.710838577771224,0.473891372521779,0.0050557938008959,0.5,0.010668676608295,1.09931256507218,4.6552739853642,2.65461270498864,0.5,81.1312343947885
CBC_1013,CBC_1013_MSI_TV_v3_Vset6_Tset3_2023-06-23_16h58.24.978.csv,4,34,2,3,z,0,1,3,tac,D,63,1,2D,3D,0,1,z,1.42010609999852,0,1,1,1,3D,2D,D23,2.50552593699074,0.536166276450953,0.494665661695853,0.494665661695853,0.5,0.489388233721991,0.531164421279117,0.5,0.494665661695853,0.489388233721991,0.494665661695853,0.515832891079493,0.494665661695853,0.5,0.494665661695853,0.500056910330286,0.526108627478221,0.526051871984694,0.473948128015306,0.526108627478221,0.500056910330286,0.255639934595571,0.655521801095863,0.473891372521779,0.0050557938008959,0.5,0.010668676608295,1.09931256507218,4.6552739853642,2.65461270498864,0.5,81.1312343947885
CBC_1013,CBC_1013_MSI_TV_v3_Vset6_Tset3_2023-06-23_16h58.24.978.csv,4,35,1,3,b,1,0,0,tac,B,27,1,1B,3B,1,0,b,2.56848209999953,1,0,1,1,1B,3B,B13,2.81341071676004,0.536166276450953,0.494665661695853,0.494665661695853,0.5,0.489388233721991,0.531164421279117,0.5,0.494665661695853,0.489388233721991,0.494665661695853,0.515832891079493,0.494665661695853,0.5,0.494665661695853,0.500056910330286,0.531164421279117,0.536474505267742,0.463525494732258,0.531164421279117,0.494665661695853,0.229659851834441,0.711453859155882,0.468835578720883,0.00500185517183592,0.5,0.010668676608295,1.09931256507218,4.6552739853642,2.65461270498864,0.5,81.1312343947885
CBC_1013,CBC_1013_MSI_TV_v3_Vset6_Tset3_2023-06-23_16h58.24.978.csv,4,36,2,3,b,1,0,1,tac,C,63,1,2C,3C,1,0,z,2.4832994999997,0,1,0,0,3C,2C,C23,2.83321334405622,0.536166276450953,0.494665661695853,0.494665661695853,0.5,0.489388233721991,0.536166276450953,0.5,0.494665661695853,0.489388233721991,0.494665661695853,0.515832891079493,0.494665661695853,0.5,0.494665661695853,0.500056910330286,0.531164421279117,0.478839919168562,0.521160080831438,0.494665661695853,0.515832891079493,0.126436136419964,0.371634572198845,-0.494665661695853,-0.00527742797386129,0.5,0.010668676608295,1.09931256507218,4.6552739853642,2.65461270498864,0.5,81.1312343947885
CBC_1013,CBC_1013_MSI_TV_v3_Vset6_Tset3_2023-06-23_16h58.24.978.csv,4,37,0,2,z,0,1,1,tac,C,27,1,0C,2C,0,1,b,2.59901070000342,1,0,0,0,0C,2C,C02,3.95124371858143,0.536166276450953,0.494665661695853,0.494665661695853,0.5,0.489388233721991,0.536166276450953,0.5,0.494665661695853,0.489388233721991,0.494665661695853,0.515832891079493,0.489388233721991,0.5,0.494665661695853,0.500056910330286,0.531164421279117,0.47357310309645,0.52642689690355,0.489388233721991,0.515832891079493,0.107410993536314,0.342144694856004,-0.489388233721991,-0.00522112480148459,0.5,0.010668676608295,1.09931256507218,4.6552739853642,2.65461270498864,0.5,81.1312343947885
CBC_1013,CBC_1013_MSI_TV_v3_Vset6_Tset3_2023-06-23_16h58.24.978.csv,4,38,0,1,z,0,1,0,tac,B,63,1,0B,1B,0,1,z,3.78044080000109,0,1,1,1,1B,0B,B01,2.17853244432407,0.536166276450953,0.494665661695853,0.494665661695853,0.5,0.489388233721991,0.536166276450953,0.5,0.494665661695853,0.484167108920507,0.494665661695853,0.515832891079493,0.489388233721991,0.5,0.494665661695853,0.500056910330286,0.531164421279117,0.546706341381967,0.453293658618033,0.536166276450953,0.489388233721991,0.0942248274726664,0.759224496034624,0.463833723549047,0.00494849199656607,0.5,0.010668676608295,1.09931256507218,4.6552739853642,2.65461270498864,0.5,81.1312343947885
CBC_1013,CBC_1013_MSI_TV_v3_Vset6_Tset3_2023-06-23_16h58.24.978.csv,4,39,0,3,b,1,0,2,tac,A,9,1,0A,3A,1,0,b,2.29764199999772,1,0,1,1,0A,3A,A03,3.98898404656427,0.536166276450953,0.494665661695853,0.494665661695853,0.5,0.489388233721991,0.541114768447519,0.5,0.494665661695853,0.484167108920507,0.494665661695853,0.515832891079493,0.489388233721991,0.5,0.494665661695853,0.500056910330286,0.531164421279117,0.536166276450953,0.463833723549047,0.536166276450953,0.5,0.280207398569839,0.709363026262298,0.463833723549047,0.00494849199656607,0.5,0.010668676608295,1.09931256507218,4.6552739853642,2.65461270498864,0.5,81.1312343947885
CBC_1013,CBC_1013_MSI_TV_v3_Vset6_Tset3_2023-06-23_16h58.24.978.csv,4,40,2,3,b,1,0,1,tac,C,63,0,2C,3C,0,1,z,2.3790966000015,0,1,0,1,3C,2C,C23,2.62103882411258,0.541114768447519,0.494665661695853,0.494665661695853,0.5,0.489388233721991,0.541114768447519,0.5,0.494665661695853,0.484167108920507,0.494665661695853,0.515832891079493,0.489388233721991,0.5,0.494665661695853,0.500056910330286,0.531164421279117,0.47357310309645,0.52642689690355,0.489388233721991,0.515832891079493,0.125750590322047,0.341638332631684,0.510611766278009,0.00544755180681036,0.5,0.010668676608295,1.09931256507218,4.6552739853642,2.65461270498864,0.5,81.1312343947885
CBC_1013,CBC_1013_MSI_TV_v3_Vset6_Tset3_2023-06-23_16h58.24.978.csv,4,41,0,1,b,1,0,2,tac,A,63,1,0A,1A,1,0,z,2.34778740000183,0,1,0,0,1A,0A,A01,2.41591377830105,0.541114768447519,0.494665661695853,0.494665661695853,0.5,0.489388233721991,0.541114768447519,0.5,0.494665661695853,0.484167108920507,0.494665661695853,0.515832891079493,0.494835785528802,0.5,0.494665661695853,0.500056910330286,0.531164421279117,0.453591606419484,0.546408393580516,0.494665661695853,0.541114768447519,0.0928925247880151,0.240679783862963,-0.494665661695853,-0.00527742797386129,0.5,0.010668676608295,1.09931256507218,4.6552739853642,2.65461270498864,0.5,81.1312343947885
CBC_1013,CBC_1013_MSI_TV_v3_Vset6_Tset3_2023-06-23_16h58.24.978.csv,4,42,2,3,z,0,1,3,tac,D,63,1,2D,3D,0,1,z,2.43028929999855,0,1,1,1,3D,2D,D23,2.43361335540045,0.541114768447519,0.489388233721991,0.494665661695853,0.5,0.489388233721991,0.541114768447519,0.5,0.494665661695853,0.484167108920507,0.494665661695853,0.515832891079493,0.494835785528802,0.5,0.494665661695853,0.500056910330286,0.531164421279117,0.531107731636723,0.468892268363277,0.531164421279117,0.500056910330286,0.243160687695807,0.682671868910253,0.468835578720883,0.00500185517183592,0.5,0.010668676608295,1.09931256507218,4.6552739853642,2.65461270498864,0.5,81.1312343947885
CBC_1013,CBC_1013_MSI_TV_v3_Vset6_Tset3_2023-06-23_16h58.24.978.csv,4,43,3,2,z,0,1,1,tac,C,63,1,3C,2C,0,1,b,2.79549469999984,1,0,0,0,3C,2C,C32,2.96183072187831,0.541114768447519,0.489388233721991,0.494665661695853,0.5,0.489388233721991,0.541114768447519,0.5,0.494665661695853,0.484167108920507,0.494665661695853,0.515832891079493,0.494835785528802,0.5,0.494665661695853,0.500056910330286,0.536166276450953,0.479009759470797,0.520990240529203,0.494835785528802,0.515832891079493,0.10145476396595,0.372957835444993,-0.494835785528802,-0.00527924297001839,0.5,0.010668676608295,1.09931256507218,4.6552739853642,2.65461270498864,0.5,81.1312343947885
CBC_1013,CBC_1013_MSI_TV_v3_Vset6_Tset3_2023-06-23_16h58.24.978.csv,4,44,3,1,b,1,0,3,tac,D,27,1,3D,1D,1,0,z,2.95037050000246,0,1,0,0,1D,3D,D31,3.38439026334577,0.541114768447519,0.489388233721991,0.494665661695853,0.5,0.489388233721991,0.541114768447519,0.5,0.494665661695853,0.484167108920507,0.494665661695853,0.515832891079493,0.489556542558783,0.5,0.494665661695853,0.500056910330286,0.536166276450953,0.458531386267878,0.541468613732122,0.494665661695853,0.536166276450953,0.0637009839074404,0.264342412427786,-0.494665661695853,-0.00527742797386129,0.5,0.010668676608295,1.09931256507218,4.6552739853642,2.65461270498864,0.5,81.1312343947885
