ID,session,trialNr,mod2Stim,visStimLeft,visStimRight,correctKey,frequency,rewardAccurate,probFB,stimPairLeft,stimPairRight,leftCorrect,rightCorrect,pCorrectLeft,pCorrectRight,triplet,rt,surprise,0A belief,1A belief,2A belief,3A belief,0B belief,1B belief,2B belief,3B belief,0C belief,1C belief,2C belief,3C belief,0D belief,1D belief,2D belief,3D belief,reactionTime,choice,choiceLeft,choiceRight,chosenPair,otherPair,beliefPair,beliefOtherPair,beliefPairNorm,beliefOtherPairNorm,choiceAccurate,reward,rewardPE,update2,sim_CBCsimpleRW_CBCdriftDiffusionLR_startBelief,sim_CBCsimpleRW_CBCdriftDiffusionLR_alpha1,sim_CBCsimpleRW_CBCdriftDiffusionLR_nonDecisionTime,sim_CBCsimpleRW_CBCdriftDiffusionLR_weight,sim_CBCsimpleRW_CBCdriftDiffusionLR_startingBoundary,sim_CBCsimpleRW_CBCdriftDiffusionLR_startingPoint,lik,corrLik,fitCBCsimpleRW_CBCdriftDiffusionLR_startBelief,fitCBCsimpleRW_CBCdriftDiffusionLR_alpha1,fitCBCsimpleRW_CBCdriftDiffusionLR_nonDecisionTime,fitCBCsimpleRW_CBCdriftDiffusionLR_weight,fitCBCsimpleRW_CBCdriftDiffusionLR_startingBoundary,fitCBCsimpleRW_CBCdriftDiffusionLR_startingPoint,fit_CBCsimpleRW_CBCdriftDiffusionLR_NLL
120,1,1,C,2,0,a,27,1,0.95,2C,0C,1,0,1,0,C20,2.5954901431015,2.77258872223978,0.5,0.5,0.5,0.5,0.5,0.5,0.5,0.5,0.5,0.5,0.5,0.5,0.5,0.5,0.5,0.5,1.24121332453586,0,0,1,0C,2C,0.5,0.5,0.5,0.5,0,0,-0.5,-0.243891809710225,0.5,0.436902077121208,0.945213324535864,13.3943366928,1.56611485804388,0.5,0.57886403374792,0.500346631495708,0.5,0.48778361942045,0.939586836115793,14.8889841910426,1.77629530026681,0.5,-35.1751077220762
120,1,2,D,3,2,a,63,1,0.95,3D,2D,1,0,1,0,D32,1.83318309019798,2.83321334405622,0.5,0.5,0.5,0.5,0.5,0.5,0.5,0.5,0.256108190289775,0.5,0.5,0.5,0.5,0.5,0.5,0.5,2.12821332453586,1,1,0,3D,2D,0.5,0.5,0.5,0.5,1,1,0.5,0.243891809710225,0.5,0.436902077121208,0.945213324535864,13.3943366928,1.56611485804388,0.5,0.155137077478686,0.499954017216979,0.5,0.48778361942045,0.939586836115793,14.8889841910426,1.77629530026681,0.5,-35.1751077220762
120,1,3,A,1,0,l,63,1,0.95,1A,0A,0,1,0,1,A10,1.26589790925171,2.89037175789616,0.5,0.5,0.5,0.5,0.5,0.5,0.5,0.5,0.256108190289775,0.5,0.5,0.5,0.5,0.5,0.5,0.743891809710225,1.14021332453586,1,1,0,1A,0A,0.5,0.5,0.5,0.5,0,0,-0.5,-0.243891809710225,0.5,0.436902077121208,0.945213324535864,13.3943366928,1.56611485804388,0.5,0.552815760130445,0.500609040589391,0.5,0.48778361942045,0.939586836115793,14.8889841910426,1.77629530026681,0.5,-35.1751077220762
120,1,4,C,2,3,a,63,1,0.95,2C,3C,1,0,1,0,C23,3.06061442246095,2.94443897916644,0.5,0.256108190289775,0.5,0.5,0.5,0.5,0.5,0.5,0.256108190289775,0.5,0.5,0.5,0.5,0.5,0.5,0.743891809710225,1.88621332453586,1,1,0,2C,3C,0.5,0.5,0.5,0.5,1,1,0.5,0.243891809710225,0.5,0.436902077121208,0.945213324535864,13.3943366928,1.56611485804388,0.5,0.226821882408544,0.500647579476774,0.5,0.48778361942045,0.939586836115793,14.8889841910426,1.77629530026681,0.5,-35.1751077220762
120,1,5,A,0,2,a,27,1,0.95,0A,2A,1,0,1,0,A02,0.684480302772209,2.99573227355399,0.5,0.256108190289775,0.5,0.5,0.5,0.5,0.5,0.5,0.256108190289775,0.5,0.743891809710225,0.5,0.5,0.5,0.5,0.743891809710225,1.72121332453586,1,1,0,0A,2A,0.5,0.5,0.5,0.5,1,1,0.5,0.243891809710225,0.5,0.436902077121208,0.945213324535864,13.3943366928,1.56611485804388,0.5,0.293247647532588,0.50011661981107,0.5,0.48778361942045,0.939586836115793,14.8889841910426,1.77629530026681,0.5,-35.1751077220762
120,1,6,D,2,3,l,63,1,0.95,2D,3D,0,1,0,1,D23,2.43080647507756,3.04452243772342,0.743891809710225,0.256108190289775,0.5,0.5,0.5,0.5,0.5,0.5,0.256108190289775,0.5,0.743891809710225,0.5,0.5,0.5,0.5,0.743891809710225,1.16421332453586,0,0,1,3D,2D,0.743891809710225,0.5,0.59803578084779,0.40196421915221,1,1,0.256108190289775,0.124925380022768,0.5,0.436902077121208,0.945213324535864,13.3943366928,1.56611485804388,0.5,2.9509246793151,0.994430802208668,0.5,0.48778361942045,0.939586836115793,14.8889841910426,1.77629530026681,0.5,-35.1751077220762
120,1,7,D,3,2,a,63,1,0.95,3D,2D,1,0,1,0,D32,2.93930299342907,2.39789527279837,0.743891809710225,0.256108190289775,0.5,0.5,0.5,0.5,0.5,0.5,0.256108190289775,0.5,0.743891809710225,0.5,0.5,0.5,0.5,0.868817189732993,1.20321332453586,1,1,0,3D,2D,0.868817189732993,0.5,0.634721127298575,0.365278872701425,1,1,0.131182810267007,0.063988825997787,0.5,0.436902077121208,0.945213324535864,13.3943366928,1.56611485804388,0.5,2.47859287731914,0.999197642202004,0.5,0.48778361942045,0.939586836115793,14.8889841910426,1.77629530026681,0.5,-35.1751077220762
120,1,8,B,3,1,l,27,1,0.95,3B,1B,0,1,0,1,B31,2.75583952646912,3.13549421592915,0.743891809710225,0.256108190289775,0.5,0.5,0.5,0.5,0.5,0.5,0.256108190289775,0.5,0.743891809710225,0.5,0.5,0.5,0.5,0.93280601573078,2.16121332453586,1,1,0,3B,1B,0.5,0.5,0.5,0.5,0,0,-0.5,-0.243891809710225,0.5,0.436902077121208,0.945213324535864,13.3943366928,1.56611485804388,0.5,0.14741284478915,0.500224084623503,0.5,0.48778361942045,0.939586836115793,14.8889841910426,1.77629530026681,0.5,-35.1751077220762
120,1,9,D,0,3,l,9,1,0.95,0D,3D,0,1,0,1,D03,3.36935598370414,3.17805383034795,0.743891809710225,0.256108190289775,0.5,0.5,0.5,0.5,0.5,0.256108190289775,0.256108190289775,0.5,0.743891809710225,0.5,0.5,0.5,0.5,0.93280601573078,1.19621332453586,0,0,1,3D,0D,0.93280601573078,0.5,0.65103440765149,0.34896559234851,1,1,0.0671939842692203,0.0327761248501211,0.5,0.436902077121208,0.945213324535864,13.3943366928,1.56611485804388,0.5,2.3744774440514,0.999660823530566,0.5,0.48778361942045,0.939586836115793,14.8889841910426,1.77629530026681,0.5,-35.1751077220762
120,1,10,B,1,0,a,63,1,0.95,1B,0B,1,0,1,0,B10,0.80330356185933,3.2188758248682,0.743891809710225,0.256108190289775,0.5,0.5,0.5,0.5,0.5,0.256108190289775,0.256108190289775,0.5,0.743891809710225,0.5,0.5,0.5,0.5,0.965582140580901,1.57221332453586,1,1,0,1B,0B,0.5,0.5,0.5,0.5,1,1,0.5,0.243891809710225,0.5,0.436902077121208,0.945213324535864,13.3943366928,1.56611485804388,0.5,0.369483260599432,0.499604994724768,0.5,0.48778361942045,0.939586836115793,14.8889841910426,1.77629530026681,0.5,-35.1751077220762
120,1,11,A,1,0,l,63,1,0.95,1A,0A,0,1,0,1,A10,1.28289745425415,2.56494935746154,0.743891809710225,0.256108190289775,0.5,0.5,0.5,0.743891809710225,0.5,0.256108190289775,0.256108190289775,0.5,0.743891809710225,0.5,0.5,0.5,0.5,0.965582140580901,1.01921332453586,0,0,1,0A,1A,0.743891809710225,0.256108190289775,0.743891809710225,0.256108190289775,1,1,0.256108190289775,0.124925380022768,0.5,0.436902077121208,0.945213324535864,13.3943366928,1.56611485804388,0.5,8.62698622719758,0.999997499047787,0.5,0.48778361942045,0.939586836115793,14.8889841910426,1.77629530026681,0.5,-35.1751077220762
120,1,12,B,0,1,l,63,1,0.95,0B,1B,0,1,0,1,B01,2.72670607426767,3.29583686600433,0.868817189732993,0.256108190289775,0.5,0.5,0.5,0.743891809710225,0.5,0.256108190289775,0.256108190289775,0.5,0.743891809710225,0.5,0.5,0.5,0.5,0.965582140580901,1.61421332453586,0,0,1,1B,0B,0.743891809710225,0.5,0.59803578084779,0.40196421915221,1,1,0.256108190289775,0.124925380022768,0.5,0.436902077121208,0.945213324535864,13.3943366928,1.56611485804388,0.5,0.261055388987148,0.994443343450557,0.5,0.48778361942045,0.939586836115793,14.8889841910426,1.77629530026681,0.5,-35.1751077220762
120,1,13,D,2,3,l,63,1,0.95,2D,3D,0,1,0,1,D23,2.54204750281943,2.63905732961526,0.868817189732993,0.256108190289775,0.5,0.5,0.5,0.868817189732993,0.5,0.256108190289775,0.256108190289775,0.5,0.743891809710225,0.5,0.5,0.5,0.5,0.965582140580901,1.15021332453586,0,0,1,3D,2D,0.965582140580901,0.5,0.6588386374565,0.3411613625435,1,1,0.0344178594190993,0.0167884680401525,0.5,0.436902077121208,0.945213324535864,13.3943366928,1.56611485804388,0.5,3.56456739489444,0.999776177284756,0.5,0.48778361942045,0.939586836115793,14.8889841910426,1.77629530026681,0.5,-35.1751077220762
120,1,14,B,1,3,a,27,1,0.95,1B,3B,1,0,1,0,B13,0.436544695928764,3.36729582998647,0.868817189732993,0.256108190289775,0.5,0.5,0.5,0.868817189732993,0.5,0.256108190289775,0.256108190289775,0.5,0.743891809710225,0.5,0.5,0.5,0.5,0.982370608621053,1.05221332453586,1,1,0,1B,3B,0.868817189732993,0.256108190289775,0.772333174415007,0.227666825584993,1,1,0.131182810267007,0.063988825997787,0.5,0.436902077121208,0.945213324535864,13.3943366928,1.56611485804388,0.5,9.34791559926528,0.999999444916493,0.5,0.48778361942045,0.939586836115793,14.8889841910426,1.77629530026681,0.5,-35.1751077220762
120,1,15,C,3,2,l,63,1,0.95,3C,2C,0,1,0,1,C32,1.27569849506504,3.40119738166216,0.868817189732993,0.256108190289775,0.5,0.5,0.5,0.93280601573078,0.5,0.256108190289775,0.256108190289775,0.5,0.743891809710225,0.5,0.5,0.5,0.5,0.982370608621053,1.10121332453586,0,0,1,2C,3C,0.743891809710225,0.5,0.59803578084779,0.40196421915221,1,1,0.256108190289775,0.124925380022768,0.5,0.436902077121208,0.945213324535864,13.3943366928,1.56611485804388,0.5,3.19032489418897,0.994437475989904,0.5,0.48778361942045,0.939586836115793,14.8889841910426,1.77629530026681,0.5,-35.1751077220762
120,1,16,C,2,0,a,27,1,0.95,2C,0C,1,0,1,0,C20,2.05659366569907,2.7408400239252,0.868817189732993,0.256108190289775,0.5,0.5,0.5,0.93280601573078,0.5,0.256108190289775,0.256108190289775,0.5,0.868817189732993,0.5,0.5,0.5,0.5,0.982370608621053,1.04421332453586,1,1,0,2C,0C,0.868817189732993,0.256108190289775,0.772333174415007,0.227666825584993,1,1,0.131182810267007,0.063988825997787,0.5,0.436902077121208,0.945213324535864,13.3943366928,1.56611485804388,0.5,10.3900095817922,0.999999442509107,0.5,0.48778361942045,0.939586836115793,14.8889841910426,1.77629530026681,0.5,-35.1751077220762
120,1,17,A,0,3,a,9,1,0.95,0A,3A,1,0,1,0,A03,1.58702831687592,3.46573590279973,0.868817189732993,0.256108190289775,0.5,0.5,0.5,0.93280601573078,0.5,0.256108190289775,0.256108190289775,0.5,0.93280601573078,0.5,0.5,0.5,0.5,0.982370608621053,1.13521332453586,1,1,0,0A,3A,0.868817189732993,0.5,0.634721127298575,0.365278872701425,1,1,0.131182810267007,0.063988825997787,0.5,0.436902077121208,0.945213324535864,13.3943366928,1.56611485804388,0.5,3.98512970867063,0.999198141645975,0.5,0.48778361942045,0.939586836115793,14.8889841910426,1.77629530026681,0.5,-35.1751077220762
120,1,18,C,2,3,a,63,0,0.95,2C,3C,1,0,0,1,C23,2.05371089448443,2.80336038090653,0.93280601573078,0.256108190289775,0.5,0.5,0.5,0.93280601573078,0.5,0.256108190289775,0.256108190289775,0.5,0.93280601573078,0.5,0.5,0.5,0.5,0.982370608621053,1.00121332453586,1,1,0,2C,3C,0.93280601573078,0.5,0.65103440765149,0.34896559234851,1,0,-0.93280601573078,-0.455007494570329,0.5,0.436902077121208,0.945213324535864,13.3943366928,1.56611485804388,0.5,1.1200242413324,0.999660547107261,0.5,0.48778361942045,0.939586836115793,14.8889841910426,1.77629530026681,0.5,-35.1751077220762
120,1,19,A,1,0,l,63,1,0.95,1A,0A,0,1,0,1,A10,2.27571244794077,2.42774823594805,0.93280601573078,0.256108190289775,0.5,0.5,0.5,0.93280601573078,0.5,0.256108190289775,0.256108190289775,0.5,0.477798521160451,0.5,0.5,0.5,0.5,0.982370608621053,1.09921332453586,0,0,1,0A,1A,0.93280601573078,0.256108190289775,0.78458648320218,0.21541351679782,1,1,0.0671939842692203,0.0327761248501211,0.5,0.436902077121208,0.945213324535864,13.3943366928,1.56611485804388,0.5,2.82547016612341,0.999999709958895,0.5,0.48778361942045,0.939586836115793,14.8889841910426,1.77629530026681,0.5,-35.1751077220762
120,1,20,D,3,2,a,63,1,0.95,3D,2D,1,0,1,0,D32,3.06479750462685,2.4567357728213,0.965582140580901,0.256108190289775,0.5,0.5,0.5,0.93280601573078,0.5,0.256108190289775,0.256108190289775,0.5,0.477798521160451,0.5,0.5,0.5,0.5,0.982370608621053,1.07621332453586,1,1,0,3D,2D,0.982370608621053,0.5,0.662702432784258,0.337297567215742,1,1,0.0176293913789468,0.00859932833500235,0.5,0.436902077121208,0.945213324535864,13.3943366928,1.56611485804388,0.5,5.81705148804604,0.999816811268287,0.5,0.48778361942045,0.939586836115793,14.8889841910426,1.77629530026681,0.5,-35.1751077220762
120,1,21,C,3,2,l,63,1,0.95,3C,2C,0,1,0,1,C32,2.59514203599696,2.89037175789616,0.965582140580901,0.256108190289775,0.5,0.5,0.5,0.93280601573078,0.5,0.256108190289775,0.256108190289775,0.5,0.477798521160451,0.5,0.5,0.5,0.5,0.990969936956056,1.14621332453586,0,0,1,2C,3C,0.477798521160451,0.5,0.48864721189535,0.51135278810465,1,1,0.522201478839549,0.254721327415067,0.5,0.436902077121208,0.945213324535864,13.3943366928,1.56611485804388,0.5,0.409300571062304,0.354152062543285,0.5,0.48778361942045,0.939586836115793,14.8889841910426,1.77629530026681,0.5,-35.1751077220762
120,1,22,D,3,1,a,27,1,0.95,3D,1D,1,0,1,0,D31,1.03370882603842,3.61091791264422,0.965582140580901,0.256108190289775,0.5,0.5,0.5,0.93280601573078,0.5,0.256108190289775,0.256108190289775,0.5,0.732519848575518,0.5,0.5,0.5,0.5,0.990969936956056,1.35621332453586,1,1,0,3D,1D,0.990969936956056,0.5,0.664647832523845,0.335352167476155,1,1,0.00903006304394449,0.00440471683517009,0.5,0.436902077121208,0.945213324535864,13.3943366928,1.56611485804388,0.5,0.265614189274161,0.99983500388231,0.5,0.48778361942045,0.939586836115793,14.8889841910426,1.77629530026681,0.5,-35.1751077220762
120,1,23,A,0,1,a,63,1,0.95,0A,1A,1,0,1,0,A01,2.53941126579569,3.63758615972639,0.965582140580901,0.256108190289775,0.5,0.5,0.5,0.93280601573078,0.5,0.256108190289775,0.256108190289775,0.5,0.732519848575518,0.5,0.5,0.5,0.5,0.995374653791226,1.02521332453586,1,1,0,0A,1A,0.965582140580901,0.256108190289775,0.790365705761744,0.209634294238256,1,1,0.0344178594190993,0.0167884680401525,0.5,0.436902077121208,0.945213324535864,13.3943366928,1.56611485804388,0.5,12.4440510274799,0.999999785483715,0.5,0.48778361942045,0.939586836115793,14.8889841910426,1.77629530026681,0.5,-35.1751077220762
120,1,24,C,3,2,l,63,1,0.95,3C,2C,0,1,0,1,C32,0.231859856827249,2.56494935746154,0.982370608621053,0.256108190289775,0.5,0.5,0.5,0.93280601573078,0.5,0.256108190289775,0.256108190289775,0.5,0.732519848575518,0.5,0.5,0.5,0.5,0.995374653791226,1.10621332453586,0,0,1,2C,3C,0.732519848575518,0.5,0.594327019903271,0.40567298009673,1,1,0.267480151424482,0.130472436384964,0.5,0.436902077121208,0.945213324535864,13.3943366928,1.56611485804388,0.5,3.06627398874409,0.993225873261501,0.5,0.48778361942045,0.939586836115793,14.8889841910426,1.77629530026681,0.5,-35.1751077220762
120,1,25,A,0,2,a,27,1,0.95,0A,2A,1,0,1,0,A02,0.073360026428795,2.99573227355399,0.982370608621053,0.256108190289775,0.5,0.5,0.5,0.93280601573078,0.5,0.256108190289775,0.256108190289775,0.5,0.862992284960482,0.5,0.5,0.5,0.5,0.995374653791226,1.00021332453586,1,1,0,0A,2A,0.982370608621053,0.5,0.662702432784258,0.337297567215742,1,1,0.0176293913789468,0.00859932833500235,0.5,0.436902077121208,0.945213324535864,13.3943366928,1.56611485804388,0.5,1.28809544821725,0.999817134621179,0.5,0.48778361942045,0.939586836115793,14.8889841910426,1.77629530026681,0.5,-35.1751077220762
120,1,26,B,1,0,a,63,1,0.95,1B,0B,1,0,1,0,B10,0.185889929724878,3.02042488614436,0.990969936956056,0.256108190289775,0.5,0.5,0.5,0.93280601573078,0.5,0.256108190289775,0.256108190289775,0.5,0.862992284960482,0.5,0.5,0.5,0.5,0.995374653791226,1.12921332453586,1,1,0,1B,0B,0.93280601573078,0.5,0.65103440765149,0.34896559234851,1,1,0.0671939842692203,0.0327761248501211,0.5,0.436902077121208,0.945213324535864,13.3943366928,1.56611485804388,0.5,4.27686600295809,0.999661144852562,0.5,0.48778361942045,0.939586836115793,14.8889841910426,1.77629530026681,0.5,-35.1751077220762
120,1,27,B,0,1,l,63,1,0.95,0B,1B,0,1,0,1,B01,1.38042551983321,3.04452243772342,0.990969936956056,0.256108190289775,0.5,0.5,0.5,0.965582140580901,0.5,0.256108190289775,0.256108190289775,0.5,0.862992284960482,0.5,0.5,0.5,0.5,0.995374653791226,1.05121332453586,0,0,1,1B,0B,0.965582140580901,0.5,0.6588386374565,0.3411613625435,1,1,0.0344178594190993,0.0167884680401525,0.5,0.436902077121208,0.945213324535864,13.3943366928,1.56611485804388,0.5,5.31490467076223,0.999775804677805,0.5,0.48778361942045,0.939586836115793,14.8889841910426,1.77629530026681,0.5,-35.1751077220762
120,1,28,C,3,2,l,63,1,0.95,3C,2C,0,1,0,1,C32,0.0950619300322512,2.37490575457367,0.990969936956056,0.256108190289775,0.5,0.5,0.5,0.982370608621053,0.5,0.256108190289775,0.256108190289775,0.5,0.862992284960482,0.5,0.5,0.5,0.5,0.995374653791226,1.19121332453586,0,0,1,2C,3C,0.862992284960482,0.5,0.633160065895386,0.366839934104614,1,1,0.137007715039518,0.0668301191305019,0.5,0.436902077121208,0.945213324535864,13.3943366928,1.56611485804388,0.5,2.74057969609971,0.99912910802617,0.5,0.48778361942045,0.939586836115793,14.8889841910426,1.77629530026681,0.5,-35.1751077220762
120,1,29,D,3,1,a,27,1,0.95,3D,1D,1,0,1,0,D31,2.58162891666758,3.09104245335832,0.990969936956056,0.256108190289775,0.5,0.5,0.5,0.982370608621053,0.5,0.256108190289775,0.256108190289775,0.5,0.929822404090983,0.5,0.5,0.5,0.5,0.995374653791226,1.05121332453586,1,1,0,3D,1D,0.995374653791226,0.5,0.665635632694222,0.334364367305778,1,1,0.00462534620877442,0.00225616811478864,0.5,0.436902077121208,0.945213324535864,13.3943366928,1.56611485804388,0.5,5.70318195655849,0.99984342615768,0.5,0.48778361942045,0.939586836115793,14.8889841910426,1.77629530026681,0.5,-35.1751077220762
120,1,30,C,1,2,l,9,1,0.95,1C,2C,0,1,0,1,C12,0.483748124749669,3.80666248977032,0.990969936956056,0.256108190289775,0.5,0.5,0.5,0.982370608621053,0.5,0.256108190289775,0.256108190289775,0.5,0.929822404090983,0.5,0.5,0.5,0.5,0.997630821906014,1.20521332453586,0,0,1,2C,1C,0.929822404090983,0.5,0.65030622084994,0.34969377915006,1,1,0.0701775959090165,0.0342314817347258,0.5,0.436902077121208,0.945213324535864,13.3943366928,1.56611485804388,0.5,2.18350083942367,0.999647038426295,0.5,0.48778361942045,0.939586836115793,14.8889841910426,1.77629530026681,0.5,-35.1751077220762
120,1,31,B,3,1,l,27,1,0.95,3B,1B,0,1,0,1,B31,3.09069600434689,3.13549421592915,0.990969936956056,0.256108190289775,0.5,0.5,0.5,0.982370608621053,0.5,0.256108190289775,0.256108190289775,0.5,0.964053885825709,0.5,0.5,0.5,0.5,0.997630821906014,1.04421332453586,0,0,1,1B,3B,0.982370608621053,0.256108190289775,0.793207448916358,0.206792551083642,1,1,0.0176293913789468,0.00859932833500235,0.5,0.436902077121208,0.945213324535864,13.3943366928,1.56611485804388,0.5,10.4372224731513,0.999999816521071,0.5,0.48778361942045,0.939586836115793,14.8889841910426,1.77629530026681,0.5,-35.1751077220762
120,1,32,D,3,2,a,63,1,0.95,3D,2D,1,0,1,0,D32,0.0763262245224144,2.46385324059017,0.990969936956056,0.256108190289775,0.5,0.5,0.5,0.990969936956056,0.5,0.256108190289775,0.256108190289775,0.5,0.964053885825709,0.5,0.5,0.5,0.5,0.997630821906014,1.12121332453586,1,1,0,3D,2D,0.997630821906014,0.5,0.666139349774027,0.333860650225973,1,1,0.00236917809398574,0.001155646265736,0.5,0.436902077121208,0.945213324535864,13.3943366928,1.56611485804388,0.5,4.57608870944331,0.999847589942208,0.5,0.48778361942045,0.939586836115793,14.8889841910426,1.77629530026681,0.5,-35.1751077220762
120,1,33,B,0,1,l,63,1,0.95,0B,1B,0,1,0,1,B01,1.06199779633919,2.77258872223978,0.990969936956056,0.256108190289775,0.5,0.5,0.5,0.990969936956056,0.5,0.256108190289775,0.256108190289775,0.5,0.964053885825709,0.5,0.5,0.5,0.5,0.99878646817175,1.02021332453586,0,0,1,1B,0B,0.990969936956056,0.5,0.664647832523845,0.335352167476155,1,1,0.00903006304394449,0.00440471683517009,0.5,0.436902077121208,0.945213324535864,13.3943366928,1.56611485804388,0.5,3.43119419983855,0.999834857194362,0.5,0.48778361942045,0.939586836115793,14.8889841910426,1.77629530026681,0.5,-35.1751077220762
120,1,34,A,1,0,l,63,0,0.95,1A,0A,0,1,1,0,A10,1.77332156966719,2.50552593699074,0.990969936956056,0.256108190289775,0.5,0.5,0.5,0.995374653791226,0.5,0.256108190289775,0.256108190289775,0.5,0.964053885825709,0.5,0.5,0.5,0.5,0.99878646817175,1.06421332453586,0,0,1,0A,1A,0.990969936956056,0.256108190289775,0.794633403718347,0.205366596281654,1,0,-0.990969936956056,-0.48337890258528,0.5,0.436902077121208,0.945213324535864,13.3943366928,1.56611485804388,0.5,6.80101565302694,0.999999829446029,0.5,0.48778361942045,0.939586836115793,14.8889841910426,1.77629530026681,0.5,-35.1751077220762
120,1,35,C,2,3,a,63,1,0.95,2C,3C,1,0,1,0,C23,0.246187172895371,2.81341071676004,0.507591034370776,0.256108190289775,0.5,0.5,0.5,0.995374653791226,0.5,0.256108190289775,0.256108190289775,0.5,0.964053885825709,0.5,0.5,0.5,0.5,0.99878646817175,1.13821332453586,1,1,0,2C,3C,0.964053885825709,0.5,0.658482515677348,0.341517484322652,1,1,0.0359461141742907,0.0175339256760363,0.5,0.436902077121208,0.945213324535864,13.3943366928,1.56611485804388,0.5,3.97792275198485,0.999771930884117,0.5,0.48778361942045,0.939586836115793,14.8889841910426,1.77629530026681,0.5,-35.1751077220762
120,1,36,A,0,2,a,27,1,0.95,0A,2A,1,0,1,0,A02,2.94057663822729,2.83321334405622,0.507591034370776,0.256108190289775,0.5,0.5,0.5,0.995374653791226,0.5,0.256108190289775,0.256108190289775,0.5,0.981587811501746,0.5,0.5,0.5,0.5,0.99878646817175,1.31421332453586,0,0,1,2A,0A,0.5,0.507591034370776,0.496233077651631,0.503766922348369,0,0,-0.5,-0.243891809710225,0.5,0.436902077121208,0.945213324535864,13.3943366928,1.56611485804388,0.5,0.486655488569739,0.450375465885958,0.5,0.48778361942045,0.939586836115793,14.8889841910426,1.77629530026681,0.5,-35.1751077220762
120,1,37,B,0,1,l,63,1,0.95,0B,1B,0,1,0,1,B01,2.0031965077956,2.56494935746154,0.507591034370776,0.256108190289775,0.256108190289775,0.5,0.5,0.995374653791226,0.5,0.256108190289775,0.256108190289775,0.5,0.981587811501746,0.5,0.5,0.5,0.5,0.99878646817175,1.12921332453586,0,0,1,1B,0B,0.995374653791226,0.5,0.665635632694222,0.334364367305778,1,1,0.00462534620877442,0.00225616811478864,0.5,0.436902077121208,0.945213324535864,13.3943366928,1.56611485804388,0.5,4.26583907604172,0.999843287045657,0.5,0.48778361942045,0.939586836115793,14.8889841910426,1.77629530026681,0.5,-35.1751077220762
120,1,38,D,2,3,l,63,1,0.95,2D,3D,0,1,0,1,D23,2.70352227054182,2.87167962488401,0.507591034370776,0.256108190289775,0.256108190289775,0.5,0.5,0.997630821906014,0.5,0.256108190289775,0.256108190289775,0.5,0.981587811501746,0.5,0.5,0.5,0.5,0.99878646817175,1.18821332453586,0,0,1,3D,2D,0.99878646817175,0.5,0.66639677457863,0.33360322542137,1,1,0.00121353182824968,0.000591940947465545,0.5,0.436902077121208,0.945213324535864,13.3943366928,1.56611485804388,0.5,2.25400609850488,0.999849314275004,0.5,0.48778361942045,0.939586836115793,14.8889841910426,1.77629530026681,0.5,-35.1751077220762
120,1,39,B,1,2,a,9,1,0.95,1B,2B,1,0,1,0,B12,1.31193544496457,3.98898404656427,0.507591034370776,0.256108190289775,0.256108190289775,0.5,0.5,0.997630821906014,0.5,0.256108190289775,0.256108190289775,0.5,0.981587811501746,0.5,0.5,0.5,0.5,0.999378409119216,1.17121332453586,1,1,0,1B,2B,0.997630821906014,0.5,0.666139349774027,0.333860650225973,1,1,0.00236917809398574,0.001155646265736,0.5,0.436902077121208,0.945213324535864,13.3943366928,1.56611485804388,0.5,2.75419855965717,0.99984725714693,0.5,0.48778361942045,0.939586836115793,14.8889841910426,1.77629530026681,0.5,-35.1751077220762
120,1,40,D,1,3,l,27,1,0.95,1D,3D,0,1,0,1,D13,1.68523307698886,4.00733318523247,0.507591034370776,0.256108190289775,0.256108190289775,0.5,0.5,0.99878646817175,0.5,0.256108190289775,0.256108190289775,0.5,0.981587811501746,0.5,0.5,0.5,0.5,0.999378409119216,1.12421332453586,0,0,1,3D,1D,0.999378409119216,0.5,0.666528478095322,0.333471521904678,1,1,0.000621590880784173,0.000303201849627649,0.5,0.436902077121208,0.945213324535864,13.3943366928,1.56611485804388,0.5,4.45762360937826,0.999849838398201,0.5,0.48778361942045,0.939586836115793,14.8889841910426,1.77629530026681,0.5,-35.1751077220762
120,1,41,A,1,0,l,63,1,0.95,1A,0A,0,1,0,1,A10,3.31683413234409,2.41591377830105,0.507591034370776,0.256108190289775,0.256108190289775,0.5,0.5,0.99878646817175,0.5,0.256108190289775,0.256108190289775,0.5,0.981587811501746,0.5,0.5,0.5,0.5,0.999681610968843,1.06821332453586,0,0,1,0A,1A,0.507591034370776,0.256108190289775,0.664647832523845,0.335352167476155,1,1,0.492408965629224,0.240189027489703,0.5,0.436902077121208,0.945213324535864,13.3943366928,1.56611485804388,0.5,5.93394210233953,0.999834634945467,0.5,0.48778361942045,0.939586836115793,14.8889841910426,1.77629530026681,0.5,-35.1751077220762
120,1,42,A,0,1,a,63,1,0.95,0A,1A,1,0,1,0,A01,1.32180705567354,3.3499040872746,0.747780061860479,0.256108190289775,0.256108190289775,0.5,0.5,0.99878646817175,0.5,0.256108190289775,0.256108190289775,0.5,0.981587811501746,0.5,0.5,0.5,0.5,0.999681610968843,1.07021332453586,1,1,0,0A,1A,0.747780061860479,0.256108190289775,0.744883765955812,0.255116234044188,1,1,0.252219938139521,0.123028754315698,0.5,0.436902077121208,0.945213324535864,13.3943366928,1.56611485804388,0.5,7.38671066744378,0.999997631358742,0.5,0.48778361942045,0.939586836115793,14.8889841910426,1.77629530026681,0.5,-35.1751077220762
120,1,43,C,2,0,a,27,1,0.95,2C,0C,1,0,1,0,C20,1.04021886454341,2.96183072187831,0.870808816176176,0.256108190289775,0.256108190289775,0.5,0.5,0.99878646817175,0.5,0.256108190289775,0.256108190289775,0.5,0.981587811501746,0.5,0.5,0.5,0.5,0.999681610968843,1.03421332453586,1,1,0,2C,0C,0.981587811501746,0.256108190289775,0.793076660246888,0.206923339753112,1,1,0.0184121884982544,0.00898116394713013,0.5,0.436902077121208,0.945213324535864,13.3943366928,1.56611485804388,0.5,11.9249474032825,0.999999814770904,0.5,0.48778361942045,0.939586836115793,14.8889841910426,1.77629530026681,0.5,-35.1751077220762
120,1,44,B,0,1,l,63,1,0.95,0B,1B,0,1,0,1,B01,3.45820415571322,2.46809953147162,0.870808816176176,0.256108190289775,0.256108190289775,0.5,0.5,0.99878646817175,0.5,0.256108190289775,0.256108190289775,0.5,0.990568975448876,0.5,0.5,0.5,0.5,0.999681610968843,1.06321332453586,0,0,1,1B,0B,0.99878646817175,0.5,0.66639677457863,0.33360322542137,1,1,0.00121353182824968,0.000591940947465545,0.5,0.436902077121208,0.945213324535864,13.3943366928,1.56611485804388,0.5,5.99405609227114,0.999849267042867,0.5,0.48778361942045,0.939586836115793,14.8889841910426,1.77629530026681,0.5,-35.1751077220762
