ID,filename,session,trial,visStimLeft,visStimRight,correctKey,leftCorrect,rightCorrect,secondStim,mod2Type,mod2Stim,frequency,rewardAccurate,stimPairLeft,stimPairRight,pCorrectLeft,pCorrectRight,key,reactionTime,choiceLeft,choiceRight,choiceAccurate,reward,chosenPair,otherPair,triplet,surprise,0A belief,1A belief,2A belief,3A belief,0B belief,1B belief,2B belief,3B belief,0C belief,1C belief,2C belief,3C belief,0D belief,1D belief,2D belief,3D belief,beliefPairNorm,beliefOtherPairNorm,beliefPair,beliefOtherPair,lik,corrLik,rewardPE,update2,fitCBCsimpleRW_CBCdriftDiffusionLR_pwBelief_startBelief,fitCBCsimpleRW_CBCdriftDiffusionLR_pwBelief_alpha1,fitCBCsimpleRW_CBCdriftDiffusionLR_pwBelief_nonDecisionTime,fitCBCsimpleRW_CBCdriftDiffusionLR_pwBelief_weight,fitCBCsimpleRW_CBCdriftDiffusionLR_pwBelief_startingBoundary,fitCBCsimpleRW_CBCdriftDiffusionLR_pwBelief_startingPoint,fit_CBCsimpleRW_CBCdriftDiffusionLR_pwBelief_NLL
CBC_1003,CBC_1003_MSI_AV_v3_Vset4_Aset3_2023-06-14_14h56.33.053.csv,1,1,0,1,z,0,1,2,aud,B,63,1,0B,1B,0,1,z,2.38535430000047,0,1,1,1,1B,0B,B01,2.77258872223978,0.5,0.5,0.5,0.5,0.5,0.5,0.5,0.5,0.5,0.5,0.5,0.5,0.5,0.5,0.5,0.5,0.5,0.5,0.5,0.5,0.11374109128726,0.500927933550999,0.5,0.00163177020888511,0.5,0.00326354041777022,0.401364137245432,8.09016861096332,2.73856413500357,0.5,84.4143642845758
CBC_1003,CBC_1003_MSI_AV_v3_Vset4_Aset3_2023-06-14_14h56.33.053.csv,1,2,0,1,b,1,0,0,aud,A,63,1,0A,1A,1,0,b,1.41755640000019,1,0,1,1,0A,1A,A01,2.83321334405622,0.5,0.5,0.5,0.5,0.5,0.501631770208885,0.5,0.5,0.5,0.5,0.5,0.5,0.5,0.5,0.5,0.5,0.5,0.5,0.5,0.5,0.211594659950062,0.500031992520871,0.5,0.00163177020888511,0.5,0.00326354041777022,0.401364137245432,8.09016861096332,2.73856413500357,0.5,84.4143642845758
CBC_1003,CBC_1003_MSI_AV_v3_Vset4_Aset3_2023-06-14_14h56.33.053.csv,1,3,2,3,z,0,1,3,aud,D,63,1,2D,3D,0,1,b,2.72811800000045,1,0,0,0,2D,3D,D23,2.89037175789616,0.501631770208885,0.5,0.5,0.5,0.5,0.501631770208885,0.5,0.5,0.5,0.5,0.5,0.5,0.5,0.5,0.5,0.5,0.5,0.5,0.5,0.5,0.090716106696014,0.50056474918015,-0.5,-0.00163177020888511,0.5,0.00326354041777022,0.401364137245432,8.09016861096332,2.73856413500357,0.5,84.4143642845758
CBC_1003,CBC_1003_MSI_AV_v3_Vset4_Aset3_2023-06-14_14h56.33.053.csv,1,4,2,1,z,0,1,2,aud,B,9,1,2B,1B,0,1,b,1.10040400000025,1,0,0,0,2B,1B,B21,2.94443897916644,0.501631770208885,0.5,0.5,0.5,0.5,0.501631770208885,0.5,0.5,0.5,0.5,0.5,0.5,0.5,0.5,0.498368229791115,0.5,0.498368229791115,0.501631770208885,0.5,0.501631770208885,0.236071979255072,0.482671729287787,-0.5,-0.00163177020888511,0.5,0.00326354041777022,0.401364137245432,8.09016861096332,2.73856413500357,0.5,84.4143642845758
CBC_1003,CBC_1003_MSI_AV_v3_Vset4_Aset3_2023-06-14_14h56.33.053.csv,1,5,0,2,b,1,0,0,aud,A,27,1,0A,2A,1,0,b,1.65205319999995,1,0,1,1,0A,2A,A02,2.99573227355399,0.501631770208885,0.5,0.5,0.5,0.5,0.501631770208885,0.498368229791115,0.5,0.5,0.5,0.5,0.5,0.5,0.5,0.498368229791115,0.5,0.501631770208885,0.498368229791115,0.501631770208885,0.5,0.189408661768506,0.516881889808995,0.498368229791115,0.0016264448608559,0.5,0.00326354041777022,0.401364137245432,8.09016861096332,2.73856413500357,0.5,84.4143642845758
CBC_1003,CBC_1003_MSI_AV_v3_Vset4_Aset3_2023-06-14_14h56.33.053.csv,1,6,2,3,b,1,0,1,aud,C,63,1,2C,3C,1,0,z,1.58538200000021,0,1,0,0,3C,2C,C23,3.04452243772342,0.503258215069741,0.5,0.5,0.5,0.5,0.501631770208885,0.498368229791115,0.5,0.5,0.5,0.5,0.5,0.5,0.5,0.498368229791115,0.5,0.5,0.5,0.5,0.5,0.190913867016732,0.499597633534273,-0.5,-0.00163177020888511,0.5,0.00326354041777022,0.401364137245432,8.09016861096332,2.73856413500357,0.5,84.4143642845758
CBC_1003,CBC_1003_MSI_AV_v3_Vset4_Aset3_2023-06-14_14h56.33.053.csv,1,7,1,3,z,0,1,3,aud,D,27,1,1D,3D,0,1,b,2.6122762,1,0,0,0,1D,3D,D13,3.09104245335832,0.503258215069741,0.5,0.5,0.5,0.5,0.501631770208885,0.498368229791115,0.5,0.5,0.5,0.5,0.498368229791115,0.5,0.5,0.498368229791115,0.5,0.5,0.5,0.5,0.5,0.0978288459652129,0.500200943653636,-0.5,-0.00163177020888511,0.5,0.00326354041777022,0.401364137245432,8.09016861096332,2.73856413500357,0.5,84.4143642845758
CBC_1003,CBC_1003_MSI_AV_v3_Vset4_Aset3_2023-06-14_14h56.33.053.csv,1,8,1,0,z,0,1,0,aud,A,63,0,1A,0A,1,0,z,1.71038850000014,0,1,1,0,0A,1A,A10,3.13549421592915,0.503258215069741,0.5,0.5,0.5,0.5,0.501631770208885,0.498368229791115,0.5,0.5,0.5,0.5,0.498368229791115,0.5,0.498368229791115,0.498368229791115,0.5,0.503258215069741,0.496741784930259,0.503258215069741,0.5,0.189166727195779,0.535524904912259,-0.503258215069741,-0.001642403525455,0.5,0.00326354041777022,0.401364137245432,8.09016861096332,2.73856413500357,0.5,84.4143642845758
CBC_1003,CBC_1003_MSI_AV_v3_Vset4_Aset3_2023-06-14_14h56.33.053.csv,1,9,2,0,b,1,0,1,aud,C,27,1,2C,0C,1,0,z,3.08627569999999,0,1,0,0,0C,2C,C20,3.17805383034795,0.501615811544286,0.5,0.5,0.5,0.5,0.501631770208885,0.498368229791115,0.5,0.5,0.5,0.5,0.498368229791115,0.5,0.498368229791115,0.498368229791115,0.5,0.5,0.5,0.5,0.5,0.0715365910096684,0.499628876218944,-0.5,-0.00163177020888511,0.5,0.00326354041777022,0.401364137245432,8.09016861096332,2.73856413500357,0.5,84.4143642845758
CBC_1003,CBC_1003_MSI_AV_v3_Vset4_Aset3_2023-06-14_14h56.33.053.csv,1,10,2,3,z,0,1,3,aud,D,63,1,2D,3D,0,1,b,1.23571100000026,1,0,0,0,2D,3D,D23,2.52572864430826,0.501615811544286,0.5,0.5,0.5,0.5,0.501631770208885,0.498368229791115,0.5,0.498368229791115,0.5,0.5,0.498368229791115,0.5,0.498368229791115,0.498368229791115,0.5,0.498368229791115,0.501631770208885,0.498368229791115,0.5,0.22489572197097,0.482563674280706,-0.498368229791115,-0.0016264448608559,0.5,0.00326354041777022,0.401364137245432,8.09016861096332,2.73856413500357,0.5,84.4143642845758
CBC_1003,CBC_1003_MSI_AV_v3_Vset4_Aset3_2023-06-14_14h56.33.053.csv,1,11,1,0,b,1,0,2,aud,B,63,0,1B,0B,0,1,b,2.0702752000002,1,0,1,0,1B,0B,B10,3.25809653802148,0.501615811544286,0.5,0.5,0.5,0.5,0.501631770208885,0.498368229791115,0.5,0.498368229791115,0.5,0.5,0.498368229791115,0.5,0.498368229791115,0.496741784930259,0.5,0.501631770208885,0.498368229791115,0.501631770208885,0.5,0.144721439868604,0.518181836680513,-0.501631770208885,-0.00163709555691432,0.5,0.00326354041777022,0.401364137245432,8.09016861096332,2.73856413500357,0.5,84.4143642845758
CBC_1003,CBC_1003_MSI_AV_v3_Vset4_Aset3_2023-06-14_14h56.33.053.csv,1,12,0,1,b,1,0,0,aud,A,63,1,0A,1A,1,0,z,3.86236020000024,0,1,0,0,1A,0A,A01,2.60268968544438,0.501615811544286,0.5,0.5,0.5,0.5,0.499994674651971,0.498368229791115,0.5,0.498368229791115,0.5,0.5,0.498368229791115,0.5,0.498368229791115,0.496741784930259,0.5,0.498384188455714,0.501615811544286,0.5,0.501615811544286,0.0414473443327507,0.482629998589432,-0.5,-0.00163177020888511,0.5,0.00326354041777022,0.401364137245432,8.09016861096332,2.73856413500357,0.5,84.4143642845758
CBC_1003,CBC_1003_MSI_AV_v3_Vset4_Aset3_2023-06-14_14h56.33.053.csv,1,13,2,3,z,0,1,3,aud,D,63,1,2D,3D,0,1,z,2.65914390000034,0,1,1,1,3D,2D,D23,2.23359222150709,0.501615811544286,0.498368229791115,0.5,0.5,0.5,0.499994674651971,0.498368229791115,0.5,0.498368229791115,0.5,0.5,0.498368229791115,0.5,0.498368229791115,0.496741784930259,0.5,0.503258215069741,0.496741784930259,0.5,0.496741784930259,0.101686612710382,0.536500499257385,0.5,0.00163177020888511,0.5,0.00326354041777022,0.401364137245432,8.09016861096332,2.73856413500357,0.5,84.4143642845758
CBC_1003,CBC_1003_MSI_AV_v3_Vset4_Aset3_2023-06-14_14h56.33.053.csv,1,14,2,0,b,1,0,1,aud,C,27,0,2C,0C,NaN,NaN,[],NaN,NaN,NaN,NaN,NaN,,,C20,2.67414864942653,0.501615811544286,0.498368229791115,0.5,0.5,0.5,0.499994674651971,0.498368229791115,0.5,0.498368229791115,0.5,0.5,0.498368229791115,0.5,0.498368229791115,0.496741784930259,0.501631770208885,0,0,0,0,NaN,0,0,0,0.5,0.00326354041777022,0.401364137245432,8.09016861096332,2.73856413500357,0.5,84.4143642845758
CBC_1003,CBC_1003_MSI_AV_v3_Vset4_Aset3_2023-06-14_14h56.33.053.csv,1,15,0,1,b,1,0,0,aud,A,63,1,0A,1A,1,0,z,0.782577299999957,0,1,0,0,1A,0A,A01,2.30258509299405,0.501615811544286,0.498368229791115,0.5,0.5,0.5,0.499994674651971,0.498368229791115,0.5,0.498368229791115,0.5,0.5,0.498368229791115,0.5,0.498368229791115,0.496741784930259,0.501631770208885,0.496752452497194,0.503247547502806,0.498368229791115,0.501615811544286,0.184044932415456,0.462678012558645,-0.498368229791115,-0.0016264448608559,0.5,0.00326354041777022,0.401364137245432,8.09016861096332,2.73856413500357,0.5,84.4143642845758
CBC_1003,CBC_1003_MSI_AV_v3_Vset4_Aset3_2023-06-14_14h56.33.053.csv,1,16,1,3,b,1,0,2,aud,B,27,1,1B,3B,1,0,b,2.04630210000005,1,0,1,1,1B,3B,B13,3.43398720448515,0.501615811544286,0.496741784930259,0.5,0.5,0.5,0.499994674651971,0.498368229791115,0.5,0.498368229791115,0.5,0.5,0.498368229791115,0.5,0.498368229791115,0.496741784930259,0.501631770208885,0.499994674651971,0.500005325348029,0.499994674651971,0.5,0.141883754298381,0.500137778132563,0.500005325348029,0.00163178758837364,0.5,0.00326354041777022,0.401364137245432,8.09016861096332,2.73856413500357,0.5,84.4143642845758
CBC_1003,CBC_1003_MSI_AV_v3_Vset4_Aset3_2023-06-14_14h56.33.053.csv,1,17,3,2,z,0,1,1,aud,C,63,1,3C,2C,0,1,b,2.87544449999996,1,0,0,0,3C,2C,C32,3.46573590279973,0.501615811544286,0.496741784930259,0.5,0.5,0.5,0.501626462240344,0.498368229791115,0.5,0.498368229791115,0.5,0.5,0.498368229791115,0.5,0.498368229791115,0.496741784930259,0.501631770208885,0.498368229791115,0.501631770208885,0.498368229791115,0.5,0.0792107292584476,0.481671011142072,-0.498368229791115,-0.0016264448608559,0.5,0.00326354041777022,0.401364137245432,8.09016861096332,2.73856413500357,0.5,84.4143642845758
CBC_1003,CBC_1003_MSI_AV_v3_Vset4_Aset3_2023-06-14_14h56.33.053.csv,1,18,2,3,z,0,1,3,aud,D,63,0,2D,3D,1,0,z,2.12884309999981,0,1,1,0,3D,2D,D23,2.11021320034659,0.501615811544286,0.496741784930259,0.5,0.5,0.5,0.501626462240344,0.498368229791115,0.5,0.498368229791115,0.5,0.5,0.496741784930259,0.5,0.498368229791115,0.496741784930259,0.501631770208885,0.504889881287315,0.495110118712685,0.501631770208885,0.496741784930259,0.149248438509996,0.555099286955685,-0.501631770208885,-0.00163709555691432,0.5,0.00326354041777022,0.401364137245432,8.09016861096332,2.73856413500357,0.5,84.4143642845758
CBC_1003,CBC_1003_MSI_AV_v3_Vset4_Aset3_2023-06-14_14h56.33.053.csv,1,19,1,0,b,1,0,2,aud,B,63,1,1B,0B,1,0,z,3.06501950000029,0,1,0,0,0B,1B,B10,2.83321334405622,0.501615811544286,0.496741784930259,0.5,0.5,0.5,0.501626462240344,0.498368229791115,0.5,0.498368229791115,0.5,0.5,0.496741784930259,0.5,0.498368229791115,0.496741784930259,0.499994674651971,0.498373537759656,0.501626462240344,0.5,0.501626462240344,0.0700457859454887,0.482545817128666,-0.5,-0.00163177020888511,0.5,0.00326354041777022,0.401364137245432,8.09016861096332,2.73856413500357,0.5,84.4143642845758
CBC_1003,CBC_1003_MSI_AV_v3_Vset4_Aset3_2023-06-14_14h56.33.053.csv,1,20,2,0,z,0,1,0,aud,A,27,1,2A,0A,0,1,z,2.34102950000033,0,1,1,1,0A,2A,A20,3.55534806148941,0.501615811544286,0.496741784930259,0.5,0.5,0.498368229791115,0.501626462240344,0.498368229791115,0.5,0.498368229791115,0.5,0.5,0.496741784930259,0.5,0.498368229791115,0.496741784930259,0.499994674651971,0.501615811544286,0.498384188455714,0.501615811544286,0.5,0.120890664350398,0.517133846080418,0.498384188455714,0.00162649694260283,0.5,0.00326354041777022,0.401364137245432,8.09016861096332,2.73856413500357,0.5,84.4143642845758
CBC_1003,CBC_1003_MSI_AV_v3_Vset4_Aset3_2023-06-14_14h56.33.053.csv,1,21,0,3,z,0,1,3,aud,D,9,1,0D,3D,0,1,z,3.2357020999998,0,1,1,1,3D,0D,D03,3.58351893845611,0.503242308486889,0.496741784930259,0.5,0.5,0.498368229791115,0.501626462240344,0.498368229791115,0.5,0.498368229791115,0.5,0.5,0.496741784930259,0.5,0.498368229791115,0.496741784930259,0.499994674651971,0.499994674651971,0.500005325348029,0.499994674651971,0.5,0.064742692245403,0.498896863686727,0.500005325348029,0.00163178758837364,0.5,0.00326354041777022,0.401364137245432,8.09016861096332,2.73856413500357,0.5,84.4143642845758
CBC_1003,CBC_1003_MSI_AV_v3_Vset4_Aset3_2023-06-14_14h56.33.053.csv,1,22,2,3,b,1,0,1,aud,C,63,1,2C,3C,1,0,z,3.26577190000035,0,1,0,0,3C,2C,C23,2.91777073208428,0.503242308486889,0.496741784930259,0.5,0.5,0.498368229791115,0.501626462240344,0.498368229791115,0.5,0.498368229791115,0.5,0.5,0.496741784930259,0.5,0.498368229791115,0.496741784930259,0.501626462240344,0.496741784930259,0.503258215069741,0.496741784930259,0.5,0.0589067308723794,0.463645661453289,-0.496741784930259,-0.00162113689231522,0.5,0.00326354041777022,0.401364137245432,8.09016861096332,2.73856413500357,0.5,84.4143642845758
CBC_1003,CBC_1003_MSI_AV_v3_Vset4_Aset3_2023-06-14_14h56.33.053.csv,1,23,3,1,z,0,1,2,aud,B,27,1,3B,1B,0,1,b,1.53063940000038,1,0,0,0,3B,1B,B31,3.63758615972639,0.503242308486889,0.496741784930259,0.5,0.5,0.498368229791115,0.501626462240344,0.498368229791115,0.5,0.498368229791115,0.5,0.5,0.495120648037944,0.5,0.498368229791115,0.496741784930259,0.501626462240344,0.498373537759656,0.501626462240344,0.5,0.501626462240344,0.19077069254672,0.482397058024587,-0.5,-0.00163177020888511,0.5,0.00326354041777022,0.401364137245432,8.09016861096332,2.73856413500357,0.5,84.4143642845758
CBC_1003,CBC_1003_MSI_AV_v3_Vset4_Aset3_2023-06-14_14h56.33.053.csv,1,24,3,2,z,0,1,1,aud,C,63,1,3C,2C,0,1,b,3.25191650000033,1,0,0,0,3C,2C,C32,2.9704144655697,0.503242308486889,0.496741784930259,0.5,0.5,0.498368229791115,0.501626462240344,0.498368229791115,0.498368229791115,0.498368229791115,0.5,0.5,0.495120648037944,0.5,0.498368229791115,0.496741784930259,0.501626462240344,0.495120648037944,0.504879351962056,0.495120648037944,0.5,0.0570208569313856,0.44549740520279,-0.495120648037944,-0.00161584624654441,0.5,0.00326354041777022,0.401364137245432,8.09016861096332,2.73856413500357,0.5,84.4143642845758
CBC_1003,CBC_1003_MSI_AV_v3_Vset4_Aset3_2023-06-14_14h56.33.053.csv,1,25,2,3,z,0,1,3,aud,D,63,1,2D,3D,0,1,z,1.84318369999983,0,1,1,1,3D,2D,D23,2.07944154167984,0.503242308486889,0.496741784930259,0.5,0.5,0.498368229791115,0.501626462240344,0.498368229791115,0.498368229791115,0.498368229791115,0.5,0.5,0.493504801791399,0.5,0.498368229791115,0.496741784930259,0.501626462240344,0.504884573769552,0.495115426230448,0.501626462240344,0.496741784930259,0.179719869793318,0.554059196915849,0.498373537759656,0.00162646218362577,0.5,0.00326354041777022,0.401364137245432,8.09016861096332,2.73856413500357,0.5,84.4143642845758
CBC_1003,CBC_1003_MSI_AV_v3_Vset4_Aset3_2023-06-14_14h56.33.053.csv,1,26,1,0,b,1,0,2,aud,B,63,1,1B,0B,1,0,z,4.24118630000021,0,1,0,0,0B,1B,B10,2.6149597780362,0.503242308486889,0.496741784930259,0.5,0.5,0.498368229791115,0.501626462240344,0.498368229791115,0.498368229791115,0.498368229791115,0.5,0.5,0.493504801791399,0.5,0.498368229791115,0.496741784930259,0.50325292442397,0.496741802139964,0.503258197860036,0.498368229791115,0.501626462240344,0.0310040951803859,0.464236174610374,-0.498368229791115,-0.0016264448608559,0.5,0.00326354041777022,0.401364137245432,8.09016861096332,2.73856413500357,0.5,84.4143642845758
CBC_1003,CBC_1003_MSI_AV_v3_Vset4_Aset3_2023-06-14_14h56.33.053.csv,1,27,0,3,b,1,0,0,aud,A,9,1,0A,3A,NaN,NaN,[],NaN,NaN,NaN,NaN,NaN,,,A03,3.73766961828337,0.503242308486889,0.496741784930259,0.5,0.5,0.496741784930259,0.501626462240344,0.498368229791115,0.498368229791115,0.498368229791115,0.5,0.5,0.493504801791399,0.5,0.498368229791115,0.496741784930259,0.50325292442397,0,0,0,0,NaN,0,0,0,0.5,0.00326354041777022,0.401364137245432,8.09016861096332,2.73856413500357,0.5,84.4143642845758
CBC_1003,CBC_1003_MSI_AV_v3_Vset4_Aset3_2023-06-14_14h56.33.053.csv,1,28,2,3,z,0,1,3,aud,D,63,0,2D,3D,1,0,z,1.06339140000046,0,1,1,0,3D,2D,D23,1.96944064646551,0.503242308486889,0.496741784930259,0.5,0.5,0.496741784930259,0.501626462240344,0.498368229791115,0.498368229791115,0.498368229791115,0.5,0.5,0.493504801791399,0.5,0.498368229791115,0.496741784930259,0.50325292442397,0.506510863466244,0.493489136533756,0.50325292442397,0.496741784930259,0.283130274652562,0.571445781709401,-0.50325292442397,-0.00164238625921869,0.5,0.00326354041777022,0.401364137245432,8.09016861096332,2.73856413500357,0.5,84.4143642845758
CBC_1003,CBC_1003_MSI_AV_v3_Vset4_Aset3_2023-06-14_14h56.33.053.csv,1,29,2,0,b,1,0,1,aud,C,27,1,2C,0C,1,0,b,2.92296540000007,1,0,1,1,2C,0C,C20,2.68557734525015,0.503242308486889,0.496741784930259,0.5,0.5,0.496741784930259,0.501626462240344,0.498368229791115,0.498368229791115,0.498368229791115,0.5,0.5,0.493504801791399,0.5,0.498368229791115,0.496741784930259,0.501610538164751,0.501631770208885,0.498368229791115,0.5,0.498368229791115,0.082612705208967,0.518322208603035,0.5,0.00163177020888511,0.5,0.00326354041777022,0.401364137245432,8.09016861096332,2.73856413500357,0.5,84.4143642845758
CBC_1003,CBC_1003_MSI_AV_v3_Vset4_Aset3_2023-06-14_14h56.33.053.csv,1,30,1,0,z,0,1,0,aud,A,63,0,1A,0A,NaN,NaN,[],NaN,NaN,NaN,NaN,NaN,,,A10,3.11351530921037,0.503242308486889,0.496741784930259,0.5,0.5,0.496741784930259,0.501626462240344,0.498368229791115,0.498368229791115,0.498368229791115,0.5,0.501631770208885,0.493504801791399,0.5,0.498368229791115,0.496741784930259,0.501610538164751,0,0,0,0,NaN,0,0,0,0.5,0.00326354041777022,0.401364137245432,8.09016861096332,2.73856413500357,0.5,84.4143642845758
CBC_1003,CBC_1003_MSI_AV_v3_Vset4_Aset3_2023-06-14_14h56.33.053.csv,1,31,1,0,b,1,0,2,aud,B,63,1,1B,0B,1,0,b,2.01572209999995,1,0,1,1,1B,0B,B10,2.4423470353692,0.503242308486889,0.496741784930259,0.5,0.5,0.496741784930259,0.501626462240344,0.498368229791115,0.498368229791115,0.498368229791115,0.5,0.501631770208885,0.493504801791399,0.5,0.498368229791115,0.496741784930259,0.501610538164751,0.504884573769552,0.495115426230448,0.501626462240344,0.496741784930259,0.160305018165675,0.553429711593964,0.498373537759656,0.00162646218362577,0.5,0.00326354041777022,0.401364137245432,8.09016861096332,2.73856413500357,0.5,84.4143642845758
CBC_1003,CBC_1003_MSI_AV_v3_Vset4_Aset3_2023-06-14_14h56.33.053.csv,1,32,3,1,b,1,0,3,aud,D,27,1,3D,1D,1,0,b,1.60593920000019,1,0,1,1,3D,1D,D31,3.85014760171006,0.503242308486889,0.496741784930259,0.5,0.5,0.496741784930259,0.50325292442397,0.498368229791115,0.498368229791115,0.498368229791115,0.5,0.501631770208885,0.493504801791399,0.5,0.498368229791115,0.496741784930259,0.501610538164751,0.503242274290483,0.496757725709517,0.501610538164751,0.498368229791115,0.202680097915885,0.536765256866339,0.498389461835249,0.00162651415249008,0.5,0.00326354041777022,0.401364137245432,8.09016861096332,2.73856413500357,0.5,84.4143642845758
CBC_1003,CBC_1003_MSI_AV_v3_Vset4_Aset3_2023-06-14_14h56.33.053.csv,1,33,3,2,z,0,1,1,aud,C,63,1,3C,2C,0,1,b,3.06567630000018,1,0,0,0,3C,2C,C32,2.77258872223978,0.503242308486889,0.496741784930259,0.5,0.5,0.496741784930259,0.50325292442397,0.498368229791115,0.498368229791115,0.498368229791115,0.5,0.501631770208885,0.493504801791399,0.5,0.498368229791115,0.496741784930259,0.503237052317241,0.491873376108164,0.508126623891836,0.493504801791399,0.501631770208885,0.0592166488575078,0.410850629682032,-0.493504801791399,-0.00161057286700991,0.5,0.00326354041777022,0.401364137245432,8.09016861096332,2.73856413500357,0.5,84.4143642845758
CBC_1003,CBC_1003_MSI_AV_v3_Vset4_Aset3_2023-06-14_14h56.33.053.csv,1,34,1,0,b,1,0,2,aud,B,63,0,1B,0B,0,1,z,1.33993650000002,0,1,0,1,0B,1B,B10,2.28238238567653,0.503242308486889,0.496741784930259,0.5,0.5,0.496741784930259,0.50325292442397,0.498368229791115,0.498368229791115,0.498368229791115,0.5,0.501631770208885,0.491894228924389,0.5,0.498368229791115,0.496741784930259,0.503237052317241,0.493489136533756,0.506510863466244,0.496741784930259,0.50325292442397,0.190405406881952,0.4284879690483,0.503258215069741,0.001642403525455,0.5,0.00326354041777022,0.401364137245432,8.09016861096332,2.73856413500357,0.5,84.4143642845758
CBC_1003,CBC_1003_MSI_AV_v3_Vset4_Aset3_2023-06-14_14h56.33.053.csv,1,35,0,1,b,1,0,0,aud,A,63,1,0A,1A,1,0,b,3.1695009,1,0,1,1,0A,1A,A01,2.52572864430826,0.503242308486889,0.496741784930259,0.5,0.5,0.498384188455714,0.50325292442397,0.498368229791115,0.498368229791115,0.498368229791115,0.5,0.501631770208885,0.491894228924389,0.5,0.498368229791115,0.496741784930259,0.503237052317241,0.506500248878515,0.493499751121485,0.503242308486889,0.496741784930259,0.0770820886886654,0.571498721785405,0.496757691513111,0.00162118880409127,0.5,0.00326354041777022,0.401364137245432,8.09016861096332,2.73856413500357,0.5,84.4143642845758
CBC_1003,CBC_1003_MSI_AV_v3_Vset4_Aset3_2023-06-14_14h56.33.053.csv,1,36,1,2,z,0,1,1,aud,C,9,1,1C,2C,0,1,b,1.85435270000016,1,0,0,0,1C,2C,C12,3.93182563272433,0.50486349729098,0.496741784930259,0.5,0.5,0.498384188455714,0.50325292442397,0.498368229791115,0.498368229791115,0.498368229791115,0.5,0.501631770208885,0.491894228924389,0.5,0.498368229791115,0.496741784930259,0.503237052317241,0.498368229791115,0.501631770208885,0.5,0.501631770208885,0.154901747452854,0.481604183634657,-0.5,-0.00163177020888511,0.5,0.00326354041777022,0.401364137245432,8.09016861096332,2.73856413500357,0.5,84.4143642845758
CBC_1003,CBC_1003_MSI_AV_v3_Vset4_Aset3_2023-06-14_14h56.33.053.csv,1,37,1,0,z,0,1,0,aud,A,63,1,1A,0A,0,1,z,2.51834450000024,0,1,1,1,0A,1A,A10,2.85263142991332,0.50486349729098,0.496741784930259,0.5,0.5,0.498384188455714,0.50325292442397,0.498368229791115,0.498368229791115,0.498368229791115,0.498368229791115,0.501631770208885,0.491894228924389,0.5,0.498368229791115,0.496741784930259,0.503237052317241,0.508121197596332,0.491878802403668,0.50486349729098,0.496741784930259,0.122161470035325,0.588449898250369,0.49513650270902,0.00161589798890428,0.5,0.00326354041777022,0.401364137245432,8.09016861096332,2.73856413500357,0.5,84.4143642845758
CBC_1003,CBC_1003_MSI_AV_v3_Vset4_Aset3_2023-06-14_14h56.33.053.csv,1,38,3,1,b,1,0,3,aud,D,27,1,3D,1D,1,0,z,0.892384900000252,0,1,0,0,1D,3D,D31,3.27714473299218,0.506479395279884,0.496741784930259,0.5,0.5,0.498384188455714,0.50325292442397,0.498368229791115,0.498368229791115,0.498368229791115,0.498368229791115,0.501631770208885,0.491894228924389,0.5,0.498368229791115,0.496741784930259,0.503237052317241,0.495131280342627,0.504868719657373,0.498368229791115,0.503237052317241,0.210591884799997,0.445566845208134,-0.498368229791115,-0.0016264448608559,0.5,0.00326354041777022,0.401364137245432,8.09016861096332,2.73856413500357,0.5,84.4143642845758
CBC_1003,CBC_1003_MSI_AV_v3_Vset4_Aset3_2023-06-14_14h56.33.053.csv,1,39,0,1,z,0,1,2,aud,B,63,1,0B,1B,0,1,b,2.29401530000041,1,0,0,0,0B,1B,B01,3.29583686600433,0.506479395279884,0.496741784930259,0.5,0.5,0.498384188455714,0.50325292442397,0.498368229791115,0.498368229791115,0.498368229791115,0.498368229791115,0.501631770208885,0.491894228924389,0.5,0.496741784930259,0.496741784930259,0.503237052317241,0.495131366392094,0.504868633607906,0.498384188455714,0.50325292442397,0.107659093814055,0.446538551364831,-0.498384188455714,-0.00162649694260283,0.5,0.00326354041777022,0.401364137245432,8.09016861096332,2.73856413500357,0.5,84.4143642845758
CBC_1003,CBC_1003_MSI_AV_v3_Vset4_Aset3_2023-06-14_14h56.33.053.csv,1,40,2,3,b,1,0,1,aud,C,63,0,2C,3C,0,1,b,1.35355920000029,1,0,1,0,2C,3C,C23,2.90872089656436,0.506479395279884,0.496741784930259,0.5,0.5,0.496757691513111,0.50325292442397,0.498368229791115,0.498368229791115,0.498368229791115,0.498368229791115,0.501631770208885,0.491894228924389,0.5,0.496741784930259,0.496741784930259,0.503237052317241,0.50973702612743,0.49026297387257,0.501631770208885,0.491894228924389,0.269105025457172,0.606372283010702,-0.501631770208885,-0.00163709555691432,0.5,0.00326354041777022,0.401364137245432,8.09016861096332,2.73856413500357,0.5,84.4143642845758
CBC_1003,CBC_1003_MSI_AV_v3_Vset4_Aset3_2023-06-14_14h56.33.053.csv,1,41,2,0,z,0,1,0,aud,A,27,1,2A,0A,0,1,z,1.23369890000004,0,1,1,1,0A,2A,A20,3.3322045101752,0.506479395279884,0.496741784930259,0.5,0.5,0.496757691513111,0.50325292442397,0.498368229791115,0.498368229791115,0.498368229791115,0.498368229791115,0.499994674651971,0.491894228924389,0.5,0.496741784930259,0.496741784930259,0.503237052317241,0.506479395279884,0.493520604720116,0.506479395279884,0.5,0.267829404199907,0.57111133562149,0.493520604720116,0.0016106244405065,0.5,0.00326354041777022,0.401364137245432,8.09016861096332,2.73856413500357,0.5,84.4143642845758
CBC_1003,CBC_1003_MSI_AV_v3_Vset4_Aset3_2023-06-14_14h56.33.053.csv,1,42,3,2,b,1,0,3,aud,D,63,1,3D,2D,NaN,NaN,[],NaN,NaN,NaN,NaN,NaN,,,D32,4.04305126783455,0.508090019720391,0.496741784930259,0.5,0.5,0.496757691513111,0.50325292442397,0.498368229791115,0.498368229791115,0.498368229791115,0.498368229791115,0.499994674651971,0.491894228924389,0.5,0.496741784930259,0.496741784930259,0.503237052317241,0,0,0,0,NaN,0,0,0,0.5,0.00326354041777022,0.401364137245432,8.09016861096332,2.73856413500357,0.5,84.4143642845758
CBC_1003,CBC_1003_MSI_AV_v3_Vset4_Aset3_2023-06-14_14h56.33.053.csv,1,43,3,1,z,0,1,2,aud,B,27,1,3B,1B,0,1,z,0.599104899999929,0,1,1,1,1B,3B,B31,3.36729582998647,0.508090019720391,0.496741784930259,0.5,0.5,0.496757691513111,0.50325292442397,0.498368229791115,0.498368229791115,0.498368229791115,0.498368229791115,0.499994674651971,0.491894228924389,0.5,0.496741784930259,0.496741784930259,0.503237052317241,0.504884590922729,0.495115409077271,0.50325292442397,0.498368229791115,0.0603732789979663,0.553665140239535,0.49674707557603,0.00162115415855153,0.5,0.00326354041777022,0.401364137245432,8.09016861096332,2.73856413500357,0.5,84.4143642845758
CBC_1003,CBC_1003_MSI_AV_v3_Vset4_Aset3_2023-06-14_14h56.33.053.csv,1,44,2,3,b,1,0,1,aud,C,63,1,2C,3C,1,0,z,2.5320955000002,0,1,0,0,3C,2C,C23,2.69124308278583,0.508090019720391,0.496741784930259,0.5,0.5,0.496757691513111,0.504874078582522,0.498368229791115,0.498368229791115,0.498368229791115,0.498368229791115,0.499994674651971,0.491894228924389,0.5,0.496741784930259,0.496741784930259,0.503237052317241,0.491899552873761,0.508100447126239,0.491894228924389,0.499994674651971,0.0845234818768084,0.410910176290711,-0.491894228924389,-0.00160531669736266,0.5,0.00326354041777022,0.401364137245432,8.09016861096332,2.73856413500357,0.5,84.4143642845758
CBC_1003,CBC_1003_MSI_TV_v3_Vset5_Tset3_2023-06-14_16h21.52.910.csv,2,1,1,0,b,1,0,2,tac,B,63,1,1B,0B,1,0,b,2.06758029999946,1,0,1,1,1B,0B,B10,2.77258872223978,0.5,0.5,0.5,0.5,0.5,0.5,0.5,0.5,0.5,0.5,0.5,0.5,0.5,0.5,0.5,0.5,0.5,0.5,0.5,0.5,0.171198640162628,0.499629109685084,0.5,0.490133588158483,0.5,0.980267176316966,0.702640795331051,0.328278223274501,2.54546894550148,0.5,72.0935343764799
CBC_1003,CBC_1003_MSI_TV_v3_Vset5_Tset3_2023-06-14_16h21.52.910.csv,2,2,0,1,b,1,0,0,tac,A,63,1,0A,1A,1,0,b,1.96458810000149,1,0,1,1,0A,1A,A01,2.83321334405622,0.5,0.5,0.5,0.5,0.5,0.990133588158483,0.5,0.5,0.5,0.5,0.5,0.5,0.5,0.5,0.5,0.5,0.5,0.5,0.5,0.5,0.185351519279222,0.50044431903293,0.5,0.490133588158483,0.5,0.980267176316966,0.702640795331051,0.328278223274501,2.54546894550148,0.5,72.0935343764799
CBC_1003,CBC_1003_MSI_TV_v3_Vset5_Tset3_2023-06-14_16h21.52.910.csv,2,3,1,2,z,0,1,1,tac,C,9,1,1C,2C,0,1,z,2.44977979999931,0,1,1,1,2C,1C,C12,2.89037175789616,0.990133588158483,0.5,0.5,0.5,0.5,0.990133588158483,0.5,0.5,0.5,0.5,0.5,0.5,0.5,0.5,0.5,0.5,0.5,0.5,0.5,0.5,0.127976947126174,0.499355135732015,0.5,0.490133588158483,0.5,0.980267176316966,0.702640795331051,0.328278223274501,2.54546894550148,0.5,72.0935343764799
CBC_1003,CBC_1003_MSI_TV_v3_Vset5_Tset3_2023-06-14_16h21.52.910.csv,2,4,1,0,z,0,1,0,tac,A,63,1,1A,0A,0,1,z,3.12010109999937,0,1,1,1,0A,1A,A10,2.94443897916644,0.990133588158483,0.5,0.5,0.5,0.5,0.990133588158483,0.5,0.5,0.5,0.5,0.990133588158483,0.5,0.5,0.5,0.5,0.5,0.990133588158483,0.00986641184151682,0.990133588158483,0.5,0.10223901278076,0.694305570300499,0.00986641184151682,0.00967171967626397,0.5,0.980267176316966,0.702640795331051,0.328278223274501,2.54546894550148,0.5,72.0935343764799
CBC_1003,CBC_1003_MSI_TV_v3_Vset5_Tset3_2023-06-14_16h21.52.910.csv,2,5,3,1,b,1,0,3,tac,D,27,1,3D,1D,1,0,b,2.90003900000011,1,0,1,1,3D,1D,D31,2.99573227355399,0.999805307834747,0.5,0.5,0.5,0.5,0.990133588158483,0.5,0.5,0.5,0.5,0.990133588158483,0.5,0.5,0.5,0.5,0.5,0.5,0.5,0.5,0.5,0.0908007462067941,0.499192373238047,0.5,0.490133588158483,0.5,0.980267176316966,0.702640795331051,0.328278223274501,2.54546894550148,0.5,72.0935343764799
CBC_1003,CBC_1003_MSI_TV_v3_Vset5_Tset3_2023-06-14_16h21.52.910.csv,2,6,0,1,z,0,1,2,tac,B,63,1,0B,1B,0,1,z,1.76852459999827,0,1,1,1,1B,0B,B01,3.04452243772342,0.999805307834747,0.5,0.5,0.5,0.5,0.990133588158483,0.5,0.5,0.5,0.5,0.990133588158483,0.5,0.5,0.5,0.5,0.990133588158483,0.990133588158483,0.00986641184151682,0.990133588158483,0.5,0.306359873628224,0.695718014283543,0.00986641184151682,0.00967171967626397,0.5,0.980267176316966,0.702640795331051,0.328278223274501,2.54546894550148,0.5,72.0935343764799
CBC_1003,CBC_1003_MSI_TV_v3_Vset5_Tset3_2023-06-14_16h21.52.910.csv,2,7,2,3,b,1,0,1,tac,C,63,1,2C,3C,1,0,z,2.23604449999948,0,1,0,0,3C,2C,C23,3.09104245335832,0.999805307834747,0.5,0.5,0.5,0.5,0.999805307834747,0.5,0.5,0.5,0.5,0.990133588158483,0.5,0.5,0.5,0.5,0.990133588158483,0.00986641184151682,0.990133588158483,0.5,0.990133588158483,0.0926664579044566,0.306632935167725,-0.5,-0.490133588158483,0.5,0.980267176316966,0.702640795331051,0.328278223274501,2.54546894550148,0.5,72.0935343764799
CBC_1003,CBC_1003_MSI_TV_v3_Vset5_Tset3_2023-06-14_16h21.52.910.csv,2,8,2,0,z,0,1,0,tac,A,27,1,2A,0A,0,1,z,1.47161170000072,0,1,1,1,0A,2A,A20,3.13549421592915,0.999805307834747,0.5,0.5,0.5,0.5,0.999805307834747,0.5,0.5,0.5,0.5,0.990133588158483,0.00986641184151676,0.5,0.5,0.5,0.990133588158483,0.999805307834747,0.000194692165252808,0.999805307834747,0.5,0.382654851671363,0.697877702190757,0.000194692165252808,0.000190850339083406,0.5,0.980267176316966,0.702640795331051,0.328278223274501,2.54546894550148,0.5,72.0935343764799
CBC_1003,CBC_1003_MSI_TV_v3_Vset5_Tset3_2023-06-14_16h21.52.910.csv,2,9,3,2,b,1,0,3,tac,D,63,1,3D,2D,1,0,b,3.14304430000084,1,0,1,1,3D,2D,D32,3.17805383034795,0.999996158173831,0.5,0.5,0.5,0.5,0.999805307834747,0.5,0.5,0.5,0.5,0.990133588158483,0.00986641184151676,0.5,0.5,0.5,0.990133588158483,0.990133588158483,0.00986641184151682,0.990133588158483,0.5,0.10034753470834,0.69429585822374,0.00986641184151682,0.00967171967626397,0.5,0.980267176316966,0.702640795331051,0.328278223274501,2.54546894550148,0.5,72.0935343764799
CBC_1003,CBC_1003_MSI_TV_v3_Vset5_Tset3_2023-06-14_16h21.52.910.csv,2,10,3,1,z,0,1,2,tac,B,27,1,3B,1B,0,1,z,1.62198790000002,0,1,1,1,1B,3B,B31,3.2188758248682,0.999996158173831,0.5,0.5,0.5,0.5,0.999805307834747,0.5,0.5,0.5,0.5,0.990133588158483,0.00986641184151676,0.5,0.5,0.5,0.999805307834747,0.999805307834747,0.000194692165252808,0.999805307834747,0.5,0.343495776640756,0.696641228546407,0.000194692165252808,0.000190850339083406,0.5,0.980267176316966,0.702640795331051,0.328278223274501,2.54546894550148,0.5,72.0935343764799
CBC_1003,CBC_1003_MSI_TV_v3_Vset5_Tset3_2023-06-14_16h21.52.910.csv,2,11,3,2,z,0,1,1,tac,C,63,1,3C,2C,0,1,b,2.50878080000075,1,0,0,0,3C,2C,C32,3.25809653802148,0.999996158173831,0.5,0.5,0.5,0.5,0.999996158173831,0.5,0.5,0.5,0.5,0.990133588158483,0.00986641184151676,0.5,0.5,0.5,0.999805307834747,9.92859444672918e-05,0.999900714055533,0.00986641184151676,0.990133588158483,0.0730297170572596,0.301816991820539,-0.00986641184151676,-0.00967171967626392,0.5,0.980267176316966,0.702640795331051,0.328278223274501,2.54546894550148,0.5,72.0935343764799
CBC_1003,CBC_1003_MSI_TV_v3_Vset5_Tset3_2023-06-14_16h21.52.910.csv,2,12,1,3,b,1,0,2,tac,B,27,1,1B,3B,1,0,b,1.59334250000029,1,0,1,1,1B,3B,B13,3.29583686600433,0.999996158173831,0.5,0.5,0.5,0.5,0.999996158173831,0.5,0.5,0.5,0.5,0.990133588158483,0.000194692165252844,0.5,0.5,0.5,0.999805307834747,0.999996158173831,3.84182616941509e-06,0.999996158173831,0.5,0.351668111208118,0.69790487695402,3.84182616941509e-06,3.76601609099315e-06,0.5,0.980267176316966,0.702640795331051,0.328278223274501,2.54546894550148,0.5,72.0935343764799
CBC_1003,CBC_1003_MSI_TV_v3_Vset5_Tset3_2023-06-14_16h21.52.910.csv,2,13,3,2,z,0,1,1,tac,C,63,1,3C,2C,0,1,z,1.92053550000128,0,1,1,1,2C,3C,C32,2.63905732961526,0.999996158173831,0.5,0.5,0.5,0.5,0.999999924189922,0.5,0.5,0.5,0.5,0.990133588158483,0.000194692165252844,0.5,0.5,0.5,0.999805307834747,0.999998059571517,1.94042848269437e-06,0.990133588158483,0.000194692165252844,0.272380289541461,0.697861788414094,0.00986641184151682,0.00967171967626397,0.5,0.980267176316966,0.702640795331051,0.328278223274501,2.54546894550148,0.5,72.0935343764799
CBC_1003,CBC_1003_MSI_TV_v3_Vset5_Tset3_2023-06-14_16h21.52.910.csv,2,14,3,2,b,1,0,3,tac,D,63,1,3D,2D,1,0,z,3.4611447999996,0,1,0,0,2D,3D,D32,2.67414864942653,0.999996158173831,0.5,0.5,0.5,0.5,0.999999924189922,0.5,0.5,0.5,0.5,0.999805307834747,0.000194692165252844,0.5,0.5,0.5,0.999805307834747,0.000194692165252808,0.999805307834747,0.5,0.999805307834747,0.0337130077696478,0.302800166898453,-0.5,-0.490133588158483,0.5,0.980267176316966,0.702640795331051,0.328278223274501,2.54546894550148,0.5,72.0935343764799
CBC_1003,CBC_1003_MSI_TV_v3_Vset5_Tset3_2023-06-14_16h21.52.910.csv,2,15,0,3,b,1,0,0,tac,A,9,1,0A,3A,NaN,NaN,None,NaN,NaN,NaN,NaN,NaN,,,A03,3.40119738166216,0.999996158173831,0.5,0.5,0.5,0.5,0.999999924189922,0.5,0.5,0.5,0.5,0.999805307834747,0.000194692165252844,0.5,0.5,0.00986641184151676,0.999805307834747,0,0,0,0,NaN,0,0,0,0.5,0.980267176316966,0.702640795331051,0.328278223274501,2.54546894550148,0.5,72.0935343764799
CBC_1003,CBC_1003_MSI_TV_v3_Vset5_Tset3_2023-06-14_16h21.52.910.csv,2,16,0,1,z,0,1,2,tac,B,63,0,0B,1B,1,0,z,1.57537570000022,0,1,1,0,1B,0B,B01,2.7408400239252,0.999996158173831,0.5,0.5,0.5,0.5,0.999999924189922,0.5,0.5,0.5,0.5,0.999805307834747,0.000194692165252844,0.5,0.5,0.00986641184151676,0.999805307834747,0.999999924189922,7.58100784370441e-08,0.999999924189922,0.5,0.356577769840661,0.698316441994168,-0.999999924189922,-0.980267102002835,0.5,0.980267176316966,0.702640795331051,0.328278223274501,2.54546894550148,0.5,72.0935343764799
CBC_1003,CBC_1003_MSI_TV_v3_Vset5_Tset3_2023-06-14_16h21.52.910.csv,2,17,2,3,z,0,1,3,tac,D,63,1,2D,3D,NaN,NaN,None,NaN,NaN,NaN,NaN,NaN,,,D23,3.46573590279973,0.999996158173831,0.5,0.5,0.5,0.5,0.0197328221870866,0.5,0.5,0.5,0.5,0.999805307834747,0.000194692165252844,0.5,0.5,0.00986641184151676,0.999805307834747,0,0,0,0,NaN,0,0,0,0.5,0.980267176316966,0.702640795331051,0.328278223274501,2.54546894550148,0.5,72.0935343764799
CBC_1003,CBC_1003_MSI_TV_v3_Vset5_Tset3_2023-06-14_16h21.52.910.csv,2,18,0,2,z,0,1,1,tac,C,27,1,0C,2C,0,1,b,0.839697699999306,1,0,0,0,0C,2C,C02,3.49650756146648,0.999996158173831,0.5,0.5,0.5,0.5,0.0197328221870866,0.5,0.5,0.5,0.5,0.999805307834747,0.000194692165252844,0.5,0.5,0.00986641184151676,0.999805307834747,0.000194692165252808,0.999805307834747,0.5,0.999805307834747,0.0177979709691577,0.303549184327933,-0.5,-0.490133588158483,0.5,0.980267176316966,0.702640795331051,0.328278223274501,2.54546894550148,0.5,72.0935343764799
CBC_1003,CBC_1003_MSI_TV_v3_Vset5_Tset3_2023-06-14_16h21.52.910.csv,2,19,0,1,b,1,0,0,tac,A,63,1,0A,1A,1,0,b,2.78568249999989,1,0,1,1,0A,1A,A01,2.83321334405622,0.999996158173831,0.5,0.5,0.5,0.5,0.0197328221870866,0.5,0.5,0.00986641184151676,0.5,0.999805307834747,0.000194692165252844,0.5,0.5,0.00986641184151676,0.999805307834747,0.999996158173831,3.84182616941509e-06,0.999996158173831,0.5,0.134549935234275,0.696623586792399,3.84182616941509e-06,3.76601609099315e-06,0.5,0.980267176316966,0.702640795331051,0.328278223274501,2.54546894550148,0.5,72.0935343764799
CBC_1003,CBC_1003_MSI_TV_v3_Vset5_Tset3_2023-06-14_16h21.52.910.csv,2,20,1,0,b,1,0,2,tac,B,63,1,1B,0B,1,0,b,2.00501360000089,1,0,1,1,1B,0B,B10,2.86220088092947,0.999999924189922,0.5,0.5,0.5,0.5,0.0197328221870866,0.5,0.5,0.00986641184151676,0.5,0.999805307834747,0.000194692165252844,0.5,0.5,0.00986641184151676,0.999805307834747,0.0197328221870866,0.980267177812913,0.0197328221870866,0.5,0.112603537018317,0.309157942387187,0.980267177812913,0.960923738430866,0.5,0.980267176316966,0.702640795331051,0.328278223274501,2.54546894550148,0.5,72.0935343764799
CBC_1003,CBC_1003_MSI_TV_v3_Vset5_Tset3_2023-06-14_16h21.52.910.csv,2,21,1,3,z,0,1,3,tac,D,27,1,1D,3D,0,1,z,1.36146440000084,0,1,1,1,3D,1D,D13,3.58351893845611,0.999999924189922,0.5,0.5,0.5,0.5,0.980656560617953,0.5,0.5,0.00986641184151676,0.5,0.999805307834747,0.000194692165252844,0.5,0.5,0.00986641184151676,0.999805307834747,0.999805307834747,0.000194692165252808,0.999805307834747,0.5,0.40655895183337,0.697032494258764,0.000194692165252808,0.000190850339083406,0.5,0.980267176316966,0.702640795331051,0.328278223274501,2.54546894550148,0.5,72.0935343764799
CBC_1003,CBC_1003_MSI_TV_v3_Vset5_Tset3_2023-06-14_16h21.52.910.csv,2,22,3,2,z,0,1,1,tac,C,63,1,3C,2C,0,1,z,2.24618920000103,0,1,1,1,2C,3C,C32,2.51230562397611,0.999999924189922,0.5,0.5,0.5,0.5,0.980656560617953,0.5,0.5,0.00986641184151676,0.5,0.999805307834747,0.000194692165252844,0.5,0.5,0.00986641184151676,0.999996158173831,0.999999962080198,3.79198017127334e-08,0.999805307834747,0.000194692165252844,0.209041232461847,0.697450968071152,0.000194692165252808,0.000190850339083406,0.5,0.980267176316966,0.702640795331051,0.328278223274501,2.54546894550148,0.5,72.0935343764799
CBC_1003,CBC_1003_MSI_TV_v3_Vset5_Tset3_2023-06-14_16h21.52.910.csv,2,23,0,1,b,1,0,0,tac,A,63,1,0A,1A,1,0,b,2.83759830000054,1,0,1,1,0A,1A,A01,2.53897387105828,0.999999924189922,0.5,0.5,0.5,0.5,0.980656560617953,0.5,0.5,0.00986641184151676,0.5,0.999996158173831,0.000194692165252844,0.5,0.5,0.00986641184151676,0.999996158173831,0.999999924189922,7.58100784370441e-08,0.999999924189922,0.5,0.129050543856653,0.697161136940905,7.58100784370441e-08,7.4314131525849e-08,0.5,0.980267176316966,0.702640795331051,0.328278223274501,2.54546894550148,0.5,72.0935343764799
CBC_1003,CBC_1003_MSI_TV_v3_Vset5_Tset3_2023-06-14_16h21.52.910.csv,2,24,2,3,z,0,1,3,tac,D,63,1,2D,3D,0,1,b,2.86264630000005,1,0,0,0,2D,3D,D23,2.9704144655697,0.999999998504053,0.5,0.5,0.5,0.5,0.980656560617953,0.5,0.5,0.00986641184151676,0.5,0.999996158173831,0.000194692165252844,0.5,0.5,0.00986641184151676,0.999996158173831,3.82828982253549e-08,0.999999961717102,0.00986641184151676,0.999996158173831,0.0547663629552453,0.302055089098459,-0.00986641184151676,-0.00967171967626392,0.5,0.980267176316966,0.702640795331051,0.328278223274501,2.54546894550148,0.5,72.0935343764799
CBC_1003,CBC_1003_MSI_TV_v3_Vset5_Tset3_2023-06-14_16h21.52.910.csv,2,25,2,0,b,1,0,1,tac,C,27,1,2C,0C,1,0,z,1.43064419999973,0,1,0,0,0C,2C,C20,3.68887945411394,0.999999998504053,0.5,0.5,0.5,0.5,0.980656560617953,0.5,0.5,0.00986641184151676,0.5,0.999996158173831,0.000194692165252844,0.5,0.5,0.000194692165252844,0.999996158173831,3.82828981848604e-08,0.999999961717102,0.00986641184151676,0.999996158173831,0.169789507067831,0.301882343588842,-0.00986641184151676,-0.00967171967626392,0.5,0.980267176316966,0.702640795331051,0.328278223274501,2.54546894550148,0.5,72.0935343764799
CBC_1003,CBC_1003_MSI_TV_v3_Vset5_Tset3_2023-06-14_16h21.52.910.csv,2,26,0,1,b,1,0,0,tac,A,63,1,0A,1A,1,0,z,2.30216199999995,0,1,0,0,1A,0A,A01,2.32727770558442,0.999999998504053,0.5,0.5,0.5,0.5,0.980656560617953,0.5,0.5,0.000194692165252844,0.5,0.999996158173831,0.000194692165252844,0.5,0.5,0.000194692165252844,0.999996158173831,1.49594692189225e-09,0.999999998504053,0.5,0.999999998504053,0.0866858147037271,0.302704059274825,-0.5,-0.490133588158483,0.5,0.980267176316966,0.702640795331051,0.328278223274501,2.54546894550148,0.5,72.0935343764799
CBC_1003,CBC_1003_MSI_TV_v3_Vset5_Tset3_2023-06-14_16h21.52.910.csv,2,27,1,3,b,1,0,2,tac,B,27,1,1B,3B,NaN,NaN,None,NaN,NaN,NaN,NaN,NaN,,,B13,3.04452243772342,0.999999998504053,0.00986641184151676,0.5,0.5,0.5,0.980656560617953,0.5,0.5,0.000194692165252844,0.5,0.999996158173831,0.000194692165252844,0.5,0.5,0.000194692165252844,0.999996158173831,0,0,0,0,NaN,0,0,0,0.5,0.980267176316966,0.702640795331051,0.328278223274501,2.54546894550148,0.5,72.0935343764799
CBC_1003,CBC_1003_MSI_TV_v3_Vset5_Tset3_2023-06-14_16h21.52.910.csv,2,28,3,2,z,0,1,1,tac,C,63,1,3C,2C,0,1,z,1.31882889999906,0,1,1,1,2C,3C,C32,2.37490575457367,0.999999998504053,0.00986641184151676,0.5,0.5,0.5,0.980656560617953,0.5,0.5,0.000194692165252844,0.5,0.999996158173831,0.000194692165252844,0.5,0.5,0.000194692165252844,0.999996158173831,0.999999999251878,7.48121981972464e-10,0.999996158173831,0.000194692165252844,0.414217397972112,0.697536839289902,3.84182616941509e-06,3.76601609099315e-06,0.5,0.980267176316966,0.702640795331051,0.328278223274501,2.54546894550148,0.5,72.0935343764799
CBC_1003,CBC_1003_MSI_TV_v3_Vset5_Tset3_2023-06-14_16h21.52.910.csv,2,29,3,2,b,1,0,3,tac,D,63,1,3D,2D,1,0,z,5.34942330000013,0,1,0,0,2D,3D,D32,2.68557734525015,0.999999998504053,0.00986641184151676,0.5,0.5,0.5,0.980656560617953,0.5,0.5,0.000194692165252844,0.5,0.999999924189922,0.000194692165252844,0.5,0.5,0.000194692165252844,0.999996158173831,7.48122008786822e-10,0.999999999251878,0.000194692165252844,0.999996158173831,0.00720171133045343,0.302017953812737,-0.000194692165252844,-0.000190850339083442,0.5,0.980267176316966,0.702640795331051,0.328278223274501,2.54546894550148,0.5,72.0935343764799
CBC_1003,CBC_1003_MSI_TV_v3_Vset5_Tset3_2023-06-14_16h21.52.910.csv,2,30,0,1,z,0,1,2,tac,B,63,1,0B,1B,0,1,z,2.24939740000082,0,1,1,1,1B,0B,B01,2.70805020110221,0.999999998504053,0.00986641184151676,0.5,0.5,0.5,0.980656560617953,0.5,0.5,0.000194692165252844,0.5,0.999999924189922,0.000194692165252844,0.5,0.5,3.8418261694024e-06,0.999996158173831,0.980656560617953,0.0193434393820471,0.980656560617953,0.5,0.20621944612448,0.689799458297972,0.0193434393820471,0.0189617387032977,0.5,0.980267176316966,0.702640795331051,0.328278223274501,2.54546894550148,0.5,72.0935343764799
CBC_1003,CBC_1003_MSI_TV_v3_Vset5_Tset3_2023-06-14_16h21.52.910.csv,2,31,2,0,z,0,1,0,tac,A,27,1,2A,0A,0,1,z,1.65177870000116,0,1,1,1,0A,2A,A20,3.13549421592915,0.999999998504053,0.00986641184151676,0.5,0.5,0.5,0.999618299321251,0.5,0.5,0.000194692165252844,0.5,0.999999924189922,0.000194692165252844,0.5,0.5,3.8418261694024e-06,0.999996158173831,0.999999998504053,1.49594692189225e-09,0.999999998504053,0.5,0.336576021856693,0.697797655741994,1.49594692189225e-09,1.46642766504338e-09,0.5,0.980267176316966,0.702640795331051,0.328278223274501,2.54546894550148,0.5,72.0935343764799
CBC_1003,CBC_1003_MSI_TV_v3_Vset5_Tset3_2023-06-14_16h21.52.910.csv,2,32,3,0,b,1,0,3,tac,D,9,1,3D,0D,1,0,z,2.65088389999983,0,1,0,0,0D,3D,D30,3.85014760171006,0.999999999970481,0.00986641184151676,0.5,0.5,0.5,0.999618299321251,0.5,0.5,0.000194692165252844,0.5,0.999999924189922,0.000194692165252844,0.5,0.5,3.8418261694024e-06,0.999996158173831,3.84182616941509e-06,0.999996158173831,0.5,0.999996158173831,0.0654117586808706,0.303431941686613,-0.5,-0.490133588158483,0.5,0.980267176316966,0.702640795331051,0.328278223274501,2.54546894550148,0.5,72.0935343764799
CBC_1003,CBC_1003_MSI_TV_v3_Vset5_Tset3_2023-06-14_16h21.52.910.csv,2,33,3,2,z,0,1,1,tac,C,63,1,3C,2C,0,1,z,2.24044700000013,0,1,1,1,2C,3C,C32,2.26176309847379,0.999999999970481,0.00986641184151676,0.5,0.5,0.5,0.999618299321251,0.5,0.5,0.000194692165252844,0.5,0.999999924189922,0.000194692165252844,0.00986641184151676,0.5,3.8418261694024e-06,0.999996158173831,0.999999999985237,1.47625035813937e-11,0.999999924189922,0.000194692165252844,0.209876208789934,0.696970624682217,7.58100784370441e-08,7.4314131525849e-08,0.5,0.980267176316966,0.702640795331051,0.328278223274501,2.54546894550148,0.5,72.0935343764799
CBC_1003,CBC_1003_MSI_TV_v3_Vset5_Tset3_2023-06-14_16h21.52.910.csv,2,34,0,1,z,0,1,2,tac,B,63,1,0B,1B,0,1,z,2.12841079999998,0,1,1,1,1B,0B,B01,2.50552593699074,0.999999999970481,0.00986641184151676,0.5,0.5,0.5,0.999618299321251,0.5,0.5,0.000194692165252844,0.5,0.999999998504053,0.000194692165252844,0.00986641184151676,0.5,3.8418261694024e-06,0.999996158173831,0.999618299321251,0.00038170067874943,0.999618299321251,0.5,0.230144096737133,0.697712744123103,0.00038170067874943,0.000374168646555974,0.5,0.980267176316966,0.702640795331051,0.328278223274501,2.54546894550148,0.5,72.0935343764799
CBC_1003,CBC_1003_MSI_TV_v3_Vset5_Tset3_2023-06-14_16h21.52.910.csv,2,35,0,1,b,1,0,0,tac,A,63,0,0A,1A,0,1,b,2.52756469999986,1,0,1,0,0A,1A,A01,2.30258509299405,0.999999999970481,0.00986641184151676,0.5,0.5,0.5,0.999992467967806,0.5,0.5,0.000194692165252844,0.5,0.999999998504053,0.000194692165252844,0.00986641184151676,0.5,3.8418261694024e-06,0.999996158173831,0.999999999999706,2.94098079223204e-13,0.999999999970481,0.00986641184151676,0.166113195397704,0.696957424514241,-0.999999999970481,-0.98026717628803,0.5,0.980267176316966,0.702640795331051,0.328278223274501,2.54546894550148,0.5,72.0935343764799
CBC_1003,CBC_1003_MSI_TV_v3_Vset5_Tset3_2023-06-14_16h21.52.910.csv,2,36,2,3,z,0,1,3,tac,D,63,1,2D,3D,0,1,z,2.18727330000002,0,1,1,1,3D,2D,D23,2.83321334405622,0.019732823682451,0.00986641184151676,0.5,0.5,0.5,0.999992467967806,0.5,0.5,0.000194692165252844,0.5,0.999999998504053,0.000194692165252844,0.00986641184151676,0.5,3.8418261694024e-06,0.999996158173831,0.99999999998524,1.47597417242422e-11,0.999996158173831,3.8418261694024e-06,0.21912485700863,0.69688682707164,3.84182616941509e-06,3.76601609099315e-06,0.5,0.980267176316966,0.702640795331051,0.328278223274501,2.54546894550148,0.5,72.0935343764799
CBC_1003,CBC_1003_MSI_TV_v3_Vset5_Tset3_2023-06-14_16h21.52.910.csv,2,37,1,2,b,1,0,2,tac,B,9,1,1B,2B,1,0,b,2.35160770000039,1,0,1,1,1B,2B,B12,3.95124371858143,0.019732823682451,0.00986641184151676,0.5,0.5,0.5,0.999992467967806,0.5,0.5,0.000194692165252844,0.5,0.999999998504053,0.000194692165252844,0.00986641184151676,0.5,3.8418261694024e-06,0.999999924189922,0.999992467967806,7.5320321935024e-06,0.999992467967806,0.5,0.19202307468245,0.698133779749779,7.5320321935024e-06,7.38340393025309e-06,0.5,0.980267176316966,0.702640795331051,0.328278223274501,2.54546894550148,0.5,72.0935343764799
CBC_1003,CBC_1003_MSI_TV_v3_Vset5_Tset3_2023-06-14_16h21.52.910.csv,2,38,2,0,z,0,1,0,tac,A,27,1,2A,0A,0,1,b,2.12313030000041,1,0,0,0,2A,0A,A20,2.87167962488401,0.019732823682451,0.00986641184151676,0.5,0.5,0.5,0.999999851371737,0.5,0.5,0.000194692165252844,0.5,0.999999998504053,0.000194692165252844,0.00986641184151676,0.5,3.8418261694024e-06,0.999999924189922,0.980267176317549,0.019732823682451,0.5,0.019732823682451,0.228402497230532,0.68983857627217,-0.5,-0.490133588158483,0.5,0.980267176316966,0.702640795331051,0.328278223274501,2.54546894550148,0.5,72.0935343764799
CBC_1003,CBC_1003_MSI_TV_v3_Vset5_Tset3_2023-06-14_16h21.52.910.csv,2,39,2,3,b,1,0,1,tac,C,63,1,2C,3C,1,0,z,2.03314940000018,0,1,0,0,3C,2C,C23,3.29583686600433,0.019732823682451,0.00986641184151676,0.00986641184151676,0.5,0.5,0.999999851371737,0.5,0.5,0.000194692165252844,0.5,0.999999998504053,0.000194692165252844,0.00986641184151676,0.5,3.8418261694024e-06,0.999999924189922,2.91322521661641e-13,0.999999999999709,0.000194692165252844,0.999999998504053,0.107654479358455,0.302084605062046,-0.000194692165252844,-0.000190850339083442,0.5,0.980267176316966,0.702640795331051,0.328278223274501,2.54546894550148,0.5,72.0935343764799
CBC_1003,CBC_1003_MSI_TV_v3_Vset5_Tset3_2023-06-14_16h21.52.910.csv,2,40,1,3,z,0,1,3,tac,D,27,1,1D,3D,0,1,b,1.5989969000002,1,0,0,0,1D,3D,D13,3.31418600467253,0.019732823682451,0.00986641184151676,0.00986641184151676,0.5,0.5,0.999999851371737,0.5,0.5,0.000194692165252844,0.5,0.999999998504053,3.8418261694024e-06,0.00986641184151676,0.5,3.8418261694024e-06,0.999999924189922,7.58100784370441e-08,0.999999924189922,0.5,0.999999924189922,0.151757444710181,0.30247068781154,-0.5,-0.490133588158483,0.5,0.980267176316966,0.702640795331051,0.328278223274501,2.54546894550148,0.5,72.0935343764799
CBC_1003,CBC_1003_MSI_TV_v3_Vset5_Tset3_2023-06-14_16h21.52.910.csv,2,41,0,1,b,1,0,0,tac,A,63,1,0A,1A,1,0,z,1.66981680000026,0,1,0,0,1A,0A,A01,2.23359222150709,0.019732823682451,0.00986641184151676,0.00986641184151676,0.5,0.5,0.999999851371737,0.5,0.5,0.000194692165252844,0.5,0.999999998504053,3.8418261694024e-06,0.00986641184151676,0.00986641184151676,3.8418261694024e-06,0.999999924189922,0.331111569593708,0.668888430406292,0.00986641184151676,0.019732823682451,0.198326932403397,0.429024450301729,-0.00986641184151676,-0.00967171967626392,0.5,0.980267176316966,0.702640795331051,0.328278223274501,2.54546894550148,0.5,72.0935343764799
CBC_1003,CBC_1003_MSI_TV_v3_Vset5_Tset3_2023-06-14_16h21.52.910.csv,2,42,0,2,z,0,1,1,tac,C,27,1,0C,2C,0,1,z,3.31814019999911,0,1,1,1,2C,0C,C02,3.3499040872746,0.019732823682451,0.000194692165252844,0.00986641184151676,0.5,0.5,0.999999851371737,0.5,0.5,0.000194692165252844,0.5,0.999999998504053,3.8418261694024e-06,0.00986641184151676,0.00986641184151676,3.8418261694024e-06,0.999999924189922,0.999999999999709,2.91305860730915e-13,0.999999998504053,0.000194692165252844,0.087262106399483,0.697775299198677,1.49594692189225e-09,1.46642766504338e-09,0.5,0.980267176316966,0.702640795331051,0.328278223274501,2.54546894550148,0.5,72.0935343764799
CBC_1003,CBC_1003_MSI_TV_v3_Vset5_Tset3_2023-06-14_16h21.52.910.csv,2,43,3,2,b,1,0,3,tac,D,63,1,3D,2D,NaN,NaN,None,NaN,NaN,NaN,NaN,NaN,,,D32,2.67414864942653,0.019732823682451,0.000194692165252844,0.00986641184151676,0.5,0.5,0.999999851371737,0.5,0.5,0.000194692165252844,0.5,0.999999999970481,3.8418261694024e-06,0.00986641184151676,0.00986641184151676,3.8418261694024e-06,0.999999924189922,0,0,0,0,NaN,0,0,0,0.5,0.980267176316966,0.702640795331051,0.328278223274501,2.54546894550148,0.5,72.0935343764799
CBC_1003,CBC_1003_MSI_TV_v3_Vset5_Tset3_2023-06-14_16h21.52.910.csv,2,44,1,0,b,1,0,2,tac,B,63,1,1B,0B,1,0,b,1.32173030000013,1,0,1,1,1B,0B,B10,2.97892515523761,0.019732823682451,0.000194692165252844,0.00986641184151676,0.5,0.5,0.999999851371737,0.5,0.5,0.000194692165252844,0.5,0.999999999970481,3.8418261694024e-06,0.00986641184151676,0.00986641184151676,3.8418261694024e-06,0.999999924189922,0.999999851371737,1.48628263252348e-07,0.999999851371737,0.5,0.41359301858003,0.697304935912837,1.48628263252348e-07,1.45695407939274e-07,0.5,0.980267176316966,0.702640795331051,0.328278223274501,2.54546894550148,0.5,72.0935343764799
