ID,filename,session,trial,visStimLeft,visStimRight,correctKey,leftCorrect,rightCorrect,secondStim,mod2Type,mod2Stim,frequency,rewardAccurate,stimPairLeft,stimPairRight,pCorrectLeft,pCorrectRight,key,reactionTime,choiceLeft,choiceRight,choiceAccurate,reward,chosenPair,otherPair,triplet,surprise,0A belief,1A belief,2A belief,3A belief,0B belief,1B belief,2B belief,3B belief,0C belief,1C belief,2C belief,3C belief,0D belief,1D belief,2D belief,3D belief,beliefPairNorm,beliefOtherPairNorm,beliefPair,beliefOtherPair,lik,corrLik,rewardPE,update2,fitCBCsimpleRW_CBCdriftDiffusionLR_startBelief,fitCBCsimpleRW_CBCdriftDiffusionLR_alpha1,fitCBCsimpleRW_CBCdriftDiffusionLR_nonDecisionTime,fitCBCsimpleRW_CBCdriftDiffusionLR_weight,fitCBCsimpleRW_CBCdriftDiffusionLR_startingBoundary,fitCBCsimpleRW_CBCdriftDiffusionLR_startingPoint,fit_CBCsimpleRW_CBCdriftDiffusionLR_NLL
CBC_1018,CBC_1018_MSI_TV_v3_Vset2_Tset2_2023-07-28_14h00.56.927.csv,1,1,1,0,z,0,1,2,tac,A,63,1,1A,0A,0,1,z,1.96575069999972,0,1,1,1,0A,1A,A10,2.77258872223978,0.5,0.5,0.5,0.5,0.5,0.5,0.5,0.5,0.5,0.5,0.5,0.5,0.5,0.5,0.5,0.5,0.5,0.5,0.5,0.5,0.190821181220175,0.499686423818483,0.5,0.00654686733988158,0.5,0.0130937346797632,0.808117740264505,2.96611108081351,2.81606780613126,0.5,90.0716970047854
CBC_1018,CBC_1018_MSI_TV_v3_Vset2_Tset2_2023-07-28_14h00.56.927.csv,1,2,2,3,b,1,0,1,tac,C,63,1,2C,3C,1,0,b,2.06848109999964,1,0,1,1,2C,3C,C23,2.83321334405622,0.506546867339882,0.5,0.5,0.5,0.5,0.5,0.5,0.5,0.5,0.5,0.5,0.5,0.5,0.5,0.5,0.5,0.5,0.5,0.5,0.5,0.180085064785178,0.500795367955323,0.5,0.00654686733988158,0.5,0.0130937346797632,0.808117740264505,2.96611108081351,2.81606780613126,0.5,90.0716970047854
CBC_1018,CBC_1018_MSI_TV_v3_Vset2_Tset2_2023-07-28_14h00.56.927.csv,1,3,2,0,z,0,1,2,tac,A,27,1,2A,0A,0,1,z,1.64752549999957,0,1,1,1,0A,2A,A20,2.89037175789616,0.506546867339882,0.5,0.5,0.5,0.5,0.5,0.5,0.5,0.5,0.5,0.506546867339882,0.5,0.5,0.5,0.5,0.5,0.503252142325565,0.496747857674435,0.506546867339882,0.5,0.230355106128713,0.513669339897741,0.493453132660118,0.00646114439594956,0.5,0.0130937346797632,0.808117740264505,2.96611108081351,2.81606780613126,0.5,90.0716970047854
CBC_1018,CBC_1018_MSI_TV_v3_Vset2_Tset2_2023-07-28_14h00.56.927.csv,1,4,0,1,z,0,1,3,tac,B,63,1,0B,1B,0,1,z,3.07899789999965,0,1,1,1,1B,0B,B01,2.94443897916644,0.513008011735831,0.5,0.5,0.5,0.5,0.5,0.5,0.5,0.5,0.5,0.506546867339882,0.5,0.5,0.5,0.5,0.5,0.5,0.5,0.5,0.5,0.0965319204714901,0.500612597325348,0.5,0.00654686733988158,0.5,0.0130937346797632,0.808117740264505,2.96611108081351,2.81606780613126,0.5,90.0716970047854
CBC_1018,CBC_1018_MSI_TV_v3_Vset2_Tset2_2023-07-28_14h00.56.927.csv,1,5,1,0,b,1,0,3,tac,B,63,1,1B,0B,1,0,b,2.02016599999979,1,0,1,1,1B,0B,B10,2.99573227355399,0.513008011735831,0.5,0.5,0.5,0.5,0.506546867339882,0.5,0.5,0.5,0.5,0.506546867339882,0.5,0.5,0.5,0.5,0.5,0.503252142325565,0.496747857674435,0.506546867339882,0.5,0.190391360301147,0.51448618408351,0.493453132660118,0.00646114439594956,0.5,0.0130937346797632,0.808117740264505,2.96611108081351,2.81606780613126,0.5,90.0716970047854
CBC_1018,CBC_1018_MSI_TV_v3_Vset2_Tset2_2023-07-28_14h00.56.927.csv,1,6,2,3,b,1,0,1,tac,C,63,1,2C,3C,1,0,z,2.76601129999972,0,1,0,0,3C,2C,C23,2.35137525716348,0.513008011735831,0.5,0.5,0.5,0.5,0.513008011735831,0.5,0.5,0.5,0.5,0.506546867339882,0.5,0.5,0.5,0.5,0.5,0.496747857674435,0.503252142325565,0.5,0.506546867339882,0.114108639129455,0.487105055641355,-0.5,-0.00654686733988158,0.5,0.0130937346797632,0.808117740264505,2.96611108081351,2.81606780613126,0.5,90.0716970047854
CBC_1018,CBC_1018_MSI_TV_v3_Vset2_Tset2_2023-07-28_14h00.56.927.csv,1,7,1,3,z,0,1,0,tac,D,27,1,1D,3D,0,1,z,2.44470949999959,0,1,1,1,3D,1D,D13,3.09104245335832,0.513008011735831,0.5,0.5,0.5,0.5,0.513008011735831,0.5,0.5,0.5,0.5,0.506546867339882,0.493453132660118,0.5,0.5,0.5,0.5,0.5,0.5,0.5,0.5,0.142907786124046,0.499839655154754,0.5,0.00654686733988158,0.5,0.0130937346797632,0.808117740264505,2.96611108081351,2.81606780613126,0.5,90.0716970047854
CBC_1018,CBC_1018_MSI_TV_v3_Vset2_Tset2_2023-07-28_14h00.56.927.csv,1,8,2,1,b,1,0,1,tac,C,9,1,2C,1C,1,0,z,2.49458789999971,0,1,0,0,1C,2C,C21,3.13549421592915,0.513008011735831,0.5,0.5,0.5,0.5,0.513008011735831,0.5,0.5,0.5,0.5,0.506546867339882,0.493453132660118,0.5,0.5,0.5,0.506546867339882,0.496747857674435,0.503252142325565,0.5,0.506546867339882,0.134915140506396,0.486641419412296,-0.5,-0.00654686733988158,0.5,0.0130937346797632,0.808117740264505,2.96611108081351,2.81606780613126,0.5,90.0716970047854
CBC_1018,CBC_1018_MSI_TV_v3_Vset2_Tset2_2023-07-28_14h00.56.927.csv,1,9,1,3,b,1,0,3,tac,B,27,1,1B,3B,1,0,z,4.45207749999963,0,1,0,0,3B,1B,B13,3.17805383034795,0.513008011735831,0.5,0.5,0.5,0.5,0.513008011735831,0.5,0.5,0.5,0.493453132660118,0.506546867339882,0.493453132660118,0.5,0.5,0.5,0.506546867339882,0.493579511916425,0.506420488083575,0.5,0.513008011735831,0.0387764790408909,0.473136353160917,-0.5,-0.00654686733988158,0.5,0.0130937346797632,0.808117740264505,2.96611108081351,2.81606780613126,0.5,90.0716970047854
CBC_1018,CBC_1018_MSI_TV_v3_Vset2_Tset2_2023-07-28_14h00.56.927.csv,1,10,2,3,z,0,1,0,tac,D,63,1,2D,3D,0,1,b,3.78402849999975,1,0,0,0,2D,3D,D23,3.2188758248682,0.513008011735831,0.5,0.5,0.5,0.5,0.513008011735831,0.5,0.493453132660118,0.5,0.493453132660118,0.506546867339882,0.493453132660118,0.5,0.5,0.5,0.506546867339882,0.496747857674435,0.503252142325565,0.5,0.506546867339882,0.0602962838516915,0.484997242634632,-0.5,-0.00654686733988158,0.5,0.0130937346797632,0.808117740264505,2.96611108081351,2.81606780613126,0.5,90.0716970047854
CBC_1018,CBC_1018_MSI_TV_v3_Vset2_Tset2_2023-07-28_14h00.56.927.csv,1,11,0,1,z,0,1,3,tac,B,63,1,0B,1B,0,1,z,1.56109829999968,0,1,1,1,1B,0B,B01,2.56494935746154,0.513008011735831,0.5,0.5,0.5,0.5,0.513008011735831,0.5,0.493453132660118,0.5,0.493453132660118,0.506546867339882,0.493453132660118,0.5,0.5,0.493453132660118,0.506546867339882,0.506420488083575,0.493579511916425,0.513008011735831,0.5,0.242928908372433,0.526613603237183,0.486991988264169,0.00637654388550136,0.5,0.0130937346797632,0.808117740264505,2.96611108081351,2.81606780613126,0.5,90.0716970047854
CBC_1018,CBC_1018_MSI_TV_v3_Vset2_Tset2_2023-07-28_14h00.56.927.csv,1,12,2,0,b,1,0,1,tac,C,27,1,2C,0C,1,0,b,4.15867599999956,1,0,1,1,2C,0C,C20,3.29583686600433,0.513008011735831,0.5,0.5,0.5,0.5,0.519384555621333,0.5,0.493453132660118,0.5,0.493453132660118,0.506546867339882,0.493453132660118,0.5,0.5,0.493453132660118,0.506546867339882,0.503252142325565,0.496747857674435,0.506546867339882,0.5,0.0505595377530338,0.513465294291718,0.493453132660118,0.00646114439594956,0.5,0.0130937346797632,0.808117740264505,2.96611108081351,2.81606780613126,0.5,90.0716970047854
CBC_1018,CBC_1018_MSI_TV_v3_Vset2_Tset2_2023-07-28_14h00.56.927.csv,1,13,2,3,z,0,1,0,tac,D,63,0,2D,3D,1,0,z,2.43393389999983,0,1,1,0,3D,2D,D23,2.63905732961526,0.513008011735831,0.5,0.5,0.5,0.5,0.519384555621333,0.5,0.493453132660118,0.5,0.493453132660118,0.513008011735831,0.493453132660118,0.5,0.5,0.493453132660118,0.506546867339882,0.506546867339882,0.493453132660118,0.506546867339882,0.493453132660118,0.151666832222223,0.526819433055578,-0.506546867339882,-0.0066325902838136,0.5,0.0130937346797632,0.808117740264505,2.96611108081351,2.81606780613126,0.5,90.0716970047854
CBC_1018,CBC_1018_MSI_TV_v3_Vset2_Tset2_2023-07-28_14h00.56.927.csv,1,14,0,1,b,1,0,2,tac,A,63,1,0A,1A,1,0,b,2.98840139999993,1,0,1,1,0A,1A,A01,3.36729582998647,0.513008011735831,0.5,0.5,0.5,0.5,0.519384555621333,0.5,0.493453132660118,0.5,0.493453132660118,0.513008011735831,0.493453132660118,0.5,0.5,0.493453132660118,0.499914277056068,0.506420488083575,0.493579511916425,0.513008011735831,0.5,0.107637142199426,0.527697686648066,0.486991988264169,0.00637654388550136,0.5,0.0130937346797632,0.808117740264505,2.96611108081351,2.81606780613126,0.5,90.0716970047854
CBC_1018,CBC_1018_MSI_TV_v3_Vset2_Tset2_2023-07-28_14h00.56.927.csv,1,15,3,2,z,0,1,1,tac,C,63,1,3C,2C,0,1,b,2.4734768999997,1,0,0,0,3C,2C,C32,3.40119738166216,0.519384555621333,0.5,0.5,0.5,0.5,0.519384555621333,0.5,0.493453132660118,0.5,0.493453132660118,0.513008011735831,0.493453132660118,0.5,0.5,0.493453132660118,0.499914277056068,0.490285328358379,0.509714671641621,0.493453132660118,0.513008011735831,0.129063678789976,0.45927522105328,-0.493453132660118,-0.00646114439594956,0.5,0.0130937346797632,0.808117740264505,2.96611108081351,2.81606780613126,0.5,90.0716970047854
CBC_1018,CBC_1018_MSI_TV_v3_Vset2_Tset2_2023-07-28_14h00.56.927.csv,1,16,2,0,z,0,1,2,tac,A,27,1,2A,0A,0,1,z,2.41890289999992,0,1,1,1,0A,2A,A20,2.7408400239252,0.519384555621333,0.5,0.5,0.5,0.5,0.519384555621333,0.5,0.493453132660118,0.5,0.493453132660118,0.513008011735831,0.486991988264169,0.5,0.5,0.493453132660118,0.499914277056068,0.509507970036645,0.490492029963355,0.519384555621333,0.5,0.15658436472807,0.538712354131934,0.480615444378667,0.00629305111169074,0.5,0.0130937346797632,0.808117740264505,2.96611108081351,2.81606780613126,0.5,90.0716970047854
CBC_1018,CBC_1018_MSI_TV_v3_Vset2_Tset2_2023-07-28_14h00.56.927.csv,1,17,3,2,b,1,0,0,tac,D,63,1,3D,2D,1,0,z,3.65038709999999,0,1,0,0,2D,3D,D32,3.46573590279973,0.525677606733023,0.5,0.5,0.5,0.5,0.519384555621333,0.5,0.493453132660118,0.5,0.493453132660118,0.513008011735831,0.486991988264169,0.5,0.5,0.493453132660118,0.499914277056068,0.496747857674435,0.503252142325565,0.493453132660118,0.499914277056068,0.0656290598481284,0.485743686873046,-0.493453132660118,-0.00646114439594956,0.5,0.0130937346797632,0.808117740264505,2.96611108081351,2.81606780613126,0.5,90.0716970047854
CBC_1018,CBC_1018_MSI_TV_v3_Vset2_Tset2_2023-07-28_14h00.56.927.csv,1,18,2,3,z,0,1,0,tac,D,63,1,2D,3D,0,1,b,1.52367669999967,1,0,0,0,2D,3D,D23,2.39789527279837,0.525677606733023,0.5,0.5,0.5,0.5,0.519384555621333,0.5,0.493453132660118,0.5,0.493453132660118,0.513008011735831,0.486991988264169,0.5,0.5,0.486991988264169,0.499914277056068,0.493453132660118,0.506546867339882,0.486991988264169,0.499914277056068,0.219581021184595,0.472326113848405,-0.486991988264169,-0.00637654388550136,0.5,0.0130937346797632,0.808117740264505,2.96611108081351,2.81606780613126,0.5,90.0716970047854
CBC_1018,CBC_1018_MSI_TV_v3_Vset2_Tset2_2023-07-28_14h00.56.927.csv,1,19,1,3,b,1,0,3,tac,B,27,1,1B,3B,NaN,NaN,None,NaN,NaN,NaN,NaN,NaN,,,B13,2.83321334405622,0.525677606733023,0.5,0.5,0.5,0.5,0.519384555621333,0.5,0.493453132660118,0.5,0.493453132660118,0.513008011735831,0.486991988264169,0.5,0.5,0.480615444378667,0.499914277056068,0,0,0,0,NaN,0,0,0,0.5,0.0130937346797632,0.808117740264505,2.96611108081351,2.81606780613126,0.5,90.0716970047854
CBC_1018,CBC_1018_MSI_TV_v3_Vset2_Tset2_2023-07-28_14h00.56.927.csv,1,20,3,0,b,1,0,0,tac,D,9,1,3D,0D,1,0,z,1.01396279999972,0,1,0,0,0D,3D,D30,3.55534806148941,0.525677606733023,0.5,0.5,0.5,0.5,0.519384555621333,0.5,0.493453132660118,0.5,0.493453132660118,0.513008011735831,0.486991988264169,0.5,0.5,0.480615444378667,0.499914277056068,0.500042865146493,0.499957134853507,0.5,0.499914277056068,0.0488236939770467,0.500958564347584,-0.5,-0.00654686733988158,0.5,0.0130937346797632,0.808117740264505,2.96611108081351,2.81606780613126,0.5,90.0716970047854
CBC_1018,CBC_1018_MSI_TV_v3_Vset2_Tset2_2023-07-28_14h00.56.927.csv,1,21,0,1,z,0,1,3,tac,B,63,1,0B,1B,0,1,z,3.13135629999942,0,1,1,1,1B,0B,B01,2.484906649788,0.525677606733023,0.5,0.5,0.5,0.5,0.519384555621333,0.5,0.493453132660118,0.5,0.493453132660118,0.513008011735831,0.486991988264169,0.493453132660118,0.5,0.480615444378667,0.499914277056068,0.509507970036645,0.490492029963355,0.519384555621333,0.5,0.100607131785566,0.539310391941104,0.480615444378667,0.00629305111169074,0.5,0.0130937346797632,0.808117740264505,2.96611108081351,2.81606780613126,0.5,90.0716970047854
CBC_1018,CBC_1018_MSI_TV_v3_Vset2_Tset2_2023-07-28_14h00.56.927.csv,1,22,0,1,b,1,0,2,tac,A,63,1,0A,1A,1,0,b,2.00460449999946,1,0,1,1,0A,1A,A01,2.91777073208428,0.525677606733023,0.5,0.5,0.5,0.5,0.525677606733023,0.5,0.493453132660118,0.5,0.493453132660118,0.513008011735831,0.486991988264169,0.493453132660118,0.5,0.480615444378667,0.499914277056068,0.512517386830162,0.487482613169838,0.525677606733023,0.5,0.206595344024882,0.55211293513712,0.474322393266977,0.00621065157010807,0.5,0.0130937346797632,0.808117740264505,2.96611108081351,2.81606780613126,0.5,90.0716970047854
CBC_1018,CBC_1018_MSI_TV_v3_Vset2_Tset2_2023-07-28_14h00.56.927.csv,1,23,3,2,z,0,1,1,tac,C,63,1,3C,2C,0,1,z,1.98517939999965,0,1,1,1,2C,3C,C32,2.94443897916644,0.531888258303131,0.5,0.5,0.5,0.5,0.525677606733023,0.5,0.493453132660118,0.5,0.493453132660118,0.513008011735831,0.486991988264169,0.493453132660118,0.5,0.480615444378667,0.499914277056068,0.513008011735831,0.486991988264169,0.513008011735831,0.486991988264169,0.209942485466346,0.554607352138941,0.486991988264169,0.00637654388550136,0.5,0.0130937346797632,0.808117740264505,2.96611108081351,2.81606780613126,0.5,90.0716970047854
CBC_1018,CBC_1018_MSI_TV_v3_Vset2_Tset2_2023-07-28_14h00.56.927.csv,1,24,2,0,z,0,1,2,tac,A,27,1,2A,0A,0,1,z,3.58843559999968,0,1,1,1,0A,2A,A20,2.56494935746154,0.531888258303131,0.5,0.5,0.5,0.5,0.525677606733023,0.5,0.493453132660118,0.5,0.493453132660118,0.519384555621333,0.486991988264169,0.493453132660118,0.5,0.480615444378667,0.499914277056068,0.515451410579848,0.484548589420152,0.531888258303131,0.5,0.0790237756236814,0.564592245199271,0.468111741696869,0.00612933094626062,0.5,0.0130937346797632,0.808117740264505,2.96611108081351,2.81606780613126,0.5,90.0716970047854
CBC_1018,CBC_1018_MSI_TV_v3_Vset2_Tset2_2023-07-28_14h00.56.927.csv,1,25,0,1,z,0,1,3,tac,B,63,1,0B,1B,0,1,b,2.99032619999934,1,0,0,0,0B,1B,B01,2.30258509299405,0.538017589249392,0.5,0.5,0.5,0.5,0.525677606733023,0.5,0.493453132660118,0.5,0.493453132660118,0.519384555621333,0.486991988264169,0.493453132660118,0.5,0.480615444378667,0.499914277056068,0.487482613169838,0.512517386830162,0.5,0.525677606733023,0.0911997123930801,0.447830480142019,-0.5,-0.00654686733988158,0.5,0.0130937346797632,0.808117740264505,2.96611108081351,2.81606780613126,0.5,90.0716970047854
CBC_1018,CBC_1018_MSI_TV_v3_Vset2_Tset2_2023-07-28_14h00.56.927.csv,1,26,3,2,b,1,0,0,tac,D,63,1,3D,2D,1,0,z,2.64414639999995,0,1,0,0,2D,3D,D32,3.02042488614436,0.538017589249392,0.5,0.5,0.5,0.493453132660118,0.525677606733023,0.5,0.493453132660118,0.5,0.493453132660118,0.519384555621333,0.486991988264169,0.493453132660118,0.5,0.480615444378667,0.499914277056068,0.490158976186279,0.509841023813721,0.480615444378667,0.499914277056068,0.11610328941332,0.459383149678107,-0.480615444378667,-0.00629305111169074,0.5,0.0130937346797632,0.808117740264505,2.96611108081351,2.81606780613126,0.5,90.0716970047854
CBC_1018,CBC_1018_MSI_TV_v3_Vset2_Tset2_2023-07-28_14h00.56.927.csv,1,27,2,1,z,0,1,3,tac,B,9,1,2B,1B,0,1,z,2.06744099999969,0,1,1,1,1B,2B,B21,3.73766961828337,0.538017589249392,0.5,0.5,0.5,0.493453132660118,0.525677606733023,0.5,0.493453132660118,0.5,0.493453132660118,0.519384555621333,0.486991988264169,0.493453132660118,0.5,0.474322393266977,0.499914277056068,0.512517386830162,0.487482613169838,0.525677606733023,0.5,0.198414760176158,0.550404250900059,0.474322393266977,0.00621065157010807,0.5,0.0130937346797632,0.808117740264505,2.96611108081351,2.81606780613126,0.5,90.0716970047854
CBC_1018,CBC_1018_MSI_TV_v3_Vset2_Tset2_2023-07-28_14h00.56.927.csv,1,28,3,1,b,1,0,0,tac,D,27,1,3D,1D,1,0,b,1.7797800999997,1,0,1,1,3D,1D,D31,3.76120011569356,0.538017589249392,0.5,0.5,0.5,0.493453132660118,0.531888258303131,0.5,0.493453132660118,0.5,0.493453132660118,0.519384555621333,0.486991988264169,0.493453132660118,0.5,0.474322393266977,0.499914277056068,0.499957134853507,0.500042865146493,0.499914277056068,0.5,0.211300761157395,0.500098628054754,0.500085722943932,0.00654798977336539,0.5,0.0130937346797632,0.808117740264505,2.96611108081351,2.81606780613126,0.5,90.0716970047854
CBC_1018,CBC_1018_MSI_TV_v3_Vset2_Tset2_2023-07-28_14h00.56.927.csv,1,29,0,1,b,1,0,2,tac,A,63,1,0A,1A,1,0,z,3.32770919999984,0,1,0,0,1A,0A,A01,2.68557734525015,0.538017589249392,0.5,0.5,0.5,0.493453132660118,0.531888258303131,0.5,0.493453132660118,0.5,0.493453132660118,0.519384555621333,0.486991988264169,0.493453132660118,0.5,0.474322393266977,0.506462266829433,0.481687406050179,0.518312593949821,0.5,0.538017589249392,0.0698077444155706,0.423973454544766,-0.5,-0.00654686733988158,0.5,0.0130937346797632,0.808117740264505,2.96611108081351,2.81606780613126,0.5,90.0716970047854
CBC_1018,CBC_1018_MSI_TV_v3_Vset2_Tset2_2023-07-28_14h00.56.927.csv,1,30,1,0,z,0,1,2,tac,A,63,1,1A,0A,0,1,b,2.18323299999975,1,0,0,0,1A,0A,A10,3.11351530921037,0.538017589249392,0.493453132660118,0.5,0.5,0.493453132660118,0.531888258303131,0.5,0.493453132660118,0.5,0.493453132660118,0.519384555621333,0.486991988264169,0.493453132660118,0.5,0.474322393266977,0.506462266829433,0.478397614375921,0.521602385624079,0.493453132660118,0.538017589249392,0.138534810554173,0.410725274220119,-0.493453132660118,-0.00646114439594956,0.5,0.0130937346797632,0.808117740264505,2.96611108081351,2.81606780613126,0.5,90.0716970047854
CBC_1018,CBC_1018_MSI_TV_v3_Vset2_Tset2_2023-07-28_14h00.56.927.csv,1,31,2,0,b,1,0,1,tac,C,27,1,2C,0C,1,0,z,1.28030709999939,0,1,0,0,0C,2C,C20,3.13549421592915,0.538017589249392,0.486991988264169,0.5,0.5,0.493453132660118,0.531888258303131,0.5,0.493453132660118,0.5,0.493453132660118,0.519384555621333,0.486991988264169,0.493453132660118,0.5,0.474322393266977,0.506462266829433,0.490492029963355,0.509507970036645,0.5,0.519384555621333,0.195883918635924,0.460590965478845,-0.5,-0.00654686733988158,0.5,0.0130937346797632,0.808117740264505,2.96611108081351,2.81606780613126,0.5,90.0716970047854
CBC_1018,CBC_1018_MSI_TV_v3_Vset2_Tset2_2023-07-28_14h00.56.927.csv,1,32,0,1,b,1,0,2,tac,A,63,1,0A,1A,1,0,b,3.1296226999998,1,0,1,1,0A,1A,A01,2.46385324059017,0.538017589249392,0.486991988264169,0.5,0.5,0.493453132660118,0.531888258303131,0.5,0.493453132660118,0.493453132660118,0.493453132660118,0.519384555621333,0.486991988264169,0.493453132660118,0.5,0.474322393266977,0.506462266829433,0.524890304493056,0.475109695506944,0.538017589249392,0.486991988264169,0.111912725232002,0.60119466810758,0.461982410750608,0.00604907511308582,0.5,0.0130937346797632,0.808117740264505,2.96611108081351,2.81606780613126,0.5,90.0716970047854
CBC_1018,CBC_1018_MSI_TV_v3_Vset2_Tset2_2023-07-28_14h00.56.927.csv,1,33,0,1,z,0,1,3,tac,B,63,1,0B,1B,0,1,z,1.58382029999984,0,1,1,1,1B,0B,B01,2.26176309847379,0.544066664362478,0.486991988264169,0.5,0.5,0.493453132660118,0.531888258303131,0.5,0.493453132660118,0.493453132660118,0.493453132660118,0.519384555621333,0.486991988264169,0.493453132660118,0.5,0.474322393266977,0.506462266829433,0.518742599285349,0.481257400714651,0.531888258303131,0.493453132660118,0.266464184595368,0.577389769767252,0.468111741696869,0.00612933094626062,0.5,0.0130937346797632,0.808117740264505,2.96611108081351,2.81606780613126,0.5,90.0716970047854
CBC_1018,CBC_1018_MSI_TV_v3_Vset2_Tset2_2023-07-28_14h00.56.927.csv,1,34,2,3,z,0,1,0,tac,D,63,1,2D,3D,0,1,b,4.04444289999992,1,0,0,0,2D,3D,D23,2.50552593699074,0.544066664362478,0.486991988264169,0.5,0.5,0.493453132660118,0.538017589249392,0.5,0.493453132660118,0.493453132660118,0.493453132660118,0.519384555621333,0.486991988264169,0.493453132660118,0.5,0.474322393266977,0.506462266829433,0.483615224182188,0.516384775817812,0.474322393266977,0.506462266829433,0.0455226294818264,0.432976570526637,-0.474322393266977,-0.00621065157010807,0.5,0.0130937346797632,0.808117740264505,2.96611108081351,2.81606780613126,0.5,90.0716970047854
CBC_1018,CBC_1018_MSI_TV_v3_Vset2_Tset2_2023-07-28_14h00.56.927.csv,1,35,1,3,b,1,0,3,tac,B,27,1,1B,3B,1,0,b,2.82692049999969,1,0,1,1,1B,3B,B13,2.81341071676004,0.544066664362478,0.486991988264169,0.5,0.5,0.493453132660118,0.538017589249392,0.5,0.493453132660118,0.493453132660118,0.493453132660118,0.519384555621333,0.486991988264169,0.493453132660118,0.5,0.468111741696869,0.506462266829433,0.521602385624079,0.478397614375921,0.538017589249392,0.493453132660118,0.133105499519753,0.590357761651769,0.461982410750608,0.00604907511308582,0.5,0.0130937346797632,0.808117740264505,2.96611108081351,2.81606780613126,0.5,90.0716970047854
CBC_1018,CBC_1018_MSI_TV_v3_Vset2_Tset2_2023-07-28_14h00.56.927.csv,1,36,2,3,b,1,0,1,tac,C,63,1,2C,3C,1,0,z,1.85517139999956,0,1,0,0,3C,2C,C23,2.83321334405622,0.544066664362478,0.486991988264169,0.5,0.5,0.493453132660118,0.544066664362478,0.5,0.493453132660118,0.493453132660118,0.493453132660118,0.519384555621333,0.486991988264169,0.493453132660118,0.5,0.468111741696869,0.506462266829433,0.48390633826177,0.51609366173823,0.486991988264169,0.519384555621333,0.177170431952328,0.434356445089758,-0.486991988264169,-0.00637654388550136,0.5,0.0130937346797632,0.808117740264505,2.96611108081351,2.81606780613126,0.5,90.0716970047854
CBC_1018,CBC_1018_MSI_TV_v3_Vset2_Tset2_2023-07-28_14h00.56.927.csv,1,37,0,2,z,0,1,1,tac,C,27,1,0C,2C,0,1,b,1.67421499999955,1,0,0,0,0C,2C,C02,3.95124371858143,0.544066664362478,0.486991988264169,0.5,0.5,0.493453132660118,0.544066664362478,0.5,0.493453132660118,0.493453132660118,0.493453132660118,0.519384555621333,0.480615444378667,0.493453132660118,0.5,0.468111741696869,0.506462266829433,0.487198628535825,0.512801371464175,0.493453132660118,0.519384555621333,0.199146955082195,0.447529454875339,-0.493453132660118,-0.00646114439594956,0.5,0.0130937346797632,0.808117740264505,2.96611108081351,2.81606780613126,0.5,90.0716970047854
CBC_1018,CBC_1018_MSI_TV_v3_Vset2_Tset2_2023-07-28_14h00.56.927.csv,1,38,0,1,z,0,1,3,tac,B,63,1,0B,1B,0,1,b,3.02845339999976,1,0,0,0,0B,1B,B01,2.17853244432407,0.544066664362478,0.486991988264169,0.5,0.5,0.493453132660118,0.544066664362478,0.5,0.493453132660118,0.486991988264169,0.493453132660118,0.519384555621333,0.480615444378667,0.493453132660118,0.5,0.468111741696869,0.506462266829433,0.47560840195647,0.52439159804353,0.493453132660118,0.544066664362478,0.0794578692877483,0.40034554227005,-0.493453132660118,-0.00646114439594956,0.5,0.0130937346797632,0.808117740264505,2.96611108081351,2.81606780613126,0.5,90.0716970047854
CBC_1018,CBC_1018_MSI_TV_v3_Vset2_Tset2_2023-07-28_14h00.56.927.csv,1,39,0,3,b,1,0,2,tac,A,9,1,0A,3A,1,0,b,2.17659400000002,1,0,1,1,0A,3A,A03,3.98898404656427,0.544066664362478,0.486991988264169,0.5,0.5,0.486991988264169,0.544066664362478,0.5,0.493453132660118,0.486991988264169,0.493453132660118,0.519384555621333,0.480615444378667,0.493453132660118,0.5,0.468111741696869,0.506462266829433,0.521103376760614,0.478896623239386,0.544066664362478,0.5,0.198931862366165,0.587503698759177,0.455933335637522,0.00596987012849712,0.5,0.0130937346797632,0.808117740264505,2.96611108081351,2.81606780613126,0.5,90.0716970047854
CBC_1018,CBC_1018_MSI_TV_v3_Vset2_Tset2_2023-07-28_14h00.56.927.csv,1,40,2,3,b,1,0,1,tac,C,63,0,2C,3C,0,1,b,4.87262280000004,1,0,1,0,2C,3C,C23,2.62103882411258,0.550036534490975,0.486991988264169,0.5,0.5,0.486991988264169,0.544066664362478,0.5,0.493453132660118,0.486991988264169,0.493453132660118,0.519384555621333,0.480615444378667,0.493453132660118,0.5,0.468111741696869,0.506462266829433,0.519384555621333,0.480615444378667,0.519384555621333,0.480615444378667,0.0361747057287067,0.580814856490537,-0.519384555621333,-0.00680068356807242,0.5,0.0130937346797632,0.808117740264505,2.96611108081351,2.81606780613126,0.5,90.0716970047854
CBC_1018,CBC_1018_MSI_TV_v3_Vset2_Tset2_2023-07-28_14h00.56.927.csv,1,41,0,1,b,1,0,2,tac,A,63,1,0A,1A,1,0,b,2.61850849999973,1,0,1,1,0A,1A,A01,2.41591377830105,0.550036534490975,0.486991988264169,0.5,0.5,0.486991988264169,0.544066664362478,0.5,0.493453132660118,0.486991988264169,0.493453132660118,0.51258387205326,0.480615444378667,0.493453132660118,0.5,0.468111741696869,0.506462266829433,0.530396727208289,0.469603272791711,0.550036534490975,0.486991988264169,0.160725017053891,0.624508009230612,0.449963465509025,0.00589170223296193,0.5,0.0130937346797632,0.808117740264505,2.96611108081351,2.81606780613126,0.5,90.0716970047854
CBC_1018,CBC_1018_MSI_TV_v3_Vset2_Tset2_2023-07-28_14h00.56.927.csv,1,42,2,3,z,0,1,0,tac,D,63,1,2D,3D,0,1,b,1.8443070999997,1,0,0,0,2D,3D,D23,2.43361335540045,0.555928236723937,0.486991988264169,0.5,0.5,0.486991988264169,0.544066664362478,0.5,0.493453132660118,0.486991988264169,0.493453132660118,0.51258387205326,0.480615444378667,0.493453132660118,0.5,0.468111741696869,0.506462266829433,0.480324467512449,0.519675532487551,0.468111741696869,0.506462266829433,0.171655805121587,0.417346669550249,-0.468111741696869,-0.00612933094626062,0.5,0.0130937346797632,0.808117740264505,2.96611108081351,2.81606780613126,0.5,90.0716970047854
CBC_1018,CBC_1018_MSI_TV_v3_Vset2_Tset2_2023-07-28_14h00.56.927.csv,1,43,3,2,z,0,1,1,tac,C,63,1,3C,2C,0,1,z,2.96150169999964,0,1,1,1,2C,3C,C32,2.96183072187831,0.555928236723937,0.486991988264169,0.5,0.5,0.486991988264169,0.544066664362478,0.5,0.493453132660118,0.486991988264169,0.493453132660118,0.51258387205326,0.480615444378667,0.493453132660118,0.5,0.461982410750608,0.506462266829433,0.51609366173823,0.48390633826177,0.51258387205326,0.480615444378667,0.11752460006149,0.566983686257787,0.48741612794674,0.0063820974579721,0.5,0.0130937346797632,0.808117740264505,2.96611108081351,2.81606780613126,0.5,90.0716970047854
CBC_1018,CBC_1018_MSI_TV_v3_Vset2_Tset2_2023-07-28_14h00.56.927.csv,1,44,3,1,b,1,0,0,tac,D,27,1,3D,1D,1,0,z,2.93775019999975,0,1,0,0,1D,3D,D31,3.38439026334577,0.555928236723937,0.486991988264169,0.5,0.5,0.486991988264169,0.544066664362478,0.5,0.493453132660118,0.486991988264169,0.493453132660118,0.518965969511232,0.480615444378667,0.493453132660118,0.5,0.461982410750608,0.506462266829433,0.496789612962942,0.503210387037057,0.5,0.506462266829433,0.102358853589533,0.48619723223725,-0.5,-0.00654686733988158,0.5,0.0130937346797632,0.808117740264505,2.96611108081351,2.81606780613126,0.5,90.0716970047854
CBC_1018,CBC_1018_MSI_AV_v3_Vset5_Aset3_2023-07-28_14h09.48.835.csv,2,1,0,2,z,0,1,1,aud,C,27,1,0C,2C,0,1,b,1.76050830000031,1,0,0,0,0C,2C,C02,2.77258872223978,0.5,0.5,0.5,0.5,0.5,0.5,0.5,0.5,0.5,0.5,0.5,0.5,0.5,0.5,0.5,0.5,0.5,0.5,0.5,0.5,0.25033507699726,0.50011320394649,-0.5,-0.00433513955696407,0.5,0.00867027911392815,0.845318313595395,9.07450781578718,2.34408843151338,0.5,73.4959327240809
CBC_1018,CBC_1018_MSI_AV_v3_Vset5_Aset3_2023-07-28_14h09.48.835.csv,2,2,2,3,z,0,1,0,aud,D,63,1,2D,3D,0,1,z,2.42091670000036,0,1,1,1,3D,2D,D23,2.83321334405622,0.5,0.5,0.5,0.5,0.5,0.5,0.5,0.5,0.495664860443036,0.5,0.5,0.5,0.5,0.5,0.5,0.5,0.5,0.5,0.5,0.5,0.138856153825687,0.499909160674989,0.5,0.00433513955696407,0.5,0.00867027911392815,0.845318313595395,9.07450781578718,2.34408843151338,0.5,73.4959327240809
CBC_1018,CBC_1018_MSI_AV_v3_Vset5_Aset3_2023-07-28_14h09.48.835.csv,2,3,0,1,b,1,0,2,aud,A,63,1,0A,1A,1,0,z,1.5060253000006,0,1,0,0,1A,0A,A01,2.89037175789616,0.5,0.5,0.5,0.5,0.5,0.5,0.5,0.5,0.495664860443036,0.5,0.5,0.5,0.5,0.5,0.5,0.504335139556964,0.5,0.5,0.5,0.5,0.308005240603634,0.500588129504508,-0.5,-0.00433513955696407,0.5,0.00867027911392815,0.845318313595395,9.07450781578718,2.34408843151338,0.5,73.4959327240809
CBC_1018,CBC_1018_MSI_AV_v3_Vset5_Aset3_2023-07-28_14h09.48.835.csv,2,4,3,2,z,0,1,1,aud,C,63,1,3C,2C,0,1,b,1.58337000000029,1,0,0,0,3C,2C,C32,2.94443897916644,0.5,0.495664860443036,0.5,0.5,0.5,0.5,0.5,0.5,0.495664860443036,0.5,0.5,0.5,0.5,0.5,0.5,0.504335139556964,0.5,0.5,0.5,0.5,0.290270757995961,0.500004030499037,-0.5,-0.00433513955696407,0.5,0.00867027911392815,0.845318313595395,9.07450781578718,2.34408843151338,0.5,73.4959327240809
CBC_1018,CBC_1018_MSI_AV_v3_Vset5_Aset3_2023-07-28_14h09.48.835.csv,2,5,2,0,z,0,1,2,aud,A,27,1,2A,0A,0,1,z,2.19352879999997,0,1,1,1,0A,2A,A20,2.99573227355399,0.5,0.495664860443036,0.5,0.5,0.5,0.5,0.5,0.5,0.495664860443036,0.5,0.5,0.495664860443036,0.5,0.5,0.5,0.504335139556964,0.5,0.5,0.5,0.5,0.170484253832918,0.500478722660179,0.5,0.00433513955696407,0.5,0.00867027911392815,0.845318313595395,9.07450781578718,2.34408843151338,0.5,73.4959327240809
CBC_1018,CBC_1018_MSI_AV_v3_Vset5_Aset3_2023-07-28_14h09.48.835.csv,2,6,3,2,b,1,0,0,aud,D,63,1,3D,2D,1,0,z,1.65237520000028,0,1,0,0,2D,3D,D32,3.04452243772342,0.504335139556964,0.495664860443036,0.5,0.5,0.5,0.5,0.5,0.5,0.495664860443036,0.5,0.5,0.495664860443036,0.5,0.5,0.5,0.504335139556964,0.49784178637876,0.50215821362124,0.5,0.504335139556964,0.2624602388638,0.477978672568068,-0.5,-0.00433513955696407,0.5,0.00867027911392815,0.845318313595395,9.07450781578718,2.34408843151338,0.5,73.4959327240809
CBC_1018,CBC_1018_MSI_AV_v3_Vset5_Aset3_2023-07-28_14h09.48.835.csv,2,7,2,3,z,0,1,0,aud,D,63,1,2D,3D,0,1,z,2.06495260000065,0,1,1,1,3D,2D,D23,2.39789527279837,0.504335139556964,0.495664860443036,0.5,0.5,0.5,0.5,0.5,0.5,0.495664860443036,0.5,0.5,0.495664860443036,0.5,0.5,0.495664860443036,0.504335139556964,0.504335139556964,0.495664860443036,0.504335139556964,0.495664860443036,0.208672205580959,0.545679391967242,0.495664860443036,0.00429755268700736,0.5,0.00867027911392815,0.845318313595395,9.07450781578718,2.34408843151338,0.5,73.4959327240809
CBC_1018,CBC_1018_MSI_AV_v3_Vset5_Aset3_2023-07-28_14h09.48.835.csv,2,8,1,3,b,1,0,3,aud,B,27,1,1B,3B,1,0,b,1.91159210000023,1,0,1,1,1B,3B,B13,3.13549421592915,0.504335139556964,0.495664860443036,0.5,0.5,0.5,0.5,0.5,0.5,0.495664860443036,0.5,0.5,0.495664860443036,0.5,0.5,0.495664860443036,0.508632692243971,0.5,0.5,0.5,0.5,0.219339844427235,0.500479186763339,0.5,0.00433513955696407,0.5,0.00867027911392815,0.845318313595395,9.07450781578718,2.34408843151338,0.5,73.4959327240809
CBC_1018,CBC_1018_MSI_AV_v3_Vset5_Aset3_2023-07-28_14h09.48.835.csv,2,9,3,0,b,1,0,0,aud,D,9,1,3D,0D,1,0,b,3.19580410000026,1,0,1,1,3D,0D,D30,3.17805383034795,0.504335139556964,0.495664860443036,0.5,0.5,0.5,0.504335139556964,0.5,0.5,0.495664860443036,0.5,0.5,0.495664860443036,0.5,0.5,0.495664860443036,0.508632692243971,0.504279403349878,0.495720596650122,0.508632692243971,0.5,0.0753656266971175,0.54578698720783,0.491367307756029,0.0042602917057042,0.5,0.00867027911392815,0.845318313595395,9.07450781578718,2.34408843151338,0.5,73.4959327240809
CBC_1018,CBC_1018_MSI_AV_v3_Vset5_Aset3_2023-07-28_14h09.48.835.csv,2,10,0,1,z,0,1,3,aud,B,63,1,0B,1B,0,1,z,2.58422920000021,0,1,1,1,1B,0B,B01,3.2188758248682,0.504335139556964,0.495664860443036,0.5,0.5,0.5,0.504335139556964,0.5,0.5,0.495664860443036,0.5,0.5,0.495664860443036,0.5,0.5,0.495664860443036,0.512892983949676,0.50215821362124,0.49784178637876,0.504335139556964,0.5,0.125387055511607,0.522861587584177,0.495664860443036,0.00429755268700736,0.5,0.00867027911392815,0.845318313595395,9.07450781578718,2.34408843151338,0.5,73.4959327240809
CBC_1018,CBC_1018_MSI_AV_v3_Vset5_Aset3_2023-07-28_14h09.48.835.csv,2,11,0,1,b,1,0,2,aud,A,63,1,0A,1A,1,0,z,2.5313142,0,1,0,0,1A,0A,A01,2.56494935746154,0.504335139556964,0.495664860443036,0.5,0.5,0.5,0.508632692243971,0.5,0.5,0.495664860443036,0.5,0.5,0.495664860443036,0.5,0.5,0.495664860443036,0.512892983949676,0.495664860443036,0.504335139556964,0.495664860443036,0.504335139556964,0.114136037933891,0.45417049793103,-0.495664860443036,-0.00429755268700736,0.5,0.00867027911392815,0.845318313595395,9.07450781578718,2.34408843151338,0.5,73.4959327240809
CBC_1018,CBC_1018_MSI_AV_v3_Vset5_Aset3_2023-07-28_14h09.48.835.csv,2,12,1,0,b,1,0,3,aud,B,63,1,1B,0B,1,0,b,2.10637480000059,1,0,1,1,1B,0B,B10,3.29583686600433,0.504335139556964,0.491367307756029,0.5,0.5,0.5,0.508632692243971,0.5,0.5,0.495664860443036,0.5,0.5,0.495664860443036,0.5,0.5,0.495664860443036,0.512892983949676,0.504279403349878,0.495720596650122,0.508632692243971,0.5,0.201276325700233,0.546286447698605,0.491367307756029,0.0042602917057042,0.5,0.00867027911392815,0.845318313595395,9.07450781578718,2.34408843151338,0.5,73.4959327240809
CBC_1018,CBC_1018_MSI_AV_v3_Vset5_Aset3_2023-07-28_14h09.48.835.csv,2,13,3,2,b,1,0,0,aud,D,63,1,3D,2D,1,0,z,1.2411889,0,1,0,0,2D,3D,D32,2.63905732961526,0.504335139556964,0.491367307756029,0.5,0.5,0.5,0.512892983949676,0.5,0.5,0.495664860443036,0.5,0.5,0.495664860443036,0.5,0.5,0.495664860443036,0.512892983949676,0.49145903053433,0.50854096946567,0.495664860443036,0.512892983949676,0.274419835660106,0.409480579055117,-0.495664860443036,-0.00429755268700736,0.5,0.00867027911392815,0.845318313595395,9.07450781578718,2.34408843151338,0.5,73.4959327240809
CBC_1018,CBC_1018_MSI_AV_v3_Vset5_Aset3_2023-07-28_14h09.48.835.csv,2,14,3,1,z,0,1,3,aud,B,27,1,3B,1B,0,1,b,2.19914050000034,1,0,0,0,3B,1B,B31,3.36729582998647,0.504335139556964,0.491367307756029,0.5,0.5,0.5,0.512892983949676,0.5,0.5,0.495664860443036,0.5,0.5,0.495664860443036,0.5,0.5,0.491367307756029,0.512892983949676,0.493635564588768,0.506364435411232,0.5,0.512892983949676,0.14680969895171,0.433108398419103,-0.5,-0.00433513955696407,0.5,0.00867027911392815,0.845318313595395,9.07450781578718,2.34408843151338,0.5,73.4959327240809
CBC_1018,CBC_1018_MSI_AV_v3_Vset5_Aset3_2023-07-28_14h09.48.835.csv,2,15,2,3,b,1,0,1,aud,C,63,1,2C,3C,1,0,z,1.80264670000042,0,1,0,0,3C,2C,C23,3.40119738166216,0.504335139556964,0.491367307756029,0.5,0.5,0.5,0.512892983949676,0.5,0.495664860443036,0.495664860443036,0.5,0.5,0.495664860443036,0.5,0.5,0.491367307756029,0.512892983949676,0.497822992590582,0.502177007409418,0.495664860443036,0.5,0.229926241973837,0.476373361117358,-0.495664860443036,-0.00429755268700736,0.5,0.00867027911392815,0.845318313595395,9.07450781578718,2.34408843151338,0.5,73.4959327240809
CBC_1018,CBC_1018_MSI_AV_v3_Vset5_Aset3_2023-07-28_14h09.48.835.csv,2,16,0,2,z,0,1,1,aud,C,27,1,0C,2C,0,1,b,1.61292660000026,1,0,0,0,0C,2C,C02,2.7408400239252,0.504335139556964,0.491367307756029,0.5,0.5,0.5,0.512892983949676,0.5,0.495664860443036,0.495664860443036,0.5,0.5,0.491367307756029,0.5,0.5,0.491367307756029,0.512892983949676,0.497822992590582,0.502177007409418,0.495664860443036,0.5,0.270712020836042,0.47725423791581,-0.495664860443036,-0.00429755268700736,0.5,0.00867027911392815,0.845318313595395,9.07450781578718,2.34408843151338,0.5,73.4959327240809
CBC_1018,CBC_1018_MSI_AV_v3_Vset5_Aset3_2023-07-28_14h09.48.835.csv,2,17,3,0,z,0,1,2,aud,A,9,1,3A,0A,0,1,b,2.0420436000004,1,0,0,0,3A,0A,A30,3.46573590279973,0.504335139556964,0.491367307756029,0.5,0.5,0.5,0.512892983949676,0.5,0.495664860443036,0.491367307756029,0.5,0.5,0.491367307756029,0.5,0.5,0.491367307756029,0.512892983949676,0.49784178637876,0.50215821362124,0.5,0.504335139556964,0.186009143655043,0.476704854728348,-0.5,-0.00433513955696407,0.5,0.00867027911392815,0.845318313595395,9.07450781578718,2.34408843151338,0.5,73.4959327240809
CBC_1018,CBC_1018_MSI_AV_v3_Vset5_Aset3_2023-07-28_14h09.48.835.csv,2,18,3,2,z,0,1,1,aud,C,63,0,3C,2C,1,0,b,1.61982400000034,1,0,0,1,3C,2C,C32,2.80336038090653,0.504335139556964,0.491367307756029,0.5,0.495664860443036,0.5,0.512892983949676,0.5,0.495664860443036,0.491367307756029,0.5,0.5,0.491367307756029,0.5,0.5,0.491367307756029,0.512892983949676,0.495646067720595,0.504353932279405,0.491367307756029,0.5,0.256167382023152,0.453499578418865,0.508632692243971,0.00440998740822395,0.5,0.00867027911392815,0.845318313595395,9.07450781578718,2.34408843151338,0.5,73.4959327240809
CBC_1018,CBC_1018_MSI_AV_v3_Vset5_Aset3_2023-07-28_14h09.48.835.csv,2,19,0,1,b,1,0,2,aud,A,63,1,0A,1A,1,0,z,2.07439600000043,0,1,0,0,1A,0A,A01,2.42774823594805,0.504335139556964,0.491367307756029,0.5,0.495664860443036,0.5,0.512892983949676,0.5,0.495664860443036,0.491367307756029,0.5,0.5,0.495777295164253,0.5,0.5,0.491367307756029,0.512892983949676,0.493488098861296,0.506511901138704,0.491367307756029,0.504335139556964,0.163001160142158,0.42962642594087,-0.491367307756029,-0.0042602917057042,0.5,0.00867027911392815,0.845318313595395,9.07450781578718,2.34408843151338,0.5,73.4959327240809
CBC_1018,CBC_1018_MSI_AV_v3_Vset5_Aset3_2023-07-28_14h09.48.835.csv,2,20,2,3,z,0,1,0,aud,D,63,1,2D,3D,0,1,b,2.23504880000019,1,0,0,0,2D,3D,D23,2.4567357728213,0.504335139556964,0.487107016050324,0.5,0.495664860443036,0.5,0.512892983949676,0.5,0.495664860443036,0.491367307756029,0.5,0.5,0.495777295164253,0.5,0.5,0.491367307756029,0.512892983949676,0.489282820215322,0.510717179784678,0.491367307756029,0.512892983949676,0.127322818107916,0.388157545520522,-0.491367307756029,-0.0042602917057042,0.5,0.00867027911392815,0.845318313595395,9.07450781578718,2.34408843151338,0.5,73.4959327240809
CBC_1018,CBC_1018_MSI_AV_v3_Vset5_Aset3_2023-07-28_14h09.48.835.csv,2,21,2,3,b,1,0,1,aud,C,63,1,2C,3C,NaN,NaN,[],NaN,NaN,NaN,NaN,NaN,,,C23,2.89037175789616,0.504335139556964,0.487107016050324,0.5,0.495664860443036,0.5,0.512892983949676,0.5,0.495664860443036,0.491367307756029,0.5,0.5,0.495777295164253,0.5,0.5,0.487107016050324,0.512892983949676,0,0,0,0,NaN,0,0,0,0.5,0.00867027911392815,0.845318313595395,9.07450781578718,2.34408843151338,0.5,73.4959327240809
CBC_1018,CBC_1018_MSI_AV_v3_Vset5_Aset3_2023-07-28_14h09.48.835.csv,2,22,1,3,z,0,1,0,aud,D,27,1,1D,3D,0,1,z,3.84637820000034,0,1,1,1,3D,1D,D13,3.61091791264422,0.504335139556964,0.487107016050324,0.5,0.495664860443036,0.5,0.512892983949676,0.5,0.495664860443036,0.491367307756029,0.5,0.5,0.495777295164253,0.5,0.5,0.487107016050324,0.512892983949676,0.506364435411232,0.493635564588768,0.512892983949676,0.5,0.0433080878113332,0.566946016633797,0.487107016050324,0.00422335378750899,0.5,0.00867027911392815,0.845318313595395,9.07450781578718,2.34408843151338,0.5,73.4959327240809
CBC_1018,CBC_1018_MSI_AV_v3_Vset5_Aset3_2023-07-28_14h09.48.835.csv,2,23,1,0,z,0,1,2,aud,A,63,1,1A,0A,0,1,z,1.23394170000029,0,1,1,1,0A,1A,A10,3.63758615972639,0.504335139556964,0.487107016050324,0.5,0.495664860443036,0.5,0.512892983949676,0.5,0.495664860443036,0.491367307756029,0.5,0.5,0.495777295164253,0.5,0.5,0.487107016050324,0.517116337737185,0.508688415864306,0.491311584135694,0.504335139556964,0.487107016050324,0.395695661218219,0.592775682304913,0.495664860443036,0.00429755268700736,0.5,0.00867027911392815,0.845318313595395,9.07450781578718,2.34408843151338,0.5,73.4959327240809
CBC_1018,CBC_1018_MSI_AV_v3_Vset5_Aset3_2023-07-28_14h09.48.835.csv,2,24,2,3,b,1,0,1,aud,C,63,1,2C,3C,1,0,b,1.7667878000002,1,0,1,1,2C,3C,C23,2.56494935746154,0.508632692243971,0.487107016050324,0.5,0.495664860443036,0.5,0.512892983949676,0.5,0.495664860443036,0.491367307756029,0.5,0.5,0.495777295164253,0.5,0.5,0.487107016050324,0.517116337737185,0.502120305843613,0.497879694156387,0.5,0.495777295164253,0.260132859976363,0.522357262971501,0.5,0.00433513955696407,0.5,0.00867027911392815,0.845318313595395,9.07450781578718,2.34408843151338,0.5,73.4959327240809
CBC_1018,CBC_1018_MSI_AV_v3_Vset5_Aset3_2023-07-28_14h09.48.835.csv,2,25,2,0,z,0,1,2,aud,A,27,1,2A,0A,0,1,z,2.15464950000023,0,1,1,1,0A,2A,A20,2.99573227355399,0.508632692243971,0.487107016050324,0.5,0.495664860443036,0.5,0.512892983949676,0.5,0.495664860443036,0.491367307756029,0.5,0.504335139556964,0.495777295164253,0.5,0.5,0.487107016050324,0.517116337737185,0.504279403349878,0.495720596650122,0.508632692243971,0.5,0.192456772684458,0.545524127971894,0.491367307756029,0.0042602917057042,0.5,0.00867027911392815,0.845318313595395,9.07450781578718,2.34408843151338,0.5,73.4959327240809
CBC_1018,CBC_1018_MSI_AV_v3_Vset5_Aset3_2023-07-28_14h09.48.835.csv,2,26,0,1,z,0,1,3,aud,B,63,1,0B,1B,0,1,z,2.59409750000032,0,1,1,1,1B,0B,B01,3.02042488614436,0.512892983949676,0.487107016050324,0.5,0.495664860443036,0.5,0.512892983949676,0.5,0.495664860443036,0.491367307756029,0.5,0.504335139556964,0.495777295164253,0.5,0.5,0.487107016050324,0.517116337737185,0.506364435411232,0.493635564588768,0.512892983949676,0.5,0.134474856371105,0.567012548366195,0.487107016050324,0.00422335378750899,0.5,0.00867027911392815,0.845318313595395,9.07450781578718,2.34408843151338,0.5,73.4959327240809
CBC_1018,CBC_1018_MSI_AV_v3_Vset5_Aset3_2023-07-28_14h09.48.835.csv,2,27,1,0,b,1,0,3,aud,B,63,1,1B,0B,1,0,b,1.61838830000033,1,0,1,1,1B,0B,B10,3.04452243772342,0.512892983949676,0.487107016050324,0.5,0.495664860443036,0.5,0.517116337737185,0.5,0.495664860443036,0.491367307756029,0.5,0.504335139556964,0.495777295164253,0.5,0.5,0.487107016050324,0.517116337737185,0.508414149444922,0.491585850555078,0.517116337737185,0.5,0.334359640701544,0.588292508628614,0.482883662262815,0.00418673613137442,0.5,0.00867027911392815,0.845318313595395,9.07450781578718,2.34408843151338,0.5,73.4959327240809
CBC_1018,CBC_1018_MSI_AV_v3_Vset5_Aset3_2023-07-28_14h09.48.835.csv,2,28,2,3,b,1,0,1,aud,C,63,1,2C,3C,1,0,z,1.7479902,0,1,0,0,3C,2C,C23,2.37490575457367,0.512892983949676,0.487107016050324,0.5,0.495664860443036,0.5,0.521303073868559,0.5,0.495664860443036,0.491367307756029,0.5,0.504335139556964,0.495777295164253,0.5,0.5,0.487107016050324,0.517116337737185,0.495721558848982,0.504278441151018,0.495777295164253,0.504335139556964,0.229994724422692,0.453856494013584,-0.495777295164253,-0.00429852752742241,0.5,0.00867027911392815,0.845318313595395,9.07450781578718,2.34408843151338,0.5,73.4959327240809
CBC_1018,CBC_1018_MSI_AV_v3_Vset5_Aset3_2023-07-28_14h09.48.835.csv,2,29,1,3,z,0,1,0,aud,D,27,1,1D,3D,0,1,z,1.84210180000036,0,1,1,1,3D,1D,D13,3.09104245335832,0.512892983949676,0.487107016050324,0.5,0.495664860443036,0.5,0.521303073868559,0.5,0.495664860443036,0.491367307756029,0.5,0.504335139556964,0.49147876763683,0.5,0.5,0.487107016050324,0.517116337737185,0.508414149444922,0.491585850555078,0.517116337737185,0.5,0.27549741416173,0.588582045262526,0.482883662262815,0.00418673613137442,0.5,0.00867027911392815,0.845318313595395,9.07450781578718,2.34408843151338,0.5,73.4959327240809
CBC_1018,CBC_1018_MSI_AV_v3_Vset5_Aset3_2023-07-28_14h09.48.835.csv,2,30,2,1,b,1,0,1,aud,C,9,1,2C,1C,1,0,b,1.54927730000009,1,0,1,1,2C,1C,C21,3.80666248977032,0.512892983949676,0.487107016050324,0.5,0.495664860443036,0.5,0.521303073868559,0.5,0.495664860443036,0.491367307756029,0.5,0.504335139556964,0.49147876763683,0.5,0.5,0.487107016050324,0.521303073868559,0.50215821362124,0.49784178637876,0.504335139556964,0.5,0.311605216223122,0.522509068738531,0.495664860443036,0.00429755268700736,0.5,0.00867027911392815,0.845318313595395,9.07450781578718,2.34408843151338,0.5,73.4959327240809
CBC_1018,CBC_1018_MSI_AV_v3_Vset5_Aset3_2023-07-28_14h09.48.835.csv,2,31,1,3,b,1,0,3,aud,B,27,1,1B,3B,1,0,b,3.08349670000052,1,0,1,1,1B,3B,B13,3.13549421592915,0.512892983949676,0.487107016050324,0.5,0.495664860443036,0.5,0.521303073868559,0.5,0.495664860443036,0.491367307756029,0.5,0.508632692243971,0.49147876763683,0.5,0.5,0.487107016050324,0.521303073868559,0.512605222131649,0.487394777868351,0.521303073868559,0.495664860443036,0.0944380633335525,0.630765037045542,0.478696926131441,0.00415043596053904,0.5,0.00867027911392815,0.845318313595395,9.07450781578718,2.34408843151338,0.5,73.4959327240809
CBC_1018,CBC_1018_MSI_AV_v3_Vset5_Aset3_2023-07-28_14h09.48.835.csv,2,32,2,3,z,0,1,0,aud,D,63,1,2D,3D,0,1,z,0.96623480000062,0,1,1,1,3D,2D,D23,2.46385324059017,0.512892983949676,0.487107016050324,0.5,0.495664860443036,0.5,0.525453509829098,0.5,0.495664860443036,0.491367307756029,0.5,0.508632692243971,0.49147876763683,0.5,0.5,0.487107016050324,0.521303073868559,0.516955432199704,0.483044567800296,0.521303073868559,0.487107016050324,0.0540813572719077,0.67258894730334,0.478696926131441,0.00415043596053904,0.5,0.00867027911392815,0.845318313595395,9.07450781578718,2.34408843151338,0.5,73.4959327240809
CBC_1018,CBC_1018_MSI_AV_v3_Vset5_Aset3_2023-07-28_14h09.48.835.csv,2,33,1,0,b,1,0,3,aud,B,63,1,1B,0B,NaN,NaN,[],NaN,NaN,NaN,NaN,NaN,,,B10,2.77258872223978,0.512892983949676,0.487107016050324,0.5,0.495664860443036,0.5,0.525453509829098,0.5,0.495664860443036,0.491367307756029,0.5,0.508632692243971,0.49147876763683,0.5,0.5,0.487107016050324,0.525453509829098,0,0,0,0,NaN,0,0,0,0.5,0.00867027911392815,0.845318313595395,9.07450781578718,2.34408843151338,0.5,73.4959327240809
CBC_1018,CBC_1018_MSI_AV_v3_Vset5_Aset3_2023-07-28_14h09.48.835.csv,2,34,0,1,b,1,0,2,aud,A,63,0,0A,1A,0,1,z,1.72127570000021,0,1,0,1,1A,0A,A01,2.50552593699074,0.512892983949676,0.487107016050324,0.5,0.495664860443036,0.5,0.525453509829098,0.5,0.495664860443036,0.491367307756029,0.5,0.508632692243971,0.49147876763683,0.5,0.5,0.487107016050324,0.525453509829098,0.487107016050324,0.512892983949676,0.487107016050324,0.512892983949676,0.192061274306045,0.366056470688838,0.512892983949676,0.00444692532641916,0.5,0.00867027911392815,0.845318313595395,9.07450781578718,2.34408843151338,0.5,73.4959327240809
CBC_1018,CBC_1018_MSI_AV_v3_Vset5_Aset3_2023-07-28_14h09.48.835.csv,2,35,3,2,z,0,1,1,aud,C,63,1,3C,2C,0,1,z,2.17587880000019,0,1,1,1,2C,3C,C32,2.81341071676004,0.512892983949676,0.491553941376744,0.5,0.495664860443036,0.5,0.525453509829098,0.5,0.495664860443036,0.491367307756029,0.5,0.508632692243971,0.49147876763683,0.5,0.5,0.487107016050324,0.525453509829098,0.508576006422917,0.491423993577083,0.508632692243971,0.49147876763683,0.204729808303859,0.5913143037986,0.491367307756029,0.0042602917057042,0.5,0.00867027911392815,0.845318313595395,9.07450781578718,2.34408843151338,0.5,73.4959327240809
CBC_1018,CBC_1018_MSI_AV_v3_Vset5_Aset3_2023-07-28_14h09.48.835.csv,2,36,2,0,z,0,1,2,aud,A,27,1,2A,0A,0,1,b,2.81123360000038,1,0,0,0,2A,0A,A20,2.83321334405622,0.512892983949676,0.491553941376744,0.5,0.495664860443036,0.5,0.525453509829098,0.5,0.495664860443036,0.491367307756029,0.5,0.512892983949676,0.49147876763683,0.5,0.5,0.487107016050324,0.525453509829098,0.493635564588768,0.506364435411232,0.5,0.512892983949676,0.0846059351423867,0.434115930168688,-0.5,-0.00433513955696407,0.5,0.00867027911392815,0.845318313595395,9.07450781578718,2.34408843151338,0.5,73.4959327240809
CBC_1018,CBC_1018_MSI_AV_v3_Vset5_Aset3_2023-07-28_14h09.48.835.csv,2,37,1,0,b,1,0,3,aud,B,63,1,1B,0B,1,0,z,3.92325270000038,0,1,0,0,0B,1B,B10,2.56494935746154,0.512892983949676,0.491553941376744,0.495664860443036,0.495664860443036,0.5,0.525453509829098,0.5,0.495664860443036,0.491367307756029,0.5,0.512892983949676,0.49147876763683,0.5,0.5,0.487107016050324,0.525453509829098,0.487589144907534,0.512410855092465,0.5,0.525453509829098,0.0256168316348995,0.371251526007008,-0.5,-0.00433513955696407,0.5,0.00867027911392815,0.845318313595395,9.07450781578718,2.34408843151338,0.5,73.4959327240809
CBC_1018,CBC_1018_MSI_AV_v3_Vset5_Aset3_2023-07-28_14h09.48.835.csv,2,38,3,2,b,1,0,0,aud,D,63,1,3D,2D,1,0,b,1.50842760000023,1,0,1,1,3D,2D,D32,2.87167962488401,0.512892983949676,0.491553941376744,0.495664860443036,0.495664860443036,0.495664860443036,0.525453509829098,0.5,0.495664860443036,0.491367307756029,0.5,0.512892983949676,0.49147876763683,0.5,0.5,0.487107016050324,0.525453509829098,0.518935408204596,0.481064591795404,0.525453509829098,0.487107016050324,0.441858657568678,0.691229328165006,0.474546490170902,0.00411445052231668,0.5,0.00867027911392815,0.845318313595395,9.07450781578718,2.34408843151338,0.5,73.4959327240809
CBC_1018,CBC_1018_MSI_AV_v3_Vset5_Aset3_2023-07-28_14h09.48.835.csv,2,39,2,1,z,0,1,3,aud,B,9,1,2B,1B,0,1,z,2.68801960000064,0,1,1,1,1B,2B,B21,3.98898404656427,0.512892983949676,0.491553941376744,0.495664860443036,0.495664860443036,0.495664860443036,0.525453509829098,0.5,0.495664860443036,0.491367307756029,0.5,0.512892983949676,0.49147876763683,0.5,0.5,0.487107016050324,0.529567960351415,0.512410855092465,0.487589144907534,0.525453509829098,0.5,0.135795112567417,0.629107218733358,0.474546490170902,0.00411445052231668,0.5,0.00867027911392815,0.845318313595395,9.07450781578718,2.34408843151338,0.5,73.4959327240809
CBC_1018,CBC_1018_MSI_AV_v3_Vset5_Aset3_2023-07-28_14h09.48.835.csv,2,40,3,1,b,1,0,0,aud,D,27,1,3D,1D,1,0,b,2.1859816000001,1,0,1,1,3D,1D,D31,4.00733318523247,0.512892983949676,0.491553941376744,0.495664860443036,0.495664860443036,0.495664860443036,0.529567960351415,0.5,0.495664860443036,0.491367307756029,0.5,0.512892983949676,0.49147876763683,0.5,0.5,0.487107016050324,0.529567960351415,0.514359401948232,0.485640598051768,0.529567960351415,0.5,0.222608845851474,0.648822865022175,0.470432039648585,0.00407877708788775,0.5,0.00867027911392815,0.845318313595395,9.07450781578718,2.34408843151338,0.5,73.4959327240809
CBC_1018,CBC_1018_MSI_AV_v3_Vset5_Aset3_2023-07-28_14h09.48.835.csv,2,41,0,1,b,1,0,2,aud,A,63,1,0A,1A,1,0,b,2.33374430000049,1,0,1,1,0A,1A,A01,2.41591377830105,0.512892983949676,0.491553941376744,0.495664860443036,0.495664860443036,0.495664860443036,0.529567960351415,0.5,0.495664860443036,0.491367307756029,0.5,0.512892983949676,0.49147876763683,0.5,0.5,0.487107016050324,0.533646737439302,0.510622284779257,0.489377715220743,0.512892983949676,0.491553941376744,0.182948244331171,0.610483612928967,0.487107016050324,0.00422335378750899,0.5,0.00867027911392815,0.845318313595395,9.07450781578718,2.34408843151338,0.5,73.4959327240809
CBC_1018,CBC_1018_MSI_AV_v3_Vset5_Aset3_2023-07-28_14h09.48.835.csv,2,42,1,0,z,0,1,2,aud,A,63,1,1A,0A,0,1,z,1.79568570000038,0,1,1,1,0A,1A,A10,3.3499040872746,0.517116337737185,0.491553941376744,0.495664860443036,0.495664860443036,0.495664860443036,0.529567960351415,0.5,0.495664860443036,0.491367307756029,0.5,0.512892983949676,0.49147876763683,0.5,0.5,0.487107016050324,0.533646737439302,0.512671334176167,0.487328665823833,0.517116337737185,0.491553941376744,0.309353941800435,0.630545489336166,0.482883662262815,0.00418673613137442,0.5,0.00867027911392815,0.845318313595395,9.07450781578718,2.34408843151338,0.5,73.4959327240809
CBC_1018,CBC_1018_MSI_AV_v3_Vset5_Aset3_2023-07-28_14h09.48.835.csv,2,43,0,2,z,0,1,1,aud,C,27,1,0C,2C,0,1,b,2.29324390000056,1,0,0,0,0C,2C,C02,2.96183072187831,0.521303073868559,0.491553941376744,0.495664860443036,0.495664860443036,0.495664860443036,0.529567960351415,0.5,0.495664860443036,0.491367307756029,0.5,0.512892983949676,0.49147876763683,0.5,0.5,0.487107016050324,0.533646737439302,0.489282820215322,0.510717179784678,0.491367307756029,0.512892983949676,0.120809466050449,0.388465279493923,-0.491367307756029,-0.0042602917057042,0.5,0.00867027911392815,0.845318313595395,9.07450781578718,2.34408843151338,0.5,73.4959327240809
CBC_1018,CBC_1018_MSI_AV_v3_Vset5_Aset3_2023-07-28_14h09.48.835.csv,2,44,1,0,b,1,0,3,aud,B,63,1,1B,0B,1,0,z,2.17258250000032,0,1,0,0,0B,1B,B10,2.46809953147162,0.521303073868559,0.491553941376744,0.495664860443036,0.495664860443036,0.495664860443036,0.529567960351415,0.5,0.495664860443036,0.487107016050324,0.5,0.512892983949676,0.49147876763683,0.5,0.5,0.487107016050324,0.533646737439302,0.483465658131142,0.516534341868858,0.495664860443036,0.529567960351415,0.115415717889702,0.332227767658888,-0.495664860443036,-0.00429755268700736,0.5,0.00867027911392815,0.845318313595395,9.07450781578718,2.34408843151338,0.5,73.4959327240809
CBC_1018,CBC_1018_MSI_AV_v3_Vset6_Aset2_2023-07-28_14h27.02.226.csv,3,1,1,0,z,0,1,2,aud,A,63,1,1A,0A,0,1,z,2.45937839999988,0,1,1,1,0A,1A,A10,2.77258872223978,0.5,0.5,0.5,0.5,0.5,0.5,0.5,0.5,0.5,0.5,0.5,0.5,0.5,0.5,0.5,0.5,0.5,0.5,0.5,0.5,0.144340674185901,0.500172519671089,0.5,0.478316241849586,0.5,0.956632483699172,0.92903710335918,0.0971549880967895,2.33660186472717,0.5,75.1498272917152
CBC_1018,CBC_1018_MSI_AV_v3_Vset6_Aset2_2023-07-28_14h27.02.226.csv,3,2,2,3,b,1,0,1,aud,C,63,1,2C,3C,1,0,z,2.03008929999942,0,1,0,0,3C,2C,C23,2.83321334405622,0.978316241849586,0.5,0.5,0.5,0.5,0.5,0.5,0.5,0.5,0.5,0.5,0.5,0.5,0.5,0.5,0.5,0.5,0.5,0.5,0.5,0.212176507656853,0.499285490613268,-0.5,-0.478316241849586,0.5,0.956632483699172,0.92903710335918,0.0971549880967895,2.33660186472717,0.5,75.1498272917152
CBC_1018,CBC_1018_MSI_AV_v3_Vset6_Aset2_2023-07-28_14h27.02.226.csv,3,3,2,0,z,0,1,2,aud,A,27,1,2A,0A,0,1,b,1.74894179999956,1,0,0,0,2A,0A,A20,2.89037175789616,0.978316241849586,0.5,0.5,0.5,0.5,0.5,0.5,0.5,0.5,0.5,0.5,0.021683758150414,0.5,0.5,0.5,0.5,0.338222625068658,0.661777374931342,0.5,0.978316241849586,0.261750298764579,0.480926604099416,-0.5,-0.478316241849586,0.5,0.956632483699172,0.92903710335918,0.0971549880967895,2.33660186472717,0.5,75.1498272917152
CBC_1018,CBC_1018_MSI_AV_v3_Vset6_Aset2_2023-07-28_14h27.02.226.csv,3,4,0,1,z,0,1,3,aud,B,63,1,0B,1B,0,1,z,2.07130739999957,0,1,1,1,1B,0B,B01,2.94443897916644,0.978316241849586,0.5,0.021683758150414,0.5,0.5,0.5,0.5,0.5,0.5,0.5,0.5,0.021683758150414,0.5,0.5,0.5,0.5,0.5,0.5,0.5,0.5,0.204899956108691,0.500329599829862,0.5,0.478316241849586,0.5,0.956632483699172,0.92903710335918,0.0971549880967895,2.33660186472717,0.5,75.1498272917152
CBC_1018,CBC_1018_MSI_AV_v3_Vset6_Aset2_2023-07-28_14h27.02.226.csv,3,5,1,0,b,1,0,3,aud,B,63,1,1B,0B,1,0,b,1.5900675999992,1,0,1,1,1B,0B,B10,2.99573227355399,0.978316241849586,0.5,0.021683758150414,0.5,0.5,0.978316241849586,0.5,0.5,0.5,0.5,0.5,0.021683758150414,0.5,0.5,0.5,0.5,0.661777374931342,0.338222625068658,0.978316241849586,0.5,0.320108077074756,0.518435844711984,0.021683758150414,0.0207433874153627,0.5,0.956632483699172,0.92903710335918,0.0971549880967895,2.33660186472717,0.5,75.1498272917152
CBC_1018,CBC_1018_MSI_AV_v3_Vset6_Aset2_2023-07-28_14h27.02.226.csv,3,6,2,3,b,1,0,1,aud,C,63,1,2C,3C,1,0,z,1.48164019999967,0,1,0,0,3C,2C,C23,2.35137525716348,0.978316241849586,0.5,0.021683758150414,0.5,0.5,0.999059629264949,0.5,0.5,0.5,0.5,0.5,0.021683758150414,0.5,0.5,0.5,0.5,0.0415649477516646,0.958435052248335,0.021683758150414,0.5,0.296831633110816,0.448407727543967,-0.021683758150414,-0.0207433874153627,0.5,0.956632483699172,0.92903710335918,0.0971549880967895,2.33660186472717,0.5,75.1498272917152
CBC_1018,CBC_1018_MSI_AV_v3_Vset6_Aset2_2023-07-28_14h27.02.226.csv,3,7,1,3,z,0,1,0,aud,D,27,1,1D,3D,0,1,z,1.58286109999972,0,1,1,1,3D,1D,D13,3.09104245335832,0.978316241849586,0.5,0.021683758150414,0.5,0.5,0.999059629264949,0.5,0.5,0.5,0.5,0.5,0.000940370735051294,0.5,0.5,0.5,0.5,0.5,0.5,0.5,0.5,0.31068851436334,0.500780416518717,0.5,0.478316241849586,0.5,0.956632483699172,0.92903710335918,0.0971549880967895,2.33660186472717,0.5,75.1498272917152
CBC_1018,CBC_1018_MSI_AV_v3_Vset6_Aset2_2023-07-28_14h27.02.226.csv,3,8,2,1,b,1,0,1,aud,C,9,1,2C,1C,1,0,z,1.40507919999891,0,1,0,0,1C,2C,C21,3.13549421592915,0.978316241849586,0.5,0.021683758150414,0.5,0.5,0.999059629264949,0.5,0.5,0.5,0.5,0.5,0.000940370735051294,0.5,0.5,0.5,0.978316241849586,0.5,0.5,0.5,0.5,0.338004374805354,0.499484888312566,-0.5,-0.478316241849586,0.5,0.956632483699172,0.92903710335918,0.0971549880967895,2.33660186472717,0.5,75.1498272917152
CBC_1018,CBC_1018_MSI_AV_v3_Vset6_Aset2_2023-07-28_14h27.02.226.csv,3,9,1,3,b,1,0,3,aud,B,27,1,1B,3B,1,0,z,3.31772519999959,0,1,0,0,3B,1B,B13,3.17805383034795,0.978316241849586,0.5,0.021683758150414,0.5,0.5,0.999059629264949,0.5,0.5,0.5,0.021683758150414,0.5,0.000940370735051294,0.5,0.5,0.5,0.978316241849586,0.333542435696951,0.666457564303049,0.5,0.999059629264949,0.0638742125045862,0.48106762361349,-0.5,-0.478316241849586,0.5,0.956632483699172,0.92903710335918,0.0971549880967895,2.33660186472717,0.5,75.1498272917152
CBC_1018,CBC_1018_MSI_AV_v3_Vset6_Aset2_2023-07-28_14h27.02.226.csv,3,10,2,3,z,0,1,0,aud,D,63,1,2D,3D,0,1,b,2.8524625,1,0,0,0,2D,3D,D23,3.2188758248682,0.978316241849586,0.5,0.021683758150414,0.5,0.5,0.999059629264949,0.5,0.021683758150414,0.5,0.021683758150414,0.5,0.000940370735051294,0.5,0.5,0.5,0.978316241849586,0.338222625068658,0.661777374931342,0.5,0.978316241849586,0.0974360428724767,0.481782636878036,-0.5,-0.478316241849586,0.5,0.956632483699172,0.92903710335918,0.0971549880967895,2.33660186472717,0.5,75.1498272917152
CBC_1018,CBC_1018_MSI_AV_v3_Vset6_Aset2_2023-07-28_14h27.02.226.csv,3,11,0,1,z,0,1,3,aud,B,63,1,0B,1B,0,1,b,1.5889174999993,1,0,0,0,0B,1B,B01,2.56494935746154,0.978316241849586,0.5,0.021683758150414,0.5,0.5,0.999059629264949,0.5,0.021683758150414,0.5,0.021683758150414,0.5,0.000940370735051294,0.5,0.5,0.021683758150414,0.978316241849586,0.333542435696951,0.666457564303049,0.5,0.999059629264949,0.297044220686217,0.480669218022777,-0.5,-0.478316241849586,0.5,0.956632483699172,0.92903710335918,0.0971549880967895,2.33660186472717,0.5,75.1498272917152
CBC_1018,CBC_1018_MSI_AV_v3_Vset6_Aset2_2023-07-28_14h27.02.226.csv,3,12,2,0,b,1,0,1,aud,C,27,1,2C,0C,NaN,NaN,[],NaN,NaN,NaN,NaN,NaN,,,C20,3.29583686600433,0.978316241849586,0.5,0.021683758150414,0.5,0.021683758150414,0.999059629264949,0.5,0.021683758150414,0.5,0.021683758150414,0.5,0.000940370735051294,0.5,0.5,0.021683758150414,0.978316241849586,0,0,0,0,NaN,0,0,0,0.5,0.956632483699172,0.92903710335918,0.0971549880967895,2.33660186472717,0.5,75.1498272917152
CBC_1018,CBC_1018_MSI_AV_v3_Vset6_Aset2_2023-07-28_14h27.02.226.csv,3,13,2,3,z,0,1,0,aud,D,63,0,2D,3D,1,0,z,2.10100929999953,0,1,1,0,3D,2D,D23,2.63905732961526,0.978316241849586,0.5,0.021683758150414,0.5,0.021683758150414,0.999059629264949,0.5,0.021683758150414,0.5,0.021683758150414,0.5,0.000940370735051294,0.5,0.5,0.021683758150414,0.978316241849586,0.978316241849586,0.021683758150414,0.978316241849586,0.021683758150414,0.220927070308438,0.553613216039035,-0.978316241849586,-0.935889096283809,0.5,0.956632483699172,0.92903710335918,0.0971549880967895,2.33660186472717,0.5,75.1498272917152
CBC_1018,CBC_1018_MSI_AV_v3_Vset6_Aset2_2023-07-28_14h27.02.226.csv,3,14,0,1,b,1,0,2,aud,A,63,1,0A,1A,1,0,z,2.20678520000001,0,1,0,0,1A,0A,A01,3.36729582998647,0.978316241849586,0.5,0.021683758150414,0.5,0.021683758150414,0.999059629264949,0.5,0.021683758150414,0.5,0.021683758150414,0.5,0.000940370735051294,0.5,0.5,0.021683758150414,0.0424271455657768,0.338222625068658,0.661777374931342,0.5,0.978316241849586,0.174651089590511,0.481767082840857,-0.5,-0.478316241849586,0.5,0.956632483699172,0.92903710335918,0.0971549880967895,2.33660186472717,0.5,75.1498272917152
CBC_1018,CBC_1018_MSI_AV_v3_Vset6_Aset2_2023-07-28_14h27.02.226.csv,3,15,3,2,z,0,1,1,aud,C,63,1,3C,2C,0,1,z,3.88512379999975,0,1,1,1,2C,3C,C32,3.40119738166216,0.978316241849586,0.021683758150414,0.021683758150414,0.5,0.021683758150414,0.999059629264949,0.5,0.021683758150414,0.5,0.021683758150414,0.5,0.000940370735051294,0.5,0.5,0.021683758150414,0.0424271455657768,0.998122789078326,0.00187721092167407,0.5,0.000940370735051294,0.0439388180974915,0.556534703798632,0.5,0.478316241849586,0.5,0.956632483699172,0.92903710335918,0.0971549880967895,2.33660186472717,0.5,75.1498272917152
CBC_1018,CBC_1018_MSI_AV_v3_Vset6_Aset2_2023-07-28_14h27.02.226.csv,3,16,2,0,z,0,1,2,aud,A,27,1,2A,0A,0,1,z,2.73350879999998,0,1,1,1,0A,2A,A20,2.7408400239252,0.978316241849586,0.021683758150414,0.021683758150414,0.5,0.021683758150414,0.999059629264949,0.5,0.021683758150414,0.5,0.021683758150414,0.978316241849586,0.000940370735051294,0.5,0.5,0.021683758150414,0.0424271455657768,0.978316241849586,0.021683758150414,0.978316241849586,0.021683758150414,0.124396808684486,0.553266650241657,0.021683758150414,0.0207433874153627,0.5,0.956632483699172,0.92903710335918,0.0971549880967895,2.33660186472717,0.5,75.1498272917152
CBC_1018,CBC_1018_MSI_AV_v3_Vset6_Aset2_2023-07-28_14h27.02.226.csv,3,17,3,2,b,1,0,0,aud,D,63,1,3D,2D,1,0,b,1.86541409999973,1,0,1,1,3D,2D,D32,3.46573590279973,0.999059629264949,0.021683758150414,0.021683758150414,0.5,0.021683758150414,0.999059629264949,0.5,0.021683758150414,0.5,0.021683758150414,0.978316241849586,0.000940370735051294,0.5,0.5,0.021683758150414,0.0424271455657768,0.661777374931342,0.338222625068658,0.0424271455657768,0.021683758150414,0.255665249503554,0.519540971508569,0.957572854434223,0.916045298060317,0.5,0.956632483699172,0.92903710335918,0.0971549880967895,2.33660186472717,0.5,75.1498272917152
CBC_1018,CBC_1018_MSI_AV_v3_Vset6_Aset2_2023-07-28_14h27.02.226.csv,3,18,2,3,z,0,1,0,aud,D,63,1,2D,3D,0,1,z,1.52787109999917,0,1,1,1,3D,2D,D23,2.39789527279837,0.999059629264949,0.021683758150414,0.021683758150414,0.5,0.021683758150414,0.999059629264949,0.5,0.021683758150414,0.5,0.021683758150414,0.978316241849586,0.000940370735051294,0.5,0.5,0.021683758150414,0.958472443626093,0.977877242309835,0.0221227576901649,0.958472443626093,0.021683758150414,0.357610906572061,0.554031745301338,0.0415275563739066,0.0397266093959276,0.5,0.956632483699172,0.92903710335918,0.0971549880967895,2.33660186472717,0.5,75.1498272917152
CBC_1018,CBC_1018_MSI_AV_v3_Vset6_Aset2_2023-07-28_14h27.02.226.csv,3,19,1,3,b,1,0,3,aud,B,27,1,1B,3B,1,0,z,1.5814251999991,0,1,0,0,3B,1B,B13,2.83321334405622,0.999059629264949,0.021683758150414,0.021683758150414,0.5,0.021683758150414,0.999059629264949,0.5,0.021683758150414,0.5,0.021683758150414,0.978316241849586,0.000940370735051294,0.5,0.5,0.021683758150414,0.998199053022021,0.0212431042098835,0.978756895790116,0.021683758150414,0.999059629264949,0.277204333022537,0.444940452388873,-0.021683758150414,-0.0207433874153627,0.5,0.956632483699172,0.92903710335918,0.0971549880967895,2.33660186472717,0.5,75.1498272917152
CBC_1018,CBC_1018_MSI_AV_v3_Vset6_Aset2_2023-07-28_14h27.02.226.csv,3,20,3,0,b,1,0,0,aud,D,9,1,3D,0D,1,0,z,1.45310579999932,0,1,0,0,0D,3D,D30,3.55534806148941,0.999059629264949,0.021683758150414,0.021683758150414,0.5,0.021683758150414,0.999059629264949,0.5,0.000940370735051294,0.5,0.021683758150414,0.978316241849586,0.000940370735051294,0.5,0.5,0.021683758150414,0.998199053022021,0.333734024855675,0.666265975144325,0.5,0.998199053022021,0.321900881188449,0.481641753333706,-0.5,-0.478316241849586,0.5,0.956632483699172,0.92903710335918,0.0971549880967895,2.33660186472717,0.5,75.1498272917152
CBC_1018,CBC_1018_MSI_AV_v3_Vset6_Aset2_2023-07-28_14h27.02.226.csv,3,21,0,1,z,0,1,3,aud,B,63,1,0B,1B,0,1,z,1.06932949999918,0,1,1,1,1B,0B,B01,2.484906649788,0.999059629264949,0.021683758150414,0.021683758150414,0.5,0.021683758150414,0.999059629264949,0.5,0.000940370735051294,0.5,0.021683758150414,0.978316241849586,0.000940370735051294,0.021683758150414,0.5,0.021683758150414,0.998199053022021,0.978756895790116,0.0212431042098835,0.999059629264949,0.021683758150414,0.0762644843703448,0.554280482419521,0.000940370735051266,0.000899589191870108,0.5,0.956632483699172,0.92903710335918,0.0971549880967895,2.33660186472717,0.5,75.1498272917152
CBC_1018,CBC_1018_MSI_AV_v3_Vset6_Aset2_2023-07-28_14h27.02.226.csv,3,22,0,1,b,1,0,2,aud,A,63,1,0A,1A,1,0,b,1.4950200000003,1,0,1,1,0A,1A,A01,2.91777073208428,0.999059629264949,0.021683758150414,0.021683758150414,0.5,0.021683758150414,0.999959218456819,0.5,0.000940370735051294,0.5,0.021683758150414,0.978316241849586,0.000940370735051294,0.021683758150414,0.5,0.021683758150414,0.998199053022021,0.978756895790116,0.0212431042098835,0.999059629264949,0.021683758150414,0.364464698352084,0.554148054855317,0.000940370735051266,0.000899589191870108,0.5,0.956632483699172,0.92903710335918,0.0971549880967895,2.33660186472717,0.5,75.1498272917152
CBC_1018,CBC_1018_MSI_AV_v3_Vset6_Aset2_2023-07-28_14h27.02.226.csv,3,23,3,2,z,0,1,1,aud,C,63,1,3C,2C,0,1,b,2.56937420000031,1,0,0,0,3C,2C,C32,2.94443897916644,0.999959218456819,0.021683758150414,0.021683758150414,0.5,0.021683758150414,0.999959218456819,0.5,0.000940370735051294,0.5,0.021683758150414,0.978316241849586,0.000940370735051294,0.021683758150414,0.5,0.021683758150414,0.998199053022021,0.000960290411079575,0.99903970958892,0.000940370735051294,0.978316241849586,0.115903176351876,0.444170425838802,-0.000940370735051294,-0.000899589191870135,0.5,0.956632483699172,0.92903710335918,0.0971549880967895,2.33660186472717,0.5,75.1498272917152
CBC_1018,CBC_1018_MSI_AV_v3_Vset6_Aset2_2023-07-28_14h27.02.226.csv,3,24,2,0,z,0,1,2,aud,A,27,1,2A,0A,0,1,z,1.59247989999949,0,1,1,1,0A,2A,A20,2.56494935746154,0.999959218456819,0.021683758150414,0.021683758150414,0.5,0.021683758150414,0.999959218456819,0.5,0.000940370735051294,0.5,0.021683758150414,0.978316241849586,4.07815431811586e-05,0.021683758150414,0.5,0.021683758150414,0.998199053022021,0.978775601020208,0.0212243989797918,0.999959218456819,0.021683758150414,0.34251413099365,0.554198763934424,4.0781543181212e-05,3.90129489425278e-05,0.5,0.956632483699172,0.92903710335918,0.0971549880967895,2.33660186472717,0.5,75.1498272917152
CBC_1018,CBC_1018_MSI_AV_v3_Vset6_Aset2_2023-07-28_14h27.02.226.csv,3,25,0,1,z,0,1,3,aud,B,63,1,0B,1B,0,1,z,1.60235469999952,0,1,1,1,1B,0B,B01,2.30258509299405,0.999998231405761,0.021683758150414,0.021683758150414,0.5,0.021683758150414,0.999959218456819,0.5,0.000940370735051294,0.5,0.021683758150414,0.978316241849586,4.07815431811586e-05,0.021683758150414,0.5,0.021683758150414,0.998199053022021,0.978775601020208,0.0212243989797918,0.999959218456819,0.021683758150414,0.340358111215864,0.554672098103637,4.0781543181212e-05,3.90129489425278e-05,0.5,0.956632483699172,0.92903710335918,0.0971549880967895,2.33660186472717,0.5,75.1498272917152
CBC_1018,CBC_1018_MSI_AV_v3_Vset6_Aset2_2023-07-28_14h27.02.226.csv,3,26,3,2,b,1,0,0,aud,D,63,1,3D,2D,1,0,b,1.87663069999962,1,0,1,1,3D,2D,D32,3.02042488614436,0.999998231405761,0.021683758150414,0.021683758150414,0.5,0.021683758150414,0.999998231405761,0.5,0.000940370735051294,0.5,0.021683758150414,0.978316241849586,4.07815431811586e-05,0.021683758150414,0.5,0.021683758150414,0.998199053022021,0.978738970876971,0.0212610291230292,0.998199053022021,0.021683758150414,0.270130870995986,0.553541626591563,0.00180094697797895,0.00172284438055452,0.5,0.956632483699172,0.92903710335918,0.0971549880967895,2.33660186472717,0.5,75.1498272917152
CBC_1018,CBC_1018_MSI_AV_v3_Vset6_Aset2_2023-07-28_14h27.02.226.csv,3,27,2,1,z,0,1,3,aud,B,9,1,2B,1B,0,1,z,1.49909759999991,0,1,1,1,1B,2B,B21,3.73766961828337,0.999998231405761,0.021683758150414,0.021683758150414,0.5,0.021683758150414,0.999998231405761,0.5,0.000940370735051294,0.5,0.021683758150414,0.978316241849586,4.07815431811586e-05,0.021683758150414,0.5,0.021683758150414,0.999921897402576,0.666666273645261,0.333333726354739,0.999998231405761,0.5,0.340352966451319,0.520149847124822,1.76859423872688e-06,1.69189469924935e-06,0.5,0.956632483699172,0.92903710335918,0.0971549880967895,2.33660186472717,0.5,75.1498272917152
CBC_1018,CBC_1018_MSI_AV_v3_Vset6_Aset2_2023-07-28_14h27.02.226.csv,3,28,3,1,b,1,0,0,aud,D,27,1,3D,1D,1,0,z,3.42659429999912,0,1,0,0,1D,3D,D31,3.76120011569356,0.999998231405761,0.021683758150414,0.021683758150414,0.5,0.021683758150414,0.999999923300461,0.5,0.000940370735051294,0.5,0.021683758150414,0.978316241849586,4.07815431811586e-05,0.021683758150414,0.5,0.021683758150414,0.999921897402576,0.333350690369847,0.666649309630153,0.5,0.999921897402576,0.0578660378976596,0.480915609124151,-0.5,-0.478316241849586,0.5,0.956632483699172,0.92903710335918,0.0971549880967895,2.33660186472717,0.5,75.1498272917152
CBC_1018,CBC_1018_MSI_AV_v3_Vset6_Aset2_2023-07-28_14h27.02.226.csv,3,29,0,1,b,1,0,2,aud,A,63,1,0A,1A,1,0,z,2.64519009999913,0,1,0,0,1A,0A,A01,2.68557734525015,0.999998231405761,0.021683758150414,0.021683758150414,0.5,0.021683758150414,0.999999923300461,0.5,0.000940370735051294,0.5,0.021683758150414,0.978316241849586,4.07815431811586e-05,0.021683758150414,0.021683758150414,0.021683758150414,0.999921897402576,0.0212235885256562,0.978776411474344,0.021683758150414,0.999998231405761,0.108729522261534,0.44632973627374,-0.021683758150414,-0.0207433874153627,0.5,0.956632483699172,0.92903710335918,0.0971549880967895,2.33660186472717,0.5,75.1498272917152
CBC_1018,CBC_1018_MSI_AV_v3_Vset6_Aset2_2023-07-28_14h27.02.226.csv,3,30,1,0,z,0,1,2,aud,A,63,1,1A,0A,0,1,z,3.7638608999996,0,1,1,1,0A,1A,A10,3.11351530921037,0.999998231405761,0.000940370735051294,0.021683758150414,0.5,0.021683758150414,0.999999923300461,0.5,0.000940370735051294,0.5,0.021683758150414,0.978316241849586,4.07815431811586e-05,0.021683758150414,0.021683758150414,0.021683758150414,0.999921897402576,0.999060511071268,0.000939488928731516,0.999998231405761,0.000940370735051294,0.0489671458611329,0.555358784304376,1.76859423872688e-06,1.69189469924935e-06,0.5,0.956632483699172,0.92903710335918,0.0971549880967895,2.33660186472717,0.5,75.1498272917152
CBC_1018,CBC_1018_MSI_AV_v3_Vset6_Aset2_2023-07-28_14h27.02.226.csv,3,31,2,0,b,1,0,1,aud,C,27,1,2C,0C,1,0,z,2.25814069999979,0,1,0,0,0C,2C,C20,3.13549421592915,0.999999923300461,0.000940370735051294,0.021683758150414,0.5,0.021683758150414,0.999999923300461,0.5,0.000940370735051294,0.5,0.021683758150414,0.978316241849586,4.07815431811586e-05,0.021683758150414,0.021683758150414,0.021683758150414,0.999921897402576,0.338222625068658,0.661777374931342,0.5,0.978316241849586,0.166916340523167,0.482276178084824,-0.5,-0.478316241849586,0.5,0.956632483699172,0.92903710335918,0.0971549880967895,2.33660186472717,0.5,75.1498272917152
CBC_1018,CBC_1018_MSI_AV_v3_Vset6_Aset2_2023-07-28_14h27.02.226.csv,3,32,0,1,b,1,0,2,aud,A,63,1,0A,1A,1,0,z,2.29564959999971,0,1,0,0,1A,0A,A01,2.46385324059017,0.999999923300461,0.000940370735051294,0.021683758150414,0.5,0.021683758150414,0.999999923300461,0.5,0.000940370735051294,0.021683758150414,0.021683758150414,0.978316241849586,4.07815431811586e-05,0.021683758150414,0.021683758150414,0.021683758150414,0.999921897402576,0.000939487340708387,0.999060512659292,0.000940370735051294,0.999999923300461,0.148158835710034,0.442837560450424,-0.000940370735051294,-0.000899589191870135,0.5,0.956632483699172,0.92903710335918,0.0971549880967895,2.33660186472717,0.5,75.1498272917152
CBC_1018,CBC_1018_MSI_AV_v3_Vset6_Aset2_2023-07-28_14h27.02.226.csv,3,33,0,1,z,0,1,3,aud,B,63,1,0B,1B,0,1,z,1.44552339999973,0,1,1,1,1B,0B,B01,2.26176309847379,0.999999923300461,4.07815431811586e-05,0.021683758150414,0.5,0.021683758150414,0.999999923300461,0.5,0.000940370735051294,0.021683758150414,0.021683758150414,0.978316241849586,4.07815431811586e-05,0.021683758150414,0.021683758150414,0.021683758150414,0.999921897402576,0.978776446620326,0.0212235533796735,0.999999923300461,0.021683758150414,0.373170565795455,0.554951037704269,7.66995394974046e-08,7.33732709679849e-08,0.5,0.956632483699172,0.92903710335918,0.0971549880967895,2.33660186472717,0.5,75.1498272917152
CBC_1018,CBC_1018_MSI_AV_v3_Vset6_Aset2_2023-07-28_14h27.02.226.csv,3,34,2,3,z,0,1,0,aud,D,63,1,2D,3D,0,1,z,2.81664050000018,0,1,1,1,3D,2D,D23,2.50552593699074,0.999999923300461,4.07815431811586e-05,0.021683758150414,0.5,0.021683758150414,0.999999996673732,0.5,0.000940370735051294,0.021683758150414,0.021683758150414,0.978316241849586,4.07815431811586e-05,0.021683758150414,0.021683758150414,0.021683758150414,0.999921897402576,0.978774825655525,0.0212251743444751,0.999921897402576,0.021683758150414,0.115488098316714,0.553949279557849,7.81025974244676e-05,7.4715481757525e-05,0.5,0.956632483699172,0.92903710335918,0.0971549880967895,2.33660186472717,0.5,75.1498272917152
CBC_1018,CBC_1018_MSI_AV_v3_Vset6_Aset2_2023-07-28_14h27.02.226.csv,3,35,1,3,b,1,0,3,aud,B,27,1,1B,3B,1,0,z,1.64884989999973,0,1,0,0,3B,1B,B13,2.81341071676004,0.999999923300461,4.07815431811586e-05,0.021683758150414,0.5,0.021683758150414,0.999999996673732,0.5,0.000940370735051294,0.021683758150414,0.021683758150414,0.978316241849586,4.07815431811586e-05,0.021683758150414,0.021683758150414,0.021683758150414,0.999996612884333,0.000939487271839889,0.99906051272816,0.000940370735051294,0.999999996673732,0.263049268764424,0.444127372328001,-0.000940370735051294,-0.000899589191870135,0.5,0.956632483699172,0.92903710335918,0.0971549880967895,2.33660186472717,0.5,75.1498272917152
CBC_1018,CBC_1018_MSI_AV_v3_Vset6_Aset2_2023-07-28_14h27.02.226.csv,3,36,2,3,b,1,0,1,aud,C,63,1,2C,3C,1,0,b,4.10019509999984,1,0,1,1,2C,3C,C23,2.83321334405622,0.999999923300461,4.07815431811586e-05,0.021683758150414,0.5,0.021683758150414,0.999999996673732,0.5,4.07815431811586e-05,0.021683758150414,0.021683758150414,0.978316241849586,4.07815431811586e-05,0.021683758150414,0.021683758150414,0.021683758150414,0.999996612884333,0.999958316297419,4.16837025810225e-05,0.978316241849586,4.07815431811586e-05,0.0360999422407287,0.555800740207326,0.021683758150414,0.0207433874153627,0.5,0.956632483699172,0.92903710335918,0.0971549880967895,2.33660186472717,0.5,75.1498272917152
CBC_1018,CBC_1018_MSI_AV_v3_Vset6_Aset2_2023-07-28_14h27.02.226.csv,3,37,0,2,z,0,1,1,aud,C,27,1,0C,2C,0,1,b,2.68604359999972,1,0,0,0,0C,2C,C02,3.95124371858143,0.999999923300461,4.07815431811586e-05,0.021683758150414,0.5,0.021683758150414,0.999999996673732,0.5,4.07815431811586e-05,0.021683758150414,0.021683758150414,0.999059629264949,4.07815431811586e-05,0.021683758150414,0.021683758150414,0.021683758150414,0.999996612884333,0.0212431042098835,0.978756895790116,0.021683758150414,0.999059629264949,0.104724664570937,0.446142160314949,-0.021683758150414,-0.0207433874153627,0.5,0.956632483699172,0.92903710335918,0.0971549880967895,2.33660186472717,0.5,75.1498272917152
CBC_1018,CBC_1018_MSI_AV_v3_Vset6_Aset2_2023-07-28_14h27.02.226.csv,3,38,0,1,z,0,1,3,aud,B,63,1,0B,1B,0,1,z,4.20133159999932,0,1,1,1,1B,0B,B01,2.17853244432407,0.999999923300461,4.07815431811586e-05,0.021683758150414,0.5,0.021683758150414,0.999999996673732,0.5,4.07815431811586e-05,0.000940370735051294,0.021683758150414,0.999059629264949,4.07815431811586e-05,0.021683758150414,0.021683758150414,0.021683758150414,0.999996612884333,0.978776448144518,0.0212235518554822,0.999999996673732,0.021683758150414,0.0328356292939747,0.553855304329702,3.32626848287276e-09,3.18201648022085e-09,0.5,0.956632483699172,0.92903710335918,0.0971549880967895,2.33660186472717,0.5,75.1498272917152
CBC_1018,CBC_1018_MSI_AV_v3_Vset6_Aset2_2023-07-28_14h27.02.226.csv,3,39,0,3,b,1,0,2,aud,A,9,1,0A,3A,1,0,z,2.78232369999932,0,1,0,0,3A,0A,A03,3.98898404656427,0.999999923300461,4.07815431811586e-05,0.021683758150414,0.5,0.021683758150414,0.999999999855748,0.5,4.07815431811586e-05,0.000940370735051294,0.021683758150414,0.999059629264949,4.07815431811586e-05,0.021683758150414,0.021683758150414,0.021683758150414,0.999996612884333,0.333333350377676,0.666666649622324,0.5,0.999999923300461,0.103748162251863,0.48146988839123,-0.5,-0.478316241849586,0.5,0.956632483699172,0.92903710335918,0.0971549880967895,2.33660186472717,0.5,75.1498272917152
CBC_1018,CBC_1018_MSI_AV_v3_Vset6_Aset2_2023-07-28_14h27.02.226.csv,3,40,2,3,b,1,0,1,aud,C,63,0,2C,3C,0,1,b,3.39578929999971,1,0,1,0,2C,3C,C23,2.62103882411258,0.999999923300461,4.07815431811586e-05,0.021683758150414,0.021683758150414,0.021683758150414,0.999999999855748,0.5,4.07815431811586e-05,0.000940370735051294,0.021683758150414,0.999059629264949,4.07815431811586e-05,0.021683758150414,0.021683758150414,0.021683758150414,0.999996612884333,0.999959181737151,4.08182628492487e-05,0.999059629264949,4.07815431811586e-05,0.0686078068045717,0.557161415703648,-0.999059629264949,-0.955732894507302,0.5,0.956632483699172,0.92903710335918,0.0971549880967895,2.33660186472717,0.5,75.1498272917152
CBC_1018,CBC_1018_MSI_AV_v3_Vset6_Aset2_2023-07-28_14h27.02.226.csv,3,41,0,1,b,1,0,2,aud,A,63,1,0A,1A,1,0,z,1.74355089999972,0,1,0,0,1A,0A,A01,2.41591377830105,0.999999923300461,4.07815431811586e-05,0.021683758150414,0.021683758150414,0.021683758150414,0.999999999855748,0.5,4.07815431811586e-05,0.000940370735051294,0.021683758150414,0.0433267347576468,4.07815431811586e-05,0.021683758150414,0.021683758150414,0.021683758150414,0.999996612884333,4.07798832423875e-05,0.999959220116758,4.07815431811586e-05,0.999999923300461,0.243005136227047,0.443436946447191,-4.07815431811586e-05,-3.90129489424768e-05,0.5,0.956632483699172,0.92903710335918,0.0971549880967895,2.33660186472717,0.5,75.1498272917152
CBC_1018,CBC_1018_MSI_AV_v3_Vset6_Aset2_2023-07-28_14h27.02.226.csv,3,42,2,3,z,0,1,0,aud,D,63,1,2D,3D,NaN,NaN,[],NaN,NaN,NaN,NaN,NaN,,,D23,2.43361335540045,0.999999923300461,1.76859423868182e-06,0.021683758150414,0.021683758150414,0.021683758150414,0.999999999855748,0.5,4.07815431811586e-05,0.000940370735051294,0.021683758150414,0.0433267347576468,4.07815431811586e-05,0.021683758150414,0.021683758150414,0.021683758150414,0.999996612884333,0,0,0,0,NaN,0,0,0,0.5,0.956632483699172,0.92903710335918,0.0971549880967895,2.33660186472717,0.5,75.1498272917152
CBC_1018,CBC_1018_MSI_AV_v3_Vset6_Aset2_2023-07-28_14h27.02.226.csv,3,43,3,2,z,0,1,1,aud,C,63,1,3C,2C,0,1,b,1.23524120000002,1,0,0,0,3C,2C,C32,2.96183072187831,0.999999923300461,1.76859423868182e-06,0.021683758150414,0.021683758150414,0.021683758150414,0.999999999855748,0.5,4.07815431811586e-05,0.000940370735051294,0.021683758150414,0.0433267347576468,4.07815431811586e-05,0.021683758150414,0.021683758150414,0.021683758150414,0.999996612884333,0.000940370735051295,0.999059629264949,4.07815431811586e-05,0.0433267347576468,0.264278314859649,0.444027773862812,-4.07815431811586e-05,-3.90129489424768e-05,0.5,0.956632483699172,0.92903710335918,0.0971549880967895,2.33660186472717,0.5,75.1498272917152
CBC_1018,CBC_1018_MSI_AV_v3_Vset6_Aset2_2023-07-28_14h27.02.226.csv,3,44,3,1,b,1,0,0,aud,D,27,1,3D,1D,1,0,z,1.67497590000039,0,1,0,0,1D,3D,D31,3.38439026334577,0.999999923300461,1.76859423868182e-06,0.021683758150414,0.021683758150414,0.021683758150414,0.999999999855748,0.5,4.07815431811586e-05,0.000940370735051294,0.021683758150414,0.0433267347576468,1.76859423868182e-06,0.021683758150414,0.021683758150414,0.021683758150414,0.999996612884333,0.0212236221475538,0.978776377852446,0.021683758150414,0.999996612884333,0.258486802090105,0.445692348801015,-0.021683758150414,-0.0207433874153627,0.5,0.956632483699172,0.92903710335918,0.0971549880967895,2.33660186472717,0.5,75.1498272917152
CBC_1018,CBC_1018_MSI_TV_v3_Vset1_Tset3_2023-07-28_15h11.50.359.csv,4,1,1,0,b,1,0,3,tac,B,63,1,1B,0B,1,0,z,2.08910120000019,0,1,0,0,0B,1B,B10,2.77258872223978,0.5,0.5,0.5,0.5,0.5,0.5,0.5,0.5,0.5,0.5,0.5,0.5,0.5,0.5,0.5,0.5,0.5,0.5,0.5,0.5,0.134442182721351,0.499057393368804,-0.5,-0.227478269882399,0.5,0.454956539764798,0.355943826672937,0.260103117965729,3.01004088052047,0.5,96.0513496296637
CBC_1018,CBC_1018_MSI_TV_v3_Vset1_Tset3_2023-07-28_15h11.50.359.csv,4,2,3,2,b,1,0,0,tac,D,63,1,3D,2D,1,0,b,2.94272480000018,1,0,1,1,3D,2D,D32,2.83321334405622,0.5,0.5,0.5,0.5,0.272521730117601,0.5,0.5,0.5,0.5,0.5,0.5,0.5,0.5,0.5,0.5,0.5,0.5,0.5,0.5,0.5,0.0846581837209904,0.499498574622021,0.5,0.227478269882399,0.5,0.454956539764798,0.355943826672937,0.260103117965729,3.01004088052047,0.5,96.0513496296637
CBC_1018,CBC_1018_MSI_TV_v3_Vset1_Tset3_2023-07-28_15h11.50.359.csv,4,3,3,1,z,0,1,3,tac,B,27,1,3B,1B,0,1,b,2.87385719999929,1,0,0,0,3B,1B,B31,2.89037175789616,0.5,0.5,0.5,0.5,0.272521730117601,0.5,0.5,0.5,0.5,0.5,0.5,0.5,0.5,0.5,0.5,0.727478269882399,0.5,0.5,0.5,0.5,0.0880510038764655,0.500397683846615,-0.5,-0.227478269882399,0.5,0.454956539764798,0.355943826672937,0.260103117965729,3.01004088052047,0.5,96.0513496296637
CBC_1018,CBC_1018_MSI_TV_v3_Vset1_Tset3_2023-07-28_15h11.50.359.csv,4,4,2,3,b,1,0,1,tac,C,63,1,2C,3C,1,0,z,2.42280479999954,0,1,0,0,3C,2C,C23,2.94443897916644,0.5,0.5,0.5,0.5,0.272521730117601,0.5,0.5,0.272521730117601,0.5,0.5,0.5,0.5,0.5,0.5,0.5,0.727478269882399,0.5,0.5,0.5,0.5,0.112562157695196,0.500515749429613,-0.5,-0.227478269882399,0.5,0.454956539764798,0.355943826672937,0.260103117965729,3.01004088052047,0.5,96.0513496296637
CBC_1018,CBC_1018_MSI_TV_v3_Vset1_Tset3_2023-07-28_15h11.50.359.csv,4,5,0,2,z,0,1,1,tac,C,27,1,0C,2C,0,1,b,2.06181769999966,1,0,0,0,0C,2C,C02,2.99573227355399,0.5,0.5,0.5,0.5,0.272521730117601,0.5,0.5,0.272521730117601,0.5,0.5,0.5,0.272521730117601,0.5,0.5,0.5,0.727478269882399,0.5,0.5,0.5,0.5,0.136932378150431,0.500903311845123,-0.5,-0.227478269882399,0.5,0.454956539764798,0.355943826672937,0.260103117965729,3.01004088052047,0.5,96.0513496296637
CBC_1018,CBC_1018_MSI_TV_v3_Vset1_Tset3_2023-07-28_15h11.50.359.csv,4,6,0,3,b,1,0,2,tac,A,9,1,0A,3A,1,0,z,3.43762059999972,0,1,0,0,3A,0A,A03,3.04452243772342,0.5,0.5,0.5,0.5,0.272521730117601,0.5,0.5,0.272521730117601,0.272521730117601,0.5,0.5,0.272521730117601,0.5,0.5,0.5,0.727478269882399,0.5,0.5,0.5,0.5,0.0647168099794109,0.499955813078077,-0.5,-0.227478269882399,0.5,0.454956539764798,0.355943826672937,0.260103117965729,3.01004088052047,0.5,96.0513496296637
CBC_1018,CBC_1018_MSI_TV_v3_Vset1_Tset3_2023-07-28_15h11.50.359.csv,4,7,2,3,b,1,0,1,tac,C,63,1,2C,3C,1,0,b,1.68314349999946,1,0,1,1,2C,3C,C23,2.39789527279837,0.5,0.5,0.5,0.272521730117601,0.272521730117601,0.5,0.5,0.272521730117601,0.272521730117601,0.5,0.5,0.272521730117601,0.5,0.5,0.5,0.727478269882399,0.647230984588466,0.352769015411534,0.5,0.272521730117601,0.186726831145118,0.558357634125711,0.5,0.227478269882399,0.5,0.454956539764798,0.355943826672937,0.260103117965729,3.01004088052047,0.5,96.0513496296637
CBC_1018,CBC_1018_MSI_TV_v3_Vset1_Tset3_2023-07-28_15h11.50.359.csv,4,8,1,0,z,0,1,2,tac,A,63,1,1A,0A,0,1,b,2.5790135999996,1,0,0,0,1A,0A,A10,3.13549421592915,0.5,0.5,0.5,0.272521730117601,0.272521730117601,0.5,0.5,0.272521730117601,0.272521730117601,0.5,0.727478269882399,0.272521730117601,0.5,0.5,0.5,0.727478269882399,0.5,0.5,0.5,0.5,0.103238283339575,0.499732069265882,-0.5,-0.227478269882399,0.5,0.454956539764798,0.355943826672937,0.260103117965729,3.01004088052047,0.5,96.0513496296637
CBC_1018,CBC_1018_MSI_TV_v3_Vset1_Tset3_2023-07-28_15h11.50.359.csv,4,9,2,3,z,0,1,0,tac,D,63,1,2D,3D,NaN,NaN,None,NaN,NaN,NaN,NaN,NaN,,,D23,3.17805383034795,0.5,0.272521730117601,0.5,0.272521730117601,0.272521730117601,0.5,0.5,0.272521730117601,0.272521730117601,0.5,0.727478269882399,0.272521730117601,0.5,0.5,0.5,0.727478269882399,0,0,0,0,NaN,0,0,0,0.5,0.454956539764798,0.355943826672937,0.260103117965729,3.01004088052047,0.5,96.0513496296637
CBC_1018,CBC_1018_MSI_TV_v3_Vset1_Tset3_2023-07-28_15h11.50.359.csv,4,10,3,2,z,0,1,1,tac,C,63,1,3C,2C,0,1,z,1.34392559999924,0,1,1,1,2C,3C,C32,3.2188758248682,0.5,0.272521730117601,0.5,0.272521730117601,0.272521730117601,0.5,0.5,0.272521730117601,0.272521730117601,0.5,0.727478269882399,0.272521730117601,0.5,0.5,0.5,0.727478269882399,0.727478269882399,0.272521730117601,0.727478269882399,0.272521730117601,0.230388204400964,0.587834451556832,0.272521730117601,0.12398554334502,0.5,0.454956539764798,0.355943826672937,0.260103117965729,3.01004088052047,0.5,96.0513496296637
CBC_1018,CBC_1018_MSI_TV_v3_Vset1_Tset3_2023-07-28_15h11.50.359.csv,4,11,3,1,b,1,0,0,tac,D,27,1,3D,1D,1,0,b,4.01544789999934,1,0,1,1,3D,1D,D31,3.25809653802148,0.5,0.272521730117601,0.5,0.272521730117601,0.272521730117601,0.5,0.5,0.272521730117601,0.272521730117601,0.5,0.851463813227419,0.272521730117601,0.5,0.5,0.5,0.727478269882399,0.592660813418796,0.407339186581204,0.727478269882399,0.5,0.0505556831188026,0.535863993319923,0.272521730117601,0.12398554334502,0.5,0.454956539764798,0.355943826672937,0.260103117965729,3.01004088052047,0.5,96.0513496296637
CBC_1018,CBC_1018_MSI_TV_v3_Vset1_Tset3_2023-07-28_15h11.50.359.csv,4,12,0,1,b,1,0,2,tac,A,63,0,0A,1A,0,1,b,1.88952939999945,1,0,1,0,0A,1A,A01,3.29583686600433,0.5,0.272521730117601,0.5,0.272521730117601,0.272521730117601,0.5,0.5,0.272521730117601,0.272521730117601,0.5,0.851463813227419,0.272521730117601,0.5,0.5,0.5,0.851463813227419,0.647230984588466,0.352769015411534,0.5,0.272521730117601,0.167202727389821,0.556795166204016,-0.5,-0.227478269882399,0.5,0.454956539764798,0.355943826672937,0.260103117965729,3.01004088052047,0.5,96.0513496296637
CBC_1018,CBC_1018_MSI_TV_v3_Vset1_Tset3_2023-07-28_15h11.50.359.csv,4,13,3,2,z,0,1,1,tac,C,63,1,3C,2C,0,1,b,2.66031559999919,1,0,0,0,3C,2C,C32,2.63905732961526,0.272521730117601,0.272521730117601,0.5,0.272521730117601,0.272521730117601,0.5,0.5,0.272521730117601,0.272521730117601,0.5,0.851463813227419,0.272521730117601,0.5,0.5,0.5,0.851463813227419,0.242460173737259,0.757539826262741,0.272521730117601,0.851463813227419,0.0793074967907878,0.401444159375923,-0.272521730117601,-0.12398554334502,0.5,0.454956539764798,0.355943826672937,0.260103117965729,3.01004088052047,0.5,96.0513496296637
CBC_1018,CBC_1018_MSI_TV_v3_Vset1_Tset3_2023-07-28_15h11.50.359.csv,4,14,2,0,z,0,1,2,tac,A,27,1,2A,0A,0,1,z,2.65487730000041,0,1,1,1,0A,2A,A20,3.36729582998647,0.272521730117601,0.272521730117601,0.5,0.272521730117601,0.272521730117601,0.5,0.5,0.272521730117601,0.272521730117601,0.5,0.851463813227419,0.148536186772581,0.5,0.5,0.5,0.851463813227419,0.352769015411534,0.647230984588466,0.272521730117601,0.5,0.0874253142451052,0.441070935428624,0.727478269882399,0.330970996419778,0.5,0.454956539764798,0.355943826672937,0.260103117965729,3.01004088052047,0.5,96.0513496296637
CBC_1018,CBC_1018_MSI_TV_v3_Vset1_Tset3_2023-07-28_15h11.50.359.csv,4,15,1,0,b,1,0,3,tac,B,63,1,1B,0B,1,0,b,2.29778669999996,1,0,1,1,1B,0B,B10,2.70805020110221,0.603492726537379,0.272521730117601,0.5,0.272521730117601,0.272521730117601,0.5,0.5,0.272521730117601,0.272521730117601,0.5,0.851463813227419,0.148536186772581,0.5,0.5,0.5,0.851463813227419,0.647230984588466,0.352769015411534,0.5,0.272521730117601,0.134397551790642,0.557889113182944,0.5,0.227478269882399,0.5,0.454956539764798,0.355943826672937,0.260103117965729,3.01004088052047,0.5,96.0513496296637
CBC_1018,CBC_1018_MSI_TV_v3_Vset1_Tset3_2023-07-28_15h11.50.359.csv,4,16,2,3,z,0,1,0,tac,D,63,1,2D,3D,0,1,b,2.28791790000014,1,0,0,0,2D,3D,D23,2.7408400239252,0.603492726537379,0.272521730117601,0.5,0.272521730117601,0.272521730117601,0.727478269882399,0.5,0.272521730117601,0.272521730117601,0.5,0.851463813227419,0.148536186772581,0.5,0.5,0.5,0.851463813227419,0.36996921050069,0.63003078949931,0.5,0.851463813227419,0.1087708454551,0.449191110248365,-0.5,-0.227478269882399,0.5,0.454956539764798,0.355943826672937,0.260103117965729,3.01004088052047,0.5,96.0513496296637
CBC_1018,CBC_1018_MSI_TV_v3_Vset1_Tset3_2023-07-28_15h11.50.359.csv,4,17,2,1,z,0,1,3,tac,B,9,1,2B,1B,0,1,z,1.39801290000014,0,1,1,1,1B,2B,B21,3.46573590279973,0.603492726537379,0.272521730117601,0.5,0.272521730117601,0.272521730117601,0.727478269882399,0.5,0.272521730117601,0.272521730117601,0.5,0.851463813227419,0.148536186772581,0.5,0.5,0.272521730117601,0.851463813227419,0.592660813418796,0.407339186581204,0.727478269882399,0.5,0.204003600335606,0.535343076328926,0.272521730117601,0.12398554334502,0.5,0.454956539764798,0.355943826672937,0.260103117965729,3.01004088052047,0.5,96.0513496296637
CBC_1018,CBC_1018_MSI_TV_v3_Vset1_Tset3_2023-07-28_15h11.50.359.csv,4,18,3,1,b,1,0,0,tac,D,27,1,3D,1D,1,0,b,3.37028029999965,1,0,1,1,3D,1D,D31,2.80336038090653,0.603492726537379,0.272521730117601,0.5,0.272521730117601,0.272521730117601,0.851463813227419,0.5,0.272521730117601,0.272521730117601,0.5,0.851463813227419,0.148536186772581,0.5,0.5,0.272521730117601,0.851463813227419,0.63003078949931,0.36996921050069,0.851463813227419,0.5,0.0736445764499632,0.549331285379064,0.148536186772581,0.0675775095639113,0.5,0.454956539764798,0.355943826672937,0.260103117965729,3.01004088052047,0.5,96.0513496296637
CBC_1018,CBC_1018_MSI_TV_v3_Vset1_Tset3_2023-07-28_15h11.50.359.csv,4,19,1,0,z,0,1,2,tac,A,63,1,1A,0A,0,1,b,3.55554969999957,1,0,0,0,1A,0A,A10,2.83321334405622,0.603492726537379,0.272521730117601,0.5,0.272521730117601,0.272521730117601,0.851463813227419,0.5,0.272521730117601,0.272521730117601,0.5,0.851463813227419,0.148536186772581,0.5,0.5,0.272521730117601,0.91904132279133,0.311092731458123,0.688907268541877,0.272521730117601,0.603492726537379,0.0516707538313952,0.427541579993895,-0.272521730117601,-0.12398554334502,0.5,0.454956539764798,0.355943826672937,0.260103117965729,3.01004088052047,0.5,96.0513496296637
CBC_1018,CBC_1018_MSI_TV_v3_Vset1_Tset3_2023-07-28_15h11.50.359.csv,4,20,0,1,b,1,0,2,tac,A,63,1,0A,1A,1,0,b,2.45793619999949,1,0,1,1,0A,1A,A01,2.86220088092947,0.603492726537379,0.148536186772581,0.5,0.272521730117601,0.272521730117601,0.851463813227419,0.5,0.272521730117601,0.272521730117601,0.5,0.851463813227419,0.148536186772581,0.5,0.5,0.272521730117601,0.91904132279133,0.802486069160802,0.197513930839198,0.603492726537379,0.148536186772581,0.136333170218764,0.616798160707448,0.396507273462621,0.180393577126129,0.5,0.454956539764798,0.355943826672937,0.260103117965729,3.01004088052047,0.5,96.0513496296637
CBC_1018,CBC_1018_MSI_TV_v3_Vset1_Tset3_2023-07-28_15h11.50.359.csv,4,21,0,2,z,0,1,1,tac,C,27,1,0C,2C,0,1,z,3.39824869999939,0,1,1,1,2C,0C,C02,2.89037175789616,0.783886303663508,0.148536186772581,0.5,0.272521730117601,0.272521730117601,0.851463813227419,0.5,0.272521730117601,0.272521730117601,0.5,0.851463813227419,0.148536186772581,0.5,0.5,0.272521730117601,0.91904132279133,0.757539826262741,0.242460173737259,0.851463813227419,0.272521730117601,0.0785270294020339,0.59786915776396,0.148536186772581,0.0675775095639113,0.5,0.454956539764798,0.355943826672937,0.260103117965729,3.01004088052047,0.5,96.0513496296637
CBC_1018,CBC_1018_MSI_TV_v3_Vset1_Tset3_2023-07-28_15h11.50.359.csv,4,22,1,0,b,1,0,3,tac,B,63,1,1B,0B,1,0,z,2.34818429999996,0,1,0,0,0B,1B,B10,2.51230562397611,0.783886303663508,0.148536186772581,0.5,0.272521730117601,0.272521730117601,0.851463813227419,0.5,0.272521730117601,0.272521730117601,0.5,0.91904132279133,0.148536186772581,0.5,0.5,0.272521730117601,0.91904132279133,0.242460173737259,0.757539826262741,0.272521730117601,0.851463813227419,0.0939480098386813,0.400233514028532,-0.272521730117601,-0.12398554334502,0.5,0.454956539764798,0.355943826672937,0.260103117965729,3.01004088052047,0.5,96.0513496296637
CBC_1018,CBC_1018_MSI_TV_v3_Vset1_Tset3_2023-07-28_15h11.50.359.csv,4,23,0,2,z,0,1,1,tac,C,27,1,0C,2C,0,1,z,2.55996269999923,0,1,1,1,2C,0C,C02,2.53897387105828,0.783886303663508,0.148536186772581,0.5,0.272521730117601,0.148536186772581,0.851463813227419,0.5,0.272521730117601,0.272521730117601,0.5,0.91904132279133,0.148536186772581,0.5,0.5,0.272521730117601,0.91904132279133,0.771290550296687,0.228709449703313,0.91904132279133,0.272521730117601,0.126532281275398,0.60590445301022,0.0809586772086698,0.0368326796467916,0.5,0.454956539764798,0.355943826672937,0.260103117965729,3.01004088052047,0.5,96.0513496296637
CBC_1018,CBC_1018_MSI_TV_v3_Vset1_Tset3_2023-07-28_15h11.50.359.csv,4,24,2,3,z,0,1,0,tac,D,63,1,2D,3D,0,1,z,2.97830189999968,0,1,1,1,3D,2D,D23,2.56494935746154,0.783886303663508,0.148536186772581,0.5,0.272521730117601,0.148536186772581,0.851463813227419,0.5,0.272521730117601,0.272521730117601,0.5,0.955874002438122,0.148536186772581,0.5,0.5,0.272521730117601,0.91904132279133,0.771290550296687,0.228709449703313,0.91904132279133,0.272521730117601,0.0999729855138322,0.603593699840821,0.0809586772086698,0.0368326796467916,0.5,0.454956539764798,0.355943826672937,0.260103117965729,3.01004088052047,0.5,96.0513496296637
CBC_1018,CBC_1018_MSI_TV_v3_Vset1_Tset3_2023-07-28_15h11.50.359.csv,4,25,0,1,b,1,0,2,tac,A,63,1,0A,1A,1,0,b,3.14384199999949,1,0,1,1,0A,1A,A01,2.59026716544583,0.783886303663508,0.148536186772581,0.5,0.272521730117601,0.148536186772581,0.851463813227419,0.5,0.272521730117601,0.272521730117601,0.5,0.955874002438122,0.148536186772581,0.5,0.5,0.272521730117601,0.955874002438122,0.840698622892385,0.159301377107615,0.783886303663508,0.148536186772581,0.0949717928780329,0.630654759231387,0.216113696336492,0.0983223394810308,0.5,0.454956539764798,0.355943826672937,0.260103117965729,3.01004088052047,0.5,96.0513496296637
CBC_1018,CBC_1018_MSI_TV_v3_Vset1_Tset3_2023-07-28_15h11.50.359.csv,4,26,2,3,b,1,0,1,tac,C,63,1,2C,3C,1,0,b,2.56410049999977,1,0,1,1,2C,3C,C23,2.6149597780362,0.882208643144539,0.148536186772581,0.5,0.272521730117601,0.148536186772581,0.851463813227419,0.5,0.272521730117601,0.272521730117601,0.5,0.955874002438122,0.148536186772581,0.5,0.5,0.272521730117601,0.955874002438122,0.865506323444248,0.134493676555752,0.955874002438122,0.148536186772581,0.133202332975191,0.6392587929681,0.0441259975618782,0.020075411164422,0.5,0.454956539764798,0.355943826672937,0.260103117965729,3.01004088052047,0.5,96.0513496296637
CBC_1018,CBC_1018_MSI_TV_v3_Vset1_Tset3_2023-07-28_15h11.50.359.csv,4,27,0,2,b,1,0,2,tac,A,27,1,0A,2A,1,0,z,1.99715719999949,0,1,0,0,2A,0A,A02,3.73766961828337,0.882208643144539,0.148536186772581,0.5,0.272521730117601,0.148536186772581,0.851463813227419,0.5,0.272521730117601,0.272521730117601,0.5,0.975949413602544,0.148536186772581,0.5,0.5,0.272521730117601,0.955874002438122,0.361739888170931,0.638260111829069,0.5,0.882208643144539,0.126563473362468,0.446506291314273,-0.5,-0.227478269882399,0.5,0.454956539764798,0.355943826672937,0.260103117965729,3.01004088052047,0.5,96.0513496296637
CBC_1018,CBC_1018_MSI_TV_v3_Vset1_Tset3_2023-07-28_15h11.50.359.csv,4,28,2,3,z,0,1,0,tac,D,63,1,2D,3D,0,1,z,1.82409559999905,0,1,1,1,3D,2D,D23,2.37490575457367,0.882208643144539,0.148536186772581,0.272521730117601,0.272521730117601,0.148536186772581,0.851463813227419,0.5,0.272521730117601,0.272521730117601,0.5,0.975949413602544,0.148536186772581,0.5,0.5,0.272521730117601,0.955874002438122,0.778148260454626,0.221851739545374,0.955874002438122,0.272521730117601,0.189928312556075,0.607374720427488,0.0441259975618782,0.020075411164422,0.5,0.454956539764798,0.355943826672937,0.260103117965729,3.01004088052047,0.5,96.0513496296637
CBC_1018,CBC_1018_MSI_TV_v3_Vset1_Tset3_2023-07-28_15h11.50.359.csv,4,29,2,3,z,0,1,0,tac,D,63,1,2D,3D,0,1,b,2.40428450000036,1,0,0,0,2D,3D,D23,2.17475172148416,0.882208643144539,0.148536186772581,0.272521730117601,0.272521730117601,0.148536186772581,0.851463813227419,0.5,0.272521730117601,0.272521730117601,0.5,0.975949413602544,0.148536186772581,0.5,0.5,0.272521730117601,0.975949413602544,0.218284364431165,0.781715635568835,0.272521730117601,0.975949413602544,0.0890528237702579,0.391178190804273,-0.272521730117601,-0.12398554334502,0.5,0.454956539764798,0.355943826672937,0.260103117965729,3.01004088052047,0.5,96.0513496296637
CBC_1018,CBC_1018_MSI_TV_v3_Vset1_Tset3_2023-07-28_15h11.50.359.csv,4,30,1,3,b,1,0,3,tac,B,27,1,1B,3B,1,0,z,2.38130879999972,0,1,0,0,3B,1B,B13,3.80666248977032,0.882208643144539,0.148536186772581,0.272521730117601,0.272521730117601,0.148536186772581,0.851463813227419,0.5,0.272521730117601,0.272521730117601,0.5,0.975949413602544,0.148536186772581,0.5,0.5,0.148536186772581,0.975949413602544,0.242460173737259,0.757539826262741,0.272521730117601,0.851463813227419,0.092120794835979,0.399677419586742,-0.272521730117601,-0.12398554334502,0.5,0.454956539764798,0.355943826672937,0.260103117965729,3.01004088052047,0.5,96.0513496296637
CBC_1018,CBC_1018_MSI_TV_v3_Vset1_Tset3_2023-07-28_15h11.50.359.csv,4,31,3,0,b,1,0,0,tac,D,9,1,3D,0D,1,0,b,1.28516370000034,1,0,1,1,3D,0D,D30,3.8286413964891,0.882208643144539,0.148536186772581,0.272521730117601,0.272521730117601,0.148536186772581,0.851463813227419,0.5,0.148536186772581,0.272521730117601,0.5,0.975949413602544,0.148536186772581,0.5,0.5,0.148536186772581,0.975949413602544,0.66123500209971,0.33876499790029,0.975949413602544,0.5,0.22374963413063,0.562166274818892,0.0240505863974562,0.010941971566701,0.5,0.454956539764798,0.355943826672937,0.260103117965729,3.01004088052047,0.5,96.0513496296637
CBC_1018,CBC_1018_MSI_TV_v3_Vset1_Tset3_2023-07-28_15h11.50.359.csv,4,32,0,1,z,0,1,3,tac,B,63,1,0B,1B,0,1,z,3.48464969999986,0,1,1,1,1B,0B,B01,3.85014760171006,0.882208643144539,0.148536186772581,0.272521730117601,0.272521730117601,0.148536186772581,0.851463813227419,0.5,0.148536186772581,0.272521730117601,0.5,0.975949413602544,0.148536186772581,0.5,0.5,0.148536186772581,0.986891385169245,0.851463813227419,0.148536186772581,0.851463813227419,0.148536186772581,0.0788052428333612,0.633921397840617,0.148536186772581,0.0675775095639113,0.5,0.454956539764798,0.355943826672937,0.260103117965729,3.01004088052047,0.5,96.0513496296637
CBC_1018,CBC_1018_MSI_TV_v3_Vset1_Tset3_2023-07-28_15h11.50.359.csv,4,33,0,1,b,1,0,2,tac,A,63,1,0A,1A,1,0,b,2.26621119999982,1,0,1,1,0A,1A,A01,2.484906649788,0.882208643144539,0.148536186772581,0.272521730117601,0.272521730117601,0.148536186772581,0.91904132279133,0.5,0.148536186772581,0.272521730117601,0.5,0.975949413602544,0.148536186772581,0.5,0.5,0.148536186772581,0.986891385169245,0.855894317913266,0.144105682086734,0.882208643144539,0.148536186772581,0.156575921719311,0.635965631636526,0.117791356855461,0.0535899481291612,0.5,0.454956539764798,0.355943826672937,0.260103117965729,3.01004088052047,0.5,96.0513496296637
CBC_1018,CBC_1018_MSI_TV_v3_Vset1_Tset3_2023-07-28_15h11.50.359.csv,4,34,0,1,z,0,1,3,tac,B,63,1,0B,1B,0,1,z,2.34569759999977,0,1,1,1,1B,0B,B01,3.19867311755068,0.9357985912737,0.148536186772581,0.272521730117601,0.272521730117601,0.148536186772581,0.91904132279133,0.5,0.148536186772581,0.272521730117601,0.5,0.975949413602544,0.148536186772581,0.5,0.5,0.148536186772581,0.986891385169245,0.860866133426457,0.139133866573543,0.91904132279133,0.148536186772581,0.150329038011022,0.638257085900734,0.0809586772086698,0.0368326796467916,0.5,0.454956539764798,0.355943826672937,0.260103117965729,3.01004088052047,0.5,96.0513496296637
CBC_1018,CBC_1018_MSI_TV_v3_Vset1_Tset3_2023-07-28_15h11.50.359.csv,4,35,2,3,b,1,0,1,tac,C,63,1,2C,3C,1,0,z,4.63347969999995,0,1,0,0,3C,2C,C23,2.52572864430826,0.9357985912737,0.148536186772581,0.272521730117601,0.272521730117601,0.148536186772581,0.955874002438122,0.5,0.148536186772581,0.272521730117601,0.5,0.975949413602544,0.148536186772581,0.5,0.5,0.148536186772581,0.986891385169245,0.132092564567327,0.867907435432673,0.148536186772581,0.975949413602544,0.0232926105394246,0.358566569492424,-0.148536186772581,-0.0675775095639113,0.5,0.454956539764798,0.355943826672937,0.260103117965729,3.01004088052047,0.5,96.0513496296637
CBC_1018,CBC_1018_MSI_TV_v3_Vset1_Tset3_2023-07-28_15h11.50.359.csv,4,36,2,0,z,0,1,2,tac,A,27,1,2A,0A,0,1,b,0.927980299999945,1,0,0,0,2A,0A,A20,3.23867845216438,0.9357985912737,0.148536186772581,0.272521730117601,0.272521730117601,0.148536186772581,0.955874002438122,0.5,0.148536186772581,0.272521730117601,0.5,0.975949413602544,0.0809586772086698,0.5,0.5,0.148536186772581,0.986891385169245,0.22553765362798,0.77446234637202,0.272521730117601,0.9357985912737,0.15374792743071,0.394372912856824,-0.272521730117601,-0.12398554334502,0.5,0.454956539764798,0.355943826672937,0.260103117965729,3.01004088052047,0.5,96.0513496296637
CBC_1018,CBC_1018_MSI_TV_v3_Vset1_Tset3_2023-07-28_15h11.50.359.csv,4,37,0,1,z,0,1,3,tac,B,63,1,0B,1B,0,1,z,0.566683400000329,0,1,1,1,1B,0B,B01,2.85263142991332,0.9357985912737,0.148536186772581,0.148536186772581,0.272521730117601,0.148536186772581,0.955874002438122,0.5,0.148536186772581,0.272521730117601,0.5,0.975949413602544,0.0809586772086698,0.5,0.5,0.148536186772581,0.986891385169245,0.865506323444248,0.134493676555752,0.955874002438122,0.148536186772581,0.0382172979911981,0.640128451187721,0.0441259975618782,0.020075411164422,0.5,0.454956539764798,0.355943826672937,0.260103117965729,3.01004088052047,0.5,96.0513496296637
CBC_1018,CBC_1018_MSI_TV_v3_Vset1_Tset3_2023-07-28_15h11.50.359.csv,4,38,1,3,b,1,0,3,tac,B,27,1,1B,3B,1,0,z,1.55493200000001,0,1,0,0,3B,1B,B13,3.27714473299218,0.9357985912737,0.148536186772581,0.148536186772581,0.272521730117601,0.148536186772581,0.975949413602544,0.5,0.148536186772581,0.272521730117601,0.5,0.975949413602544,0.0809586772086698,0.5,0.5,0.148536186772581,0.986891385169245,0.132092564567327,0.867907435432673,0.148536186772581,0.975949413602544,0.130240796371906,0.359886679278701,-0.148536186772581,-0.0675775095639113,0.5,0.454956539764798,0.355943826672937,0.260103117965729,3.01004088052047,0.5,96.0513496296637
CBC_1018,CBC_1018_MSI_TV_v3_Vset1_Tset3_2023-07-28_15h11.50.359.csv,4,39,2,3,b,1,0,1,tac,C,63,1,2C,3C,1,0,b,1.54298440000002,1,0,1,1,2C,3C,C23,2.37954613413017,0.9357985912737,0.148536186772581,0.148536186772581,0.272521730117601,0.148536186772581,0.975949413602544,0.5,0.0809586772086698,0.272521730117601,0.5,0.975949413602544,0.0809586772086698,0.5,0.5,0.148536186772581,0.986891385169245,0.923400456565215,0.0765995434347855,0.975949413602544,0.0809586772086698,0.241868058665807,0.66037016413389,0.0240505863974562,0.010941971566701,0.5,0.454956539764798,0.355943826672937,0.260103117965729,3.01004088052047,0.5,96.0513496296637
CBC_1018,CBC_1018_MSI_TV_v3_Vset1_Tset3_2023-07-28_15h11.50.359.csv,4,40,1,3,z,0,1,0,tac,D,27,1,1D,3D,0,1,b,2.39299609999944,1,0,0,0,1D,3D,D13,4.00733318523247,0.9357985912737,0.148536186772581,0.148536186772581,0.272521730117601,0.148536186772581,0.975949413602544,0.5,0.0809586772086698,0.272521730117601,0.5,0.986891385169245,0.0809586772086698,0.5,0.5,0.148536186772581,0.986891385169245,0.336272040437633,0.663727959562367,0.5,0.986891385169245,0.10001456356103,0.437240935572756,-0.5,-0.227478269882399,0.5,0.454956539764798,0.355943826672937,0.260103117965729,3.01004088052047,0.5,96.0513496296637
