ID,filename,session,trial,visStimLeft,visStimRight,correctKey,leftCorrect,rightCorrect,secondStim,mod2Type,mod2Stim,frequency,rewardAccurate,stimPairLeft,stimPairRight,pCorrectLeft,pCorrectRight,key,reactionTime,choiceLeft,choiceRight,choiceAccurate,reward,chosenPair,otherPair,triplet,surprise,0A belief,1A belief,2A belief,3A belief,0B belief,1B belief,2B belief,3B belief,0C belief,1C belief,2C belief,3C belief,0D belief,1D belief,2D belief,3D belief,beliefPairNorm,beliefOtherPairNorm,beliefPair,beliefOtherPair,lik,corrLik,rewardPE,update2,fitCBCsimpleRW_CBCdriftDiffusionLR_pwBelief_startBelief,fitCBCsimpleRW_CBCdriftDiffusionLR_pwBelief_alpha1,fitCBCsimpleRW_CBCdriftDiffusionLR_pwBelief_nonDecisionTime,fitCBCsimpleRW_CBCdriftDiffusionLR_pwBelief_weight,fitCBCsimpleRW_CBCdriftDiffusionLR_pwBelief_startingBoundary,fitCBCsimpleRW_CBCdriftDiffusionLR_pwBelief_startingPoint,fit_CBCsimpleRW_CBCdriftDiffusionLR_pwBelief_NLL
CBC_1018,CBC_1018_MSI_TV_v3_Vset2_Tset2_2023-07-28_14h00.56.927.csv,1,1,1,0,z,0,1,2,tac,A,63,1,1A,0A,0,1,z,1.96575069999972,0,1,1,1,0A,1A,A10,2.77258872223978,0.5,0.5,0.5,0.5,0.5,0.5,0.5,0.5,0.5,0.5,0.5,0.5,0.5,0.5,0.5,0.5,0.5,0.5,0.5,0.5,0.200137811591146,0.501472007023699,0.5,0.00708052150932248,0.5,0.014161043018645,0.847981011265093,1.22285184337039,2.72833665558911,0.5,89.8999711533915
CBC_1018,CBC_1018_MSI_TV_v3_Vset2_Tset2_2023-07-28_14h00.56.927.csv,1,2,2,3,b,1,0,1,tac,C,63,1,2C,3C,1,0,b,2.06848109999964,1,0,1,1,2C,3C,C23,2.83321334405622,0.507080521509322,0.5,0.5,0.5,0.5,0.5,0.5,0.5,0.5,0.5,0.5,0.5,0.5,0.5,0.5,0.5,0.5,0.5,0.5,0.5,0.187146411176582,0.500276428249322,0.5,0.00708052150932248,0.5,0.014161043018645,0.847981011265093,1.22285184337039,2.72833665558911,0.5,89.8999711533915
CBC_1018,CBC_1018_MSI_TV_v3_Vset2_Tset2_2023-07-28_14h00.56.927.csv,1,3,2,0,z,0,1,2,tac,A,27,1,2A,0A,0,1,z,1.64752549999957,0,1,1,1,0A,2A,A20,2.89037175789616,0.507080521509322,0.5,0.5,0.5,0.5,0.5,0.5,0.5,0.5,0.5,0.507080521509322,0.5,0.5,0.5,0.5,0.5,0.507080521509322,0.492919478490678,0.507080521509322,0.5,0.243120698994596,0.511382655226983,0.492919478490678,0.00698025393963452,0.5,0.014161043018645,0.847981011265093,1.22285184337039,2.72833665558911,0.5,89.8999711533915
CBC_1018,CBC_1018_MSI_TV_v3_Vset2_Tset2_2023-07-28_14h00.56.927.csv,1,4,0,1,z,0,1,3,tac,B,63,1,0B,1B,0,1,z,3.07899789999965,0,1,1,1,1B,0B,B01,2.94443897916644,0.514060775448957,0.5,0.5,0.5,0.5,0.5,0.5,0.5,0.5,0.5,0.507080521509322,0.5,0.5,0.5,0.5,0.5,0.5,0.5,0.5,0.5,0.0960764131034813,0.499547129761755,0.5,0.00708052150932248,0.5,0.014161043018645,0.847981011265093,1.22285184337039,2.72833665558911,0.5,89.8999711533915
CBC_1018,CBC_1018_MSI_TV_v3_Vset2_Tset2_2023-07-28_14h00.56.927.csv,1,5,1,0,b,1,0,3,tac,B,63,1,1B,0B,1,0,b,2.02016599999979,1,0,1,1,1B,0B,B10,2.99573227355399,0.514060775448957,0.5,0.5,0.5,0.5,0.507080521509322,0.5,0.5,0.5,0.5,0.507080521509322,0.5,0.5,0.5,0.5,0.5,0.507080521509322,0.492919478490678,0.507080521509322,0.5,0.19753442187537,0.512041540485778,0.492919478490678,0.00698025393963452,0.5,0.014161043018645,0.847981011265093,1.22285184337039,2.72833665558911,0.5,89.8999711533915
CBC_1018,CBC_1018_MSI_TV_v3_Vset2_Tset2_2023-07-28_14h00.56.927.csv,1,6,2,3,b,1,0,1,tac,C,63,1,2C,3C,1,0,z,2.76601129999972,0,1,0,0,3C,2C,C23,2.35137525716348,0.514060775448957,0.5,0.5,0.5,0.5,0.514060775448957,0.5,0.5,0.5,0.5,0.507080521509322,0.5,0.5,0.5,0.5,0.5,0.492919478490678,0.507080521509322,0.5,0.507080521509322,0.115744285006486,0.489091876514399,-0.5,-0.00708052150932248,0.5,0.014161043018645,0.847981011265093,1.22285184337039,2.72833665558911,0.5,89.8999711533915
CBC_1018,CBC_1018_MSI_TV_v3_Vset2_Tset2_2023-07-28_14h00.56.927.csv,1,7,1,3,z,0,1,0,tac,D,27,1,1D,3D,0,1,z,2.44470949999959,0,1,1,1,3D,1D,D13,3.09104245335832,0.514060775448957,0.5,0.5,0.5,0.5,0.514060775448957,0.5,0.5,0.5,0.5,0.507080521509322,0.492919478490678,0.5,0.5,0.5,0.5,0.5,0.5,0.5,0.5,0.146193192919308,0.49949652505773,0.5,0.00708052150932248,0.5,0.014161043018645,0.847981011265093,1.22285184337039,2.72833665558911,0.5,89.8999711533915
CBC_1018,CBC_1018_MSI_TV_v3_Vset2_Tset2_2023-07-28_14h00.56.927.csv,1,8,2,1,b,1,0,1,tac,C,9,1,2C,1C,1,0,z,2.49458789999971,0,1,0,0,1C,2C,C21,3.13549421592915,0.514060775448957,0.5,0.5,0.5,0.5,0.514060775448957,0.5,0.5,0.5,0.5,0.507080521509322,0.492919478490678,0.5,0.5,0.5,0.507080521509322,0.492919478490678,0.507080521509322,0.5,0.507080521509322,0.138269426865833,0.488218836408192,-0.5,-0.00708052150932248,0.5,0.014161043018645,0.847981011265093,1.22285184337039,2.72833665558911,0.5,89.8999711533915
CBC_1018,CBC_1018_MSI_TV_v3_Vset2_Tset2_2023-07-28_14h00.56.927.csv,1,9,1,3,b,1,0,3,tac,B,27,1,1B,3B,1,0,z,4.45207749999963,0,1,0,0,3B,1B,B13,3.17805383034795,0.514060775448957,0.5,0.5,0.5,0.5,0.514060775448957,0.5,0.5,0.5,0.492919478490678,0.507080521509322,0.492919478490678,0.5,0.5,0.5,0.507080521509322,0.485939224551043,0.514060775448957,0.5,0.514060775448957,0.0369697179331884,0.478092634806789,-0.5,-0.00708052150932248,0.5,0.014161043018645,0.847981011265093,1.22285184337039,2.72833665558911,0.5,89.8999711533915
CBC_1018,CBC_1018_MSI_TV_v3_Vset2_Tset2_2023-07-28_14h00.56.927.csv,1,10,2,3,z,0,1,0,tac,D,63,1,2D,3D,0,1,b,3.78402849999975,1,0,0,0,2D,3D,D23,3.2188758248682,0.514060775448957,0.5,0.5,0.5,0.5,0.514060775448957,0.5,0.492919478490678,0.5,0.492919478490678,0.507080521509322,0.492919478490678,0.5,0.5,0.5,0.507080521509322,0.492919478490678,0.507080521509322,0.5,0.507080521509322,0.0588443763512945,0.488325954591261,-0.5,-0.00708052150932248,0.5,0.014161043018645,0.847981011265093,1.22285184337039,2.72833665558911,0.5,89.8999711533915
CBC_1018,CBC_1018_MSI_TV_v3_Vset2_Tset2_2023-07-28_14h00.56.927.csv,1,11,0,1,z,0,1,3,tac,B,63,1,0B,1B,0,1,z,1.56109829999968,0,1,1,1,1B,0B,B01,2.56494935746154,0.514060775448957,0.5,0.5,0.5,0.5,0.514060775448957,0.5,0.492919478490678,0.5,0.492919478490678,0.507080521509322,0.492919478490678,0.5,0.5,0.492919478490678,0.507080521509322,0.514060775448957,0.485939224551043,0.514060775448957,0.5,0.256754889676011,0.523437132131167,0.485939224551043,0.00688140626331429,0.5,0.014161043018645,0.847981011265093,1.22285184337039,2.72833665558911,0.5,89.8999711533915
CBC_1018,CBC_1018_MSI_TV_v3_Vset2_Tset2_2023-07-28_14h00.56.927.csv,1,12,2,0,b,1,0,1,tac,C,27,1,2C,0C,1,0,b,4.15867599999956,1,0,1,1,2C,0C,C20,3.29583686600433,0.514060775448957,0.5,0.5,0.5,0.5,0.520942181712271,0.5,0.492919478490678,0.5,0.492919478490678,0.507080521509322,0.492919478490678,0.5,0.5,0.492919478490678,0.507080521509322,0.507080521509322,0.492919478490678,0.507080521509322,0.5,0.0481469829336489,0.512238019258101,0.492919478490678,0.00698025393963452,0.5,0.014161043018645,0.847981011265093,1.22285184337039,2.72833665558911,0.5,89.8999711533915
CBC_1018,CBC_1018_MSI_TV_v3_Vset2_Tset2_2023-07-28_14h00.56.927.csv,1,13,2,3,z,0,1,0,tac,D,63,0,2D,3D,1,0,z,2.43393389999983,0,1,1,0,3D,2D,D23,2.63905732961526,0.514060775448957,0.5,0.5,0.5,0.5,0.520942181712271,0.5,0.492919478490678,0.5,0.492919478490678,0.514060775448957,0.492919478490678,0.5,0.5,0.492919478490678,0.507080521509322,0.514158203801272,0.485841796198728,0.507080521509322,0.492919478490678,0.154665631503156,0.524608375578958,-0.507080521509322,-0.00718078907901044,0.5,0.014161043018645,0.847981011265093,1.22285184337039,2.72833665558911,0.5,89.8999711533915
CBC_1018,CBC_1018_MSI_TV_v3_Vset2_Tset2_2023-07-28_14h00.56.927.csv,1,14,0,1,b,1,0,2,tac,A,63,1,0A,1A,1,0,b,2.98840139999993,1,0,1,1,0A,1A,A01,3.36729582998647,0.514060775448957,0.5,0.5,0.5,0.5,0.520942181712271,0.5,0.492919478490678,0.5,0.492919478490678,0.514060775448957,0.492919478490678,0.5,0.5,0.492919478490678,0.499899732430312,0.514060775448957,0.485939224551043,0.514060775448957,0.5,0.106828469481602,0.523165433685453,0.485939224551043,0.00688140626331429,0.5,0.014161043018645,0.847981011265093,1.22285184337039,2.72833665558911,0.5,89.8999711533915
CBC_1018,CBC_1018_MSI_TV_v3_Vset2_Tset2_2023-07-28_14h00.56.927.csv,1,15,3,2,z,0,1,1,tac,C,63,1,3C,2C,0,1,b,2.4734768999997,1,0,0,0,3C,2C,C32,3.40119738166216,0.520942181712271,0.5,0.5,0.5,0.5,0.520942181712271,0.5,0.492919478490678,0.5,0.492919478490678,0.514060775448957,0.492919478490678,0.5,0.5,0.492919478490678,0.499899732430312,0.478867118799399,0.521132881200601,0.492919478490678,0.514060775448957,0.133594437816051,0.465054289025039,-0.492919478490678,-0.00698025393963452,0.5,0.014161043018645,0.847981011265093,1.22285184337039,2.72833665558911,0.5,89.8999711533915
CBC_1018,CBC_1018_MSI_TV_v3_Vset2_Tset2_2023-07-28_14h00.56.927.csv,1,16,2,0,z,0,1,2,tac,A,27,1,2A,0A,0,1,z,2.41890289999992,0,1,1,1,0A,2A,A20,2.7408400239252,0.520942181712271,0.5,0.5,0.5,0.5,0.520942181712271,0.5,0.492919478490678,0.5,0.492919478490678,0.514060775448957,0.485939224551043,0.5,0.5,0.492919478490678,0.499899732430312,0.520942181712271,0.479057818287729,0.520942181712271,0.5,0.159618079742095,0.53594845354962,0.479057818287729,0.00678395837319073,0.5,0.014161043018645,0.847981011265093,1.22285184337039,2.72833665558911,0.5,89.8999711533915
CBC_1018,CBC_1018_MSI_TV_v3_Vset2_Tset2_2023-07-28_14h00.56.927.csv,1,17,3,2,b,1,0,0,tac,D,63,1,3D,2D,1,0,z,3.65038709999999,0,1,0,0,2D,3D,D32,3.46573590279973,0.527726140085462,0.5,0.5,0.5,0.5,0.520942181712271,0.5,0.492919478490678,0.5,0.492919478490678,0.514060775448957,0.485939224551043,0.5,0.5,0.492919478490678,0.499899732430312,0.493019726237877,0.506980273762123,0.492919478490678,0.499899732430312,0.0642823111238692,0.48821640144718,-0.492919478490678,-0.00698025393963452,0.5,0.014161043018645,0.847981011265093,1.22285184337039,2.72833665558911,0.5,89.8999711533915
CBC_1018,CBC_1018_MSI_TV_v3_Vset2_Tset2_2023-07-28_14h00.56.927.csv,1,18,2,3,z,0,1,0,tac,D,63,1,2D,3D,0,1,b,1.52367669999967,1,0,0,0,2D,3D,D23,2.39789527279837,0.527726140085462,0.5,0.5,0.5,0.5,0.520942181712271,0.5,0.492919478490678,0.5,0.492919478490678,0.514060775448957,0.485939224551043,0.5,0.5,0.485939224551043,0.499899732430312,0.486039413391969,0.513960586608031,0.485939224551043,0.499899732430312,0.235573608834624,0.476105038432233,-0.485939224551043,-0.00688140626331429,0.5,0.014161043018645,0.847981011265093,1.22285184337039,2.72833665558911,0.5,89.8999711533915
CBC_1018,CBC_1018_MSI_TV_v3_Vset2_Tset2_2023-07-28_14h00.56.927.csv,1,19,1,3,b,1,0,3,tac,B,27,1,1B,3B,NaN,NaN,None,NaN,NaN,NaN,NaN,NaN,,,B13,2.83321334405622,0.527726140085462,0.5,0.5,0.5,0.5,0.520942181712271,0.5,0.492919478490678,0.5,0.492919478490678,0.514060775448957,0.485939224551043,0.5,0.5,0.479057818287729,0.499899732430312,0,0,0,0,NaN,0,0,0,0.5,0.014161043018645,0.847981011265093,1.22285184337039,2.72833665558911,0.5,89.8999711533915
CBC_1018,CBC_1018_MSI_TV_v3_Vset2_Tset2_2023-07-28_14h00.56.927.csv,1,20,3,0,b,1,0,0,tac,D,9,1,3D,0D,1,0,z,1.01396279999972,0,1,0,0,0D,3D,D30,3.55534806148941,0.527726140085462,0.5,0.5,0.5,0.5,0.520942181712271,0.5,0.492919478490678,0.5,0.492919478490678,0.514060775448957,0.485939224551043,0.5,0.5,0.479057818287729,0.499899732430312,0.500100267569688,0.499899732430312,0.5,0.499899732430312,0.0295455207286486,0.499328275805948,-0.5,-0.00708052150932248,0.5,0.014161043018645,0.847981011265093,1.22285184337039,2.72833665558911,0.5,89.8999711533915
CBC_1018,CBC_1018_MSI_TV_v3_Vset2_Tset2_2023-07-28_14h00.56.927.csv,1,21,0,1,z,0,1,3,tac,B,63,1,0B,1B,0,1,z,3.13135629999942,0,1,1,1,1B,0B,B01,2.484906649788,0.527726140085462,0.5,0.5,0.5,0.5,0.520942181712271,0.5,0.492919478490678,0.5,0.492919478490678,0.514060775448957,0.485939224551043,0.492919478490678,0.5,0.479057818287729,0.499899732430312,0.520942181712271,0.479057818287729,0.520942181712271,0.5,0.0992119495999531,0.534355334563869,0.479057818287729,0.00678395837319073,0.5,0.014161043018645,0.847981011265093,1.22285184337039,2.72833665558911,0.5,89.8999711533915
CBC_1018,CBC_1018_MSI_TV_v3_Vset2_Tset2_2023-07-28_14h00.56.927.csv,1,22,0,1,b,1,0,2,tac,A,63,1,0A,1A,1,0,b,2.00460449999946,1,0,1,1,0A,1A,A01,2.91777073208428,0.527726140085462,0.5,0.5,0.5,0.5,0.527726140085462,0.5,0.492919478490678,0.5,0.492919478490678,0.514060775448957,0.485939224551043,0.492919478490678,0.5,0.479057818287729,0.499899732430312,0.527726140085462,0.472273859914538,0.527726140085462,0.5,0.213015982209424,0.545971431236858,0.472273859914538,0.00668789044683128,0.5,0.014161043018645,0.847981011265093,1.22285184337039,2.72833665558911,0.5,89.8999711533915
CBC_1018,CBC_1018_MSI_TV_v3_Vset2_Tset2_2023-07-28_14h00.56.927.csv,1,23,3,2,z,0,1,1,tac,C,63,1,3C,2C,0,1,z,1.98517939999965,0,1,1,1,2C,3C,C32,2.94443897916644,0.534414030532293,0.5,0.5,0.5,0.5,0.527726140085462,0.5,0.492919478490678,0.5,0.492919478490678,0.514060775448957,0.485939224551043,0.492919478490678,0.5,0.479057818287729,0.499899732430312,0.528099329340626,0.471900670659374,0.514060775448957,0.485939224551043,0.215995110548832,0.546852857289998,0.485939224551043,0.00688140626331429,0.5,0.014161043018645,0.847981011265093,1.22285184337039,2.72833665558911,0.5,89.8999711533915
CBC_1018,CBC_1018_MSI_TV_v3_Vset2_Tset2_2023-07-28_14h00.56.927.csv,1,24,2,0,z,0,1,2,tac,A,27,1,2A,0A,0,1,z,3.58843559999968,0,1,1,1,0A,2A,A20,2.56494935746154,0.534414030532293,0.5,0.5,0.5,0.5,0.527726140085462,0.5,0.492919478490678,0.5,0.492919478490678,0.520942181712271,0.485939224551043,0.492919478490678,0.5,0.479057818287729,0.499899732430312,0.534414030532293,0.465585969467707,0.534414030532293,0.5,0.076205327351658,0.557143850241149,0.465585969467707,0.00659318294250971,0.5,0.014161043018645,0.847981011265093,1.22285184337039,2.72833665558911,0.5,89.8999711533915
CBC_1018,CBC_1018_MSI_TV_v3_Vset2_Tset2_2023-07-28_14h00.56.927.csv,1,25,0,1,z,0,1,3,tac,B,63,1,0B,1B,0,1,b,2.99032619999934,1,0,0,0,0B,1B,B01,2.30258509299405,0.541007213474803,0.5,0.5,0.5,0.5,0.527726140085462,0.5,0.492919478490678,0.5,0.492919478490678,0.520942181712271,0.485939224551043,0.492919478490678,0.5,0.479057818287729,0.499899732430312,0.472273859914538,0.527726140085462,0.5,0.527726140085462,0.0926284583458065,0.454419673731457,-0.5,-0.00708052150932248,0.5,0.014161043018645,0.847981011265093,1.22285184337039,2.72833665558911,0.5,89.8999711533915
CBC_1018,CBC_1018_MSI_TV_v3_Vset2_Tset2_2023-07-28_14h00.56.927.csv,1,26,3,2,b,1,0,0,tac,D,63,1,3D,2D,1,0,z,2.64414639999995,0,1,0,0,2D,3D,D32,3.02042488614436,0.541007213474803,0.5,0.5,0.5,0.492919478490678,0.527726140085462,0.5,0.492919478490678,0.5,0.492919478490678,0.520942181712271,0.485939224551043,0.492919478490678,0.5,0.479057818287729,0.499899732430312,0.479157910798735,0.520842089201265,0.479057818287729,0.499899732430312,0.119296975952059,0.464985951833523,-0.479057818287729,-0.00678395837319073,0.5,0.014161043018645,0.847981011265093,1.22285184337039,2.72833665558911,0.5,89.8999711533915
CBC_1018,CBC_1018_MSI_TV_v3_Vset2_Tset2_2023-07-28_14h00.56.927.csv,1,27,2,1,z,0,1,3,tac,B,9,1,2B,1B,0,1,z,2.06744099999969,0,1,1,1,1B,2B,B21,3.73766961828337,0.541007213474803,0.5,0.5,0.5,0.492919478490678,0.527726140085462,0.5,0.492919478490678,0.5,0.492919478490678,0.520942181712271,0.485939224551043,0.492919478490678,0.5,0.472273859914538,0.499899732430312,0.527726140085462,0.472273859914538,0.527726140085462,0.5,0.204681488850828,0.545989880286589,0.472273859914538,0.00668789044683128,0.5,0.014161043018645,0.847981011265093,1.22285184337039,2.72833665558911,0.5,89.8999711533915
CBC_1018,CBC_1018_MSI_TV_v3_Vset2_Tset2_2023-07-28_14h00.56.927.csv,1,28,3,1,b,1,0,0,tac,D,27,1,3D,1D,1,0,b,1.7797800999997,1,0,1,1,3D,1D,D31,3.76120011569356,0.541007213474803,0.5,0.5,0.5,0.492919478490678,0.534414030532293,0.5,0.492919478490678,0.5,0.492919478490678,0.520942181712271,0.485939224551043,0.492919478490678,0.5,0.472273859914538,0.499899732430312,0.499899732430312,0.500100267569688,0.499899732430312,0.5,0.222923381042534,0.500554918736196,0.500100267569688,0.00708194140269021,0.5,0.014161043018645,0.847981011265093,1.22285184337039,2.72833665558911,0.5,89.8999711533915
CBC_1018,CBC_1018_MSI_TV_v3_Vset2_Tset2_2023-07-28_14h00.56.927.csv,1,29,0,1,b,1,0,2,tac,A,63,1,0A,1A,1,0,z,3.32770919999984,0,1,0,0,1A,0A,A01,2.68557734525015,0.541007213474803,0.5,0.5,0.5,0.492919478490678,0.534414030532293,0.5,0.492919478490678,0.5,0.492919478490678,0.520942181712271,0.485939224551043,0.492919478490678,0.5,0.472273859914538,0.506981673833002,0.458992786525197,0.541007213474803,0.5,0.541007213474803,0.0701354162155785,0.431405883437969,-0.5,-0.00708052150932248,0.5,0.014161043018645,0.847981011265093,1.22285184337039,2.72833665558911,0.5,89.8999711533915
CBC_1018,CBC_1018_MSI_TV_v3_Vset2_Tset2_2023-07-28_14h00.56.927.csv,1,30,1,0,z,0,1,2,tac,A,63,1,1A,0A,0,1,b,2.18323299999975,1,0,0,0,1A,0A,A10,3.11351530921037,0.541007213474803,0.492919478490678,0.5,0.5,0.492919478490678,0.534414030532293,0.5,0.492919478490678,0.5,0.492919478490678,0.520942181712271,0.485939224551043,0.492919478490678,0.5,0.472273859914538,0.506981673833002,0.45196804979491,0.54803195020509,0.492919478490678,0.541007213474803,0.146482062719517,0.420108556708065,-0.492919478490678,-0.00698025393963452,0.5,0.014161043018645,0.847981011265093,1.22285184337039,2.72833665558911,0.5,89.8999711533915
CBC_1018,CBC_1018_MSI_TV_v3_Vset2_Tset2_2023-07-28_14h00.56.927.csv,1,31,2,0,b,1,0,1,tac,C,27,1,2C,0C,1,0,z,1.28030709999939,0,1,0,0,0C,2C,C20,3.13549421592915,0.541007213474803,0.485939224551043,0.5,0.5,0.492919478490678,0.534414030532293,0.5,0.492919478490678,0.5,0.492919478490678,0.520942181712271,0.485939224551043,0.492919478490678,0.5,0.472273859914538,0.506981673833002,0.479057818287729,0.520942181712271,0.5,0.520942181712271,0.207202712528026,0.464714977719456,-0.5,-0.00708052150932248,0.5,0.014161043018645,0.847981011265093,1.22285184337039,2.72833665558911,0.5,89.8999711533915
CBC_1018,CBC_1018_MSI_TV_v3_Vset2_Tset2_2023-07-28_14h00.56.927.csv,1,32,0,1,b,1,0,2,tac,A,63,1,0A,1A,1,0,b,3.1296226999998,1,0,1,1,0A,1A,A01,2.46385324059017,0.541007213474803,0.485939224551043,0.5,0.5,0.492919478490678,0.534414030532293,0.5,0.492919478490678,0.492919478490678,0.492919478490678,0.520942181712271,0.485939224551043,0.492919478490678,0.5,0.472273859914538,0.506981673833002,0.554941273859637,0.445058726140363,0.541007213474803,0.485939224551043,0.109605720860121,0.591694362912672,0.458992786525197,0.00649981659523104,0.5,0.014161043018645,0.847981011265093,1.22285184337039,2.72833665558911,0.5,89.8999711533915
CBC_1018,CBC_1018_MSI_TV_v3_Vset2_Tset2_2023-07-28_14h00.56.927.csv,1,33,0,1,z,0,1,3,tac,B,63,1,0B,1B,0,1,z,1.58382029999984,0,1,1,1,1B,0B,B01,2.26176309847379,0.547507030070034,0.485939224551043,0.5,0.5,0.492919478490678,0.534414030532293,0.5,0.492919478490678,0.492919478490678,0.492919478490678,0.520942181712271,0.485939224551043,0.492919478490678,0.5,0.472273859914538,0.506981673833002,0.541454147631825,0.458545852368175,0.534414030532293,0.492919478490678,0.278855496872277,0.569403481067581,0.465585969467707,0.00659318294250971,0.5,0.014161043018645,0.847981011265093,1.22285184337039,2.72833665558911,0.5,89.8999711533915
CBC_1018,CBC_1018_MSI_TV_v3_Vset2_Tset2_2023-07-28_14h00.56.927.csv,1,34,2,3,z,0,1,0,tac,D,63,1,2D,3D,0,1,b,4.04444289999992,1,0,0,0,2D,3D,D23,2.50552593699074,0.547507030070034,0.485939224551043,0.5,0.5,0.492919478490678,0.541007213474803,0.5,0.492919478490678,0.492919478490678,0.492919478490678,0.520942181712271,0.485939224551043,0.492919478490678,0.5,0.472273859914538,0.506981673833002,0.465319039530739,0.534680960469262,0.472273859914538,0.506981673833002,0.0446505066626837,0.44241584312738,-0.472273859914538,-0.00668789044683128,0.5,0.014161043018645,0.847981011265093,1.22285184337039,2.72833665558911,0.5,89.8999711533915
CBC_1018,CBC_1018_MSI_TV_v3_Vset2_Tset2_2023-07-28_14h00.56.927.csv,1,35,1,3,b,1,0,3,tac,B,27,1,1B,3B,1,0,b,2.82692049999969,1,0,1,1,1B,3B,B13,2.81341071676004,0.547507030070034,0.485939224551043,0.5,0.5,0.492919478490678,0.541007213474803,0.5,0.492919478490678,0.492919478490678,0.492919478490678,0.520942181712271,0.485939224551043,0.492919478490678,0.5,0.465585969467707,0.506981673833002,0.54803195020509,0.45196804979491,0.541007213474803,0.492919478490678,0.131676543247402,0.579829086418193,0.458992786525197,0.00649981659523104,0.5,0.014161043018645,0.847981011265093,1.22285184337039,2.72833665558911,0.5,89.8999711533915
CBC_1018,CBC_1018_MSI_TV_v3_Vset2_Tset2_2023-07-28_14h00.56.927.csv,1,36,2,3,b,1,0,1,tac,C,63,1,2C,3C,1,0,z,1.85517139999956,0,1,0,0,3C,2C,C23,2.83321334405622,0.547507030070034,0.485939224551043,0.5,0.5,0.492919478490678,0.547507030070034,0.5,0.492919478490678,0.492919478490678,0.492919478490678,0.520942181712271,0.485939224551043,0.492919478490678,0.5,0.465585969467707,0.506981673833002,0.465038222682087,0.534961777317913,0.485939224551043,0.520942181712271,0.18910993035712,0.441814510469892,-0.485939224551043,-0.00688140626331429,0.5,0.014161043018645,0.847981011265093,1.22285184337039,2.72833665558911,0.5,89.8999711533915
CBC_1018,CBC_1018_MSI_TV_v3_Vset2_Tset2_2023-07-28_14h00.56.927.csv,1,37,0,2,z,0,1,1,tac,C,27,1,0C,2C,0,1,b,1.67421499999955,1,0,0,0,0C,2C,C02,3.95124371858143,0.547507030070034,0.485939224551043,0.5,0.5,0.492919478490678,0.547507030070034,0.5,0.492919478490678,0.492919478490678,0.492919478490678,0.520942181712271,0.479057818287729,0.492919478490678,0.5,0.465585969467707,0.506981673833002,0.471993907927398,0.528006092072602,0.492919478490678,0.520942181712271,0.213442148190375,0.453225388253209,-0.492919478490678,-0.00698025393963452,0.5,0.014161043018645,0.847981011265093,1.22285184337039,2.72833665558911,0.5,89.8999711533915
CBC_1018,CBC_1018_MSI_TV_v3_Vset2_Tset2_2023-07-28_14h00.56.927.csv,1,38,0,1,z,0,1,3,tac,B,63,1,0B,1B,0,1,b,3.02845339999976,1,0,0,0,0B,1B,B01,2.17853244432407,0.547507030070034,0.485939224551043,0.5,0.5,0.492919478490678,0.547507030070034,0.5,0.492919478490678,0.485939224551043,0.492919478490678,0.520942181712271,0.479057818287729,0.492919478490678,0.5,0.465585969467707,0.506981673833002,0.445485797182029,0.554514202817971,0.492919478490678,0.547507030070034,0.0813873758111769,0.410420335212374,-0.492919478490678,-0.00698025393963452,0.5,0.014161043018645,0.847981011265093,1.22285184337039,2.72833665558911,0.5,89.8999711533915
CBC_1018,CBC_1018_MSI_TV_v3_Vset2_Tset2_2023-07-28_14h00.56.927.csv,1,39,0,3,b,1,0,2,tac,A,9,1,0A,3A,1,0,b,2.17659400000002,1,0,1,1,0A,3A,A03,3.98898404656427,0.547507030070034,0.485939224551043,0.5,0.5,0.485939224551043,0.547507030070034,0.5,0.492919478490678,0.485939224551043,0.492919478490678,0.520942181712271,0.479057818287729,0.492919478490678,0.5,0.465585969467707,0.506981673833002,0.547507030070034,0.452492969929966,0.547507030070034,0.5,0.20251752009091,0.578372242787896,0.452492969929966,0.00640777241281267,0.5,0.014161043018645,0.847981011265093,1.22285184337039,2.72833665558911,0.5,89.8999711533915
CBC_1018,CBC_1018_MSI_TV_v3_Vset2_Tset2_2023-07-28_14h00.56.927.csv,1,40,2,3,b,1,0,1,tac,C,63,0,2C,3C,0,1,b,4.87262280000004,1,0,1,0,2C,3C,C23,2.62103882411258,0.553914802482847,0.485939224551043,0.5,0.5,0.485939224551043,0.547507030070034,0.5,0.492919478490678,0.485939224551043,0.492919478490678,0.520942181712271,0.479057818287729,0.492919478490678,0.5,0.465585969467707,0.506981673833002,0.541811014366243,0.458188985633757,0.520942181712271,0.479057818287729,0.0329591167498427,0.569163283061855,-0.520942181712271,-0.00737708464545423,0.5,0.014161043018645,0.847981011265093,1.22285184337039,2.72833665558911,0.5,89.8999711533915
CBC_1018,CBC_1018_MSI_TV_v3_Vset2_Tset2_2023-07-28_14h00.56.927.csv,1,41,0,1,b,1,0,2,tac,A,63,1,0A,1A,1,0,b,2.61850849999973,1,0,1,1,0A,1A,A01,2.41591377830105,0.553914802482847,0.485939224551043,0.5,0.5,0.485939224551043,0.547507030070034,0.5,0.492919478490678,0.485939224551043,0.492919478490678,0.513565097066817,0.479057818287729,0.492919478490678,0.5,0.465585969467707,0.506981673833002,0.567770076308372,0.432229923691628,0.553914802482847,0.485939224551043,0.159336549465072,0.610036541217993,0.446085197517153,0.00631703167202114,0.5,0.014161043018645,0.847981011265093,1.22285184337039,2.72833665558911,0.5,89.8999711533915
CBC_1018,CBC_1018_MSI_TV_v3_Vset2_Tset2_2023-07-28_14h00.56.927.csv,1,42,2,3,z,0,1,0,tac,D,63,1,2D,3D,0,1,b,1.8443070999997,1,0,0,0,2D,3D,D23,2.43361335540045,0.560231834154868,0.485939224551043,0.5,0.5,0.485939224551043,0.547507030070034,0.5,0.492919478490678,0.485939224551043,0.492919478490678,0.513565097066817,0.479057818287729,0.492919478490678,0.5,0.465585969467707,0.506981673833002,0.458644041611663,0.541355958388337,0.465585969467707,0.506981673833002,0.185985871769819,0.431208012367469,-0.465585969467707,-0.00659318294250971,0.5,0.014161043018645,0.847981011265093,1.22285184337039,2.72833665558911,0.5,89.8999711533915
CBC_1018,CBC_1018_MSI_TV_v3_Vset2_Tset2_2023-07-28_14h00.56.927.csv,1,43,3,2,z,0,1,1,tac,C,63,1,3C,2C,0,1,z,2.96150169999964,0,1,1,1,2C,3C,C32,2.96183072187831,0.560231834154868,0.485939224551043,0.5,0.5,0.485939224551043,0.547507030070034,0.5,0.492919478490678,0.485939224551043,0.492919478490678,0.513565097066817,0.479057818287729,0.492919478490678,0.5,0.458992786525197,0.506981673833002,0.53446811159844,0.46553188840156,0.513565097066817,0.479057818287729,0.115847480586233,0.557736430653677,0.486434902933183,0.00688842558620719,0.5,0.014161043018645,0.847981011265093,1.22285184337039,2.72833665558911,0.5,89.8999711533915
CBC_1018,CBC_1018_MSI_TV_v3_Vset2_Tset2_2023-07-28_14h00.56.927.csv,1,44,3,1,b,1,0,0,tac,D,27,1,3D,1D,1,0,z,2.93775019999975,0,1,0,0,1D,3D,D31,3.38439026334577,0.560231834154868,0.485939224551043,0.5,0.5,0.485939224551043,0.547507030070034,0.5,0.492919478490678,0.485939224551043,0.492919478490678,0.520453522653024,0.479057818287729,0.492919478490678,0.5,0.458992786525197,0.506981673833002,0.493018326166998,0.506981673833002,0.5,0.506981673833002,0.103245088599456,0.488861816494844,-0.5,-0.00708052150932248,0.5,0.014161043018645,0.847981011265093,1.22285184337039,2.72833665558911,0.5,89.8999711533915
CBC_1018,CBC_1018_MSI_AV_v3_Vset5_Aset3_2023-07-28_14h09.48.835.csv,2,1,0,2,z,0,1,1,aud,C,27,1,0C,2C,0,1,b,1.76050830000031,1,0,0,0,0C,2C,C02,2.77258872223978,0.5,0.5,0.5,0.5,0.5,0.5,0.5,0.5,0.5,0.5,0.5,0.5,0.5,0.5,0.5,0.5,0.5,0.5,0.5,0.5,0.251620453483421,0.500266332897026,-0.5,-0.0151803420799034,0.5,0.0303606841598069,0.845603071973768,1.22001931991815,2.31672386571762,0.5,73.5223828152669
CBC_1018,CBC_1018_MSI_AV_v3_Vset5_Aset3_2023-07-28_14h09.48.835.csv,2,2,2,3,z,0,1,0,aud,D,63,1,2D,3D,0,1,z,2.42091670000036,0,1,1,1,3D,2D,D23,2.83321334405622,0.5,0.5,0.5,0.5,0.5,0.5,0.5,0.5,0.484819657920097,0.5,0.5,0.5,0.5,0.5,0.5,0.5,0.5,0.5,0.5,0.5,0.137608370214759,0.500330941009275,0.5,0.0151803420799034,0.5,0.0303606841598069,0.845603071973768,1.22001931991815,2.31672386571762,0.5,73.5223828152669
CBC_1018,CBC_1018_MSI_AV_v3_Vset5_Aset3_2023-07-28_14h09.48.835.csv,2,3,0,1,b,1,0,2,aud,A,63,1,0A,1A,1,0,z,1.5060253000006,0,1,0,0,1A,0A,A01,2.89037175789616,0.5,0.5,0.5,0.5,0.5,0.5,0.5,0.5,0.484819657920097,0.5,0.5,0.5,0.5,0.5,0.5,0.515180342079903,0.5,0.5,0.5,0.5,0.311675897078731,0.500290156741888,-0.5,-0.0151803420799034,0.5,0.0303606841598069,0.845603071973768,1.22001931991815,2.31672386571762,0.5,73.5223828152669
CBC_1018,CBC_1018_MSI_AV_v3_Vset5_Aset3_2023-07-28_14h09.48.835.csv,2,4,3,2,z,0,1,1,aud,C,63,1,3C,2C,0,1,b,1.58337000000029,1,0,0,0,3C,2C,C32,2.94443897916644,0.5,0.484819657920097,0.5,0.5,0.5,0.5,0.5,0.5,0.484819657920097,0.5,0.5,0.5,0.5,0.5,0.5,0.515180342079903,0.5,0.5,0.5,0.5,0.293240743727086,0.500213480677596,-0.5,-0.0151803420799034,0.5,0.0303606841598069,0.845603071973768,1.22001931991815,2.31672386571762,0.5,73.5223828152669
CBC_1018,CBC_1018_MSI_AV_v3_Vset5_Aset3_2023-07-28_14h09.48.835.csv,2,5,2,0,z,0,1,2,aud,A,27,1,2A,0A,0,1,z,2.19352879999997,0,1,1,1,0A,2A,A20,2.99573227355399,0.5,0.484819657920097,0.5,0.5,0.5,0.5,0.5,0.5,0.484819657920097,0.5,0.5,0.484819657920097,0.5,0.5,0.5,0.515180342079903,0.5,0.5,0.5,0.5,0.169388008445277,0.499747003952459,0.5,0.0151803420799034,0.5,0.0303606841598069,0.845603071973768,1.22001931991815,2.31672386571762,0.5,73.5223828152669
CBC_1018,CBC_1018_MSI_AV_v3_Vset5_Aset3_2023-07-28_14h09.48.835.csv,2,6,3,2,b,1,0,0,aud,D,63,1,3D,2D,1,0,z,1.65237520000028,0,1,0,0,2D,3D,D32,3.04452243772342,0.515180342079903,0.484819657920097,0.5,0.5,0.5,0.5,0.5,0.5,0.484819657920097,0.5,0.5,0.484819657920097,0.5,0.5,0.5,0.515180342079903,0.484819657920097,0.515180342079903,0.5,0.515180342079903,0.264458790232507,0.477935859694363,-0.5,-0.0151803420799034,0.5,0.0303606841598069,0.845603071973768,1.22001931991815,2.31672386571762,0.5,73.5223828152669
CBC_1018,CBC_1018_MSI_AV_v3_Vset5_Aset3_2023-07-28_14h09.48.835.csv,2,7,2,3,z,0,1,0,aud,D,63,1,2D,3D,0,1,z,2.06495260000065,0,1,1,1,3D,2D,D23,2.39789527279837,0.515180342079903,0.484819657920097,0.5,0.5,0.5,0.5,0.5,0.5,0.484819657920097,0.5,0.5,0.484819657920097,0.5,0.5,0.484819657920097,0.515180342079903,0.530332724329842,0.469667275670158,0.515180342079903,0.484819657920097,0.207231399965838,0.543171422696868,0.484819657920097,0.0147194565085777,0.5,0.0303606841598069,0.845603071973768,1.22001931991815,2.31672386571762,0.5,73.5223828152669
CBC_1018,CBC_1018_MSI_AV_v3_Vset5_Aset3_2023-07-28_14h09.48.835.csv,2,8,1,3,b,1,0,3,aud,B,27,1,1B,3B,1,0,b,1.91159210000023,1,0,1,1,1B,3B,B13,3.13549421592915,0.515180342079903,0.484819657920097,0.5,0.5,0.5,0.5,0.5,0.5,0.484819657920097,0.5,0.5,0.484819657920097,0.5,0.5,0.484819657920097,0.529899798588481,0.5,0.5,0.5,0.5,0.219327052713063,0.499837850446216,0.5,0.0151803420799034,0.5,0.0303606841598069,0.845603071973768,1.22001931991815,2.31672386571762,0.5,73.5223828152669
CBC_1018,CBC_1018_MSI_AV_v3_Vset5_Aset3_2023-07-28_14h09.48.835.csv,2,9,3,0,b,1,0,0,aud,D,9,1,3D,0D,1,0,b,3.19580410000026,1,0,1,1,3D,0D,D30,3.17805383034795,0.515180342079903,0.484819657920097,0.5,0.5,0.5,0.515180342079903,0.5,0.5,0.484819657920097,0.5,0.5,0.484819657920097,0.5,0.5,0.484819657920097,0.529899798588481,0.529899798588481,0.470100201411519,0.529899798588481,0.5,0.0729880294617769,0.542575202320369,0.470100201411519,0.0142725637385167,0.5,0.0303606841598069,0.845603071973768,1.22001931991815,2.31672386571762,0.5,73.5223828152669
CBC_1018,CBC_1018_MSI_AV_v3_Vset5_Aset3_2023-07-28_14h09.48.835.csv,2,10,0,1,z,0,1,3,aud,B,63,1,0B,1B,0,1,z,2.58422920000021,0,1,1,1,1B,0B,B01,3.2188758248682,0.515180342079903,0.484819657920097,0.5,0.5,0.5,0.515180342079903,0.5,0.5,0.484819657920097,0.5,0.5,0.484819657920097,0.5,0.5,0.484819657920097,0.544172362326998,0.515180342079903,0.484819657920097,0.515180342079903,0.5,0.123361592677125,0.521330038709031,0.484819657920097,0.0147194565085777,0.5,0.0303606841598069,0.845603071973768,1.22001931991815,2.31672386571762,0.5,73.5223828152669
CBC_1018,CBC_1018_MSI_AV_v3_Vset5_Aset3_2023-07-28_14h09.48.835.csv,2,11,0,1,b,1,0,2,aud,A,63,1,0A,1A,1,0,z,2.5313142,0,1,0,0,1A,0A,A01,2.56494935746154,0.515180342079903,0.484819657920097,0.5,0.5,0.5,0.529899798588481,0.5,0.5,0.484819657920097,0.5,0.5,0.484819657920097,0.5,0.5,0.484819657920097,0.544172362326998,0.469667275670158,0.530332724329842,0.484819657920097,0.515180342079903,0.113375281694175,0.456696939648104,-0.484819657920097,-0.0147194565085777,0.5,0.0303606841598069,0.845603071973768,1.22001931991815,2.31672386571762,0.5,73.5223828152669
CBC_1018,CBC_1018_MSI_AV_v3_Vset5_Aset3_2023-07-28_14h09.48.835.csv,2,12,1,0,b,1,0,3,aud,B,63,1,1B,0B,1,0,b,2.10637480000059,1,0,1,1,1B,0B,B10,3.29583686600433,0.515180342079903,0.470100201411519,0.5,0.5,0.5,0.529899798588481,0.5,0.5,0.484819657920097,0.5,0.5,0.484819657920097,0.5,0.5,0.484819657920097,0.544172362326998,0.529899798588481,0.470100201411519,0.529899798588481,0.5,0.198587530750431,0.540742453505127,0.470100201411519,0.0142725637385167,0.5,0.0303606841598069,0.845603071973768,1.22001931991815,2.31672386571762,0.5,73.5223828152669
CBC_1018,CBC_1018_MSI_AV_v3_Vset5_Aset3_2023-07-28_14h09.48.835.csv,2,13,3,2,b,1,0,0,aud,D,63,1,3D,2D,1,0,z,1.2411889,0,1,0,0,2D,3D,D32,2.63905732961526,0.515180342079903,0.470100201411519,0.5,0.5,0.5,0.544172362326998,0.5,0.5,0.484819657920097,0.5,0.5,0.484819657920097,0.5,0.5,0.484819657920097,0.544172362326998,0.440806065934928,0.559193934065072,0.484819657920097,0.544172362326998,0.286944822514129,0.417021456363513,-0.484819657920097,-0.0147194565085777,0.5,0.0303606841598069,0.845603071973768,1.22001931991815,2.31672386571762,0.5,73.5223828152669
CBC_1018,CBC_1018_MSI_AV_v3_Vset5_Aset3_2023-07-28_14h09.48.835.csv,2,14,3,1,z,0,1,3,aud,B,27,1,3B,1B,0,1,b,2.19914050000034,1,0,0,0,3B,1B,B31,3.36729582998647,0.515180342079903,0.470100201411519,0.5,0.5,0.5,0.544172362326998,0.5,0.5,0.484819657920097,0.5,0.5,0.484819657920097,0.5,0.5,0.470100201411519,0.544172362326998,0.455827637673002,0.544172362326998,0.5,0.544172362326998,0.147783773784623,0.438298733810718,-0.5,-0.0151803420799034,0.5,0.0303606841598069,0.845603071973768,1.22001931991815,2.31672386571762,0.5,73.5223828152669
CBC_1018,CBC_1018_MSI_AV_v3_Vset5_Aset3_2023-07-28_14h09.48.835.csv,2,15,2,3,b,1,0,1,aud,C,63,1,2C,3C,1,0,z,1.80264670000042,0,1,0,0,3C,2C,C23,3.40119738166216,0.515180342079903,0.470100201411519,0.5,0.5,0.5,0.544172362326998,0.5,0.484819657920097,0.484819657920097,0.5,0.5,0.484819657920097,0.5,0.5,0.470100201411519,0.544172362326998,0.484819657920097,0.515180342079903,0.484819657920097,0.5,0.23170540070985,0.478281805743614,-0.484819657920097,-0.0147194565085777,0.5,0.0303606841598069,0.845603071973768,1.22001931991815,2.31672386571762,0.5,73.5223828152669
CBC_1018,CBC_1018_MSI_AV_v3_Vset5_Aset3_2023-07-28_14h09.48.835.csv,2,16,0,2,z,0,1,1,aud,C,27,1,0C,2C,0,1,b,1.61292660000026,1,0,0,0,0C,2C,C02,2.7408400239252,0.515180342079903,0.470100201411519,0.5,0.5,0.5,0.544172362326998,0.5,0.484819657920097,0.484819657920097,0.5,0.5,0.470100201411519,0.5,0.5,0.470100201411519,0.544172362326998,0.484819657920097,0.515180342079903,0.484819657920097,0.5,0.274004183133403,0.478840451373713,-0.484819657920097,-0.0147194565085777,0.5,0.0303606841598069,0.845603071973768,1.22001931991815,2.31672386571762,0.5,73.5223828152669
CBC_1018,CBC_1018_MSI_AV_v3_Vset5_Aset3_2023-07-28_14h09.48.835.csv,2,17,3,0,z,0,1,2,aud,A,9,1,3A,0A,0,1,b,2.0420436000004,1,0,0,0,3A,0A,A30,3.46573590279973,0.515180342079903,0.470100201411519,0.5,0.5,0.5,0.544172362326998,0.5,0.484819657920097,0.470100201411519,0.5,0.5,0.470100201411519,0.5,0.5,0.470100201411519,0.544172362326998,0.484819657920097,0.515180342079903,0.5,0.515180342079903,0.186349141937719,0.47840327086697,-0.5,-0.0151803420799034,0.5,0.0303606841598069,0.845603071973768,1.22001931991815,2.31672386571762,0.5,73.5223828152669
CBC_1018,CBC_1018_MSI_AV_v3_Vset5_Aset3_2023-07-28_14h09.48.835.csv,2,18,3,2,z,0,1,1,aud,C,63,0,3C,2C,1,0,b,1.61982400000034,1,0,0,1,3C,2C,C32,2.80336038090653,0.515180342079903,0.470100201411519,0.5,0.484819657920097,0.5,0.544172362326998,0.5,0.484819657920097,0.470100201411519,0.5,0.5,0.470100201411519,0.5,0.5,0.470100201411519,0.544172362326998,0.470100201411519,0.529899798588481,0.470100201411519,0.5,0.260929141446356,0.45814359079718,0.529899798588481,0.0160881204212901,0.5,0.0303606841598069,0.845603071973768,1.22001931991815,2.31672386571762,0.5,73.5223828152669
CBC_1018,CBC_1018_MSI_AV_v3_Vset5_Aset3_2023-07-28_14h09.48.835.csv,2,19,0,1,b,1,0,2,aud,A,63,1,0A,1A,1,0,z,2.07439600000043,0,1,0,0,1A,0A,A01,2.42774823594805,0.515180342079903,0.470100201411519,0.5,0.484819657920097,0.5,0.544172362326998,0.5,0.484819657920097,0.470100201411519,0.5,0.5,0.486188321832809,0.5,0.5,0.470100201411519,0.544172362326998,0.455001556556324,0.544998443443676,0.470100201411519,0.515180342079903,0.164763884164948,0.435463342425547,-0.470100201411519,-0.0142725637385167,0.5,0.0303606841598069,0.845603071973768,1.22001931991815,2.31672386571762,0.5,73.5223828152669
CBC_1018,CBC_1018_MSI_AV_v3_Vset5_Aset3_2023-07-28_14h09.48.835.csv,2,20,2,3,z,0,1,0,aud,D,63,1,2D,3D,0,1,b,2.23504880000019,1,0,0,0,2D,3D,D23,2.4567357728213,0.515180342079903,0.455827637673002,0.5,0.484819657920097,0.5,0.544172362326998,0.5,0.484819657920097,0.470100201411519,0.5,0.5,0.486188321832809,0.5,0.5,0.470100201411519,0.544172362326998,0.426317104271411,0.573682895728589,0.470100201411519,0.544172362326998,0.12931336981695,0.396717053355327,-0.470100201411519,-0.0142725637385167,0.5,0.0303606841598069,0.845603071973768,1.22001931991815,2.31672386571762,0.5,73.5223828152669
CBC_1018,CBC_1018_MSI_AV_v3_Vset5_Aset3_2023-07-28_14h09.48.835.csv,2,21,2,3,b,1,0,1,aud,C,63,1,2C,3C,NaN,NaN,[],NaN,NaN,NaN,NaN,NaN,,,C23,2.89037175789616,0.515180342079903,0.455827637673002,0.5,0.484819657920097,0.5,0.544172362326998,0.5,0.484819657920097,0.470100201411519,0.5,0.5,0.486188321832809,0.5,0.5,0.455827637673002,0.544172362326998,0,0,0,0,NaN,0,0,0,0.5,0.0303606841598069,0.845603071973768,1.22001931991815,2.31672386571762,0.5,73.5223828152669
CBC_1018,CBC_1018_MSI_AV_v3_Vset5_Aset3_2023-07-28_14h09.48.835.csv,2,22,1,3,z,0,1,0,aud,D,27,1,1D,3D,0,1,z,3.84637820000034,0,1,1,1,3D,1D,D13,3.61091791264422,0.515180342079903,0.455827637673002,0.5,0.484819657920097,0.5,0.544172362326998,0.5,0.484819657920097,0.470100201411519,0.5,0.5,0.486188321832809,0.5,0.5,0.455827637673002,0.544172362326998,0.544172362326998,0.455827637673002,0.544172362326998,0.5,0.0413053083480204,0.562384648384276,0.455827637673002,0.0138392389387009,0.5,0.0303606841598069,0.845603071973768,1.22001931991815,2.31672386571762,0.5,73.5223828152669
CBC_1018,CBC_1018_MSI_AV_v3_Vset5_Aset3_2023-07-28_14h09.48.835.csv,2,23,1,0,z,0,1,2,aud,A,63,1,1A,0A,0,1,z,1.23394170000029,0,1,1,1,0A,1A,A10,3.63758615972639,0.515180342079903,0.455827637673002,0.5,0.484819657920097,0.5,0.544172362326998,0.5,0.484819657920097,0.470100201411519,0.5,0.5,0.486188321832809,0.5,0.5,0.455827637673002,0.558011601265699,0.559193934065072,0.440806065934928,0.515180342079903,0.455827637673002,0.39949965275837,0.582850176510351,0.484819657920097,0.0147194565085777,0.5,0.0303606841598069,0.845603071973768,1.22001931991815,2.31672386571762,0.5,73.5223828152669
CBC_1018,CBC_1018_MSI_AV_v3_Vset5_Aset3_2023-07-28_14h09.48.835.csv,2,24,2,3,b,1,0,1,aud,C,63,1,2C,3C,1,0,b,1.7667878000002,1,0,1,1,2C,3C,C23,2.56494935746154,0.529899798588481,0.455827637673002,0.5,0.484819657920097,0.5,0.544172362326998,0.5,0.484819657920097,0.470100201411519,0.5,0.5,0.486188321832809,0.5,0.5,0.455827637673002,0.558011601265699,0.513811678167191,0.486188321832809,0.5,0.486188321832809,0.260046558612937,0.519800398628019,0.5,0.0151803420799034,0.5,0.0303606841598069,0.845603071973768,1.22001931991815,2.31672386571762,0.5,73.5223828152669
CBC_1018,CBC_1018_MSI_AV_v3_Vset5_Aset3_2023-07-28_14h09.48.835.csv,2,25,2,0,z,0,1,2,aud,A,27,1,2A,0A,0,1,z,2.15464950000023,0,1,1,1,0A,2A,A20,2.99573227355399,0.529899798588481,0.455827637673002,0.5,0.484819657920097,0.5,0.544172362326998,0.5,0.484819657920097,0.470100201411519,0.5,0.515180342079903,0.486188321832809,0.5,0.5,0.455827637673002,0.558011601265699,0.529899798588481,0.470100201411519,0.529899798588481,0.5,0.190255451432527,0.541584415403315,0.470100201411519,0.0142725637385167,0.5,0.0303606841598069,0.845603071973768,1.22001931991815,2.31672386571762,0.5,73.5223828152669
CBC_1018,CBC_1018_MSI_AV_v3_Vset5_Aset3_2023-07-28_14h09.48.835.csv,2,26,0,1,z,0,1,3,aud,B,63,1,0B,1B,0,1,z,2.59409750000032,0,1,1,1,1B,0B,B01,3.02042488614436,0.544172362326998,0.455827637673002,0.5,0.484819657920097,0.5,0.544172362326998,0.5,0.484819657920097,0.470100201411519,0.5,0.515180342079903,0.486188321832809,0.5,0.5,0.455827637673002,0.558011601265699,0.544172362326998,0.455827637673002,0.544172362326998,0.5,0.131601483670442,0.562421844270899,0.455827637673002,0.0138392389387009,0.5,0.0303606841598069,0.845603071973768,1.22001931991815,2.31672386571762,0.5,73.5223828152669
CBC_1018,CBC_1018_MSI_AV_v3_Vset5_Aset3_2023-07-28_14h09.48.835.csv,2,27,1,0,b,1,0,3,aud,B,63,1,1B,0B,1,0,b,1.61838830000033,1,0,1,1,1B,0B,B10,3.04452243772342,0.544172362326998,0.455827637673002,0.5,0.484819657920097,0.5,0.558011601265699,0.5,0.484819657920097,0.470100201411519,0.5,0.515180342079903,0.486188321832809,0.5,0.5,0.455827637673002,0.558011601265699,0.558011601265699,0.441988398734301,0.558011601265699,0.5,0.332699352646629,0.581048626463399,0.441988398734301,0.0134190701762709,0.5,0.0303606841598069,0.845603071973768,1.22001931991815,2.31672386571762,0.5,73.5223828152669
CBC_1018,CBC_1018_MSI_AV_v3_Vset5_Aset3_2023-07-28_14h09.48.835.csv,2,28,2,3,b,1,0,1,aud,C,63,1,2C,3C,1,0,z,1.7479902,0,1,0,0,3C,2C,C23,2.37490575457367,0.544172362326998,0.455827637673002,0.5,0.484819657920097,0.5,0.57143067144197,0.5,0.484819657920097,0.470100201411519,0.5,0.515180342079903,0.486188321832809,0.5,0.5,0.455827637673002,0.558011601265699,0.471032273941829,0.528967726058171,0.486188321832809,0.515180342079903,0.23411721478853,0.459812782254485,-0.486188321832809,-0.0147610100813524,0.5,0.0303606841598069,0.845603071973768,1.22001931991815,2.31672386571762,0.5,73.5223828152669
CBC_1018,CBC_1018_MSI_AV_v3_Vset5_Aset3_2023-07-28_14h09.48.835.csv,2,29,1,3,z,0,1,0,aud,D,27,1,1D,3D,0,1,z,1.84210180000036,0,1,1,1,3D,1D,D13,3.09104245335832,0.544172362326998,0.455827637673002,0.5,0.484819657920097,0.5,0.57143067144197,0.5,0.484819657920097,0.470100201411519,0.5,0.515180342079903,0.471427311751457,0.5,0.5,0.455827637673002,0.558011601265699,0.558011601265699,0.441988398734301,0.558011601265699,0.5,0.272645765434535,0.581366324773141,0.441988398734301,0.0134190701762709,0.5,0.0303606841598069,0.845603071973768,1.22001931991815,2.31672386571762,0.5,73.5223828152669
CBC_1018,CBC_1018_MSI_AV_v3_Vset5_Aset3_2023-07-28_14h09.48.835.csv,2,30,2,1,b,1,0,1,aud,C,9,1,2C,1C,1,0,b,1.54927730000009,1,0,1,1,2C,1C,C21,3.80666248977032,0.544172362326998,0.455827637673002,0.5,0.484819657920097,0.5,0.57143067144197,0.5,0.484819657920097,0.470100201411519,0.5,0.515180342079903,0.471427311751457,0.5,0.5,0.455827637673002,0.57143067144197,0.515180342079903,0.484819657920097,0.515180342079903,0.5,0.313932742168297,0.520755819751503,0.484819657920097,0.0147194565085777,0.5,0.0303606841598069,0.845603071973768,1.22001931991815,2.31672386571762,0.5,73.5223828152669
CBC_1018,CBC_1018_MSI_AV_v3_Vset5_Aset3_2023-07-28_14h09.48.835.csv,2,31,1,3,b,1,0,3,aud,B,27,1,1B,3B,1,0,b,3.08349670000052,1,0,1,1,1B,3B,B13,3.13549421592915,0.544172362326998,0.455827637673002,0.5,0.484819657920097,0.5,0.57143067144197,0.5,0.484819657920097,0.470100201411519,0.5,0.529899798588481,0.471427311751457,0.5,0.5,0.455827637673002,0.57143067144197,0.586236972029494,0.413763027970506,0.57143067144197,0.484819657920097,0.0908567225161585,0.619916231090129,0.42856932855803,0.0130116580249309,0.5,0.0303606841598069,0.845603071973768,1.22001931991815,2.31672386571762,0.5,73.5223828152669
CBC_1018,CBC_1018_MSI_AV_v3_Vset5_Aset3_2023-07-28_14h09.48.835.csv,2,32,2,3,z,0,1,0,aud,D,63,1,2D,3D,0,1,z,0.96623480000062,0,1,1,1,3D,2D,D23,2.46385324059017,0.544172362326998,0.455827637673002,0.5,0.484819657920097,0.5,0.5844423294669,0.5,0.484819657920097,0.470100201411519,0.5,0.529899798588481,0.471427311751457,0.5,0.5,0.455827637673002,0.57143067144197,0.61416218754837,0.38583781245163,0.57143067144197,0.455827637673002,0.0582538338949146,0.655979058407138,0.42856932855803,0.0130116580249309,0.5,0.0303606841598069,0.845603071973768,1.22001931991815,2.31672386571762,0.5,73.5223828152669
CBC_1018,CBC_1018_MSI_AV_v3_Vset5_Aset3_2023-07-28_14h09.48.835.csv,2,33,1,0,b,1,0,3,aud,B,63,1,1B,0B,NaN,NaN,[],NaN,NaN,NaN,NaN,NaN,,,B10,2.77258872223978,0.544172362326998,0.455827637673002,0.5,0.484819657920097,0.5,0.5844423294669,0.5,0.484819657920097,0.470100201411519,0.5,0.529899798588481,0.471427311751457,0.5,0.5,0.455827637673002,0.5844423294669,0,0,0,0,NaN,0,0,0,0.5,0.0303606841598069,0.845603071973768,1.22001931991815,2.31672386571762,0.5,73.5223828152669
CBC_1018,CBC_1018_MSI_AV_v3_Vset5_Aset3_2023-07-28_14h09.48.835.csv,2,34,0,1,b,1,0,2,aud,A,63,0,0A,1A,0,1,z,1.72127570000021,0,1,0,1,1A,0A,A01,2.50552593699074,0.544172362326998,0.455827637673002,0.5,0.484819657920097,0.5,0.5844423294669,0.5,0.484819657920097,0.470100201411519,0.5,0.529899798588481,0.471427311751457,0.5,0.5,0.455827637673002,0.5844423294669,0.412339447581715,0.587660552418285,0.455827637673002,0.544172362326998,0.199163214416563,0.378455616713191,0.544172362326998,0.016521445221106,0.5,0.0303606841598069,0.845603071973768,1.22001931991815,2.31672386571762,0.5,73.5223828152669
CBC_1018,CBC_1018_MSI_AV_v3_Vset5_Aset3_2023-07-28_14h09.48.835.csv,2,35,3,2,z,0,1,1,aud,C,63,1,3C,2C,0,1,z,2.17587880000019,0,1,1,1,2C,3C,C32,2.81341071676004,0.544172362326998,0.472349082894108,0.5,0.484819657920097,0.5,0.5844423294669,0.5,0.484819657920097,0.470100201411519,0.5,0.529899798588481,0.471427311751457,0.5,0.5,0.455827637673002,0.5844423294669,0.558273351033889,0.441726648966111,0.529899798588481,0.471427311751457,0.200261210316979,0.581301420184008,0.470100201411519,0.0142725637385167,0.5,0.0303606841598069,0.845603071973768,1.22001931991815,2.31672386571762,0.5,73.5223828152669
CBC_1018,CBC_1018_MSI_AV_v3_Vset5_Aset3_2023-07-28_14h09.48.835.csv,2,36,2,0,z,0,1,2,aud,A,27,1,2A,0A,0,1,b,2.81123360000038,1,0,0,0,2A,0A,A20,2.83321334405622,0.544172362326998,0.472349082894108,0.5,0.484819657920097,0.5,0.5844423294669,0.5,0.484819657920097,0.470100201411519,0.5,0.544172362326998,0.471427311751457,0.5,0.5,0.455827637673002,0.5844423294669,0.455827637673002,0.544172362326998,0.5,0.544172362326998,0.0837096574340761,0.437363545793754,-0.5,-0.0151803420799034,0.5,0.0303606841598069,0.845603071973768,1.22001931991815,2.31672386571762,0.5,73.5223828152669
CBC_1018,CBC_1018_MSI_AV_v3_Vset5_Aset3_2023-07-28_14h09.48.835.csv,2,37,1,0,b,1,0,3,aud,B,63,1,1B,0B,1,0,z,3.92325270000038,0,1,0,0,0B,1B,B10,2.56494935746154,0.544172362326998,0.472349082894108,0.484819657920097,0.484819657920097,0.5,0.5844423294669,0.5,0.484819657920097,0.470100201411519,0.5,0.544172362326998,0.471427311751457,0.5,0.5,0.455827637673002,0.5844423294669,0.4155576705331,0.5844423294669,0.5,0.5844423294669,0.0255364701808706,0.383378136030332,-0.5,-0.0151803420799034,0.5,0.0303606841598069,0.845603071973768,1.22001931991815,2.31672386571762,0.5,73.5223828152669
CBC_1018,CBC_1018_MSI_AV_v3_Vset5_Aset3_2023-07-28_14h09.48.835.csv,2,38,3,2,b,1,0,0,aud,D,63,1,3D,2D,1,0,b,1.50842760000023,1,0,1,1,3D,2D,D32,2.87167962488401,0.544172362326998,0.472349082894108,0.484819657920097,0.484819657920097,0.484819657920097,0.5844423294669,0.5,0.484819657920097,0.470100201411519,0.5,0.544172362326998,0.471427311751457,0.5,0.5,0.455827637673002,0.5844423294669,0.626723961582196,0.373276038417804,0.5844423294669,0.455827637673002,0.430954532861287,0.671760567346386,0.4155576705331,0.0126166151852405,0.5,0.0303606841598069,0.845603071973768,1.22001931991815,2.31672386571762,0.5,73.5223828152669
CBC_1018,CBC_1018_MSI_AV_v3_Vset5_Aset3_2023-07-28_14h09.48.835.csv,2,39,2,1,z,0,1,3,aud,B,9,1,2B,1B,0,1,z,2.68801960000064,0,1,1,1,1B,2B,B21,3.98898404656427,0.544172362326998,0.472349082894108,0.484819657920097,0.484819657920097,0.484819657920097,0.5844423294669,0.5,0.484819657920097,0.470100201411519,0.5,0.544172362326998,0.471427311751457,0.5,0.5,0.455827637673002,0.597058944652141,0.5844423294669,0.4155576705331,0.5844423294669,0.5,0.131194172156924,0.616365682597137,0.4155576705331,0.0126166151852405,0.5,0.0303606841598069,0.845603071973768,1.22001931991815,2.31672386571762,0.5,73.5223828152669
CBC_1018,CBC_1018_MSI_AV_v3_Vset5_Aset3_2023-07-28_14h09.48.835.csv,2,40,3,1,b,1,0,0,aud,D,27,1,3D,1D,1,0,b,2.1859816000001,1,0,1,1,3D,1D,D31,4.00733318523247,0.544172362326998,0.472349082894108,0.484819657920097,0.484819657920097,0.484819657920097,0.597058944652141,0.5,0.484819657920097,0.470100201411519,0.5,0.544172362326998,0.471427311751457,0.5,0.5,0.455827637673002,0.597058944652141,0.597058944652141,0.402941055347859,0.597058944652141,0.5,0.216198460685883,0.633713735461628,0.402941055347859,0.0122335661164356,0.5,0.0303606841598069,0.845603071973768,1.22001931991815,2.31672386571762,0.5,73.5223828152669
CBC_1018,CBC_1018_MSI_AV_v3_Vset5_Aset3_2023-07-28_14h09.48.835.csv,2,41,0,1,b,1,0,2,aud,A,63,1,0A,1A,1,0,b,2.33374430000049,1,0,1,1,0A,1A,A01,2.41591377830105,0.544172362326998,0.472349082894108,0.484819657920097,0.484819657920097,0.484819657920097,0.597058944652141,0.5,0.484819657920097,0.470100201411519,0.5,0.544172362326998,0.471427311751457,0.5,0.5,0.455827637673002,0.609292510768576,0.571474083839424,0.428525916160576,0.544172362326998,0.472349082894108,0.178234031120606,0.599555552581335,0.455827637673002,0.0138392389387009,0.5,0.0303606841598069,0.845603071973768,1.22001931991815,2.31672386571762,0.5,73.5223828152669
CBC_1018,CBC_1018_MSI_AV_v3_Vset5_Aset3_2023-07-28_14h09.48.835.csv,2,42,1,0,z,0,1,2,aud,A,63,1,1A,0A,0,1,z,1.79568570000038,0,1,1,1,0A,1A,A10,3.3499040872746,0.558011601265699,0.472349082894108,0.484819657920097,0.484819657920097,0.484819657920097,0.597058944652141,0.5,0.484819657920097,0.470100201411519,0.5,0.544172362326998,0.471427311751457,0.5,0.5,0.455827637673002,0.609292510768576,0.585116386449248,0.414883613550752,0.558011601265699,0.472349082894108,0.303564804218039,0.61781701757387,0.441988398734301,0.0134190701762709,0.5,0.0303606841598069,0.845603071973768,1.22001931991815,2.31672386571762,0.5,73.5223828152669
CBC_1018,CBC_1018_MSI_AV_v3_Vset5_Aset3_2023-07-28_14h09.48.835.csv,2,43,0,2,z,0,1,1,aud,C,27,1,0C,2C,0,1,b,2.29324390000056,1,0,0,0,0C,2C,C02,2.96183072187831,0.57143067144197,0.472349082894108,0.484819657920097,0.484819657920097,0.484819657920097,0.597058944652141,0.5,0.484819657920097,0.470100201411519,0.5,0.544172362326998,0.471427311751457,0.5,0.5,0.455827637673002,0.609292510768576,0.426317104271411,0.573682895728589,0.470100201411519,0.544172362326998,0.122861948649216,0.397985562629421,-0.470100201411519,-0.0142725637385167,0.5,0.0303606841598069,0.845603071973768,1.22001931991815,2.31672386571762,0.5,73.5223828152669
CBC_1018,CBC_1018_MSI_AV_v3_Vset5_Aset3_2023-07-28_14h09.48.835.csv,2,44,1,0,b,1,0,3,aud,B,63,1,1B,0B,1,0,z,2.17258250000032,0,1,0,0,0B,1B,B10,2.46809953147162,0.57143067144197,0.472349082894108,0.484819657920097,0.484819657920097,0.484819657920097,0.597058944652141,0.5,0.484819657920097,0.455827637673002,0.5,0.544172362326998,0.471427311751457,0.5,0.5,0.455827637673002,0.609292510768576,0.388418325659774,0.611581674340226,0.484819657920097,0.597058944652141,0.120055679421142,0.347540929864979,-0.484819657920097,-0.0147194565085777,0.5,0.0303606841598069,0.845603071973768,1.22001931991815,2.31672386571762,0.5,73.5223828152669
CBC_1018,CBC_1018_MSI_AV_v3_Vset6_Aset2_2023-07-28_14h27.02.226.csv,3,1,1,0,z,0,1,2,aud,A,63,1,1A,0A,0,1,z,2.45937839999988,0,1,1,1,0A,1A,A10,2.77258872223978,0.5,0.5,0.5,0.5,0.5,0.5,0.5,0.5,0.5,0.5,0.5,0.5,0.5,0.5,0.5,0.5,0.5,0.5,0.5,0.5,0.145358731391659,0.501438141118552,0.5,0.157009012206902,0.5,0.314018024413803,0.943690593523539,0.0147159153241478,2.31024473843143,0.5,75.2597740512144
CBC_1018,CBC_1018_MSI_AV_v3_Vset6_Aset2_2023-07-28_14h27.02.226.csv,3,2,2,3,b,1,0,1,aud,C,63,1,2C,3C,1,0,z,2.03008929999942,0,1,0,0,3C,2C,C23,2.83321334405622,0.657009012206902,0.5,0.5,0.5,0.5,0.5,0.5,0.5,0.5,0.5,0.5,0.5,0.5,0.5,0.5,0.5,0.5,0.5,0.5,0.5,0.215340659639593,0.499949188325263,-0.5,-0.157009012206902,0.5,0.314018024413803,0.943690593523539,0.0147159153241478,2.31024473843143,0.5,75.2597740512144
CBC_1018,CBC_1018_MSI_AV_v3_Vset6_Aset2_2023-07-28_14h27.02.226.csv,3,3,2,0,z,0,1,2,aud,A,27,1,2A,0A,0,1,b,1.74894179999956,1,0,0,0,2A,0A,A20,2.89037175789616,0.657009012206902,0.5,0.5,0.5,0.5,0.5,0.5,0.5,0.5,0.5,0.5,0.342990987793098,0.5,0.5,0.5,0.5,0.342990987793098,0.657009012206902,0.5,0.657009012206902,0.276330490738735,0.498078852594974,-0.5,-0.157009012206902,0.5,0.314018024413803,0.943690593523539,0.0147159153241478,2.31024473843143,0.5,75.2597740512144
CBC_1018,CBC_1018_MSI_AV_v3_Vset6_Aset2_2023-07-28_14h27.02.226.csv,3,4,0,1,z,0,1,3,aud,B,63,1,0B,1B,0,1,z,2.07130739999957,0,1,1,1,1B,0B,B01,2.94443897916644,0.657009012206902,0.5,0.342990987793098,0.5,0.5,0.5,0.5,0.5,0.5,0.5,0.5,0.342990987793098,0.5,0.5,0.5,0.5,0.5,0.5,0.5,0.5,0.207367665405214,0.500012697149253,0.5,0.157009012206902,0.5,0.314018024413803,0.943690593523539,0.0147159153241478,2.31024473843143,0.5,75.2597740512144
CBC_1018,CBC_1018_MSI_AV_v3_Vset6_Aset2_2023-07-28_14h27.02.226.csv,3,5,1,0,b,1,0,3,aud,B,63,1,1B,0B,1,0,b,1.5900675999992,1,0,1,1,1B,0B,B10,2.99573227355399,0.657009012206902,0.5,0.342990987793098,0.5,0.5,0.657009012206902,0.5,0.5,0.5,0.5,0.5,0.342990987793098,0.5,0.5,0.5,0.5,0.657009012206902,0.342990987793098,0.657009012206902,0.5,0.317871641698487,0.503499944691794,0.342990987793098,0.107705352378528,0.5,0.314018024413803,0.943690593523539,0.0147159153241478,2.31024473843143,0.5,75.2597740512144
CBC_1018,CBC_1018_MSI_AV_v3_Vset6_Aset2_2023-07-28_14h27.02.226.csv,3,6,2,3,b,1,0,1,aud,C,63,1,2C,3C,1,0,z,1.48164019999967,0,1,0,0,3C,2C,C23,2.35137525716348,0.657009012206902,0.5,0.342990987793098,0.5,0.5,0.764714364585429,0.5,0.5,0.5,0.5,0.5,0.342990987793098,0.5,0.5,0.5,0.5,0.342990987793098,0.657009012206902,0.342990987793098,0.5,0.335450858812161,0.496401917244146,-0.342990987793098,-0.107705352378528,0.5,0.314018024413803,0.943690593523539,0.0147159153241478,2.31024473843143,0.5,75.2597740512144
CBC_1018,CBC_1018_MSI_AV_v3_Vset6_Aset2_2023-07-28_14h27.02.226.csv,3,7,1,3,z,0,1,0,aud,D,27,1,1D,3D,0,1,z,1.58286109999972,0,1,1,1,3D,1D,D13,3.09104245335832,0.657009012206902,0.5,0.342990987793098,0.5,0.5,0.764714364585429,0.5,0.5,0.5,0.5,0.5,0.235285635414571,0.5,0.5,0.5,0.5,0.5,0.5,0.5,0.5,0.317232711958256,0.499863266359821,0.5,0.157009012206902,0.5,0.314018024413803,0.943690593523539,0.0147159153241478,2.31024473843143,0.5,75.2597740512144
CBC_1018,CBC_1018_MSI_AV_v3_Vset6_Aset2_2023-07-28_14h27.02.226.csv,3,8,2,1,b,1,0,1,aud,C,9,1,2C,1C,1,0,z,1.40507919999891,0,1,0,0,1C,2C,C21,3.13549421592915,0.657009012206902,0.5,0.342990987793098,0.5,0.5,0.764714364585429,0.5,0.5,0.5,0.5,0.5,0.235285635414571,0.5,0.5,0.5,0.657009012206902,0.5,0.5,0.5,0.5,0.345460933100572,0.498791743346154,-0.5,-0.157009012206902,0.5,0.314018024413803,0.943690593523539,0.0147159153241478,2.31024473843143,0.5,75.2597740512144
CBC_1018,CBC_1018_MSI_AV_v3_Vset6_Aset2_2023-07-28_14h27.02.226.csv,3,9,1,3,b,1,0,3,aud,B,27,1,1B,3B,1,0,z,3.31772519999959,0,1,0,0,3B,1B,B13,3.17805383034795,0.657009012206902,0.5,0.342990987793098,0.5,0.5,0.764714364585429,0.5,0.5,0.5,0.342990987793098,0.5,0.235285635414571,0.5,0.5,0.5,0.657009012206902,0.235285635414571,0.764714364585429,0.5,0.764714364585429,0.0649592705958542,0.495542522403542,-0.5,-0.157009012206902,0.5,0.314018024413803,0.943690593523539,0.0147159153241478,2.31024473843143,0.5,75.2597740512144
CBC_1018,CBC_1018_MSI_AV_v3_Vset6_Aset2_2023-07-28_14h27.02.226.csv,3,10,2,3,z,0,1,0,aud,D,63,1,2D,3D,0,1,b,2.8524625,1,0,0,0,2D,3D,D23,3.2188758248682,0.657009012206902,0.5,0.342990987793098,0.5,0.5,0.764714364585429,0.5,0.342990987793098,0.5,0.342990987793098,0.5,0.235285635414571,0.5,0.5,0.5,0.657009012206902,0.342990987793098,0.657009012206902,0.5,0.657009012206902,0.100281562730153,0.497536631250458,-0.5,-0.157009012206902,0.5,0.314018024413803,0.943690593523539,0.0147159153241478,2.31024473843143,0.5,75.2597740512144
CBC_1018,CBC_1018_MSI_AV_v3_Vset6_Aset2_2023-07-28_14h27.02.226.csv,3,11,0,1,z,0,1,3,aud,B,63,1,0B,1B,0,1,b,1.5889174999993,1,0,0,0,0B,1B,B01,2.56494935746154,0.657009012206902,0.5,0.342990987793098,0.5,0.5,0.764714364585429,0.5,0.342990987793098,0.5,0.342990987793098,0.5,0.235285635414571,0.5,0.5,0.342990987793098,0.657009012206902,0.235285635414571,0.764714364585429,0.5,0.764714364585429,0.313194403961619,0.495669991466032,-0.5,-0.157009012206902,0.5,0.314018024413803,0.943690593523539,0.0147159153241478,2.31024473843143,0.5,75.2597740512144
CBC_1018,CBC_1018_MSI_AV_v3_Vset6_Aset2_2023-07-28_14h27.02.226.csv,3,12,2,0,b,1,0,1,aud,C,27,1,2C,0C,NaN,NaN,[],NaN,NaN,NaN,NaN,NaN,,,C20,3.29583686600433,0.657009012206902,0.5,0.342990987793098,0.5,0.342990987793098,0.764714364585429,0.5,0.342990987793098,0.5,0.342990987793098,0.5,0.235285635414571,0.5,0.5,0.342990987793098,0.657009012206902,0,0,0,0,NaN,0,0,0,0.5,0.314018024413803,0.943690593523539,0.0147159153241478,2.31024473843143,0.5,75.2597740512144
CBC_1018,CBC_1018_MSI_AV_v3_Vset6_Aset2_2023-07-28_14h27.02.226.csv,3,13,2,3,z,0,1,0,aud,D,63,0,2D,3D,1,0,z,2.10100929999953,0,1,1,0,3D,2D,D23,2.63905732961526,0.657009012206902,0.5,0.342990987793098,0.5,0.342990987793098,0.764714364585429,0.5,0.342990987793098,0.5,0.342990987793098,0.5,0.235285635414571,0.5,0.5,0.342990987793098,0.657009012206902,0.78583281650801,0.214167183491991,0.657009012206902,0.342990987793098,0.203723672276949,0.504828896981938,-0.657009012206902,-0.206312672035276,0.5,0.314018024413803,0.943690593523539,0.0147159153241478,2.31024473843143,0.5,75.2597740512144
CBC_1018,CBC_1018_MSI_AV_v3_Vset6_Aset2_2023-07-28_14h27.02.226.csv,3,14,0,1,b,1,0,2,aud,A,63,1,0A,1A,1,0,z,2.20678520000001,0,1,0,0,1A,0A,A01,3.36729582998647,0.657009012206902,0.5,0.342990987793098,0.5,0.342990987793098,0.764714364585429,0.5,0.342990987793098,0.5,0.342990987793098,0.5,0.235285635414571,0.5,0.5,0.342990987793098,0.450696340171626,0.342990987793098,0.657009012206902,0.5,0.657009012206902,0.181793015724858,0.496616035025632,-0.5,-0.157009012206902,0.5,0.314018024413803,0.943690593523539,0.0147159153241478,2.31024473843143,0.5,75.2597740512144
CBC_1018,CBC_1018_MSI_AV_v3_Vset6_Aset2_2023-07-28_14h27.02.226.csv,3,15,3,2,z,0,1,1,aud,C,63,1,3C,2C,0,1,z,3.88512379999975,0,1,1,1,2C,3C,C32,3.40119738166216,0.657009012206902,0.342990987793098,0.342990987793098,0.5,0.342990987793098,0.764714364585429,0.5,0.342990987793098,0.5,0.342990987793098,0.5,0.235285635414571,0.5,0.5,0.342990987793098,0.450696340171626,0.764714364585429,0.235285635414571,0.5,0.235285635414571,0.039153270642593,0.504726165770847,0.5,0.157009012206902,0.5,0.314018024413803,0.943690593523539,0.0147159153241478,2.31024473843143,0.5,75.2597740512144
CBC_1018,CBC_1018_MSI_AV_v3_Vset6_Aset2_2023-07-28_14h27.02.226.csv,3,16,2,0,z,0,1,2,aud,A,27,1,2A,0A,0,1,z,2.73350879999998,0,1,1,1,0A,2A,A20,2.7408400239252,0.657009012206902,0.342990987793098,0.342990987793098,0.5,0.342990987793098,0.764714364585429,0.5,0.342990987793098,0.5,0.342990987793098,0.657009012206902,0.235285635414571,0.5,0.5,0.342990987793098,0.450696340171626,0.78583281650801,0.214167183491991,0.657009012206902,0.342990987793098,0.113666848854247,0.505218522672001,0.342990987793098,0.107705352378528,0.5,0.314018024413803,0.943690593523539,0.0147159153241478,2.31024473843143,0.5,75.2597740512144
CBC_1018,CBC_1018_MSI_AV_v3_Vset6_Aset2_2023-07-28_14h27.02.226.csv,3,17,3,2,b,1,0,0,aud,D,63,1,3D,2D,1,0,b,1.86541409999973,1,0,1,1,3D,2D,D32,3.46573590279973,0.764714364585429,0.342990987793098,0.342990987793098,0.5,0.342990987793098,0.764714364585429,0.5,0.342990987793098,0.5,0.342990987793098,0.657009012206902,0.235285635414571,0.5,0.5,0.342990987793098,0.450696340171626,0.61114695971295,0.38885304028705,0.450696340171626,0.342990987793098,0.251531424564293,0.5026562382622,0.549303659828374,0.172491250062578,0.5,0.314018024413803,0.943690593523539,0.0147159153241478,2.31024473843143,0.5,75.2597740512144
CBC_1018,CBC_1018_MSI_AV_v3_Vset6_Aset2_2023-07-28_14h27.02.226.csv,3,18,2,3,z,0,1,0,aud,D,63,1,2D,3D,0,1,z,1.52787109999917,0,1,1,1,3D,2D,D23,2.39789527279837,0.764714364585429,0.342990987793098,0.342990987793098,0.5,0.342990987793098,0.764714364585429,0.5,0.342990987793098,0.5,0.342990987793098,0.657009012206902,0.235285635414571,0.5,0.5,0.342990987793098,0.623187590234204,0.760075534302402,0.239924465697598,0.623187590234204,0.342990987793098,0.331686904642177,0.503609339500068,0.376812409765796,0.11832588848926,0.5,0.314018024413803,0.943690593523539,0.0147159153241478,2.31024473843143,0.5,75.2597740512144
CBC_1018,CBC_1018_MSI_AV_v3_Vset6_Aset2_2023-07-28_14h27.02.226.csv,3,19,1,3,b,1,0,3,aud,B,27,1,1B,3B,1,0,z,1.5814251999991,0,1,0,0,3B,1B,B13,2.83321334405622,0.764714364585429,0.342990987793098,0.342990987793098,0.5,0.342990987793098,0.764714364585429,0.5,0.342990987793098,0.5,0.342990987793098,0.657009012206902,0.235285635414571,0.5,0.5,0.342990987793098,0.741513478723464,0.138393725502449,0.861606274497551,0.342990987793098,0.764714364585429,0.313504122543256,0.493454248993793,-0.342990987793098,-0.107705352378528,0.5,0.314018024413803,0.943690593523539,0.0147159153241478,2.31024473843143,0.5,75.2597740512144
CBC_1018,CBC_1018_MSI_AV_v3_Vset6_Aset2_2023-07-28_14h27.02.226.csv,3,20,3,0,b,1,0,0,aud,D,9,1,3D,0D,1,0,z,1.45310579999932,0,1,0,0,0D,3D,D30,3.55534806148941,0.764714364585429,0.342990987793098,0.342990987793098,0.5,0.342990987793098,0.764714364585429,0.5,0.235285635414571,0.5,0.342990987793098,0.657009012206902,0.235285635414571,0.5,0.5,0.342990987793098,0.741513478723464,0.258486521276536,0.741513478723464,0.5,0.741513478723464,0.339763116069908,0.496613855368921,-0.5,-0.157009012206902,0.5,0.314018024413803,0.943690593523539,0.0147159153241478,2.31024473843143,0.5,75.2597740512144
CBC_1018,CBC_1018_MSI_AV_v3_Vset6_Aset2_2023-07-28_14h27.02.226.csv,3,21,0,1,z,0,1,3,aud,B,63,1,0B,1B,0,1,z,1.06932949999918,0,1,1,1,1B,0B,B01,2.484906649788,0.764714364585429,0.342990987793098,0.342990987793098,0.5,0.342990987793098,0.764714364585429,0.5,0.235285635414571,0.5,0.342990987793098,0.657009012206902,0.235285635414571,0.342990987793098,0.5,0.342990987793098,0.741513478723464,0.861606274497551,0.138393725502449,0.764714364585429,0.342990987793098,0.0517357099177132,0.505852863674484,0.235285635414571,0.0738839304058299,0.5,0.314018024413803,0.943690593523539,0.0147159153241478,2.31024473843143,0.5,75.2597740512144
CBC_1018,CBC_1018_MSI_AV_v3_Vset6_Aset2_2023-07-28_14h27.02.226.csv,3,22,0,1,b,1,0,2,aud,A,63,1,0A,1A,1,0,b,1.4950200000003,1,0,1,1,0A,1A,A01,2.91777073208428,0.764714364585429,0.342990987793098,0.342990987793098,0.5,0.342990987793098,0.838598294991259,0.5,0.235285635414571,0.5,0.342990987793098,0.657009012206902,0.235285635414571,0.342990987793098,0.5,0.342990987793098,0.741513478723464,0.861606274497551,0.138393725502449,0.764714364585429,0.342990987793098,0.340178258934039,0.506809778930528,0.235285635414571,0.0738839304058299,0.5,0.314018024413803,0.943690593523539,0.0147159153241478,2.31024473843143,0.5,75.2597740512144
CBC_1018,CBC_1018_MSI_AV_v3_Vset6_Aset2_2023-07-28_14h27.02.226.csv,3,23,3,2,z,0,1,1,aud,C,63,1,3C,2C,0,1,b,2.56937420000031,1,0,0,0,3C,2C,C32,2.94443897916644,0.838598294991259,0.342990987793098,0.342990987793098,0.5,0.342990987793098,0.838598294991259,0.5,0.235285635414571,0.5,0.342990987793098,0.657009012206902,0.235285635414571,0.342990987793098,0.5,0.342990987793098,0.741513478723464,0.138393725502449,0.861606274497551,0.235285635414571,0.657009012206902,0.129334018413895,0.493917750016962,-0.235285635414571,-0.0738839304058299,0.5,0.314018024413803,0.943690593523539,0.0147159153241478,2.31024473843143,0.5,75.2597740512144
CBC_1018,CBC_1018_MSI_AV_v3_Vset6_Aset2_2023-07-28_14h27.02.226.csv,3,24,2,0,z,0,1,2,aud,A,27,1,2A,0A,0,1,z,1.59247989999949,0,1,1,1,0A,2A,A20,2.56494935746154,0.838598294991259,0.342990987793098,0.342990987793098,0.5,0.342990987793098,0.838598294991259,0.5,0.235285635414571,0.5,0.342990987793098,0.657009012206902,0.161401705008741,0.342990987793098,0.5,0.342990987793098,0.741513478723464,0.908697081792802,0.0913029182071977,0.838598294991259,0.342990987793098,0.319242819272389,0.506553871230508,0.161401705008741,0.0506830445438643,0.5,0.314018024413803,0.943690593523539,0.0147159153241478,2.31024473843143,0.5,75.2597740512144
CBC_1018,CBC_1018_MSI_AV_v3_Vset6_Aset2_2023-07-28_14h27.02.226.csv,3,25,0,1,z,0,1,3,aud,B,63,1,0B,1B,0,1,z,1.60235469999952,0,1,1,1,1B,0B,B01,2.30258509299405,0.889281339535123,0.342990987793098,0.342990987793098,0.5,0.342990987793098,0.838598294991259,0.5,0.235285635414571,0.5,0.342990987793098,0.657009012206902,0.161401705008741,0.342990987793098,0.5,0.342990987793098,0.741513478723464,0.908697081792802,0.0913029182071977,0.838598294991259,0.342990987793098,0.316664256129924,0.506170590993416,0.161401705008741,0.0506830445438643,0.5,0.314018024413803,0.943690593523539,0.0147159153241478,2.31024473843143,0.5,75.2597740512144
CBC_1018,CBC_1018_MSI_AV_v3_Vset6_Aset2_2023-07-28_14h27.02.226.csv,3,26,3,2,b,1,0,0,aud,D,63,1,3D,2D,1,0,b,1.87663069999962,1,0,1,1,3D,2D,D32,3.02042488614436,0.889281339535123,0.342990987793098,0.342990987793098,0.5,0.342990987793098,0.889281339535123,0.5,0.235285635414571,0.5,0.342990987793098,0.657009012206902,0.161401705008741,0.342990987793098,0.5,0.342990987793098,0.741513478723464,0.84603603242504,0.15396396757496,0.741513478723464,0.342990987793098,0.250946551832214,0.506571584005557,0.258486521276536,0.0811694267488545,0.5,0.314018024413803,0.943690593523539,0.0147159153241478,2.31024473843143,0.5,75.2597740512144
CBC_1018,CBC_1018_MSI_AV_v3_Vset6_Aset2_2023-07-28_14h27.02.226.csv,3,27,2,1,z,0,1,3,aud,B,9,1,2B,1B,0,1,z,1.49909759999991,0,1,1,1,1B,2B,B21,3.73766961828337,0.889281339535123,0.342990987793098,0.342990987793098,0.5,0.342990987793098,0.889281339535123,0.5,0.235285635414571,0.5,0.342990987793098,0.657009012206902,0.161401705008741,0.342990987793098,0.5,0.342990987793098,0.822682905472318,0.889281339535123,0.110718660464877,0.889281339535123,0.5,0.338832113822138,0.505914262312537,0.110718660464877,0.0347676550249232,0.5,0.314018024413803,0.943690593523539,0.0147159153241478,2.31024473843143,0.5,75.2597740512144
CBC_1018,CBC_1018_MSI_AV_v3_Vset6_Aset2_2023-07-28_14h27.02.226.csv,3,28,3,1,b,1,0,0,aud,D,27,1,3D,1D,1,0,z,3.42659429999912,0,1,0,0,1D,3D,D31,3.76120011569356,0.889281339535123,0.342990987793098,0.342990987793098,0.5,0.342990987793098,0.924048994560047,0.5,0.235285635414571,0.5,0.342990987793098,0.657009012206902,0.161401705008741,0.342990987793098,0.5,0.342990987793098,0.822682905472318,0.177317094527682,0.822682905472318,0.5,0.822682905472318,0.0584840123900299,0.493414765977322,-0.5,-0.157009012206902,0.5,0.314018024413803,0.943690593523539,0.0147159153241478,2.31024473843143,0.5,75.2597740512144
CBC_1018,CBC_1018_MSI_AV_v3_Vset6_Aset2_2023-07-28_14h27.02.226.csv,3,29,0,1,b,1,0,2,aud,A,63,1,0A,1A,1,0,z,2.64519009999913,0,1,0,0,1A,0A,A01,2.68557734525015,0.889281339535123,0.342990987793098,0.342990987793098,0.5,0.342990987793098,0.924048994560047,0.5,0.235285635414571,0.5,0.342990987793098,0.657009012206902,0.161401705008741,0.342990987793098,0.342990987793098,0.342990987793098,0.822682905472318,0.0610301811052242,0.938969818894776,0.342990987793098,0.889281339535123,0.120307899432712,0.492812544030771,-0.342990987793098,-0.107705352378528,0.5,0.314018024413803,0.943690593523539,0.0147159153241478,2.31024473843143,0.5,75.2597740512144
CBC_1018,CBC_1018_MSI_AV_v3_Vset6_Aset2_2023-07-28_14h27.02.226.csv,3,30,1,0,z,0,1,2,aud,A,63,1,1A,0A,0,1,z,3.7638608999996,0,1,1,1,0A,1A,A10,3.11351530921037,0.889281339535123,0.235285635414571,0.342990987793098,0.5,0.342990987793098,0.924048994560047,0.5,0.235285635414571,0.5,0.342990987793098,0.657009012206902,0.161401705008741,0.342990987793098,0.342990987793098,0.342990987793098,0.822682905472318,0.963106314670762,0.0368936853292379,0.889281339535123,0.235285635414571,0.0440344442072216,0.50747902051875,0.110718660464877,0.0347676550249232,0.5,0.314018024413803,0.943690593523539,0.0147159153241478,2.31024473843143,0.5,75.2597740512144
CBC_1018,CBC_1018_MSI_AV_v3_Vset6_Aset2_2023-07-28_14h27.02.226.csv,3,31,2,0,b,1,0,1,aud,C,27,1,2C,0C,1,0,z,2.25814069999979,0,1,0,0,0C,2C,C20,3.13549421592915,0.924048994560047,0.235285635414571,0.342990987793098,0.5,0.342990987793098,0.924048994560047,0.5,0.235285635414571,0.5,0.342990987793098,0.657009012206902,0.161401705008741,0.342990987793098,0.342990987793098,0.342990987793098,0.822682905472318,0.342990987793098,0.657009012206902,0.5,0.657009012206902,0.173917760131752,0.498165465714618,-0.5,-0.157009012206902,0.5,0.314018024413803,0.943690593523539,0.0147159153241478,2.31024473843143,0.5,75.2597740512144
CBC_1018,CBC_1018_MSI_AV_v3_Vset6_Aset2_2023-07-28_14h27.02.226.csv,3,32,0,1,b,1,0,2,aud,A,63,1,0A,1A,1,0,z,2.29564959999971,0,1,0,0,1A,0A,A01,2.46385324059017,0.924048994560047,0.235285635414571,0.342990987793098,0.5,0.342990987793098,0.924048994560047,0.5,0.235285635414571,0.342990987793098,0.342990987793098,0.657009012206902,0.161401705008741,0.342990987793098,0.342990987793098,0.342990987793098,0.822682905472318,0.0246654089892201,0.97533459101078,0.235285635414571,0.924048994560047,0.165608048013108,0.491082903511348,-0.235285635414571,-0.0738839304058299,0.5,0.314018024413803,0.943690593523539,0.0147159153241478,2.31024473843143,0.5,75.2597740512144
CBC_1018,CBC_1018_MSI_AV_v3_Vset6_Aset2_2023-07-28_14h27.02.226.csv,3,33,0,1,z,0,1,3,aud,B,63,1,0B,1B,0,1,z,1.44552339999973,0,1,1,1,1B,0B,B01,2.26176309847379,0.924048994560047,0.161401705008741,0.342990987793098,0.5,0.342990987793098,0.924048994560047,0.5,0.235285635414571,0.342990987793098,0.342990987793098,0.657009012206902,0.161401705008741,0.342990987793098,0.342990987793098,0.342990987793098,0.822682905472318,0.958856291631028,0.0411437083689724,0.924048994560047,0.342990987793098,0.348145935016578,0.507456838187648,0.0759510054399534,0.0238499846804962,0.5,0.314018024413803,0.943690593523539,0.0147159153241478,2.31024473843143,0.5,75.2597740512144
CBC_1018,CBC_1018_MSI_AV_v3_Vset6_Aset2_2023-07-28_14h27.02.226.csv,3,34,2,3,z,0,1,0,aud,D,63,1,2D,3D,0,1,z,2.81664050000018,0,1,1,1,3D,2D,D23,2.50552593699074,0.924048994560047,0.161401705008741,0.342990987793098,0.5,0.342990987793098,0.947898979240543,0.5,0.235285635414571,0.342990987793098,0.342990987793098,0.657009012206902,0.161401705008741,0.342990987793098,0.342990987793098,0.342990987793098,0.822682905472318,0.898860288773192,0.101139711226808,0.822682905472318,0.342990987793098,0.10548440992959,0.506314047734739,0.177317094527682,0.0556807637183783,0.5,0.314018024413803,0.943690593523539,0.0147159153241478,2.31024473843143,0.5,75.2597740512144
CBC_1018,CBC_1018_MSI_AV_v3_Vset6_Aset2_2023-07-28_14h27.02.226.csv,3,35,1,3,b,1,0,3,aud,B,27,1,1B,3B,1,0,z,1.64884989999973,0,1,0,0,3B,1B,B13,2.81341071676004,0.924048994560047,0.161401705008741,0.342990987793098,0.5,0.342990987793098,0.947898979240543,0.5,0.235285635414571,0.342990987793098,0.342990987793098,0.657009012206902,0.161401705008741,0.342990987793098,0.342990987793098,0.342990987793098,0.878363669190696,0.0166301900708938,0.983369809929106,0.235285635414571,0.947898979240543,0.296869494130609,0.491997584823092,-0.235285635414571,-0.0738839304058299,0.5,0.314018024413803,0.943690593523539,0.0147159153241478,2.31024473843143,0.5,75.2597740512144
CBC_1018,CBC_1018_MSI_AV_v3_Vset6_Aset2_2023-07-28_14h27.02.226.csv,3,36,2,3,b,1,0,1,aud,C,63,1,2C,3C,1,0,b,4.10019509999984,1,0,1,1,2C,3C,C23,2.83321334405622,0.924048994560047,0.161401705008741,0.342990987793098,0.5,0.342990987793098,0.947898979240543,0.5,0.161401705008741,0.342990987793098,0.342990987793098,0.657009012206902,0.161401705008741,0.342990987793098,0.342990987793098,0.342990987793098,0.878363669190696,0.908697081792802,0.0913029182071976,0.657009012206902,0.161401705008741,0.0322563978966704,0.507347937383373,0.342990987793098,0.107705352378528,0.5,0.314018024413803,0.943690593523539,0.0147159153241478,2.31024473843143,0.5,75.2597740512144
CBC_1018,CBC_1018_MSI_AV_v3_Vset6_Aset2_2023-07-28_14h27.02.226.csv,3,37,0,2,z,0,1,1,aud,C,27,1,0C,2C,0,1,b,2.68604359999972,1,0,0,0,0C,2C,C02,3.95124371858143,0.924048994560047,0.161401705008741,0.342990987793098,0.5,0.342990987793098,0.947898979240543,0.5,0.161401705008741,0.342990987793098,0.342990987793098,0.764714364585429,0.161401705008741,0.342990987793098,0.342990987793098,0.342990987793098,0.878363669190696,0.138393725502449,0.861606274497551,0.342990987793098,0.764714364585429,0.115959035372133,0.493282086780832,-0.342990987793098,-0.107705352378528,0.5,0.314018024413803,0.943690593523539,0.0147159153241478,2.31024473843143,0.5,75.2597740512144
CBC_1018,CBC_1018_MSI_AV_v3_Vset6_Aset2_2023-07-28_14h27.02.226.csv,3,38,0,1,z,0,1,3,aud,B,63,1,0B,1B,0,1,z,4.20133159999932,0,1,1,1,1B,0B,B01,2.17853244432407,0.924048994560047,0.161401705008741,0.342990987793098,0.5,0.342990987793098,0.947898979240543,0.5,0.161401705008741,0.235285635414571,0.342990987793098,0.764714364585429,0.161401705008741,0.342990987793098,0.342990987793098,0.342990987793098,0.878363669190696,0.97210610079173,0.0278938992082701,0.947898979240543,0.342990987793098,0.0293640876189244,0.507127686589304,0.0521010207594572,0.0163606596088273,0.5,0.314018024413803,0.943690593523539,0.0147159153241478,2.31024473843143,0.5,75.2597740512144
CBC_1018,CBC_1018_MSI_AV_v3_Vset6_Aset2_2023-07-28_14h27.02.226.csv,3,39,0,3,b,1,0,2,aud,A,9,1,0A,3A,1,0,z,2.78232369999932,0,1,0,0,3A,0A,A03,3.98898404656427,0.924048994560047,0.161401705008741,0.342990987793098,0.5,0.342990987793098,0.96425963884937,0.5,0.161401705008741,0.235285635414571,0.342990987793098,0.764714364585429,0.161401705008741,0.342990987793098,0.342990987793098,0.342990987793098,0.878363669190696,0.0759510054399534,0.924048994560047,0.5,0.924048994560047,0.105827422570978,0.492104018302394,-0.5,-0.157009012206902,0.5,0.314018024413803,0.943690593523539,0.0147159153241478,2.31024473843143,0.5,75.2597740512144
CBC_1018,CBC_1018_MSI_AV_v3_Vset6_Aset2_2023-07-28_14h27.02.226.csv,3,40,2,3,b,1,0,1,aud,C,63,0,2C,3C,0,1,b,3.39578929999971,1,0,1,0,2C,3C,C23,2.62103882411258,0.924048994560047,0.161401705008741,0.342990987793098,0.342990987793098,0.342990987793098,0.96425963884937,0.5,0.161401705008741,0.235285635414571,0.342990987793098,0.764714364585429,0.161401705008741,0.342990987793098,0.342990987793098,0.342990987793098,0.878363669190696,0.944093133968757,0.0559068660312432,0.764714364585429,0.161401705008741,0.061846066587326,0.507133110350496,-0.764714364585429,-0.240134094007973,0.5,0.314018024413803,0.943690593523539,0.0147159153241478,2.31024473843143,0.5,75.2597740512144
CBC_1018,CBC_1018_MSI_AV_v3_Vset6_Aset2_2023-07-28_14h27.02.226.csv,3,41,0,1,b,1,0,2,aud,A,63,1,0A,1A,1,0,z,1.74355089999972,0,1,0,0,1A,0A,A01,2.41591377830105,0.924048994560047,0.161401705008741,0.342990987793098,0.342990987793098,0.342990987793098,0.96425963884937,0.5,0.161401705008741,0.235285635414571,0.342990987793098,0.524580270577456,0.161401705008741,0.342990987793098,0.342990987793098,0.342990987793098,0.878363669190696,0.0155731378379502,0.98442686216205,0.161401705008741,0.924048994560047,0.274088502560493,0.49171235617166,-0.161401705008741,-0.0506830445438642,0.5,0.314018024413803,0.943690593523539,0.0147159153241478,2.31024473843143,0.5,75.2597740512144
CBC_1018,CBC_1018_MSI_AV_v3_Vset6_Aset2_2023-07-28_14h27.02.226.csv,3,42,2,3,z,0,1,0,aud,D,63,1,2D,3D,NaN,NaN,[],NaN,NaN,NaN,NaN,NaN,,,D23,2.43361335540045,0.924048994560047,0.110718660464877,0.342990987793098,0.342990987793098,0.342990987793098,0.96425963884937,0.5,0.161401705008741,0.235285635414571,0.342990987793098,0.524580270577456,0.161401705008741,0.342990987793098,0.342990987793098,0.342990987793098,0.878363669190696,0,0,0,0,NaN,0,0,0,0.5,0.314018024413803,0.943690593523539,0.0147159153241478,2.31024473843143,0.5,75.2597740512144
CBC_1018,CBC_1018_MSI_AV_v3_Vset6_Aset2_2023-07-28_14h27.02.226.csv,3,43,3,2,z,0,1,1,aud,C,63,1,3C,2C,0,1,b,1.23524120000002,1,0,0,0,3C,2C,C32,2.96183072187831,0.924048994560047,0.110718660464877,0.342990987793098,0.342990987793098,0.342990987793098,0.96425963884937,0.5,0.161401705008741,0.235285635414571,0.342990987793098,0.524580270577456,0.161401705008741,0.342990987793098,0.342990987793098,0.342990987793098,0.878363669190696,0.148522592126262,0.851477407873738,0.161401705008741,0.524580270577456,0.293554877771809,0.494269550249523,-0.161401705008741,-0.0506830445438642,0.5,0.314018024413803,0.943690593523539,0.0147159153241478,2.31024473843143,0.5,75.2597740512144
CBC_1018,CBC_1018_MSI_AV_v3_Vset6_Aset2_2023-07-28_14h27.02.226.csv,3,44,3,1,b,1,0,0,aud,D,27,1,3D,1D,1,0,z,1.67497590000039,0,1,0,0,1D,3D,D31,3.38439026334577,0.924048994560047,0.110718660464877,0.342990987793098,0.342990987793098,0.342990987793098,0.96425963884937,0.5,0.161401705008741,0.235285635414571,0.342990987793098,0.524580270577456,0.110718660464877,0.342990987793098,0.342990987793098,0.342990987793098,0.878363669190696,0.0674196638611269,0.932580336138873,0.342990987793098,0.878363669190696,0.29102984197193,0.492685023791923,-0.342990987793098,-0.107705352378528,0.5,0.314018024413803,0.943690593523539,0.0147159153241478,2.31024473843143,0.5,75.2597740512144
CBC_1018,CBC_1018_MSI_TV_v3_Vset1_Tset3_2023-07-28_15h11.50.359.csv,4,1,1,0,b,1,0,3,tac,B,63,1,1B,0B,1,0,z,2.08910120000019,0,1,0,0,0B,1B,B10,2.77258872223978,0.5,0.5,0.5,0.5,0.5,0.5,0.5,0.5,0.5,0.5,0.5,0.5,0.5,0.5,0.5,0.5,0.5,0.5,0.5,0.5,0.136000611772264,0.500365659230448,-0.5,-0.0115528949774329,0.5,0.0231057899548658,0.371881974297276,0.95559128576094,3.00322890223638,0.5,96.6004543025868
CBC_1018,CBC_1018_MSI_TV_v3_Vset1_Tset3_2023-07-28_15h11.50.359.csv,4,2,3,2,b,1,0,0,tac,D,63,1,3D,2D,1,0,b,2.94272480000018,1,0,1,1,3D,2D,D32,2.83321334405622,0.5,0.5,0.5,0.5,0.488447105022567,0.5,0.5,0.5,0.5,0.5,0.5,0.5,0.5,0.5,0.5,0.5,0.5,0.5,0.5,0.5,0.085343205259436,0.500101741531569,0.5,0.0115528949774329,0.5,0.0231057899548658,0.371881974297276,0.95559128576094,3.00322890223638,0.5,96.6004543025868
CBC_1018,CBC_1018_MSI_TV_v3_Vset1_Tset3_2023-07-28_15h11.50.359.csv,4,3,3,1,z,0,1,3,tac,B,27,1,3B,1B,0,1,b,2.87385719999929,1,0,0,0,3B,1B,B31,2.89037175789616,0.5,0.5,0.5,0.5,0.488447105022567,0.5,0.5,0.5,0.5,0.5,0.5,0.5,0.5,0.5,0.5,0.511552894977433,0.5,0.5,0.5,0.5,0.088589394353586,0.499934369057575,-0.5,-0.0115528949774329,0.5,0.0231057899548658,0.371881974297276,0.95559128576094,3.00322890223638,0.5,96.6004543025868
CBC_1018,CBC_1018_MSI_TV_v3_Vset1_Tset3_2023-07-28_15h11.50.359.csv,4,4,2,3,b,1,0,1,tac,C,63,1,2C,3C,1,0,z,2.42280479999954,0,1,0,0,3C,2C,C23,2.94443897916644,0.5,0.5,0.5,0.5,0.488447105022567,0.5,0.5,0.488447105022567,0.5,0.5,0.5,0.5,0.5,0.5,0.5,0.511552894977433,0.5,0.5,0.5,0.5,0.113355378940925,0.499962539149605,-0.5,-0.0115528949774329,0.5,0.0231057899548658,0.371881974297276,0.95559128576094,3.00322890223638,0.5,96.6004543025868
CBC_1018,CBC_1018_MSI_TV_v3_Vset1_Tset3_2023-07-28_15h11.50.359.csv,4,5,0,2,z,0,1,1,tac,C,27,1,0C,2C,0,1,b,2.06181769999966,1,0,0,0,0C,2C,C02,2.99573227355399,0.5,0.5,0.5,0.5,0.488447105022567,0.5,0.5,0.488447105022567,0.5,0.5,0.5,0.488447105022567,0.5,0.5,0.5,0.511552894977433,0.5,0.5,0.5,0.5,0.137867252239746,0.499821383493406,-0.5,-0.0115528949774329,0.5,0.0231057899548658,0.371881974297276,0.95559128576094,3.00322890223638,0.5,96.6004543025868
CBC_1018,CBC_1018_MSI_TV_v3_Vset1_Tset3_2023-07-28_15h11.50.359.csv,4,6,0,3,b,1,0,2,tac,A,9,1,0A,3A,1,0,z,3.43762059999972,0,1,0,0,3A,0A,A03,3.04452243772342,0.5,0.5,0.5,0.5,0.488447105022567,0.5,0.5,0.488447105022567,0.488447105022567,0.5,0.5,0.488447105022567,0.5,0.5,0.5,0.511552894977433,0.5,0.5,0.5,0.5,0.0652599838293598,0.501322884659963,-0.5,-0.0115528949774329,0.5,0.0231057899548658,0.371881974297276,0.95559128576094,3.00322890223638,0.5,96.6004543025868
CBC_1018,CBC_1018_MSI_TV_v3_Vset1_Tset3_2023-07-28_15h11.50.359.csv,4,7,2,3,b,1,0,1,tac,C,63,1,2C,3C,1,0,b,1.68314349999946,1,0,1,1,2C,3C,C23,2.39789527279837,0.5,0.5,0.5,0.488447105022567,0.488447105022567,0.5,0.5,0.488447105022567,0.488447105022567,0.5,0.5,0.488447105022567,0.5,0.5,0.5,0.511552894977433,0.511552894977433,0.488447105022567,0.5,0.488447105022567,0.173993317238718,0.516674730393566,0.5,0.0115528949774329,0.5,0.0231057899548658,0.371881974297276,0.95559128576094,3.00322890223638,0.5,96.6004543025868
CBC_1018,CBC_1018_MSI_TV_v3_Vset1_Tset3_2023-07-28_15h11.50.359.csv,4,8,1,0,z,0,1,2,tac,A,63,1,1A,0A,0,1,b,2.5790135999996,1,0,0,0,1A,0A,A10,3.13549421592915,0.5,0.5,0.5,0.488447105022567,0.488447105022567,0.5,0.5,0.488447105022567,0.488447105022567,0.5,0.511552894977433,0.488447105022567,0.5,0.5,0.5,0.511552894977433,0.5,0.5,0.5,0.5,0.103983410784181,0.499454253544891,-0.5,-0.0115528949774329,0.5,0.0231057899548658,0.371881974297276,0.95559128576094,3.00322890223638,0.5,96.6004543025868
CBC_1018,CBC_1018_MSI_TV_v3_Vset1_Tset3_2023-07-28_15h11.50.359.csv,4,9,2,3,z,0,1,0,tac,D,63,1,2D,3D,NaN,NaN,None,NaN,NaN,NaN,NaN,NaN,,,D23,3.17805383034795,0.5,0.488447105022567,0.5,0.488447105022567,0.488447105022567,0.5,0.5,0.488447105022567,0.488447105022567,0.5,0.511552894977433,0.488447105022567,0.5,0.5,0.5,0.511552894977433,0,0,0,0,NaN,0,0,0,0.5,0.0231057899548658,0.371881974297276,0.95559128576094,3.00322890223638,0.5,96.6004543025868
CBC_1018,CBC_1018_MSI_TV_v3_Vset1_Tset3_2023-07-28_15h11.50.359.csv,4,10,3,2,z,0,1,1,tac,C,63,1,3C,2C,0,1,z,1.34392559999924,0,1,1,1,2C,3C,C32,3.2188758248682,0.5,0.488447105022567,0.5,0.488447105022567,0.488447105022567,0.5,0.5,0.488447105022567,0.488447105022567,0.5,0.511552894977433,0.488447105022567,0.5,0.5,0.5,0.511552894977433,0.523093460875028,0.476906539124972,0.511552894977433,0.488447105022567,0.209136122844048,0.533035751897554,0.488447105022567,0.0112859562127137,0.5,0.0231057899548658,0.371881974297276,0.95559128576094,3.00322890223638,0.5,96.6004543025868
CBC_1018,CBC_1018_MSI_TV_v3_Vset1_Tset3_2023-07-28_15h11.50.359.csv,4,11,3,1,b,1,0,0,tac,D,27,1,3D,1D,1,0,b,4.01544789999934,1,0,1,1,3D,1D,D31,3.25809653802148,0.5,0.488447105022567,0.5,0.488447105022567,0.488447105022567,0.5,0.5,0.488447105022567,0.488447105022567,0.5,0.522838851190147,0.488447105022567,0.5,0.5,0.5,0.511552894977433,0.511552894977433,0.488447105022567,0.511552894977433,0.5,0.0489952582853696,0.516499079568083,0.488447105022567,0.0112859562127137,0.5,0.0231057899548658,0.371881974297276,0.95559128576094,3.00322890223638,0.5,96.6004543025868
CBC_1018,CBC_1018_MSI_TV_v3_Vset1_Tset3_2023-07-28_15h11.50.359.csv,4,12,0,1,b,1,0,2,tac,A,63,0,0A,1A,0,1,b,1.88952939999945,1,0,1,0,0A,1A,A01,3.29583686600433,0.5,0.488447105022567,0.5,0.488447105022567,0.488447105022567,0.5,0.5,0.488447105022567,0.488447105022567,0.5,0.522838851190147,0.488447105022567,0.5,0.5,0.5,0.522838851190147,0.511552894977433,0.488447105022567,0.5,0.488447105022567,0.156214737381292,0.516372180351791,-0.5,-0.0115528949774329,0.5,0.0231057899548658,0.371881974297276,0.95559128576094,3.00322890223638,0.5,96.6004543025868
CBC_1018,CBC_1018_MSI_TV_v3_Vset1_Tset3_2023-07-28_15h11.50.359.csv,4,13,3,2,z,0,1,1,tac,C,63,1,3C,2C,0,1,b,2.66031559999919,1,0,0,0,3C,2C,C32,2.63905732961526,0.488447105022567,0.488447105022567,0.5,0.488447105022567,0.488447105022567,0.5,0.5,0.488447105022567,0.488447105022567,0.5,0.522838851190147,0.488447105022567,0.5,0.5,0.5,0.522838851190147,0.465644513279493,0.534355486720507,0.488447105022567,0.522838851190147,0.0899730339648312,0.451826028341463,-0.488447105022567,-0.0112859562127137,0.5,0.0231057899548658,0.371881974297276,0.95559128576094,3.00322890223638,0.5,96.6004543025868
CBC_1018,CBC_1018_MSI_TV_v3_Vset1_Tset3_2023-07-28_15h11.50.359.csv,4,14,2,0,z,0,1,2,tac,A,27,1,2A,0A,0,1,z,2.65487730000041,0,1,1,1,0A,2A,A20,3.36729582998647,0.488447105022567,0.488447105022567,0.5,0.488447105022567,0.488447105022567,0.5,0.5,0.488447105022567,0.488447105022567,0.5,0.522838851190147,0.477161148809853,0.5,0.5,0.5,0.522838851190147,0.488447105022567,0.511552894977433,0.488447105022567,0.5,0.0964459876800234,0.482860955681375,0.511552894977433,0.0118198337421521,0.5,0.0231057899548658,0.371881974297276,0.95559128576094,3.00322890223638,0.5,96.6004543025868
CBC_1018,CBC_1018_MSI_TV_v3_Vset1_Tset3_2023-07-28_15h11.50.359.csv,4,15,1,0,b,1,0,3,tac,B,63,1,1B,0B,1,0,b,2.29778669999996,1,0,1,1,1B,0B,B10,2.70805020110221,0.500266938764719,0.488447105022567,0.5,0.488447105022567,0.488447105022567,0.5,0.5,0.488447105022567,0.488447105022567,0.5,0.522838851190147,0.477161148809853,0.5,0.5,0.5,0.522838851190147,0.511552894977433,0.488447105022567,0.5,0.488447105022567,0.125452629009312,0.516835939095148,0.5,0.0115528949774329,0.5,0.0231057899548658,0.371881974297276,0.95559128576094,3.00322890223638,0.5,96.6004543025868
CBC_1018,CBC_1018_MSI_TV_v3_Vset1_Tset3_2023-07-28_15h11.50.359.csv,4,16,2,3,z,0,1,0,tac,D,63,1,2D,3D,0,1,b,2.28791790000014,1,0,0,0,2D,3D,D23,2.7408400239252,0.500266938764719,0.488447105022567,0.5,0.488447105022567,0.488447105022567,0.511552894977433,0.5,0.488447105022567,0.488447105022567,0.5,0.522838851190147,0.477161148809853,0.5,0.5,0.5,0.522838851190147,0.477161148809853,0.522838851190147,0.5,0.522838851190147,0.113942539501852,0.46678684776089,-0.5,-0.0115528949774329,0.5,0.0231057899548658,0.371881974297276,0.95559128576094,3.00322890223638,0.5,96.6004543025868
CBC_1018,CBC_1018_MSI_TV_v3_Vset1_Tset3_2023-07-28_15h11.50.359.csv,4,17,2,1,z,0,1,3,tac,B,9,1,2B,1B,0,1,z,1.39801290000014,0,1,1,1,1B,2B,B21,3.46573590279973,0.500266938764719,0.488447105022567,0.5,0.488447105022567,0.488447105022567,0.511552894977433,0.5,0.488447105022567,0.488447105022567,0.5,0.522838851190147,0.477161148809853,0.5,0.5,0.488447105022567,0.522838851190147,0.511552894977433,0.488447105022567,0.511552894977433,0.5,0.198428659037414,0.516586534934387,0.488447105022567,0.0112859562127137,0.5,0.0231057899548658,0.371881974297276,0.95559128576094,3.00322890223638,0.5,96.6004543025868
CBC_1018,CBC_1018_MSI_TV_v3_Vset1_Tset3_2023-07-28_15h11.50.359.csv,4,18,3,1,b,1,0,0,tac,D,27,1,3D,1D,1,0,b,3.37028029999965,1,0,1,1,3D,1D,D31,2.80336038090653,0.500266938764719,0.488447105022567,0.5,0.488447105022567,0.488447105022567,0.522838851190147,0.5,0.488447105022567,0.488447105022567,0.5,0.522838851190147,0.477161148809853,0.5,0.5,0.488447105022567,0.522838851190147,0.522838851190147,0.477161148809853,0.522838851190147,0.5,0.0718416276228787,0.532286809142552,0.477161148809853,0.0110251852790229,0.5,0.0231057899548658,0.371881974297276,0.95559128576094,3.00322890223638,0.5,96.6004543025868
CBC_1018,CBC_1018_MSI_TV_v3_Vset1_Tset3_2023-07-28_15h11.50.359.csv,4,19,1,0,z,0,1,2,tac,A,63,1,1A,0A,0,1,b,3.55554969999957,1,0,0,0,1A,0A,A10,2.83321334405622,0.500266938764719,0.488447105022567,0.5,0.488447105022567,0.488447105022567,0.522838851190147,0.5,0.488447105022567,0.488447105022567,0.5,0.522838851190147,0.477161148809853,0.5,0.5,0.488447105022567,0.533864036469169,0.488180312061524,0.511819687938476,0.488447105022567,0.500266938764719,0.0588970084622284,0.482715718871931,-0.488447105022567,-0.0112859562127137,0.5,0.0231057899548658,0.371881974297276,0.95559128576094,3.00322890223638,0.5,96.6004543025868
CBC_1018,CBC_1018_MSI_TV_v3_Vset1_Tset3_2023-07-28_15h11.50.359.csv,4,20,0,1,b,1,0,2,tac,A,63,1,0A,1A,1,0,b,2.45793619999949,1,0,1,1,0A,1A,A01,2.86220088092947,0.500266938764719,0.477161148809853,0.5,0.488447105022567,0.488447105022567,0.522838851190147,0.5,0.488447105022567,0.488447105022567,0.5,0.522838851190147,0.477161148809853,0.5,0.5,0.488447105022567,0.533864036469169,0.523105226503906,0.476894773496094,0.500266938764719,0.477161148809853,0.118599057960003,0.533126248789445,0.499733061235281,0.0115467271464045,0.5,0.0231057899548658,0.371881974297276,0.95559128576094,3.00322890223638,0.5,96.6004543025868
CBC_1018,CBC_1018_MSI_TV_v3_Vset1_Tset3_2023-07-28_15h11.50.359.csv,4,21,0,2,z,0,1,1,tac,C,27,1,0C,2C,0,1,z,3.39824869999939,0,1,1,1,2C,0C,C02,2.89037175789616,0.511813665911124,0.477161148809853,0.5,0.488447105022567,0.488447105022567,0.522838851190147,0.5,0.488447105022567,0.488447105022567,0.5,0.522838851190147,0.477161148809853,0.5,0.5,0.488447105022567,0.533864036469169,0.534355486720507,0.465644513279493,0.522838851190147,0.488447105022567,0.0728229172589301,0.548386072190553,0.477161148809853,0.0110251852790229,0.5,0.0231057899548658,0.371881974297276,0.95559128576094,3.00322890223638,0.5,96.6004543025868
CBC_1018,CBC_1018_MSI_TV_v3_Vset1_Tset3_2023-07-28_15h11.50.359.csv,4,22,1,0,b,1,0,3,tac,B,63,1,1B,0B,1,0,z,2.34818429999996,0,1,0,0,0B,1B,B10,2.51230562397611,0.511813665911124,0.477161148809853,0.5,0.488447105022567,0.488447105022567,0.522838851190147,0.5,0.488447105022567,0.488447105022567,0.5,0.533864036469169,0.477161148809853,0.5,0.5,0.488447105022567,0.533864036469169,0.465644513279493,0.534355486720507,0.488447105022567,0.522838851190147,0.106401222227308,0.450309720407195,-0.488447105022567,-0.0112859562127137,0.5,0.0231057899548658,0.371881974297276,0.95559128576094,3.00322890223638,0.5,96.6004543025868
CBC_1018,CBC_1018_MSI_TV_v3_Vset1_Tset3_2023-07-28_15h11.50.359.csv,4,23,0,2,z,0,1,1,tac,C,27,1,0C,2C,0,1,z,2.55996269999923,0,1,1,1,2C,0C,C02,2.53897387105828,0.511813665911124,0.477161148809853,0.5,0.488447105022567,0.477161148809853,0.522838851190147,0.5,0.488447105022567,0.488447105022567,0.5,0.533864036469169,0.477161148809853,0.5,0.5,0.488447105022567,0.533864036469169,0.545345969057716,0.454654030942284,0.533864036469169,0.488447105022567,0.118707958403011,0.564150364793559,0.466135963530831,0.0107704396637523,0.5,0.0231057899548658,0.371881974297276,0.95559128576094,3.00322890223638,0.5,96.6004543025868
CBC_1018,CBC_1018_MSI_TV_v3_Vset1_Tset3_2023-07-28_15h11.50.359.csv,4,24,2,3,z,0,1,0,tac,D,63,1,2D,3D,0,1,z,2.97830189999968,0,1,1,1,3D,2D,D23,2.56494935746154,0.511813665911124,0.477161148809853,0.5,0.488447105022567,0.477161148809853,0.522838851190147,0.5,0.488447105022567,0.488447105022567,0.5,0.544634476132922,0.477161148809853,0.5,0.5,0.488447105022567,0.533864036469169,0.545345969057716,0.454654030942284,0.533864036469169,0.488447105022567,0.0945609942441041,0.565792072690565,0.466135963530831,0.0107704396637523,0.5,0.0231057899548658,0.371881974297276,0.95559128576094,3.00322890223638,0.5,96.6004543025868
CBC_1018,CBC_1018_MSI_TV_v3_Vset1_Tset3_2023-07-28_15h11.50.359.csv,4,25,0,1,b,1,0,2,tac,A,63,1,0A,1A,1,0,b,3.14384199999949,1,0,1,1,0A,1A,A01,2.59026716544583,0.511813665911124,0.477161148809853,0.5,0.488447105022567,0.477161148809853,0.522838851190147,0.5,0.488447105022567,0.488447105022567,0.5,0.544634476132922,0.477161148809853,0.5,0.5,0.488447105022567,0.544634476132922,0.534615158959887,0.465384841040113,0.511813665911124,0.477161148809853,0.0839521995441066,0.549795590641545,0.488186334088876,0.0112799308942935,0.5,0.0231057899548658,0.371881974297276,0.95559128576094,3.00322890223638,0.5,96.6004543025868
CBC_1018,CBC_1018_MSI_TV_v3_Vset1_Tset3_2023-07-28_15h11.50.359.csv,4,26,2,3,b,1,0,1,tac,C,63,1,2C,3C,1,0,b,2.56410049999977,1,0,1,1,2C,3C,C23,2.6149597780362,0.523093596805417,0.477161148809853,0.5,0.488447105022567,0.477161148809853,0.522838851190147,0.5,0.488447105022567,0.488447105022567,0.5,0.544634476132922,0.477161148809853,0.5,0.5,0.488447105022567,0.544634476132922,0.567199315352224,0.432800684647776,0.544634476132922,0.477161148809853,0.124779269236464,0.594243012591969,0.455365523867078,0.0105215801471601,0.5,0.0231057899548658,0.371881974297276,0.95559128576094,3.00322890223638,0.5,96.6004543025868
CBC_1018,CBC_1018_MSI_TV_v3_Vset1_Tset3_2023-07-28_15h11.50.359.csv,4,27,0,2,b,1,0,2,tac,A,27,1,0A,2A,1,0,z,1.99715719999949,0,1,0,0,2A,0A,A02,3.73766961828337,0.523093596805417,0.477161148809853,0.5,0.488447105022567,0.477161148809853,0.522838851190147,0.5,0.488447105022567,0.488447105022567,0.5,0.555156056280082,0.477161148809853,0.5,0.5,0.488447105022567,0.544634476132922,0.476906403194583,0.523093596805417,0.5,0.523093596805417,0.133722602993724,0.467958069899292,-0.5,-0.0115528949774329,0.5,0.0231057899548658,0.371881974297276,0.95559128576094,3.00322890223638,0.5,96.6004543025868
CBC_1018,CBC_1018_MSI_TV_v3_Vset1_Tset3_2023-07-28_15h11.50.359.csv,4,28,2,3,z,0,1,0,tac,D,63,1,2D,3D,0,1,z,1.82409559999905,0,1,1,1,3D,2D,D23,2.37490575457367,0.523093596805417,0.477161148809853,0.488447105022567,0.488447105022567,0.477161148809853,0.522838851190147,0.5,0.488447105022567,0.488447105022567,0.5,0.555156056280082,0.477161148809853,0.5,0.5,0.488447105022567,0.544634476132922,0.556071715925968,0.443928284074032,0.544634476132922,0.488447105022567,0.181686571437554,0.57779921099903,0.455365523867078,0.0105215801471601,0.5,0.0231057899548658,0.371881974297276,0.95559128576094,3.00322890223638,0.5,96.6004543025868
CBC_1018,CBC_1018_MSI_TV_v3_Vset1_Tset3_2023-07-28_15h11.50.359.csv,4,29,2,3,z,0,1,0,tac,D,63,1,2D,3D,0,1,b,2.40428450000036,1,0,0,0,2D,3D,D23,2.17475172148416,0.523093596805417,0.477161148809853,0.488447105022567,0.488447105022567,0.477161148809853,0.522838851190147,0.5,0.488447105022567,0.488447105022567,0.5,0.555156056280082,0.477161148809853,0.5,0.5,0.488447105022567,0.555156056280082,0.433460647471521,0.566539352528479,0.488447105022567,0.555156056280082,0.0931084170539511,0.405851098515468,-0.488447105022567,-0.0112859562127137,0.5,0.0231057899548658,0.371881974297276,0.95559128576094,3.00322890223638,0.5,96.6004543025868
CBC_1018,CBC_1018_MSI_TV_v3_Vset1_Tset3_2023-07-28_15h11.50.359.csv,4,30,1,3,b,1,0,3,tac,B,27,1,1B,3B,1,0,z,2.38130879999972,0,1,0,0,3B,1B,B13,3.80666248977032,0.523093596805417,0.477161148809853,0.488447105022567,0.488447105022567,0.477161148809853,0.522838851190147,0.5,0.488447105022567,0.488447105022567,0.5,0.555156056280082,0.477161148809853,0.5,0.5,0.477161148809853,0.555156056280082,0.465644513279493,0.534355486720507,0.488447105022567,0.522838851190147,0.104663008910618,0.451062449751743,-0.488447105022567,-0.0112859562127137,0.5,0.0231057899548658,0.371881974297276,0.95559128576094,3.00322890223638,0.5,96.6004543025868
CBC_1018,CBC_1018_MSI_TV_v3_Vset1_Tset3_2023-07-28_15h11.50.359.csv,4,31,3,0,b,1,0,0,tac,D,9,1,3D,0D,1,0,b,1.28516370000034,1,0,1,1,3D,0D,D30,3.8286413964891,0.523093596805417,0.477161148809853,0.488447105022567,0.488447105022567,0.477161148809853,0.522838851190147,0.5,0.477161148809853,0.488447105022567,0.5,0.555156056280082,0.477161148809853,0.5,0.5,0.477161148809853,0.555156056280082,0.555156056280082,0.444843943719918,0.555156056280082,0.5,0.232743479170965,0.578451923606805,0.444843943719918,0.0102784707262866,0.5,0.0231057899548658,0.371881974297276,0.95559128576094,3.00322890223638,0.5,96.6004543025868
CBC_1018,CBC_1018_MSI_TV_v3_Vset1_Tset3_2023-07-28_15h11.50.359.csv,4,32,0,1,z,0,1,3,tac,B,63,1,0B,1B,0,1,z,3.48464969999986,0,1,1,1,1B,0B,B01,3.85014760171006,0.523093596805417,0.477161148809853,0.488447105022567,0.488447105022567,0.477161148809853,0.522838851190147,0.5,0.477161148809853,0.488447105022567,0.5,0.555156056280082,0.477161148809853,0.5,0.5,0.477161148809853,0.565434527006368,0.545582596458196,0.454417403541804,0.522838851190147,0.477161148809853,0.0715290924917605,0.56569342372883,0.477161148809853,0.0110251852790229,0.5,0.0231057899548658,0.371881974297276,0.95559128576094,3.00322890223638,0.5,96.6004543025868
CBC_1018,CBC_1018_MSI_TV_v3_Vset1_Tset3_2023-07-28_15h11.50.359.csv,4,33,0,1,b,1,0,2,tac,A,63,1,0A,1A,1,0,b,2.26621119999982,1,0,1,1,0A,1A,A01,2.484906649788,0.523093596805417,0.477161148809853,0.488447105022567,0.488447105022567,0.477161148809853,0.533864036469169,0.5,0.477161148809853,0.488447105022567,0.5,0.555156056280082,0.477161148809853,0.5,0.5,0.477161148809853,0.565434527006368,0.545835747179184,0.454164252820816,0.523093596805417,0.477161148809853,0.139680477222588,0.564939591934498,0.476906403194583,0.0110192991803446,0.5,0.0231057899548658,0.371881974297276,0.95559128576094,3.00322890223638,0.5,96.6004543025868
CBC_1018,CBC_1018_MSI_TV_v3_Vset1_Tset3_2023-07-28_15h11.50.359.csv,4,34,0,1,z,0,1,3,tac,B,63,1,0B,1B,0,1,z,2.34569759999977,0,1,1,1,1B,0B,B01,3.19867311755068,0.534112895985762,0.477161148809853,0.488447105022567,0.488447105022567,0.477161148809853,0.533864036469169,0.5,0.477161148809853,0.488447105022567,0.5,0.555156056280082,0.477161148809853,0.5,0.5,0.477161148809853,0.565434527006368,0.556528009062868,0.443471990937132,0.533864036469169,0.477161148809853,0.137385367980212,0.580093299859615,0.466135963530831,0.0107704396637523,0.5,0.0231057899548658,0.371881974297276,0.95559128576094,3.00322890223638,0.5,96.6004543025868
CBC_1018,CBC_1018_MSI_TV_v3_Vset1_Tset3_2023-07-28_15h11.50.359.csv,4,35,2,3,b,1,0,1,tac,C,63,1,2C,3C,1,0,z,4.63347969999995,0,1,0,0,3C,2C,C23,2.52572864430826,0.534112895985762,0.477161148809853,0.488447105022567,0.488447105022567,0.477161148809853,0.544634476132922,0.5,0.477161148809853,0.488447105022567,0.5,0.555156056280082,0.477161148809853,0.5,0.5,0.477161148809853,0.565434527006368,0.422396123242478,0.577603876757522,0.477161148809853,0.555156056280082,0.0258786996522835,0.390970926070301,-0.477161148809853,-0.0110251852790229,0.5,0.0231057899548658,0.371881974297276,0.95559128576094,3.00322890223638,0.5,96.6004543025868
CBC_1018,CBC_1018_MSI_TV_v3_Vset1_Tset3_2023-07-28_15h11.50.359.csv,4,36,2,0,z,0,1,2,tac,A,27,1,2A,0A,0,1,b,0.927980299999945,1,0,0,0,2A,0A,A20,3.23867845216438,0.534112895985762,0.477161148809853,0.488447105022567,0.488447105022567,0.477161148809853,0.544634476132922,0.5,0.477161148809853,0.488447105022567,0.5,0.555156056280082,0.46613596353083,0.5,0.5,0.477161148809853,0.565434527006368,0.454406083779607,0.545593916220393,0.488447105022567,0.534112895985762,0.166126403141289,0.433764893803125,-0.488447105022567,-0.0112859562127137,0.5,0.0231057899548658,0.371881974297276,0.95559128576094,3.00322890223638,0.5,96.6004543025868
CBC_1018,CBC_1018_MSI_TV_v3_Vset1_Tset3_2023-07-28_15h11.50.359.csv,4,37,0,1,z,0,1,3,tac,B,63,1,0B,1B,0,1,z,0.566683400000329,0,1,1,1,1B,0B,B01,2.85263142991332,0.534112895985762,0.477161148809853,0.477161148809853,0.488447105022567,0.477161148809853,0.544634476132922,0.5,0.477161148809853,0.488447105022567,0.5,0.555156056280082,0.46613596353083,0.5,0.5,0.477161148809853,0.565434527006368,0.567199315352224,0.432800684647776,0.544634476132922,0.477161148809853,0.0258902206499083,0.595811708401467,0.455365523867078,0.0105215801471601,0.5,0.0231057899548658,0.371881974297276,0.95559128576094,3.00322890223638,0.5,96.6004543025868
CBC_1018,CBC_1018_MSI_TV_v3_Vset1_Tset3_2023-07-28_15h11.50.359.csv,4,38,1,3,b,1,0,3,tac,B,27,1,1B,3B,1,0,z,1.55493200000001,0,1,0,0,3B,1B,B13,3.27714473299218,0.534112895985762,0.477161148809853,0.477161148809853,0.488447105022567,0.477161148809853,0.555156056280082,0.5,0.477161148809853,0.488447105022567,0.5,0.555156056280082,0.46613596353083,0.5,0.5,0.477161148809853,0.565434527006368,0.422396123242478,0.577603876757522,0.477161148809853,0.555156056280082,0.141862880464972,0.391224785375969,-0.477161148809853,-0.0110251852790229,0.5,0.0231057899548658,0.371881974297276,0.95559128576094,3.00322890223638,0.5,96.6004543025868
CBC_1018,CBC_1018_MSI_TV_v3_Vset1_Tset3_2023-07-28_15h11.50.359.csv,4,39,2,3,b,1,0,1,tac,C,63,1,2C,3C,1,0,b,1.54298440000002,1,0,1,1,2C,3C,C23,2.37954613413017,0.534112895985762,0.477161148809853,0.477161148809853,0.488447105022567,0.477161148809853,0.555156056280082,0.5,0.46613596353083,0.488447105022567,0.5,0.555156056280082,0.46613596353083,0.5,0.5,0.477161148809853,0.565434527006368,0.588359935629647,0.411640064370353,0.555156056280082,0.46613596353083,0.229209677132296,0.625965006862182,0.444843943719918,0.0102784707262866,0.5,0.0231057899548658,0.371881974297276,0.95559128576094,3.00322890223638,0.5,96.6004543025868
CBC_1018,CBC_1018_MSI_TV_v3_Vset1_Tset3_2023-07-28_15h11.50.359.csv,4,40,1,3,z,0,1,0,tac,D,27,1,1D,3D,0,1,b,2.39299609999944,1,0,0,0,1D,3D,D13,4.00733318523247,0.534112895985762,0.477161148809853,0.477161148809853,0.488447105022567,0.477161148809853,0.555156056280082,0.5,0.46613596353083,0.488447105022567,0.5,0.565434527006368,0.46613596353083,0.5,0.5,0.477161148809853,0.565434527006368,0.434565472993632,0.565434527006368,0.5,0.565434527006368,0.0942275872694726,0.408206377408519,-0.5,-0.0115528949774329,0.5,0.0231057899548658,0.371881974297276,0.95559128576094,3.00322890223638,0.5,96.6004543025868
CBC_1018,CBC_1018_MSI_TV_v3_Vset1_Tset3_2023-07-28_15h11.50.359.csv,4,41,2,1,b,1,0,1,tac,C,9,1,2C,1C,1,0,b,2.58594330000051,1,0,1,1,2C,1C,C21,4.02535169073515,0.534112895985762,0.477161148809853,0.477161148809853,0.488447105022567,0.477161148809853,0.555156056280082,0.5,0.46613596353083,0.488447105022567,0.5,0.565434527006368,0.46613596353083,0.5,0.488447105022567,0.477161148809853,0.565434527006368,0.565434527006368,0.434565472993632,0.565434527006368,0.5,0.123100059229255,0.593389015789114,0.434565472993632,0.0100409785406278,0.5,0.0231057899548658,0.371881974297276,0.95559128576094,3.00322890223638,0.5,96.6004543025868
