ID,session,trialNr,mod2Stim,visStimLeft,visStimRight,correctKey,frequency,rewardAccurate,probFB,stimPairLeft,stimPairRight,leftCorrect,rightCorrect,pCorrectLeft,pCorrectRight,triplet,rt,surprise,0A belief,1A belief,2A belief,3A belief,0B belief,1B belief,2B belief,3B belief,0C belief,1C belief,2C belief,3C belief,0D belief,1D belief,2D belief,3D belief,reactionTime,choice,choiceLeft,choiceRight,chosenPair,otherPair,beliefPair,beliefOtherPair,beliefPairNorm,beliefOtherPairNorm,choiceAccurate,reward,rewardPE,update2,sim_CBCsimpleRW_CBCdriftDiffusionLR_startBelief,sim_CBCsimpleRW_CBCdriftDiffusionLR_alpha1,sim_CBCsimpleRW_CBCdriftDiffusionLR_nonDecisionTime,sim_CBCsimpleRW_CBCdriftDiffusionLR_weight,sim_CBCsimpleRW_CBCdriftDiffusionLR_startingBoundary,sim_CBCsimpleRW_CBCdriftDiffusionLR_startingPoint,lik,corrLik,fitCBCsimpleRW_CBCdriftDiffusionLR_startBelief,fitCBCsimpleRW_CBCdriftDiffusionLR_alpha1,fitCBCsimpleRW_CBCdriftDiffusionLR_nonDecisionTime,fitCBCsimpleRW_CBCdriftDiffusionLR_weight,fitCBCsimpleRW_CBCdriftDiffusionLR_startingBoundary,fitCBCsimpleRW_CBCdriftDiffusionLR_startingPoint,fit_CBCsimpleRW_CBCdriftDiffusionLR_NLL
144,1,1,A,1,0,l,63,1,1,1A,0A,0,1,0,1,A10,2.9817822385476,2.77258872223978,0.5,0.5,0.5,0.5,0.5,0.5,0.5,0.5,0.5,0.5,0.5,0.5,0.5,0.5,0.5,0.5,0.719480158120494,1,1,0,1A,0A,0.5,0.5,0.5,0.5,0,0,-0.5,-0.488036608171366,0.5,0.309744016819602,0.488480158120494,2.29329284586552,1.15812579884355,0.5,1.21840229996359,0.499715785885471,0.5,0.976073216342731,0.540412956395114,1.11663185546982,1.12735306756014,0.5,13.5518597138336
144,1,2,C,2,3,a,63,1,1,2C,3C,1,0,1,0,C23,2.5979248222603,2.83321334405622,0.5,0.0119633918286343,0.5,0.5,0.5,0.5,0.5,0.5,0.5,0.5,0.5,0.5,0.5,0.5,0.5,0.5,0.805480158120494,1,1,0,2C,3C,0.5,0.5,0.5,0.5,1,1,0.5,0.488036608171366,0.5,0.309744016819602,0.488480158120494,2.29329284586552,1.15812579884355,0.5,0.882204954287525,0.499847771247389,0.5,0.976073216342731,0.540412956395114,1.11663185546982,1.12735306756014,0.5,13.5518597138336
144,1,3,A,2,0,l,27,1,1,2A,0A,0,1,0,1,A20,1.55785317850951,2.89037175789616,0.5,0.0119633918286343,0.5,0.5,0.5,0.5,0.5,0.5,0.5,0.5,0.988036608171366,0.5,0.5,0.5,0.5,0.5,0.735480158120494,1,1,0,2A,0A,0.5,0.5,0.5,0.5,0,0,-0.5,-0.488036608171366,0.5,0.309744016819602,0.488480158120494,2.29329284586552,1.15812579884355,0.5,1.15161162191157,0.500312721199146,0.5,0.976073216342731,0.540412956395114,1.11663185546982,1.12735306756014,0.5,13.5518597138336
144,1,4,B,0,1,l,63,1,1,0B,1B,0,1,0,1,B01,0.931485997465861,2.94443897916644,0.5,0.0119633918286343,0.0119633918286343,0.5,0.5,0.5,0.5,0.5,0.5,0.5,0.988036608171366,0.5,0.5,0.5,0.5,0.5,0.687480158120494,0,0,1,1B,0B,0.5,0.5,0.5,0.5,1,1,0.5,0.488036608171366,0.5,0.309744016819602,0.488480158120494,2.29329284586552,1.15812579884355,0.5,1.35229793380645,0.499737335127372,0.5,0.976073216342731,0.540412956395114,1.11663185546982,1.12735306756014,0.5,13.5518597138336
144,1,5,B,1,0,a,63,1,1,1B,0B,1,0,1,0,B10,2.42349471055524,2.99573227355399,0.5,0.0119633918286343,0.0119633918286343,0.5,0.5,0.988036608171366,0.5,0.5,0.5,0.5,0.988036608171366,0.5,0.5,0.5,0.5,0.5,0.836480158120494,0,0,1,0B,1B,0.5,0.988036608171366,0.336013238689366,0.663986761310634,0,0,-0.5,-0.488036608171366,0.5,0.309744016819602,0.488480158120494,2.29329284586552,1.15812579884355,0.5,0.624679722738676,0.398495725862666,0.5,0.976073216342731,0.540412956395114,1.11663185546982,1.12735306756014,0.5,13.5518597138336
144,1,6,C,2,3,a,63,1,1,2C,3C,1,0,1,0,C23,1.43577576052803,2.35137525716348,0.5,0.0119633918286343,0.0119633918286343,0.5,0.0119633918286343,0.988036608171366,0.5,0.5,0.5,0.5,0.988036608171366,0.5,0.5,0.5,0.5,0.5,1.04148015812049,0,0,1,3C,2C,0.5,0.988036608171366,0.336013238689366,0.663986761310634,0,0,-0.5,-0.488036608171366,0.5,0.309744016819602,0.488480158120494,2.29329284586552,1.15812579884355,0.5,0.278009876440502,0.398412180198798,0.5,0.976073216342731,0.540412956395114,1.11663185546982,1.12735306756014,0.5,13.5518597138336
144,1,7,D,1,3,l,27,1,1,1D,3D,0,1,0,1,D13,2.48031437388285,3.09104245335832,0.5,0.0119633918286343,0.0119633918286343,0.5,0.0119633918286343,0.988036608171366,0.5,0.5,0.5,0.5,0.988036608171366,0.0119633918286343,0.5,0.5,0.5,0.5,1.63648015812049,1,1,0,1D,3D,0.5,0.5,0.5,0.5,0,0,-0.5,-0.488036608171366,0.5,0.309744016819602,0.488480158120494,2.29329284586552,1.15812579884355,0.5,0.0350528258778129,0.499986518500033,0.5,0.976073216342731,0.540412956395114,1.11663185546982,1.12735306756014,0.5,13.5518597138336
144,1,8,C,2,1,a,9,1,1,2C,1C,1,0,1,0,C21,3.07532867546117,3.13549421592915,0.5,0.0119633918286343,0.0119633918286343,0.5,0.0119633918286343,0.988036608171366,0.5,0.5,0.5,0.5,0.988036608171366,0.0119633918286343,0.5,0.0119633918286343,0.5,0.5,0.640480158120494,1,1,0,2C,1C,0.988036608171366,0.5,0.663986761310634,0.336013238689366,1,1,0.0119633918286343,0.0116771463405434,0.5,0.309744016819602,0.488480158120494,2.29329284586552,1.15812579884355,0.5,1.77333989553141,0.601817963680563,0.5,0.976073216342731,0.540412956395114,1.11663185546982,1.12735306756014,0.5,13.5518597138336
144,1,9,B,1,3,a,27,1,1,1B,3B,1,0,1,0,B13,2.19810486175102,3.17805383034795,0.5,0.0119633918286343,0.0119633918286343,0.5,0.0119633918286343,0.988036608171366,0.5,0.5,0.5,0.5,0.999713754511909,0.0119633918286343,0.5,0.0119633918286343,0.5,0.5,0.630480158120494,1,1,0,1B,3B,0.988036608171366,0.5,0.663986761310634,0.336013238689366,1,1,0.0119633918286343,0.0116771463405434,0.5,0.309744016819602,0.488480158120494,2.29329284586552,1.15812579884355,0.5,1.74178460729679,0.601668166105417,0.5,0.976073216342731,0.540412956395114,1.11663185546982,1.12735306756014,0.5,13.5518597138336
144,1,10,D,2,3,l,63,1,1,2D,3D,0,1,0,1,D23,0.187746401536171,3.2188758248682,0.5,0.0119633918286343,0.0119633918286343,0.5,0.0119633918286343,0.999713754511909,0.5,0.5,0.5,0.5,0.999713754511909,0.0119633918286343,0.5,0.0119633918286343,0.5,0.5,0.634480158120494,1,1,0,2D,3D,0.5,0.5,0.5,0.5,0,0,-0.5,-0.488036608171366,0.5,0.309744016819602,0.488480158120494,2.29329284586552,1.15812579884355,0.5,1.44028036587397,0.500144369596035,0.5,0.976073216342731,0.540412956395114,1.11663185546982,1.12735306756014,0.5,13.5518597138336
144,1,11,B,0,1,l,63,1,1,0B,1B,0,1,0,1,B01,2.84067989114422,2.56494935746154,0.5,0.0119633918286343,0.0119633918286343,0.5,0.0119633918286343,0.999713754511909,0.5,0.5,0.5,0.5,0.999713754511909,0.0119633918286343,0.5,0.0119633918286343,0.0119633918286343,0.5,0.589480158120494,0,0,1,1B,0B,0.999713754511909,0.0119633918286343,0.988174694000049,0.0118253059999511,1,1,0.000286245488090864,0.000279396554224445,0.5,0.309744016819602,0.488480158120494,2.29329284586552,1.15812579884355,0.5,1.45896015482269,0.773822516507063,0.5,0.976073216342731,0.540412956395114,1.11663185546982,1.12735306756014,0.5,13.5518597138336
144,1,12,C,2,0,a,27,1,1,2C,0C,1,0,1,0,C20,2.37213115062509,3.29583686600433,0.5,0.0119633918286343,0.0119633918286343,0.5,0.0119633918286343,0.999993151066134,0.5,0.5,0.5,0.5,0.999713754511909,0.0119633918286343,0.5,0.0119633918286343,0.0119633918286343,0.5,0.669480158120494,1,1,0,2C,0C,0.999713754511909,0.5,0.666603044417147,0.333396955582853,1,1,0.000286245488090864,0.000279396554224445,0.5,0.309744016819602,0.488480158120494,2.29329284586552,1.15812579884355,0.5,1.73063995546497,0.603254277440007,0.5,0.976073216342731,0.540412956395114,1.11663185546982,1.12735306756014,0.5,13.5518597138336
144,1,13,D,2,3,l,63,1,1,2D,3D,0,1,0,1,D23,1.21587163303892,2.63905732961526,0.5,0.0119633918286343,0.0119633918286343,0.5,0.0119633918286343,0.999993151066134,0.5,0.5,0.5,0.5,0.999993151066134,0.0119633918286343,0.5,0.0119633918286343,0.0119633918286343,0.5,0.644480158120494,0,0,1,3D,2D,0.5,0.0119633918286343,0.97663232953844,0.0233676704615604,1,1,0.5,0.488036608171366,0.5,0.309744016819602,0.488480158120494,2.29329284586552,1.15812579884355,0.5,2.50119565368676,0.768720816269259,0.5,0.976073216342731,0.540412956395114,1.11663185546982,1.12735306756014,0.5,13.5518597138336
144,1,14,A,0,1,a,63,1,1,0A,1A,1,0,1,0,A01,2.25135868756765,3.36729582998647,0.5,0.0119633918286343,0.0119633918286343,0.5,0.0119633918286343,0.999993151066134,0.5,0.5,0.5,0.5,0.999993151066134,0.0119633918286343,0.5,0.0119633918286343,0.0119633918286343,0.988036608171366,1.28348015812049,1,1,0,0A,1A,0.5,0.0119633918286343,0.97663232953844,0.0233676704615604,1,1,0.5,0.488036608171366,0.5,0.309744016819602,0.488480158120494,2.29329284586552,1.15812579884355,0.5,0.165133580063928,0.768358843645113,0.5,0.976073216342731,0.540412956395114,1.11663185546982,1.12735306756014,0.5,13.5518597138336
144,1,15,C,3,2,l,63,1,1,3C,2C,0,1,0,1,C32,0.809187537906209,3.40119738166216,0.988036608171366,0.0119633918286343,0.0119633918286343,0.5,0.0119633918286343,0.999993151066134,0.5,0.5,0.5,0.5,0.999993151066134,0.0119633918286343,0.5,0.0119633918286343,0.0119633918286343,0.988036608171366,0.618480158120494,0,0,1,2C,3C,0.999993151066134,0.0119633918286343,0.988177958912729,0.0118220410872706,1,1,6.84893386637686e-06,6.68506090747312e-06,0.5,0.309744016819602,0.488480158120494,2.29329284586552,1.15812579884355,0.5,2.37693423027609,0.77348768411476,0.5,0.976073216342731,0.540412956395114,1.11663185546982,1.12735306756014,0.5,13.5518597138336
144,1,16,A,2,0,l,27,1,1,2A,0A,0,1,0,1,A20,3.07620453515964,2.7408400239252,0.988036608171366,0.0119633918286343,0.0119633918286343,0.5,0.0119633918286343,0.999993151066134,0.5,0.5,0.5,0.5,0.999999836127041,0.0119633918286343,0.5,0.0119633918286343,0.0119633918286343,0.988036608171366,0.605480158120494,0,0,1,0A,2A,0.988036608171366,0.0119633918286343,0.988036608171366,0.0119633918286343,1,1,0.0119633918286343,0.0116771463405434,0.5,0.309744016819602,0.488480158120494,2.29329284586552,1.15812579884355,0.5,2.09865869700116,0.773938541800012,0.5,0.976073216342731,0.540412956395114,1.11663185546982,1.12735306756014,0.5,13.5518597138336
144,1,17,D,3,2,a,63,1,1,3D,2D,1,0,1,0,D32,0.231888361042559,3.46573590279973,0.999713754511909,0.0119633918286343,0.0119633918286343,0.5,0.0119633918286343,0.999993151066134,0.5,0.5,0.5,0.5,0.999999836127041,0.0119633918286343,0.5,0.0119633918286343,0.0119633918286343,0.988036608171366,0.883480158120494,0,0,1,2D,3D,0.0119633918286343,0.988036608171366,0.0119633918286343,0.988036608171366,0,0,-0.0119633918286343,-0.0116771463405434,0.5,0.309744016819602,0.488480158120494,2.29329284586552,1.15812579884355,0.5,0.287889706231112,0.226429037226126,0.5,0.976073216342731,0.540412956395114,1.11663185546982,1.12735306756014,0.5,13.5518597138336
144,1,18,D,2,3,l,63,1,1,2D,3D,0,1,0,1,D23,2.32847615437797,2.39789527279837,0.999713754511909,0.0119633918286343,0.0119633918286343,0.5,0.0119633918286343,0.999993151066134,0.5,0.5,0.5,0.5,0.999999836127041,0.0119633918286343,0.5,0.0119633918286343,0.000286245488090866,0.988036608171366,1.06848015812049,0,0,1,3D,2D,0.988036608171366,0.000286245488090866,0.99971037248908,0.000289627510920127,1,1,0.0119633918286343,0.0116771463405434,0.5,0.309744016819602,0.488480158120494,2.29329284586552,1.15812579884355,0.5,0.429459410713204,0.778938415864285,0.5,0.976073216342731,0.540412956395114,1.11663185546982,1.12735306756014,0.5,13.5518597138336
144,1,19,B,1,3,a,27,1,1,1B,3B,1,0,1,0,B13,0.552643539791742,2.83321334405622,0.999713754511909,0.0119633918286343,0.0119633918286343,0.5,0.0119633918286343,0.999993151066134,0.5,0.5,0.5,0.5,0.999999836127041,0.0119633918286343,0.5,0.0119633918286343,0.000286245488090866,0.999713754511909,0.649480158120494,0,0,1,3B,1B,0.5,0.999993151066134,0.333334855325586,0.666665144674414,0,0,-0.5,-0.488036608171366,0.5,0.309744016819602,0.488480158120494,2.29329284586552,1.15812579884355,0.5,1.17043139646724,0.396551981588534,0.5,0.976073216342731,0.540412956395114,1.11663185546982,1.12735306756014,0.5,13.5518597138336
144,1,20,D,3,0,a,9,1,1,3D,0D,1,0,1,0,D30,3.4302579215688,3.55534806148941,0.999713754511909,0.0119633918286343,0.0119633918286343,0.5,0.0119633918286343,0.999993151066134,0.5,0.0119633918286343,0.5,0.5,0.999999836127041,0.0119633918286343,0.5,0.0119633918286343,0.000286245488090866,0.999713754511909,1.02348015812049,0,0,1,0D,3D,0.5,0.999713754511909,0.333396955582853,0.666603044417147,0,0,-0.5,-0.488036608171366,0.5,0.309744016819602,0.488480158120494,2.29329284586552,1.15812579884355,0.5,0.297346815128357,0.397009805042081,0.5,0.976073216342731,0.540412956395114,1.11663185546982,1.12735306756014,0.5,13.5518597138336
144,1,21,B,0,1,l,63,1,1,0B,1B,0,1,0,1,B01,1.57049168816065,2.484906649788,0.999713754511909,0.0119633918286343,0.0119633918286343,0.5,0.0119633918286343,0.999993151066134,0.5,0.0119633918286343,0.5,0.5,0.999999836127041,0.0119633918286343,0.0119633918286343,0.0119633918286343,0.000286245488090866,0.999713754511909,0.730480158120494,0,0,1,1B,0B,0.999993151066134,0.0119633918286343,0.988177958912729,0.0118220410872706,1,1,6.84893386637686e-06,6.68506090747312e-06,0.5,0.309744016819602,0.488480158120494,2.29329284586552,1.15812579884355,0.5,1.93427784106106,0.773318230119555,0.5,0.976073216342731,0.540412956395114,1.11663185546982,1.12735306756014,0.5,13.5518597138336
144,1,22,A,0,1,a,63,1,1,0A,1A,1,0,1,0,A01,2.30330879818438,2.91777073208428,0.999713754511909,0.0119633918286343,0.0119633918286343,0.5,0.0119633918286343,0.999999836127041,0.5,0.0119633918286343,0.5,0.5,0.999999836127041,0.0119633918286343,0.0119633918286343,0.0119633918286343,0.000286245488090866,0.999713754511909,0.595480158120494,0,0,1,1A,0A,0.0119633918286343,0.999713754511909,0.0118253059999511,0.988174694000049,0,0,-0.0119633918286343,-0.0116771463405434,0.5,0.309744016819602,0.488480158120494,2.29329284586552,1.15812579884355,0.5,0.508503094369845,0.226132206933164,0.5,0.976073216342731,0.540412956395114,1.11663185546982,1.12735306756014,0.5,13.5518597138336
144,1,23,C,3,2,l,63,1,1,3C,2C,0,1,0,1,C32,1.23723200428221,2.94443897916644,0.999713754511909,0.000286245488090866,0.0119633918286343,0.5,0.0119633918286343,0.999999836127041,0.5,0.0119633918286343,0.5,0.5,0.999999836127041,0.0119633918286343,0.0119633918286343,0.0119633918286343,0.000286245488090866,0.999713754511909,0.879480158120494,0,0,1,2C,3C,0.999999836127041,0.0119633918286343,0.988178037009505,0.0118219629904954,1,1,1.63872958869327e-07,1.59952006035184e-07,0.5,0.309744016819602,0.488480158120494,2.29329284586552,1.15812579884355,0.5,1.00166462199482,0.773935352701958,0.5,0.976073216342731,0.540412956395114,1.11663185546982,1.12735306756014,0.5,13.5518597138336
144,1,24,A,2,0,l,27,1,1,2A,0A,0,1,0,1,A20,2.19416542339508,2.56494935746154,0.999713754511909,0.000286245488090866,0.0119633918286343,0.5,0.0119633918286343,0.999999836127041,0.5,0.0119633918286343,0.5,0.5,0.999999996079047,0.0119633918286343,0.0119633918286343,0.0119633918286343,0.000286245488090866,0.999713754511909,0.869480158120494,0,0,1,0A,2A,0.999713754511909,0.0119633918286343,0.988174694000049,0.0118253059999511,1,1,0.000286245488090864,0.000279396554224445,0.5,0.309744016819602,0.488480158120494,2.29329284586552,1.15812579884355,0.5,1.04702126318409,0.773480793724375,0.5,0.976073216342731,0.540412956395114,1.11663185546982,1.12735306756014,0.5,13.5518597138336
144,1,25,B,0,1,l,63,1,1,0B,1B,0,1,0,1,B01,3.00846984905147,2.30258509299405,0.999993151066134,0.000286245488090866,0.0119633918286343,0.5,0.0119633918286343,0.999999836127041,0.5,0.0119633918286343,0.5,0.5,0.999999996079047,0.0119633918286343,0.0119633918286343,0.0119633918286343,0.000286245488090866,0.999713754511909,0.874480158120494,1,1,0,0B,1B,0.0119633918286343,0.999999836127041,0.0118219629904954,0.988178037009505,0,0,-0.0119633918286343,-0.0116771463405434,0.5,0.309744016819602,0.488480158120494,2.29329284586552,1.15812579884355,0.5,0.299744662511545,0.22644740336351,0.5,0.976073216342731,0.540412956395114,1.11663185546982,1.12735306756014,0.5,13.5518597138336
144,1,26,D,3,2,a,63,1,1,3D,2D,1,0,1,0,D32,1.92376829670928,3.02042488614436,0.999993151066134,0.000286245488090866,0.0119633918286343,0.5,0.000286245488090866,0.999999836127041,0.5,0.0119633918286343,0.5,0.5,0.999999996079047,0.0119633918286343,0.0119633918286343,0.0119633918286343,0.000286245488090866,0.999713754511909,0.838480158120494,1,1,0,3D,2D,0.999713754511909,0.000286245488090866,0.999713754511909,0.000286245488090866,1,1,0.000286245488090864,0.000279396554224445,0.5,0.309744016819602,0.488480158120494,2.29329284586552,1.15812579884355,0.5,1.2100215718146,0.778568048356484,0.5,0.976073216342731,0.540412956395114,1.11663185546982,1.12735306756014,0.5,13.5518597138336
144,1,27,B,2,1,l,9,1,1,2B,1B,0,1,0,1,B21,2.96894959741524,3.73766961828337,0.999993151066134,0.000286245488090866,0.0119633918286343,0.5,0.000286245488090866,0.999999836127041,0.5,0.0119633918286343,0.5,0.5,0.999999996079047,0.0119633918286343,0.0119633918286343,0.0119633918286343,0.000286245488090866,0.999993151066134,0.636480158120494,0,0,1,1B,2B,0.999999836127041,0.5,0.66666663025045,0.33333336974955,1,1,1.63872958869327e-07,1.59952006035184e-07,0.5,0.309744016819602,0.488480158120494,2.29329284586552,1.15812579884355,0.5,1.77217391760617,0.603853286310934,0.5,0.976073216342731,0.540412956395114,1.11663185546982,1.12735306756014,0.5,13.5518597138336
144,1,28,D,3,1,a,27,1,1,3D,1D,1,0,1,0,D31,2.30030910175812,3.76120011569356,0.999993151066134,0.000286245488090866,0.0119633918286343,0.5,0.000286245488090866,0.999999996079047,0.5,0.0119633918286343,0.5,0.5,0.999999996079047,0.0119633918286343,0.0119633918286343,0.0119633918286343,0.000286245488090866,0.999993151066134,0.847480158120494,1,1,0,3D,1D,0.999993151066134,0.0119633918286343,0.988177958912729,0.0118220410872706,1,1,6.84893386637686e-06,6.68506090747312e-06,0.5,0.309744016819602,0.488480158120494,2.29329284586552,1.15812579884355,0.5,1.15557943570492,0.773725530203514,0.5,0.976073216342731,0.540412956395114,1.11663185546982,1.12735306756014,0.5,13.5518597138336
144,1,29,A,0,1,a,63,1,1,0A,1A,1,0,1,0,A01,2.84519688867984,2.68557734525015,0.999993151066134,0.000286245488090866,0.0119633918286343,0.5,0.000286245488090866,0.999999996079047,0.5,0.0119633918286343,0.5,0.5,0.999999996079047,0.0119633918286343,0.0119633918286343,0.0119633918286343,0.000286245488090866,0.999999836127041,1.29648015812049,1,1,0,0A,1A,0.999993151066134,0.000286245488090866,0.999713834465573,0.000286165534426609,1,1,6.84893386637686e-06,6.68506090747312e-06,0.5,0.309744016819602,0.488480158120494,2.29329284586552,1.15812579884355,0.5,0.153714593981382,0.778835718137003,0.5,0.976073216342731,0.540412956395114,1.11663185546982,1.12735306756014,0.5,13.5518597138336
144,1,30,A,1,0,l,63,1,1,1A,0A,0,1,0,1,A10,0.620269290961716,3.11351530921037,0.999999836127041,0.000286245488090866,0.0119633918286343,0.5,0.000286245488090866,0.999999996079047,0.5,0.0119633918286343,0.5,0.5,0.999999996079047,0.0119633918286343,0.0119633918286343,0.0119633918286343,0.000286245488090866,0.999999836127041,0.656480158120494,0,0,1,0A,1A,0.999999836127041,0.000286245488090866,0.99971383637806,0.000286163621939709,1,1,1.63872958869327e-07,1.59952006035184e-07,0.5,0.309744016819602,0.488480158120494,2.29329284586552,1.15812579884355,0.5,2.52550048280276,0.778828538700497,0.5,0.976073216342731,0.540412956395114,1.11663185546982,1.12735306756014,0.5,13.5518597138336
144,1,31,C,2,0,a,27,1,1,2C,0C,1,0,1,0,C20,1.97063326445794,3.13549421592915,0.999999996079047,0.000286245488090866,0.0119633918286343,0.5,0.000286245488090866,0.999999996079047,0.5,0.0119633918286343,0.5,0.5,0.999999996079047,0.0119633918286343,0.0119633918286343,0.0119633918286343,0.000286245488090866,0.999999836127041,0.702480158120494,1,1,0,2C,0C,0.999999996079047,0.5,0.666666665795344,0.333333334204656,1,1,3.92095278467508e-09,3.8271369956658e-09,0.5,0.309744016819602,0.488480158120494,2.29329284586552,1.15812579884355,0.5,1.57434757697327,0.603006137790908,0.5,0.976073216342731,0.540412956395114,1.11663185546982,1.12735306756014,0.5,13.5518597138336
144,1,32,A,0,1,a,63,1,1,0A,1A,1,0,1,0,A01,1.9626508601313,2.46385324059017,0.999999996079047,0.000286245488090866,0.0119633918286343,0.5,0.000286245488090866,0.999999996079047,0.5,0.0119633918286343,0.5,0.5,0.999999999906184,0.0119633918286343,0.0119633918286343,0.0119633918286343,0.000286245488090866,0.999999836127041,0.997480158120494,1,1,0,0A,1A,0.999999996079047,0.000286245488090866,0.99971383642382,0.000286163576180362,1,1,3.92095278467508e-09,3.8271369956658e-09,0.5,0.309744016819602,0.488480158120494,2.29329284586552,1.15812579884355,0.5,0.591330974757852,0.778427529700737,0.5,0.976073216342731,0.540412956395114,1.11663185546982,1.12735306756014,0.5,13.5518597138336
144,1,33,B,0,1,l,63,1,1,0B,1B,0,1,0,1,B01,0.62823341487654,2.26176309847379,0.999999999906184,0.000286245488090866,0.0119633918286343,0.5,0.000286245488090866,0.999999996079047,0.5,0.0119633918286343,0.5,0.5,0.999999999906184,0.0119633918286343,0.0119633918286343,0.0119633918286343,0.000286245488090866,0.999999836127041,0.849480158120494,0,0,1,1B,0B,0.999999996079047,0.000286245488090866,0.99971383642382,0.000286163576180362,1,1,3.92095278467508e-09,3.8271369956658e-09,0.5,0.309744016819602,0.488480158120494,2.29329284586552,1.15812579884355,0.5,1.15203155752127,0.778886683059742,0.5,0.976073216342731,0.540412956395114,1.11663185546982,1.12735306756014,0.5,13.5518597138336
144,1,34,D,2,3,l,63,1,1,2D,3D,0,1,0,1,D23,0.374124314726565,2.50552593699074,0.999999999906184,0.000286245488090866,0.0119633918286343,0.5,0.000286245488090866,0.999999999906184,0.5,0.0119633918286343,0.5,0.5,0.999999999906184,0.0119633918286343,0.0119633918286343,0.0119633918286343,0.000286245488090866,0.999999836127041,0.598480158120494,0,0,1,3D,2D,0.999999836127041,0.000286245488090866,0.99971383637806,0.000286163621939709,1,1,1.63872958869327e-07,1.59952006035184e-07,0.5,0.309744016819602,0.488480158120494,2.29329284586552,1.15812579884355,0.5,1.88677350799075,0.779030132925463,0.5,0.976073216342731,0.540412956395114,1.11663185546982,1.12735306756014,0.5,13.5518597138336
144,1,35,B,1,3,a,27,1,1,1B,3B,1,0,1,0,B13,1.86653365815015,2.81341071676004,0.999999999906184,0.000286245488090866,0.0119633918286343,0.5,0.000286245488090866,0.999999999906184,0.5,0.0119633918286343,0.5,0.5,0.999999999906184,0.0119633918286343,0.0119633918286343,0.0119633918286343,0.000286245488090866,0.999999996079047,1.03348015812049,1,1,0,1B,3B,0.999999999906184,0.0119633918286343,0.988178038922806,0.011821961077194,1,1,9.38158439822701e-11,9.15711325796822e-11,0.5,0.309744016819602,0.488480158120494,2.29329284586552,1.15812579884355,0.5,0.502565667615729,0.773524941022852,0.5,0.976073216342731,0.540412956395114,1.11663185546982,1.12735306756014,0.5,13.5518597138336
144,1,36,C,2,3,a,63,1,1,2C,3C,1,0,1,0,C23,2.29944073210135,2.83321334405622,0.999999999906184,0.000286245488090866,0.0119633918286343,0.5,0.000286245488090866,0.999999999997755,0.5,0.0119633918286343,0.5,0.5,0.999999999906184,0.0119633918286343,0.0119633918286343,0.0119633918286343,0.000286245488090866,0.999999996079047,0.948480158120494,1,1,0,2C,3C,0.999999999906184,0.0119633918286343,0.988178038922806,0.011821961077194,1,1,9.38158439822701e-11,9.15711325796822e-11,0.5,0.309744016819602,0.488480158120494,2.29329284586552,1.15812579884355,0.5,0.735504595460433,0.774097347236039,0.5,0.976073216342731,0.540412956395114,1.11663185546982,1.12735306756014,0.5,13.5518597138336
144,1,37,C,0,2,l,27,1,1,0C,2C,0,1,0,1,C02,2.28866873294361,3.95124371858143,0.999999999906184,0.000286245488090866,0.0119633918286343,0.5,0.000286245488090866,0.999999999997755,0.5,0.0119633918286343,0.5,0.5,0.999999999997755,0.0119633918286343,0.0119633918286343,0.0119633918286343,0.000286245488090866,0.999999996079047,1.06748015812049,0,0,1,2C,0C,0.999999999997755,0.5,0.666666666666168,0.333333333333832,1,1,2.2447599334896e-12,2.19105004819849e-12,0.5,0.309744016819602,0.488480158120494,2.29329284586552,1.15812579884355,0.5,0.37971952372527,0.603328866899459,0.5,0.976073216342731,0.540412956395114,1.11663185546982,1.12735306756014,0.5,13.5518597138336
144,1,38,B,0,1,l,63,1,1,0B,1B,0,1,0,1,B01,2.29365456861106,2.17853244432407,0.999999999906184,0.000286245488090866,0.0119633918286343,0.5,0.000286245488090866,0.999999999997755,0.5,0.0119633918286343,0.5,0.5,0.999999999999946,0.0119633918286343,0.0119633918286343,0.0119633918286343,0.000286245488090866,0.999999996079047,1.07648015812049,0,0,1,1B,0B,0.999999999997755,0.000286245488090866,0.999713836424941,0.000286163575059291,1,1,2.2447599334896e-12,2.19105004819849e-12,0.5,0.309744016819602,0.488480158120494,2.29329284586552,1.15812579884355,0.5,0.414249634435208,0.778955636686366,0.5,0.976073216342731,0.540412956395114,1.11663185546982,1.12735306756014,0.5,13.5518597138336
144,1,39,A,0,3,a,9,1,1,0A,3A,1,0,1,0,A03,0.333657630730684,3.98898404656427,0.999999999906184,0.000286245488090866,0.0119633918286343,0.5,0.000286245488090866,0.999999999999946,0.5,0.0119633918286343,0.5,0.5,0.999999999999946,0.0119633918286343,0.0119633918286343,0.0119633918286343,0.000286245488090866,0.999999996079047,0.869480158120494,0,0,1,3A,0A,0.5,0.999999999906184,0.333333333354181,0.666666666645819,0,0,-0.5,-0.488036608171366,0.5,0.309744016819602,0.488480158120494,2.29329284586552,1.15812579884355,0.5,0.545810384268726,0.396592840563293,0.5,0.976073216342731,0.540412956395114,1.11663185546982,1.12735306756014,0.5,13.5518597138336
144,1,40,C,2,3,a,63,1,1,2C,3C,1,0,1,0,C23,2.35481753881352,2.62103882411258,0.999999999906184,0.000286245488090866,0.0119633918286343,0.0119633918286343,0.000286245488090866,0.999999999999946,0.5,0.0119633918286343,0.5,0.5,0.999999999999946,0.0119633918286343,0.0119633918286343,0.0119633918286343,0.000286245488090866,0.999999996079047,0.781480158120494,0,0,1,3C,2C,0.0119633918286343,0.999999999999946,0.0118219610760987,0.988178038923901,0,0,-0.0119633918286343,-0.0116771463405434,0.5,0.309744016819602,0.488480158120494,2.29329284586552,1.15812579884355,0.5,0.453973367622972,0.22653665865381,0.5,0.976073216342731,0.540412956395114,1.11663185546982,1.12735306756014,0.5,13.5518597138336
144,1,41,A,0,1,a,63,1,1,0A,1A,1,0,1,0,A01,0.915322047922795,2.41591377830105,0.999999999906184,0.000286245488090866,0.0119633918286343,0.0119633918286343,0.000286245488090866,0.999999999999946,0.5,0.0119633918286343,0.5,0.5,0.999999999999946,0.000286245488090866,0.0119633918286343,0.0119633918286343,0.000286245488090866,0.999999996079047,0.568480158120494,1,1,0,0A,1A,0.999999999906184,0.000286245488090866,0.999713836424914,0.000286163575085488,1,1,9.38158439822701e-11,9.15711325796822e-11,0.5,0.309744016819602,0.488480158120494,2.29329284586552,1.15812579884355,0.5,0.306630466534378,0.778328500294902,0.5,0.976073216342731,0.540412956395114,1.11663185546982,1.12735306756014,0.5,13.5518597138336
144,1,42,D,2,3,l,63,1,1,2D,3D,0,1,0,1,D23,0.399785297455706,2.43361335540045,0.999999999997755,0.000286245488090866,0.0119633918286343,0.0119633918286343,0.000286245488090866,0.999999999999946,0.5,0.0119633918286343,0.5,0.5,0.999999999999946,0.000286245488090866,0.0119633918286343,0.0119633918286343,0.000286245488090866,0.999999996079047,1.25648015812049,1,1,0,2D,3D,0.000286245488090866,0.999999996079047,0.000286163576180362,0.99971383642382,0,0,-0.000286245488090866,-0.000279396554224446,0.5,0.309744016819602,0.488480158120494,2.29329284586552,1.15812579884355,0.5,0.0521239794622501,0.220761458078651,0.5,0.976073216342731,0.540412956395114,1.11663185546982,1.12735306756014,0.5,13.5518597138336
144,1,43,C,3,2,l,63,1,1,3C,2C,0,1,0,1,C32,1.66740558121017,2.96183072187831,0.999999999997755,0.000286245488090866,0.0119633918286343,0.0119633918286343,0.000286245488090866,0.999999999999946,0.5,0.0119633918286343,0.5,0.5,0.999999999999946,0.000286245488090866,0.0119633918286343,0.0119633918286343,6.84893386641936e-06,0.999999996079047,0.973480158120494,0,0,1,2C,3C,0.999999999999946,0.000286245488090866,0.999713836424941,0.000286163575058664,1,1,5.37347943918576e-14,5.24490935915758e-14,0.5,0.309744016819602,0.488480158120494,2.29329284586552,1.15812579884355,0.5,0.658919670671957,0.778746379603611,0.5,0.976073216342731,0.540412956395114,1.11663185546982,1.12735306756014,0.5,13.5518597138336
144,1,44,D,3,1,a,27,1,1,3D,1D,1,0,1,0,D31,0.57788676197561,3.38439026334577,0.999999999997755,0.000286245488090866,0.0119633918286343,0.0119633918286343,0.000286245488090866,0.999999999999946,0.5,0.0119633918286343,0.5,0.5,0.999999999999999,0.000286245488090866,0.0119633918286343,0.0119633918286343,6.84893386641936e-06,0.999999996079047,0.805480158120494,1,1,0,3D,1D,0.999999996079047,0.0119633918286343,0.988178038878097,0.0118219611219034,1,1,3.92095278467508e-09,3.8271369956658e-09,0.5,0.309744016819602,0.488480158120494,2.29329284586552,1.15812579884355,0.5,1.39402828690449,0.773812131990699,0.5,0.976073216342731,0.540412956395114,1.11663185546982,1.12735306756014,0.5,13.5518597138336
