ID,session,trialNr,mod2Stim,visStimLeft,visStimRight,correctKey,frequency,rewardAccurate,probFB,stimPairLeft,stimPairRight,leftCorrect,rightCorrect,pCorrectLeft,pCorrectRight,triplet,rt,surprise,0A belief,1A belief,2A belief,3A belief,0B belief,1B belief,2B belief,3B belief,0C belief,1C belief,2C belief,3C belief,0D belief,1D belief,2D belief,3D belief,reactionTime,choice,choiceLeft,choiceRight,chosenPair,otherPair,beliefPair,beliefOtherPair,beliefPairNorm,beliefOtherPairNorm,choiceAccurate,reward,rewardPE,update2,sim_CBCsimpleRW_CBCdriftDiffusionLR_startBelief,sim_CBCsimpleRW_CBCdriftDiffusionLR_alpha1,sim_CBCsimpleRW_CBCdriftDiffusionLR_nonDecisionTime,sim_CBCsimpleRW_CBCdriftDiffusionLR_weight,sim_CBCsimpleRW_CBCdriftDiffusionLR_startingBoundary,sim_CBCsimpleRW_CBCdriftDiffusionLR_startingPoint,lik,corrLik,fitCBCsimpleRW_CBCdriftDiffusionLR_startBelief,fitCBCsimpleRW_CBCdriftDiffusionLR_alpha1,fitCBCsimpleRW_CBCdriftDiffusionLR_nonDecisionTime,fitCBCsimpleRW_CBCdriftDiffusionLR_weight,fitCBCsimpleRW_CBCdriftDiffusionLR_startingBoundary,fitCBCsimpleRW_CBCdriftDiffusionLR_startingPoint,fit_CBCsimpleRW_CBCdriftDiffusionLR_NLL
155,1,1,B,0,1,l,63,1,0.95,0B,1B,0,1,0,1,B01,0.346894342046352,2.77258872223978,0.5,0.5,0.5,0.5,0.5,0.5,0.5,0.5,0.5,0.5,0.5,0.5,0.5,0.5,0.5,0.5,4.49649403342116,1,1,0,0B,1B,0.5,0.5,0.5,0.5,0,0,-0.5,-0.346456171131306,0.5,0.697387848984408,0.54049403342116,5.24726716942257,2.58198369837397,0.5,0.0477678453106263,0.49932119238363,0.5,0.692912342262613,0.496825428701126,5.85041823985843,3.3323803546888,0.5,16.197615631697
155,1,2,D,2,3,l,63,1,0.95,2D,3D,0,1,0,1,D23,2.23772919551224,2.83321334405622,0.5,0.5,0.5,0.5,0.153543828868694,0.5,0.5,0.5,0.5,0.5,0.5,0.5,0.5,0.5,0.5,0.5,2.94649403342116,0,0,1,3D,2D,0.5,0.5,0.5,0.5,1,1,0.5,0.346456171131306,0.5,0.697387848984408,0.54049403342116,5.24726716942257,2.58198369837397,0.5,0.0949337734478931,0.498583108766797,0.5,0.692912342262613,0.496825428701126,5.85041823985843,3.3323803546888,0.5,16.197615631697
155,1,3,B,1,3,a,27,1,0.95,1B,3B,1,0,1,0,B13,2.00341831072581,2.89037175789616,0.5,0.5,0.5,0.5,0.153543828868694,0.5,0.5,0.5,0.5,0.5,0.5,0.5,0.5,0.5,0.5,0.846456171131306,1.85849403342116,1,1,0,1B,3B,0.5,0.5,0.5,0.5,1,1,0.5,0.346456171131306,0.5,0.697387848984408,0.54049403342116,5.24726716942257,2.58198369837397,0.5,0.150569619912079,0.49920267069538,0.5,0.692912342262613,0.496825428701126,5.85041823985843,3.3323803546888,0.5,16.197615631697
155,1,4,C,3,2,l,63,1,0.95,3C,2C,0,1,0,1,C32,1.06888011026311,2.94443897916644,0.5,0.5,0.5,0.5,0.153543828868694,0.846456171131306,0.5,0.5,0.5,0.5,0.5,0.5,0.5,0.5,0.5,0.846456171131306,2.30949403342116,1,1,0,3C,2C,0.5,0.5,0.5,0.5,0,0,-0.5,-0.346456171131306,0.5,0.697387848984408,0.54049403342116,5.24726716942257,2.58198369837397,0.5,0.125748331346226,0.499738376901701,0.5,0.692912342262613,0.496825428701126,5.85041823985843,3.3323803546888,0.5,16.197615631697
155,1,5,C,2,0,a,27,1,0.95,2C,0C,1,0,1,0,C20,1.50979327248808,2.99573227355399,0.5,0.5,0.5,0.5,0.153543828868694,0.846456171131306,0.5,0.5,0.5,0.5,0.5,0.153543828868694,0.5,0.5,0.5,0.846456171131306,0.96049403342116,1,1,0,2C,0C,0.5,0.5,0.5,0.5,1,1,0.5,0.346456171131306,0.5,0.697387848984408,0.54049403342116,5.24726716942257,2.58198369837397,0.5,0.105272241778587,0.499018881435676,0.5,0.692912342262613,0.496825428701126,5.85041823985843,3.3323803546888,0.5,16.197615631697
155,1,6,A,3,0,l,9,1,0.95,3A,0A,0,1,0,1,A30,2.36030801814725,3.04452243772342,0.5,0.5,0.5,0.5,0.153543828868694,0.846456171131306,0.5,0.5,0.5,0.5,0.846456171131306,0.153543828868694,0.5,0.5,0.5,0.846456171131306,1.90949403342116,1,1,0,3A,0A,0.5,0.5,0.5,0.5,0,0,-0.5,-0.346456171131306,0.5,0.697387848984408,0.54049403342116,5.24726716942257,2.58198369837397,0.5,0.148069545824318,0.500154261541103,0.5,0.692912342262613,0.496825428701126,5.85041823985843,3.3323803546888,0.5,16.197615631697
155,1,7,C,3,2,l,63,1,0.95,3C,2C,0,1,0,1,C32,3.35353221032394,2.39789527279837,0.5,0.5,0.5,0.153543828868694,0.153543828868694,0.846456171131306,0.5,0.5,0.5,0.5,0.846456171131306,0.153543828868694,0.5,0.5,0.5,0.846456171131306,1.01149403342116,0,0,1,2C,3C,0.846456171131306,0.153543828868694,0.846456171131306,0.153543828868694,1,1,0.153543828868694,0.106392414101376,0.5,0.697387848984408,0.54049403342116,5.24726716942257,2.58198369837397,0.5,1.51702636299622,0.999998637639053,0.5,0.692912342262613,0.496825428701126,5.85041823985843,3.3323803546888,0.5,16.197615631697
155,1,8,A,0,1,a,63,1,0.95,0A,1A,1,0,1,0,A01,1.8424813137534,3.13549421592915,0.5,0.5,0.5,0.153543828868694,0.153543828868694,0.846456171131306,0.5,0.5,0.5,0.5,0.952848585232683,0.153543828868694,0.5,0.5,0.5,0.846456171131306,2.05149403342116,1,1,0,0A,1A,0.5,0.5,0.5,0.5,1,1,0.5,0.346456171131306,0.5,0.697387848984408,0.54049403342116,5.24726716942257,2.58198369837397,0.5,0.140575658085115,0.501758276112227,0.5,0.692912342262613,0.496825428701126,5.85041823985843,3.3323803546888,0.5,16.197615631697
155,1,9,D,3,2,a,63,1,0.95,3D,2D,1,0,1,0,D32,2.21619354980864,3.17805383034795,0.846456171131306,0.5,0.5,0.153543828868694,0.153543828868694,0.846456171131306,0.5,0.5,0.5,0.5,0.952848585232683,0.153543828868694,0.5,0.5,0.5,0.846456171131306,1.34249403342116,1,1,0,3D,2D,0.846456171131306,0.5,0.628654826855675,0.371345173144325,1,1,0.153543828868694,0.106392414101376,0.5,0.697387848984408,0.54049403342116,5.24726716942257,2.58198369837397,0.5,0.780161787881435,0.993420983834365,0.5,0.692912342262613,0.496825428701126,5.85041823985843,3.3323803546888,0.5,16.197615631697
155,1,10,C,2,3,a,63,1,0.95,2C,3C,1,0,1,0,C23,2.13063324829741,3.2188758248682,0.846456171131306,0.5,0.5,0.153543828868694,0.153543828868694,0.846456171131306,0.5,0.5,0.5,0.5,0.952848585232683,0.153543828868694,0.5,0.5,0.5,0.952848585232683,0.97449403342116,1,1,0,2C,3C,0.952848585232683,0.153543828868694,0.861221184354013,0.138778815645987,1,1,0.0471514147673173,0.0326717972474178,0.5,0.697387848984408,0.54049403342116,5.24726716942257,2.58198369837397,0.5,1.76808967934181,0.999999233987985,0.5,0.692912342262613,0.496825428701126,5.85041823985843,3.3323803546888,0.5,16.197615631697
155,1,11,D,1,3,l,27,1,0.95,1D,3D,0,1,0,1,D13,1.3134213474973,3.25809653802148,0.846456171131306,0.5,0.5,0.153543828868694,0.153543828868694,0.846456171131306,0.5,0.5,0.5,0.5,0.9855203824801,0.153543828868694,0.5,0.5,0.5,0.952848585232683,0.98049403342116,0,0,1,3D,1D,0.952848585232683,0.5,0.655848513683949,0.344151486316051,1,1,0.0471514147673173,0.0326717972474178,0.5,0.697387848984408,0.54049403342116,5.24726716942257,2.58198369837397,0.5,1.04568301693746,0.997702510854798,0.5,0.692912342262613,0.496825428701126,5.85041823985843,3.3323803546888,0.5,16.197615631697
155,1,12,A,1,0,l,63,0,0.95,1A,0A,0,1,1,0,A10,2.57571219912988,3.29583686600433,0.846456171131306,0.5,0.5,0.153543828868694,0.153543828868694,0.846456171131306,0.5,0.5,0.5,0.5,0.9855203824801,0.153543828868694,0.5,0.5,0.5,0.9855203824801,1.21349403342116,0,0,1,0A,1A,0.846456171131306,0.5,0.628654826855675,0.371345173144325,1,0,-0.846456171131306,-0.586519928161236,0.5,0.697387848984408,0.54049403342116,5.24726716942257,2.58198369837397,0.5,0.861699097530354,0.993434693712442,0.5,0.692912342262613,0.496825428701126,5.85041823985843,3.3323803546888,0.5,16.197615631697
155,1,13,C,2,3,a,63,1,0.95,2C,3C,1,0,1,0,C23,3.41170284217689,2.63905732961526,0.25993624297007,0.5,0.5,0.153543828868694,0.153543828868694,0.846456171131306,0.5,0.5,0.5,0.5,0.9855203824801,0.153543828868694,0.5,0.5,0.5,0.9855203824801,0.88049403342116,1,1,0,2C,3C,0.9855203824801,0.153543828868694,0.865201779373896,0.134798220626104,1,1,0.0144796175198996,0.0100331056907804,0.5,0.697387848984408,0.54049403342116,5.24726716942257,2.58198369837397,0.5,2.79441863786267,0.999999344842567,0.5,0.692912342262613,0.496825428701126,5.85041823985843,3.3323803546888,0.5,16.197615631697
155,1,14,A,0,2,a,27,1,0.95,0A,2A,1,0,1,0,A02,2.5638167626417,3.36729582998647,0.25993624297007,0.5,0.5,0.153543828868694,0.153543828868694,0.846456171131306,0.5,0.5,0.5,0.5,0.995553488170881,0.153543828868694,0.5,0.5,0.5,0.9855203824801,1.63149403342116,0,0,1,2A,0A,0.5,0.25993624297007,0.657949932807314,0.342050067192686,0,0,-0.5,-0.346456171131306,0.5,0.697387848984408,0.54049403342116,5.24726716942257,2.58198369837397,0.5,0.506664073060788,0.997890027094196,0.5,0.692912342262613,0.496825428701126,5.85041823985843,3.3323803546888,0.5,16.197615631697
155,1,15,B,0,1,l,63,1,0.95,0B,1B,0,1,0,1,B01,0.30166131188011,2.70805020110221,0.25993624297007,0.5,0.153543828868694,0.153543828868694,0.153543828868694,0.846456171131306,0.5,0.5,0.5,0.5,0.995553488170881,0.153543828868694,0.5,0.5,0.5,0.9855203824801,0.69049403342116,0,0,1,1B,0B,0.846456171131306,0.153543828868694,0.846456171131306,0.153543828868694,1,1,0.153543828868694,0.106392414101376,0.5,0.697387848984408,0.54049403342116,5.24726716942257,2.58198369837397,0.5,1.05146986898067,0.999998643391246,0.5,0.692912342262613,0.496825428701126,5.85041823985843,3.3323803546888,0.5,16.197615631697
155,1,16,D,3,2,a,63,1,0.95,3D,2D,1,0,1,0,D32,3.00291425225355,2.7408400239252,0.25993624297007,0.5,0.153543828868694,0.153543828868694,0.153543828868694,0.952848585232683,0.5,0.5,0.5,0.5,0.995553488170881,0.153543828868694,0.5,0.5,0.5,0.9855203824801,1.23749403342116,1,1,0,3D,2D,0.9855203824801,0.5,0.663417610490647,0.336582389509353,1,1,0.0144796175198996,0.0100331056907804,0.5,0.697387848984408,0.54049403342116,5.24726716942257,2.58198369837397,0.5,0.999701962532366,0.998293368019446,0.5,0.692912342262613,0.496825428701126,5.85041823985843,3.3323803546888,0.5,16.197615631697
155,1,17,B,1,2,a,9,1,0.95,1B,2B,1,0,1,0,B12,2.12890607476443,3.46573590279973,0.25993624297007,0.5,0.153543828868694,0.153543828868694,0.153543828868694,0.952848585232683,0.5,0.5,0.5,0.5,0.995553488170881,0.153543828868694,0.5,0.5,0.5,0.995553488170881,2.32049403342116,1,1,0,1B,2B,0.952848585232683,0.5,0.655848513683949,0.344151486316051,1,1,0.0471514147673173,0.0326717972474178,0.5,0.697387848984408,0.54049403342116,5.24726716942257,2.58198369837397,0.5,0.126291501869973,0.997699237579791,0.5,0.692912342262613,0.496825428701126,5.85041823985843,3.3323803546888,0.5,16.197615631697
155,1,18,D,1,3,l,27,1,0.95,1D,3D,0,1,0,1,D13,0.777683049373028,2.80336038090653,0.25993624297007,0.5,0.153543828868694,0.153543828868694,0.153543828868694,0.9855203824801,0.5,0.5,0.5,0.5,0.995553488170881,0.153543828868694,0.5,0.5,0.5,0.995553488170881,2.73849403342116,0,0,1,3D,1D,0.995553488170881,0.5,0.665675615111888,0.334324384888112,1,1,0.00444651182911915,0.00308104292641336,0.5,0.697387848984408,0.54049403342116,5.24726716942257,2.58198369837397,0.5,0.0392377707798324,0.998430215509595,0.5,0.692912342262613,0.496825428701126,5.85041823985843,3.3323803546888,0.5,16.197615631697
155,1,19,A,0,1,a,63,1,0.95,0A,1A,1,0,1,0,A01,2.98265210298016,2.83321334405622,0.25993624297007,0.5,0.153543828868694,0.153543828868694,0.153543828868694,0.9855203824801,0.5,0.5,0.5,0.5,0.995553488170881,0.153543828868694,0.5,0.5,0.5,0.998634531097294,2.03549403342116,0,0,1,1A,0A,0.5,0.25993624297007,0.657949932807314,0.342050067192686,0,0,-0.5,-0.346456171131306,0.5,0.697387848984408,0.54049403342116,5.24726716942257,2.58198369837397,0.5,0.221717661458945,0.997882478426138,0.5,0.692912342262613,0.496825428701126,5.85041823985843,3.3323803546888,0.5,16.197615631697
155,1,20,A,1,0,l,63,1,0.95,1A,0A,0,1,0,1,A10,0.911978970868579,2.86220088092947,0.25993624297007,0.153543828868694,0.153543828868694,0.153543828868694,0.153543828868694,0.9855203824801,0.5,0.5,0.5,0.5,0.995553488170881,0.153543828868694,0.5,0.5,0.5,0.998634531097294,1.73949403342116,0,0,1,0A,1A,0.25993624297007,0.153543828868694,0.628654826855675,0.371345173144325,1,1,0.74006375702993,0.512799311307278,0.5,0.697387848984408,0.54049403342116,5.24726716942257,2.58198369837397,0.5,0.471802582479059,0.993381894078841,0.5,0.692912342262613,0.496825428701126,5.85041823985843,3.3323803546888,0.5,16.197615631697
155,1,21,C,2,0,a,27,1,0.95,2C,0C,1,0,1,0,C20,3.15869471585569,2.89037175789616,0.772735554277348,0.153543828868694,0.153543828868694,0.153543828868694,0.153543828868694,0.9855203824801,0.5,0.5,0.5,0.5,0.995553488170881,0.153543828868694,0.5,0.5,0.5,0.998634531097294,1.69349403342116,1,1,0,2C,0C,0.995553488170881,0.5,0.665675615111888,0.334324384888112,1,1,0.00444651182911915,0.00308104292641336,0.5,0.697387848984408,0.54049403342116,5.24726716942257,2.58198369837397,0.5,0.424596600619068,0.998438625982913,0.5,0.692912342262613,0.496825428701126,5.85041823985843,3.3323803546888,0.5,16.197615631697
155,1,22,B,0,1,l,63,1,0.95,0B,1B,0,1,0,1,B01,0.567735501538642,2.51230562397611,0.772735554277348,0.153543828868694,0.153543828868694,0.153543828868694,0.153543828868694,0.9855203824801,0.5,0.5,0.5,0.5,0.998634531097294,0.153543828868694,0.5,0.5,0.5,0.998634531097294,0.78349403342116,0,0,1,1B,0B,0.9855203824801,0.153543828868694,0.865201779373896,0.134798220626104,1,1,0.0144796175198996,0.0100331056907804,0.5,0.697387848984408,0.54049403342116,5.24726716942257,2.58198369837397,0.5,3.08363789157306,0.999999345253948,0.5,0.692912342262613,0.496825428701126,5.85041823985843,3.3323803546888,0.5,16.197615631697
155,1,23,C,2,0,a,27,1,0.95,2C,0C,1,0,1,0,C20,3.22332967655956,2.53897387105828,0.772735554277348,0.153543828868694,0.153543828868694,0.153543828868694,0.153543828868694,0.995553488170881,0.5,0.5,0.5,0.5,0.998634531097294,0.153543828868694,0.5,0.5,0.5,0.998634531097294,1.14249403342116,1,1,0,2C,0C,0.998634531097294,0.5,0.666362952658043,0.333637047341957,1,1,0.00136546890270584,0.00094615025566066,0.5,0.697387848984408,0.54049403342116,5.24726716942257,2.58198369837397,0.5,1.1256527474728,0.998482746358016,0.5,0.692912342262613,0.496825428701126,5.85041823985843,3.3323803546888,0.5,16.197615631697
155,1,24,D,3,2,a,63,1,0.95,3D,2D,1,0,1,0,D32,1.02023408999855,2.56494935746154,0.772735554277348,0.153543828868694,0.153543828868694,0.153543828868694,0.153543828868694,0.995553488170881,0.5,0.5,0.5,0.5,0.999580681352955,0.153543828868694,0.5,0.5,0.5,0.998634531097294,0.90249403342116,1,1,0,3D,2D,0.998634531097294,0.5,0.666362952658043,0.333637047341957,1,1,0.00136546890270584,0.00094615025566066,0.5,0.697387848984408,0.54049403342116,5.24726716942257,2.58198369837397,0.5,0.997710338710235,0.998477236113688,0.5,0.692912342262613,0.496825428701126,5.85041823985843,3.3323803546888,0.5,16.197615631697
155,1,25,A,1,0,l,63,1,0.95,1A,0A,0,1,0,1,A10,3.11762603513248,2.59026716544583,0.772735554277348,0.153543828868694,0.153543828868694,0.153543828868694,0.153543828868694,0.995553488170881,0.5,0.5,0.5,0.5,0.999580681352955,0.153543828868694,0.5,0.5,0.5,0.999580681352955,0.86749403342116,0,0,1,0A,1A,0.772735554277348,0.153543828868694,0.834235942564982,0.165764057435018,1,1,0.227264445722652,0.157474339398697,0.5,0.697387848984408,0.54049403342116,5.24726716942257,2.58198369837397,0.5,2.76482183908843,0.99999781070949,0.5,0.692912342262613,0.496825428701126,5.85041823985843,3.3323803546888,0.5,16.197615631697
155,1,26,C,3,2,l,63,1,0.95,3C,2C,0,1,0,1,C32,1.87744598963462,2.6149597780362,0.930209893676045,0.153543828868694,0.153543828868694,0.153543828868694,0.153543828868694,0.995553488170881,0.5,0.5,0.5,0.5,0.999580681352955,0.153543828868694,0.5,0.5,0.5,0.999580681352955,1.08949403342116,0,0,1,2C,3C,0.999580681352955,0.153543828868694,0.866845403503582,0.133154596496418,1,1,0.000419318647045142,0.000290551065878439,0.5,0.697387848984408,0.54049403342116,5.24726716942257,2.58198369837397,0.5,0.761162619747519,0.999999384441902,0.5,0.692912342262613,0.496825428701126,5.85041823985843,3.3323803546888,0.5,16.197615631697
155,1,27,A,2,0,l,27,1,0.95,2A,0A,0,1,0,1,A20,2.52943196289277,3.73766961828337,0.930209893676045,0.153543828868694,0.153543828868694,0.153543828868694,0.153543828868694,0.995553488170881,0.5,0.5,0.5,0.5,0.999871232418833,0.153543828868694,0.5,0.5,0.5,0.999580681352955,0.81649403342116,0,0,1,0A,2A,0.930209893676045,0.153543828868694,0.858322213179429,0.141677786820571,1,1,0.0697901063239548,0.0483584260396883,0.5,0.697387848984408,0.54049403342116,5.24726716942257,2.58198369837397,0.5,3.11525601575327,0.999999145862987,0.5,0.692912342262613,0.496825428701126,5.85041823985843,3.3323803546888,0.5,16.197615631697
155,1,28,D,3,2,a,63,1,0.95,3D,2D,1,0,1,0,D32,2.02381772089263,2.37490575457367,0.978568319715734,0.153543828868694,0.153543828868694,0.153543828868694,0.153543828868694,0.995553488170881,0.5,0.5,0.5,0.5,0.999871232418833,0.153543828868694,0.5,0.5,0.5,0.999580681352955,0.92449403342116,1,1,0,3D,2D,0.999580681352955,0.5,0.666573458689206,0.333426541310794,1,1,0.000419318647045142,0.000290551065878439,0.5,0.697387848984408,0.54049403342116,5.24726716942257,2.58198369837397,0.5,1.05705755366176,0.9984932463841,0.5,0.692912342262613,0.496825428701126,5.85041823985843,3.3323803546888,0.5,16.197615631697
155,1,29,D,3,2,a,63,1,0.95,3D,2D,1,0,1,0,D32,1.32879274305747,2.17475172148416,0.978568319715734,0.153543828868694,0.153543828868694,0.153543828868694,0.153543828868694,0.995553488170881,0.5,0.5,0.5,0.5,0.999871232418833,0.153543828868694,0.5,0.5,0.5,0.999871232418833,1.45149403342116,1,1,0,3D,2D,0.999871232418833,0.5,0.666638049191961,0.333361950808039,1,1,0.000128767581166755,8.92246462737476e-05,0.5,0.697387848984408,0.54049403342116,5.24726716942257,2.58198369837397,0.5,0.698472426244489,0.998496561002901,0.5,0.692912342262613,0.496825428701126,5.85041823985843,3.3323803546888,0.5,16.197615631697
155,1,30,B,3,1,l,27,1,0.95,3B,1B,0,1,0,1,B31,0.69310835329646,3.80666248977032,0.978568319715734,0.153543828868694,0.153543828868694,0.153543828868694,0.153543828868694,0.995553488170881,0.5,0.5,0.5,0.5,0.999871232418833,0.153543828868694,0.5,0.5,0.5,0.999960457065107,1.08649403342116,0,0,1,1B,3B,0.995553488170881,0.5,0.665675615111888,0.334324384888112,1,1,0.00444651182911915,0.00308104292641336,0.5,0.697387848984408,0.54049403342116,5.24726716942257,2.58198369837397,0.5,1.16415035234781,0.998438731470537,0.5,0.692912342262613,0.496825428701126,5.85041823985843,3.3323803546888,0.5,16.197615631697
155,1,31,D,0,3,l,9,1,0.95,0D,3D,0,1,0,1,D03,1.30515113754429,3.8286413964891,0.978568319715734,0.153543828868694,0.153543828868694,0.153543828868694,0.153543828868694,0.998634531097294,0.5,0.5,0.5,0.5,0.999871232418833,0.153543828868694,0.5,0.5,0.5,0.999960457065107,1.23249403342116,0,0,1,3D,0D,0.999960457065107,0.5,0.666657879116145,0.333342120883856,1,1,3.95429348930554e-05,2.7399787636685e-05,0.5,0.697387848984408,0.54049403342116,5.24726716942257,2.58198369837397,0.5,1.01550560138833,0.998491495133474,0.5,0.692912342262613,0.496825428701126,5.85041823985843,3.3323803546888,0.5,16.197615631697
155,1,32,B,1,0,a,63,1,0.95,1B,0B,1,0,1,0,B10,3.14494173191533,3.85014760171006,0.978568319715734,0.153543828868694,0.153543828868694,0.153543828868694,0.153543828868694,0.998634531097294,0.5,0.5,0.5,0.5,0.999871232418833,0.153543828868694,0.5,0.5,0.5,0.999987856852744,0.80149403342116,1,1,0,1B,0B,0.998634531097294,0.153543828868694,0.866736059100063,0.133263940899937,1,1,0.00136546890270584,0.00094615025566066,0.5,0.697387848984408,0.54049403342116,5.24726716942257,2.58198369837397,0.5,3.20100067655019,0.99999938585683,0.5,0.692912342262613,0.496825428701126,5.85041823985843,3.3323803546888,0.5,16.197615631697
155,1,33,A,1,0,l,63,1,0.95,1A,0A,0,1,0,1,A10,0.407492633516023,2.484906649788,0.978568319715734,0.153543828868694,0.153543828868694,0.153543828868694,0.153543828868694,0.999580681352955,0.5,0.5,0.5,0.5,0.999871232418833,0.153543828868694,0.5,0.5,0.5,0.999987856852744,0.97049403342116,0,0,1,0A,1A,0.978568319715734,0.153543828868694,0.864374011832059,0.135625988167941,1,1,0.0214316802842665,0.0148502757843945,0.5,0.697387848984408,0.54049403342116,5.24726716942257,2.58198369837397,0.5,1.78777394875429,0.999999322726661,0.5,0.692912342262613,0.496825428701126,5.85041823985843,3.3323803546888,0.5,16.197615631697
155,1,34,B,1,0,a,63,1,0.95,1B,0B,1,0,1,0,B10,2.92621853619126,3.19867311755068,0.993418595500128,0.153543828868694,0.153543828868694,0.153543828868694,0.153543828868694,0.999580681352955,0.5,0.5,0.5,0.5,0.999871232418833,0.153543828868694,0.5,0.5,0.5,0.999987856852744,0.71649403342116,1,1,0,1B,0B,0.999580681352955,0.153543828868694,0.866845403503582,0.133154596496418,1,1,0.000419318647045142,0.000290551065878439,0.5,0.697387848984408,0.54049403342116,5.24726716942257,2.58198369837397,0.5,1.96197032204808,0.999999385388148,0.5,0.692912342262613,0.496825428701126,5.85041823985843,3.3323803546888,0.5,16.197615631697
155,1,35,C,3,2,l,63,1,0.95,3C,2C,0,1,0,1,C32,0.52464062195013,2.52572864430826,0.993418595500128,0.153543828868694,0.153543828868694,0.153543828868694,0.153543828868694,0.999871232418833,0.5,0.5,0.5,0.5,0.999871232418833,0.153543828868694,0.5,0.5,0.5,0.999987856852744,0.87149403342116,0,0,1,2C,3C,0.999871232418833,0.153543828868694,0.866878945817391,0.133121054182609,1,1,0.000128767581166755,8.92246462737476e-05,0.5,0.697387848984408,0.54049403342116,5.24726716942257,2.58198369837397,0.5,2.88565610214207,0.999999388675649,0.5,0.692912342262613,0.496825428701126,5.85041823985843,3.3323803546888,0.5,16.197615631697
155,1,36,A,0,2,a,27,1,0.95,0A,2A,1,0,1,0,A02,0.79038026854604,3.23867845216438,0.993418595500128,0.153543828868694,0.153543828868694,0.153543828868694,0.153543828868694,0.999871232418833,0.5,0.5,0.5,0.5,0.999960457065107,0.153543828868694,0.5,0.5,0.5,0.999987856852744,0.80749403342116,1,1,0,0A,2A,0.993418595500128,0.153543828868694,0.866130026924649,0.133869973075351,1,1,0.00658140449987188,0.00456033640738392,0.5,0.697387848984408,0.54049403342116,5.24726716942257,2.58198369837397,0.5,3.20363325255212,0.999999369403274,0.5,0.692912342262613,0.496825428701126,5.85041823985843,3.3323803546888,0.5,16.197615631697
155,1,37,B,1,0,a,63,1,0.95,1B,0B,1,0,1,0,B10,1.54147581152785,2.85263142991332,0.997978931907512,0.153543828868694,0.153543828868694,0.153543828868694,0.153543828868694,0.999871232418833,0.5,0.5,0.5,0.5,0.999960457065107,0.153543828868694,0.5,0.5,0.5,0.999987856852744,0.95849403342116,1,1,0,1B,0B,0.999871232418833,0.153543828868694,0.866878945817391,0.133121054182609,1,1,0.000128767581166755,8.92246462737476e-05,0.5,0.697387848984408,0.54049403342116,5.24726716942257,2.58198369837397,0.5,1.90226791876731,0.999999387219187,0.5,0.692912342262613,0.496825428701126,5.85041823985843,3.3323803546888,0.5,16.197615631697
155,1,38,B,3,1,l,27,1,0.95,3B,1B,0,1,0,1,B31,0.191572558504001,3.27714473299218,0.997978931907512,0.153543828868694,0.153543828868694,0.153543828868694,0.153543828868694,0.999960457065107,0.5,0.5,0.5,0.5,0.999960457065107,0.153543828868694,0.5,0.5,0.5,0.999987856852744,1.63249403342116,0,0,1,1B,3B,0.999960457065107,0.5,0.666657879116145,0.333342120883856,1,1,3.95429348930554e-05,2.7399787636685e-05,0.5,0.697387848984408,0.54049403342116,5.24726716942257,2.58198369837397,0.5,0.481320576082145,0.99849081700436,0.5,0.692912342262613,0.496825428701126,5.85041823985843,3.3323803546888,0.5,16.197615631697
155,1,39,C,3,2,l,63,1,0.95,3C,2C,0,1,0,1,C32,0.0858694652224852,2.37954613413017,0.997978931907512,0.153543828868694,0.153543828868694,0.153543828868694,0.153543828868694,0.999987856852744,0.5,0.5,0.5,0.5,0.999960457065107,0.153543828868694,0.5,0.5,0.5,0.999987856852744,0.739494033421159,0,0,1,2C,3C,0.999960457065107,0.153543828868694,0.866889242856697,0.133110757143303,1,1,3.95429348930554e-05,2.7399787636685e-05,0.5,0.697387848984408,0.54049403342116,5.24726716942257,2.58198369837397,0.5,2.49058871156015,0.999999388186415,0.5,0.692912342262613,0.496825428701126,5.85041823985843,3.3323803546888,0.5,16.197615631697
155,1,40,D,3,1,a,27,1,0.95,3D,1D,1,0,1,0,D31,0.207473142093426,4.00733318523247,0.997978931907512,0.153543828868694,0.153543828868694,0.153543828868694,0.153543828868694,0.999987856852744,0.5,0.5,0.5,0.5,0.999987856852744,0.153543828868694,0.5,0.5,0.5,0.999987856852744,2.58649403342116,1,1,0,3D,1D,0.999987856852744,0.5,0.666663968167653,0.333336031832347,1,1,1.21431472563938e-05,8.41413660786762e-06,0.5,0.697387848984408,0.54049403342116,5.24726716942257,2.58198369837397,0.5,0.0541401752441356,0.998494408689856,0.5,0.692912342262613,0.496825428701126,5.85041823985843,3.3323803546888,0.5,16.197615631697
155,1,41,C,1,2,l,9,1,0.95,1C,2C,0,1,0,1,C12,2.66879906572197,4.02535169073515,0.997978931907512,0.153543828868694,0.153543828868694,0.153543828868694,0.153543828868694,0.999987856852744,0.5,0.5,0.5,0.5,0.999987856852744,0.153543828868694,0.5,0.5,0.5,0.999996270989352,1.35649403342116,0,0,1,2C,1C,0.999987856852744,0.5,0.666663968167653,0.333336031832347,1,1,1.21431472563938e-05,8.41413660786762e-06,0.5,0.697387848984408,0.54049403342116,5.24726716942257,2.58198369837397,0.5,0.833888281218702,0.998497012456169,0.5,0.692912342262613,0.496825428701126,5.85041823985843,3.3323803546888,0.5,16.197615631697
155,1,42,B,0,1,l,63,0,0.95,0B,1B,0,1,1,0,B01,0.40388332629973,2.65675690671466,0.997978931907512,0.153543828868694,0.153543828868694,0.153543828868694,0.153543828868694,0.999987856852744,0.5,0.5,0.5,0.5,0.999996270989352,0.153543828868694,0.5,0.5,0.5,0.999996270989352,0.69549403342116,0,0,1,1B,0B,0.999987856852744,0.153543828868694,0.866892404630684,0.133107595369316,1,0,-0.999987856852744,-0.692903928126005,0.5,0.697387848984408,0.54049403342116,5.24726716942257,2.58198369837397,0.5,1.41985696250937,0.999999386431305,0.5,0.692912342262613,0.496825428701126,5.85041823985843,3.3323803546888,0.5,16.197615631697
155,1,43,D,3,2,a,63,1,0.95,3D,2D,1,0,1,0,D32,0.200490417130181,2.26868354131836,0.997978931907512,0.153543828868694,0.153543828868694,0.153543828868694,0.153543828868694,0.307083928726739,0.5,0.5,0.5,0.5,0.999996270989352,0.153543828868694,0.5,0.5,0.5,0.999996270989352,1.25149403342116,1,1,0,3D,2D,0.999996270989352,0.5,0.666665837995574,0.333334162004426,1,1,3.72901064848996e-06,2.5838775027674e-06,0.5,0.697387848984408,0.54049403342116,5.24726716942257,2.58198369837397,0.5,0.988943990172136,0.998499992646019,0.5,0.692912342262613,0.496825428701126,5.85041823985843,3.3323803546888,0.5,16.197615631697
155,1,44,A,0,1,a,63,1,0.95,0A,1A,1,0,1,0,A01,2.14978934720938,2.97892515523761,0.997978931907512,0.153543828868694,0.153543828868694,0.153543828868694,0.153543828868694,0.307083928726739,0.5,0.5,0.5,0.5,0.999996270989352,0.153543828868694,0.5,0.5,0.5,0.999998854866854,0.89549403342116,1,1,0,0A,1A,0.997978931907512,0.153543828868694,0.866660187623912,0.133339812376088,1,1,0.00202106809248792,0.00140042302583804,0.5,0.697387848984408,0.54049403342116,5.24726716942257,2.58198369837397,0.5,2.63411112557503,0.999999383951748,0.5,0.692912342262613,0.496825428701126,5.85041823985843,3.3323803546888,0.5,16.197615631697
