ID,session,trialNr,mod2Stim,visStimLeft,visStimRight,correctKey,frequency,rewardAccurate,probFB,stimPairLeft,stimPairRight,leftCorrect,rightCorrect,pCorrectLeft,pCorrectRight,triplet,rt,surprise,0A belief,1A belief,2A belief,3A belief,0B belief,1B belief,2B belief,3B belief,0C belief,1C belief,2C belief,3C belief,0D belief,1D belief,2D belief,3D belief,reactionTime,choice,choiceLeft,choiceRight,chosenPair,otherPair,beliefPair,beliefOtherPair,beliefPairNorm,beliefOtherPairNorm,choiceAccurate,reward,rewardPE,update2,sim_CBCsimpleRW_CBCdriftDiffusionLR_startBelief,sim_CBCsimpleRW_CBCdriftDiffusionLR_alpha1,sim_CBCsimpleRW_CBCdriftDiffusionLR_nonDecisionTime,sim_CBCsimpleRW_CBCdriftDiffusionLR_weight,sim_CBCsimpleRW_CBCdriftDiffusionLR_startingBoundary,sim_CBCsimpleRW_CBCdriftDiffusionLR_startingPoint,lik,corrLik,fitCBCsimpleRW_CBCdriftDiffusionLR_startBelief,fitCBCsimpleRW_CBCdriftDiffusionLR_alpha1,fitCBCsimpleRW_CBCdriftDiffusionLR_nonDecisionTime,fitCBCsimpleRW_CBCdriftDiffusionLR_weight,fitCBCsimpleRW_CBCdriftDiffusionLR_startingBoundary,fitCBCsimpleRW_CBCdriftDiffusionLR_startingPoint,fit_CBCsimpleRW_CBCdriftDiffusionLR_NLL
130,1,1,B,0,1,l,63,1,0.73,0B,1B,0,1,0,1,B01,0.509862921670357,2.77258872223978,0.5,0.5,0.5,0.5,0.5,0.5,0.5,0.5,0.5,0.5,0.5,0.5,0.5,0.5,0.5,0.5,0.5807974548862,1,1,0,0B,1B,0.5,0.5,0.5,0.5,0,0,-0.5,-0.496913545715812,0.5,0.961920274284115,0.5157974548862,9.01843137039908,1.44975131950152,0.5,0.433654117950848,0.499598989378466,0.5,0.993827091431624,0.510489397140188,8.44605459101599,1.41322199997379,0.5,-39.2932693839139
130,1,2,A,1,0,l,63,1,0.73,1A,0A,0,1,0,1,A10,3.07810777909259,2.83321334405622,0.5,0.5,0.5,0.5,0.00308645428418786,0.5,0.5,0.5,0.5,0.5,0.5,0.5,0.5,0.5,0.5,0.5,0.8687974548862,0,0,1,0A,1A,0.5,0.5,0.5,0.5,1,1,0.5,0.496913545715812,0.5,0.961920274284115,0.5157974548862,9.01843137039908,1.44975131950152,0.5,0.648024613718208,0.500520437392175,0.5,0.993827091431624,0.510489397140188,8.44605459101599,1.41322199997379,0.5,-39.2932693839139
130,1,3,C,2,1,a,9,1,0.73,2C,1C,1,0,1,0,C21,2.13652050753645,2.89037175789616,0.996913545715812,0.5,0.5,0.5,0.00308645428418786,0.5,0.5,0.5,0.5,0.5,0.5,0.5,0.5,0.5,0.5,0.5,0.7027974548862,0,0,1,1C,2C,0.5,0.5,0.5,0.5,0,0,-0.5,-0.496913545715812,0.5,0.961920274284115,0.5157974548862,9.01843137039908,1.44975131950152,0.5,0.912086519689861,0.499737950373865,0.5,0.993827091431624,0.510489397140188,8.44605459101599,1.41322199997379,0.5,-39.2932693839139
130,1,4,A,0,1,a,63,1,0.73,0A,1A,1,0,1,0,A01,1.71139990774363,2.94443897916644,0.996913545715812,0.5,0.5,0.5,0.00308645428418786,0.5,0.5,0.5,0.5,0.00308645428418786,0.5,0.5,0.5,0.5,0.5,0.5,0.6767974548862,1,1,0,0A,1A,0.996913545715812,0.5,0.665979373738044,0.334020626261955,1,1,0.00308645428418786,0.00306740188409109,0.5,0.961920274284115,0.5157974548862,9.01843137039908,1.44975131950152,0.5,3.49287348692921,0.981306742920911,0.5,0.993827091431624,0.510489397140188,8.44605459101599,1.41322199997379,0.5,-39.2932693839139
130,1,5,D,1,3,l,27,1,0.73,1D,3D,0,1,0,1,D13,1.63542543368444,2.99573227355399,0.999980947599903,0.5,0.5,0.5,0.00308645428418786,0.5,0.5,0.5,0.5,0.00308645428418786,0.5,0.5,0.5,0.5,0.5,0.5,1.3337974548862,0,0,1,3D,1D,0.5,0.5,0.5,0.5,1,1,0.5,0.496913545715812,0.5,0.961920274284115,0.5157974548862,9.01843137039908,1.44975131950152,0.5,0.205740031075637,0.500077874969735,0.5,0.993827091431624,0.510489397140188,8.44605459101599,1.41322199997379,0.5,-39.2932693839139
130,1,6,B,1,0,a,63,0,0.73,1B,0B,1,0,0,1,B10,2.64853928263959,3.04452243772342,0.999980947599903,0.5,0.5,0.5,0.00308645428418786,0.5,0.5,0.5,0.5,0.00308645428418786,0.5,0.5,0.5,0.5,0.5,0.996913545715812,0.5457974548862,1,1,0,1B,0B,0.5,0.00308645428418786,0.993864962457438,0.00613503754256193,1,0,-0.5,-0.496913545715812,0.5,0.961920274284115,0.5157974548862,9.01843137039908,1.44975131950152,0.5,3.83939864975321,0.999992430159559,0.5,0.993827091431624,0.510489397140188,8.44605459101599,1.41322199997379,0.5,-39.2932693839139
130,1,7,C,3,2,l,63,1,0.73,3C,2C,0,1,0,1,C32,0.780110015578402,3.09104245335832,0.999980947599903,0.5,0.5,0.5,0.00308645428418786,0.00308645428418786,0.5,0.5,0.5,0.00308645428418786,0.5,0.5,0.5,0.5,0.5,0.996913545715812,1.1667974548862,1,1,0,3C,2C,0.5,0.5,0.5,0.5,0,0,-0.5,-0.496913545715812,0.5,0.961920274284115,0.5157974548862,9.01843137039908,1.44975131950152,0.5,0.310929026886938,0.500239734697203,0.5,0.993827091431624,0.510489397140188,8.44605459101599,1.41322199997379,0.5,-39.2932693839139
130,1,8,A,0,2,a,27,0,0.73,0A,2A,1,0,0,1,A02,1.88778883377311,3.13549421592915,0.999980947599903,0.5,0.5,0.5,0.00308645428418786,0.00308645428418786,0.5,0.5,0.5,0.00308645428418786,0.5,0.00308645428418786,0.5,0.5,0.5,0.996913545715812,0.7307974548862,1,1,0,0A,2A,0.999980947599903,0.5,0.666662432746201,0.333337567253799,1,0,-0.999980947599903,-0.993808156640251,0.5,0.961920274284115,0.5157974548862,9.01843137039908,1.44975131950152,0.5,2.67920074175652,0.981608953635979,0.5,0.993827091431624,0.510489397140188,8.44605459101599,1.41322199997379,0.5,-39.2932693839139
130,1,9,D,2,3,l,63,1,0.73,2D,3D,0,1,0,1,D23,2.34857268806556,3.17805383034795,0.00617279095965195,0.5,0.5,0.5,0.00308645428418786,0.00308645428418786,0.5,0.5,0.5,0.00308645428418786,0.5,0.00308645428418786,0.5,0.5,0.5,0.996913545715812,0.7857974548862,0,0,1,3D,2D,0.996913545715812,0.5,0.665979373738044,0.334020626261955,1,1,0.00308645428418786,0.00306740188409109,0.5,0.961920274284115,0.5157974548862,9.01843137039908,1.44975131950152,0.5,1.93225958030968,0.981347725579188,0.5,0.993827091431624,0.510489397140188,8.44605459101599,1.41322199997379,0.5,-39.2932693839139
130,1,10,B,1,3,a,27,1,0.73,1B,3B,1,0,1,0,B13,2.05384503420892,3.2188758248682,0.00617279095965195,0.5,0.5,0.5,0.00308645428418786,0.00308645428418786,0.5,0.5,0.5,0.00308645428418786,0.5,0.00308645428418786,0.5,0.5,0.5,0.999980947599903,0.5617974548862,0,0,1,3B,1B,0.5,0.00308645428418786,0.993864962457438,0.00613503754256193,0,0,-0.5,-0.496913545715812,0.5,0.961920274284115,0.5157974548862,9.01843137039908,1.44975131950152,0.5,11.3854126705706,0.999992416020192,0.5,0.993827091431624,0.510489397140188,8.44605459101599,1.41322199997379,0.5,-39.2932693839139
130,1,11,C,2,3,a,63,0,0.73,2C,3C,1,0,0,1,C23,0.310110910720566,3.25809653802148,0.00617279095965195,0.5,0.5,0.5,0.00308645428418786,0.00308645428418786,0.5,0.00308645428418786,0.5,0.00308645428418786,0.5,0.00308645428418786,0.5,0.5,0.5,0.999980947599903,0.6207974548862,1,1,0,2C,3C,0.5,0.00308645428418786,0.993864962457438,0.00613503754256193,1,0,-0.5,-0.496913545715812,0.5,0.961920274284115,0.5157974548862,9.01843137039908,1.44975131950152,0.5,6.25825141583056,0.999992405052372,0.5,0.993827091431624,0.510489397140188,8.44605459101599,1.41322199997379,0.5,-39.2932693839139
130,1,12,B,3,1,l,27,1,0.73,3B,1B,0,1,0,1,B31,3.40337825787759,3.29583686600433,0.00617279095965195,0.5,0.5,0.5,0.00308645428418786,0.00308645428418786,0.5,0.00308645428418786,0.5,0.00308645428418786,0.00308645428418786,0.00308645428418786,0.5,0.5,0.5,0.999980947599903,1.7257974548862,1,1,0,3B,1B,0.00308645428418786,0.00308645428418786,0.5,0.5,0,0,-0.00308645428418786,-0.00306740188409109,0.5,0.961920274284115,0.5157974548862,9.01843137039908,1.44975131950152,0.5,0.0781202194575788,0.500185071842924,0.5,0.993827091431624,0.510489397140188,8.44605459101599,1.41322199997379,0.5,-39.2932693839139
130,1,13,C,2,3,a,63,1,0.73,2C,3C,1,0,1,0,C23,0.917813875444971,2.63905732961526,0.00617279095965195,0.5,0.5,0.5,0.00308645428418786,0.00308645428418786,0.5,1.90524000967633e-05,0.5,0.00308645428418786,0.00308645428418786,0.00308645428418786,0.5,0.5,0.5,0.999980947599903,0.5887974548862,1,1,0,2C,3C,0.00308645428418786,0.00308645428418786,0.5,0.5,1,1,0.996913545715812,0.990759689547533,0.5,0.961920274284115,0.5157974548862,9.01843137039908,1.44975131950152,0.5,0.530936790884616,0.50024415478231,0.5,0.993827091431624,0.510489397140188,8.44605459101599,1.41322199997379,0.5,-39.2932693839139
130,1,14,D,2,3,l,63,1,0.73,2D,3D,0,1,0,1,D23,1.74529693917324,2.67414864942653,0.00617279095965195,0.5,0.5,0.5,0.00308645428418786,0.00308645428418786,0.5,1.90524000967633e-05,0.5,0.00308645428418786,0.993846143831721,0.00308645428418786,0.5,0.5,0.5,0.999980947599903,0.9937974548862,0,0,1,3D,2D,0.999980947599903,0.5,0.666662432746201,0.333337567253799,1,1,1.90524000968084e-05,1.89347913730027e-05,0.5,0.961920274284115,0.5157974548862,9.01843137039908,1.44975131950152,0.5,0.512881376941003,0.981643863646976,0.5,0.993827091431624,0.510489397140188,8.44605459101599,1.41322199997379,0.5,-39.2932693839139
130,1,15,A,3,0,l,9,1,0.73,3A,0A,0,1,0,1,A30,2.77716024723022,3.40119738166216,0.00617279095965195,0.5,0.5,0.5,0.00308645428418786,0.00308645428418786,0.5,1.90524000967633e-05,0.5,0.00308645428418786,0.993846143831721,0.00308645428418786,0.5,0.5,0.5,0.999999882391276,0.6047974548862,1,1,0,3A,0A,0.5,0.00617279095965195,0.987804972788148,0.0121950272118518,0,0,-0.5,-0.496913545715812,0.5,0.961920274284115,0.5157974548862,9.01843137039908,1.44975131950152,0.5,9.47957792163713,0.999991252300044,0.5,0.993827091431624,0.510489397140188,8.44605459101599,1.41322199997379,0.5,-39.2932693839139
130,1,16,B,1,0,a,63,0,0.73,1B,0B,1,0,0,1,B10,3.10895261468838,2.7408400239252,0.00617279095965195,0.5,0.5,0.00308645428418786,0.00308645428418786,0.00308645428418786,0.5,1.90524000967633e-05,0.5,0.00308645428418786,0.993846143831721,0.00308645428418786,0.5,0.5,0.5,0.999999882391276,0.6627974548862,1,1,0,1B,0B,0.00308645428418786,0.00308645428418786,0.5,0.5,1,0,-0.00308645428418786,-0.00306740188409109,0.5,0.961920274284115,0.5157974548862,9.01843137039908,1.44975131950152,0.5,0.91972131553182,0.499434655717599,0.5,0.993827091431624,0.510489397140188,8.44605459101599,1.41322199997379,0.5,-39.2932693839139
130,1,17,D,3,2,a,63,1,0.73,3D,2D,1,0,1,0,D32,0.800814813288124,3.46573590279973,0.00617279095965195,0.5,0.5,0.00308645428418786,0.00308645428418786,1.90524000967633e-05,0.5,1.90524000967633e-05,0.5,0.00308645428418786,0.993846143831721,0.00308645428418786,0.5,0.5,0.5,0.999999882391276,0.6707974548862,1,1,0,3D,2D,0.999999882391276,0.5,0.666666640531393,0.333333359468607,1,1,1.17608723759766e-07,1.16882735861153e-07,0.5,0.961920274284115,0.5157974548862,9.01843137039908,1.44975131950152,0.5,3.58376600685121,0.981626261942212,0.5,0.993827091431624,0.510489397140188,8.44605459101599,1.41322199997379,0.5,-39.2932693839139
130,1,18,C,2,0,a,27,0,0.73,2C,0C,1,0,0,1,C20,3.02233104166498,3.49650756146648,0.00617279095965195,0.5,0.5,0.00308645428418786,0.00308645428418786,1.90524000967633e-05,0.5,1.90524000967633e-05,0.5,0.00308645428418786,0.993846143831721,0.00308645428418786,0.5,0.5,0.5,0.999999999274012,0.6457974548862,1,1,0,2C,0C,0.993846143831721,0.5,0.665293509599658,0.334706490400342,1,0,-0.993846143831721,-0.987711222454815,0.5,0.961920274284115,0.5157974548862,9.01843137039908,1.44975131950152,0.5,3.79721980238888,0.98100953828721,0.5,0.993827091431624,0.510489397140188,8.44605459101599,1.41322199997379,0.5,-39.2932693839139
130,1,19,A,1,0,l,63,1,0.73,1A,0A,0,1,0,1,A10,2.58410552029703,2.83321334405622,0.00617279095965195,0.5,0.5,0.00308645428418786,0.00308645428418786,1.90524000967633e-05,0.5,1.90524000967633e-05,0.5,0.00308645428418786,0.00613492137690597,0.00308645428418786,0.5,0.5,0.5,0.999999999274012,0.5757974548862,1,1,0,1A,0A,0.5,0.00617279095965195,0.987804972788148,0.0121950272118518,0,0,-0.5,-0.496913545715812,0.5,0.961920274284115,0.5157974548862,9.01843137039908,1.44975131950152,0.5,13.5914168598749,0.999991236379576,0.5,0.993827091431624,0.510489397140188,8.44605459101599,1.41322199997379,0.5,-39.2932693839139
130,1,20,B,0,1,l,63,1,0.73,0B,1B,0,1,0,1,B01,1.46515791496044,2.86220088092947,0.00617279095965195,0.00308645428418786,0.5,0.00308645428418786,0.00308645428418786,1.90524000967633e-05,0.5,1.90524000967633e-05,0.5,0.00308645428418786,0.00613492137690597,0.00308645428418786,0.5,0.5,0.5,0.999999999274012,0.6937974548862,1,1,0,0B,1B,0.00308645428418786,1.90524000967633e-05,0.993864962457438,0.00613503754256198,0,0,-0.00308645428418786,-0.00306740188409109,0.5,0.961920274284115,0.5157974548862,9.01843137039908,1.44975131950152,0.5,0.566606039281963,0.999992429251089,0.5,0.993827091431624,0.510489397140188,8.44605459101599,1.41322199997379,0.5,-39.2932693839139
130,1,21,D,3,1,a,27,0,0.73,3D,1D,1,0,0,1,D31,2.0014888528125,3.58351893845611,0.00617279095965195,0.00308645428418786,0.5,0.00308645428418786,1.90524000967633e-05,1.90524000967633e-05,0.5,1.90524000967633e-05,0.5,0.00308645428418786,0.00613492137690597,0.00308645428418786,0.5,0.5,0.5,0.999999999274012,0.7417974548862,1,1,0,3D,1D,0.999999999274012,0.5,0.666666666505336,0.333333333494664,1,0,-0.999999999274012,-0.993827090710118,0.5,0.961920274284115,0.5157974548862,9.01843137039908,1.44975131950152,0.5,2.51597048098889,0.981648887837004,0.5,0.993827091431624,0.510489397140188,8.44605459101599,1.41322199997379,0.5,-39.2932693839139
130,1,22,C,2,3,a,63,1,0.73,2C,3C,1,0,1,0,C23,0.555290386487988,2.51230562397611,0.00617279095965195,0.00308645428418786,0.5,0.00308645428418786,1.90524000967633e-05,1.90524000967633e-05,0.5,1.90524000967633e-05,0.5,0.00308645428418786,0.00613492137690597,0.00308645428418786,0.5,0.5,0.5,0.0061729085638943,0.6427974548862,1,1,0,2C,3C,0.00613492137690597,0.00308645428418786,0.665293509599657,0.334706490400343,1,1,0.993865078623094,0.987730040363452,0.5,0.961920274284115,0.5157974548862,9.01843137039908,1.44975131950152,0.5,3.81210098314471,0.981042923008521,0.5,0.993827091431624,0.510489397140188,8.44605459101599,1.41322199997379,0.5,-39.2932693839139
130,1,23,A,1,0,l,63,0,0.73,1A,0A,0,1,1,0,A10,0.586295352889541,2.53897387105828,0.00617279095965195,0.00308645428418786,0.5,0.00308645428418786,1.90524000967633e-05,1.90524000967633e-05,0.5,1.90524000967633e-05,0.5,0.00308645428418786,0.993864961740358,0.00308645428418786,0.5,0.5,0.5,0.0061729085638943,0.8197974548862,0,0,1,0A,1A,0.00617279095965195,0.00308645428418786,0.666662432746203,0.333337567253797,1,0,-0.00617279095965195,-0.00613468688544633,0.5,0.961920274284115,0.5157974548862,9.01843137039908,1.44975131950152,0.5,1.56110833371853,0.981667021841126,0.5,0.993827091431624,0.510489397140188,8.44605459101599,1.41322199997379,0.5,-39.2932693839139
130,1,24,D,3,2,a,63,1,0.73,3D,2D,1,0,1,0,D32,2.83193236476352,2.9704144655697,3.81040742056275e-05,0.00308645428418786,0.5,0.00308645428418786,1.90524000967633e-05,1.90524000967633e-05,0.5,1.90524000967633e-05,0.5,0.00308645428418786,0.993864961740358,0.00308645428418786,0.5,0.5,0.5,0.0061729085638943,0.6067974548862,0,0,1,2D,3D,0.5,0.0061729085638943,0.987804743281485,0.0121952567185154,0,0,-0.5,-0.496913545715812,0.5,0.961920274284115,0.5157974548862,9.01843137039908,1.44975131950152,0.5,9.06808563671729,0.999991245968771,0.5,0.993827091431624,0.510489397140188,8.44605459101599,1.41322199997379,0.5,-39.2932693839139
130,1,25,C,0,2,l,27,1,0.73,0C,2C,0,1,0,1,C02,3.33009212524918,3.68887945411394,3.81040742056275e-05,0.00308645428418786,0.5,0.00308645428418786,1.90524000967633e-05,1.90524000967633e-05,0.5,1.90524000967633e-05,0.5,0.00308645428418786,0.993864961740358,0.00308645428418786,0.5,0.5,0.00308645428418786,0.0061729085638943,1.0407974548862,0,0,1,2C,0C,0.993864961740358,0.5,0.665297725828245,0.334702274171755,1,1,0.0061350382596419,0.00609716722940164,0.5,0.961920274284115,0.5157974548862,9.01843137039908,1.44975131950152,0.5,0.386570137417928,0.980993270170361,0.5,0.993827091431624,0.510489397140188,8.44605459101599,1.41322199997379,0.5,-39.2932693839139
130,1,26,A,1,0,l,63,1,0.73,1A,0A,0,1,0,1,A10,1.19702454443458,2.32727770558442,3.81040742056275e-05,0.00308645428418786,0.5,0.00308645428418786,1.90524000967633e-05,1.90524000967633e-05,0.5,1.90524000967633e-05,0.5,0.00308645428418786,0.99996212896976,0.00308645428418786,0.5,0.5,0.00308645428418786,0.0061729085638943,0.5877974548862,1,1,0,1A,0A,0.00308645428418786,3.81040742056275e-05,0.987804972788148,0.0121950272118518,0,0,-0.00308645428418786,-0.00306740188409109,0.5,0.961920274284115,0.5157974548862,9.01843137039908,1.44975131950152,0.5,12.7105605962409,0.999991243040996,0.5,0.993827091431624,0.510489397140188,8.44605459101599,1.41322199997379,0.5,-39.2932693839139
130,1,27,B,3,1,l,27,0,0.73,3B,1B,0,1,1,0,B31,1.21196414548275,3.04452243772342,3.81040742056275e-05,1.90524000967633e-05,0.5,0.00308645428418786,1.90524000967633e-05,1.90524000967633e-05,0.5,1.90524000967633e-05,0.5,0.00308645428418786,0.99996212896976,0.00308645428418786,0.5,0.5,0.00308645428418786,0.0061729085638943,1.1567974548862,1,1,0,3B,1B,1.90524000967633e-05,1.90524000967633e-05,0.5,0.5,0,1,0.999980947599903,0.993808156640251,0.5,0.961920274284115,0.5157974548862,9.01843137039908,1.44975131950152,0.5,0.318459889206823,0.499852051891739,0.5,0.993827091431624,0.510489397140188,8.44605459101599,1.41322199997379,0.5,-39.2932693839139
130,1,28,C,2,3,a,63,1,0.73,2C,3C,1,0,1,0,C23,3.36624518178565,2.37490575457367,3.81040742056275e-05,1.90524000967633e-05,0.5,0.00308645428418786,1.90524000967633e-05,1.90524000967633e-05,0.5,0.993827209040348,0.5,0.00308645428418786,0.99996212896976,0.00308645428418786,0.5,0.5,0.00308645428418786,0.0061729085638943,0.5457974548862,1,1,0,2C,3C,0.99996212896976,0.00308645428418786,0.996922926430767,0.00307707356923353,1,1,3.78710302402219e-05,3.76372558331588e-05,0.5,0.961920274284115,0.5157974548862,9.01843137039908,1.44975131950152,0.5,3.92287568850002,0.999992969698238,0.5,0.993827091431624,0.510489397140188,8.44605459101599,1.41322199997379,0.5,-39.2932693839139
130,1,29,D,2,3,l,63,0,0.73,2D,3D,0,1,1,0,D23,0.0497581419876693,2.68557734525015,3.81040742056275e-05,1.90524000967633e-05,0.5,0.00308645428418786,1.90524000967633e-05,1.90524000967633e-05,0.5,0.993827209040348,0.5,0.00308645428418786,0.999999766225593,0.00308645428418786,0.5,0.5,0.00308645428418786,0.0061729085638943,0.7497974548862,0,0,1,3D,2D,0.0061729085638943,0.00308645428418786,0.666666666505338,0.333333333494662,1,0,-0.0061729085638943,-0.00613480376372843,0.5,0.961920274284115,0.5157974548862,9.01843137039908,1.44975131950152,0.5,2.4009021611638,0.981652014936413,0.5,0.993827091431624,0.510489397140188,8.44605459101599,1.41322199997379,0.5,-39.2932693839139
130,1,30,B,1,0,a,63,1,0.73,1B,0B,1,0,1,0,B10,1.79176314630771,2.70805020110221,3.81040742056275e-05,1.90524000967633e-05,0.5,0.00308645428418786,1.90524000967633e-05,1.90524000967633e-05,0.5,0.993827209040348,0.5,0.00308645428418786,0.999999766225593,0.00308645428418786,0.5,0.5,0.00308645428418786,3.8104800165863e-05,1.1087974548862,0,0,1,0B,1B,1.90524000967633e-05,1.90524000967633e-05,0.5,0.5,0,0,-1.90524000967633e-05,-1.89347913729579e-05,0.5,0.961920274284115,0.5157974548862,9.01843137039908,1.44975131950152,0.5,0.358676244008088,0.50001979884551,0.5,0.993827091431624,0.510489397140188,8.44605459101599,1.41322199997379,0.5,-39.2932693839139
130,1,31,A,0,2,a,27,1,0.73,0A,2A,1,0,1,0,A02,2.5952893142494,3.13549421592915,3.81040742056275e-05,1.90524000967633e-05,0.5,0.00308645428418786,1.17608723805431e-07,1.90524000967633e-05,0.5,0.993827209040348,0.5,0.00308645428418786,0.999999766225593,0.00308645428418786,0.5,0.5,0.00308645428418786,3.8104800165863e-05,0.6127974548862,0,0,1,2A,0A,0.5,3.81040742056275e-05,0.999923797658828,7.62023411719297e-05,0,0,-0.5,-0.496913545715812,0.5,0.961920274284115,0.5157974548862,9.01843137039908,1.44975131950152,0.5,7.62932438607656,0.999993463763565,0.5,0.993827091431624,0.510489397140188,8.44605459101599,1.41322199997379,0.5,-39.2932693839139
130,1,32,D,0,3,l,9,1,0.73,0D,3D,0,1,0,1,D03,3.2693822054968,3.85014760171006,3.81040742056275e-05,1.90524000967633e-05,0.00308645428418786,0.00308645428418786,1.17608723805431e-07,1.90524000967633e-05,0.5,0.993827209040348,0.5,0.00308645428418786,0.999999766225593,0.00308645428418786,0.5,0.5,0.00308645428418786,3.8104800165863e-05,0.6097974548862,1,1,0,0D,3D,0.5,3.8104800165863e-05,0.999923796207129,7.62037928711275e-05,0,0,-0.5,-0.496913545715812,0.5,0.961920274284115,0.5157974548862,9.01843137039908,1.44975131950152,0.5,8.25271229510519,0.99999342336427,0.5,0.993827091431624,0.510489397140188,8.44605459101599,1.41322199997379,0.5,-39.2932693839139
130,1,33,C,2,3,a,63,1,0.73,2C,3C,1,0,1,0,C23,3.05665531000095,2.26176309847379,3.81040742056275e-05,1.90524000967633e-05,0.00308645428418786,0.00308645428418786,1.17608723805431e-07,1.90524000967633e-05,0.5,0.993827209040348,0.5,0.00308645428418786,0.999999766225593,0.00308645428418786,0.00308645428418786,0.5,0.00308645428418786,3.8104800165863e-05,0.5727974548862,1,1,0,2C,3C,0.999999766225593,0.00308645428418786,0.996923041887048,0.00307695811295193,1,1,2.33774407054632e-07,2.32331339014258e-07,0.5,0.961920274284115,0.5157974548862,9.01843137039908,1.44975131950152,0.5,13.8302276140611,0.999992954427949,0.5,0.993827091431624,0.510489397140188,8.44605459101599,1.41322199997379,0.5,-39.2932693839139
130,1,34,B,1,0,a,63,1,0.73,1B,0B,1,0,1,0,B10,3.00137153673375,2.50552593699074,3.81040742056275e-05,1.90524000967633e-05,0.00308645428418786,0.00308645428418786,1.17608723805431e-07,1.90524000967633e-05,0.5,0.993827209040348,0.5,0.00308645428418786,0.999999998556932,0.00308645428418786,0.00308645428418786,0.5,0.00308645428418786,3.8104800165863e-05,0.5897974548862,1,1,0,1B,0B,1.90524000967633e-05,1.17608723805431e-07,0.993864962457438,0.00613503754256184,1,1,0.999980947599903,0.993808156640251,0.5,0.961920274284115,0.5157974548862,9.01843137039908,1.44975131950152,0.5,12.4618726620835,0.999992423673425,0.5,0.993827091431624,0.510489397140188,8.44605459101599,1.41322199997379,0.5,-39.2932693839139
130,1,35,A,1,0,l,63,0,0.73,1A,0A,0,1,1,0,A10,1.80367018151313,2.30258509299405,3.81040742056275e-05,1.90524000967633e-05,0.00308645428418786,0.00308645428418786,1.17608723805431e-07,0.993827209040348,0.5,0.993827209040348,0.5,0.00308645428418786,0.999999998556932,0.00308645428418786,0.00308645428418786,0.5,0.00308645428418786,3.8104800165863e-05,0.6337974548862,0,0,1,0A,1A,3.81040742056275e-05,1.90524000967633e-05,0.6666624327462,0.3333375672538,1,0,-3.81040742056275e-05,-3.78688612394736e-05,0.5,0.961920274284115,0.5157974548862,9.01843137039908,1.44975131950152,0.5,3.85715747051497,0.98166689420792,0.5,0.993827091431624,0.510489397140188,8.44605459101599,1.41322199997379,0.5,-39.2932693839139
130,1,36,D,3,2,a,63,1,0.73,3D,2D,1,0,1,0,D32,0.463559773247811,2.83321334405622,2.35212966153942e-07,1.90524000967633e-05,0.00308645428418786,0.00308645428418786,1.17608723805431e-07,0.993827209040348,0.5,0.993827209040348,0.5,0.00308645428418786,0.999999998556932,0.00308645428418786,0.00308645428418786,0.5,0.00308645428418786,3.8104800165863e-05,0.6107974548862,0,0,1,2D,3D,0.00308645428418786,3.8104800165863e-05,0.987804743281485,0.0121952567185154,0,0,-0.00308645428418786,-0.00306740188409109,0.5,0.961920274284115,0.5157974548862,9.01843137039908,1.44975131950152,0.5,8.25910022791064,0.999991241279075,0.5,0.993827091431624,0.510489397140188,8.44605459101599,1.41322199997379,0.5,-39.2932693839139
130,1,37,B,2,1,l,9,1,0.73,2B,1B,0,1,0,1,B21,2.15338711647241,3.95124371858143,2.35212966153942e-07,1.90524000967633e-05,0.00308645428418786,0.00308645428418786,1.17608723805431e-07,0.993827209040348,0.5,0.993827209040348,0.5,0.00308645428418786,0.999999998556932,0.00308645428418786,0.00308645428418786,0.5,1.90524000967633e-05,3.8104800165863e-05,0.8837974548862,0,0,1,1B,2B,0.993827209040348,0.5,0.665289267075805,0.334710732924195,1,1,0.00617279095965195,0.00613468688544633,0.5,0.961920274284115,0.5157974548862,9.01843137039908,1.44975131950152,0.5,1.04822476139619,0.980987080175297,0.5,0.993827091431624,0.510489397140188,8.44605459101599,1.41322199997379,0.5,-39.2932693839139
130,1,38,A,0,2,a,27,1,0.73,0A,2A,1,0,1,0,A02,3.42459025916678,2.87167962488401,2.35212966153942e-07,1.90524000967633e-05,0.00308645428418786,0.00308645428418786,1.17608723805431e-07,0.999961895925794,0.5,0.993827209040348,0.5,0.00308645428418786,0.999999998556932,0.00308645428418786,0.00308645428418786,0.5,1.90524000967633e-05,3.8104800165863e-05,0.5747974548862,0,0,1,2A,0A,0.00308645428418786,2.35212966153942e-07,0.999923797658828,7.62023411719297e-05,0,0,-0.00308645428418786,-0.00306740188409109,0.5,0.961920274284115,0.5157974548862,9.01843137039908,1.44975131950152,0.5,14.0416670353502,0.999993444206099,0.5,0.993827091431624,0.510489397140188,8.44605459101599,1.41322199997379,0.5,-39.2932693839139
130,1,39,C,3,2,l,63,0,0.73,3C,2C,0,1,1,0,C32,1.19835706105824,3.29583686600433,2.35212966153942e-07,1.90524000967633e-05,1.90524000967633e-05,0.00308645428418786,1.17608723805431e-07,0.999961895925794,0.5,0.993827209040348,0.5,0.00308645428418786,0.999999998556932,0.00308645428418786,0.00308645428418786,0.5,1.90524000967633e-05,3.8104800165863e-05,0.5737974548862,0,0,1,2C,3C,0.999999998556932,0.00308645428418786,0.996923042599722,0.00307695740027776,1,0,-0.999999998556932,-0.993827089997464,0.5,0.961920274284115,0.5157974548862,9.01843137039908,1.44975131950152,0.5,13.8839390087943,0.999992937514054,0.5,0.993827091431624,0.510489397140188,8.44605459101599,1.41322199997379,0.5,-39.2932693839139
130,1,40,D,3,1,a,27,1,0.73,3D,1D,1,0,1,0,D31,1.58768219748084,3.31418600467253,2.35212966153942e-07,1.90524000967633e-05,1.90524000967633e-05,0.00308645428418786,1.17608723805431e-07,0.999961895925794,0.5,0.993827209040348,0.5,0.00308645428418786,0.00617290855946784,0.00308645428418786,0.00308645428418786,0.5,1.90524000967633e-05,3.8104800165863e-05,0.6017974548862,0,0,1,1D,3D,0.5,3.8104800165863e-05,0.999923796207129,7.62037928711275e-05,0,0,-0.5,-0.496913545715812,0.5,0.961920274284115,0.5157974548862,9.01843137039908,1.44975131950152,0.5,9.98723454516438,0.999993438361626,0.5,0.993827091431624,0.510489397140188,8.44605459101599,1.41322199997379,0.5,-39.2932693839139
130,1,41,A,1,0,l,63,1,0.73,1A,0A,0,1,0,1,A10,0.57306453621774,2.23359222150709,2.35212966153942e-07,1.90524000967633e-05,1.90524000967633e-05,0.00308645428418786,1.17608723805431e-07,0.999961895925794,0.5,0.993827209040348,0.5,0.00308645428418786,0.00617290855946784,0.00308645428418786,0.00308645428418786,0.00308645428418786,1.90524000967633e-05,3.8104800165863e-05,0.5507974548862,1,1,0,1A,0A,1.90524000967633e-05,2.35212966153942e-07,0.987804972788148,0.0121950272118517,0,0,-1.90524000967633e-05,-1.89347913729579e-05,0.5,0.961920274284115,0.5157974548862,9.01843137039908,1.44975131950152,0.5,6.11634620867043,0.999991231839008,0.5,0.993827091431624,0.510489397140188,8.44605459101599,1.41322199997379,0.5,-39.2932693839139
130,1,42,C,2,0,a,27,1,0.73,2C,0C,1,0,1,0,C20,2.04553811540882,3.3499040872746,2.35212966153942e-07,1.17608723805431e-07,1.90524000967633e-05,0.00308645428418786,1.17608723805431e-07,0.999961895925794,0.5,0.993827209040348,0.5,0.00308645428418786,0.00617290855946784,0.00308645428418786,0.00308645428418786,0.00308645428418786,1.90524000967633e-05,3.8104800165863e-05,0.6207974548862,0,0,1,0C,2C,0.5,0.00617290855946784,0.987804743290123,0.0121952567098771,0,0,-0.5,-0.496913545715812,0.5,0.961920274284115,0.5157974548862,9.01843137039908,1.44975131950152,0.5,6.39217280146642,0.999991229212442,0.5,0.993827091431624,0.510489397140188,8.44605459101599,1.41322199997379,0.5,-39.2932693839139
130,1,43,D,2,3,l,63,0,0.73,2D,3D,0,1,1,0,D23,2.46889832605152,2.67414864942653,2.35212966153942e-07,1.17608723805431e-07,1.90524000967633e-05,0.00308645428418786,1.17608723805431e-07,0.999961895925794,0.5,0.993827209040348,0.00308645428418786,0.00308645428418786,0.00617290855946784,0.00308645428418786,0.00308645428418786,0.00308645428418786,1.90524000967633e-05,3.8104800165863e-05,1.0507974548862,0,0,1,3D,2D,3.8104800165863e-05,1.90524000967633e-05,0.666666666505336,0.333333333494664,1,0,-3.8104800165863e-05,-3.78695827184229e-05,0.5,0.961920274284115,0.5157974548862,9.01843137039908,1.44975131950152,0.5,0.355811745567666,0.981612204947257,0.5,0.993827091431624,0.510489397140188,8.44605459101599,1.41322199997379,0.5,-39.2932693839139
130,1,44,B,0,1,l,63,1,0.73,0B,1B,0,1,0,1,B01,1.98745514071349,2.97892515523761,2.35212966153942e-07,1.17608723805431e-07,1.90524000967633e-05,0.00308645428418786,1.17608723805431e-07,0.999961895925794,0.5,0.993827209040348,0.00308645428418786,0.00308645428418786,0.00617290855946784,0.00308645428418786,0.00308645428418786,0.00308645428418786,1.90524000967633e-05,2.352174474401e-07,0.5997974548862,0,0,1,1B,0B,0.999961895925794,1.17608723805431e-07,0.999999882386808,1.17613191514871e-07,1,1,3.81040742056804e-05,3.78688612395261e-05,0.5,0.961920274284115,0.5157974548862,9.01843137039908,1.44975131950152,0.5,10.428426490774,0.999993453344792,0.5,0.993827091431624,0.510489397140188,8.44605459101599,1.41322199997379,0.5,-39.2932693839139
