ID,session,trialNr,mod2Stim,visStimLeft,visStimRight,correctKey,frequency,rewardAccurate,probFB,stimPairLeft,stimPairRight,leftCorrect,rightCorrect,pCorrectLeft,pCorrectRight,triplet,rt,surprise,0A belief,1A belief,2A belief,3A belief,0B belief,1B belief,2B belief,3B belief,0C belief,1C belief,2C belief,3C belief,0D belief,1D belief,2D belief,3D belief,reactionTime,choice,choiceLeft,choiceRight,chosenPair,otherPair,beliefPair,beliefOtherPair,beliefPairNorm,beliefOtherPairNorm,choiceAccurate,reward,rewardPE,update2,sim_CBCsimpleRW_CBCdriftDiffusionLR_startBelief,sim_CBCsimpleRW_CBCdriftDiffusionLR_alpha1,sim_CBCsimpleRW_CBCdriftDiffusionLR_nonDecisionTime,sim_CBCsimpleRW_CBCdriftDiffusionLR_weight,sim_CBCsimpleRW_CBCdriftDiffusionLR_startingBoundary,sim_CBCsimpleRW_CBCdriftDiffusionLR_startingPoint,lik,corrLik,fitCBCsimpleRW_CBCdriftDiffusionLR_startBelief,fitCBCsimpleRW_CBCdriftDiffusionLR_alpha1,fitCBCsimpleRW_CBCdriftDiffusionLR_nonDecisionTime,fitCBCsimpleRW_CBCdriftDiffusionLR_weight,fitCBCsimpleRW_CBCdriftDiffusionLR_startingBoundary,fitCBCsimpleRW_CBCdriftDiffusionLR_startingPoint,fit_CBCsimpleRW_CBCdriftDiffusionLR_NLL
189,1,1,A,0,1,a,63,1,0.95,0A,1A,1,0,1,0,A01,1.94710779041153,2.77258872223978,0.5,0.5,0.5,0.5,0.5,0.5,0.5,0.5,0.5,0.5,0.5,0.5,0.5,0.5,0.5,0.5,1.23027465264944,0,0,1,1A,0A,0.5,0.5,0.5,0.5,0,0,-0.5,-0.491749532537634,0.5,0.882115218288795,0.569274652649442,1.9094245708295,1.95729094569186,0.5,0.337996606615232,0.499872503668444,0.5,0.983499065075268,0.553590783405911,1.58943264137313,2.02149124398979,0.5,40.2637082757601
189,1,2,C,2,3,a,63,1,0.95,2C,3C,1,0,1,0,C23,2.81434814426013,2.83321334405622,0.5,0.00825046746236585,0.5,0.5,0.5,0.5,0.5,0.5,0.5,0.5,0.5,0.5,0.5,0.5,0.5,0.5,1.30827465264944,0,0,1,3C,2C,0.5,0.5,0.5,0.5,0,0,-0.5,-0.491749532537634,0.5,0.882115218288795,0.569274652649442,1.9094245708295,1.95729094569186,0.5,0.30805706647942,0.499440449968472,0.5,0.983499065075268,0.553590783405911,1.58943264137313,2.02149124398979,0.5,40.2637082757601
189,1,3,A,2,0,l,27,1,0.95,2A,0A,0,1,0,1,A20,3.04393883999685,2.89037175789616,0.5,0.00825046746236585,0.5,0.5,0.5,0.5,0.5,0.5,0.5,0.5,0.5,0.00825046746236585,0.5,0.5,0.5,0.5,1.06627465264944,1,1,0,2A,0A,0.5,0.5,0.5,0.5,0,0,-0.5,-0.491749532537634,0.5,0.882115218288795,0.569274652649442,1.9094245708295,1.95729094569186,0.5,0.404441219717271,0.499113639026734,0.5,0.983499065075268,0.553590783405911,1.58943264137313,2.02149124398979,0.5,40.2637082757601
189,1,4,B,0,1,l,63,1,0.95,0B,1B,0,1,0,1,B01,0.824375886336637,2.94443897916644,0.5,0.00825046746236585,0.00825046746236585,0.5,0.5,0.5,0.5,0.5,0.5,0.5,0.5,0.00825046746236585,0.5,0.5,0.5,0.5,1.10527465264944,1,1,0,0B,1B,0.5,0.5,0.5,0.5,0,0,-0.5,-0.491749532537634,0.5,0.882115218288795,0.569274652649442,1.9094245708295,1.95729094569186,0.5,0.389042000431791,0.499866539669903,0.5,0.983499065075268,0.553590783405911,1.58943264137313,2.02149124398979,0.5,40.2637082757601
189,1,5,D,3,2,a,63,1,0.95,3D,2D,1,0,1,0,D32,2.65181104931808,2.99573227355399,0.5,0.00825046746236585,0.00825046746236585,0.5,0.00825046746236585,0.5,0.5,0.5,0.5,0.5,0.5,0.00825046746236585,0.5,0.5,0.5,0.5,1.08327465264944,1,1,0,3D,2D,0.5,0.5,0.5,0.5,1,1,0.5,0.491749532537634,0.5,0.882115218288795,0.569274652649442,1.9094245708295,1.95729094569186,0.5,0.397833827891806,0.499505859562835,0.5,0.983499065075268,0.553590783405911,1.58943264137313,2.02149124398979,0.5,40.2637082757601
189,1,6,B,2,1,l,9,1,0.95,2B,1B,0,1,0,1,B21,1.47406458587327,3.04452243772342,0.5,0.00825046746236585,0.00825046746236585,0.5,0.00825046746236585,0.5,0.5,0.5,0.5,0.5,0.5,0.00825046746236585,0.5,0.5,0.5,0.991749532537634,1.49027465264944,0,0,1,1B,2B,0.5,0.5,0.5,0.5,1,1,0.5,0.491749532537634,0.5,0.882115218288795,0.569274652649442,1.9094245708295,1.95729094569186,0.5,0.248127038662871,0.500313200751162,0.5,0.983499065075268,0.553590783405911,1.58943264137313,2.02149124398979,0.5,40.2637082757601
189,1,7,D,3,1,a,27,1,0.95,3D,1D,1,0,1,0,D31,3.19752793037894,3.09104245335832,0.5,0.00825046746236585,0.00825046746236585,0.5,0.00825046746236585,0.991749532537634,0.5,0.5,0.5,0.5,0.5,0.00825046746236585,0.5,0.5,0.5,0.991749532537634,1.84927465264944,1,1,0,3D,1D,0.991749532537634,0.5,0.664823089202218,0.335176910797782,1,1,0.0082504674623658,0.00811432703567068,0.5,0.882115218288795,0.569274652649442,1.9094245708295,1.95729094569186,0.5,0.228523970726399,0.742278721640359,0.5,0.983499065075268,0.553590783405911,1.58943264137313,2.02149124398979,0.5,40.2637082757601
189,1,8,A,0,1,a,63,1,0.95,0A,1A,1,0,1,0,A01,0.326515796809095,2.4423470353692,0.5,0.00825046746236585,0.00825046746236585,0.5,0.00825046746236585,0.991749532537634,0.5,0.5,0.5,0.5,0.5,0.00825046746236585,0.5,0.5,0.5,0.999863859573305,1.16427465264944,1,1,0,0A,1A,0.5,0.00825046746236585,0.98376692597341,0.0162330740265906,1,1,0.5,0.491749532537634,0.5,0.882115218288795,0.569274652649442,1.9094245708295,1.95729094569186,0.5,0.838268171089124,0.957250227032124,0.5,0.983499065075268,0.553590783405911,1.58943264137313,2.02149124398979,0.5,40.2637082757601
189,1,9,A,1,0,l,63,1,0.95,1A,0A,0,1,0,1,A10,1.44492912637415,3.17805383034795,0.991749532537634,0.00825046746236585,0.00825046746236585,0.5,0.00825046746236585,0.991749532537634,0.5,0.5,0.5,0.5,0.5,0.00825046746236585,0.5,0.5,0.5,0.999863859573305,1.44727465264944,0,0,1,0A,1A,0.991749532537634,0.00825046746236585,0.991749532537634,0.00825046746236585,1,1,0.0082504674623658,0.00811432703567068,0.5,0.882115218288795,0.569274652649442,1.9094245708295,1.95729094569186,0.5,0.425783831800153,0.959141856047419,0.5,0.983499065075268,0.553590783405911,1.58943264137313,2.02149124398979,0.5,40.2637082757601
189,1,10,C,0,2,l,27,1,0.95,0C,2C,0,1,0,1,C02,2.3285351408099,3.2188758248682,0.999863859573305,0.00825046746236585,0.00825046746236585,0.5,0.00825046746236585,0.991749532537634,0.5,0.5,0.5,0.5,0.5,0.00825046746236585,0.5,0.5,0.5,0.999863859573305,1.85427465264944,0,0,1,2C,0C,0.5,0.5,0.5,0.5,1,1,0.5,0.491749532537634,0.5,0.882115218288795,0.569274652649442,1.9094245708295,1.95729094569186,0.5,0.159781956911128,0.499861407241287,0.5,0.983499065075268,0.553590783405911,1.58943264137313,2.02149124398979,0.5,40.2637082757601
189,1,11,B,1,0,a,63,1,0.95,1B,0B,1,0,1,0,B10,2.88427777300071,3.25809653802148,0.999863859573305,0.00825046746236585,0.00825046746236585,0.5,0.00825046746236585,0.991749532537634,0.5,0.5,0.5,0.5,0.991749532537634,0.00825046746236585,0.5,0.5,0.5,0.999863859573305,0.735274652649442,1,1,0,1B,0B,0.991749532537634,0.00825046746236585,0.991749532537634,0.00825046746236585,1,1,0.0082504674623658,0.00811432703567068,0.5,0.882115218288795,0.569274652649442,1.9094245708295,1.95729094569186,0.5,1.21681031614639,0.959271553299147,0.5,0.983499065075268,0.553590783405911,1.58943264137313,2.02149124398979,0.5,40.2637082757601
189,1,12,A,1,0,l,63,1,0.95,1A,0A,0,1,0,1,A10,3.200195679786,2.60268968544438,0.999863859573305,0.00825046746236585,0.00825046746236585,0.5,0.00825046746236585,0.999863859573305,0.5,0.5,0.5,0.5,0.991749532537634,0.00825046746236585,0.5,0.5,0.5,0.999863859573305,1.34327465264944,0,0,1,0A,1A,0.999863859573305,0.00825046746236585,0.991815940671505,0.00818405932849511,1,1,0.000136140426695075,0.000133893982373554,0.5,0.882115218288795,0.569274652649442,1.9094245708295,1.95729094569186,0.5,0.547141234076046,0.959365257559646,0.5,0.983499065075268,0.553590783405911,1.58943264137313,2.02149124398979,0.5,40.2637082757601
189,1,13,C,2,3,a,63,1,0.95,2C,3C,1,0,1,0,C23,1.18057422936163,2.63905732961526,0.999997753555678,0.00825046746236585,0.00825046746236585,0.5,0.00825046746236585,0.999863859573305,0.5,0.5,0.5,0.5,0.991749532537634,0.00825046746236585,0.5,0.5,0.5,0.999863859573305,1.24627465264944,1,1,0,2C,3C,0.991749532537634,0.00825046746236585,0.991749532537634,0.00825046746236585,1,1,0.0082504674623658,0.00811432703567068,0.5,0.882115218288795,0.569274652649442,1.9094245708295,1.95729094569186,0.5,0.691067722113201,0.959338455113686,0.5,0.983499065075268,0.553590783405911,1.58943264137313,2.02149124398979,0.5,40.2637082757601
189,1,14,A,2,0,l,27,1,0.95,2A,0A,0,1,0,1,A20,2.58548500660357,2.67414864942653,0.999997753555678,0.00825046746236585,0.00825046746236585,0.5,0.00825046746236585,0.999863859573305,0.5,0.5,0.5,0.5,0.999863859573305,0.00825046746236585,0.5,0.5,0.5,0.999863859573305,1.21127465264944,0,0,1,0A,2A,0.999997753555678,0.00825046746236585,0.991817027503371,0.00818297249662908,1,1,2.24644432156307e-06,2.20937589000092e-06,0.5,0.882115218288795,0.569274652649442,1.9094245708295,1.95729094569186,0.5,0.751278098841537,0.959394997615753,0.5,0.983499065075268,0.553590783405911,1.58943264137313,2.02149124398979,0.5,40.2637082757601
189,1,15,B,0,1,l,63,1,0.95,0B,1B,0,1,0,1,B01,2.31824791454964,2.70805020110221,0.999999962931568,0.00825046746236585,0.00825046746236585,0.5,0.00825046746236585,0.999863859573305,0.5,0.5,0.5,0.5,0.999863859573305,0.00825046746236585,0.5,0.5,0.5,0.999863859573305,0.780274652649442,0,0,1,1B,0B,0.999863859573305,0.00825046746236585,0.991815940671505,0.00818405932849511,1,1,0.000136140426695075,0.000133893982373554,0.5,0.882115218288795,0.569274652649442,1.9094245708295,1.95729094569186,0.5,1.44576933333643,0.95941256658828,0.5,0.983499065075268,0.553590783405911,1.58943264137313,2.02149124398979,0.5,40.2637082757601
189,1,16,B,1,0,a,63,1,0.95,1B,0B,1,0,1,0,B10,0.779181184940577,2.7408400239252,0.999999962931568,0.00825046746236585,0.00825046746236585,0.5,0.00825046746236585,0.999997753555678,0.5,0.5,0.5,0.5,0.999863859573305,0.00825046746236585,0.5,0.5,0.5,0.999863859573305,1.41227465264944,1,1,0,1B,0B,0.999997753555678,0.00825046746236585,0.991817027503371,0.00818297249662908,1,1,2.24644432156307e-06,2.20937589000092e-06,0.5,0.882115218288795,0.569274652649442,1.9094245708295,1.95729094569186,0.5,0.462838218975356,0.959441598494563,0.5,0.983499065075268,0.553590783405911,1.58943264137313,2.02149124398979,0.5,40.2637082757601
189,1,17,C,2,3,a,63,1,0.95,2C,3C,1,0,1,0,C23,2.86561353292651,2.36712361413162,0.999999962931568,0.00825046746236585,0.00825046746236585,0.5,0.00825046746236585,0.999999962931568,0.5,0.5,0.5,0.5,0.999863859573305,0.00825046746236585,0.5,0.5,0.5,0.999863859573305,1.06727465264944,1,1,0,2C,3C,0.999863859573305,0.00825046746236585,0.991815940671505,0.00818405932849511,1,1,0.000136140426695075,0.000133893982373554,0.5,0.882115218288795,0.569274652649442,1.9094245708295,1.95729094569186,0.5,1.04907851576326,0.959303421774698,0.5,0.983499065075268,0.553590783405911,1.58943264137313,2.02149124398979,0.5,40.2637082757601
189,1,18,D,1,3,l,27,1,0.95,1D,3D,0,1,0,1,D13,2.45397743717833,3.49650756146648,0.999999962931568,0.00825046746236585,0.00825046746236585,0.5,0.00825046746236585,0.999999962931568,0.5,0.5,0.5,0.5,0.999997753555678,0.00825046746236585,0.5,0.5,0.5,0.999863859573305,1.06227465264944,0,0,1,3D,1D,0.999863859573305,0.5,0.666636410492453,0.333363589507547,1,1,0.000136140426695075,0.000133893982373554,0.5,0.882115218288795,0.569274652649442,1.9094245708295,1.95729094569186,0.5,0.646181743718161,0.744121283023337,0.5,0.983499065075268,0.553590783405911,1.58943264137313,2.02149124398979,0.5,40.2637082757601
189,1,19,C,2,1,a,9,1,0.95,2C,1C,1,0,1,0,C21,1.55100907631224,3.52636052461616,0.999999962931568,0.00825046746236585,0.00825046746236585,0.5,0.00825046746236585,0.999999962931568,0.5,0.5,0.5,0.5,0.999997753555678,0.00825046746236585,0.5,0.5,0.5,0.999997753555678,0.795274652649442,1,1,0,2C,1C,0.999997753555678,0.5,0.66666616745607,0.33333383254393,1,1,2.24644432156307e-06,2.20937589000092e-06,0.5,0.882115218288795,0.569274652649442,1.9094245708295,1.95729094569186,0.5,0.676759355586193,0.744596400226727,0.5,0.983499065075268,0.553590783405911,1.58943264137313,2.02149124398979,0.5,40.2637082757601
189,1,20,B,1,3,a,27,1,0.95,1B,3B,1,0,1,0,B13,2.98835811269693,3.55534806148941,0.999999962931568,0.00825046746236585,0.00825046746236585,0.5,0.00825046746236585,0.999999962931568,0.5,0.5,0.5,0.5,0.999999962931568,0.00825046746236585,0.5,0.5,0.5,0.999997753555678,0.871274652649442,1,1,0,1B,3B,0.999999962931568,0.5,0.666666658429237,0.333333341570763,1,1,3.70684315464942e-08,3.64567677697836e-08,0.5,0.882115218288795,0.569274652649442,1.9094245708295,1.95729094569186,0.5,0.736399743896263,0.744427781174663,0.5,0.983499065075268,0.553590783405911,1.58943264137313,2.02149124398979,0.5,40.2637082757601
189,1,21,D,2,3,l,63,1,0.95,2D,3D,0,1,0,1,D23,3.36602121018351,3.58351893845611,0.999999962931568,0.00825046746236585,0.00825046746236585,0.5,0.00825046746236585,0.999999999388336,0.5,0.5,0.5,0.5,0.999999962931568,0.00825046746236585,0.5,0.5,0.5,0.999997753555678,2.52827465264944,1,1,0,2D,3D,0.5,0.999997753555678,0.33333383254393,0.66666616745607,0,0,-0.5,-0.491749532537634,0.5,0.882115218288795,0.569274652649442,1.9094245708295,1.95729094569186,0.5,0.0313604159999867,0.254843213178547,0.5,0.983499065075268,0.553590783405911,1.58943264137313,2.02149124398979,0.5,40.2637082757601
189,1,22,B,0,1,l,63,0,0.95,0B,1B,0,1,1,0,B01,2.2400655541672,2.51230562397611,0.999999962931568,0.00825046746236585,0.00825046746236585,0.5,0.00825046746236585,0.999999999388336,0.5,0.5,0.5,0.5,0.999999962931568,0.00825046746236585,0.5,0.5,0.00825046746236585,0.999997753555678,1.57627465264944,0,0,1,1B,0B,0.999999999388336,0.00825046746236585,0.991817045730575,0.00818295426942515,1,0,-0.999999999388336,-0.983499064473698,0.5,0.882115218288795,0.569274652649442,1.9094245708295,1.95729094569186,0.5,0.310779661843872,0.959442658848582,0.5,0.983499065075268,0.553590783405911,1.58943264137313,2.02149124398979,0.5,40.2637082757601
189,1,23,A,0,3,a,9,1,0.95,0A,3A,1,0,1,0,A03,0.521252847693469,3.63758615972639,0.999999962931568,0.00825046746236585,0.00825046746236585,0.5,0.00825046746236585,0.0165009349146387,0.5,0.5,0.5,0.5,0.999999962931568,0.00825046746236585,0.5,0.5,0.00825046746236585,0.999997753555678,3.60727465264944,1,1,0,0A,3A,0.999999962931568,0.5,0.666666658429237,0.333333341570763,1,1,3.70684315464942e-08,3.64567677697836e-08,0.5,0.882115218288795,0.569274652649442,1.9094245708295,1.95729094569186,0.5,0.0214032880529789,0.745127154037342,0.5,0.983499065075268,0.553590783405911,1.58943264137313,2.02149124398979,0.5,40.2637082757601
189,1,24,D,3,2,a,63,1,0.95,3D,2D,1,0,1,0,D32,0.372883990395985,2.9704144655697,0.999999999388336,0.00825046746236585,0.00825046746236585,0.5,0.00825046746236585,0.0165009349146387,0.5,0.5,0.5,0.5,0.999999962931568,0.00825046746236585,0.5,0.5,0.00825046746236585,0.999997753555678,0.813274652649442,1,1,0,3D,2D,0.999997753555678,0.00825046746236585,0.991817027503371,0.00818297249662908,1,1,2.24644432156307e-06,2.20937589000092e-06,0.5,0.882115218288795,0.569274652649442,1.9094245708295,1.95729094569186,0.5,1.50607586416654,0.959251952220609,0.5,0.983499065075268,0.553590783405911,1.58943264137313,2.02149124398979,0.5,40.2637082757601
189,1,25,B,3,1,l,27,1,0.95,3B,1B,0,1,0,1,B31,0.41586971275024,3.68887945411394,0.999999999388336,0.00825046746236585,0.00825046746236585,0.5,0.00825046746236585,0.0165009349146387,0.5,0.5,0.5,0.5,0.999999962931568,0.00825046746236585,0.5,0.5,0.00825046746236585,0.999999962931568,0.976274652649442,1,1,0,3B,1B,0.5,0.0165009349146387,0.968052458767832,0.0319475412321679,0,0,-0.5,-0.491749532537634,0.5,0.882115218288795,0.569274652649442,1.9094245708295,1.95729094569186,0.5,1.23478729373707,0.952950112512065,0.5,0.983499065075268,0.553590783405911,1.58943264137313,2.02149124398979,0.5,40.2637082757601
189,1,26,C,3,2,l,63,1,0.95,3C,2C,0,1,0,1,C32,2.65260620600285,3.71357206670431,0.999999999388336,0.00825046746236585,0.00825046746236585,0.5,0.00825046746236585,0.0165009349146387,0.5,0.00825046746236585,0.5,0.5,0.999999962931568,0.00825046746236585,0.5,0.5,0.00825046746236585,0.999999962931568,0.891274652649442,1,1,0,3C,2C,0.00825046746236585,0.999999962931568,0.00818295456530805,0.991817045434692,0,0,-0.00825046746236585,-0.00811432703567074,0.5,0.882115218288795,0.569274652649442,1.9094245708295,1.95729094569186,0.5,0.0616284538470516,0.0406179592202447,0.5,0.983499065075268,0.553590783405911,1.58943264137313,2.02149124398979,0.5,40.2637082757601
189,1,27,C,0,2,l,27,1,0.95,0C,2C,0,1,0,1,C02,2.77743558696209,3.04452243772342,0.999999999388336,0.00825046746236585,0.00825046746236585,0.5,0.00825046746236585,0.0165009349146387,0.5,0.00825046746236585,0.5,0.5,0.999999962931568,0.000136140426695115,0.5,0.5,0.00825046746236585,0.999999962931568,1.93127465264944,0,0,1,2C,0C,0.999999962931568,0.5,0.666666658429237,0.333333341570763,1,1,3.70684315464942e-08,3.64567677697836e-08,0.5,0.882115218288795,0.569274652649442,1.9094245708295,1.95729094569186,0.5,0.205071723827276,0.74493422762873,0.5,0.983499065075268,0.553590783405911,1.58943264137313,2.02149124398979,0.5,40.2637082757601
189,1,28,B,1,0,a,63,1,0.95,1B,0B,1,0,1,0,B10,2.6445553084811,2.66258782702545,0.999999999388336,0.00825046746236585,0.00825046746236585,0.5,0.00825046746236585,0.0165009349146387,0.5,0.00825046746236585,0.5,0.5,0.999999999388336,0.000136140426695115,0.5,0.5,0.00825046746236585,0.999999962931568,3.70827465264944,0,0,1,0B,1B,0.00825046746236585,0.0165009349146387,0.333333333469259,0.666666666530741,0,0,-0.00825046746236585,-0.00811432703567074,0.5,0.882115218288795,0.569274652649442,1.9094245708295,1.95729094569186,0.5,0.00640411454035962,0.255213078095083,0.5,0.983499065075268,0.553590783405911,1.58943264137313,2.02149124398979,0.5,40.2637082757601
189,1,29,C,3,2,l,63,1,0.95,3C,2C,0,1,0,1,C32,1.9595564142151,3.09104245335832,0.999999999388336,0.00825046746236585,0.00825046746236585,0.5,0.000136140426695115,0.0165009349146387,0.5,0.00825046746236585,0.5,0.5,0.999999999388336,0.000136140426695115,0.5,0.5,0.00825046746236585,0.999999962931568,0.766274652649442,0,0,1,2C,3C,0.999999999388336,0.000136140426695115,0.999863878104915,0.000136121895085496,1,1,6.1166383069633e-10,6.01570805630197e-10,0.5,0.882115218288795,0.569274652649442,1.9094245708295,1.95729094569186,0.5,1.41796284020793,0.961253306345867,0.5,0.983499065075268,0.553590783405911,1.58943264137313,2.02149124398979,0.5,40.2637082757601
189,1,30,A,0,1,a,63,1,0.95,0A,1A,1,0,1,0,A01,3.34834282844028,2.70805020110221,0.999999999388336,0.00825046746236585,0.00825046746236585,0.5,0.000136140426695115,0.0165009349146387,0.5,0.00825046746236585,0.5,0.5,0.999999999989907,0.000136140426695115,0.5,0.5,0.00825046746236585,0.999999962931568,0.757274652649442,1,1,0,0A,1A,0.999999999388336,0.00825046746236585,0.991817045730575,0.00818295426942515,1,1,6.1166383069633e-10,6.01570805630197e-10,0.5,0.882115218288795,0.569274652649442,1.9094245708295,1.95729094569186,0.5,1.35325751820945,0.959377392379558,0.5,0.983499065075268,0.553590783405911,1.58943264137313,2.02149124398979,0.5,40.2637082757601
189,1,31,D,3,2,a,63,1,0.95,3D,2D,1,0,1,0,D32,2.12661580827292,2.73002910782099,0.999999999989907,0.00825046746236585,0.00825046746236585,0.5,0.000136140426695115,0.0165009349146387,0.5,0.00825046746236585,0.5,0.5,0.999999999989907,0.000136140426695115,0.5,0.5,0.00825046746236585,0.999999962931568,0.907274652649442,1,1,0,3D,2D,0.999999962931568,0.00825046746236585,0.991817045434692,0.00818295456530805,1,1,3.70684315464942e-08,3.64567677697836e-08,0.5,0.882115218288795,0.569274652649442,1.9094245708295,1.95729094569186,0.5,1.42626979843123,0.959418444041434,0.5,0.983499065075268,0.553590783405911,1.58943264137313,2.02149124398979,0.5,40.2637082757601
189,1,32,C,3,2,l,63,1,0.95,3C,2C,0,1,0,1,C32,2.81943952081898,2.75153531304195,0.999999999989907,0.00825046746236585,0.00825046746236585,0.5,0.000136140426695115,0.0165009349146387,0.5,0.00825046746236585,0.5,0.5,0.999999999989907,0.000136140426695115,0.5,0.5,0.00825046746236585,0.999999999388336,1.09627465264944,0,0,1,2C,3C,0.999999999989907,0.000136140426695115,0.999863878104996,0.00013612189500362,1,1,1.00930375168673e-11,9.9264929616086e-12,0.5,0.882115218288795,0.569274652649442,1.9094245708295,1.95729094569186,0.5,0.986584529961024,0.961192285800631,0.5,0.983499065075268,0.553590783405911,1.58943264137313,2.02149124398979,0.5,40.2637082757601
189,1,33,D,1,3,l,27,1,0.95,1D,3D,0,1,0,1,D13,2.64661437831527,3.17805383034795,0.999999999989907,0.00825046746236585,0.00825046746236585,0.5,0.000136140426695115,0.0165009349146387,0.5,0.00825046746236585,0.5,0.5,0.999999999999833,0.000136140426695115,0.5,0.5,0.00825046746236585,0.999999999388336,1.99727465264944,0,0,1,3D,1D,0.999999999388336,0.5,0.666666666530741,0.333333333469259,1,1,6.1166383069633e-10,6.01570805630197e-10,0.5,0.882115218288795,0.569274652649442,1.9094245708295,1.95729094569186,0.5,0.187670722124145,0.745413699760315,0.5,0.983499065075268,0.553590783405911,1.58943264137313,2.02149124398979,0.5,40.2637082757601
189,1,34,C,2,0,a,27,1,0.95,2C,0C,1,0,1,0,C20,2.11134718853286,3.89182029811063,0.999999999989907,0.00825046746236585,0.00825046746236585,0.5,0.000136140426695115,0.0165009349146387,0.5,0.00825046746236585,0.5,0.5,0.999999999999833,0.000136140426695115,0.5,0.5,0.00825046746236585,0.999999999989907,1.24927465264944,0,0,1,0C,2C,0.5,0.999999999999833,0.33333333333337,0.66666666666663,0,0,-0.5,-0.491749532537634,0.5,0.882115218288795,0.569274652649442,1.9094245708295,1.95729094569186,0.5,0.175860607422879,0.255701327071449,0.5,0.983499065075268,0.553590783405911,1.58943264137313,2.02149124398979,0.5,40.2637082757601
189,1,35,D,3,2,a,63,0,0.95,3D,2D,1,0,0,1,D32,1.02508347875458,2.52572864430826,0.999999999989907,0.00825046746236585,0.00825046746236585,0.5,0.000136140426695115,0.0165009349146387,0.5,0.00825046746236585,0.00825046746236585,0.5,0.999999999999833,0.000136140426695115,0.5,0.5,0.00825046746236585,0.999999999989907,1.49227465264944,1,1,0,3D,2D,0.999999999989907,0.00825046746236585,0.991817045735457,0.0081829542645428,1,0,-0.999999999989907,-0.983499065065342,0.5,0.882115218288795,0.569274652649442,1.9094245708295,1.95729094569186,0.5,0.381253670825626,0.959396895588173,0.5,0.983499065075268,0.553590783405911,1.58943264137313,2.02149124398979,0.5,40.2637082757601
189,1,36,A,0,1,a,63,1,0.95,0A,1A,1,0,1,0,A01,2.24764877456734,2.54553127160444,0.999999999989907,0.00825046746236585,0.00825046746236585,0.5,0.000136140426695115,0.0165009349146387,0.5,0.00825046746236585,0.00825046746236585,0.5,0.999999999999833,0.000136140426695115,0.5,0.5,0.00825046746236585,0.0165009349245652,1.02027465264944,1,1,0,0A,1A,0.999999999989907,0.00825046746236585,0.991817045735457,0.0081829542645428,1,1,1.00930375168673e-11,9.9264929616086e-12,0.5,0.882115218288795,0.569274652649442,1.9094245708295,1.95729094569186,0.5,1.16165844774717,0.959342951697077,0.5,0.983499065075268,0.553590783405911,1.58943264137313,2.02149124398979,0.5,40.2637082757601
189,1,37,C,3,2,l,63,1,0.95,3C,2C,0,1,0,1,C32,1.79301307959115,2.56494935746154,0.999999999999833,0.00825046746236585,0.00825046746236585,0.5,0.000136140426695115,0.0165009349146387,0.5,0.00825046746236585,0.00825046746236585,0.5,0.999999999999833,0.000136140426695115,0.5,0.5,0.00825046746236585,0.0165009349245652,0.647274652649442,0,0,1,2C,3C,0.999999999999833,0.000136140426695115,0.999863878104998,0.000136121895002269,1,1,1.66533453693773e-13,1.63785496011582e-13,0.5,0.882115218288795,0.569274652649442,1.9094245708295,1.95729094569186,0.5,0.266883074303879,0.961304149791493,0.5,0.983499065075268,0.553590783405911,1.58943264137313,2.02149124398979,0.5,40.2637082757601
189,1,38,A,2,0,l,27,1,0.95,2A,0A,0,1,0,1,A20,1.4072323091972,2.87167962488401,0.999999999999833,0.00825046746236585,0.00825046746236585,0.5,0.000136140426695115,0.0165009349146387,0.5,0.00825046746236585,0.00825046746236585,0.5,0.999999999999997,0.000136140426695115,0.5,0.5,0.00825046746236585,0.0165009349245652,1.66427465264944,0,0,1,0A,2A,0.999999999999833,0.00825046746236585,0.991817045735538,0.00818295426446224,1,1,1.66533453693773e-13,1.63785496011582e-13,0.5,0.882115218288795,0.569274652649442,1.9094245708295,1.95729094569186,0.5,0.251350477588273,0.959256833305144,0.5,0.983499065075268,0.553590783405911,1.58943264137313,2.02149124398979,0.5,40.2637082757601
189,1,39,D,3,2,a,63,1,0.95,3D,2D,1,0,1,0,D32,0.591770350050817,2.37954613413017,0.999999999999997,0.00825046746236585,0.00825046746236585,0.5,0.000136140426695115,0.0165009349146387,0.5,0.00825046746236585,0.00825046746236585,0.5,0.999999999999997,0.000136140426695115,0.5,0.5,0.00825046746236585,0.0165009349245652,0.879274652649442,0,0,1,2D,3D,0.00825046746236585,0.0165009349245652,0.333333333335576,0.666666666664424,0,0,-0.00825046746236585,-0.00811432703567074,0.5,0.882115218288795,0.569274652649442,1.9094245708295,1.95729094569186,0.5,0.252172481358954,0.254398392432339,0.5,0.983499065075268,0.553590783405911,1.58943264137313,2.02149124398979,0.5,40.2637082757601
189,1,40,D,2,3,l,63,1,0.95,2D,3D,0,1,0,1,D23,1.00089049908878,3.31418600467253,0.999999999999997,0.00825046746236585,0.00825046746236585,0.5,0.000136140426695115,0.0165009349146387,0.5,0.00825046746236585,0.00825046746236585,0.5,0.999999999999997,0.000136140426695115,0.5,0.5,0.000136140426695115,0.0165009349245652,1.45327465264944,0,0,1,3D,2D,0.0165009349245652,0.000136140426695115,0.991817045735457,0.00818295426454278,1,1,0.983499065075435,0.967270411004091,0.5,0.882115218288795,0.569274652649442,1.9094245708295,1.95729094569186,0.5,0.419103550756762,0.959398850465586,0.5,0.983499065075268,0.553590783405911,1.58943264137313,2.02149124398979,0.5,40.2637082757601
189,1,41,B,1,3,a,27,1,0.95,1B,3B,1,0,1,0,B13,3.28429832715638,3.3322045101752,0.999999999999997,0.00825046746236585,0.00825046746236585,0.5,0.000136140426695115,0.0165009349146387,0.5,0.00825046746236585,0.00825046746236585,0.5,0.999999999999997,0.000136140426695115,0.5,0.5,0.000136140426695115,0.983771345928656,0.977274652649442,1,1,0,1B,3B,0.0165009349146387,0.00825046746236585,0.666666666530741,0.333333333469259,1,1,0.983499065085361,0.967270411013853,0.5,0.882115218288795,0.569274652649442,1.9094245708295,1.95729094569186,0.5,0.704585054510141,0.74465683602731,0.5,0.983499065075268,0.553590783405911,1.58943264137313,2.02149124398979,0.5,40.2637082757601
189,1,42,D,0,3,l,9,1,0.95,0D,3D,0,1,0,1,D03,0.968444713741502,4.04305126783455,0.999999999999997,0.00825046746236585,0.00825046746236585,0.5,0.000136140426695115,0.983771345928492,0.5,0.00825046746236585,0.00825046746236585,0.5,0.999999999999997,0.000136140426695115,0.5,0.5,0.000136140426695115,0.983771345928656,0.783274652649442,1,1,0,0D,3D,0.5,0.983771345928656,0.336979145319094,0.663020854680906,0,0,-0.5,-0.491749532537634,0.5,0.882115218288795,0.569274652649442,1.9094245708295,1.95729094569186,0.5,0.227889989371017,0.26015584269146,0.5,0.983499065075268,0.553590783405911,1.58943264137313,2.02149124398979,0.5,40.2637082757601
189,1,43,B,1,0,a,63,1,0.95,1B,0B,1,0,1,0,B10,3.22212512124188,2.67414864942653,0.999999999999997,0.00825046746236585,0.00825046746236585,0.5,0.000136140426695115,0.983771345928492,0.5,0.00825046746236585,0.00825046746236585,0.5,0.999999999999997,0.000136140426695115,0.00825046746236585,0.5,0.000136140426695115,0.983771345928656,0.963274652649442,1,1,0,1B,0B,0.983771345928492,0.000136140426695115,0.999861632898842,0.000138367101158501,1,1,0.016228654071508,0.015960866106758,0.5,0.882115218288795,0.569274652649442,1.9094245708295,1.95729094569186,0.5,1.31249107098495,0.961230535365838,0.5,0.983499065075268,0.553590783405911,1.58943264137313,2.02149124398979,0.5,40.2637082757601
189,1,44,A,1,0,l,63,1,0.95,1A,0A,0,1,0,1,A10,1.88561612779971,2.97892515523761,0.999999999999997,0.00825046746236585,0.00825046746236585,0.5,0.000136140426695115,0.99973221203525,0.5,0.00825046746236585,0.00825046746236585,0.5,0.999999999999997,0.000136140426695115,0.00825046746236585,0.5,0.000136140426695115,0.983771345928656,1.07027465264944,0,0,1,0A,1A,0.999999999999997,0.00825046746236585,0.991817045735539,0.00818295426446091,1,1,2.77555756156289e-15,2.72975826685969e-15,0.5,0.882115218288795,0.569274652649442,1.9094245708295,1.95729094569186,0.5,1.04220705532757,0.959344197337477,0.5,0.983499065075268,0.553590783405911,1.58943264137313,2.02149124398979,0.5,40.2637082757601
