ID,session,trialNr,mod2Stim,visStimLeft,visStimRight,correctKey,frequency,rewardAccurate,probFB,stimPairLeft,stimPairRight,leftCorrect,rightCorrect,pCorrectLeft,pCorrectRight,triplet,rt,surprise,0A belief,1A belief,2A belief,3A belief,0B belief,1B belief,2B belief,3B belief,0C belief,1C belief,2C belief,3C belief,0D belief,1D belief,2D belief,3D belief,reactionTime,choice,choiceLeft,choiceRight,chosenPair,otherPair,beliefPair,beliefOtherPair,beliefPairNorm,beliefOtherPairNorm,choiceAccurate,reward,rewardPE,update2,sim_CBCsimpleRW_CBCdriftDiffusionLR_pwBelief_startBelief,sim_CBCsimpleRW_CBCdriftDiffusionLR_pwBelief_alpha1,sim_CBCsimpleRW_CBCdriftDiffusionLR_pwBelief_nonDecisionTime,sim_CBCsimpleRW_CBCdriftDiffusionLR_pwBelief_weight,sim_CBCsimpleRW_CBCdriftDiffusionLR_pwBelief_startingBoundary,sim_CBCsimpleRW_CBCdriftDiffusionLR_pwBelief_startingPoint,lik,corrLik,fitCBCsimpleRW_CBCdriftDiffusionLR_pwBelief_startBelief,fitCBCsimpleRW_CBCdriftDiffusionLR_pwBelief_alpha1,fitCBCsimpleRW_CBCdriftDiffusionLR_pwBelief_nonDecisionTime,fitCBCsimpleRW_CBCdriftDiffusionLR_pwBelief_weight,fitCBCsimpleRW_CBCdriftDiffusionLR_pwBelief_startingBoundary,fitCBCsimpleRW_CBCdriftDiffusionLR_pwBelief_startingPoint,fit_CBCsimpleRW_CBCdriftDiffusionLR_pwBelief_NLL
189,1,1,A,0,1,a,63,1,0.95,0A,1A,1,0,1,0,A01,1.94710779041153,2.77258872223978,0.5,0.5,0.5,0.5,0.5,0.5,0.5,0.5,0.5,0.5,0.5,0.5,0.5,0.5,0.5,0.5,1.40759513393753,0,0,1,1A,0A,0.5,0.5,0.5,0.5,0,0,-0.5,-0.299141816371587,0.5,0.632091993228738,0.660595133937534,11.927388151158,2.80746369015283,0.5,0.180612289044995,0.499858076054338,0.5,0.598283632743175,0.655320697843456,13.3209063832026,3.18348114161366,0.5,-62.4442087246701
189,1,2,C,2,3,a,63,1,0.95,2C,3C,1,0,1,0,C23,2.81434814426013,2.83321334405622,0.5,0.200858183628413,0.5,0.5,0.5,0.5,0.5,0.5,0.5,0.5,0.5,0.5,0.5,0.5,0.5,0.5,1.56659513393753,1,1,0,2C,3C,0.5,0.5,0.5,0.5,1,1,0.5,0.299141816371587,0.5,0.632091993228738,0.660595133937534,11.927388151158,2.80746369015283,0.5,0.182033961417156,0.500694145144253,0.5,0.598283632743175,0.655320697843456,13.3209063832026,3.18348114161366,0.5,-62.4442087246701
189,1,3,A,2,0,l,27,1,0.95,2A,0A,0,1,0,1,A20,3.04393883999685,2.89037175789616,0.5,0.200858183628413,0.5,0.5,0.5,0.5,0.5,0.5,0.5,0.5,0.799141816371587,0.5,0.5,0.5,0.5,0.5,2.61759513393753,0,0,1,0A,2A,0.5,0.5,0.5,0.5,1,1,0.5,0.299141816371587,0.5,0.632091993228738,0.660595133937534,11.927388151158,2.80746369015283,0.5,0.118986735381356,0.499701410899847,0.5,0.598283632743175,0.655320697843456,13.3209063832026,3.18348114161366,0.5,-62.4442087246701
189,1,4,B,0,1,l,63,1,0.95,0B,1B,0,1,0,1,B01,0.824375886336637,2.94443897916644,0.799141816371587,0.200858183628413,0.5,0.5,0.5,0.5,0.5,0.5,0.5,0.5,0.799141816371587,0.5,0.5,0.5,0.5,0.5,3.63359513393753,0,0,1,1B,0B,0.5,0.5,0.5,0.5,1,1,0.5,0.299141816371587,0.5,0.632091993228738,0.660595133937534,11.927388151158,2.80746369015283,0.5,0.0727266969036813,0.500204097074715,0.5,0.598283632743175,0.655320697843456,13.3209063832026,3.18348114161366,0.5,-62.4442087246701
189,1,5,D,3,2,a,63,1,0.95,3D,2D,1,0,1,0,D32,2.65181104931808,2.99573227355399,0.799141816371587,0.200858183628413,0.5,0.5,0.5,0.799141816371587,0.5,0.5,0.5,0.5,0.799141816371587,0.5,0.5,0.5,0.5,0.5,5.63559513393753,0,0,1,2D,3D,0.5,0.5,0.5,0.5,0,0,-0.5,-0.299141816371587,0.5,0.632091993228738,0.660595133937534,11.927388151158,2.80746369015283,0.5,0.027503658530574,0.501414926289858,0.5,0.598283632743175,0.655320697843456,13.3209063832026,3.18348114161366,0.5,-62.4442087246701
189,1,6,B,2,1,l,9,1,0.95,2B,1B,0,1,0,1,B21,1.47406458587327,3.04452243772342,0.799141816371587,0.200858183628413,0.5,0.5,0.5,0.799141816371587,0.5,0.5,0.5,0.5,0.799141816371587,0.5,0.5,0.5,0.200858183628413,0.5,0.888595133937534,0,0,1,1B,2B,0.799141816371587,0.5,0.799141816371587,0.200858183628413,1,1,0.200858183628413,0.120170163767402,0.5,0.632091993228738,0.660595133937534,11.927388151158,2.80746369015283,0.5,4.83272208953075,0.999999999990482,0.5,0.598283632743175,0.655320697843456,13.3209063832026,3.18348114161366,0.5,-62.4442087246701
189,1,7,D,3,1,a,27,1,0.95,3D,1D,1,0,1,0,D31,3.19752793037894,3.09104245335832,0.799141816371587,0.200858183628413,0.5,0.5,0.5,0.91931198013899,0.5,0.5,0.5,0.5,0.799141816371587,0.5,0.5,0.5,0.200858183628413,0.5,2.95259513393753,1,1,0,3D,1D,0.5,0.5,0.5,0.5,1,1,0.5,0.299141816371587,0.5,0.632091993228738,0.660595133937534,11.927388151158,2.80746369015283,0.5,0.101348399461812,0.500514045680445,0.5,0.598283632743175,0.655320697843456,13.3209063832026,3.18348114161366,0.5,-62.4442087246701
189,1,8,A,0,1,a,63,1,0.95,0A,1A,1,0,1,0,A01,0.326515796809095,2.4423470353692,0.799141816371587,0.200858183628413,0.5,0.5,0.5,0.91931198013899,0.5,0.5,0.5,0.5,0.799141816371587,0.5,0.5,0.5,0.200858183628413,0.799141816371587,0.763595133937534,1,1,0,0A,1A,0.799141816371587,0.200858183628413,0.940580715298251,0.0594192847017491,1,1,0.200858183628413,0.120170163767402,0.5,0.632091993228738,0.660595133937534,11.927388151158,2.80746369015283,0.5,11.0777258629235,1,0.5,0.598283632743175,0.655320697843456,13.3209063832026,3.18348114161366,0.5,-62.4442087246701
189,1,9,A,1,0,l,63,1,0.95,1A,0A,0,1,0,1,A10,1.44492912637415,3.17805383034795,0.91931198013899,0.200858183628413,0.5,0.5,0.5,0.91931198013899,0.5,0.5,0.5,0.5,0.799141816371587,0.5,0.5,0.5,0.200858183628413,0.799141816371587,0.779595133937534,0,0,1,0A,1A,0.91931198013899,0.200858183628413,0.978415833387917,0.0215841666120829,1,1,0.0806880198610103,0.0482743216412986,0.5,0.632091993228738,0.660595133937534,11.927388151158,2.80746369015283,0.5,14.4910501279752,1,0.5,0.598283632743175,0.655320697843456,13.3209063832026,3.18348114161366,0.5,-62.4442087246701
189,1,10,C,0,2,l,27,1,0.95,0C,2C,0,1,0,1,C02,2.3285351408099,3.2188758248682,0.967586301780288,0.200858183628413,0.5,0.5,0.5,0.91931198013899,0.5,0.5,0.5,0.5,0.799141816371587,0.5,0.5,0.5,0.200858183628413,0.799141816371587,0.931595133937534,0,0,1,2C,0C,0.799141816371587,0.5,0.799141816371587,0.200858183628413,1,1,0.200858183628413,0.120170163767402,0.5,0.632091993228738,0.660595133937534,11.927388151158,2.80746369015283,0.5,2.22908394775721,0.999999999990432,0.5,0.598283632743175,0.655320697843456,13.3209063832026,3.18348114161366,0.5,-62.4442087246701
189,1,11,B,1,0,a,63,1,0.95,1B,0B,1,0,1,0,B10,2.88427777300071,3.25809653802148,0.967586301780288,0.200858183628413,0.5,0.5,0.5,0.91931198013899,0.5,0.5,0.5,0.5,0.91931198013899,0.5,0.5,0.5,0.200858183628413,0.799141816371587,0.778595133937534,1,1,0,1B,0B,0.91931198013899,0.5,0.91931198013899,0.0806880198610103,1,1,0.0806880198610103,0.0482743216412986,0.5,0.632091993228738,0.660595133937534,11.927388151158,2.80746369015283,0.5,12.1711375302244,1,0.5,0.598283632743175,0.655320697843456,13.3209063832026,3.18348114161366,0.5,-62.4442087246701
189,1,12,A,1,0,l,63,1,0.95,1A,0A,0,1,0,1,A10,3.200195679786,2.60268968544438,0.967586301780288,0.200858183628413,0.5,0.5,0.5,0.967586301780288,0.5,0.5,0.5,0.5,0.91931198013899,0.5,0.5,0.5,0.200858183628413,0.799141816371587,0.776595133937534,0,0,1,0A,1A,0.967586301780288,0.200858183628413,0.991650448261868,0.00834955173813172,1,1,0.0324136982197116,0.01939258512153,0.5,0.632091993228738,0.660595133937534,11.927388151158,2.80746369015283,0.5,15.0351794301806,1,0.5,0.598283632743175,0.655320697843456,13.3209063832026,3.18348114161366,0.5,-62.4442087246701
189,1,13,C,2,3,a,63,1,0.95,2C,3C,1,0,1,0,C23,1.18057422936163,2.63905732961526,0.986978886901818,0.200858183628413,0.5,0.5,0.5,0.967586301780288,0.5,0.5,0.5,0.5,0.91931198013899,0.5,0.5,0.5,0.200858183628413,0.799141816371587,0.766595133937534,1,1,0,2C,3C,0.91931198013899,0.5,0.91931198013899,0.0806880198610103,1,1,0.0806880198610103,0.0482743216412986,0.5,0.632091993228738,0.660595133937534,11.927388151158,2.80746369015283,0.5,9.90314572659719,1,0.5,0.598283632743175,0.655320697843456,13.3209063832026,3.18348114161366,0.5,-62.4442087246701
189,1,14,A,2,0,l,27,1,0.95,2A,0A,0,1,0,1,A20,2.58548500660357,2.67414864942653,0.986978886901818,0.200858183628413,0.5,0.5,0.5,0.967586301780288,0.5,0.5,0.5,0.5,0.967586301780288,0.5,0.5,0.5,0.200858183628413,0.799141816371587,0.766595133937534,0,0,1,0A,2A,0.986978886901818,0.5,0.986978886901818,0.0130211130981815,1,1,0.0130211130981815,0.00779031884673979,0.5,0.632091993228738,0.660595133937534,11.927388151158,2.80746369015283,0.5,15.5054524619433,1,0.5,0.598283632743175,0.655320697843456,13.3209063832026,3.18348114161366,0.5,-62.4442087246701
189,1,15,B,0,1,l,63,1,0.95,0B,1B,0,1,0,1,B01,2.31824791454964,2.70805020110221,0.994769205748558,0.200858183628413,0.5,0.5,0.5,0.967586301780288,0.5,0.5,0.5,0.5,0.967586301780288,0.5,0.5,0.5,0.200858183628413,0.799141816371587,0.827595133937534,0,0,1,1B,0B,0.967586301780288,0.5,0.967586301780288,0.0324136982197116,1,1,0.0324136982197116,0.01939258512153,0.5,0.632091993228738,0.660595133937534,11.927388151158,2.80746369015283,0.5,3.63717233874513,1,0.5,0.598283632743175,0.655320697843456,13.3209063832026,3.18348114161366,0.5,-62.4442087246701
189,1,16,B,1,0,a,63,1,0.95,1B,0B,1,0,1,0,B10,0.779181184940577,2.7408400239252,0.994769205748558,0.200858183628413,0.5,0.5,0.5,0.986978886901818,0.5,0.5,0.5,0.5,0.967586301780288,0.5,0.5,0.5,0.200858183628413,0.799141816371587,0.747595133937534,1,1,0,1B,0B,0.986978886901818,0.5,0.986978886901818,0.0130211130981815,1,1,0.0130211130981815,0.00779031884673979,0.5,0.632091993228738,0.660595133937534,11.927388151158,2.80746369015283,0.5,9.74124065174544,1,0.5,0.598283632743175,0.655320697843456,13.3209063832026,3.18348114161366,0.5,-62.4442087246701
189,1,17,C,2,3,a,63,1,0.95,2C,3C,1,0,1,0,C23,2.86561353292651,2.36712361413162,0.994769205748558,0.200858183628413,0.5,0.5,0.5,0.994769205748558,0.5,0.5,0.5,0.5,0.967586301780288,0.5,0.5,0.5,0.200858183628413,0.799141816371587,0.756595133937534,1,1,0,2C,3C,0.967586301780288,0.5,0.967586301780288,0.0324136982197116,1,1,0.0324136982197116,0.01939258512153,0.5,0.632091993228738,0.660595133937534,11.927388151158,2.80746369015283,0.5,11.5078801442361,1,0.5,0.598283632743175,0.655320697843456,13.3209063832026,3.18348114161366,0.5,-62.4442087246701
189,1,18,D,1,3,l,27,1,0.95,1D,3D,0,1,0,1,D13,2.45397743717833,3.49650756146648,0.994769205748558,0.200858183628413,0.5,0.5,0.5,0.994769205748558,0.5,0.5,0.5,0.5,0.986978886901818,0.5,0.5,0.5,0.200858183628413,0.799141816371587,0.967595133937534,0,0,1,3D,1D,0.799141816371587,0.5,0.799141816371587,0.200858183628413,1,1,0.200858183628413,0.120170163767402,0.5,0.632091993228738,0.660595133937534,11.927388151158,2.80746369015283,0.5,1.00318249391023,0.999999999990429,0.5,0.598283632743175,0.655320697843456,13.3209063832026,3.18348114161366,0.5,-62.4442087246701
189,1,19,C,2,1,a,9,1,0.95,2C,1C,1,0,1,0,C21,1.55100907631224,3.52636052461616,0.994769205748558,0.200858183628413,0.5,0.5,0.5,0.994769205748558,0.5,0.5,0.5,0.5,0.986978886901818,0.5,0.5,0.5,0.200858183628413,0.91931198013899,0.778595133937534,1,1,0,2C,1C,0.986978886901818,0.5,0.986978886901818,0.0130211130981815,1,1,0.0130211130981815,0.00779031884673979,0.5,0.632091993228738,0.660595133937534,11.927388151158,2.80746369015283,0.5,14.6680236702831,1,0.5,0.598283632743175,0.655320697843456,13.3209063832026,3.18348114161366,0.5,-62.4442087246701
189,1,20,B,1,3,a,27,1,0.95,1B,3B,1,0,1,0,B13,2.98835811269693,3.55534806148941,0.994769205748558,0.200858183628413,0.5,0.5,0.5,0.994769205748558,0.5,0.5,0.5,0.5,0.994769205748558,0.5,0.5,0.5,0.200858183628413,0.91931198013899,0.761595133937534,1,1,0,1B,3B,0.994769205748558,0.5,0.994769205748558,0.00523079425144179,1,1,0.00523079425144179,0.00312949858688471,0.5,0.632091993228738,0.660595133937534,11.927388151158,2.80746369015283,0.5,15.4461995510881,1,0.5,0.598283632743175,0.655320697843456,13.3209063832026,3.18348114161366,0.5,-62.4442087246701
189,1,21,D,2,3,l,63,1,0.95,2D,3D,0,1,0,1,D23,3.36602121018351,3.58351893845611,0.994769205748558,0.200858183628413,0.5,0.5,0.5,0.997898704335443,0.5,0.5,0.5,0.5,0.994769205748558,0.5,0.5,0.5,0.200858183628413,0.91931198013899,0.754595133937534,0,0,1,3D,2D,0.91931198013899,0.200858183628413,0.978415833387917,0.0215841666120829,1,1,0.0806880198610103,0.0482743216412986,0.5,0.632091993228738,0.660595133937534,11.927388151158,2.80746369015283,0.5,11.870591402485,1,0.5,0.598283632743175,0.655320697843456,13.3209063832026,3.18348114161366,0.5,-62.4442087246701
189,1,22,B,0,1,l,63,0,0.95,0B,1B,0,1,1,0,B01,2.2400655541672,2.51230562397611,0.994769205748558,0.200858183628413,0.5,0.5,0.5,0.997898704335443,0.5,0.5,0.5,0.5,0.994769205748558,0.5,0.5,0.5,0.200858183628413,0.967586301780288,0.810595133937534,0,0,1,1B,0B,0.997898704335443,0.5,0.997898704335443,0.00210129566455708,1,0,-0.997898704335443,-0.597026461939516,0.5,0.632091993228738,0.660595133937534,11.927388151158,2.80746369015283,0.5,5.12444116087235,1,0.5,0.598283632743175,0.655320697843456,13.3209063832026,3.18348114161366,0.5,-62.4442087246701
189,1,23,A,0,3,a,9,1,0.95,0A,3A,1,0,1,0,A03,0.521252847693469,3.63758615972639,0.994769205748558,0.200858183628413,0.5,0.5,0.5,0.400872242395927,0.5,0.5,0.5,0.5,0.994769205748558,0.5,0.5,0.5,0.200858183628413,0.967586301780288,0.821595133937534,1,1,0,0A,3A,0.994769205748558,0.5,0.994769205748558,0.00523079425144179,1,1,0.00523079425144179,0.00312949858688471,0.5,0.632091993228738,0.660595133937534,11.927388151158,2.80746369015283,0.5,3.17182928151277,1,0.5,0.598283632743175,0.655320697843456,13.3209063832026,3.18348114161366,0.5,-62.4442087246701
189,1,24,D,3,2,a,63,1,0.95,3D,2D,1,0,1,0,D32,0.372883990395985,2.9704144655697,0.997898704335443,0.200858183628413,0.5,0.5,0.5,0.400872242395927,0.5,0.5,0.5,0.5,0.994769205748558,0.5,0.5,0.5,0.200858183628413,0.967586301780288,0.774595133937534,1,1,0,3D,2D,0.967586301780288,0.200858183628413,0.991650448261868,0.00834955173813179,1,1,0.0324136982197116,0.01939258512153,0.5,0.632091993228738,0.660595133937534,11.927388151158,2.80746369015283,0.5,15.3593599849845,1,0.5,0.598283632743175,0.655320697843456,13.3209063832026,3.18348114161366,0.5,-62.4442087246701
189,1,25,B,3,1,l,27,1,0.95,3B,1B,0,1,0,1,B31,0.41586971275024,3.68887945411394,0.997898704335443,0.200858183628413,0.5,0.5,0.5,0.400872242395927,0.5,0.5,0.5,0.5,0.994769205748558,0.5,0.5,0.5,0.200858183628413,0.986978886901818,1.52859513393753,1,1,0,3B,1B,0.5,0.400872242395927,0.599127757604073,0.400872242395927,0,0,-0.5,-0.299141816371587,0.5,0.632091993228738,0.660595133937534,11.927388151158,2.80746369015283,0.5,0.581554125901774,0.999775693975012,0.5,0.598283632743175,0.655320697843456,13.3209063832026,3.18348114161366,0.5,-62.4442087246701
189,1,26,C,3,2,l,63,1,0.95,3C,2C,0,1,0,1,C32,2.65260620600285,3.71357206670431,0.997898704335443,0.200858183628413,0.5,0.5,0.5,0.400872242395927,0.5,0.200858183628413,0.5,0.5,0.994769205748558,0.5,0.5,0.5,0.200858183628413,0.986978886901818,0.783595133937534,0,0,1,2C,3C,0.994769205748558,0.5,0.994769205748558,0.00523079425144179,1,1,0.00523079425144179,0.00312949858688471,0.5,0.632091993228738,0.660595133937534,11.927388151158,2.80746369015283,0.5,13.3026029193817,1,0.5,0.598283632743175,0.655320697843456,13.3209063832026,3.18348114161366,0.5,-62.4442087246701
189,1,27,C,0,2,l,27,1,0.95,0C,2C,0,1,0,1,C02,2.77743558696209,3.04452243772342,0.997898704335443,0.200858183628413,0.5,0.5,0.5,0.400872242395927,0.5,0.200858183628413,0.5,0.5,0.997898704335443,0.5,0.5,0.5,0.200858183628413,0.986978886901818,0.809595133937534,0,0,1,2C,0C,0.997898704335443,0.5,0.997898704335443,0.00210129566455708,1,1,0.00210129566455708,0.00125717080365869,0.5,0.632091993228738,0.660595133937534,11.927388151158,2.80746369015283,0.5,5.36030610817157,1,0.5,0.598283632743175,0.655320697843456,13.3209063832026,3.18348114161366,0.5,-62.4442087246701
189,1,28,B,1,0,a,63,1,0.95,1B,0B,1,0,1,0,B10,2.6445553084811,2.66258782702545,0.997898704335443,0.200858183628413,0.5,0.5,0.5,0.400872242395927,0.5,0.200858183628413,0.5,0.5,0.999155875139102,0.5,0.5,0.5,0.200858183628413,0.986978886901818,1.03259513393753,0,0,1,0B,1B,0.5,0.400872242395927,0.599127757604073,0.400872242395927,0,0,-0.5,-0.299141816371587,0.5,0.632091993228738,0.660595133937534,11.927388151158,2.80746369015283,0.5,1.71297809947067,0.999776788305937,0.5,0.598283632743175,0.655320697843456,13.3209063832026,3.18348114161366,0.5,-62.4442087246701
189,1,29,C,3,2,l,63,1,0.95,3C,2C,0,1,0,1,C32,1.9595564142151,3.09104245335832,0.997898704335443,0.200858183628413,0.5,0.5,0.200858183628413,0.400872242395927,0.5,0.200858183628413,0.5,0.5,0.999155875139102,0.5,0.5,0.5,0.200858183628413,0.986978886901818,0.814595133937534,0,0,1,2C,3C,0.999155875139102,0.5,0.999155875139102,0.000844124860898354,1,1,0.000844124860898354,0.000505026088267094,0.5,0.632091993228738,0.660595133937534,11.927388151158,2.80746369015283,0.5,4.18818051041703,1,0.5,0.598283632743175,0.655320697843456,13.3209063832026,3.18348114161366,0.5,-62.4442087246701
189,1,30,A,0,1,a,63,1,0.95,0A,1A,1,0,1,0,A01,3.34834282844028,2.70805020110221,0.997898704335443,0.200858183628413,0.5,0.5,0.200858183628413,0.400872242395927,0.5,0.200858183628413,0.5,0.5,0.999660901227369,0.5,0.5,0.5,0.200858183628413,0.986978886901818,0.759595133937534,1,1,0,0A,1A,0.997898704335443,0.200858183628413,0.999471023245285,0.000528976754714638,1,1,0.00210129566455708,0.00125717080365869,0.5,0.632091993228738,0.660595133937534,11.927388151158,2.80746369015283,0.5,15.4416018809498,1,0.5,0.598283632743175,0.655320697843456,13.3209063832026,3.18348114161366,0.5,-62.4442087246701
189,1,31,D,3,2,a,63,1,0.95,3D,2D,1,0,1,0,D32,2.12661580827292,2.73002910782099,0.999155875139102,0.200858183628413,0.5,0.5,0.200858183628413,0.400872242395927,0.5,0.200858183628413,0.5,0.5,0.999660901227369,0.5,0.5,0.5,0.200858183628413,0.986978886901818,0.756595133937534,1,1,0,3D,2D,0.986978886901818,0.200858183628413,0.996695024734393,0.00330497526560725,1,1,0.0130211130981815,0.00779031884673979,0.5,0.632091993228738,0.660595133937534,11.927388151158,2.80746369015283,0.5,14.416618417171,1,0.5,0.598283632743175,0.655320697843456,13.3209063832026,3.18348114161366,0.5,-62.4442087246701
189,1,32,C,3,2,l,63,1,0.95,3C,2C,0,1,0,1,C32,2.81943952081898,2.75153531304195,0.999155875139102,0.200858183628413,0.5,0.5,0.200858183628413,0.400872242395927,0.5,0.200858183628413,0.5,0.5,0.999660901227369,0.5,0.5,0.5,0.200858183628413,0.994769205748558,0.771595133937534,0,0,1,2C,3C,0.999660901227369,0.5,0.999660901227369,0.000339098772631274,1,1,0.000339098772631274,0.000202877245548591,0.5,0.632091993228738,0.660595133937534,11.927388151158,2.80746369015283,0.5,15.8837321423505,1,0.5,0.598283632743175,0.655320697843456,13.3209063832026,3.18348114161366,0.5,-62.4442087246701
189,1,33,D,1,3,l,27,1,0.95,1D,3D,0,1,0,1,D13,2.64661437831527,3.17805383034795,0.999155875139102,0.200858183628413,0.5,0.5,0.200858183628413,0.400872242395927,0.5,0.200858183628413,0.5,0.5,0.999863778472917,0.5,0.5,0.5,0.200858183628413,0.994769205748558,0.806595133937534,0,0,1,3D,1D,0.994769205748558,0.5,0.994769205748558,0.00523079425144179,1,1,0.00523079425144179,0.00312949858688471,0.5,0.632091993228738,0.660595133937534,11.927388151158,2.80746369015283,0.5,6.32158986420952,1,0.5,0.598283632743175,0.655320697843456,13.3209063832026,3.18348114161366,0.5,-62.4442087246701
189,1,34,C,2,0,a,27,1,0.95,2C,0C,1,0,1,0,C20,2.11134718853286,3.89182029811063,0.999155875139102,0.200858183628413,0.5,0.5,0.200858183628413,0.400872242395927,0.5,0.200858183628413,0.5,0.5,0.999863778472917,0.5,0.5,0.5,0.200858183628413,0.997898704335443,0.754595133937534,1,1,0,2C,0C,0.999863778472917,0.5,0.999863778472917,0.000136221527082703,1,1,0.000136221527082703,8.14991100808622e-05,0.5,0.632091993228738,0.660595133937534,11.927388151158,2.80746369015283,0.5,14.0716007351697,1,0.5,0.598283632743175,0.655320697843456,13.3209063832026,3.18348114161366,0.5,-62.4442087246701
189,1,35,D,3,2,a,63,0,0.95,3D,2D,1,0,0,1,D32,1.02508347875458,2.52572864430826,0.999155875139102,0.200858183628413,0.5,0.5,0.200858183628413,0.400872242395927,0.5,0.200858183628413,0.5,0.5,0.999945277582998,0.5,0.5,0.5,0.200858183628413,0.997898704335443,0.758595133937534,1,1,0,3D,2D,0.997898704335443,0.200858183628413,0.999471023245285,0.000528976754714638,1,0,-0.997898704335443,-0.597026461939516,0.5,0.632091993228738,0.660595133937534,11.927388151158,2.80746369015283,0.5,15.2159312924311,1,0.5,0.598283632743175,0.655320697843456,13.3209063832026,3.18348114161366,0.5,-62.4442087246701
189,1,36,A,0,1,a,63,1,0.95,0A,1A,1,0,1,0,A01,2.24764877456734,2.54553127160444,0.999155875139102,0.200858183628413,0.5,0.5,0.200858183628413,0.400872242395927,0.5,0.200858183628413,0.5,0.5,0.999945277582998,0.5,0.5,0.5,0.200858183628413,0.400872242395927,0.779595133937534,1,1,0,0A,1A,0.999155875139102,0.200858183628413,0.999787701507896,0.000212298492103691,1,1,0.000844124860898354,0.000505026088267094,0.5,0.632091993228738,0.660595133937534,11.927388151158,2.80746369015283,0.5,14.2654949642775,1,0.5,0.598283632743175,0.655320697843456,13.3209063832026,3.18348114161366,0.5,-62.4442087246701
189,1,37,C,3,2,l,63,1,0.95,3C,2C,0,1,0,1,C32,1.79301307959115,2.56494935746154,0.999660901227369,0.200858183628413,0.5,0.5,0.200858183628413,0.400872242395927,0.5,0.200858183628413,0.5,0.5,0.999945277582998,0.5,0.5,0.5,0.200858183628413,0.400872242395927,0.783595133937534,0,0,1,2C,3C,0.999945277582998,0.5,0.999945277582998,5.47224170018845e-05,1,1,5.47224170018845e-05,3.27395264363743e-05,0.5,0.632091993228738,0.660595133937534,11.927388151158,2.80746369015283,0.5,13.1077747796998,1,0.5,0.598283632743175,0.655320697843456,13.3209063832026,3.18348114161366,0.5,-62.4442087246701
189,1,38,A,2,0,l,27,1,0.95,2A,0A,0,1,0,1,A20,1.4072323091972,2.87167962488401,0.999660901227369,0.200858183628413,0.5,0.5,0.200858183628413,0.400872242395927,0.5,0.200858183628413,0.5,0.5,0.999978017109434,0.5,0.5,0.5,0.200858183628413,0.400872242395927,0.755595133937534,0,0,1,0A,2A,0.999660901227369,0.5,0.999660901227369,0.000339098772631274,1,1,0.000339098772631274,0.000202877245548591,0.5,0.632091993228738,0.660595133937534,11.927388151158,2.80746369015283,0.5,14.3932624130225,1,0.5,0.598283632743175,0.655320697843456,13.3209063832026,3.18348114161366,0.5,-62.4442087246701
189,1,39,D,3,2,a,63,1,0.95,3D,2D,1,0,1,0,D32,0.591770350050817,2.37954613413017,0.999863778472917,0.200858183628413,0.5,0.5,0.200858183628413,0.400872242395927,0.5,0.200858183628413,0.5,0.5,0.999978017109434,0.5,0.5,0.5,0.200858183628413,0.400872242395927,0.957595133937534,1,1,0,3D,2D,0.400872242395927,0.200858183628413,0.726931036583735,0.273068963416265,1,1,0.599127757604073,0.358448331296637,0.5,0.632091993228738,0.660595133937534,11.927388151158,2.80746369015283,0.5,3.48527381190203,0.999999995624413,0.5,0.598283632743175,0.655320697843456,13.3209063832026,3.18348114161366,0.5,-62.4442087246701
189,1,40,D,2,3,l,63,1,0.95,2D,3D,0,1,0,1,D23,1.00089049908878,3.31418600467253,0.999863778472917,0.200858183628413,0.5,0.5,0.200858183628413,0.400872242395927,0.5,0.200858183628413,0.5,0.5,0.999978017109434,0.5,0.5,0.5,0.200858183628413,0.759320573692564,0.766595133937534,0,0,1,3D,2D,0.759320573692564,0.200858183628413,0.926211348601087,0.0737886513989131,1,1,0.240679426307436,0.143994561497756,0.5,0.632091993228738,0.660595133937534,11.927388151158,2.80746369015283,0.5,10.5342533792807,1,0.5,0.598283632743175,0.655320697843456,13.3209063832026,3.18348114161366,0.5,-62.4442087246701
189,1,41,B,1,3,a,27,1,0.95,1B,3B,1,0,1,0,B13,3.28429832715638,3.3322045101752,0.999863778472917,0.200858183628413,0.5,0.5,0.200858183628413,0.400872242395927,0.5,0.200858183628413,0.5,0.5,0.999978017109434,0.5,0.5,0.5,0.200858183628413,0.90331513519032,0.960595133937534,1,1,0,1B,3B,0.400872242395927,0.200858183628413,0.726931036583735,0.273068963416265,1,1,0.599127757604073,0.358448331296637,0.5,0.632091993228738,0.660595133937534,11.927388151158,2.80746369015283,0.5,3.38828112652541,0.999999995611495,0.5,0.598283632743175,0.655320697843456,13.3209063832026,3.18348114161366,0.5,-62.4442087246701
189,1,42,D,0,3,l,9,1,0.95,0D,3D,0,1,0,1,D03,0.968444713741502,4.04305126783455,0.999863778472917,0.200858183628413,0.5,0.5,0.200858183628413,0.759320573692564,0.5,0.200858183628413,0.5,0.5,0.999978017109434,0.5,0.5,0.5,0.200858183628413,0.90331513519032,0.793595133937534,0,0,1,3D,0D,0.90331513519032,0.5,0.90331513519032,0.0966848648096801,1,1,0.0966848648096801,0.0578449721496181,0.5,0.632091993228738,0.660595133937534,11.927388151158,2.80746369015283,0.5,11.8590916089669,0.999999999999999,0.5,0.598283632743175,0.655320697843456,13.3209063832026,3.18348114161366,0.5,-62.4442087246701
189,1,43,B,1,0,a,63,1,0.95,1B,0B,1,0,1,0,B10,3.22212512124188,2.67414864942653,0.999863778472917,0.200858183628413,0.5,0.5,0.200858183628413,0.759320573692564,0.5,0.200858183628413,0.5,0.5,0.999978017109434,0.5,0.5,0.5,0.200858183628413,0.961160107339938,0.736595133937534,1,1,0,1B,0B,0.759320573692564,0.200858183628413,0.926211348601087,0.0737886513989131,1,1,0.240679426307436,0.143994561497756,0.5,0.632091993228738,0.660595133937534,11.927388151158,2.80746369015283,0.5,1.74834702364665,1,0.5,0.598283632743175,0.655320697843456,13.3209063832026,3.18348114161366,0.5,-62.4442087246701
189,1,44,A,1,0,l,63,1,0.95,1A,0A,0,1,0,1,A10,1.88561612779971,2.97892515523761,0.999863778472917,0.200858183628413,0.5,0.5,0.200858183628413,0.90331513519032,0.5,0.200858183628413,0.5,0.5,0.999978017109434,0.5,0.5,0.5,0.200858183628413,0.961160107339938,0.750595133937534,0,0,1,0A,1A,0.999863778472917,0.200858183628413,0.999965758268919,3.42417310806912e-05,1,1,0.000136221527082703,8.14991100808622e-05,0.5,0.632091993228738,0.660595133937534,11.927388151158,2.80746369015283,0.5,12.5042481364231,1,0.5,0.598283632743175,0.655320697843456,13.3209063832026,3.18348114161366,0.5,-62.4442087246701
