ID,filename,session,trial,visStimLeft,visStimRight,correctKey,leftCorrect,rightCorrect,secondStim,mod2Type,mod2Stim,frequency,rewardAccurate,stimPairLeft,stimPairRight,pCorrectLeft,pCorrectRight,key,reactionTime,choiceLeft,choiceRight,choiceAccurate,reward,chosenPair,otherPair,triplet,surprise,0A belief,1A belief,2A belief,3A belief,0B belief,1B belief,2B belief,3B belief,0C belief,1C belief,2C belief,3C belief,0D belief,1D belief,2D belief,3D belief,beliefPairNorm,beliefOtherPairNorm,beliefPair,beliefOtherPair,lik,corrLik,rewardPE,update2,fitCBCsimpleRW_CBCdriftDiffusionLR_pwBelief_startBelief,fitCBCsimpleRW_CBCdriftDiffusionLR_pwBelief_alpha1,fitCBCsimpleRW_CBCdriftDiffusionLR_pwBelief_nonDecisionTime,fitCBCsimpleRW_CBCdriftDiffusionLR_pwBelief_weight,fitCBCsimpleRW_CBCdriftDiffusionLR_pwBelief_startingBoundary,fitCBCsimpleRW_CBCdriftDiffusionLR_pwBelief_startingPoint,fit_CBCsimpleRW_CBCdriftDiffusionLR_pwBelief_NLL
CBC_1006,CBC_1006_MSI_AV_v3_Vset1_Aset3_2023-06-03_11h59.24.512.csv,1,1,0,1,z,0,1,2,aud,B,63,1,0B,1B,0,1,b,2.55529680000018,1,0,0,0,0B,1B,B01,2.77258872223978,0.5,0.5,0.5,0.5,0.5,0.5,0.5,0.5,0.5,0.5,0.5,0.5,0.5,0.5,0.5,0.5,0.5,0.5,0.5,0.5,0.155892818084481,0.499354156851682,-0.5,-0.0386502039912113,0.5,0.0773004079824227,1.09792928138998,1.67560312027255,2.38879645497737,0.5,69.7878096464359
CBC_1006,CBC_1006_MSI_AV_v3_Vset1_Aset3_2023-06-03_11h59.24.512.csv,1,2,1,0,z,0,1,1,aud,A,63,1,1A,0A,0,1,z,2.69709009999951,0,1,1,1,0A,1A,A10,2.83321334405622,0.5,0.5,0.5,0.5,0.461349796008789,0.5,0.5,0.5,0.5,0.5,0.5,0.5,0.5,0.5,0.5,0.5,0.5,0.5,0.5,0.5,0.13824306406607,0.50054807802769,0.5,0.0386502039912113,0.5,0.0773004079824227,1.09792928138998,1.67560312027255,2.38879645497737,0.5,69.7878096464359
CBC_1006,CBC_1006_MSI_AV_v3_Vset1_Aset3_2023-06-03_11h59.24.512.csv,1,3,2,1,b,1,0,0,aud,C,9,1,2C,1C,1,0,b,2.60880069999894,1,0,1,1,2C,1C,C21,2.89037175789616,0.538650203991211,0.5,0.5,0.5,0.461349796008789,0.5,0.5,0.5,0.5,0.5,0.5,0.5,0.5,0.5,0.5,0.5,0.5,0.5,0.5,0.5,0.148861916228267,0.499394794953542,0.5,0.0386502039912113,0.5,0.0773004079824227,1.09792928138998,1.67560312027255,2.38879645497737,0.5,69.7878096464359
CBC_1006,CBC_1006_MSI_AV_v3_Vset1_Aset3_2023-06-03_11h59.24.512.csv,1,4,0,1,b,1,0,1,aud,A,63,1,0A,1A,1,0,z,2.5874161999991,0,1,0,0,1A,0A,A01,2.94443897916644,0.538650203991211,0.5,0.5,0.5,0.461349796008789,0.5,0.5,0.5,0.5,0.5,0.538650203991211,0.5,0.5,0.5,0.5,0.5,0.461349796008789,0.538650203991211,0.5,0.538650203991211,0.128303946588682,0.422793230938844,-0.5,-0.0386502039912113,0.5,0.0773004079824227,1.09792928138998,1.67560312027255,2.38879645497737,0.5,69.7878096464359
CBC_1006,CBC_1006_MSI_AV_v3_Vset1_Aset3_2023-06-03_11h59.24.512.csv,1,5,1,3,z,0,1,3,aud,D,27,1,1D,3D,0,1,z,2.30660729999909,0,1,1,1,3D,1D,D13,2.99573227355399,0.538650203991211,0.461349796008789,0.5,0.5,0.461349796008789,0.5,0.5,0.5,0.5,0.5,0.538650203991211,0.5,0.5,0.5,0.5,0.5,0.5,0.5,0.5,0.5,0.193650373669446,0.500552275647322,0.5,0.0386502039912113,0.5,0.0773004079824227,1.09792928138998,1.67560312027255,2.38879645497737,0.5,69.7878096464359
CBC_1006,CBC_1006_MSI_AV_v3_Vset1_Aset3_2023-06-03_11h59.24.512.csv,1,6,1,0,b,1,0,2,aud,B,63,1,1B,0B,1,0,z,2.35215759999937,0,1,0,0,0B,1B,B10,3.04452243772342,0.538650203991211,0.461349796008789,0.5,0.5,0.461349796008789,0.5,0.5,0.5,0.5,0.5,0.538650203991211,0.5,0.5,0.5,0.5,0.538650203991211,0.461349796008789,0.538650203991211,0.461349796008789,0.5,0.157662820393775,0.423231425093498,-0.461349796008789,-0.0356625274540868,0.5,0.0773004079824227,1.09792928138998,1.67560312027255,2.38879645497737,0.5,69.7878096464359
CBC_1006,CBC_1006_MSI_AV_v3_Vset1_Aset3_2023-06-03_11h59.24.512.csv,1,7,3,2,z,0,1,0,aud,C,63,1,3C,2C,0,1,b,2.34101679999912,1,0,0,0,3C,2C,C32,3.09104245335832,0.538650203991211,0.461349796008789,0.5,0.5,0.425687268554702,0.5,0.5,0.5,0.5,0.5,0.538650203991211,0.5,0.5,0.5,0.5,0.538650203991211,0.461349796008789,0.538650203991211,0.5,0.538650203991211,0.159377937416492,0.423718946868027,-0.5,-0.0386502039912113,0.5,0.0773004079824227,1.09792928138998,1.67560312027255,2.38879645497737,0.5,69.7878096464359
CBC_1006,CBC_1006_MSI_AV_v3_Vset1_Aset3_2023-06-03_11h59.24.512.csv,1,8,0,2,b,1,0,1,aud,A,27,1,0A,2A,NaN,NaN,[],NaN,NaN,NaN,NaN,NaN,,,A02,3.13549421592915,0.538650203991211,0.461349796008789,0.5,0.5,0.425687268554702,0.5,0.5,0.5,0.5,0.5,0.538650203991211,0.461349796008789,0.5,0.5,0.5,0.538650203991211,0,0,0,0,NaN,0,0,0,0.5,0.0773004079824227,1.09792928138998,1.67560312027255,2.38879645497737,0.5,69.7878096464359
CBC_1006,CBC_1006_MSI_AV_v3_Vset1_Aset3_2023-06-03_11h59.24.512.csv,1,9,2,3,z,0,1,3,aud,D,63,1,2D,3D,0,1,z,1.54773629999909,0,1,1,1,3D,2D,D23,3.17805383034795,0.538650203991211,0.461349796008789,0.5,0.5,0.425687268554702,0.5,0.5,0.5,0.5,0.5,0.538650203991211,0.461349796008789,0.5,0.5,0.5,0.538650203991211,0.538650203991211,0.461349796008789,0.538650203991211,0.5,0.376178766378373,0.576769269264724,0.461349796008789,0.0356625274540868,0.5,0.0773004079824227,1.09792928138998,1.67560312027255,2.38879645497737,0.5,69.7878096464359
CBC_1006,CBC_1006_MSI_AV_v3_Vset1_Aset3_2023-06-03_11h59.24.512.csv,1,10,1,3,b,1,0,2,aud,B,27,1,1B,3B,1,0,b,2.44720770000004,1,0,1,1,1B,3B,B13,3.2188758248682,0.538650203991211,0.461349796008789,0.5,0.5,0.425687268554702,0.5,0.5,0.5,0.5,0.5,0.538650203991211,0.461349796008789,0.5,0.5,0.5,0.574312731445298,0.5,0.5,0.5,0.5,0.171190364133072,0.499490200718112,0.5,0.0386502039912113,0.5,0.0773004079824227,1.09792928138998,1.67560312027255,2.38879645497737,0.5,69.7878096464359
CBC_1006,CBC_1006_MSI_AV_v3_Vset1_Aset3_2023-06-03_11h59.24.512.csv,1,11,2,3,b,1,0,0,aud,C,63,1,2C,3C,1,0,z,2.27779049999936,0,1,0,0,3C,2C,C23,3.25809653802148,0.538650203991211,0.461349796008789,0.5,0.5,0.425687268554702,0.538650203991211,0.5,0.5,0.5,0.5,0.538650203991211,0.461349796008789,0.5,0.5,0.5,0.574312731445298,0.423158745643028,0.576841254356972,0.461349796008789,0.538650203991211,0.140449721563012,0.351550116594882,-0.461349796008789,-0.0356625274540868,0.5,0.0773004079824227,1.09792928138998,1.67560312027255,2.38879645497737,0.5,69.7878096464359
CBC_1006,CBC_1006_MSI_AV_v3_Vset1_Aset3_2023-06-03_11h59.24.512.csv,1,12,3,1,z,0,1,2,aud,B,27,1,3B,1B,0,1,b,3.15615789999902,1,0,0,0,3B,1B,B31,3.29583686600433,0.538650203991211,0.461349796008789,0.5,0.5,0.425687268554702,0.538650203991211,0.5,0.5,0.5,0.5,0.538650203991211,0.425687268554702,0.5,0.5,0.5,0.574312731445298,0.461349796008789,0.538650203991211,0.5,0.538650203991211,0.0781740447273677,0.423235970637057,-0.5,-0.0386502039912113,0.5,0.0773004079824227,1.09792928138998,1.67560312027255,2.38879645497737,0.5,69.7878096464359
CBC_1006,CBC_1006_MSI_AV_v3_Vset1_Aset3_2023-06-03_11h59.24.512.csv,1,13,2,3,b,1,0,0,aud,C,63,1,2C,3C,1,0,z,2.52524099999937,0,1,0,0,3C,2C,C23,2.63905732961526,0.538650203991211,0.461349796008789,0.5,0.5,0.425687268554702,0.538650203991211,0.5,0.461349796008789,0.5,0.5,0.538650203991211,0.425687268554702,0.5,0.5,0.5,0.574312731445298,0.388320133212996,0.611679866787004,0.425687268554702,0.538650203991211,0.0926286465100823,0.290037314034748,-0.425687268554702,-0.0329057995322016,0.5,0.0773004079824227,1.09792928138998,1.67560312027255,2.38879645497737,0.5,69.7878096464359
CBC_1006,CBC_1006_MSI_AV_v3_Vset1_Aset3_2023-06-03_11h59.24.512.csv,1,14,2,3,z,0,1,3,aud,D,63,1,2D,3D,0,1,z,2.56074889999945,0,1,1,1,3D,2D,D23,2.67414864942653,0.538650203991211,0.461349796008789,0.5,0.5,0.425687268554702,0.538650203991211,0.5,0.461349796008789,0.5,0.5,0.538650203991211,0.3927814690225,0.5,0.5,0.5,0.574312731445298,0.574312731445298,0.425687268554702,0.574312731445298,0.5,0.199845224947748,0.644293542504454,0.425687268554702,0.0329057995322016,0.5,0.0773004079824227,1.09792928138998,1.67560312027255,2.38879645497737,0.5,69.7878096464359
CBC_1006,CBC_1006_MSI_AV_v3_Vset1_Aset3_2023-06-03_11h59.24.512.csv,1,15,3,0,z,0,1,1,aud,A,9,1,3A,0A,0,1,z,2.37929759999952,0,1,1,1,0A,3A,A30,3.40119738166216,0.538650203991211,0.461349796008789,0.5,0.5,0.425687268554702,0.538650203991211,0.5,0.461349796008789,0.5,0.5,0.538650203991211,0.3927814690225,0.5,0.5,0.5,0.6072185309775,0.538650203991211,0.461349796008789,0.538650203991211,0.5,0.209955183965221,0.5770658389346,0.461349796008789,0.0356625274540868,0.5,0.0773004079824227,1.09792928138998,1.67560312027255,2.38879645497737,0.5,69.7878096464359
CBC_1006,CBC_1006_MSI_AV_v3_Vset1_Aset3_2023-06-03_11h59.24.512.csv,1,16,1,0,b,1,0,2,aud,B,63,0,1B,0B,0,1,b,2.23226160000013,1,0,1,0,1B,0B,B10,2.7408400239252,0.574312731445298,0.461349796008789,0.5,0.5,0.425687268554702,0.538650203991211,0.5,0.461349796008789,0.5,0.5,0.538650203991211,0.3927814690225,0.5,0.5,0.5,0.6072185309775,0.611679866787004,0.388320133212996,0.538650203991211,0.425687268554702,0.297537785461598,0.709208056437949,-0.538650203991211,-0.0416378805283358,0.5,0.0773004079824227,1.09792928138998,1.67560312027255,2.38879645497737,0.5,69.7878096464359
CBC_1006,CBC_1006_MSI_AV_v3_Vset1_Aset3_2023-06-03_11h59.24.512.csv,1,17,3,2,b,1,0,3,aud,D,63,1,3D,2D,1,0,z,2.79815820000022,0,1,0,0,2D,3D,D32,3.46573590279973,0.574312731445298,0.461349796008789,0.5,0.5,0.425687268554702,0.497012323462875,0.5,0.461349796008789,0.5,0.5,0.538650203991211,0.3927814690225,0.5,0.5,0.5,0.6072185309775,0.3927814690225,0.6072185309775,0.5,0.6072185309775,0.0736158686866019,0.296926691573684,-0.5,-0.0386502039912113,0.5,0.0773004079824227,1.09792928138998,1.67560312027255,2.38879645497737,0.5,69.7878096464359
CBC_1006,CBC_1006_MSI_AV_v3_Vset1_Aset3_2023-06-03_11h59.24.512.csv,1,18,2,0,b,1,0,0,aud,C,27,1,2C,0C,1,0,b,2.21556299999975,1,0,1,1,2C,0C,C20,3.49650756146648,0.574312731445298,0.461349796008789,0.5,0.5,0.425687268554702,0.497012323462875,0.5,0.461349796008789,0.5,0.5,0.538650203991211,0.3927814690225,0.5,0.5,0.461349796008789,0.6072185309775,0.538650203991211,0.461349796008789,0.538650203991211,0.5,0.24191288982182,0.576840494424222,0.461349796008789,0.0356625274540868,0.5,0.0773004079824227,1.09792928138998,1.67560312027255,2.38879645497737,0.5,69.7878096464359
CBC_1006,CBC_1006_MSI_AV_v3_Vset1_Aset3_2023-06-03_11h59.24.512.csv,1,19,1,0,z,0,1,1,aud,A,63,1,1A,0A,0,1,z,1.86715499999991,0,1,1,1,0A,1A,A10,2.83321334405622,0.574312731445298,0.461349796008789,0.5,0.5,0.425687268554702,0.497012323462875,0.5,0.461349796008789,0.5,0.5,0.574312731445298,0.3927814690225,0.5,0.5,0.461349796008789,0.6072185309775,0.611679866787004,0.388320133212996,0.574312731445298,0.461349796008789,0.412693845556192,0.708981738766278,0.425687268554702,0.0329057995322016,0.5,0.0773004079824227,1.09792928138998,1.67560312027255,2.38879645497737,0.5,69.7878096464359
CBC_1006,CBC_1006_MSI_AV_v3_Vset1_Aset3_2023-06-03_11h59.24.512.csv,1,20,0,1,z,0,1,2,aud,B,63,1,0B,1B,0,1,z,2.31210809999902,0,1,1,1,1B,0B,B01,2.86220088092947,0.6072185309775,0.461349796008789,0.5,0.5,0.425687268554702,0.497012323462875,0.5,0.461349796008789,0.5,0.5,0.574312731445298,0.3927814690225,0.5,0.5,0.461349796008789,0.6072185309775,0.571388454253141,0.428611545746859,0.497012323462875,0.425687268554702,0.247503133141335,0.639232091071577,0.502987676537125,0.0388811526064506,0.5,0.0773004079824227,1.09792928138998,1.67560312027255,2.38879645497737,0.5,69.7878096464359
CBC_1006,CBC_1006_MSI_AV_v3_Vset1_Aset3_2023-06-03_11h59.24.512.csv,1,21,3,1,b,1,0,3,aud,D,27,1,3D,1D,1,0,z,2.49641929999962,0,1,0,0,1D,3D,D31,3.58351893845611,0.6072185309775,0.461349796008789,0.5,0.5,0.425687268554702,0.535893476069326,0.5,0.461349796008789,0.5,0.5,0.574312731445298,0.3927814690225,0.5,0.5,0.461349796008789,0.6072185309775,0.3927814690225,0.6072185309775,0.5,0.6072185309775,0.0978696153962512,0.298207950784108,-0.5,-0.0386502039912113,0.5,0.0773004079824227,1.09792928138998,1.67560312027255,2.38879645497737,0.5,69.7878096464359
CBC_1006,CBC_1006_MSI_AV_v3_Vset1_Aset3_2023-06-03_11h59.24.512.csv,1,22,2,3,b,1,0,0,aud,C,63,1,2C,3C,1,0,b,3.14863089999926,1,0,1,1,2C,3C,C23,2.51230562397611,0.6072185309775,0.461349796008789,0.5,0.5,0.425687268554702,0.535893476069326,0.5,0.461349796008789,0.5,0.5,0.574312731445298,0.3927814690225,0.5,0.461349796008789,0.461349796008789,0.6072185309775,0.67592440941912,0.32407559058088,0.574312731445298,0.3927814690225,0.132326169913565,0.802969119981666,0.425687268554702,0.0329057995322016,0.5,0.0773004079824227,1.09792928138998,1.67560312027255,2.38879645497737,0.5,69.7878096464359
CBC_1006,CBC_1006_MSI_AV_v3_Vset1_Aset3_2023-06-03_11h59.24.512.csv,1,23,1,0,z,0,1,1,aud,A,63,1,1A,0A,0,1,z,2.15701049999916,0,1,1,1,0A,1A,A10,2.53897387105828,0.6072185309775,0.461349796008789,0.5,0.5,0.425687268554702,0.535893476069326,0.5,0.461349796008789,0.5,0.5,0.6072185309775,0.3927814690225,0.5,0.461349796008789,0.461349796008789,0.6072185309775,0.64349023052237,0.35650976947763,0.6072185309775,0.461349796008789,0.345595151077381,0.759477230766406,0.3927814690225,0.0303621678033746,0.5,0.0773004079824227,1.09792928138998,1.67560312027255,2.38879645497737,0.5,69.7878096464359
CBC_1006,CBC_1006_MSI_AV_v3_Vset1_Aset3_2023-06-03_11h59.24.512.csv,1,24,3,2,b,1,0,3,aud,D,63,1,3D,2D,1,0,b,2.50207559999944,1,0,1,1,3D,2D,D32,2.9704144655697,0.637580698780874,0.461349796008789,0.5,0.5,0.425687268554702,0.535893476069326,0.5,0.461349796008789,0.5,0.5,0.6072185309775,0.3927814690225,0.5,0.461349796008789,0.461349796008789,0.6072185309775,0.64349023052237,0.35650976947763,0.6072185309775,0.461349796008789,0.246727670667406,0.759146362468292,0.3927814690225,0.0303621678033746,0.5,0.0773004079824227,1.09792928138998,1.67560312027255,2.38879645497737,0.5,69.7878096464359
CBC_1006,CBC_1006_MSI_AV_v3_Vset1_Aset3_2023-06-03_11h59.24.512.csv,1,25,0,2,z,0,1,0,aud,C,27,1,0C,2C,0,1,z,2.62297639999906,0,1,1,1,2C,0C,C02,3.68887945411394,0.637580698780874,0.461349796008789,0.5,0.5,0.425687268554702,0.535893476069326,0.5,0.461349796008789,0.5,0.5,0.6072185309775,0.3927814690225,0.5,0.461349796008789,0.461349796008789,0.637580698780874,0.6072185309775,0.3927814690225,0.6072185309775,0.5,0.204853241940735,0.702000158802078,0.3927814690225,0.0303621678033746,0.5,0.0773004079824227,1.09792928138998,1.67560312027255,2.38879645497737,0.5,69.7878096464359
CBC_1006,CBC_1006_MSI_AV_v3_Vset1_Aset3_2023-06-03_11h59.24.512.csv,1,26,1,0,z,0,1,1,aud,A,63,1,1A,0A,0,1,z,1.72877139999946,0,1,1,1,0A,1A,A10,2.32727770558442,0.637580698780874,0.461349796008789,0.5,0.5,0.425687268554702,0.535893476069326,0.5,0.461349796008789,0.5,0.5,0.637580698780874,0.3927814690225,0.5,0.461349796008789,0.461349796008789,0.637580698780874,0.672560525165998,0.327439474834002,0.637580698780874,0.461349796008789,0.550630805758184,0.798934052242431,0.362419301219126,0.0280151598449429,0.5,0.0773004079824227,1.09792928138998,1.67560312027255,2.38879645497737,0.5,69.7878096464359
CBC_1006,CBC_1006_MSI_AV_v3_Vset1_Aset3_2023-06-03_11h59.24.512.csv,1,27,3,1,z,0,1,2,aud,B,27,1,3B,1B,0,1,z,2.26179400000001,0,1,1,1,1B,3B,B31,3.04452243772342,0.665595858625817,0.461349796008789,0.5,0.5,0.425687268554702,0.535893476069326,0.5,0.461349796008789,0.5,0.5,0.637580698780874,0.3927814690225,0.5,0.461349796008789,0.461349796008789,0.637580698780874,0.574132307971422,0.425867692028578,0.535893476069326,0.461349796008789,0.260930889418096,0.644154262076954,0.464106523930674,0.0358756236471451,0.5,0.0773004079824227,1.09792928138998,1.67560312027255,2.38879645497737,0.5,69.7878096464359
CBC_1006,CBC_1006_MSI_AV_v3_Vset1_Aset3_2023-06-03_11h59.24.512.csv,1,28,2,3,b,1,0,0,aud,C,63,1,2C,3C,1,0,b,2.68409960000008,1,0,1,1,2C,3C,C23,2.37490575457367,0.665595858625817,0.461349796008789,0.5,0.5,0.425687268554702,0.571769099716471,0.5,0.461349796008789,0.5,0.5,0.637580698780874,0.3927814690225,0.5,0.461349796008789,0.461349796008789,0.637580698780874,0.731159697647679,0.268840302352321,0.637580698780874,0.3927814690225,0.218861879344905,0.864429645125147,0.362419301219126,0.0280151598449429,0.5,0.0773004079824227,1.09792928138998,1.67560312027255,2.38879645497737,0.5,69.7878096464359
CBC_1006,CBC_1006_MSI_AV_v3_Vset1_Aset3_2023-06-03_11h59.24.512.csv,1,29,2,3,z,0,1,3,aud,D,63,1,2D,3D,0,1,z,1.4493068999991,0,1,1,1,3D,2D,D23,2.68557734525015,0.665595858625817,0.461349796008789,0.5,0.5,0.425687268554702,0.571769099716471,0.5,0.461349796008789,0.5,0.5,0.665595858625817,0.3927814690225,0.5,0.461349796008789,0.461349796008789,0.637580698780874,0.672560525165998,0.327439474834002,0.637580698780874,0.461349796008789,0.56605591681921,0.799771029738424,0.362419301219126,0.0280151598449429,0.5,0.0773004079824227,1.09792928138998,1.67560312027255,2.38879645497737,0.5,69.7878096464359
CBC_1006,CBC_1006_MSI_AV_v3_Vset1_Aset3_2023-06-03_11h59.24.512.csv,1,30,1,0,b,1,0,2,aud,B,63,1,1B,0B,1,0,b,2.26819809999961,1,0,1,1,1B,0B,B10,2.70805020110221,0.665595858625817,0.461349796008789,0.5,0.5,0.425687268554702,0.571769099716471,0.5,0.461349796008789,0.5,0.5,0.665595858625817,0.3927814690225,0.5,0.461349796008789,0.461349796008789,0.665595858625817,0.643030499815404,0.356969500184596,0.571769099716471,0.425687268554702,0.309948347803457,0.758863498357215,0.428230900283529,0.0331024233025969,0.5,0.0773004079824227,1.09792928138998,1.67560312027255,2.38879645497737,0.5,69.7878096464359
CBC_1006,CBC_1006_MSI_AV_v3_Vset1_Aset3_2023-06-03_11h59.24.512.csv,1,31,0,2,b,1,0,1,aud,A,27,1,0A,2A,1,0,b,2.77333379999982,1,0,1,1,0A,2A,A02,3.13549421592915,0.665595858625817,0.461349796008789,0.5,0.5,0.425687268554702,0.604871523019068,0.5,0.461349796008789,0.5,0.5,0.665595858625817,0.3927814690225,0.5,0.461349796008789,0.461349796008789,0.665595858625817,0.665595858625817,0.334404141374183,0.665595858625817,0.5,0.193794863637234,0.790052390748363,0.334404141374183,0.0258495765592361,0.5,0.0773004079824227,1.09792928138998,1.67560312027255,2.38879645497737,0.5,69.7878096464359
CBC_1006,CBC_1006_MSI_AV_v3_Vset1_Aset3_2023-06-03_11h59.24.512.csv,1,32,0,3,z,0,1,3,aud,D,9,1,0D,3D,0,1,z,1.63970229999904,0,1,1,1,3D,0D,D03,3.85014760171006,0.691445435185053,0.461349796008789,0.5,0.5,0.425687268554702,0.604871523019068,0.5,0.461349796008789,0.5,0.5,0.665595858625817,0.3927814690225,0.5,0.461349796008789,0.461349796008789,0.665595858625817,0.665595858625817,0.334404141374183,0.665595858625817,0.5,0.572020960144159,0.790396455306985,0.334404141374183,0.0258495765592361,0.5,0.0773004079824227,1.09792928138998,1.67560312027255,2.38879645497737,0.5,69.7878096464359
CBC_1006,CBC_1006_MSI_AV_v3_Vset1_Aset3_2023-06-03_11h59.24.512.csv,1,33,2,3,b,1,0,0,aud,C,63,1,2C,3C,1,0,z,1.6148747999996,0,1,0,0,3C,2C,C23,2.26176309847379,0.691445435185053,0.461349796008789,0.5,0.5,0.425687268554702,0.604871523019068,0.5,0.461349796008789,0.5,0.5,0.665595858625817,0.3927814690225,0.5,0.461349796008789,0.461349796008789,0.691445435185053,0.245276049046256,0.754723950953744,0.3927814690225,0.665595858625817,0.096491035802354,0.115310593563983,-0.3927814690225,-0.0303621678033746,0.5,0.0773004079824227,1.09792928138998,1.67560312027255,2.38879645497737,0.5,69.7878096464359
CBC_1006,CBC_1006_MSI_AV_v3_Vset1_Aset3_2023-06-03_11h59.24.512.csv,1,34,1,0,b,1,0,2,aud,B,63,1,1B,0B,1,0,b,3.33489709999958,1,0,1,1,1B,0B,B10,2.50552593699074,0.691445435185053,0.461349796008789,0.5,0.5,0.425687268554702,0.604871523019068,0.5,0.461349796008789,0.5,0.5,0.665595858625817,0.362419301219126,0.5,0.461349796008789,0.461349796008789,0.691445435185053,0.673767376696056,0.326232623303944,0.604871523019068,0.425687268554702,0.109157154628668,0.800235346868858,0.395128476980932,0.0305435924760993,0.5,0.0773004079824227,1.09792928138998,1.67560312027255,2.38879645497737,0.5,69.7878096464359
CBC_1006,CBC_1006_MSI_AV_v3_Vset1_Aset3_2023-06-03_11h59.24.512.csv,1,35,1,0,z,0,1,1,aud,A,63,0,1A,0A,1,0,z,1.25560809999934,0,1,1,0,0A,1A,A10,2.30258509299405,0.691445435185053,0.461349796008789,0.5,0.5,0.425687268554702,0.635415115495167,0.5,0.461349796008789,0.5,0.5,0.665595858625817,0.362419301219126,0.5,0.461349796008789,0.461349796008789,0.691445435185053,0.7234811295176,0.2765188704824,0.691445435185053,0.461349796008789,0.193403713146562,0.857065467970666,-0.691445435185053,-0.0534490142373884,0.5,0.0773004079824227,1.09792928138998,1.67560312027255,2.38879645497737,0.5,69.7878096464359
CBC_1006,CBC_1006_MSI_AV_v3_Vset1_Aset3_2023-06-03_11h59.24.512.csv,1,36,3,2,b,1,0,3,aud,D,63,1,3D,2D,1,0,z,2.6660538999995,0,1,0,0,2D,3D,D32,2.83321334405622,0.637996420947665,0.461349796008789,0.5,0.5,0.425687268554702,0.635415115495167,0.5,0.461349796008789,0.5,0.5,0.665595858625817,0.362419301219126,0.5,0.461349796008789,0.461349796008789,0.691445435185053,0.2765188704824,0.7234811295176,0.461349796008789,0.691445435185053,0.0374110398988886,0.143378185803808,-0.461349796008789,-0.0356625274540868,0.5,0.0773004079824227,1.09792928138998,1.67560312027255,2.38879645497737,0.5,69.7878096464359
CBC_1006,CBC_1006_MSI_AV_v3_Vset1_Aset3_2023-06-03_11h59.24.512.csv,1,37,2,1,z,0,1,2,aud,B,9,1,2B,1B,0,1,z,3.38084520000029,0,1,1,1,1B,2B,B21,3.95124371858143,0.637996420947665,0.461349796008789,0.5,0.5,0.425687268554702,0.635415115495167,0.5,0.461349796008789,0.5,0.5,0.665595858625817,0.362419301219126,0.5,0.461349796008789,0.425687268554702,0.691445435185053,0.635415115495167,0.364584884504833,0.635415115495167,0.5,0.10392304358036,0.747369125376631,0.364584884504833,0.028182560316448,0.5,0.0773004079824227,1.09792928138998,1.67560312027255,2.38879645497737,0.5,69.7878096464359
CBC_1006,CBC_1006_MSI_AV_v3_Vset1_Aset3_2023-06-03_11h59.24.512.csv,1,38,0,2,b,1,0,1,aud,A,27,1,0A,2A,1,0,b,2.83275429999958,1,0,1,1,0A,2A,A02,2.87167962488401,0.637996420947665,0.461349796008789,0.5,0.5,0.425687268554702,0.663597675811615,0.5,0.461349796008789,0.5,0.5,0.665595858625817,0.362419301219126,0.5,0.461349796008789,0.425687268554702,0.691445435185053,0.637996420947665,0.362003579052335,0.637996420947665,0.5,0.177257690972093,0.751292844566633,0.362003579052335,0.0279830243518427,0.5,0.0773004079824227,1.09792928138998,1.67560312027255,2.38879645497737,0.5,69.7878096464359
CBC_1006,CBC_1006_MSI_AV_v3_Vset1_Aset3_2023-06-03_11h59.24.512.csv,1,39,3,2,z,0,1,0,aud,C,63,1,3C,2C,0,1,b,2.11759230000007,1,0,0,0,3C,2C,C32,3.29583686600433,0.665979445299508,0.461349796008789,0.5,0.5,0.425687268554702,0.663597675811615,0.5,0.461349796008789,0.5,0.5,0.665595858625817,0.362419301219126,0.5,0.461349796008789,0.425687268554702,0.691445435185053,0.22214472087647,0.77785527912353,0.362419301219126,0.665595858625817,0.0480929469443592,0.0976683335345906,-0.362419301219126,-0.0280151598449429,0.5,0.0773004079824227,1.09792928138998,1.67560312027255,2.38879645497737,0.5,69.7878096464359
CBC_1006,CBC_1006_MSI_AV_v3_Vset1_Aset3_2023-06-03_11h59.24.512.csv,1,40,3,1,b,1,0,3,aud,D,27,1,3D,1D,1,0,b,1.46296089999942,1,0,1,1,3D,1D,D31,3.31418600467253,0.665979445299508,0.461349796008789,0.5,0.5,0.425687268554702,0.663597675811615,0.5,0.461349796008789,0.5,0.5,0.665595858625817,0.334404141374183,0.5,0.461349796008789,0.425687268554702,0.691445435185053,0.7234811295176,0.2765188704824,0.691445435185053,0.461349796008789,0.676692785489555,0.857131845071111,0.308554564814947,0.0238513937450343,0.5,0.0773004079824227,1.09792928138998,1.67560312027255,2.38879645497737,0.5,69.7878096464359
CBC_1006,CBC_1006_MSI_AV_v3_Vset1_Aset3_2023-06-03_11h59.24.512.csv,1,41,1,0,z,0,1,1,aud,A,63,1,1A,0A,0,1,z,1.43725229999927,0,1,1,1,0A,1A,A10,2.23359222150709,0.665979445299508,0.461349796008789,0.5,0.5,0.425687268554702,0.663597675811615,0.5,0.461349796008789,0.5,0.5,0.665595858625817,0.334404141374183,0.5,0.461349796008789,0.425687268554702,0.715296828930088,0.699510108640856,0.300489891359144,0.665979445299508,0.461349796008789,0.606882407512583,0.83163619757473,0.334020554700492,0.0258199251528632,0.5,0.0773004079824227,1.09792928138998,1.67560312027255,2.38879645497737,0.5,69.7878096464359
CBC_1006,CBC_1006_MSI_AV_v3_Vset1_Aset3_2023-06-03_11h59.24.512.csv,1,42,2,0,b,1,0,0,aud,C,27,1,2C,0C,1,0,b,2.9706699999997,1,0,1,1,2C,0C,C20,3.3499040872746,0.691799370452371,0.461349796008789,0.5,0.5,0.425687268554702,0.663597675811615,0.5,0.461349796008789,0.5,0.5,0.665595858625817,0.334404141374183,0.5,0.461349796008789,0.425687268554702,0.715296828930088,0.665595858625817,0.334404141374183,0.665595858625817,0.5,0.158506909198208,0.790051023904661,0.334404141374183,0.0258495765592361,0.5,0.0773004079824227,1.09792928138998,1.67560312027255,2.38879645497737,0.5,69.7878096464359
CBC_1006,CBC_1006_MSI_AV_v3_Vset1_Aset3_2023-06-03_11h59.24.512.csv,1,43,2,3,z,0,1,3,aud,D,63,1,2D,3D,0,1,z,1.41254589999971,0,1,1,1,3D,2D,D23,2.67414864942653,0.691799370452371,0.461349796008789,0.5,0.5,0.425687268554702,0.663597675811615,0.5,0.461349796008789,0.5,0.5,0.691445435185053,0.334404141374183,0.5,0.461349796008789,0.425687268554702,0.715296828930088,0.77219015740998,0.22780984259002,0.715296828930088,0.425687268554702,0.729940361494797,0.898462346318737,0.284703171069912,0.0220076712775937,0.5,0.0773004079824227,1.09792928138998,1.67560312027255,2.38879645497737,0.5,69.7878096464359
CBC_1006,CBC_1006_MSI_AV_v3_Vset1_Aset3_2023-06-03_11h59.24.512.csv,1,44,0,1,z,0,1,2,aud,B,63,1,0B,1B,0,1,z,2.23342979999961,0,1,1,1,1B,0B,B01,2.97892515523761,0.691799370452371,0.461349796008789,0.5,0.5,0.425687268554702,0.663597675811615,0.5,0.461349796008789,0.5,0.5,0.691445435185053,0.334404141374183,0.5,0.461349796008789,0.425687268554702,0.737304500207681,0.726877456251479,0.273122543748521,0.663597675811615,0.425687268554702,0.367878021530922,0.860171076487345,0.336402324188385,0.0260040369059973,0.5,0.0773004079824227,1.09792928138998,1.67560312027255,2.38879645497737,0.5,69.7878096464359
CBC_1006,CBC_1006_MSI_TV_v3_Vset4_Tset3_2023-06-03_12h08.01.236.csv,2,1,1,0,z,0,1,1,tac,A,63,1,1A,0A,NaN,NaN,None,NaN,NaN,NaN,NaN,NaN,,,A10,2.77258872223978,0.5,0.5,0.5,0.5,0.5,0.5,0.5,0.5,0.5,0.5,0.5,0.5,0.5,0.5,0.5,0.5,0,0,0,0,NaN,0,0,0,0.5,0.0194640143120309,0.903080978367148,3.31311905013116,2.57197480465301,0.5,81.529370070768
CBC_1006,CBC_1006_MSI_TV_v3_Vset4_Tset3_2023-06-03_12h08.01.236.csv,2,2,3,2,b,1,0,3,tac,D,63,1,3D,2D,1,0,z,2.59424890000082,0,1,0,0,2D,3D,D32,2.83321334405622,0.5,0.5,0.5,0.5,0.5,0.5,0.5,0.5,0.5,0.5,0.5,0.5,0.5,0.5,0.5,0.5,0.5,0.5,0.5,0.5,0.134721055979892,0.500899522418826,-0.5,-0.00973200715601547,0.5,0.0194640143120309,0.903080978367148,3.31311905013116,2.57197480465301,0.5,81.529370070768
CBC_1006,CBC_1006_MSI_TV_v3_Vset4_Tset3_2023-06-03_12h08.01.236.csv,2,3,2,0,b,1,0,0,tac,C,27,1,2C,0C,1,0,b,3.27190340000107,1,0,1,1,2C,0C,C20,2.89037175789616,0.5,0.5,0.5,0.5,0.5,0.5,0.5,0.5,0.5,0.5,0.5,0.5,0.5,0.5,0.490267992843985,0.5,0.5,0.5,0.5,0.5,0.080983854327853,0.499124199902222,0.5,0.00973200715601547,0.5,0.0194640143120309,0.903080978367148,3.31311905013116,2.57197480465301,0.5,81.529370070768
CBC_1006,CBC_1006_MSI_TV_v3_Vset4_Tset3_2023-06-03_12h08.01.236.csv,2,4,1,0,z,0,1,1,tac,A,63,1,1A,0A,0,1,z,2.72173430000021,0,1,1,1,0A,1A,A10,2.2512917986065,0.5,0.5,0.5,0.5,0.5,0.5,0.5,0.5,0.5,0.5,0.509732007156015,0.5,0.5,0.5,0.490267992843985,0.5,0.5,0.5,0.5,0.5,0.122151410154083,0.499445226967853,0.5,0.00973200715601547,0.5,0.0194640143120309,0.903080978367148,3.31311905013116,2.57197480465301,0.5,81.529370070768
CBC_1006,CBC_1006_MSI_TV_v3_Vset4_Tset3_2023-06-03_12h08.01.236.csv,2,5,3,1,z,0,1,2,tac,B,27,1,3B,1B,0,1,b,2.35638590000053,1,0,0,0,3B,1B,B31,2.99573227355399,0.509732007156015,0.5,0.5,0.5,0.5,0.5,0.5,0.5,0.5,0.5,0.509732007156015,0.5,0.5,0.5,0.490267992843985,0.5,0.5,0.5,0.5,0.5,0.160816254371631,0.500899687609073,-0.5,-0.00973200715601547,0.5,0.0194640143120309,0.903080978367148,3.31311905013116,2.57197480465301,0.5,81.529370070768
CBC_1006,CBC_1006_MSI_TV_v3_Vset4_Tset3_2023-06-03_12h08.01.236.csv,2,6,2,3,b,1,0,0,tac,C,63,1,2C,3C,1,0,b,3.01857459999974,1,0,1,1,2C,3C,C23,3.04452243772342,0.509732007156015,0.5,0.5,0.5,0.5,0.5,0.5,0.490267992843985,0.5,0.5,0.509732007156015,0.5,0.5,0.5,0.490267992843985,0.5,0.509732007156015,0.490267992843985,0.509732007156015,0.5,0.105939374978497,0.541013539399268,0.490267992843985,0.00954258322944599,0.5,0.0194640143120309,0.903080978367148,3.31311905013116,2.57197480465301,0.5,81.529370070768
CBC_1006,CBC_1006_MSI_TV_v3_Vset4_Tset3_2023-06-03_12h08.01.236.csv,2,7,2,3,z,0,1,3,tac,D,63,0,2D,3D,1,0,b,3.06619090000004,1,0,0,1,2D,3D,D23,3.09104245335832,0.509732007156015,0.5,0.5,0.5,0.5,0.5,0.5,0.490267992843985,0.5,0.5,0.519274590385461,0.5,0.5,0.5,0.490267992843985,0.5,0.490267992843985,0.509732007156015,0.490267992843985,0.5,0.0868479424256043,0.459584151870652,0.509732007156015,0.00992143108258494,0.5,0.0194640143120309,0.903080978367148,3.31311905013116,2.57197480465301,0.5,81.529370070768
CBC_1006,CBC_1006_MSI_TV_v3_Vset4_Tset3_2023-06-03_12h08.01.236.csv,2,8,1,0,b,1,0,2,tac,B,63,1,1B,0B,1,0,z,2.34549130000141,0,1,0,0,0B,1B,B10,3.13549421592915,0.509732007156015,0.5,0.5,0.5,0.5,0.5,0.5,0.490267992843985,0.5,0.5,0.519274590385461,0.5,0.5,0.5,0.50018942392657,0.5,0.5,0.5,0.5,0.5,0.161679831274455,0.499530554326227,-0.5,-0.00973200715601547,0.5,0.0194640143120309,0.903080978367148,3.31311905013116,2.57197480465301,0.5,81.529370070768
CBC_1006,CBC_1006_MSI_TV_v3_Vset4_Tset3_2023-06-03_12h08.01.236.csv,2,9,0,2,b,1,0,1,tac,A,27,1,0A,2A,1,0,b,2.85200260000056,1,0,1,1,0A,2A,A02,3.17805383034795,0.509732007156015,0.5,0.5,0.5,0.490267992843985,0.5,0.5,0.490267992843985,0.5,0.5,0.519274590385461,0.5,0.5,0.5,0.50018942392657,0.5,0.509732007156015,0.490267992843985,0.509732007156015,0.5,0.119968867984079,0.540892405767883,0.490267992843985,0.00954258322944599,0.5,0.0194640143120309,0.903080978367148,3.31311905013116,2.57197480465301,0.5,81.529370070768
CBC_1006,CBC_1006_MSI_TV_v3_Vset4_Tset3_2023-06-03_12h08.01.236.csv,2,10,0,3,z,0,1,3,tac,D,9,1,0D,3D,0,1,z,1.78596300000027,0,1,1,1,3D,0D,D03,3.2188758248682,0.519274590385461,0.5,0.5,0.5,0.490267992843985,0.5,0.5,0.490267992843985,0.5,0.5,0.519274590385461,0.5,0.5,0.5,0.50018942392657,0.5,0.5,0.5,0.5,0.5,0.242080116244844,0.500161888735185,0.5,0.00973200715601547,0.5,0.0194640143120309,0.903080978367148,3.31311905013116,2.57197480465301,0.5,81.529370070768
CBC_1006,CBC_1006_MSI_TV_v3_Vset4_Tset3_2023-06-03_12h08.01.236.csv,2,11,3,2,z,0,1,0,tac,C,63,1,3C,2C,0,1,b,2.4825505000008,1,0,0,0,3C,2C,C32,3.25809653802148,0.519274590385461,0.5,0.5,0.5,0.490267992843985,0.5,0.5,0.490267992843985,0.5,0.5,0.519274590385461,0.5,0.5,0.5,0.50018942392657,0.509732007156015,0.480725409614539,0.519274590385461,0.5,0.519274590385461,0.122616357681473,0.419269092296074,-0.5,-0.00973200715601547,0.5,0.0194640143120309,0.903080978367148,3.31311905013116,2.57197480465301,0.5,81.529370070768
CBC_1006,CBC_1006_MSI_TV_v3_Vset4_Tset3_2023-06-03_12h08.01.236.csv,2,12,1,0,b,1,0,2,tac,B,63,1,1B,0B,1,0,b,2.75120670000069,1,0,1,1,1B,0B,B10,2.60268968544438,0.519274590385461,0.5,0.5,0.5,0.490267992843985,0.5,0.5,0.490267992843985,0.5,0.5,0.519274590385461,0.490267992843985,0.5,0.5,0.50018942392657,0.509732007156015,0.509732007156015,0.490267992843985,0.5,0.490267992843985,0.129353928734157,0.540861754277226,0.5,0.00973200715601547,0.5,0.0194640143120309,0.903080978367148,3.31311905013116,2.57197480465301,0.5,81.529370070768
CBC_1006,CBC_1006_MSI_TV_v3_Vset4_Tset3_2023-06-03_12h08.01.236.csv,2,13,3,2,b,1,0,3,tac,D,63,1,3D,2D,1,0,z,2.40526090000003,0,1,0,0,2D,3D,D32,2.63905732961526,0.519274590385461,0.5,0.5,0.5,0.490267992843985,0.509732007156015,0.5,0.490267992843985,0.5,0.5,0.519274590385461,0.490267992843985,0.5,0.5,0.50018942392657,0.509732007156015,0.49045734640398,0.50954265359602,0.50018942392657,0.509732007156015,0.142588782302967,0.460426889683042,-0.50018942392657,-0.00973569410603325,0.5,0.0194640143120309,0.903080978367148,3.31311905013116,2.57197480465301,0.5,81.529370070768
CBC_1006,CBC_1006_MSI_TV_v3_Vset4_Tset3_2023-06-03_12h08.01.236.csv,2,14,3,2,z,0,1,0,tac,C,63,1,3C,2C,0,1,b,2.39105400000062,1,0,0,0,3C,2C,C32,2.67414864942653,0.519274590385461,0.5,0.5,0.5,0.490267992843985,0.509732007156015,0.5,0.490267992843985,0.5,0.5,0.519274590385461,0.490267992843985,0.5,0.5,0.490453729820536,0.509732007156015,0.471015150423211,0.528984849576789,0.490267992843985,0.519274590385461,0.11876128432576,0.378514360456161,-0.490267992843985,-0.00954258322944599,0.5,0.0194640143120309,0.903080978367148,3.31311905013116,2.57197480465301,0.5,81.529370070768
CBC_1006,CBC_1006_MSI_TV_v3_Vset4_Tset3_2023-06-03_12h08.01.236.csv,2,15,1,3,b,1,0,2,tac,B,27,1,1B,3B,1,0,z,2.32436779999989,0,1,0,0,3B,1B,B13,3.40119738166216,0.519274590385461,0.5,0.5,0.5,0.490267992843985,0.509732007156015,0.5,0.490267992843985,0.5,0.5,0.519274590385461,0.480725409614539,0.5,0.5,0.490453729820536,0.509732007156015,0.480543356795476,0.519456643204524,0.490267992843985,0.509732007156015,0.137477206817508,0.417353036946008,-0.490267992843985,-0.00954258322944599,0.5,0.0194640143120309,0.903080978367148,3.31311905013116,2.57197480465301,0.5,81.529370070768
CBC_1006,CBC_1006_MSI_TV_v3_Vset4_Tset3_2023-06-03_12h08.01.236.csv,2,16,3,0,z,0,1,1,tac,A,9,1,3A,0A,0,1,b,2.79982820000077,1,0,0,0,3A,0A,A30,3.43398720448515,0.519274590385461,0.5,0.5,0.5,0.490267992843985,0.509732007156015,0.5,0.480725409614539,0.5,0.5,0.519274590385461,0.480725409614539,0.5,0.5,0.490453729820536,0.509732007156015,0.480725409614539,0.519274590385461,0.5,0.519274590385461,0.0963304953961635,0.418347860626419,-0.5,-0.00973200715601547,0.5,0.0194640143120309,0.903080978367148,3.31311905013116,2.57197480465301,0.5,81.529370070768
CBC_1006,CBC_1006_MSI_TV_v3_Vset4_Tset3_2023-06-03_12h08.01.236.csv,2,17,3,2,b,1,0,3,tac,D,63,1,3D,2D,NaN,NaN,None,NaN,NaN,NaN,NaN,NaN,,,D32,2.36712361413162,0.519274590385461,0.5,0.5,0.490267992843985,0.490267992843985,0.509732007156015,0.5,0.480725409614539,0.5,0.5,0.519274590385461,0.480725409614539,0.5,0.5,0.490453729820536,0.509732007156015,0,0,0,0,NaN,0,0,0,0.5,0.0194640143120309,0.903080978367148,3.31311905013116,2.57197480465301,0.5,81.529370070768
CBC_1006,CBC_1006_MSI_TV_v3_Vset4_Tset3_2023-06-03_12h08.01.236.csv,2,18,2,0,b,1,0,0,tac,C,27,1,2C,0C,1,0,b,1.93140870000025,1,0,1,1,2C,0C,C20,2.80336038090653,0.519274590385461,0.5,0.5,0.490267992843985,0.490267992843985,0.509732007156015,0.5,0.480725409614539,0.5,0.5,0.519274590385461,0.480725409614539,0.5,0.5,0.490453729820536,0.509732007156015,0.519274590385461,0.480725409614539,0.519274590385461,0.5,0.255691124258158,0.580637678296611,0.480725409614539,0.00935684625289431,0.5,0.0194640143120309,0.903080978367148,3.31311905013116,2.57197480465301,0.5,81.529370070768
CBC_1006,CBC_1006_MSI_TV_v3_Vset4_Tset3_2023-06-03_12h08.01.236.csv,2,19,1,0,z,0,1,1,tac,A,63,1,1A,0A,0,1,b,2.35746430000017,1,0,0,0,1A,0A,A10,2.42774823594805,0.519274590385461,0.5,0.5,0.490267992843985,0.490267992843985,0.509732007156015,0.5,0.480725409614539,0.5,0.5,0.528631436638356,0.480725409614539,0.5,0.5,0.490453729820536,0.509732007156015,0.480725409614539,0.519274590385461,0.5,0.519274590385461,0.13435683925162,0.418158740662618,-0.5,-0.00973200715601547,0.5,0.0194640143120309,0.903080978367148,3.31311905013116,2.57197480465301,0.5,81.529370070768
CBC_1006,CBC_1006_MSI_TV_v3_Vset4_Tset3_2023-06-03_12h08.01.236.csv,2,20,0,1,z,0,1,2,tac,B,63,0,0B,1B,1,0,z,2.44078300000001,0,1,1,0,1B,0B,B01,3.55534806148941,0.519274590385461,0.490267992843985,0.5,0.490267992843985,0.490267992843985,0.509732007156015,0.5,0.480725409614539,0.5,0.5,0.528631436638356,0.480725409614539,0.5,0.5,0.490453729820536,0.509732007156015,0.519456643204524,0.480543356795476,0.509732007156015,0.490267992843985,0.175510316658296,0.581556611405976,-0.509732007156015,-0.00992143108258494,0.5,0.0194640143120309,0.903080978367148,3.31311905013116,2.57197480465301,0.5,81.529370070768
CBC_1006,CBC_1006_MSI_TV_v3_Vset4_Tset3_2023-06-03_12h08.01.236.csv,2,21,1,3,z,0,1,3,tac,D,27,1,1D,3D,0,1,b,2.34393900000032,1,0,0,0,1D,3D,D13,3.58351893845611,0.519274590385461,0.490267992843985,0.5,0.490267992843985,0.490267992843985,0.49981057607343,0.5,0.480725409614539,0.5,0.5,0.528631436638356,0.480725409614539,0.5,0.5,0.490453729820536,0.509732007156015,0.490267992843985,0.509732007156015,0.5,0.509732007156015,0.148909967800936,0.459351685669627,-0.5,-0.00973200715601547,0.5,0.0194640143120309,0.903080978367148,3.31311905013116,2.57197480465301,0.5,81.529370070768
CBC_1006,CBC_1006_MSI_TV_v3_Vset4_Tset3_2023-06-03_12h08.01.236.csv,2,22,2,3,b,1,0,0,tac,C,63,1,2C,3C,1,0,z,2.70805410000048,0,1,0,0,3C,2C,C23,2.91777073208428,0.519274590385461,0.490267992843985,0.5,0.490267992843985,0.490267992843985,0.49981057607343,0.5,0.480725409614539,0.5,0.5,0.528631436638356,0.480725409614539,0.5,0.490267992843985,0.490453729820536,0.509732007156015,0.452199489584486,0.547800510415514,0.480725409614539,0.528631436638356,0.0751184011550502,0.307006657897117,-0.480725409614539,-0.00935684625289431,0.5,0.0194640143120309,0.903080978367148,3.31311905013116,2.57197480465301,0.5,81.529370070768
CBC_1006,CBC_1006_MSI_TV_v3_Vset4_Tset3_2023-06-03_12h08.01.236.csv,2,23,1,0,b,1,0,2,tac,B,63,1,1B,0B,1,0,b,1.2663235,1,0,1,1,1B,0B,B10,2.53897387105828,0.519274590385461,0.490267992843985,0.5,0.490267992843985,0.490267992843985,0.49981057607343,0.5,0.480725409614539,0.5,0.5,0.528631436638356,0.471368563361644,0.5,0.490267992843985,0.490453729820536,0.509732007156015,0.50954265359602,0.49045734640398,0.49981057607343,0.490267992843985,0.26076542580875,0.54059465625882,0.50018942392657,0.00973569410603325,0.5,0.0194640143120309,0.903080978367148,3.31311905013116,2.57197480465301,0.5,81.529370070768
CBC_1006,CBC_1006_MSI_TV_v3_Vset4_Tset3_2023-06-03_12h08.01.236.csv,2,24,2,0,z,0,1,1,tac,A,27,1,2A,0A,0,1,z,2.81869590000042,0,1,1,1,0A,2A,A20,3.66356164612965,0.519274590385461,0.490267992843985,0.5,0.490267992843985,0.490267992843985,0.509546270179464,0.5,0.480725409614539,0.5,0.5,0.528631436638356,0.471368563361644,0.5,0.490267992843985,0.490453729820536,0.509732007156015,0.519274590385461,0.480725409614539,0.519274590385461,0.5,0.131848494332485,0.580772174161265,0.480725409614539,0.00935684625289431,0.5,0.0194640143120309,0.903080978367148,3.31311905013116,2.57197480465301,0.5,81.529370070768
CBC_1006,CBC_1006_MSI_TV_v3_Vset4_Tset3_2023-06-03_12h08.01.236.csv,2,25,2,3,z,0,1,3,tac,D,63,1,2D,3D,0,1,z,2.89427060000071,0,1,1,1,3D,2D,D23,2.99573227355399,0.528631436638356,0.490267992843985,0.5,0.490267992843985,0.490267992843985,0.509546270179464,0.5,0.480725409614539,0.5,0.5,0.528631436638356,0.471368563361644,0.5,0.490267992843985,0.490453729820536,0.509732007156015,0.519271115851992,0.480728884148007,0.509732007156015,0.490453729820536,0.124625028393343,0.581153680095921,0.490267992843985,0.00954258322944599,0.5,0.0194640143120309,0.903080978367148,3.31311905013116,2.57197480465301,0.5,81.529370070768
CBC_1006,CBC_1006_MSI_TV_v3_Vset4_Tset3_2023-06-03_12h08.01.236.csv,2,26,2,0,b,1,0,0,tac,C,27,1,2C,0C,1,0,b,2.92750330000035,1,0,1,1,2C,0C,C20,2.6149597780362,0.528631436638356,0.490267992843985,0.5,0.490267992843985,0.490267992843985,0.509546270179464,0.5,0.480725409614539,0.5,0.5,0.528631436638356,0.471368563361644,0.5,0.490267992843985,0.490453729820536,0.519274590385461,0.528631436638356,0.471368563361644,0.528631436638356,0.5,0.12910020131866,0.619715150288085,0.471368563361644,0.0091747244635125,0.5,0.0194640143120309,0.903080978367148,3.31311905013116,2.57197480465301,0.5,81.529370070768
CBC_1006,CBC_1006_MSI_TV_v3_Vset4_Tset3_2023-06-03_12h08.01.236.csv,2,27,1,0,b,1,0,2,tac,B,63,1,1B,0B,1,0,z,2.35325800000101,0,1,0,0,0B,1B,B10,2.35137525716348,0.528631436638356,0.490267992843985,0.5,0.490267992843985,0.490267992843985,0.509546270179464,0.5,0.480725409614539,0.5,0.5,0.537806161101868,0.471368563361644,0.5,0.490267992843985,0.490453729820536,0.519274590385461,0.480728884148007,0.519271115851993,0.490267992843985,0.509546270179464,0.134770982855629,0.418123918486061,-0.490267992843985,-0.00954258322944599,0.5,0.0194640143120309,0.903080978367148,3.31311905013116,2.57197480465301,0.5,81.529370070768
CBC_1006,CBC_1006_MSI_TV_v3_Vset4_Tset3_2023-06-03_12h08.01.236.csv,2,28,0,1,b,1,0,1,tac,A,63,1,0A,1A,1,0,z,3.22679290000087,0,1,0,0,1A,0A,A01,3.76120011569356,0.528631436638356,0.490267992843985,0.5,0.490267992843985,0.480725409614539,0.509546270179464,0.5,0.480725409614539,0.5,0.5,0.537806161101868,0.471368563361644,0.5,0.490267992843985,0.490453729820536,0.519274590385461,0.461679267167971,0.538320732832029,0.490267992843985,0.528631436638356,0.0561435207548907,0.342205739584239,-0.490267992843985,-0.00954258322944599,0.5,0.0194640143120309,0.903080978367148,3.31311905013116,2.57197480465301,0.5,81.529370070768
CBC_1006,CBC_1006_MSI_TV_v3_Vset4_Tset3_2023-06-03_12h08.01.236.csv,2,29,3,2,z,0,1,0,tac,C,63,0,3C,2C,1,0,z,2.43088890000035,0,1,1,0,2C,3C,C32,2.68557734525015,0.528631436638356,0.480725409614539,0.5,0.490267992843985,0.480725409614539,0.509546270179464,0.5,0.480725409614539,0.5,0.5,0.537806161101868,0.471368563361644,0.5,0.490267992843985,0.490453729820536,0.519274590385461,0.566151177771493,0.433848822228507,0.537806161101868,0.471368563361644,0.230568610629836,0.755788345551011,-0.537806161101868,-0.0104678668167852,0.5,0.0194640143120309,0.903080978367148,3.31311905013116,2.57197480465301,0.5,81.529370070768
CBC_1006,CBC_1006_MSI_TV_v3_Vset4_Tset3_2023-06-03_12h08.01.236.csv,2,30,3,1,b,1,0,3,tac,D,27,1,3D,1D,1,0,b,1.14110750000054,1,0,1,1,3D,1D,D31,3.80666248977032,0.528631436638356,0.480725409614539,0.5,0.490267992843985,0.480725409614539,0.509546270179464,0.5,0.480725409614539,0.5,0.5,0.527338294285083,0.471368563361644,0.5,0.490267992843985,0.490453729820536,0.519274590385461,0.528984849576789,0.471015150423211,0.519274590385461,0.490267992843985,0.174593367378752,0.621220542315266,0.480725409614539,0.00935684625289431,0.5,0.0194640143120309,0.903080978367148,3.31311905013116,2.57197480465301,0.5,81.529370070768
CBC_1006,CBC_1006_MSI_TV_v3_Vset4_Tset3_2023-06-03_12h08.01.236.csv,2,31,1,0,z,0,1,1,tac,A,63,1,1A,0A,0,1,z,2.71044070000062,0,1,1,1,0A,1A,A10,2.4423470353692,0.528631436638356,0.480725409614539,0.5,0.490267992843985,0.480725409614539,0.509546270179464,0.5,0.480725409614539,0.5,0.5,0.527338294285083,0.471368563361644,0.5,0.490267992843985,0.490453729820536,0.528631436638356,0.547800510415514,0.452199489584486,0.528631436638356,0.480725409614539,0.169016196240899,0.691980764543711,0.471368563361644,0.0091747244635125,0.5,0.0194640143120309,0.903080978367148,3.31311905013116,2.57197480465301,0.5,81.529370070768
CBC_1006,CBC_1006_MSI_TV_v3_Vset4_Tset3_2023-06-03_12h08.01.236.csv,2,32,3,2,b,1,0,3,tac,D,63,1,3D,2D,1,0,b,1.55044830000043,1,0,1,1,3D,2D,D32,2.46385324059017,0.537806161101868,0.480725409614539,0.5,0.490267992843985,0.480725409614539,0.509546270179464,0.5,0.480725409614539,0.5,0.5,0.527338294285083,0.471368563361644,0.5,0.490267992843985,0.490453729820536,0.528631436638356,0.538136012954385,0.461863987045615,0.528631436638356,0.490453729820536,0.371972055567338,0.656646524496064,0.471368563361644,0.0091747244635125,0.5,0.0194640143120309,0.903080978367148,3.31311905013116,2.57197480465301,0.5,81.529370070768
CBC_1006,CBC_1006_MSI_TV_v3_Vset4_Tset3_2023-06-03_12h08.01.236.csv,2,33,2,1,z,0,1,2,tac,B,9,1,2B,1B,0,1,b,2.59497830000055,1,0,0,0,2B,1B,B21,3.87120101090789,0.537806161101868,0.480725409614539,0.5,0.490267992843985,0.480725409614539,0.509546270179464,0.5,0.480725409614539,0.5,0.5,0.527338294285083,0.471368563361644,0.5,0.490267992843985,0.490453729820536,0.537806161101868,0.490453729820536,0.509546270179464,0.5,0.509546270179464,0.12386897262948,0.460835530286394,-0.5,-0.00973200715601547,0.5,0.0194640143120309,0.903080978367148,3.31311905013116,2.57197480465301,0.5,81.529370070768
CBC_1006,CBC_1006_MSI_TV_v3_Vset4_Tset3_2023-06-03_12h08.01.236.csv,2,34,1,0,z,0,1,1,tac,A,63,1,1A,0A,0,1,z,2.60536680000041,0,1,1,1,0A,1A,A10,2.28238238567653,0.537806161101868,0.480725409614539,0.5,0.490267992843985,0.480725409614539,0.509546270179464,0.490267992843985,0.480725409614539,0.5,0.5,0.527338294285083,0.471368563361644,0.5,0.490267992843985,0.490453729820536,0.537806161101868,0.55691485645774,0.44308514354226,0.537806161101868,0.480725409614539,0.191825913781149,0.724744366409096,0.462193838898132,0.00899614749524575,0.5,0.0194640143120309,0.903080978367148,3.31311905013116,2.57197480465301,0.5,81.529370070768
CBC_1006,CBC_1006_MSI_TV_v3_Vset4_Tset3_2023-06-03_12h08.01.236.csv,2,35,2,1,b,1,0,0,tac,C,9,1,2C,1C,1,0,z,2.93487690000075,0,1,0,0,1C,2C,C21,3.91202300542815,0.546802308597114,0.480725409614539,0.5,0.490267992843985,0.480725409614539,0.509546270179464,0.490267992843985,0.480725409614539,0.5,0.5,0.527338294285083,0.471368563361644,0.5,0.490267992843985,0.490453729820536,0.537806161101868,0.472661705714917,0.527338294285083,0.5,0.527338294285083,0.0799851587187636,0.38585112524444,-0.5,-0.00973200715601547,0.5,0.0194640143120309,0.903080978367148,3.31311905013116,2.57197480465301,0.5,81.529370070768
CBC_1006,CBC_1006_MSI_TV_v3_Vset4_Tset3_2023-06-03_12h08.01.236.csv,2,36,1,0,b,1,0,2,tac,B,63,1,1B,0B,1,0,b,2.34445240000059,1,0,1,1,1B,0B,B10,2.32238772029023,0.546802308597114,0.480725409614539,0.5,0.490267992843985,0.480725409614539,0.509546270179464,0.490267992843985,0.480725409614539,0.5,0.490267992843985,0.527338294285083,0.471368563361644,0.5,0.490267992843985,0.490453729820536,0.537806161101868,0.528799663960708,0.471200336039292,0.509546270179464,0.480725409614539,0.201769186291553,0.620677862721395,0.490453729820536,0.00954619841661587,0.5,0.0194640143120309,0.903080978367148,3.31311905013116,2.57197480465301,0.5,81.529370070768
CBC_1006,CBC_1006_MSI_TV_v3_Vset4_Tset3_2023-06-03_12h08.01.236.csv,2,37,0,1,b,1,0,1,tac,A,63,0,0A,1A,0,1,z,2.41212250000081,0,1,0,1,1A,0A,A01,3.25809653802148,0.546802308597114,0.480725409614539,0.5,0.490267992843985,0.480725409614539,0.51909246859608,0.490267992843985,0.480725409614539,0.5,0.490267992843985,0.527338294285083,0.471368563361644,0.5,0.490267992843985,0.490453729820536,0.537806161101868,0.434160674409297,0.565839325590703,0.480725409614539,0.546802308597114,0.0759849854626809,0.245174010662204,0.519274590385461,0.0101071680591366,0.5,0.0194640143120309,0.903080978367148,3.31311905013116,2.57197480465301,0.5,81.529370070768
CBC_1006,CBC_1006_MSI_TV_v3_Vset4_Tset3_2023-06-03_12h08.01.236.csv,2,38,0,1,z,0,1,2,tac,B,63,1,0B,1B,0,1,b,1.07595330000095,1,0,0,0,0B,1B,B01,3.27714473299218,0.546802308597114,0.490832577673675,0.5,0.490267992843985,0.480725409614539,0.51909246859608,0.490267992843985,0.480725409614539,0.5,0.490267992843985,0.527338294285083,0.471368563361644,0.5,0.490267992843985,0.490453729820536,0.537806161101868,0.461689334243614,0.538310665756386,0.480725409614539,0.51909246859608,0.042923079305231,0.342979704473895,-0.480725409614539,-0.00935684625289431,0.5,0.0194640143120309,0.903080978367148,3.31311905013116,2.57197480465301,0.5,81.529370070768
CBC_1006,CBC_1006_MSI_TV_v3_Vset4_Tset3_2023-06-03_12h08.01.236.csv,2,39,1,3,z,0,1,3,tac,D,27,1,1D,3D,0,1,z,2.71706170000107,0,1,1,1,3D,1D,D13,3.29583686600433,0.546802308597114,0.490832577673675,0.5,0.490267992843985,0.471368563361644,0.51909246859608,0.490267992843985,0.480725409614539,0.5,0.490267992843985,0.527338294285083,0.471368563361644,0.5,0.490267992843985,0.490453729820536,0.537806161101868,0.547468308231499,0.452531691768501,0.537806161101868,0.490267992843985,0.168140252177037,0.692033361693133,0.462193838898132,0.00899614749524575,0.5,0.0194640143120309,0.903080978367148,3.31311905013116,2.57197480465301,0.5,81.529370070768
CBC_1006,CBC_1006_MSI_TV_v3_Vset4_Tset3_2023-06-03_12h08.01.236.csv,2,40,3,2,z,0,1,0,tac,C,63,1,3C,2C,0,1,z,2.20560900000146,0,1,1,1,2C,3C,C32,2.62103882411258,0.546802308597114,0.490832577673675,0.5,0.490267992843985,0.471368563361644,0.51909246859608,0.490267992843985,0.480725409614539,0.5,0.490267992843985,0.527338294285083,0.471368563361644,0.5,0.490267992843985,0.490453729820536,0.546802308597114,0.555795040080854,0.444204959919146,0.527338294285083,0.471368563361644,0.264120712235019,0.721157109121022,0.472661705714917,0.00919989420478409,0.5,0.0194640143120309,0.903080978367148,3.31311905013116,2.57197480465301,0.5,81.529370070768
CBC_1006,CBC_1006_MSI_TV_v3_Vset4_Tset3_2023-06-03_12h08.01.236.csv,2,41,0,2,b,1,0,1,tac,A,27,1,0A,2A,1,0,b,2.63774360000116,1,0,1,1,0A,2A,A02,3.3322045101752,0.546802308597114,0.490832577673675,0.5,0.490267992843985,0.471368563361644,0.51909246859608,0.490267992843985,0.480725409614539,0.5,0.490267992843985,0.536538188489867,0.471368563361644,0.5,0.490267992843985,0.490453729820536,0.546802308597114,0.546802308597114,0.453197691402886,0.546802308597114,0.5,0.178311381332915,0.688836766014551,0.453197691402886,0.00882104635164515,0.5,0.0194640143120309,0.903080978367148,3.31311905013116,2.57197480465301,0.5,81.529370070768
CBC_1006,CBC_1006_MSI_TV_v3_Vset4_Tset3_2023-06-03_12h08.01.236.csv,2,42,2,3,z,0,1,3,tac,D,63,1,2D,3D,0,1,z,2.28333640000074,0,1,1,1,3D,2D,D23,2.94443897916644,0.555623354948759,0.490832577673675,0.5,0.490267992843985,0.471368563361644,0.51909246859608,0.490267992843985,0.480725409614539,0.5,0.490267992843985,0.536538188489867,0.471368563361644,0.5,0.490267992843985,0.490453729820536,0.546802308597114,0.556248055068811,0.443751944931189,0.546802308597114,0.490453729820536,0.248503028493439,0.722403427128019,0.453197691402886,0.00882104635164515,0.5,0.0194640143120309,0.903080978367148,3.31311905013116,2.57197480465301,0.5,81.529370070768
CBC_1006,CBC_1006_MSI_TV_v3_Vset4_Tset3_2023-06-03_12h08.01.236.csv,2,43,1,3,b,1,0,2,tac,B,27,1,1B,3B,1,0,b,2.33615100000134,1,0,1,1,1B,3B,B13,3.36729582998647,0.555623354948759,0.490832577673675,0.5,0.490267992843985,0.471368563361644,0.51909246859608,0.490267992843985,0.480725409614539,0.5,0.490267992843985,0.536538188489867,0.471368563361644,0.5,0.490267992843985,0.490453729820536,0.555623354948759,0.538310665756386,0.461689334243614,0.51909246859608,0.480725409614539,0.215685679601745,0.657696597244563,0.48090753140392,0.00936039107400937,0.5,0.0194640143120309,0.903080978367148,3.31311905013116,2.57197480465301,0.5,81.529370070768
CBC_1006,CBC_1006_MSI_TV_v3_Vset4_Tset3_2023-06-03_12h08.01.236.csv,2,44,3,2,z,0,1,0,tac,C,63,1,3C,2C,0,1,z,2.08014420000109,0,1,1,1,2C,3C,C32,2.46809953147162,0.555623354948759,0.490832577673675,0.5,0.490267992843985,0.471368563361644,0.528452859670089,0.490267992843985,0.480725409614539,0.5,0.490267992843985,0.536538188489867,0.471368563361644,0.5,0.490267992843985,0.490453729820536,0.555623354948759,0.564898055107636,0.435101944892364,0.536538188489867,0.471368563361644,0.306930230284043,0.751425435935862,0.463461811510133,0.00902082733231301,0.5,0.0194640143120309,0.903080978367148,3.31311905013116,2.57197480465301,0.5,81.529370070768
CBC_1006,CBC_1006_MSI_AV_v3_Vset2_Aset2_2023-06-03_13h33.59.045.csv,3,1,1,0,b,1,0,2,aud,B,63,1,1B,0B,1,0,z,1.64999219999845,0,1,0,0,0B,1B,B10,2.77258872223978,0.5,0.5,0.5,0.5,0.5,0.5,0.5,0.5,0.5,0.5,0.5,0.5,0.5,0.5,0.5,0.5,0.5,0.5,0.5,0.5,0.304974016853903,0.50009697174986,-0.5,-0.00649264544343336,0.5,0.0129852908868667,1.09693992215466,8.9777656123173,2.45491972410819,0.5,69.624384337424
CBC_1006,CBC_1006_MSI_AV_v3_Vset2_Aset2_2023-06-03_13h33.59.045.csv,3,2,1,0,z,0,1,1,aud,A,63,1,1A,0A,0,1,b,2.29349000000002,1,0,0,0,1A,0A,A10,2.83321334405622,0.5,0.5,0.5,0.5,0.493507354556567,0.5,0.5,0.5,0.5,0.5,0.5,0.5,0.5,0.5,0.5,0.5,0.5,0.5,0.5,0.5,0.195410207565273,0.499881044697712,-0.5,-0.00649264544343336,0.5,0.0129852908868667,1.09693992215466,8.9777656123173,2.45491972410819,0.5,69.624384337424
CBC_1006,CBC_1006_MSI_AV_v3_Vset2_Aset2_2023-06-03_13h33.59.045.csv,3,3,3,2,b,1,0,3,aud,D,63,1,3D,2D,1,0,z,1.54883510000036,0,1,0,0,2D,3D,D32,2.89037175789616,0.5,0.493507354556567,0.5,0.5,0.493507354556567,0.5,0.5,0.5,0.5,0.5,0.5,0.5,0.5,0.5,0.5,0.5,0.5,0.5,0.5,0.5,0.304381908354558,0.500055110544525,-0.5,-0.00649264544343336,0.5,0.0129852908868667,1.09693992215466,8.9777656123173,2.45491972410819,0.5,69.624384337424
CBC_1006,CBC_1006_MSI_AV_v3_Vset2_Aset2_2023-06-03_13h33.59.045.csv,3,4,1,2,b,1,0,2,aud,B,9,1,1B,2B,1,0,b,1.48532569999952,1,0,1,1,1B,2B,B12,2.94443897916644,0.5,0.493507354556567,0.5,0.5,0.493507354556567,0.5,0.5,0.5,0.5,0.5,0.5,0.5,0.5,0.5,0.493507354556567,0.5,0.5,0.5,0.5,0.5,0.290552968914923,0.499514691801199,0.5,0.00649264544343336,0.5,0.0129852908868667,1.09693992215466,8.9777656123173,2.45491972410819,0.5,69.624384337424
CBC_1006,CBC_1006_MSI_AV_v3_Vset2_Aset2_2023-06-03_13h33.59.045.csv,3,5,2,0,z,0,1,1,aud,A,27,1,2A,0A,0,1,z,2.36616030000005,0,1,1,1,0A,2A,A20,2.99573227355399,0.5,0.493507354556567,0.5,0.5,0.493507354556567,0.506492645443433,0.5,0.5,0.5,0.5,0.5,0.5,0.5,0.5,0.493507354556567,0.5,0.5,0.5,0.5,0.5,0.184546812623241,0.500810805986956,0.5,0.00649264544343336,0.5,0.0129852908868667,1.09693992215466,8.9777656123173,2.45491972410819,0.5,69.624384337424
CBC_1006,CBC_1006_MSI_AV_v3_Vset2_Aset2_2023-06-03_13h33.59.045.csv,3,6,3,2,z,0,1,0,aud,C,63,1,3C,2C,0,1,b,3.59783009999956,1,0,0,0,3C,2C,C32,3.04452243772342,0.506492645443433,0.493507354556567,0.5,0.5,0.493507354556567,0.506492645443433,0.5,0.5,0.5,0.5,0.5,0.5,0.5,0.5,0.493507354556567,0.5,0.5,0.5,0.5,0.5,0.067312283636964,0.500428553989334,-0.5,-0.00649264544343336,0.5,0.0129852908868667,1.09693992215466,8.9777656123173,2.45491972410819,0.5,69.624384337424
CBC_1006,CBC_1006_MSI_AV_v3_Vset2_Aset2_2023-06-03_13h33.59.045.csv,3,7,3,1,b,1,0,3,aud,D,27,1,3D,1D,1,0,z,2.12825789999988,0,1,0,0,1D,3D,D31,3.09104245335832,0.506492645443433,0.493507354556567,0.5,0.5,0.493507354556567,0.506492645443433,0.5,0.5,0.5,0.5,0.5,0.493507354556567,0.5,0.5,0.493507354556567,0.5,0.5,0.5,0.5,0.5,0.223235081472832,0.499951790215432,-0.5,-0.00649264544343336,0.5,0.0129852908868667,1.09693992215466,8.9777656123173,2.45491972410819,0.5,69.624384337424
CBC_1006,CBC_1006_MSI_AV_v3_Vset2_Aset2_2023-06-03_13h33.59.045.csv,3,8,0,1,b,1,0,1,aud,A,63,1,0A,1A,1,0,b,2.57427710000047,1,0,1,1,0A,1A,A01,3.13549421592915,0.506492645443433,0.493507354556567,0.5,0.5,0.493507354556567,0.506492645443433,0.5,0.5,0.5,0.5,0.5,0.493507354556567,0.5,0.493507354556567,0.493507354556567,0.5,0.512983101705087,0.487016898294913,0.506492645443433,0.493507354556567,0.198887545167933,0.639496768456993,0.493507354556567,0.00640833655372509,0.5,0.0129852908868667,1.09693992215466,8.9777656123173,2.45491972410819,0.5,69.624384337424
CBC_1006,CBC_1006_MSI_AV_v3_Vset2_Aset2_2023-06-03_13h33.59.045.csv,3,9,0,2,z,0,1,0,aud,C,27,1,0C,2C,0,1,b,2.40491420000035,1,0,0,0,0C,2C,C02,3.17805383034795,0.512900981997158,0.493507354556567,0.5,0.5,0.493507354556567,0.506492645443433,0.5,0.5,0.5,0.5,0.5,0.493507354556567,0.5,0.493507354556567,0.493507354556567,0.5,0.5,0.5,0.5,0.5,0.178693835010161,0.500479864567322,-0.5,-0.00649264544343336,0.5,0.0129852908868667,1.09693992215466,8.9777656123173,2.45491972410819,0.5,69.624384337424
CBC_1006,CBC_1006_MSI_AV_v3_Vset2_Aset2_2023-06-03_13h33.59.045.csv,3,10,3,2,b,1,0,3,aud,D,63,1,3D,2D,1,0,z,2.24018400000023,0,1,0,0,2D,3D,D32,2.52572864430826,0.512900981997158,0.493507354556567,0.5,0.5,0.493507354556567,0.506492645443433,0.5,0.5,0.493507354556567,0.5,0.5,0.493507354556567,0.5,0.493507354556567,0.493507354556567,0.5,0.493507354556567,0.506492645443433,0.493507354556567,0.5,0.175807445558463,0.429715468349675,-0.493507354556567,-0.00640833655372509,0.5,0.0129852908868667,1.09693992215466,8.9777656123173,2.45491972410819,0.5,69.624384337424
CBC_1006,CBC_1006_MSI_AV_v3_Vset2_Aset2_2023-06-03_13h33.59.045.csv,3,11,0,1,z,0,1,2,aud,B,63,1,0B,1B,0,1,b,1.73058049999781,1,0,0,0,0B,1B,B01,3.25809653802148,0.512900981997158,0.493507354556567,0.5,0.5,0.493507354556567,0.506492645443433,0.5,0.5,0.493507354556567,0.5,0.5,0.493507354556567,0.5,0.493507354556567,0.487099018002842,0.5,0.487016898294913,0.512983101705087,0.493507354556567,0.506492645443433,0.218461359070252,0.361083299280522,-0.493507354556567,-0.00640833655372509,0.5,0.0129852908868667,1.09693992215466,8.9777656123173,2.45491972410819,0.5,69.624384337424
CBC_1006,CBC_1006_MSI_AV_v3_Vset2_Aset2_2023-06-03_13h33.59.045.csv,3,12,1,0,z,0,1,1,aud,A,63,1,1A,0A,0,1,b,2.70851550000043,1,0,0,0,1A,0A,A10,2.60268968544438,0.512900981997158,0.493507354556567,0.5,0.5,0.487099018002842,0.506492645443433,0.5,0.5,0.493507354556567,0.5,0.5,0.493507354556567,0.5,0.493507354556567,0.487099018002842,0.5,0.480612868140543,0.519387131859457,0.493507354556567,0.512900981997158,0.082253499946777,0.297936914259277,-0.493507354556567,-0.00640833655372509,0.5,0.0129852908868667,1.09693992215466,8.9777656123173,2.45491972410819,0.5,69.624384337424
CBC_1006,CBC_1006_MSI_AV_v3_Vset2_Aset2_2023-06-03_13h33.59.045.csv,3,13,3,2,b,1,0,3,aud,D,63,1,3D,2D,1,0,z,2.54632749999837,0,1,0,0,2D,3D,D32,2.23359222150709,0.512900981997158,0.487099018002842,0.5,0.5,0.487099018002842,0.506492645443433,0.5,0.5,0.493507354556567,0.5,0.5,0.493507354556567,0.5,0.493507354556567,0.487099018002842,0.5,0.487099018002842,0.512900981997158,0.487099018002842,0.5,0.115059225728074,0.361327546093253,-0.487099018002842,-0.00632512243947403,0.5,0.0129852908868667,1.09693992215466,8.9777656123173,2.45491972410819,0.5,69.624384337424
CBC_1006,CBC_1006_MSI_AV_v3_Vset2_Aset2_2023-06-03_13h33.59.045.csv,3,14,0,2,z,0,1,0,aud,C,27,1,0C,2C,0,1,b,2.43276390000028,1,0,0,0,0C,2C,C02,2.67414864942653,0.512900981997158,0.487099018002842,0.5,0.5,0.487099018002842,0.506492645443433,0.5,0.5,0.493507354556567,0.5,0.5,0.493507354556567,0.5,0.493507354556567,0.480773895563368,0.5,0.493507354556567,0.506492645443433,0.493507354556567,0.5,0.149927046648283,0.429074083845655,-0.493507354556567,-0.00640833655372509,0.5,0.0129852908868667,1.09693992215466,8.9777656123173,2.45491972410819,0.5,69.624384337424
CBC_1006,CBC_1006_MSI_AV_v3_Vset2_Aset2_2023-06-03_13h33.59.045.csv,3,15,1,0,z,0,1,1,aud,A,63,1,1A,0A,0,1,b,3.07588329999999,1,0,0,0,1A,0A,A10,2.30258509299405,0.512900981997158,0.487099018002842,0.5,0.5,0.487099018002842,0.506492645443433,0.5,0.5,0.487099018002842,0.5,0.5,0.493507354556567,0.5,0.493507354556567,0.480773895563368,0.5,0.474215202011801,0.525784797988199,0.487099018002842,0.512900981997158,0.0472986832085301,0.243159595116562,-0.487099018002842,-0.00632512243947403,0.5,0.0129852908868667,1.09693992215466,8.9777656123173,2.45491972410819,0.5,69.624384337424
CBC_1006,CBC_1006_MSI_AV_v3_Vset2_Aset2_2023-06-03_13h33.59.045.csv,3,16,3,1,z,0,1,2,aud,B,27,1,3B,1B,0,1,b,2.63252469999861,1,0,0,0,3B,1B,B31,3.43398720448515,0.512900981997158,0.480773895563368,0.5,0.5,0.487099018002842,0.506492645443433,0.5,0.5,0.487099018002842,0.5,0.5,0.493507354556567,0.5,0.493507354556567,0.480773895563368,0.5,0.493507354556567,0.506492645443433,0.5,0.506492645443433,0.12688885983763,0.428108072783944,-0.5,-0.00649264544343336,0.5,0.0129852908868667,1.09693992215466,8.9777656123173,2.45491972410819,0.5,69.624384337424
CBC_1006,CBC_1006_MSI_AV_v3_Vset2_Aset2_2023-06-03_13h33.59.045.csv,3,17,2,3,b,1,0,0,aud,C,63,1,2C,3C,1,0,z,2.56087359999947,0,1,0,0,3C,2C,C23,3.46573590279973,0.512900981997158,0.480773895563368,0.5,0.5,0.487099018002842,0.506492645443433,0.5,0.493507354556567,0.487099018002842,0.5,0.5,0.493507354556567,0.5,0.493507354556567,0.480773895563368,0.5,0.493507354556567,0.506492645443433,0.493507354556567,0.5,0.134850075499387,0.428864345487207,-0.493507354556567,-0.00640833655372509,0.5,0.0129852908868667,1.09693992215466,8.9777656123173,2.45491972410819,0.5,69.624384337424
CBC_1006,CBC_1006_MSI_AV_v3_Vset2_Aset2_2023-06-03_13h33.59.045.csv,3,18,3,2,b,1,0,3,aud,D,63,0,3D,2D,0,1,z,3.05978119999963,0,1,0,1,2D,3D,D32,2.11021320034659,0.512900981997158,0.480773895563368,0.5,0.5,0.487099018002842,0.506492645443433,0.5,0.493507354556567,0.487099018002842,0.5,0.5,0.487099018002842,0.5,0.493507354556567,0.480773895563368,0.5,0.480773895563368,0.519226104436632,0.480773895563368,0.5,0.0609447349804157,0.300399775870586,0.519226104436632,0.00674230200216432,0.5,0.0129852908868667,1.09693992215466,8.9777656123173,2.45491972410819,0.5,69.624384337424
CBC_1006,CBC_1006_MSI_AV_v3_Vset2_Aset2_2023-06-03_13h33.59.045.csv,3,19,0,1,z,0,1,2,aud,B,63,1,0B,1B,0,1,b,1.71929060000002,1,0,0,0,0B,1B,B01,2.83321334405622,0.512900981997158,0.480773895563368,0.5,0.5,0.487099018002842,0.506492645443433,0.5,0.493507354556567,0.487099018002842,0.5,0.5,0.487099018002842,0.5,0.493507354556567,0.487516197565532,0.5,0.480612868140543,0.519387131859457,0.487099018002842,0.506492645443433,0.186890361886752,0.29883747833013,-0.487099018002842,-0.00632512243947403,0.5,0.0129852908868667,1.09693992215466,8.9777656123173,2.45491972410819,0.5,69.624384337424
CBC_1006,CBC_1006_MSI_AV_v3_Vset2_Aset2_2023-06-03_13h33.59.045.csv,3,20,0,2,b,1,0,1,aud,A,27,1,0A,2A,1,0,z,2.17530839999927,0,1,0,0,2A,0A,A02,3.55534806148941,0.512900981997158,0.480773895563368,0.5,0.5,0.480773895563368,0.506492645443433,0.5,0.493507354556567,0.487099018002842,0.5,0.5,0.487099018002842,0.5,0.493507354556567,0.487516197565532,0.5,0.487099018002842,0.512900981997158,0.5,0.512900981997158,0.157059923548874,0.361225628688508,-0.5,-0.00649264544343336,0.5,0.0129852908868667,1.09693992215466,8.9777656123173,2.45491972410819,0.5,69.624384337424
CBC_1006,CBC_1006_MSI_AV_v3_Vset2_Aset2_2023-06-03_13h33.59.045.csv,3,21,3,0,b,1,0,3,aud,D,9,1,3D,0D,1,0,b,2.54010559999915,1,0,1,1,3D,0D,D30,3.58351893845611,0.512900981997158,0.480773895563368,0.493507354556567,0.5,0.480773895563368,0.506492645443433,0.5,0.493507354556567,0.487099018002842,0.5,0.5,0.487099018002842,0.5,0.493507354556567,0.487516197565532,0.5,0.5,0.5,0.5,0.5,0.15983505379845,0.499895886999696,0.5,0.00649264544343336,0.5,0.0129852908868667,1.09693992215466,8.9777656123173,2.45491972410819,0.5,69.624384337424
CBC_1006,CBC_1006_MSI_AV_v3_Vset2_Aset2_2023-06-03_13h33.59.045.csv,3,22,3,2,z,0,1,0,aud,C,63,1,3C,2C,0,1,z,2.63879329999872,0,1,1,1,2C,3C,C32,2.91777073208428,0.512900981997158,0.480773895563368,0.493507354556567,0.5,0.480773895563368,0.506492645443433,0.5,0.493507354556567,0.487099018002842,0.5,0.5,0.487099018002842,0.5,0.493507354556567,0.487516197565532,0.506492645443433,0.512900981997158,0.487099018002842,0.5,0.487099018002842,0.188033489590284,0.638455358342942,0.5,0.00649264544343336,0.5,0.0129852908868667,1.09693992215466,8.9777656123173,2.45491972410819,0.5,69.624384337424
CBC_1006,CBC_1006_MSI_AV_v3_Vset2_Aset2_2023-06-03_13h33.59.045.csv,3,23,1,3,b,1,0,2,aud,B,27,1,1B,3B,1,0,b,1.68570550000004,1,0,1,1,1B,3B,B13,3.63758615972639,0.512900981997158,0.480773895563368,0.493507354556567,0.5,0.480773895563368,0.506492645443433,0.5,0.493507354556567,0.487099018002842,0.5,0.506492645443433,0.487099018002842,0.5,0.493507354556567,0.487516197565532,0.506492645443433,0.512983101705087,0.487016898294913,0.506492645443433,0.493507354556567,0.39502048529502,0.639317153673897,0.493507354556567,0.00640833655372509,0.5,0.0129852908868667,1.09693992215466,8.9777656123173,2.45491972410819,0.5,69.624384337424
CBC_1006,CBC_1006_MSI_AV_v3_Vset2_Aset2_2023-06-03_13h33.59.045.csv,3,24,2,3,b,1,0,0,aud,C,63,1,2C,3C,1,0,b,3.92732109999815,1,0,1,1,2C,3C,C23,2.9704144655697,0.512900981997158,0.480773895563368,0.493507354556567,0.5,0.480773895563368,0.512900981997158,0.5,0.493507354556567,0.487099018002842,0.5,0.506492645443433,0.487099018002842,0.5,0.493507354556567,0.487516197565532,0.506492645443433,0.519387131859457,0.480612868140543,0.506492645443433,0.487099018002842,0.0662822959628956,0.700346801666306,0.493507354556567,0.00640833655372509,0.5,0.0129852908868667,1.09693992215466,8.9777656123173,2.45491972410819,0.5,69.624384337424
CBC_1006,CBC_1006_MSI_AV_v3_Vset2_Aset2_2023-06-03_13h33.59.045.csv,3,25,3,2,b,1,0,3,aud,D,63,1,3D,2D,1,0,b,3.0595272999999,1,0,1,1,3D,2D,D32,2.07944154167984,0.512900981997158,0.480773895563368,0.493507354556567,0.5,0.480773895563368,0.512900981997158,0.5,0.493507354556567,0.487099018002842,0.5,0.512900981997158,0.487099018002842,0.5,0.493507354556567,0.487516197565532,0.506492645443433,0.518970297487174,0.481029702512826,0.506492645443433,0.487516197565532,0.141664599775923,0.697624272947679,0.493507354556567,0.00640833655372509,0.5,0.0129852908868667,1.09693992215466,8.9777656123173,2.45491972410819,0.5,69.624384337424
CBC_1006,CBC_1006_MSI_AV_v3_Vset2_Aset2_2023-06-03_13h33.59.045.csv,3,26,0,1,z,0,1,2,aud,B,63,1,0B,1B,0,1,z,2.10143620000053,0,1,1,1,1B,0B,B01,2.6149597780362,0.512900981997158,0.480773895563368,0.493507354556567,0.5,0.480773895563368,0.512900981997158,0.5,0.493507354556567,0.487099018002842,0.5,0.512900981997158,0.487099018002842,0.5,0.493507354556567,0.487516197565532,0.512900981997158,0.532095243378503,0.467904756621497,0.512900981997158,0.480773895563368,0.391568987195727,0.804501269561503,0.487099018002842,0.00632512243947403,0.5,0.0129852908868667,1.09693992215466,8.9777656123173,2.45491972410819,0.5,69.624384337424
CBC_1006,CBC_1006_MSI_AV_v3_Vset2_Aset2_2023-06-03_13h33.59.045.csv,3,27,3,0,z,0,1,1,aud,A,9,1,3A,0A,0,1,z,2.49631659999795,0,1,1,1,0A,3A,A30,3.73766961828337,0.512900981997158,0.480773895563368,0.493507354556567,0.5,0.480773895563368,0.519226104436632,0.5,0.493507354556567,0.487099018002842,0.5,0.512900981997158,0.487099018002842,0.5,0.493507354556567,0.487516197565532,0.512900981997158,0.512900981997158,0.487099018002842,0.512900981997158,0.5,0.211766799607436,0.637558021879253,0.487099018002842,0.00632512243947403,0.5,0.0129852908868667,1.09693992215466,8.9777656123173,2.45491972410819,0.5,69.624384337424
CBC_1006,CBC_1006_MSI_AV_v3_Vset2_Aset2_2023-06-03_13h33.59.045.csv,3,28,3,2,b,1,0,3,aud,D,63,1,3D,2D,1,0,b,2.9578309999979,1,0,1,1,3D,2D,D32,1.96944064646551,0.519226104436632,0.480773895563368,0.493507354556567,0.5,0.480773895563368,0.519226104436632,0.5,0.493507354556567,0.487099018002842,0.5,0.512900981997158,0.487099018002842,0.5,0.493507354556567,0.487516197565532,0.512900981997158,0.525368441745529,0.474631558254471,0.512900981997158,0.487516197565532,0.163797442880646,0.753715572839092,0.487099018002842,0.00632512243947403,0.5,0.0129852908868667,1.09693992215466,8.9777656123173,2.45491972410819,0.5,69.624384337424
CBC_1006,CBC_1006_MSI_AV_v3_Vset2_Aset2_2023-06-03_13h33.59.045.csv,3,29,0,2,z,0,1,0,aud,C,27,1,0C,2C,0,1,z,2.48705889999837,0,1,1,1,2C,0C,C02,2.68557734525015,0.519226104436632,0.480773895563368,0.493507354556567,0.5,0.480773895563368,0.519226104436632,0.5,0.493507354556567,0.487099018002842,0.5,0.512900981997158,0.487099018002842,0.5,0.493507354556567,0.487516197565532,0.519226104436632,0.525784797988199,0.474215202011801,0.512900981997158,0.487099018002842,0.253754127777317,0.75656675981589,0.487099018002842,0.00632512243947403,0.5,0.0129852908868667,1.09693992215466,8.9777656123173,2.45491972410819,0.5,69.624384337424
CBC_1006,CBC_1006_MSI_AV_v3_Vset2_Aset2_2023-06-03_13h33.59.045.csv,3,30,0,1,b,1,0,1,aud,A,63,1,0A,1A,1,0,b,2.34811009999976,1,0,1,1,0A,1A,A01,3.11351530921037,0.519226104436632,0.480773895563368,0.493507354556567,0.5,0.480773895563368,0.519226104436632,0.5,0.493507354556567,0.487099018002842,0.5,0.519226104436632,0.487099018002842,0.5,0.493507354556567,0.487516197565532,0.519226104436632,0.538395438438961,0.461604561561039,0.519226104436632,0.480773895563368,0.323912963033158,0.845088061266481,0.480773895563368,0.00624298888470241,0.5,0.0129852908868667,1.09693992215466,8.9777656123173,2.45491972410819,0.5,69.624384337424
CBC_1006,CBC_1006_MSI_AV_v3_Vset2_Aset2_2023-06-03_13h33.59.045.csv,3,31,0,1,z,0,1,2,aud,B,63,1,0B,1B,0,1,z,1.49740279999969,0,1,1,1,1B,0B,B01,2.4423470353692,0.525469093321335,0.480773895563368,0.493507354556567,0.5,0.480773895563368,0.519226104436632,0.5,0.493507354556567,0.487099018002842,0.5,0.519226104436632,0.487099018002842,0.5,0.493507354556567,0.487516197565532,0.519226104436632,0.538395438438961,0.461604561561039,0.519226104436632,0.480773895563368,0.625178878007763,0.845108401869792,0.480773895563368,0.00624298888470241,0.5,0.0129852908868667,1.09693992215466,8.9777656123173,2.45491972410819,0.5,69.624384337424
CBC_1006,CBC_1006_MSI_AV_v3_Vset2_Aset2_2023-06-03_13h33.59.045.csv,3,32,1,3,z,0,1,3,aud,D,27,1,1D,3D,0,1,z,2.191595100001,0,1,1,1,3D,1D,D13,3.85014760171006,0.525469093321335,0.480773895563368,0.493507354556567,0.5,0.480773895563368,0.525469093321335,0.5,0.493507354556567,0.487099018002842,0.5,0.519226104436632,0.487099018002842,0.5,0.493507354556567,0.487516197565532,0.519226104436632,0.52570591457972,0.47429408542028,0.519226104436632,0.493507354556567,0.332638752819247,0.75607317433512,0.480773895563368,0.00624298888470241,0.5,0.0129852908868667,1.09693992215466,8.9777656123173,2.45491972410819,0.5,69.624384337424
CBC_1006,CBC_1006_MSI_AV_v3_Vset2_Aset2_2023-06-03_13h33.59.045.csv,3,33,2,3,b,1,0,0,aud,C,63,1,2C,3C,1,0,b,2.76085409999905,1,0,1,1,2C,3C,C23,2.77258872223978,0.525469093321335,0.480773895563368,0.493507354556567,0.5,0.480773895563368,0.525469093321335,0.5,0.493507354556567,0.487099018002842,0.5,0.519226104436632,0.487099018002842,0.5,0.493507354556567,0.487516197565532,0.525469093321335,0.532095243378503,0.467904756621497,0.519226104436632,0.487099018002842,0.20530059068869,0.80398230757972,0.480773895563368,0.00624298888470241,0.5,0.0129852908868667,1.09693992215466,8.9777656123173,2.45491972410819,0.5,69.624384337424
CBC_1006,CBC_1006_MSI_AV_v3_Vset2_Aset2_2023-06-03_13h33.59.045.csv,3,34,0,1,z,0,1,2,aud,B,63,1,0B,1B,0,1,b,2.58953110000039,1,0,0,0,0B,1B,B01,2.28238238567653,0.525469093321335,0.480773895563368,0.493507354556567,0.5,0.480773895563368,0.525469093321335,0.5,0.493507354556567,0.487099018002842,0.5,0.525469093321335,0.487099018002842,0.5,0.493507354556567,0.487516197565532,0.525469093321335,0.455392174955178,0.544607825044822,0.480773895563368,0.525469093321335,0.0357684171076625,0.123339460319909,-0.480773895563368,-0.00624298888470241,0.5,0.0129852908868667,1.09693992215466,8.9777656123173,2.45491972410819,0.5,69.624384337424
CBC_1006,CBC_1006_MSI_AV_v3_Vset2_Aset2_2023-06-03_13h33.59.045.csv,3,35,1,0,z,0,1,1,aud,A,63,1,1A,0A,0,1,z,2.3438290999984,0,1,1,1,0A,1A,A10,2.52572864430826,0.525469093321335,0.480773895563368,0.493507354556567,0.5,0.474530906678665,0.525469093321335,0.5,0.493507354556567,0.487099018002842,0.5,0.525469093321335,0.487099018002842,0.5,0.493507354556567,0.487516197565532,0.525469093321335,0.544607825044822,0.455392174955178,0.525469093321335,0.480773895563368,0.336175967803998,0.877211078642879,0.474530906678665,0.00616192185803108,0.5,0.0129852908868667,1.09693992215466,8.9777656123173,2.45491972410819,0.5,69.624384337424
CBC_1006,CBC_1006_MSI_AV_v3_Vset2_Aset2_2023-06-03_13h33.59.045.csv,3,36,2,1,b,1,0,0,aud,C,9,1,2C,1C,1,0,b,2.34788759999901,1,0,1,1,2C,1C,C21,3.93182563272433,0.531631015179366,0.480773895563368,0.493507354556567,0.5,0.474530906678665,0.525469093321335,0.5,0.493507354556567,0.487099018002842,0.5,0.525469093321335,0.487099018002842,0.5,0.493507354556567,0.487516197565532,0.525469093321335,0.525469093321335,0.474530906678665,0.525469093321335,0.5,0.288016378923038,0.755414248496133,0.474530906678665,0.00616192185803108,0.5,0.0129852908868667,1.09693992215466,8.9777656123173,2.45491972410819,0.5,69.624384337424
CBC_1006,CBC_1006_MSI_AV_v3_Vset2_Aset2_2023-06-03_13h33.59.045.csv,3,37,0,1,b,1,0,1,aud,A,63,1,0A,1A,1,0,b,2.58464699999968,1,0,1,1,0A,1A,A01,2.85263142991332,0.531631015179366,0.480773895563368,0.493507354556567,0.5,0.474530906678665,0.525469093321335,0.5,0.493507354556567,0.487099018002842,0.5,0.531631015179366,0.487099018002842,0.5,0.493507354556567,0.487516197565532,0.525469093321335,0.550733706586923,0.449266293413077,0.531631015179366,0.480773895563368,0.254316652088677,0.903861320329256,0.468368984820634,0.0060819075102824,0.5,0.0129852908868667,1.09693992215466,8.9777656123173,2.45491972410819,0.5,69.624384337424
CBC_1006,CBC_1006_MSI_AV_v3_Vset2_Aset2_2023-06-03_13h33.59.045.csv,3,38,1,3,z,0,1,3,aud,D,27,1,1D,3D,0,1,z,2.01898309999888,0,1,1,1,3D,1D,D13,3.27714473299218,0.537712922689648,0.480773895563368,0.493507354556567,0.5,0.474530906678665,0.525469093321335,0.5,0.493507354556567,0.487099018002842,0.5,0.531631015179366,0.487099018002842,0.5,0.493507354556567,0.487516197565532,0.525469093321335,0.531940611737501,0.468059388262499,0.525469093321335,0.493507354556567,0.422287300225304,0.803012749442579,0.474530906678665,0.00616192185803108,0.5,0.0129852908868667,1.09693992215466,8.9777656123173,2.45491972410819,0.5,69.624384337424
CBC_1006,CBC_1006_MSI_AV_v3_Vset2_Aset2_2023-06-03_13h33.59.045.csv,3,39,1,0,b,1,0,2,aud,B,63,1,1B,0B,1,0,b,2.04436519999945,1,0,1,1,1B,0B,B10,3.29583686600433,0.537712922689648,0.480773895563368,0.493507354556567,0.5,0.474530906678665,0.525469093321335,0.5,0.493507354556567,0.487099018002842,0.5,0.531631015179366,0.487099018002842,0.5,0.493507354556567,0.487516197565532,0.531631015179366,0.55080635943983,0.44919364056017,0.525469093321335,0.474530906678665,0.492646175251337,0.903634591530294,0.474530906678665,0.00616192185803108,0.5,0.0129852908868667,1.09693992215466,8.9777656123173,2.45491972410819,0.5,69.624384337424
CBC_1006,CBC_1006_MSI_AV_v3_Vset2_Aset2_2023-06-03_13h33.59.045.csv,3,40,3,2,z,0,1,0,aud,C,63,0,3C,2C,NaN,NaN,[],NaN,NaN,NaN,NaN,NaN,,,C32,2.90872089656436,0.537712922689648,0.480773895563368,0.493507354556567,0.5,0.474530906678665,0.531631015179366,0.5,0.493507354556567,0.487099018002842,0.5,0.531631015179366,0.487099018002842,0.5,0.493507354556567,0.487516197565532,0.531631015179366,0,0,0,0,NaN,0,0,0,0.5,0.0129852908868667,1.09693992215466,8.9777656123173,2.45491972410819,0.5,69.624384337424
CBC_1006,CBC_1006_MSI_AV_v3_Vset2_Aset2_2023-06-03_13h33.59.045.csv,3,41,0,2,b,1,0,1,aud,A,27,1,0A,2A,1,0,b,1.24754770000072,1,0,1,1,0A,2A,A02,3.3322045101752,0.537712922689648,0.480773895563368,0.493507354556567,0.5,0.474530906678665,0.531631015179366,0.5,0.493507354556567,0.487099018002842,0.5,0.531631015179366,0.487099018002842,0.5,0.493507354556567,0.487516197565532,0.531631015179366,0.544162314390184,0.455837685609816,0.537712922689648,0.493507354556567,0.142333091696719,0.875260522556797,0.462287077310352,0.00600293217211437,0.5,0.0129852908868667,1.09693992215466,8.9777656123173,2.45491972410819,0.5,69.624384337424
CBC_1006,CBC_1006_MSI_AV_v3_Vset2_Aset2_2023-06-03_13h33.59.045.csv,3,42,2,3,z,0,1,3,aud,D,63,1,2D,3D,0,1,z,1.6744278999995,0,1,1,1,3D,2D,D23,4.04305126783455,0.543715854861763,0.480773895563368,0.493507354556567,0.5,0.474530906678665,0.531631015179366,0.5,0.493507354556567,0.487099018002842,0.5,0.531631015179366,0.487099018002842,0.5,0.493507354556567,0.487516197565532,0.531631015179366,0.544045248083826,0.455954751916174,0.531631015179366,0.487516197565532,0.666835494094116,0.874379491582094,0.468368984820634,0.0060819075102824,0.5,0.0129852908868667,1.09693992215466,8.9777656123173,2.45491972410819,0.5,69.624384337424
CBC_1006,CBC_1006_MSI_AV_v3_Vset2_Aset2_2023-06-03_13h33.59.045.csv,3,43,1,3,b,1,0,2,aud,B,27,1,1B,3B,1,0,b,1.88403219999964,1,0,1,1,1B,3B,B13,3.36729582998647,0.543715854861763,0.480773895563368,0.493507354556567,0.5,0.474530906678665,0.531631015179366,0.5,0.493507354556567,0.487099018002842,0.5,0.531631015179366,0.487099018002842,0.5,0.493507354556567,0.487516197565532,0.537712922689648,0.538092368661254,0.461907631338746,0.531631015179366,0.493507354556567,0.51811141292211,0.84297111037756,0.468368984820634,0.0060819075102824,0.5,0.0129852908868667,1.09693992215466,8.9777656123173,2.45491972410819,0.5,69.624384337424
CBC_1006,CBC_1006_MSI_AV_v3_Vset2_Aset2_2023-06-03_13h33.59.045.csv,3,44,3,2,z,0,1,0,aud,C,63,1,3C,2C,0,1,z,2.46593779999967,0,1,1,1,2C,3C,C32,2.69124308278583,0.543715854861763,0.480773895563368,0.493507354556567,0.5,0.474530906678665,0.537712922689648,0.5,0.493507354556567,0.487099018002842,0.5,0.531631015179366,0.487099018002842,0.5,0.493507354556567,0.487516197565532,0.537712922689648,0.544459426737623,0.455540573262377,0.531631015179366,0.487099018002842,0.292588441357842,0.876846222442538,0.468368984820634,0.0060819075102824,0.5,0.0129852908868667,1.09693992215466,8.9777656123173,2.45491972410819,0.5,69.624384337424
CBC_1006,CBC_1006_MSI_TV_v3_Vset5_Tset1_2023-06-03_13h42.16.778.csv,4,1,3,1,z,0,1,2,tac,B,27,1,3B,1B,0,1,b,1.4975114000008,1,0,0,0,3B,1B,B31,2.77258872223978,0.5,0.5,0.5,0.5,0.5,0.5,0.5,0.5,0.5,0.5,0.5,0.5,0.5,0.5,0.5,0.5,0.5,0.5,0.5,0.5,0.2121947192077,0.499482641264376,-0.5,-0.0153353496922252,0.5,0.0306706993844503,1.09987610789883,1.41575637686879,2.71652758614397,0.5,78.8312103728864
CBC_1006,CBC_1006_MSI_TV_v3_Vset5_Tset1_2023-06-03_13h42.16.778.csv,4,2,2,3,b,1,0,0,tac,C,63,1,2C,3C,1,0,b,3.30253360000097,1,0,1,1,2C,3C,C23,2.83321334405622,0.5,0.5,0.5,0.5,0.5,0.5,0.5,0.484664650307775,0.5,0.5,0.5,0.5,0.5,0.5,0.5,0.5,0.5,0.5,0.5,0.5,0.0973714169936727,0.498866998743565,0.5,0.0153353496922252,0.5,0.0306706993844503,1.09987610789883,1.41575637686879,2.71652758614397,0.5,78.8312103728864
CBC_1006,CBC_1006_MSI_TV_v3_Vset5_Tset1_2023-06-03_13h42.16.778.csv,4,3,2,3,z,0,1,3,tac,D,63,1,2D,3D,0,1,z,1.85533820000092,0,1,1,1,3D,2D,D23,2.89037175789616,0.5,0.5,0.5,0.5,0.5,0.5,0.5,0.484664650307775,0.5,0.5,0.515335349692225,0.5,0.5,0.5,0.5,0.5,0.5,0.5,0.5,0.5,0.242662834327767,0.498605826622277,0.5,0.0153353496922252,0.5,0.0306706993844503,1.09987610789883,1.41575637686879,2.71652758614397,0.5,78.8312103728864
CBC_1006,CBC_1006_MSI_TV_v3_Vset5_Tset1_2023-06-03_13h42.16.778.csv,4,4,1,0,b,1,0,2,tac,B,63,1,1B,0B,1,0,b,2.96817100000226,1,0,1,1,1B,0B,B10,2.94443897916644,0.5,0.5,0.5,0.5,0.5,0.5,0.5,0.484664650307775,0.5,0.5,0.515335349692225,0.5,0.5,0.5,0.5,0.515335349692225,0.5,0.5,0.5,0.5,0.121857138812705,0.499284566364043,0.5,0.0153353496922252,0.5,0.0306706993844503,1.09987610789883,1.41575637686879,2.71652758614397,0.5,78.8312103728864
CBC_1006,CBC_1006_MSI_TV_v3_Vset5_Tset1_2023-06-03_13h42.16.778.csv,4,5,3,0,z,0,1,1,tac,A,9,1,3A,0A,0,1,z,3.07550840000113,0,1,1,1,0A,3A,A30,2.99573227355399,0.5,0.5,0.5,0.5,0.5,0.515335349692225,0.5,0.484664650307775,0.5,0.5,0.515335349692225,0.5,0.5,0.5,0.5,0.515335349692225,0.5,0.5,0.5,0.5,0.113842501048286,0.501127882077643,0.5,0.0153353496922252,0.5,0.0306706993844503,1.09987610789883,1.41575637686879,2.71652758614397,0.5,78.8312103728864
CBC_1006,CBC_1006_MSI_TV_v3_Vset5_Tset1_2023-06-03_13h42.16.778.csv,4,6,2,3,z,0,1,3,tac,D,63,1,2D,3D,0,1,b,3.02280150000115,1,0,0,0,2D,3D,D23,2.35137525716348,0.515335349692225,0.5,0.5,0.5,0.5,0.515335349692225,0.5,0.484664650307775,0.5,0.5,0.515335349692225,0.5,0.5,0.5,0.5,0.515335349692225,0.484664650307775,0.515335349692225,0.5,0.515335349692225,0.110686291558776,0.470407664895869,-0.5,-0.0153353496922252,0.5,0.0306706993844503,1.09987610789883,1.41575637686879,2.71652758614397,0.5,78.8312103728864
CBC_1006,CBC_1006_MSI_TV_v3_Vset5_Tset1_2023-06-03_13h42.16.778.csv,4,7,2,0,b,1,0,0,tac,C,27,1,2C,0C,1,0,b,2.74667440000121,1,0,1,1,2C,0C,C20,3.09104245335832,0.515335349692225,0.5,0.5,0.5,0.5,0.515335349692225,0.5,0.484664650307775,0.5,0.5,0.515335349692225,0.5,0.5,0.5,0.484664650307775,0.515335349692225,0.515335349692225,0.484664650307775,0.515335349692225,0.5,0.15014638733334,0.530558580172043,0.484664650307775,0.0148650037918595,0.5,0.0306706993844503,1.09987610789883,1.41575637686879,2.71652758614397,0.5,78.8312103728864
CBC_1006,CBC_1006_MSI_TV_v3_Vset5_Tset1_2023-06-03_13h42.16.778.csv,4,8,1,0,z,0,1,1,tac,A,63,1,1A,0A,0,1,b,3.06001200000173,1,0,0,0,1A,0A,A10,3.13549421592915,0.515335349692225,0.5,0.5,0.5,0.5,0.515335349692225,0.5,0.484664650307775,0.5,0.5,0.530200353484085,0.5,0.5,0.5,0.484664650307775,0.515335349692225,0.484664650307775,0.515335349692225,0.5,0.515335349692225,0.107935969243115,0.470285049648316,-0.5,-0.0153353496922252,0.5,0.0306706993844503,1.09987610789883,1.41575637686879,2.71652758614397,0.5,78.8312103728864
CBC_1006,CBC_1006_MSI_TV_v3_Vset5_Tset1_2023-06-03_13h42.16.778.csv,4,9,0,1,z,0,1,2,tac,B,63,1,0B,1B,0,1,z,3.02098420000038,0,1,1,1,1B,0B,B01,3.17805383034795,0.515335349692225,0.484664650307775,0.5,0.5,0.5,0.515335349692225,0.5,0.484664650307775,0.5,0.5,0.530200353484085,0.5,0.5,0.5,0.484664650307775,0.515335349692225,0.515335349692225,0.484664650307775,0.515335349692225,0.5,0.124737518930307,0.529479695786544,0.484664650307775,0.0148650037918595,0.5,0.0306706993844503,1.09987610789883,1.41575637686879,2.71652758614397,0.5,78.8312103728864
CBC_1006,CBC_1006_MSI_TV_v3_Vset5_Tset1_2023-06-03_13h42.16.778.csv,4,10,3,1,b,1,0,3,tac,D,27,1,3D,1D,1,0,b,2.76567070000056,1,0,1,1,3D,1D,D31,3.2188758248682,0.515335349692225,0.484664650307775,0.5,0.5,0.5,0.530200353484085,0.5,0.484664650307775,0.5,0.5,0.530200353484085,0.5,0.5,0.5,0.484664650307775,0.515335349692225,0.515335349692225,0.484664650307775,0.515335349692225,0.5,0.14797732649172,0.529572063177815,0.484664650307775,0.0148650037918595,0.5,0.0306706993844503,1.09987610789883,1.41575637686879,2.71652758614397,0.5,78.8312103728864
CBC_1006,CBC_1006_MSI_TV_v3_Vset5_Tset1_2023-06-03_13h42.16.778.csv,4,11,2,3,b,1,0,0,tac,C,63,1,2C,3C,1,0,b,3.86936760000208,1,0,1,1,2C,3C,C23,2.56494935746154,0.515335349692225,0.484664650307775,0.5,0.5,0.5,0.530200353484085,0.5,0.484664650307775,0.5,0.5,0.530200353484085,0.5,0.5,0.5,0.484664650307775,0.530200353484085,0.530200353484085,0.469799646515915,0.530200353484085,0.5,0.0743108729018824,0.558090544505272,0.469799646515915,0.0144090837292107,0.5,0.0306706993844503,1.09987610789883,1.41575637686879,2.71652758614397,0.5,78.8312103728864
CBC_1006,CBC_1006_MSI_TV_v3_Vset5_Tset1_2023-06-03_13h42.16.778.csv,4,12,0,1,z,0,1,2,tac,B,63,1,0B,1B,0,1,b,2.85141400000066,1,0,0,0,0B,1B,B01,2.60268968544438,0.515335349692225,0.484664650307775,0.5,0.5,0.5,0.530200353484085,0.5,0.484664650307775,0.5,0.5,0.544609437213295,0.5,0.5,0.5,0.484664650307775,0.530200353484085,0.469799646515915,0.530200353484085,0.5,0.530200353484085,0.116690224074431,0.442112416369124,-0.5,-0.0153353496922252,0.5,0.0306706993844503,1.09987610789883,1.41575637686879,2.71652758614397,0.5,78.8312103728864
CBC_1006,CBC_1006_MSI_TV_v3_Vset5_Tset1_2023-06-03_13h42.16.778.csv,4,13,1,0,z,0,1,1,tac,A,63,1,1A,0A,NaN,NaN,None,NaN,NaN,NaN,NaN,NaN,,,A10,2.63905732961526,0.515335349692225,0.484664650307775,0.5,0.5,0.484664650307775,0.530200353484085,0.5,0.484664650307775,0.5,0.5,0.544609437213295,0.5,0.5,0.5,0.484664650307775,0.530200353484085,0,0,0,0,NaN,0,0,0,0.5,0.0306706993844503,1.09987610789883,1.41575637686879,2.71652758614397,0.5,78.8312103728864
CBC_1006,CBC_1006_MSI_TV_v3_Vset5_Tset1_2023-06-03_13h42.16.778.csv,4,14,2,1,b,1,0,0,tac,C,9,1,2C,1C,1,0,b,1.84193800000139,1,0,1,1,2C,1C,C21,3.36729582998647,0.515335349692225,0.484664650307775,0.5,0.5,0.484664650307775,0.530200353484085,0.5,0.484664650307775,0.5,0.5,0.544609437213295,0.5,0.5,0.5,0.484664650307775,0.530200353484085,0.544609437213295,0.455390562786705,0.544609437213295,0.5,0.288663151380365,0.585121928416146,0.455390562786705,0.0139671470537467,0.5,0.0306706993844503,1.09987610789883,1.41575637686879,2.71652758614397,0.5,78.8312103728864
CBC_1006,CBC_1006_MSI_TV_v3_Vset5_Tset1_2023-06-03_13h42.16.778.csv,4,15,0,1,b,1,0,1,tac,A,63,1,0A,1A,1,0,z,2.63349080000262,0,1,0,0,1A,0A,A01,3.40119738166216,0.515335349692225,0.484664650307775,0.5,0.5,0.484664650307775,0.530200353484085,0.5,0.484664650307775,0.5,0.5,0.558576584267042,0.5,0.5,0.5,0.484664650307775,0.530200353484085,0.469358125175956,0.530641874824044,0.484664650307775,0.515335349692225,0.134758053982688,0.44121167811459,-0.484664650307775,-0.0148650037918595,0.5,0.0306706993844503,1.09987610789883,1.41575637686879,2.71652758614397,0.5,78.8312103728864
CBC_1006,CBC_1006_MSI_TV_v3_Vset5_Tset1_2023-06-03_13h42.16.778.csv,4,16,1,3,z,0,1,3,tac,D,27,1,1D,3D,0,1,z,2.30858290000106,0,1,1,1,3D,1D,D13,3.43398720448515,0.515335349692225,0.469799646515915,0.5,0.5,0.484664650307775,0.530200353484085,0.5,0.484664650307775,0.5,0.5,0.558576584267042,0.5,0.5,0.5,0.484664650307775,0.530200353484085,0.530200353484085,0.469799646515915,0.530200353484085,0.5,0.211162209148494,0.5578563182596,0.469799646515915,0.0144090837292107,0.5,0.0306706993844503,1.09987610789883,1.41575637686879,2.71652758614397,0.5,78.8312103728864
CBC_1006,CBC_1006_MSI_TV_v3_Vset5_Tset1_2023-06-03_13h42.16.778.csv,4,17,1,0,b,1,0,2,tac,B,63,1,1B,0B,1,0,b,2.55718190000152,1,0,1,1,1B,0B,B10,2.77258872223978,0.515335349692225,0.469799646515915,0.5,0.5,0.484664650307775,0.530200353484085,0.5,0.484664650307775,0.5,0.5,0.558576584267042,0.5,0.5,0.5,0.484664650307775,0.544609437213295,0.545451502816257,0.454548497183743,0.530200353484085,0.484664650307775,0.189127365463579,0.587461024367902,0.469799646515915,0.0144090837292107,0.5,0.0306706993844503,1.09987610789883,1.41575637686879,2.71652758614397,0.5,78.8312103728864
CBC_1006,CBC_1006_MSI_TV_v3_Vset5_Tset1_2023-06-03_13h42.16.778.csv,4,18,3,2,z,0,1,0,tac,C,63,0,3C,2C,1,0,z,2.48217410000143,0,1,1,0,2C,3C,C32,3.49650756146648,0.515335349692225,0.469799646515915,0.5,0.5,0.484664650307775,0.544609437213295,0.5,0.484664650307775,0.5,0.5,0.558576584267042,0.5,0.5,0.5,0.484664650307775,0.544609437213295,0.558576584267042,0.441423415732958,0.558576584267042,0.5,0.207660190507946,0.611956440939558,-0.558576584267042,-0.0171319344992475,0.5,0.0306706993844503,1.09987610789883,1.41575637686879,2.71652758614397,0.5,78.8312103728864
CBC_1006,CBC_1006_MSI_TV_v3_Vset5_Tset1_2023-06-03_13h42.16.778.csv,4,19,0,2,b,1,0,1,tac,A,27,1,0A,2A,1,0,b,2.84020030000102,1,0,1,1,0A,2A,A02,3.52636052461616,0.515335349692225,0.469799646515915,0.5,0.5,0.484664650307775,0.544609437213295,0.5,0.484664650307775,0.5,0.5,0.541444649767794,0.5,0.5,0.5,0.484664650307775,0.544609437213295,0.515335349692225,0.484664650307775,0.515335349692225,0.5,0.140506502243509,0.528502629542783,0.484664650307775,0.0148650037918595,0.5,0.0306706993844503,1.09987610789883,1.41575637686879,2.71652758614397,0.5,78.8312103728864
CBC_1006,CBC_1006_MSI_TV_v3_Vset5_Tset1_2023-06-03_13h42.16.778.csv,4,20,2,3,z,0,1,3,tac,D,63,1,2D,3D,0,1,b,3.75715370000216,1,0,0,0,2D,3D,D23,2.4567357728213,0.530200353484085,0.469799646515915,0.5,0.5,0.484664650307775,0.544609437213295,0.5,0.484664650307775,0.5,0.5,0.541444649767794,0.5,0.5,0.5,0.484664650307775,0.544609437213295,0.440218798689209,0.559781201310791,0.484664650307775,0.544609437213295,0.0550261830323308,0.386663593400958,-0.484664650307775,-0.0148650037918595,0.5,0.0306706993844503,1.09987610789883,1.41575637686879,2.71652758614397,0.5,78.8312103728864
CBC_1006,CBC_1006_MSI_TV_v3_Vset5_Tset1_2023-06-03_13h42.16.778.csv,4,21,1,3,b,1,0,2,tac,B,27,1,1B,3B,1,0,b,2.4578655000023,1,0,1,1,1B,3B,B13,3.58351893845611,0.530200353484085,0.469799646515915,0.5,0.5,0.484664650307775,0.544609437213295,0.5,0.484664650307775,0.5,0.5,0.541444649767794,0.5,0.5,0.5,0.469799646515915,0.544609437213295,0.559781201310791,0.440218798689209,0.544609437213295,0.484664650307775,0.211277086115945,0.612485269022318,0.455390562786705,0.0139671470537467,0.5,0.0306706993844503,1.09987610789883,1.41575637686879,2.71652758614397,0.5,78.8312103728864
CBC_1006,CBC_1006_MSI_TV_v3_Vset5_Tset1_2023-06-03_13h42.16.778.csv,4,22,2,3,b,1,0,0,tac,C,63,1,2C,3C,1,0,z,1.93028370000138,0,1,0,0,3C,2C,C23,2.51230562397611,0.530200353484085,0.469799646515915,0.5,0.5,0.484664650307775,0.558576584267042,0.5,0.484664650307775,0.5,0.5,0.541444649767794,0.5,0.5,0.5,0.469799646515915,0.544609437213295,0.458555350232206,0.541444649767794,0.5,0.541444649767794,0.200050663369242,0.421491588684041,-0.5,-0.0153353496922252,0.5,0.0306706993844503,1.09987610789883,1.41575637686879,2.71652758614397,0.5,78.8312103728864
CBC_1006,CBC_1006_MSI_TV_v3_Vset5_Tset1_2023-06-03_13h42.16.778.csv,4,23,1,0,z,0,1,1,tac,A,63,1,1A,0A,NaN,NaN,None,NaN,NaN,NaN,NaN,NaN,,,A10,2.53897387105828,0.530200353484085,0.469799646515915,0.5,0.5,0.484664650307775,0.558576584267042,0.5,0.484664650307775,0.5,0.5,0.541444649767794,0.484664650307775,0.5,0.5,0.469799646515915,0.544609437213295,0,0,0,0,NaN,0,0,0,0.5,0.0306706993844503,1.09987610789883,1.41575637686879,2.71652758614397,0.5,78.8312103728864
CBC_1006,CBC_1006_MSI_TV_v3_Vset5_Tset1_2023-06-03_13h42.16.778.csv,4,24,1,2,b,1,0,2,tac,B,9,1,1B,2B,1,0,b,2.279731300001,1,0,1,1,1B,2B,B12,3.66356164612965,0.530200353484085,0.469799646515915,0.5,0.5,0.484664650307775,0.558576584267042,0.5,0.484664650307775,0.5,0.5,0.541444649767794,0.484664650307775,0.5,0.5,0.469799646515915,0.544609437213295,0.558576584267042,0.441423415732958,0.558576584267042,0.5,0.237131954891868,0.6109029901059,0.441423415732958,0.0135387648852028,0.5,0.0306706993844503,1.09987610789883,1.41575637686879,2.71652758614397,0.5,78.8312103728864
CBC_1006,CBC_1006_MSI_TV_v3_Vset5_Tset1_2023-06-03_13h42.16.778.csv,4,25,3,2,z,0,1,0,tac,C,63,1,3C,2C,0,1,b,2.68199760000243,1,0,0,0,3C,2C,C32,2.99573227355399,0.530200353484085,0.469799646515915,0.5,0.5,0.484664650307775,0.572115349152245,0.5,0.484664650307775,0.5,0.5,0.541444649767794,0.484664650307775,0.5,0.5,0.469799646515915,0.544609437213295,0.443363984740409,0.556636015259591,0.484664650307775,0.541444649767794,0.116380777205667,0.392731175401792,-0.484664650307775,-0.0148650037918595,0.5,0.0306706993844503,1.09987610789883,1.41575637686879,2.71652758614397,0.5,78.8312103728864
CBC_1006,CBC_1006_MSI_TV_v3_Vset5_Tset1_2023-06-03_13h42.16.778.csv,4,26,3,2,b,1,0,3,tac,D,63,1,3D,2D,1,0,z,2.51034710000022,0,1,0,0,2D,3D,D32,3.71357206670431,0.530200353484085,0.469799646515915,0.5,0.5,0.484664650307775,0.572115349152245,0.5,0.484664650307775,0.5,0.5,0.541444649767794,0.469799646515915,0.5,0.5,0.469799646515915,0.544609437213295,0.425591189682308,0.574408810317692,0.469799646515915,0.544609437213295,0.120501078630635,0.360753074673852,-0.469799646515915,-0.0144090837292107,0.5,0.0306706993844503,1.09987610789883,1.41575637686879,2.71652758614397,0.5,78.8312103728864
CBC_1006,CBC_1006_MSI_TV_v3_Vset5_Tset1_2023-06-03_13h42.16.778.csv,4,27,1,0,b,1,0,2,tac,B,63,1,1B,0B,1,0,z,2.71202769999945,0,1,0,0,0B,1B,B10,2.63905732961526,0.530200353484085,0.469799646515915,0.5,0.5,0.484664650307775,0.572115349152245,0.5,0.484664650307775,0.5,0.5,0.541444649767794,0.469799646515915,0.5,0.5,0.455390562786705,0.544609437213295,0.412934449235493,0.587065550764507,0.484664650307775,0.572115349152245,0.0987280470506822,0.338925600159882,-0.484664650307775,-0.0148650037918595,0.5,0.0306706993844503,1.09987610789883,1.41575637686879,2.71652758614397,0.5,78.8312103728864
CBC_1006,CBC_1006_MSI_TV_v3_Vset5_Tset1_2023-06-03_13h42.16.778.csv,4,28,2,0,z,0,1,1,tac,A,27,1,2A,0A,0,1,b,3.07216510000035,1,0,0,0,2A,0A,A20,3.76120011569356,0.530200353484085,0.469799646515915,0.5,0.5,0.469799646515915,0.572115349152245,0.5,0.484664650307775,0.5,0.5,0.541444649767794,0.469799646515915,0.5,0.5,0.455390562786705,0.544609437213295,0.469799646515915,0.530200353484085,0.5,0.530200353484085,0.100677861046189,0.442399825811663,-0.5,-0.0153353496922252,0.5,0.0306706993844503,1.09987610789883,1.41575637686879,2.71652758614397,0.5,78.8312103728864
CBC_1006,CBC_1006_MSI_TV_v3_Vset5_Tset1_2023-06-03_13h42.16.778.csv,4,29,3,1,b,1,0,3,tac,D,27,1,3D,1D,1,0,b,2.57658980000087,1,0,1,1,3D,1D,D31,3.09104245335832,0.530200353484085,0.469799646515915,0.484664650307775,0.5,0.469799646515915,0.572115349152245,0.5,0.484664650307775,0.5,0.5,0.541444649767794,0.469799646515915,0.5,0.5,0.455390562786705,0.544609437213295,0.544609437213295,0.455390562786705,0.544609437213295,0.5,0.185949291128885,0.585247570564249,0.455390562786705,0.0139671470537467,0.5,0.0306706993844503,1.09987610789883,1.41575637686879,2.71652758614397,0.5,78.8312103728864
CBC_1006,CBC_1006_MSI_TV_v3_Vset5_Tset1_2023-06-03_13h42.16.778.csv,4,30,0,1,b,1,0,1,tac,A,63,1,0A,1A,1,0,z,2.57471190000069,0,1,0,0,1A,0A,A01,3.11351530921037,0.530200353484085,0.469799646515915,0.484664650307775,0.5,0.469799646515915,0.572115349152245,0.5,0.484664650307775,0.5,0.5,0.541444649767794,0.469799646515915,0.5,0.5,0.455390562786705,0.558576584267042,0.43981884864058,0.56018115135942,0.469799646515915,0.530200353484085,0.123147127194569,0.386232294919619,-0.469799646515915,-0.0144090837292107,0.5,0.0306706993844503,1.09987610789883,1.41575637686879,2.71652758614397,0.5,78.8312103728864
CBC_1006,CBC_1006_MSI_TV_v3_Vset5_Tset1_2023-06-03_13h42.16.778.csv,4,31,0,2,z,0,1,0,tac,C,27,1,0C,2C,0,1,z,2.95814500000051,0,1,1,1,2C,0C,C02,3.8286413964891,0.530200353484085,0.455390562786705,0.484664650307775,0.5,0.469799646515915,0.572115349152245,0.5,0.484664650307775,0.5,0.5,0.541444649767794,0.469799646515915,0.5,0.5,0.455390562786705,0.558576584267042,0.541444649767794,0.458555350232206,0.541444649767794,0.5,0.142055443319463,0.578239927380478,0.458555350232206,0.0140642132981033,0.5,0.0306706993844503,1.09987610789883,1.41575637686879,2.71652758614397,0.5,78.8312103728864
CBC_1006,CBC_1006_MSI_TV_v3_Vset5_Tset1_2023-06-03_13h42.16.778.csv,4,32,3,2,b,1,0,3,tac,D,63,1,3D,2D,1,0,b,3.23682470000131,1,0,1,1,3D,2D,D32,3.15700042115011,0.530200353484085,0.455390562786705,0.484664650307775,0.5,0.469799646515915,0.572115349152245,0.5,0.484664650307775,0.5,0.5,0.555508863065898,0.469799646515915,0.5,0.5,0.455390562786705,0.558576584267042,0.60211864939351,0.39788135060649,0.558576584267042,0.455390562786705,0.138452990875713,0.688751802351262,0.441423415732958,0.0135387648852028,0.5,0.0306706993844503,1.09987610789883,1.41575637686879,2.71652758614397,0.5,78.8312103728864
CBC_1006,CBC_1006_MSI_TV_v3_Vset5_Tset1_2023-06-03_13h42.16.778.csv,4,33,0,1,z,0,1,2,tac,B,63,1,0B,1B,0,1,z,2.2572218000023,0,1,1,1,1B,0B,B01,2.77258872223978,0.530200353484085,0.455390562786705,0.484664650307775,0.5,0.469799646515915,0.572115349152245,0.5,0.484664650307775,0.5,0.5,0.555508863065898,0.469799646515915,0.5,0.5,0.455390562786705,0.572115349152245,0.601432063406586,0.398567936593414,0.572115349152245,0.469799646515915,0.27510290155767,0.686348821314158,0.427884650847755,0.013123521497372,0.5,0.0306706993844503,1.09987610789883,1.41575637686879,2.71652758614397,0.5,78.8312103728864
CBC_1006,CBC_1006_MSI_TV_v3_Vset5_Tset1_2023-06-03_13h42.16.778.csv,4,34,1,0,z,0,1,1,tac,A,63,1,1A,0A,0,1,b,2.89667449999979,1,0,0,0,1A,0A,A10,2.50552593699074,0.530200353484085,0.455390562786705,0.484664650307775,0.5,0.469799646515915,0.585238870649617,0.5,0.484664650307775,0.5,0.5,0.555508863065898,0.469799646515915,0.5,0.5,0.455390562786705,0.572115349152245,0.425591189682308,0.574408810317692,0.455390562786705,0.530200353484085,0.0925703307930576,0.361415467308967,-0.455390562786705,-0.0139671470537467,0.5,0.0306706993844503,1.09987610789883,1.41575637686879,2.71652758614397,0.5,78.8312103728864
CBC_1006,CBC_1006_MSI_TV_v3_Vset5_Tset1_2023-06-03_13h42.16.778.csv,4,35,3,2,b,1,0,3,tac,D,63,0,3D,2D,0,1,b,2.31052110000201,1,0,1,0,3D,2D,D32,2.81341071676004,0.530200353484085,0.441423415732958,0.484664650307775,0.5,0.469799646515915,0.585238870649617,0.5,0.484664650307775,0.5,0.5,0.555508863065898,0.469799646515915,0.5,0.5,0.455390562786705,0.572115349152245,0.61524184274433,0.38475815725567,0.572115349152245,0.455390562786705,0.275590240574582,0.708492422087588,-0.572115349152245,-0.0175471778870783,0.5,0.0306706993844503,1.09987610789883,1.41575637686879,2.71652758614397,0.5,78.8312103728864
CBC_1006,CBC_1006_MSI_TV_v3_Vset5_Tset1_2023-06-03_13h42.16.778.csv,4,36,0,2,z,0,1,0,tac,C,27,1,0C,2C,0,1,b,2.57669669999996,1,0,0,0,0C,2C,C02,3.23867845216438,0.530200353484085,0.441423415732958,0.484664650307775,0.5,0.469799646515915,0.585238870649617,0.5,0.484664650307775,0.5,0.5,0.555508863065898,0.469799646515915,0.5,0.5,0.455390562786705,0.554568171265166,0.444491136934102,0.555508863065898,0.5,0.555508863065898,0.125869873688699,0.395619835019941,-0.5,-0.0153353496922252,0.5,0.0306706993844503,1.09987610789883,1.41575637686879,2.71652758614397,0.5,78.8312103728864
CBC_1006,CBC_1006_MSI_TV_v3_Vset5_Tset1_2023-06-03_13h42.16.778.csv,4,37,1,0,z,0,1,1,tac,A,63,1,1A,0A,0,1,b,2.46073200000137,1,0,0,0,1A,0A,A10,2.34180580614733,0.530200353484085,0.441423415732958,0.484664650307775,0.5,0.469799646515915,0.585238870649617,0.5,0.484664650307775,0.484664650307775,0.5,0.555508863065898,0.469799646515915,0.5,0.5,0.455390562786705,0.554568171265166,0.411846845798423,0.588153154201577,0.441423415732958,0.530200353484085,0.116509629720781,0.335878983718259,-0.441423415732958,-0.0135387648852028,0.5,0.0306706993844503,1.09987610789883,1.41575637686879,2.71652758614397,0.5,78.8312103728864
CBC_1006,CBC_1006_MSI_TV_v3_Vset5_Tset1_2023-06-03_13h42.16.778.csv,4,38,3,1,z,0,1,2,tac,B,27,1,3B,1B,0,1,z,2.31300270000247,0,1,1,1,1B,3B,B31,3.27714473299218,0.530200353484085,0.427884650847755,0.484664650307775,0.5,0.469799646515915,0.585238870649617,0.5,0.484664650307775,0.484664650307775,0.5,0.555508863065898,0.469799646515915,0.5,0.5,0.455390562786705,0.554568171265166,0.600051086074027,0.399948913925973,0.585238870649617,0.484664650307775,0.264050880932867,0.684623227480313,0.414761129350383,0.0127210139146607,0.5,0.0306706993844503,1.09987610789883,1.41575637686879,2.71652758614397,0.5,78.8312103728864
CBC_1006,CBC_1006_MSI_TV_v3_Vset5_Tset1_2023-06-03_13h42.16.778.csv,4,39,2,3,b,1,0,0,tac,C,63,1,2C,3C,1,0,b,2.03949410000132,1,0,1,1,2C,3C,C23,2.60268968544438,0.530200353484085,0.427884650847755,0.484664650307775,0.5,0.469799646515915,0.597959884564278,0.5,0.484664650307775,0.484664650307775,0.5,0.555508863065898,0.469799646515915,0.5,0.5,0.455390562786705,0.554568171265166,0.585138317378731,0.414861682621269,0.555508863065898,0.469799646515915,0.300768030394381,0.658454862031346,0.444491136934102,0.0136328540399584,0.5,0.0306706993844503,1.09987610789883,1.41575637686879,2.71652758614397,0.5,78.8312103728864
CBC_1006,CBC_1006_MSI_TV_v3_Vset5_Tset1_2023-06-03_13h42.16.778.csv,4,40,2,3,z,0,1,3,tac,D,63,1,2D,3D,0,1,z,2.56399330000204,0,1,1,1,3D,2D,D23,2.62103882411258,0.530200353484085,0.427884650847755,0.484664650307775,0.5,0.469799646515915,0.597959884564278,0.5,0.484664650307775,0.484664650307775,0.5,0.569141717105856,0.469799646515915,0.5,0.5,0.455390562786705,0.554568171265166,0.598221226272777,0.401778773727223,0.554568171265166,0.455390562786705,0.220367938358012,0.680787882827343,0.445431828734834,0.013661705715392,0.5,0.0306706993844503,1.09987610789883,1.41575637686879,2.71652758614397,0.5,78.8312103728864
CBC_1006,CBC_1006_MSI_TV_v3_Vset5_Tset1_2023-06-03_13h42.16.778.csv,4,41,1,0,b,1,0,2,tac,B,63,1,1B,0B,1,0,b,2.32535920000009,1,0,1,1,1B,0B,B10,2.63905732961526,0.530200353484085,0.427884650847755,0.484664650307775,0.5,0.469799646515915,0.597959884564278,0.5,0.484664650307775,0.484664650307775,0.5,0.569141717105856,0.469799646515915,0.5,0.5,0.455390562786705,0.568229876980558,0.626661366378847,0.373338633621153,0.597959884564278,0.469799646515915,0.280998346849455,0.725984992866824,0.402040115435722,0.0123308515210188,0.5,0.0306706993844503,1.09987610789883,1.41575637686879,2.71652758614397,0.5,78.8312103728864
CBC_1006,CBC_1006_MSI_TV_v3_Vset5_Tset1_2023-06-03_13h42.16.778.csv,4,42,0,2,b,1,0,1,tac,A,27,1,0A,2A,1,0,z,2.86834500000077,0,1,0,0,2A,0A,A02,3.3499040872746,0.530200353484085,0.427884650847755,0.484664650307775,0.5,0.469799646515915,0.610290736085296,0.5,0.484664650307775,0.484664650307775,0.5,0.569141717105856,0.469799646515915,0.5,0.5,0.455390562786705,0.568229876980558,0.454548497183743,0.545451502816257,0.484664650307775,0.530200353484085,0.10788788543124,0.413312252260652,-0.484664650307775,-0.0148650037918595,0.5,0.0306706993844503,1.09987610789883,1.41575637686879,2.71652758614397,0.5,78.8312103728864
CBC_1006,CBC_1006_MSI_TV_v3_Vset5_Tset1_2023-06-03_13h42.16.778.csv,4,43,0,3,z,0,1,3,tac,D,9,1,0D,3D,0,1,b,2.44963540000026,1,0,0,0,0D,3D,D03,4.06044301054642,0.530200353484085,0.427884650847755,0.469799646515915,0.5,0.469799646515915,0.610290736085296,0.5,0.484664650307775,0.484664650307775,0.5,0.569141717105856,0.469799646515915,0.5,0.5,0.455390562786705,0.568229876980558,0.431770123019442,0.568229876980558,0.5,0.568229876980558,0.129200054741597,0.371720508708644,-0.5,-0.0153353496922252,0.5,0.0306706993844503,1.09987610789883,1.41575637686879,2.71652758614397,0.5,78.8312103728864
