ID,filename,session,trial,visStimLeft,visStimRight,correctKey,leftCorrect,rightCorrect,secondStim,mod2Type,mod2Stim,frequency,rewardAccurate,stimPairLeft,stimPairRight,pCorrectLeft,pCorrectRight,key,reactionTime,choiceLeft,choiceRight,choiceAccurate,reward,chosenPair,otherPair,triplet,surprise,0A belief,1A belief,2A belief,3A belief,0B belief,1B belief,2B belief,3B belief,0C belief,1C belief,2C belief,3C belief,0D belief,1D belief,2D belief,3D belief,beliefPairNorm,beliefOtherPairNorm,beliefPair,beliefOtherPair,lik,corrLik,rewardPE,update2,fitCBCsimpleRW_CBCdriftDiffusionLR_startBelief,fitCBCsimpleRW_CBCdriftDiffusionLR_alpha1,fitCBCsimpleRW_CBCdriftDiffusionLR_nonDecisionTime,fitCBCsimpleRW_CBCdriftDiffusionLR_weight,fitCBCsimpleRW_CBCdriftDiffusionLR_startingBoundary,fitCBCsimpleRW_CBCdriftDiffusionLR_startingPoint,fit_CBCsimpleRW_CBCdriftDiffusionLR_NLL
CBC_1006,CBC_1006_MSI_AV_v3_Vset1_Aset3_2023-06-03_11h59.24.512.csv,1,1,0,1,z,0,1,2,aud,B,63,1,0B,1B,0,1,b,2.55529680000018,1,0,0,0,0B,1B,B01,2.77258872223978,0.5,0.5,0.5,0.5,0.5,0.5,0.5,0.5,0.5,0.5,0.5,0.5,0.5,0.5,0.5,0.5,0.5,0.5,0.5,0.5,0.153645215661695,0.500423754097235,-0.5,-0.0113044101122552,0.5,0.0226088202245105,1.06305002193913,9.93895505574002,2.45255331826869,0.5,70.3920881892698
CBC_1006,CBC_1006_MSI_AV_v3_Vset1_Aset3_2023-06-03_11h59.24.512.csv,1,2,1,0,z,0,1,1,aud,A,63,1,1A,0A,0,1,z,2.69709009999951,0,1,1,1,0A,1A,A10,2.83321334405622,0.5,0.5,0.5,0.5,0.488695589887745,0.5,0.5,0.5,0.5,0.5,0.5,0.5,0.5,0.5,0.5,0.5,0.5,0.5,0.5,0.5,0.136545740252101,0.499544440658538,0.5,0.0113044101122552,0.5,0.0226088202245105,1.06305002193913,9.93895505574002,2.45255331826869,0.5,70.3920881892698
CBC_1006,CBC_1006_MSI_AV_v3_Vset1_Aset3_2023-06-03_11h59.24.512.csv,1,3,2,1,b,1,0,0,aud,C,9,1,2C,1C,1,0,b,2.60880069999894,1,0,1,1,2C,1C,C21,2.89037175789616,0.511304410112255,0.5,0.5,0.5,0.488695589887745,0.5,0.5,0.5,0.5,0.5,0.5,0.5,0.5,0.5,0.5,0.5,0.5,0.5,0.5,0.5,0.146956844064914,0.500092874217782,0.5,0.0113044101122552,0.5,0.0226088202245105,1.06305002193913,9.93895505574002,2.45255331826869,0.5,70.3920881892698
CBC_1006,CBC_1006_MSI_AV_v3_Vset1_Aset3_2023-06-03_11h59.24.512.csv,1,4,0,1,b,1,0,1,aud,A,63,1,0A,1A,1,0,z,2.5874161999991,0,1,0,0,1A,0A,A01,2.94443897916644,0.511304410112255,0.5,0.5,0.5,0.488695589887745,0.5,0.5,0.5,0.5,0.5,0.511304410112255,0.5,0.5,0.5,0.5,0.5,0.494410975568177,0.505589024431823,0.5,0.511304410112255,0.129391776969258,0.432735503417375,-0.5,-0.0113044101122552,0.5,0.0226088202245105,1.06305002193913,9.93895505574002,2.45255331826869,0.5,70.3920881892698
CBC_1006,CBC_1006_MSI_AV_v3_Vset1_Aset3_2023-06-03_11h59.24.512.csv,1,5,1,3,z,0,1,3,aud,D,27,1,1D,3D,0,1,z,2.30660729999909,0,1,1,1,3D,1D,D13,2.99573227355399,0.511304410112255,0.488695589887745,0.5,0.5,0.488695589887745,0.5,0.5,0.5,0.5,0.5,0.511304410112255,0.5,0.5,0.5,0.5,0.5,0.5,0.5,0.5,0.5,0.187909697316077,0.499411929739141,0.5,0.0113044101122552,0.5,0.0226088202245105,1.06305002193913,9.93895505574002,2.45255331826869,0.5,70.3920881892698
CBC_1006,CBC_1006_MSI_AV_v3_Vset1_Aset3_2023-06-03_11h59.24.512.csv,1,6,1,0,b,1,0,2,aud,B,63,1,1B,0B,1,0,z,2.35215759999937,0,1,0,0,0B,1B,B10,3.04452243772342,0.511304410112255,0.488695589887745,0.5,0.5,0.488695589887745,0.5,0.5,0.5,0.5,0.5,0.511304410112255,0.5,0.5,0.5,0.5,0.511304410112255,0.4942831695479,0.5057168304521,0.488695589887745,0.5,0.156908808864912,0.432241770281335,-0.488695589887745,-0.0110488307362831,0.5,0.0226088202245105,1.06305002193913,9.93895505574002,2.45255331826869,0.5,70.3920881892698
CBC_1006,CBC_1006_MSI_AV_v3_Vset1_Aset3_2023-06-03_11h59.24.512.csv,1,7,3,2,z,0,1,0,aud,C,63,1,3C,2C,0,1,b,2.34101679999912,1,0,0,0,3C,2C,C32,3.09104245335832,0.511304410112255,0.488695589887745,0.5,0.5,0.477646759151462,0.5,0.5,0.5,0.5,0.5,0.511304410112255,0.5,0.5,0.5,0.5,0.511304410112255,0.494410975568177,0.505589024431823,0.5,0.511304410112255,0.158534741463177,0.432747074803723,-0.5,-0.0113044101122552,0.5,0.0226088202245105,1.06305002193913,9.93895505574002,2.45255331826869,0.5,70.3920881892698
CBC_1006,CBC_1006_MSI_AV_v3_Vset1_Aset3_2023-06-03_11h59.24.512.csv,1,8,0,2,b,1,0,1,aud,A,27,1,0A,2A,NaN,NaN,[],NaN,NaN,NaN,NaN,NaN,,,A02,3.13549421592915,0.511304410112255,0.488695589887745,0.5,0.5,0.477646759151462,0.5,0.5,0.5,0.5,0.5,0.511304410112255,0.488695589887745,0.5,0.5,0.5,0.511304410112255,0,0,0,0,NaN,0,0,0,0.5,0.0226088202245105,1.06305002193913,9.93895505574002,2.45255331826869,0.5,70.3920881892698
CBC_1006,CBC_1006_MSI_AV_v3_Vset1_Aset3_2023-06-03_11h59.24.512.csv,1,9,2,3,z,0,1,3,aud,D,63,1,2D,3D,0,1,z,1.54773629999909,0,1,1,1,3D,2D,D23,3.17805383034795,0.511304410112255,0.488695589887745,0.5,0.5,0.477646759151462,0.5,0.5,0.5,0.5,0.5,0.511304410112255,0.488695589887745,0.5,0.5,0.5,0.511304410112255,0.505589024431823,0.494410975568177,0.511304410112255,0.5,0.35100303928353,0.567519288899069,0.488695589887745,0.0110488307362831,0.5,0.0226088202245105,1.06305002193913,9.93895505574002,2.45255331826869,0.5,70.3920881892698
CBC_1006,CBC_1006_MSI_AV_v3_Vset1_Aset3_2023-06-03_11h59.24.512.csv,1,10,1,3,b,1,0,2,aud,B,27,1,1B,3B,1,0,b,2.44720770000004,1,0,1,1,1B,3B,B13,3.2188758248682,0.511304410112255,0.488695589887745,0.5,0.5,0.477646759151462,0.5,0.5,0.5,0.5,0.5,0.511304410112255,0.488695589887745,0.5,0.5,0.5,0.522353240848538,0.5,0.5,0.5,0.5,0.167711158805345,0.499969662398622,0.5,0.0113044101122552,0.5,0.0226088202245105,1.06305002193913,9.93895505574002,2.45255331826869,0.5,70.3920881892698
CBC_1006,CBC_1006_MSI_AV_v3_Vset1_Aset3_2023-06-03_11h59.24.512.csv,1,11,2,3,b,1,0,0,aud,C,63,1,2C,3C,1,0,z,2.27779049999936,0,1,0,0,3C,2C,C23,3.25809653802148,0.511304410112255,0.488695589887745,0.5,0.5,0.477646759151462,0.511304410112255,0.5,0.5,0.5,0.5,0.511304410112255,0.488695589887745,0.5,0.5,0.5,0.522353240848538,0.488695589887745,0.511304410112255,0.488695589887745,0.511304410112255,0.141794540425847,0.365607346083515,-0.488695589887745,-0.0110488307362831,0.5,0.0226088202245105,1.06305002193913,9.93895505574002,2.45255331826869,0.5,70.3920881892698
CBC_1006,CBC_1006_MSI_AV_v3_Vset1_Aset3_2023-06-03_11h59.24.512.csv,1,12,3,1,z,0,1,2,aud,B,27,1,3B,1B,0,1,b,3.15615789999902,1,0,0,0,3B,1B,B31,3.29583686600433,0.511304410112255,0.488695589887745,0.5,0.5,0.477646759151462,0.511304410112255,0.5,0.5,0.5,0.5,0.511304410112255,0.477646759151462,0.5,0.5,0.5,0.522353240848538,0.494410975568177,0.505589024431823,0.5,0.511304410112255,0.0807136979519702,0.431909816909861,-0.5,-0.0113044101122552,0.5,0.0226088202245105,1.06305002193913,9.93895505574002,2.45255331826869,0.5,70.3920881892698
CBC_1006,CBC_1006_MSI_AV_v3_Vset1_Aset3_2023-06-03_11h59.24.512.csv,1,13,2,3,b,1,0,0,aud,C,63,1,2C,3C,1,0,z,2.52524099999937,0,1,0,0,3C,2C,C23,2.63905732961526,0.511304410112255,0.488695589887745,0.5,0.5,0.477646759151462,0.511304410112255,0.5,0.488695589887745,0.5,0.5,0.511304410112255,0.477646759151462,0.5,0.5,0.5,0.522353240848538,0.482983158316172,0.517016841683828,0.477646759151462,0.511304410112255,0.0956836488696475,0.304054868564214,-0.477646759151462,-0.0107990297084755,0.5,0.0226088202245105,1.06305002193913,9.93895505574002,2.45255331826869,0.5,70.3920881892698
CBC_1006,CBC_1006_MSI_AV_v3_Vset1_Aset3_2023-06-03_11h59.24.512.csv,1,14,2,3,z,0,1,3,aud,D,63,1,2D,3D,0,1,z,2.56074889999945,0,1,1,1,3D,2D,D23,2.67414864942653,0.511304410112255,0.488695589887745,0.5,0.5,0.477646759151462,0.511304410112255,0.5,0.488695589887745,0.5,0.5,0.511304410112255,0.466847729442986,0.5,0.5,0.5,0.522353240848538,0.510932249224341,0.489067750775659,0.522353240848538,0.5,0.192408181922374,0.629646804135442,0.477646759151462,0.0107990297084755,0.5,0.0226088202245105,1.06305002193913,9.93895505574002,2.45255331826869,0.5,70.3920881892698
CBC_1006,CBC_1006_MSI_AV_v3_Vset1_Aset3_2023-06-03_11h59.24.512.csv,1,15,3,0,z,0,1,1,aud,A,9,1,3A,0A,0,1,z,2.37929759999952,0,1,1,1,0A,3A,A30,3.40119738166216,0.511304410112255,0.488695589887745,0.5,0.5,0.477646759151462,0.511304410112255,0.5,0.488695589887745,0.5,0.5,0.511304410112255,0.466847729442986,0.5,0.5,0.5,0.533152270557014,0.505589024431823,0.494410975568177,0.511304410112255,0.5,0.201367233211994,0.56724848460181,0.488695589887745,0.0110488307362831,0.5,0.0226088202245105,1.06305002193913,9.93895505574002,2.45255331826869,0.5,70.3920881892698
CBC_1006,CBC_1006_MSI_AV_v3_Vset1_Aset3_2023-06-03_11h59.24.512.csv,1,16,1,0,b,1,0,2,aud,B,63,0,1B,0B,0,1,b,2.23226160000013,1,0,1,0,1B,0B,B10,2.7408400239252,0.522353240848538,0.488695589887745,0.5,0.5,0.477646759151462,0.511304410112255,0.5,0.488695589887745,0.5,0.5,0.511304410112255,0.466847729442986,0.5,0.5,0.5,0.533152270557014,0.517016841683828,0.482983158316172,0.511304410112255,0.477646759151462,0.282947841180087,0.696120223445442,-0.511304410112255,-0.0115599894882274,0.5,0.0226088202245105,1.06305002193913,9.93895505574002,2.45255331826869,0.5,70.3920881892698
CBC_1006,CBC_1006_MSI_AV_v3_Vset1_Aset3_2023-06-03_11h59.24.512.csv,1,17,3,2,b,1,0,3,aud,D,63,1,3D,2D,1,0,z,2.79815820000022,0,1,0,0,2D,3D,D32,3.46573590279973,0.522353240848538,0.488695589887745,0.5,0.5,0.477646759151462,0.499744420624028,0.5,0.488695589887745,0.5,0.5,0.511304410112255,0.466847729442986,0.5,0.5,0.5,0.533152270557014,0.483955767459554,0.516044232540446,0.5,0.533152270557014,0.0778283895682907,0.313598752736282,-0.5,-0.0113044101122552,0.5,0.0226088202245105,1.06305002193913,9.93895505574002,2.45255331826869,0.5,70.3920881892698
CBC_1006,CBC_1006_MSI_AV_v3_Vset1_Aset3_2023-06-03_11h59.24.512.csv,1,18,2,0,b,1,0,0,aud,C,27,1,2C,0C,1,0,b,2.21556299999975,1,0,1,1,2C,0C,C20,3.49650756146648,0.522353240848538,0.488695589887745,0.5,0.5,0.477646759151462,0.499744420624028,0.5,0.488695589887745,0.5,0.5,0.511304410112255,0.466847729442986,0.5,0.5,0.488695589887745,0.533152270557014,0.505589024431823,0.494410975568177,0.511304410112255,0.5,0.231030763692898,0.568958931816792,0.488695589887745,0.0110488307362831,0.5,0.0226088202245105,1.06305002193913,9.93895505574002,2.45255331826869,0.5,70.3920881892698
CBC_1006,CBC_1006_MSI_AV_v3_Vset1_Aset3_2023-06-03_11h59.24.512.csv,1,19,1,0,z,0,1,1,aud,A,63,1,1A,0A,0,1,z,1.86715499999991,0,1,1,1,0A,1A,A10,2.83321334405622,0.522353240848538,0.488695589887745,0.5,0.5,0.477646759151462,0.499744420624028,0.5,0.488695589887745,0.5,0.5,0.522353240848538,0.466847729442986,0.5,0.5,0.488695589887745,0.533152270557014,0.516644918592252,0.483355081407748,0.522353240848538,0.488695589887745,0.381598153849285,0.692178872666441,0.477646759151462,0.0107990297084755,0.5,0.0226088202245105,1.06305002193913,9.93895505574002,2.45255331826869,0.5,70.3920881892698
CBC_1006,CBC_1006_MSI_AV_v3_Vset1_Aset3_2023-06-03_11h59.24.512.csv,1,20,0,1,z,0,1,2,aud,B,63,1,0B,1B,0,1,z,2.31210809999902,0,1,1,1,1B,0B,B01,2.86220088092947,0.533152270557014,0.488695589887745,0.5,0.5,0.477646759151462,0.499744420624028,0.5,0.488695589887745,0.5,0.5,0.522353240848538,0.466847729442986,0.5,0.5,0.488695589887745,0.533152270557014,0.511304410112255,0.488695589887745,0.499744420624028,0.477646759151462,0.238953379671723,0.634148131736102,0.500255579375972,0.0113101884604197,0.5,0.0226088202245105,1.06305002193913,9.93895505574002,2.45255331826869,0.5,70.3920881892698
CBC_1006,CBC_1006_MSI_AV_v3_Vset1_Aset3_2023-06-03_11h59.24.512.csv,1,21,3,1,b,1,0,3,aud,D,27,1,3D,1D,1,0,z,2.49641929999962,0,1,0,0,1D,3D,D31,3.58351893845611,0.533152270557014,0.488695589887745,0.5,0.5,0.477646759151462,0.511054609084448,0.5,0.488695589887745,0.5,0.5,0.522353240848538,0.466847729442986,0.5,0.5,0.488695589887745,0.533152270557014,0.483955767459554,0.516044232540446,0.5,0.533152270557014,0.101330046863085,0.313958555012829,-0.5,-0.0113044101122552,0.5,0.0226088202245105,1.06305002193913,9.93895505574002,2.45255331826869,0.5,70.3920881892698
CBC_1006,CBC_1006_MSI_AV_v3_Vset1_Aset3_2023-06-03_11h59.24.512.csv,1,22,2,3,b,1,0,0,aud,C,63,1,2C,3C,1,0,b,3.14863089999926,1,0,1,1,2C,3C,C23,2.51230562397611,0.533152270557014,0.488695589887745,0.5,0.5,0.477646759151462,0.511054609084448,0.5,0.488695589887745,0.5,0.5,0.522353240848538,0.466847729442986,0.5,0.488695589887745,0.488695589887745,0.533152270557014,0.528055730368519,0.471944269631481,0.522353240848538,0.466847729442986,0.135182523930389,0.796326705775531,0.477646759151462,0.0107990297084755,0.5,0.0226088202245105,1.06305002193913,9.93895505574002,2.45255331826869,0.5,70.3920881892698
CBC_1006,CBC_1006_MSI_AV_v3_Vset1_Aset3_2023-06-03_11h59.24.512.csv,1,23,1,0,z,0,1,1,aud,A,63,1,1A,0A,0,1,z,2.15701049999916,0,1,1,1,0A,1A,A10,2.53897387105828,0.533152270557014,0.488695589887745,0.5,0.5,0.477646759151462,0.511054609084448,0.5,0.488695589887745,0.5,0.5,0.533152270557014,0.466847729442986,0.5,0.488695589887745,0.488695589887745,0.533152270557014,0.52175308203411,0.47824691796589,0.533152270557014,0.488695589887745,0.326029129460718,0.743140917730797,0.466847729442986,0.0105548763871974,0.5,0.0226088202245105,1.06305002193913,9.93895505574002,2.45255331826869,0.5,70.3920881892698
CBC_1006,CBC_1006_MSI_AV_v3_Vset1_Aset3_2023-06-03_11h59.24.512.csv,1,24,3,2,b,1,0,3,aud,D,63,1,3D,2D,1,0,b,2.50207559999944,1,0,1,1,3D,2D,D32,2.9704144655697,0.543707146944211,0.488695589887745,0.5,0.5,0.477646759151462,0.511054609084448,0.5,0.488695589887745,0.5,0.5,0.533152270557014,0.466847729442986,0.5,0.488695589887745,0.488695589887745,0.533152270557014,0.52175308203411,0.47824691796589,0.533152270557014,0.488695589887745,0.237953827321913,0.741984331910215,0.466847729442986,0.0105548763871974,0.5,0.0226088202245105,1.06305002193913,9.93895505574002,2.45255331826869,0.5,70.3920881892698
CBC_1006,CBC_1006_MSI_AV_v3_Vset1_Aset3_2023-06-03_11h59.24.512.csv,1,25,0,2,z,0,1,0,aud,C,27,1,0C,2C,0,1,z,2.62297639999906,0,1,1,1,2C,0C,C02,3.68887945411394,0.543707146944211,0.488695589887745,0.5,0.5,0.477646759151462,0.511054609084448,0.5,0.488695589887745,0.5,0.5,0.533152270557014,0.466847729442986,0.5,0.488695589887745,0.488695589887745,0.543707146944211,0.516044232540446,0.483955767459554,0.533152270557014,0.5,0.1983028728403,0.685935418909153,0.466847729442986,0.0105548763871974,0.5,0.0226088202245105,1.06305002193913,9.93895505574002,2.45255331826869,0.5,70.3920881892698
CBC_1006,CBC_1006_MSI_AV_v3_Vset1_Aset3_2023-06-03_11h59.24.512.csv,1,26,1,0,z,0,1,1,aud,A,63,1,1A,0A,0,1,z,1.72877139999946,0,1,1,1,0A,1A,A10,2.32727770558442,0.543707146944211,0.488695589887745,0.5,0.5,0.477646759151462,0.511054609084448,0.5,0.488695589887745,0.5,0.5,0.543707146944211,0.466847729442986,0.5,0.488695589887745,0.488695589887745,0.543707146944211,0.526642488969603,0.473357511030397,0.543707146944211,0.488695589887745,0.507406072230215,0.785590474015633,0.456292853055789,0.0103162430844673,0.5,0.0226088202245105,1.06305002193913,9.93895505574002,2.45255331826869,0.5,70.3920881892698
CBC_1006,CBC_1006_MSI_AV_v3_Vset1_Aset3_2023-06-03_11h59.24.512.csv,1,27,3,1,z,0,1,2,aud,B,27,1,3B,1B,0,1,z,2.26179400000001,0,1,1,1,1B,3B,B31,3.04452243772342,0.554023390028679,0.488695589887745,0.5,0.5,0.477646759151462,0.511054609084448,0.5,0.488695589887745,0.5,0.5,0.543707146944211,0.466847729442986,0.5,0.488695589887745,0.488695589887745,0.543707146944211,0.511182302949121,0.488817697050879,0.511054609084448,0.488695589887745,0.249017652648149,0.633574747662232,0.488945390915552,0.0110544784428127,0.5,0.0226088202245105,1.06305002193913,9.93895505574002,2.45255331826869,0.5,70.3920881892698
CBC_1006,CBC_1006_MSI_AV_v3_Vset1_Aset3_2023-06-03_11h59.24.512.csv,1,28,2,3,b,1,0,0,aud,C,63,1,2C,3C,1,0,b,2.68409960000008,1,0,1,1,2C,3C,C23,2.37490575457367,0.554023390028679,0.488695589887745,0.5,0.5,0.477646759151462,0.52210908752726,0.5,0.488695589887745,0.5,0.5,0.543707146944211,0.466847729442986,0.5,0.488695589887745,0.488695589887745,0.543707146944211,0.538028324486446,0.461971675513554,0.543707146944211,0.466847729442986,0.219651914634521,0.864837798221905,0.456292853055789,0.0103162430844673,0.5,0.0226088202245105,1.06305002193913,9.93895505574002,2.45255331826869,0.5,70.3920881892698
CBC_1006,CBC_1006_MSI_AV_v3_Vset1_Aset3_2023-06-03_11h59.24.512.csv,1,29,2,3,z,0,1,3,aud,D,63,1,2D,3D,0,1,z,1.4493068999991,0,1,1,1,3D,2D,D23,2.68557734525015,0.554023390028679,0.488695589887745,0.5,0.5,0.477646759151462,0.52210908752726,0.5,0.488695589887745,0.5,0.5,0.554023390028679,0.466847729442986,0.5,0.488695589887745,0.488695589887745,0.543707146944211,0.526642488969603,0.473357511030397,0.543707146944211,0.488695589887745,0.527316994766207,0.785414248261582,0.456292853055789,0.0103162430844673,0.5,0.0226088202245105,1.06305002193913,9.93895505574002,2.45255331826869,0.5,70.3920881892698
CBC_1006,CBC_1006_MSI_AV_v3_Vset1_Aset3_2023-06-03_11h59.24.512.csv,1,30,1,0,b,1,0,2,aud,B,63,1,1B,0B,1,0,b,2.26819809999961,1,0,1,1,1B,0B,B10,2.70805020110221,0.554023390028679,0.488695589887745,0.5,0.5,0.477646759151462,0.52210908752726,0.5,0.488695589887745,0.5,0.5,0.554023390028679,0.466847729442986,0.5,0.488695589887745,0.488695589887745,0.554023390028679,0.522236593326014,0.477763406673986,0.52210908752726,0.477646759151462,0.296959805155297,0.747856701757957,0.47789091247274,0.0108045497270235,0.5,0.0226088202245105,1.06305002193913,9.93895505574002,2.45255331826869,0.5,70.3920881892698
CBC_1006,CBC_1006_MSI_AV_v3_Vset1_Aset3_2023-06-03_11h59.24.512.csv,1,31,0,2,b,1,0,1,aud,A,27,1,0A,2A,1,0,b,2.77333379999982,1,0,1,1,0A,2A,A02,3.13549421592915,0.554023390028679,0.488695589887745,0.5,0.5,0.477646759151462,0.532913637254284,0.5,0.488695589887745,0.5,0.5,0.554023390028679,0.466847729442986,0.5,0.488695589887745,0.488695589887745,0.554023390028679,0.525627225420116,0.474372774579884,0.554023390028679,0.5,0.192138125897581,0.777666639644831,0.445976609971321,0.0100830049991782,0.5,0.0226088202245105,1.06305002193913,9.93895505574002,2.45255331826869,0.5,70.3920881892698
CBC_1006,CBC_1006_MSI_AV_v3_Vset1_Aset3_2023-06-03_11h59.24.512.csv,1,32,0,3,z,0,1,3,aud,D,9,1,0D,3D,0,1,z,1.63970229999904,0,1,1,1,3D,0D,D03,3.85014760171006,0.564106395027857,0.488695589887745,0.5,0.5,0.477646759151462,0.532913637254284,0.5,0.488695589887745,0.5,0.5,0.554023390028679,0.466847729442986,0.5,0.488695589887745,0.488695589887745,0.554023390028679,0.525627225420116,0.474372774579884,0.554023390028679,0.5,0.52535768328592,0.777007557394923,0.445976609971321,0.0100830049991782,0.5,0.0226088202245105,1.06305002193913,9.93895505574002,2.45255331826869,0.5,70.3920881892698
CBC_1006,CBC_1006_MSI_AV_v3_Vset1_Aset3_2023-06-03_11h59.24.512.csv,1,33,2,3,b,1,0,0,aud,C,63,1,2C,3C,1,0,z,1.6148747999996,0,1,0,0,3C,2C,C23,2.26176309847379,0.564106395027857,0.488695589887745,0.5,0.5,0.477646759151462,0.532913637254284,0.5,0.488695589887745,0.5,0.5,0.554023390028679,0.466847729442986,0.5,0.488695589887745,0.488695589887745,0.564106395027857,0.457303297682273,0.542696702317727,0.466847729442986,0.554023390028679,0.0883558695593947,0.110745610645132,-0.466847729442986,-0.0105548763871974,0.5,0.0226088202245105,1.06305002193913,9.93895505574002,2.45255331826869,0.5,70.3920881892698
CBC_1006,CBC_1006_MSI_AV_v3_Vset1_Aset3_2023-06-03_11h59.24.512.csv,1,34,1,0,b,1,0,2,aud,B,63,1,1B,0B,1,0,b,3.33489709999958,1,0,1,1,1B,0B,B10,2.50552593699074,0.564106395027857,0.488695589887745,0.5,0.5,0.477646759151462,0.532913637254284,0.5,0.488695589887745,0.5,0.5,0.554023390028679,0.456292853055789,0.5,0.488695589887745,0.488695589887745,0.564106395027857,0.527344668512337,0.472655331487663,0.532913637254284,0.477646759151462,0.112765818307542,0.791112738374988,0.467086362745716,0.0105602716046384,0.5,0.0226088202245105,1.06305002193913,9.93895505574002,2.45255331826869,0.5,70.3920881892698
CBC_1006,CBC_1006_MSI_AV_v3_Vset1_Aset3_2023-06-03_11h59.24.512.csv,1,35,1,0,z,0,1,1,aud,A,63,0,1A,0A,1,0,z,1.25560809999934,0,1,1,0,0A,1A,A10,2.30258509299405,0.564106395027857,0.488695589887745,0.5,0.5,0.477646759151462,0.543473908858922,0.5,0.488695589887745,0.5,0.5,0.554023390028679,0.456292853055789,0.5,0.488695589887745,0.488695589887745,0.564106395027857,0.535814334614005,0.464185665385995,0.564106395027857,0.488695589887745,0.266149870635932,0.851646185216552,-0.564106395027857,-0.0127537800726815,0.5,0.0226088202245105,1.06305002193913,9.93895505574002,2.45255331826869,0.5,70.3920881892698
CBC_1006,CBC_1006_MSI_AV_v3_Vset1_Aset3_2023-06-03_11h59.24.512.csv,1,36,3,2,b,1,0,3,aud,D,63,1,3D,2D,1,0,z,2.6660538999995,0,1,0,0,2D,3D,D32,2.83321334405622,0.551352614955175,0.488695589887745,0.5,0.5,0.477646759151462,0.543473908858922,0.5,0.488695589887745,0.5,0.5,0.554023390028679,0.456292853055789,0.5,0.488695589887745,0.488695589887745,0.564106395027857,0.464185665385995,0.535814334614005,0.488695589887745,0.564106395027857,0.0390529499125172,0.148698574640358,-0.488695589887745,-0.0110488307362831,0.5,0.0226088202245105,1.06305002193913,9.93895505574002,2.45255331826869,0.5,70.3920881892698
CBC_1006,CBC_1006_MSI_AV_v3_Vset1_Aset3_2023-06-03_11h59.24.512.csv,1,37,2,1,z,0,1,2,aud,B,9,1,2B,1B,0,1,z,3.38084520000029,0,1,1,1,1B,2B,B21,3.95124371858143,0.551352614955175,0.488695589887745,0.5,0.5,0.477646759151462,0.543473908858922,0.5,0.488695589887745,0.5,0.5,0.554023390028679,0.456292853055789,0.5,0.488695589887745,0.477646759151462,0.564106395027857,0.520831334875667,0.479168665124333,0.543473908858922,0.5,0.106261144546092,0.734385871192447,0.456526091141078,0.0103215163224071,0.5,0.0226088202245105,1.06305002193913,9.93895505574002,2.45255331826869,0.5,70.3920881892698
CBC_1006,CBC_1006_MSI_AV_v3_Vset1_Aset3_2023-06-03_11h59.24.512.csv,1,38,0,2,b,1,0,1,aud,A,27,1,0A,2A,1,0,b,2.83275429999958,1,0,1,1,0A,2A,A02,2.87167962488401,0.551352614955175,0.488695589887745,0.5,0.5,0.477646759151462,0.553795425181329,0.5,0.488695589887745,0.5,0.5,0.554023390028679,0.456292853055789,0.5,0.488695589887745,0.477646759151462,0.564106395027857,0.524422165420383,0.475577834579617,0.551352614955175,0.5,0.17999925532703,0.766695468197991,0.448647385044825,0.0101433880726752,0.5,0.0226088202245105,1.06305002193913,9.93895505574002,2.45255331826869,0.5,70.3920881892698
CBC_1006,CBC_1006_MSI_AV_v3_Vset1_Aset3_2023-06-03_11h59.24.512.csv,1,39,3,2,z,0,1,0,aud,C,63,1,3C,2C,0,1,b,2.11759230000007,1,0,0,0,3C,2C,C32,3.29583686600433,0.561496003027851,0.488695589887745,0.5,0.5,0.477646759151462,0.553795425181329,0.5,0.488695589887745,0.5,0.5,0.554023390028679,0.456292853055789,0.5,0.488695589887745,0.477646759151462,0.564106395027857,0.451633690123341,0.548366309876659,0.456292853055789,0.554023390028679,0.0414554156459613,0.0865112642295254,-0.456292853055789,-0.0103162430844673,0.5,0.0226088202245105,1.06305002193913,9.93895505574002,2.45255331826869,0.5,70.3920881892698
CBC_1006,CBC_1006_MSI_AV_v3_Vset1_Aset3_2023-06-03_11h59.24.512.csv,1,40,3,1,b,1,0,3,aud,D,27,1,3D,1D,1,0,b,1.46296089999942,1,0,1,1,3D,1D,D31,3.31418600467253,0.561496003027851,0.488695589887745,0.5,0.5,0.477646759151462,0.553795425181329,0.5,0.488695589887745,0.5,0.5,0.554023390028679,0.445976609971321,0.5,0.488695589887745,0.477646759151462,0.564106395027857,0.535814334614005,0.464185665385995,0.564106395027857,0.488695589887745,0.638926489693733,0.851669391249832,0.435893604972143,0.00985504015182898,0.5,0.0226088202245105,1.06305002193913,9.93895505574002,2.45255331826869,0.5,70.3920881892698
CBC_1006,CBC_1006_MSI_AV_v3_Vset1_Aset3_2023-06-03_11h59.24.512.csv,1,41,1,0,z,0,1,1,aud,A,63,1,1A,0A,0,1,z,1.43725229999927,0,1,1,1,0A,1A,A10,2.23359222150709,0.561496003027851,0.488695589887745,0.5,0.5,0.477646759151462,0.553795425181329,0.5,0.488695589887745,0.5,0.5,0.554023390028679,0.445976609971321,0.5,0.488695589887745,0.477646759151462,0.573961435179686,0.534660538910807,0.465339461089193,0.561496003027851,0.488695589887745,0.610714161129179,0.844394968988662,0.438503996972149,0.00991405803527262,0.5,0.0226088202245105,1.06305002193913,9.93895505574002,2.45255331826869,0.5,70.3920881892698
CBC_1006,CBC_1006_MSI_AV_v3_Vset1_Aset3_2023-06-03_11h59.24.512.csv,1,42,2,0,b,1,0,0,aud,C,27,1,2C,0C,1,0,b,2.9706699999997,1,0,1,1,2C,0C,C20,3.3499040872746,0.571410061063123,0.488695589887745,0.5,0.5,0.477646759151462,0.553795425181329,0.5,0.488695589887745,0.5,0.5,0.554023390028679,0.445976609971321,0.5,0.488695589887745,0.477646759151462,0.573961435179686,0.525627225420116,0.474372774579884,0.554023390028679,0.5,0.159234289167528,0.77724457448165,0.445976609971321,0.0100830049991782,0.5,0.0226088202245105,1.06305002193913,9.93895505574002,2.45255331826869,0.5,70.3920881892698
CBC_1006,CBC_1006_MSI_AV_v3_Vset1_Aset3_2023-06-03_11h59.24.512.csv,1,43,2,3,z,0,1,3,aud,D,63,1,2D,3D,0,1,z,1.41254589999971,0,1,1,1,3D,2D,D23,2.67414864942653,0.571410061063123,0.488695589887745,0.5,0.5,0.477646759151462,0.553795425181329,0.5,0.488695589887745,0.5,0.5,0.564106395027857,0.445976609971321,0.5,0.488695589887745,0.477646759151462,0.573961435179686,0.545793992737705,0.454206007262294,0.573961435179686,0.477646759151462,0.72761656078929,0.903117444148821,0.426038564820314,0.00963222932073094,0.5,0.0226088202245105,1.06305002193913,9.93895505574002,2.45255331826869,0.5,70.3920881892698
CBC_1006,CBC_1006_MSI_AV_v3_Vset1_Aset3_2023-06-03_11h59.24.512.csv,1,44,0,1,z,0,1,2,aud,B,63,1,0B,1B,0,1,z,2.23342979999961,0,1,1,1,1B,0B,B01,2.97892515523761,0.571410061063123,0.488695589887745,0.5,0.5,0.477646759151462,0.553795425181329,0.5,0.488695589887745,0.5,0.5,0.564106395027857,0.445976609971321,0.5,0.488695589887745,0.477646759151462,0.583593664500417,0.536913686092413,0.463086313907587,0.553795425181329,0.477646759151462,0.358334980845218,0.858178303690094,0.446204574818671,0.0100881590154295,0.5,0.0226088202245105,1.06305002193913,9.93895505574002,2.45255331826869,0.5,70.3920881892698
CBC_1006,CBC_1006_MSI_TV_v3_Vset4_Tset3_2023-06-03_12h08.01.236.csv,2,1,1,0,z,0,1,1,tac,A,63,1,1A,0A,NaN,NaN,None,NaN,NaN,NaN,NaN,NaN,,,A10,2.77258872223978,0.5,0.5,0.5,0.5,0.5,0.5,0.5,0.5,0.5,0.5,0.5,0.5,0.5,0.5,0.5,0.5,0,0,0,0,NaN,0,0,0,0.5,0.0319484785889221,0.902986778709089,4.21439124149692,2.59032680654307,0.5,81.5180732906402
CBC_1006,CBC_1006_MSI_TV_v3_Vset4_Tset3_2023-06-03_12h08.01.236.csv,2,2,3,2,b,1,0,3,tac,D,63,1,3D,2D,1,0,z,2.59424890000082,0,1,0,0,2D,3D,D32,2.83321334405622,0.5,0.5,0.5,0.5,0.5,0.5,0.5,0.5,0.5,0.5,0.5,0.5,0.5,0.5,0.5,0.5,0.5,0.5,0.5,0.5,0.134926179358396,0.49990698395596,-0.5,-0.0159742392944611,0.5,0.0319484785889221,0.902986778709089,4.21439124149692,2.59032680654307,0.5,81.5180732906402
CBC_1006,CBC_1006_MSI_TV_v3_Vset4_Tset3_2023-06-03_12h08.01.236.csv,2,3,2,0,b,1,0,0,tac,C,27,1,2C,0C,1,0,b,3.27190340000107,1,0,1,1,2C,0C,C20,2.89037175789616,0.5,0.5,0.5,0.5,0.5,0.5,0.5,0.5,0.5,0.5,0.5,0.5,0.5,0.5,0.484025760705539,0.5,0.5,0.5,0.5,0.5,0.0820109831843628,0.500094257979636,0.5,0.0159742392944611,0.5,0.0319484785889221,0.902986778709089,4.21439124149692,2.59032680654307,0.5,81.5180732906402
CBC_1006,CBC_1006_MSI_TV_v3_Vset4_Tset3_2023-06-03_12h08.01.236.csv,2,4,1,0,z,0,1,1,tac,A,63,1,1A,0A,0,1,z,2.72173430000021,0,1,1,1,0A,1A,A10,2.2512917986065,0.5,0.5,0.5,0.5,0.5,0.5,0.5,0.5,0.5,0.5,0.515974239294461,0.5,0.5,0.5,0.484025760705539,0.5,0.5,0.5,0.5,0.5,0.122782594520129,0.499593511652319,0.5,0.0159742392944611,0.5,0.0319484785889221,0.902986778709089,4.21439124149692,2.59032680654307,0.5,81.5180732906402
CBC_1006,CBC_1006_MSI_TV_v3_Vset4_Tset3_2023-06-03_12h08.01.236.csv,2,5,3,1,z,0,1,2,tac,B,27,1,3B,1B,0,1,b,2.35638590000053,1,0,0,0,3B,1B,B31,2.99573227355399,0.515974239294461,0.5,0.5,0.5,0.5,0.5,0.5,0.5,0.5,0.5,0.515974239294461,0.5,0.5,0.5,0.484025760705539,0.5,0.5,0.5,0.5,0.5,0.160359396381894,0.499001491704709,-0.5,-0.0159742392944611,0.5,0.0319484785889221,0.902986778709089,4.21439124149692,2.59032680654307,0.5,81.5180732906402
CBC_1006,CBC_1006_MSI_TV_v3_Vset4_Tset3_2023-06-03_12h08.01.236.csv,2,6,2,3,b,1,0,0,tac,C,63,1,2C,3C,1,0,b,3.01857459999974,1,0,1,1,2C,3C,C23,3.04452243772342,0.515974239294461,0.5,0.5,0.5,0.5,0.5,0.5,0.484025760705539,0.5,0.5,0.515974239294461,0.5,0.5,0.5,0.484025760705539,0.5,0.507861537564946,0.492138462435054,0.515974239294461,0.5,0.107232489011915,0.543280692896143,0.484025760705539,0.0154638866523877,0.5,0.0319484785889221,0.902986778709089,4.21439124149692,2.59032680654307,0.5,81.5180732906402
CBC_1006,CBC_1006_MSI_TV_v3_Vset4_Tset3_2023-06-03_12h08.01.236.csv,2,7,2,3,z,0,1,3,tac,D,63,0,2D,3D,1,0,b,3.06619090000004,1,0,0,1,2D,3D,D23,3.09104245335832,0.515974239294461,0.5,0.5,0.5,0.5,0.5,0.5,0.484025760705539,0.5,0.5,0.531438125946849,0.5,0.5,0.5,0.484025760705539,0.5,0.491883220982443,0.508116779017557,0.484025760705539,0.5,0.0867581774636639,0.455296763599816,0.515974239294461,0.0164845919365345,0.5,0.0319484785889221,0.902986778709089,4.21439124149692,2.59032680654307,0.5,81.5180732906402
CBC_1006,CBC_1006_MSI_TV_v3_Vset4_Tset3_2023-06-03_12h08.01.236.csv,2,8,1,0,b,1,0,2,tac,B,63,1,1B,0B,1,0,z,2.34549130000141,0,1,0,0,0B,1B,B10,3.13549421592915,0.515974239294461,0.5,0.5,0.5,0.5,0.5,0.5,0.484025760705539,0.5,0.5,0.531438125946849,0.5,0.5,0.5,0.500510352642073,0.5,0.5,0.5,0.5,0.5,0.16184382014437,0.499620805365686,-0.5,-0.0159742392944611,0.5,0.0319484785889221,0.902986778709089,4.21439124149692,2.59032680654307,0.5,81.5180732906402
CBC_1006,CBC_1006_MSI_TV_v3_Vset4_Tset3_2023-06-03_12h08.01.236.csv,2,9,0,2,b,1,0,1,tac,A,27,1,0A,2A,1,0,b,2.85200260000056,1,0,1,1,0A,2A,A02,3.17805383034795,0.515974239294461,0.5,0.5,0.5,0.484025760705539,0.5,0.5,0.484025760705539,0.5,0.5,0.531438125946849,0.5,0.5,0.5,0.500510352642073,0.5,0.507861537564946,0.492138462435054,0.515974239294461,0.5,0.120946386215975,0.541895558305748,0.484025760705539,0.0154638866523877,0.5,0.0319484785889221,0.902986778709089,4.21439124149692,2.59032680654307,0.5,81.5180732906402
CBC_1006,CBC_1006_MSI_TV_v3_Vset4_Tset3_2023-06-03_12h08.01.236.csv,2,10,0,3,z,0,1,3,tac,D,9,1,0D,3D,0,1,z,1.78596300000027,0,1,1,1,3D,0D,D03,3.2188758248682,0.531438125946849,0.5,0.5,0.5,0.484025760705539,0.5,0.5,0.484025760705539,0.5,0.5,0.531438125946849,0.5,0.5,0.5,0.500510352642073,0.5,0.5,0.5,0.5,0.5,0.240310041463128,0.499588946197716,0.5,0.0159742392944611,0.5,0.0319484785889221,0.902986778709089,4.21439124149692,2.59032680654307,0.5,81.5180732906402
CBC_1006,CBC_1006_MSI_TV_v3_Vset4_Tset3_2023-06-03_12h08.01.236.csv,2,11,3,2,z,0,1,0,tac,C,63,1,3C,2C,0,1,b,2.4825505000008,1,0,0,0,3C,2C,C32,3.25809653802148,0.531438125946849,0.5,0.5,0.5,0.484025760705539,0.5,0.5,0.484025760705539,0.5,0.5,0.531438125946849,0.5,0.5,0.5,0.500510352642073,0.515974239294461,0.48476005241808,0.515239947581921,0.5,0.531438125946849,0.122414349680398,0.417524733671498,-0.5,-0.0159742392944611,0.5,0.0319484785889221,0.902986778709089,4.21439124149692,2.59032680654307,0.5,81.5180732906402
CBC_1006,CBC_1006_MSI_TV_v3_Vset4_Tset3_2023-06-03_12h08.01.236.csv,2,12,1,0,b,1,0,2,tac,B,63,1,1B,0B,1,0,b,2.75120670000069,1,0,1,1,1B,0B,B10,2.60268968544438,0.531438125946849,0.5,0.5,0.5,0.484025760705539,0.5,0.5,0.484025760705539,0.5,0.5,0.531438125946849,0.484025760705539,0.5,0.5,0.500510352642073,0.515974239294461,0.508116779017557,0.491883220982443,0.5,0.484025760705539,0.130901542964854,0.544517999050355,0.5,0.0159742392944611,0.5,0.0319484785889221,0.902986778709089,4.21439124149692,2.59032680654307,0.5,81.5180732906402
CBC_1006,CBC_1006_MSI_TV_v3_Vset4_Tset3_2023-06-03_12h08.01.236.csv,2,13,3,2,b,1,0,3,tac,D,63,1,3D,2D,1,0,z,2.40526090000003,0,1,0,0,2D,3D,D32,2.63905732961526,0.531438125946849,0.5,0.5,0.5,0.484025760705539,0.515974239294461,0.5,0.484025760705539,0.5,0.5,0.531438125946849,0.484025760705539,0.5,0.5,0.500510352642073,0.515974239294461,0.492393447586388,0.507606552413612,0.500510352642073,0.515974239294461,0.142606196124736,0.459777968718034,-0.500510352642073,-0.0159905442849191,0.5,0.0319484785889221,0.902986778709089,4.21439124149692,2.59032680654307,0.5,81.5180732906402
CBC_1006,CBC_1006_MSI_TV_v3_Vset4_Tset3_2023-06-03_12h08.01.236.csv,2,14,3,2,z,0,1,0,tac,C,63,1,3C,2C,0,1,b,2.39105400000062,1,0,0,0,3C,2C,C32,2.67414864942653,0.531438125946849,0.5,0.5,0.5,0.484025760705539,0.515974239294461,0.5,0.484025760705539,0.5,0.5,0.531438125946849,0.484025760705539,0.5,0.5,0.484519808357154,0.515974239294461,0.476654824526744,0.523345175473256,0.484025760705539,0.531438125946849,0.117758526466267,0.374602025999963,-0.484025760705539,-0.0154638866523877,0.5,0.0319484785889221,0.902986778709089,4.21439124149692,2.59032680654307,0.5,81.5180732906402
CBC_1006,CBC_1006_MSI_TV_v3_Vset4_Tset3_2023-06-03_12h08.01.236.csv,2,15,1,3,b,1,0,2,tac,B,27,1,1B,3B,1,0,z,2.32436779999989,0,1,0,0,3B,1B,B13,3.40119738166216,0.531438125946849,0.5,0.5,0.5,0.484025760705539,0.515974239294461,0.5,0.484025760705539,0.5,0.5,0.531438125946849,0.468561874053151,0.5,0.5,0.484519808357154,0.515974239294461,0.484025760705539,0.515974239294461,0.484025760705539,0.515974239294461,0.136258488616443,0.413249238441026,-0.484025760705539,-0.0154638866523877,0.5,0.0319484785889221,0.902986778709089,4.21439124149692,2.59032680654307,0.5,81.5180732906402
CBC_1006,CBC_1006_MSI_TV_v3_Vset4_Tset3_2023-06-03_12h08.01.236.csv,2,16,3,0,z,0,1,1,tac,A,9,1,3A,0A,0,1,b,2.79982820000077,1,0,0,0,3A,0A,A30,3.43398720448515,0.531438125946849,0.5,0.5,0.5,0.484025760705539,0.515974239294461,0.5,0.468561874053151,0.5,0.5,0.531438125946849,0.468561874053151,0.5,0.5,0.484519808357154,0.515974239294461,0.48476005241808,0.515239947581921,0.5,0.531438125946849,0.096528598117258,0.41677273942589,-0.5,-0.0159742392944611,0.5,0.0319484785889221,0.902986778709089,4.21439124149692,2.59032680654307,0.5,81.5180732906402
CBC_1006,CBC_1006_MSI_TV_v3_Vset4_Tset3_2023-06-03_12h08.01.236.csv,2,17,3,2,b,1,0,3,tac,D,63,1,3D,2D,NaN,NaN,None,NaN,NaN,NaN,NaN,NaN,,,D32,2.36712361413162,0.531438125946849,0.5,0.5,0.484025760705539,0.484025760705539,0.515974239294461,0.5,0.468561874053151,0.5,0.5,0.531438125946849,0.468561874053151,0.5,0.5,0.484519808357154,0.515974239294461,0,0,0,0,NaN,0,0,0,0.5,0.0319484785889221,0.902986778709089,4.21439124149692,2.59032680654307,0.5,81.5180732906402
CBC_1006,CBC_1006_MSI_TV_v3_Vset4_Tset3_2023-06-03_12h08.01.236.csv,2,18,2,0,b,1,0,0,tac,C,27,1,2C,0C,1,0,b,1.93140870000025,1,0,1,1,2C,0C,C20,2.80336038090653,0.531438125946849,0.5,0.5,0.484025760705539,0.484025760705539,0.515974239294461,0.5,0.468561874053151,0.5,0.5,0.531438125946849,0.468561874053151,0.5,0.5,0.484519808357154,0.515974239294461,0.515239947581921,0.48476005241808,0.531438125946849,0.5,0.255270335625954,0.581872902153168,0.468561874053151,0.0149698390007723,0.5,0.0319484785889221,0.902986778709089,4.21439124149692,2.59032680654307,0.5,81.5180732906402
CBC_1006,CBC_1006_MSI_TV_v3_Vset4_Tset3_2023-06-03_12h08.01.236.csv,2,19,1,0,z,0,1,1,tac,A,63,1,1A,0A,0,1,b,2.35746430000017,1,0,0,0,1A,0A,A10,2.42774823594805,0.531438125946849,0.5,0.5,0.484025760705539,0.484025760705539,0.515974239294461,0.5,0.468561874053151,0.5,0.5,0.546407964947621,0.468561874053151,0.5,0.5,0.484519808357154,0.515974239294461,0.48476005241808,0.515239947581921,0.5,0.531438125946849,0.134353953604856,0.417667981100717,-0.5,-0.0159742392944611,0.5,0.0319484785889221,0.902986778709089,4.21439124149692,2.59032680654307,0.5,81.5180732906402
CBC_1006,CBC_1006_MSI_TV_v3_Vset4_Tset3_2023-06-03_12h08.01.236.csv,2,20,0,1,z,0,1,2,tac,B,63,0,0B,1B,1,0,z,2.44078300000001,0,1,1,0,1B,0B,B01,3.55534806148941,0.531438125946849,0.484025760705539,0.5,0.484025760705539,0.484025760705539,0.515974239294461,0.5,0.468561874053151,0.5,0.5,0.546407964947621,0.468561874053151,0.5,0.5,0.484519808357154,0.515974239294461,0.515974239294461,0.484025760705539,0.515974239294461,0.484025760705539,0.17764884038323,0.587353998604534,-0.515974239294461,-0.0164845919365345,0.5,0.0319484785889221,0.902986778709089,4.21439124149692,2.59032680654307,0.5,81.5180732906402
CBC_1006,CBC_1006_MSI_TV_v3_Vset4_Tset3_2023-06-03_12h08.01.236.csv,2,21,1,3,z,0,1,3,tac,D,27,1,1D,3D,0,1,b,2.34393900000032,1,0,0,0,1D,3D,D13,3.58351893845611,0.531438125946849,0.484025760705539,0.5,0.484025760705539,0.484025760705539,0.499489647357927,0.5,0.468561874053151,0.5,0.5,0.546407964947621,0.468561874053151,0.5,0.5,0.484519808357154,0.515974239294461,0.492138462435054,0.507861537564946,0.5,0.515974239294461,0.148489443867629,0.457643995007485,-0.5,-0.0159742392944611,0.5,0.0319484785889221,0.902986778709089,4.21439124149692,2.59032680654307,0.5,81.5180732906402
CBC_1006,CBC_1006_MSI_TV_v3_Vset4_Tset3_2023-06-03_12h08.01.236.csv,2,22,2,3,b,1,0,0,tac,C,63,1,2C,3C,1,0,z,2.70805410000048,0,1,0,0,3C,2C,C23,2.91777073208428,0.531438125946849,0.484025760705539,0.5,0.484025760705539,0.484025760705539,0.499489647357927,0.5,0.468561874053151,0.5,0.5,0.546407964947621,0.468561874053151,0.5,0.484025760705539,0.484519808357154,0.515974239294461,0.461651032423235,0.538348967576765,0.468561874053151,0.546407964947621,0.0742740950634095,0.301937812306024,-0.468561874053151,-0.0149698390007723,0.5,0.0319484785889221,0.902986778709089,4.21439124149692,2.59032680654307,0.5,81.5180732906402
CBC_1006,CBC_1006_MSI_TV_v3_Vset4_Tset3_2023-06-03_12h08.01.236.csv,2,23,1,0,b,1,0,2,tac,B,63,1,1B,0B,1,0,b,1.2663235,1,0,1,1,1B,0B,B10,2.53897387105828,0.531438125946849,0.484025760705539,0.5,0.484025760705539,0.484025760705539,0.499489647357927,0.5,0.468561874053151,0.5,0.5,0.546407964947621,0.453592035052379,0.5,0.484025760705539,0.484519808357154,0.515974239294461,0.507861537564946,0.492138462435054,0.499489647357927,0.484025760705539,0.255347022477258,0.542755975080201,0.500510352642073,0.0159905442849191,0.5,0.0319484785889221,0.902986778709089,4.21439124149692,2.59032680654307,0.5,81.5180732906402
CBC_1006,CBC_1006_MSI_TV_v3_Vset4_Tset3_2023-06-03_12h08.01.236.csv,2,24,2,0,z,0,1,1,tac,A,27,1,2A,0A,0,1,z,2.81869590000042,0,1,1,1,0A,2A,A20,3.66356164612965,0.531438125946849,0.484025760705539,0.5,0.484025760705539,0.484025760705539,0.515480191642846,0.5,0.468561874053151,0.5,0.5,0.546407964947621,0.453592035052379,0.5,0.484025760705539,0.484519808357154,0.515974239294461,0.515239947581921,0.48476005241808,0.531438125946849,0.5,0.133090115547566,0.58273548007703,0.468561874053151,0.0149698390007723,0.5,0.0319484785889221,0.902986778709089,4.21439124149692,2.59032680654307,0.5,81.5180732906402
CBC_1006,CBC_1006_MSI_TV_v3_Vset4_Tset3_2023-06-03_12h08.01.236.csv,2,25,2,3,z,0,1,3,tac,D,63,1,2D,3D,0,1,z,2.89427060000071,0,1,1,1,3D,2D,D23,2.99573227355399,0.546407964947621,0.484025760705539,0.5,0.484025760705539,0.484025760705539,0.515480191642846,0.5,0.468561874053151,0.5,0.5,0.546407964947621,0.453592035052379,0.5,0.484025760705539,0.484519808357154,0.515974239294461,0.515719449311636,0.484280550688364,0.515974239294461,0.484519808357154,0.126479942195993,0.585934577799283,0.484025760705539,0.0154638866523877,0.5,0.0319484785889221,0.902986778709089,4.21439124149692,2.59032680654307,0.5,81.5180732906402
CBC_1006,CBC_1006_MSI_TV_v3_Vset4_Tset3_2023-06-03_12h08.01.236.csv,2,26,2,0,b,1,0,0,tac,C,27,1,2C,0C,1,0,b,2.92750330000035,1,0,1,1,2C,0C,C20,2.6149597780362,0.546407964947621,0.484025760705539,0.5,0.484025760705539,0.484025760705539,0.515480191642846,0.5,0.468561874053151,0.5,0.5,0.546407964947621,0.453592035052379,0.5,0.484025760705539,0.484519808357154,0.531438125946849,0.522174890913576,0.477825109086424,0.546407964947621,0.5,0.130073464150815,0.619692534909999,0.453592035052379,0.0144915754199765,0.5,0.0319484785889221,0.902986778709089,4.21439124149692,2.59032680654307,0.5,81.5180732906402
CBC_1006,CBC_1006_MSI_TV_v3_Vset4_Tset3_2023-06-03_12h08.01.236.csv,2,27,1,0,b,1,0,2,tac,B,63,1,1B,0B,1,0,z,2.35325800000101,0,1,0,0,0B,1B,B10,2.35137525716348,0.546407964947621,0.484025760705539,0.5,0.484025760705539,0.484025760705539,0.515480191642846,0.5,0.468561874053151,0.5,0.5,0.560899540367598,0.453592035052379,0.5,0.484025760705539,0.484519808357154,0.531438125946849,0.484265010696833,0.515734989303167,0.484025760705539,0.515480191642846,0.134038023158463,0.415348280473047,-0.484025760705539,-0.0154638866523877,0.5,0.0319484785889221,0.902986778709089,4.21439124149692,2.59032680654307,0.5,81.5180732906402
CBC_1006,CBC_1006_MSI_TV_v3_Vset4_Tset3_2023-06-03_12h08.01.236.csv,2,28,0,1,b,1,0,1,tac,A,63,1,0A,1A,1,0,z,3.22679290000087,0,1,0,0,1A,0A,A01,3.76120011569356,0.546407964947621,0.484025760705539,0.5,0.484025760705539,0.468561874053151,0.515480191642846,0.5,0.468561874053151,0.5,0.5,0.560899540367598,0.453592035052379,0.5,0.484025760705539,0.484519808357154,0.531438125946849,0.469730123010803,0.530269876989197,0.484025760705539,0.546407964947621,0.0563818696632085,0.340042882914971,-0.484025760705539,-0.0154638866523877,0.5,0.0319484785889221,0.902986778709089,4.21439124149692,2.59032680654307,0.5,81.5180732906402
CBC_1006,CBC_1006_MSI_TV_v3_Vset4_Tset3_2023-06-03_12h08.01.236.csv,2,29,3,2,z,0,1,0,tac,C,63,0,3C,2C,1,0,z,2.43088890000035,0,1,1,0,2C,3C,C32,2.68557734525015,0.546407964947621,0.468561874053151,0.5,0.484025760705539,0.468561874053151,0.515480191642846,0.5,0.468561874053151,0.5,0.5,0.560899540367598,0.453592035052379,0.5,0.484025760705539,0.484519808357154,0.531438125946849,0.552887331898639,0.447112668101361,0.560899540367598,0.453592035052379,0.232815382389163,0.760272923327464,-0.560899540367598,-0.0179198869559705,0.5,0.0319484785889221,0.902986778709089,4.21439124149692,2.59032680654307,0.5,81.5180732906402
CBC_1006,CBC_1006_MSI_TV_v3_Vset4_Tset3_2023-06-03_12h08.01.236.csv,2,30,3,1,b,1,0,3,tac,D,27,1,3D,1D,1,0,b,1.14110750000054,1,0,1,1,3D,1D,D31,3.80666248977032,0.546407964947621,0.468561874053151,0.5,0.484025760705539,0.468561874053151,0.515480191642846,0.5,0.468561874053151,0.5,0.5,0.542979653411627,0.453592035052379,0.5,0.484025760705539,0.484519808357154,0.531438125946849,0.523345175473256,0.476654824526744,0.531438125946849,0.484025760705539,0.168719817643111,0.62490337014274,0.468561874053151,0.0149698390007723,0.5,0.0319484785889221,0.902986778709089,4.21439124149692,2.59032680654307,0.5,81.5180732906402
CBC_1006,CBC_1006_MSI_TV_v3_Vset4_Tset3_2023-06-03_12h08.01.236.csv,2,31,1,0,z,0,1,1,tac,A,63,1,1A,0A,0,1,z,2.71044070000062,0,1,1,1,0A,1A,A10,2.4423470353692,0.546407964947621,0.468561874053151,0.5,0.484025760705539,0.468561874053151,0.515480191642846,0.5,0.468561874053151,0.5,0.5,0.542979653411627,0.453592035052379,0.5,0.484025760705539,0.484519808357154,0.546407964947621,0.538348967576765,0.461651032423235,0.546407964947621,0.468561874053151,0.171367423063805,0.697939023477738,0.453592035052379,0.0144915754199765,0.5,0.0319484785889221,0.902986778709089,4.21439124149692,2.59032680654307,0.5,81.5180732906402
CBC_1006,CBC_1006_MSI_TV_v3_Vset4_Tset3_2023-06-03_12h08.01.236.csv,2,32,3,2,b,1,0,3,tac,D,63,1,3D,2D,1,0,b,1.55044830000043,1,0,1,1,3D,2D,D32,2.46385324059017,0.560899540367598,0.468561874053151,0.5,0.484025760705539,0.468561874053151,0.515480191642846,0.5,0.468561874053151,0.5,0.5,0.542979653411627,0.453592035052379,0.5,0.484025760705539,0.484519808357154,0.546407964947621,0.530015757744151,0.469984242255849,0.546407964947621,0.484519808357154,0.368613613860069,0.657595095731354,0.453592035052379,0.0144915754199765,0.5,0.0319484785889221,0.902986778709089,4.21439124149692,2.59032680654307,0.5,81.5180732906402
CBC_1006,CBC_1006_MSI_TV_v3_Vset4_Tset3_2023-06-03_12h08.01.236.csv,2,33,2,1,z,0,1,2,tac,B,9,1,2B,1B,0,1,b,2.59497830000055,1,0,0,0,2B,1B,B21,3.87120101090789,0.560899540367598,0.468561874053151,0.5,0.484025760705539,0.468561874053151,0.515480191642846,0.5,0.468561874053151,0.5,0.5,0.542979653411627,0.453592035052379,0.5,0.484025760705539,0.484519808357154,0.560899540367598,0.492377895812127,0.507622104187873,0.5,0.515480191642846,0.123635006981087,0.458333964126351,-0.5,-0.0159742392944611,0.5,0.0319484785889221,0.902986778709089,4.21439124149692,2.59032680654307,0.5,81.5180732906402
CBC_1006,CBC_1006_MSI_TV_v3_Vset4_Tset3_2023-06-03_12h08.01.236.csv,2,34,1,0,z,0,1,1,tac,A,63,1,1A,0A,0,1,z,2.60536680000041,0,1,1,1,0A,1A,A10,2.28238238567653,0.560899540367598,0.468561874053151,0.5,0.484025760705539,0.468561874053151,0.515480191642846,0.484025760705539,0.468561874053151,0.5,0.5,0.542979653411627,0.453592035052379,0.5,0.484025760705539,0.484519808357154,0.560899540367598,0.544847560588952,0.455152439411048,0.560899540367598,0.468561874053151,0.193355094885218,0.726805644858555,0.439100459632402,0.0140285916329517,0.5,0.0319484785889221,0.902986778709089,4.21439124149692,2.59032680654307,0.5,81.5180732906402
CBC_1006,CBC_1006_MSI_TV_v3_Vset4_Tset3_2023-06-03_12h08.01.236.csv,2,35,2,1,b,1,0,0,tac,C,9,1,2C,1C,1,0,z,2.93487690000075,0,1,0,0,1C,2C,C21,3.91202300542815,0.574928132000549,0.468561874053151,0.5,0.484025760705539,0.468561874053151,0.515480191642846,0.484025760705539,0.468561874053151,0.5,0.5,0.542979653411627,0.453592035052379,0.5,0.484025760705539,0.484519808357154,0.560899540367598,0.479395737361204,0.520604262638796,0.5,0.542979653411627,0.0812618380033956,0.388919750550648,-0.5,-0.0159742392944611,0.5,0.0319484785889221,0.902986778709089,4.21439124149692,2.59032680654307,0.5,81.5180732906402
CBC_1006,CBC_1006_MSI_TV_v3_Vset4_Tset3_2023-06-03_12h08.01.236.csv,2,36,1,0,b,1,0,2,tac,B,63,1,1B,0B,1,0,b,2.34445240000059,1,0,1,1,1B,0B,B10,2.32238772029023,0.574928132000549,0.468561874053151,0.5,0.484025760705539,0.468561874053151,0.515480191642846,0.484025760705539,0.468561874053151,0.5,0.484025760705539,0.542979653411627,0.453592035052379,0.5,0.484025760705539,0.484519808357154,0.560899540367598,0.523839589396267,0.476160410603733,0.515480191642846,0.468561874053151,0.204199247890896,0.627142070335793,0.484519808357154,0.0154796707232072,0.5,0.0319484785889221,0.902986778709089,4.21439124149692,2.59032680654307,0.5,81.5180732906402
CBC_1006,CBC_1006_MSI_TV_v3_Vset4_Tset3_2023-06-03_12h08.01.236.csv,2,37,0,1,b,1,0,1,tac,A,63,0,0A,1A,0,1,z,2.41212250000081,0,1,0,1,1A,0A,A01,3.25809653802148,0.574928132000549,0.468561874053151,0.5,0.484025760705539,0.468561874053151,0.530959862366053,0.484025760705539,0.468561874053151,0.5,0.484025760705539,0.542979653411627,0.453592035052379,0.5,0.484025760705539,0.484519808357154,0.560899540367598,0.449033408403375,0.550966591596625,0.468561874053151,0.574928132000549,0.0769541820631209,0.247419474457501,0.531438125946849,0.0169786395881498,0.5,0.0319484785889221,0.902986778709089,4.21439124149692,2.59032680654307,0.5,81.5180732906402
CBC_1006,CBC_1006_MSI_TV_v3_Vset4_Tset3_2023-06-03_12h08.01.236.csv,2,38,0,1,z,0,1,2,tac,B,63,1,0B,1B,0,1,b,1.07595330000095,1,0,0,0,0B,1B,B01,3.27714473299218,0.574928132000549,0.485540513641301,0.5,0.484025760705539,0.468561874053151,0.530959862366053,0.484025760705539,0.468561874053151,0.5,0.484025760705539,0.542979653411627,0.453592035052379,0.5,0.484025760705539,0.484519808357154,0.560899540367598,0.468786077361137,0.531213922638863,0.468561874053151,0.530959862366053,0.0397932010948057,0.33594709922376,-0.468561874053151,-0.0149698390007723,0.5,0.0319484785889221,0.902986778709089,4.21439124149692,2.59032680654307,0.5,81.5180732906402
CBC_1006,CBC_1006_MSI_TV_v3_Vset4_Tset3_2023-06-03_12h08.01.236.csv,2,39,1,3,z,0,1,3,tac,D,27,1,1D,3D,0,1,z,2.71706170000107,0,1,1,1,3D,1D,D13,3.29583686600433,0.574928132000549,0.485540513641301,0.5,0.484025760705539,0.453592035052379,0.530959862366053,0.484025760705539,0.468561874053151,0.5,0.484025760705539,0.542979653411627,0.453592035052379,0.5,0.484025760705539,0.484519808357154,0.560899540367598,0.536784342183652,0.463215657816348,0.560899540367598,0.484025760705539,0.168854029471844,0.690644080801303,0.439100459632402,0.0140285916329517,0.5,0.0319484785889221,0.902986778709089,4.21439124149692,2.59032680654307,0.5,81.5180732906402
CBC_1006,CBC_1006_MSI_TV_v3_Vset4_Tset3_2023-06-03_12h08.01.236.csv,2,40,3,2,z,0,1,0,tac,C,63,1,3C,2C,0,1,z,2.20560900000146,0,1,1,1,2C,3C,C32,2.62103882411258,0.574928132000549,0.485540513641301,0.5,0.484025760705539,0.453592035052379,0.530959862366053,0.484025760705539,0.468561874053151,0.5,0.484025760705539,0.542979653411627,0.453592035052379,0.5,0.484025760705539,0.484519808357154,0.574928132000549,0.544847560588952,0.455152439411048,0.542979653411627,0.453592035052379,0.266538541473217,0.726637817373785,0.457020346588373,0.0146011047576804,0.5,0.0319484785889221,0.902986778709089,4.21439124149692,2.59032680654307,0.5,81.5180732906402
CBC_1006,CBC_1006_MSI_TV_v3_Vset4_Tset3_2023-06-03_12h08.01.236.csv,2,41,0,2,b,1,0,1,tac,A,27,1,0A,2A,1,0,b,2.63774360000116,1,0,1,1,0A,2A,A02,3.3322045101752,0.574928132000549,0.485540513641301,0.5,0.484025760705539,0.453592035052379,0.530959862366053,0.484025760705539,0.468561874053151,0.5,0.484025760705539,0.557580758169308,0.453592035052379,0.5,0.484025760705539,0.484519808357154,0.574928132000549,0.534852623989429,0.465147376010571,0.574928132000549,0.5,0.177263112897887,0.680884976671172,0.425071867999451,0.0135803994735336,0.5,0.0319484785889221,0.902986778709089,4.21439124149692,2.59032680654307,0.5,81.5180732906402
CBC_1006,CBC_1006_MSI_TV_v3_Vset4_Tset3_2023-06-03_12h08.01.236.csv,2,42,2,3,z,0,1,3,tac,D,63,1,2D,3D,0,1,z,2.28333640000074,0,1,1,1,3D,2D,D23,2.94443897916644,0.588508531474083,0.485540513641301,0.5,0.484025760705539,0.453592035052379,0.530959862366053,0.484025760705539,0.468561874053151,0.5,0.484025760705539,0.557580758169308,0.453592035052379,0.5,0.484025760705539,0.484519808357154,0.574928132000549,0.542667657465486,0.457332342534514,0.574928132000549,0.484519808357154,0.24684557613923,0.717007850301621,0.425071867999451,0.0135803994735336,0.5,0.0319484785889221,0.902986778709089,4.21439124149692,2.59032680654307,0.5,81.5180732906402
CBC_1006,CBC_1006_MSI_TV_v3_Vset4_Tset3_2023-06-03_12h08.01.236.csv,2,43,1,3,b,1,0,2,tac,B,27,1,1B,3B,1,0,b,2.33615100000134,1,0,1,1,1B,3B,B13,3.36729582998647,0.588508531474083,0.485540513641301,0.5,0.484025760705539,0.453592035052379,0.530959862366053,0.484025760705539,0.468561874053151,0.5,0.484025760705539,0.557580758169308,0.453592035052379,0.5,0.484025760705539,0.484519808357154,0.588508531474083,0.531213922638863,0.468786077361137,0.530959862366053,0.468561874053151,0.218372170780521,0.664593867730738,0.469040137633947,0.0149851187945432,0.5,0.0319484785889221,0.902986778709089,4.21439124149692,2.59032680654307,0.5,81.5180732906402
CBC_1006,CBC_1006_MSI_TV_v3_Vset4_Tset3_2023-06-03_12h08.01.236.csv,2,44,3,2,z,0,1,0,tac,C,63,1,3C,2C,0,1,z,2.08014420000109,0,1,1,1,2C,3C,C32,2.46809953147162,0.588508531474083,0.485540513641301,0.5,0.484025760705539,0.453592035052379,0.545944981160596,0.484025760705539,0.468561874053151,0.5,0.484025760705539,0.557580758169308,0.453592035052379,0.5,0.484025760705539,0.484519808357154,0.588508531474083,0.551419858116243,0.448580141883757,0.557580758169308,0.453592035052379,0.308065311428345,0.754071351881979,0.442419241830692,0.014134621674955,0.5,0.0319484785889221,0.902986778709089,4.21439124149692,2.59032680654307,0.5,81.5180732906402
CBC_1006,CBC_1006_MSI_AV_v3_Vset2_Aset2_2023-06-03_13h33.59.045.csv,3,1,1,0,b,1,0,2,aud,B,63,1,1B,0B,1,0,z,1.64999219999845,0,1,0,0,0B,1B,B10,2.77258872223978,0.5,0.5,0.5,0.5,0.5,0.5,0.5,0.5,0.5,0.5,0.5,0.5,0.5,0.5,0.5,0.5,0.5,0.5,0.5,0.5,0.30271459161911,0.499318689024452,-0.5,-0.0113939020785427,0.5,0.0227878041570855,1.08075179169948,10.3066703325817,2.45688765128987,0.5,69.9584402316006
CBC_1006,CBC_1006_MSI_AV_v3_Vset2_Aset2_2023-06-03_13h33.59.045.csv,3,2,1,0,z,0,1,1,aud,A,63,1,1A,0A,0,1,b,2.29349000000002,1,0,0,0,1A,0A,A10,2.83321334405622,0.5,0.5,0.5,0.5,0.488606097921457,0.5,0.5,0.5,0.5,0.5,0.5,0.5,0.5,0.5,0.5,0.5,0.5,0.5,0.5,0.5,0.192918448983557,0.500045463416464,-0.5,-0.0113939020785427,0.5,0.0227878041570855,1.08075179169948,10.3066703325817,2.45688765128987,0.5,69.9584402316006
CBC_1006,CBC_1006_MSI_AV_v3_Vset2_Aset2_2023-06-03_13h33.59.045.csv,3,3,3,2,b,1,0,3,aud,D,63,1,3D,2D,1,0,z,1.54883510000036,0,1,0,0,2D,3D,D32,2.89037175789616,0.5,0.488606097921457,0.5,0.5,0.488606097921457,0.5,0.5,0.5,0.5,0.5,0.5,0.5,0.5,0.5,0.5,0.5,0.5,0.5,0.5,0.5,0.305081285963353,0.499664640903156,-0.5,-0.0113939020785427,0.5,0.0227878041570855,1.08075179169948,10.3066703325817,2.45688765128987,0.5,69.9584402316006
CBC_1006,CBC_1006_MSI_AV_v3_Vset2_Aset2_2023-06-03_13h33.59.045.csv,3,4,1,2,b,1,0,2,aud,B,9,1,1B,2B,1,0,b,1.48532569999952,1,0,1,1,1B,2B,B12,2.94443897916644,0.5,0.488606097921457,0.5,0.5,0.488606097921457,0.5,0.5,0.5,0.5,0.5,0.5,0.5,0.5,0.5,0.488606097921457,0.5,0.5,0.5,0.5,0.5,0.294547649693715,0.499256317266319,0.5,0.0113939020785427,0.5,0.0227878041570855,1.08075179169948,10.3066703325817,2.45688765128987,0.5,69.9584402316006
CBC_1006,CBC_1006_MSI_AV_v3_Vset2_Aset2_2023-06-03_13h33.59.045.csv,3,5,2,0,z,0,1,1,aud,A,27,1,2A,0A,0,1,z,2.36616030000005,0,1,1,1,0A,2A,A20,2.99573227355399,0.5,0.488606097921457,0.5,0.5,0.488606097921457,0.511393902078543,0.5,0.5,0.5,0.5,0.5,0.5,0.5,0.5,0.488606097921457,0.5,0.5,0.5,0.5,0.5,0.181848078411816,0.49999822808552,0.5,0.0113939020785427,0.5,0.0227878041570855,1.08075179169948,10.3066703325817,2.45688765128987,0.5,69.9584402316006
CBC_1006,CBC_1006_MSI_AV_v3_Vset2_Aset2_2023-06-03_13h33.59.045.csv,3,6,3,2,z,0,1,0,aud,C,63,1,3C,2C,0,1,b,3.59783009999956,1,0,0,0,3C,2C,C32,3.04452243772342,0.511393902078543,0.488606097921457,0.5,0.5,0.488606097921457,0.511393902078543,0.5,0.5,0.5,0.5,0.5,0.5,0.5,0.5,0.488606097921457,0.5,0.5,0.5,0.5,0.5,0.0665726732477531,0.500683510329131,-0.5,-0.0113939020785427,0.5,0.0227878041570855,1.08075179169948,10.3066703325817,2.45688765128987,0.5,69.9584402316006
CBC_1006,CBC_1006_MSI_AV_v3_Vset2_Aset2_2023-06-03_13h33.59.045.csv,3,7,3,1,b,1,0,3,aud,D,27,1,3D,1D,1,0,z,2.12825789999988,0,1,0,0,1D,3D,D31,3.09104245335832,0.511393902078543,0.488606097921457,0.5,0.5,0.488606097921457,0.511393902078543,0.5,0.5,0.5,0.5,0.5,0.488606097921457,0.5,0.5,0.488606097921457,0.5,0.5,0.5,0.5,0.5,0.220119404188529,0.499507705376236,-0.5,-0.0113939020785427,0.5,0.0227878041570855,1.08075179169948,10.3066703325817,2.45688765128987,0.5,69.9584402316006
CBC_1006,CBC_1006_MSI_AV_v3_Vset2_Aset2_2023-06-03_13h33.59.045.csv,3,8,0,1,b,1,0,1,aud,A,63,1,0A,1A,1,0,b,2.57427710000047,1,0,1,1,0A,1A,A01,3.13549421592915,0.511393902078543,0.488606097921457,0.5,0.5,0.488606097921457,0.511393902078543,0.5,0.5,0.5,0.5,0.5,0.488606097921457,0.5,0.488606097921457,0.488606097921457,0.5,0.511393902078543,0.488606097921457,0.511393902078543,0.488606097921457,0.19651419711262,0.640304837196417,0.488606097921457,0.0111342600693919,0.5,0.0227878041570855,1.08075179169948,10.3066703325817,2.45688765128987,0.5,69.9584402316006
CBC_1006,CBC_1006_MSI_AV_v3_Vset2_Aset2_2023-06-03_13h33.59.045.csv,3,9,0,2,z,0,1,0,aud,C,27,1,0C,2C,0,1,b,2.40491420000035,1,0,0,0,0C,2C,C02,3.17805383034795,0.522528162147935,0.488606097921457,0.5,0.5,0.488606097921457,0.511393902078543,0.5,0.5,0.5,0.5,0.5,0.488606097921457,0.5,0.488606097921457,0.488606097921457,0.5,0.5,0.5,0.5,0.5,0.17628014984433,0.500215733105555,-0.5,-0.0113939020785427,0.5,0.0227878041570855,1.08075179169948,10.3066703325817,2.45688765128987,0.5,69.9584402316006
CBC_1006,CBC_1006_MSI_AV_v3_Vset2_Aset2_2023-06-03_13h33.59.045.csv,3,10,3,2,b,1,0,3,aud,D,63,1,3D,2D,1,0,z,2.24018400000023,0,1,0,0,2D,3D,D32,2.52572864430826,0.522528162147935,0.488606097921457,0.5,0.5,0.488606097921457,0.511393902078543,0.5,0.5,0.488606097921457,0.5,0.5,0.488606097921457,0.5,0.488606097921457,0.488606097921457,0.5,0.494237390350667,0.505762609649333,0.488606097921457,0.5,0.172914517183601,0.428254552152265,-0.488606097921457,-0.0111342600693919,0.5,0.0227878041570855,1.08075179169948,10.3066703325817,2.45688765128987,0.5,69.9584402316006
CBC_1006,CBC_1006_MSI_AV_v3_Vset2_Aset2_2023-06-03_13h33.59.045.csv,3,11,0,1,z,0,1,2,aud,B,63,1,0B,1B,0,1,b,1.73058049999781,1,0,0,0,0B,1B,B01,3.25809653802148,0.522528162147935,0.488606097921457,0.5,0.5,0.488606097921457,0.511393902078543,0.5,0.5,0.488606097921457,0.5,0.5,0.488606097921457,0.5,0.488606097921457,0.477471837852065,0.5,0.488606097921457,0.511393902078543,0.488606097921457,0.511393902078543,0.215813584703839,0.360078358853854,-0.488606097921457,-0.0111342600693919,0.5,0.0227878041570855,1.08075179169948,10.3066703325817,2.45688765128987,0.5,69.9584402316006
CBC_1006,CBC_1006_MSI_AV_v3_Vset2_Aset2_2023-06-03_13h33.59.045.csv,3,12,1,0,z,0,1,1,aud,A,63,1,1A,0A,0,1,b,2.70851550000043,1,0,0,0,1A,0A,A10,2.60268968544438,0.522528162147935,0.488606097921457,0.5,0.5,0.477471837852065,0.511393902078543,0.5,0.5,0.488606097921457,0.5,0.5,0.488606097921457,0.5,0.488606097921457,0.477471837852065,0.5,0.483225736894649,0.516774263105351,0.488606097921457,0.522528162147935,0.0818481271783051,0.300409738895007,-0.488606097921457,-0.0111342600693919,0.5,0.0227878041570855,1.08075179169948,10.3066703325817,2.45688765128987,0.5,69.9584402316006
CBC_1006,CBC_1006_MSI_AV_v3_Vset2_Aset2_2023-06-03_13h33.59.045.csv,3,13,3,2,b,1,0,3,aud,D,63,1,3D,2D,1,0,z,2.54632749999837,0,1,0,0,2D,3D,D32,2.23359222150709,0.522528162147935,0.477471837852065,0.5,0.5,0.477471837852065,0.511393902078543,0.5,0.5,0.488606097921457,0.5,0.5,0.488606097921457,0.5,0.488606097921457,0.477471837852065,0.5,0.488476311400726,0.511523688599274,0.477471837852065,0.5,0.112633753145439,0.358441283576254,-0.477471837852065,-0.0108805347314965,0.5,0.0227878041570855,1.08075179169948,10.3066703325817,2.45688765128987,0.5,69.9584402316006
CBC_1006,CBC_1006_MSI_AV_v3_Vset2_Aset2_2023-06-03_13h33.59.045.csv,3,14,0,2,z,0,1,0,aud,C,27,1,0C,2C,0,1,b,2.43276390000028,1,0,0,0,0C,2C,C02,2.67414864942653,0.522528162147935,0.477471837852065,0.5,0.5,0.477471837852065,0.511393902078543,0.5,0.5,0.488606097921457,0.5,0.5,0.488606097921457,0.5,0.488606097921457,0.466591303120569,0.5,0.494237390350667,0.505762609649333,0.488606097921457,0.5,0.147465749008776,0.427593378788932,-0.488606097921457,-0.0111342600693919,0.5,0.0227878041570855,1.08075179169948,10.3066703325817,2.45688765128987,0.5,69.9584402316006
CBC_1006,CBC_1006_MSI_AV_v3_Vset2_Aset2_2023-06-03_13h33.59.045.csv,3,15,1,0,z,0,1,1,aud,A,63,1,1A,0A,0,1,b,3.07588329999999,1,0,0,0,1A,0A,A10,2.30258509299405,0.522528162147935,0.477471837852065,0.5,0.5,0.477471837852065,0.511393902078543,0.5,0.5,0.477471837852065,0.5,0.5,0.488606097921457,0.5,0.488606097921457,0.466591303120569,0.5,0.477471837852065,0.522528162147935,0.477471837852065,0.522528162147935,0.0465333565910282,0.242596472721913,-0.477471837852065,-0.0108805347314965,0.5,0.0227878041570855,1.08075179169948,10.3066703325817,2.45688765128987,0.5,69.9584402316006
CBC_1006,CBC_1006_MSI_AV_v3_Vset2_Aset2_2023-06-03_13h33.59.045.csv,3,16,3,1,z,0,1,2,aud,B,27,1,3B,1B,0,1,b,2.63252469999861,1,0,0,0,3B,1B,B31,3.43398720448515,0.522528162147935,0.466591303120569,0.5,0.5,0.477471837852065,0.511393902078543,0.5,0.5,0.477471837852065,0.5,0.5,0.488606097921457,0.5,0.488606097921457,0.466591303120569,0.5,0.494367228210924,0.505632771789076,0.5,0.511393902078543,0.125403608566643,0.428591416509129,-0.5,-0.0113939020785427,0.5,0.0227878041570855,1.08075179169948,10.3066703325817,2.45688765128987,0.5,69.9584402316006
CBC_1006,CBC_1006_MSI_AV_v3_Vset2_Aset2_2023-06-03_13h33.59.045.csv,3,17,2,3,b,1,0,0,aud,C,63,1,2C,3C,1,0,z,2.56087359999947,0,1,0,0,3C,2C,C23,3.46573590279973,0.522528162147935,0.466591303120569,0.5,0.5,0.477471837852065,0.511393902078543,0.5,0.488606097921457,0.477471837852065,0.5,0.5,0.488606097921457,0.5,0.488606097921457,0.466591303120569,0.5,0.494237390350667,0.505762609649333,0.488606097921457,0.5,0.132613824905903,0.427265725387988,-0.488606097921457,-0.0111342600693919,0.5,0.0227878041570855,1.08075179169948,10.3066703325817,2.45688765128987,0.5,69.9584402316006
CBC_1006,CBC_1006_MSI_AV_v3_Vset2_Aset2_2023-06-03_13h33.59.045.csv,3,18,3,2,b,1,0,3,aud,D,63,0,3D,2D,0,1,z,3.05978119999963,0,1,0,1,2D,3D,D32,2.11021320034659,0.522528162147935,0.466591303120569,0.5,0.5,0.477471837852065,0.511393902078543,0.5,0.488606097921457,0.477471837852065,0.5,0.5,0.477471837852065,0.5,0.488606097921457,0.466591303120569,0.5,0.482718292223625,0.517281707776375,0.466591303120569,0.5,0.0588479880692847,0.294525591147849,0.533408696879431,0.0121552129201746,0.5,0.0227878041570855,1.08075179169948,10.3066703325817,2.45688765128987,0.5,69.9584402316006
CBC_1006,CBC_1006_MSI_AV_v3_Vset2_Aset2_2023-06-03_13h33.59.045.csv,3,19,0,1,z,0,1,2,aud,B,63,1,0B,1B,0,1,b,1.71929060000002,1,0,0,0,0B,1B,B01,2.83321334405622,0.522528162147935,0.466591303120569,0.5,0.5,0.477471837852065,0.511393902078543,0.5,0.488606097921457,0.477471837852065,0.5,0.5,0.477471837852065,0.5,0.488606097921457,0.478746516040743,0.5,0.482847992979887,0.517152007020113,0.477471837852065,0.511393902078543,0.18368436795511,0.296213629212151,-0.477471837852065,-0.0108805347314965,0.5,0.0227878041570855,1.08075179169948,10.3066703325817,2.45688765128987,0.5,69.9584402316006
CBC_1006,CBC_1006_MSI_AV_v3_Vset2_Aset2_2023-06-03_13h33.59.045.csv,3,20,0,2,b,1,0,1,aud,A,27,1,0A,2A,1,0,z,2.17530839999927,0,1,0,0,2A,0A,A02,3.55534806148941,0.522528162147935,0.466591303120569,0.5,0.5,0.466591303120569,0.511393902078543,0.5,0.488606097921457,0.477471837852065,0.5,0.5,0.477471837852065,0.5,0.488606097921457,0.478746516040743,0.5,0.488984087195891,0.511015912804109,0.5,0.522528162147935,0.15617621882224,0.364272644379283,-0.5,-0.0113939020785427,0.5,0.0227878041570855,1.08075179169948,10.3066703325817,2.45688765128987,0.5,69.9584402316006
CBC_1006,CBC_1006_MSI_AV_v3_Vset2_Aset2_2023-06-03_13h33.59.045.csv,3,21,3,0,b,1,0,3,aud,D,9,1,3D,0D,1,0,b,2.54010559999915,1,0,1,1,3D,0D,D30,3.58351893845611,0.522528162147935,0.466591303120569,0.488606097921457,0.5,0.466591303120569,0.511393902078543,0.5,0.488606097921457,0.477471837852065,0.5,0.5,0.477471837852065,0.5,0.488606097921457,0.478746516040743,0.5,0.5,0.5,0.5,0.5,0.15760882435785,0.499345212074446,0.5,0.0113939020785427,0.5,0.0227878041570855,1.08075179169948,10.3066703325817,2.45688765128987,0.5,69.9584402316006
CBC_1006,CBC_1006_MSI_AV_v3_Vset2_Aset2_2023-06-03_13h33.59.045.csv,3,22,3,2,z,0,1,0,aud,C,63,1,3C,2C,0,1,z,2.63879329999872,0,1,1,1,2C,3C,C32,2.91777073208428,0.522528162147935,0.466591303120569,0.488606097921457,0.5,0.466591303120569,0.511393902078543,0.5,0.488606097921457,0.477471837852065,0.5,0.5,0.477471837852065,0.5,0.488606097921457,0.478746516040743,0.511393902078543,0.511523688599274,0.488476311400726,0.5,0.477471837852065,0.186429129089669,0.641472330650449,0.5,0.0113939020785427,0.5,0.0227878041570855,1.08075179169948,10.3066703325817,2.45688765128987,0.5,69.9584402316006
CBC_1006,CBC_1006_MSI_AV_v3_Vset2_Aset2_2023-06-03_13h33.59.045.csv,3,23,1,3,b,1,0,2,aud,B,27,1,1B,3B,1,0,b,1.68570550000004,1,0,1,1,1B,3B,B13,3.63758615972639,0.522528162147935,0.466591303120569,0.488606097921457,0.5,0.466591303120569,0.511393902078543,0.5,0.488606097921457,0.477471837852065,0.5,0.511393902078543,0.477471837852065,0.5,0.488606097921457,0.478746516040743,0.511393902078543,0.511393902078543,0.488606097921457,0.511393902078543,0.488606097921457,0.392828336802369,0.640631584542572,0.488606097921457,0.0111342600693919,0.5,0.0227878041570855,1.08075179169948,10.3066703325817,2.45688765128987,0.5,69.9584402316006
CBC_1006,CBC_1006_MSI_AV_v3_Vset2_Aset2_2023-06-03_13h33.59.045.csv,3,24,2,3,b,1,0,0,aud,C,63,1,2C,3C,1,0,b,3.92732109999815,1,0,1,1,2C,3C,C23,2.9704144655697,0.522528162147935,0.466591303120569,0.488606097921457,0.5,0.466591303120569,0.522528162147935,0.5,0.488606097921457,0.477471837852065,0.5,0.511393902078543,0.477471837852065,0.5,0.488606097921457,0.478746516040743,0.511393902078543,0.517152007020113,0.482847992979887,0.511393902078543,0.477471837852065,0.0656326796915851,0.704695894439704,0.488606097921457,0.0111342600693919,0.5,0.0227878041570855,1.08075179169948,10.3066703325817,2.45688765128987,0.5,69.9584402316006
CBC_1006,CBC_1006_MSI_AV_v3_Vset2_Aset2_2023-06-03_13h33.59.045.csv,3,25,3,2,b,1,0,3,aud,D,63,1,3D,2D,1,0,b,3.0595272999999,1,0,1,1,3D,2D,D32,2.07944154167984,0.522528162147935,0.466591303120569,0.488606097921457,0.5,0.466591303120569,0.522528162147935,0.5,0.488606097921457,0.477471837852065,0.5,0.522528162147935,0.477471837852065,0.5,0.488606097921457,0.478746516040743,0.511393902078543,0.516486240456587,0.483513759543414,0.511393902078543,0.478746516040743,0.139720449599746,0.696877862069169,0.488606097921457,0.0111342600693919,0.5,0.0227878041570855,1.08075179169948,10.3066703325817,2.45688765128987,0.5,69.9584402316006
CBC_1006,CBC_1006_MSI_AV_v3_Vset2_Aset2_2023-06-03_13h33.59.045.csv,3,26,0,1,z,0,1,2,aud,B,63,1,0B,1B,0,1,z,2.10143620000053,0,1,1,1,1B,0B,B01,2.6149597780362,0.522528162147935,0.466591303120569,0.488606097921457,0.5,0.466591303120569,0.522528162147935,0.5,0.488606097921457,0.477471837852065,0.5,0.522528162147935,0.477471837852065,0.5,0.488606097921457,0.478746516040743,0.522528162147935,0.528276088476421,0.471723911523579,0.522528162147935,0.466591303120569,0.387295188398358,0.807265248650677,0.477471837852065,0.0108805347314965,0.5,0.0227878041570855,1.08075179169948,10.3066703325817,2.45688765128987,0.5,69.9584402316006
CBC_1006,CBC_1006_MSI_AV_v3_Vset2_Aset2_2023-06-03_13h33.59.045.csv,3,27,3,0,z,0,1,1,aud,A,9,1,3A,0A,0,1,z,2.49631659999795,0,1,1,1,0A,3A,A30,3.73766961828337,0.522528162147935,0.466591303120569,0.488606097921457,0.5,0.466591303120569,0.533408696879431,0.5,0.488606097921457,0.477471837852065,0.5,0.522528162147935,0.477471837852065,0.5,0.488606097921457,0.478746516040743,0.522528162147935,0.511015912804109,0.488984087195891,0.522528162147935,0.5,0.208372073811533,0.635789201600241,0.477471837852065,0.0108805347314965,0.5,0.0227878041570855,1.08075179169948,10.3066703325817,2.45688765128987,0.5,69.9584402316006
CBC_1006,CBC_1006_MSI_AV_v3_Vset2_Aset2_2023-06-03_13h33.59.045.csv,3,28,3,2,b,1,0,3,aud,D,63,1,3D,2D,1,0,b,2.9578309999979,1,0,1,1,3D,2D,D32,1.96944064646551,0.533408696879431,0.466591303120569,0.488606097921457,0.5,0.466591303120569,0.533408696879431,0.5,0.488606097921457,0.477471837852065,0.5,0.522528162147935,0.477471837852065,0.5,0.488606097921457,0.478746516040743,0.522528162147935,0.521862954821944,0.478137045178056,0.522528162147935,0.478746516040743,0.161310165134009,0.751853998276222,0.477471837852065,0.0108805347314965,0.5,0.0227878041570855,1.08075179169948,10.3066703325817,2.45688765128987,0.5,69.9584402316006
CBC_1006,CBC_1006_MSI_AV_v3_Vset2_Aset2_2023-06-03_13h33.59.045.csv,3,29,0,2,z,0,1,0,aud,C,27,1,0C,2C,0,1,z,2.48705889999837,0,1,1,1,2C,0C,C02,2.68557734525015,0.533408696879431,0.466591303120569,0.488606097921457,0.5,0.466591303120569,0.533408696879431,0.5,0.488606097921457,0.477471837852065,0.5,0.522528162147935,0.477471837852065,0.5,0.488606097921457,0.478746516040743,0.533408696879431,0.522528162147935,0.477471837852065,0.522528162147935,0.477471837852065,0.250412714331592,0.757517833121344,0.477471837852065,0.0108805347314965,0.5,0.0227878041570855,1.08075179169948,10.3066703325817,2.45688765128987,0.5,69.9584402316006
CBC_1006,CBC_1006_MSI_AV_v3_Vset2_Aset2_2023-06-03_13h33.59.045.csv,3,30,0,1,b,1,0,1,aud,A,63,1,0A,1A,1,0,b,2.34811009999976,1,0,1,1,0A,1A,A01,3.11351530921037,0.533408696879431,0.466591303120569,0.488606097921457,0.5,0.466591303120569,0.533408696879431,0.5,0.488606097921457,0.477471837852065,0.5,0.533408696879431,0.477471837852065,0.5,0.488606097921457,0.478746516040743,0.533408696879431,0.533408696879431,0.466591303120569,0.533408696879431,0.466591303120569,0.318504270830068,0.844783409622489,0.466591303120569,0.0106325912369108,0.5,0.0227878041570855,1.08075179169948,10.3066703325817,2.45688765128987,0.5,69.9584402316006
CBC_1006,CBC_1006_MSI_AV_v3_Vset2_Aset2_2023-06-03_13h33.59.045.csv,3,31,0,1,z,0,1,2,aud,B,63,1,0B,1B,0,1,z,1.49740279999969,0,1,1,1,1B,0B,B01,2.4423470353692,0.544041288116342,0.466591303120569,0.488606097921457,0.5,0.466591303120569,0.533408696879431,0.5,0.488606097921457,0.477471837852065,0.5,0.533408696879431,0.477471837852065,0.5,0.488606097921457,0.478746516040743,0.533408696879431,0.533408696879431,0.466591303120569,0.533408696879431,0.466591303120569,0.628934167731231,0.844474797990358,0.466591303120569,0.0106325912369108,0.5,0.0227878041570855,1.08075179169948,10.3066703325817,2.45688765128987,0.5,69.9584402316006
CBC_1006,CBC_1006_MSI_AV_v3_Vset2_Aset2_2023-06-03_13h33.59.045.csv,3,32,1,3,z,0,1,3,aud,D,27,1,1D,3D,0,1,z,2.191595100001,0,1,1,1,3D,1D,D13,3.85014760171006,0.544041288116342,0.466591303120569,0.488606097921457,0.5,0.466591303120569,0.544041288116342,0.5,0.488606097921457,0.477471837852065,0.5,0.533408696879431,0.477471837852065,0.5,0.488606097921457,0.478746516040743,0.533408696879431,0.521918762421978,0.478081237578022,0.533408696879431,0.488606097921457,0.325725492638483,0.752109926652465,0.466591303120569,0.0106325912369108,0.5,0.0227878041570855,1.08075179169948,10.3066703325817,2.45688765128987,0.5,69.9584402316006
CBC_1006,CBC_1006_MSI_AV_v3_Vset2_Aset2_2023-06-03_13h33.59.045.csv,3,33,2,3,b,1,0,0,aud,C,63,1,2C,3C,1,0,b,2.76085409999905,1,0,1,1,2C,3C,C23,2.77258872223978,0.544041288116342,0.466591303120569,0.488606097921457,0.5,0.466591303120569,0.544041288116342,0.5,0.488606097921457,0.477471837852065,0.5,0.533408696879431,0.477471837852065,0.5,0.488606097921457,0.478746516040743,0.544041288116342,0.527667393478015,0.472332606521985,0.533408696879431,0.477471837852065,0.201977949520001,0.80189829381272,0.466591303120569,0.0106325912369108,0.5,0.0227878041570855,1.08075179169948,10.3066703325817,2.45688765128987,0.5,69.9584402316006
CBC_1006,CBC_1006_MSI_AV_v3_Vset2_Aset2_2023-06-03_13h33.59.045.csv,3,34,0,1,z,0,1,2,aud,B,63,1,0B,1B,0,1,b,2.58953110000039,1,0,0,0,0B,1B,B01,2.28238238567653,0.544041288116342,0.466591303120569,0.488606097921457,0.5,0.466591303120569,0.544041288116342,0.5,0.488606097921457,0.477471837852065,0.5,0.544041288116342,0.477471837852065,0.5,0.488606097921457,0.478746516040743,0.544041288116342,0.461682422639378,0.538317577360622,0.466591303120569,0.544041288116342,0.0359170092937827,0.125702474395969,-0.466591303120569,-0.0106325912369108,0.5,0.0227878041570855,1.08075179169948,10.3066703325817,2.45688765128987,0.5,69.9584402316006
CBC_1006,CBC_1006_MSI_AV_v3_Vset2_Aset2_2023-06-03_13h33.59.045.csv,3,35,1,0,z,0,1,1,aud,A,63,1,1A,0A,0,1,z,2.3438290999984,0,1,1,1,0A,1A,A10,2.52572864430826,0.544041288116342,0.466591303120569,0.488606097921457,0.5,0.455958711883658,0.544041288116342,0.5,0.488606097921457,0.477471837852065,0.5,0.544041288116342,0.477471837852065,0.5,0.488606097921457,0.478746516040743,0.544041288116342,0.538317577360622,0.461682422639378,0.544041288116342,0.466591303120569,0.329425508463078,0.874101922814802,0.455958711883658,0.0103902978301218,0.5,0.0227878041570855,1.08075179169948,10.3066703325817,2.45688765128987,0.5,69.9584402316006
CBC_1006,CBC_1006_MSI_AV_v3_Vset2_Aset2_2023-06-03_13h33.59.045.csv,3,36,2,1,b,1,0,0,aud,C,9,1,2C,1C,1,0,b,2.34788759999901,1,0,1,1,2C,1C,C21,3.93182563272433,0.554431585946464,0.466591303120569,0.488606097921457,0.5,0.455958711883658,0.544041288116342,0.5,0.488606097921457,0.477471837852065,0.5,0.544041288116342,0.477471837852065,0.5,0.488606097921457,0.478746516040743,0.544041288116342,0.521091736800851,0.478908263199149,0.544041288116342,0.5,0.279452798754359,0.744578548588412,0.455958711883658,0.0103902978301218,0.5,0.0227878041570855,1.08075179169948,10.3066703325817,2.45688765128987,0.5,69.9584402316006
CBC_1006,CBC_1006_MSI_AV_v3_Vset2_Aset2_2023-06-03_13h33.59.045.csv,3,37,0,1,b,1,0,1,aud,A,63,1,0A,1A,1,0,b,2.58464699999968,1,0,1,1,0A,1A,A01,2.85263142991332,0.554431585946464,0.466591303120569,0.488606097921457,0.5,0.455958711883658,0.544041288116342,0.5,0.488606097921457,0.477471837852065,0.5,0.554431585946464,0.477471837852065,0.5,0.488606097921457,0.478746516040743,0.544041288116342,0.543015824506226,0.456984175493774,0.554431585946464,0.466591303120569,0.250458966132966,0.897923810409843,0.445568414053536,0.0101535257580352,0.5,0.0227878041570855,1.08075179169948,10.3066703325817,2.45688765128987,0.5,69.9584402316006
CBC_1006,CBC_1006_MSI_AV_v3_Vset2_Aset2_2023-06-03_13h33.59.045.csv,3,38,1,3,z,0,1,3,aud,D,27,1,1D,3D,0,1,z,2.01898309999888,0,1,1,1,3D,1D,D13,3.27714473299218,0.564585111704499,0.466591303120569,0.488606097921457,0.5,0.455958711883658,0.544041288116342,0.5,0.488606097921457,0.477471837852065,0.5,0.554431585946464,0.477471837852065,0.5,0.488606097921457,0.478746516040743,0.544041288116342,0.526841296915294,0.473158703084706,0.544041288116342,0.488606097921457,0.410223001167022,0.795356679513598,0.455958711883658,0.0103902978301218,0.5,0.0227878041570855,1.08075179169948,10.3066703325817,2.45688765128987,0.5,69.9584402316006
CBC_1006,CBC_1006_MSI_AV_v3_Vset2_Aset2_2023-06-03_13h33.59.045.csv,3,39,1,0,b,1,0,2,aud,B,63,1,1B,0B,1,0,b,2.04436519999945,1,0,1,1,1B,0B,B10,3.29583686600433,0.564585111704499,0.466591303120569,0.488606097921457,0.5,0.455958711883658,0.544041288116342,0.5,0.488606097921457,0.477471837852065,0.5,0.554431585946464,0.477471837852065,0.5,0.488606097921457,0.478746516040743,0.554431585946464,0.544041288116342,0.455958711883658,0.544041288116342,0.455958711883658,0.48266711187831,0.902818588196308,0.455958711883658,0.0103902978301218,0.5,0.0227878041570855,1.08075179169948,10.3066703325817,2.45688765128987,0.5,69.9584402316006
CBC_1006,CBC_1006_MSI_AV_v3_Vset2_Aset2_2023-06-03_13h33.59.045.csv,3,40,3,2,z,0,1,0,aud,C,63,0,3C,2C,NaN,NaN,[],NaN,NaN,NaN,NaN,NaN,,,C32,2.90872089656436,0.564585111704499,0.466591303120569,0.488606097921457,0.5,0.455958711883658,0.554431585946464,0.5,0.488606097921457,0.477471837852065,0.5,0.554431585946464,0.477471837852065,0.5,0.488606097921457,0.478746516040743,0.554431585946464,0,0,0,0,NaN,0,0,0,0.5,0.0227878041570855,1.08075179169948,10.3066703325817,2.45688765128987,0.5,69.9584402316006
CBC_1006,CBC_1006_MSI_AV_v3_Vset2_Aset2_2023-06-03_13h33.59.045.csv,3,41,0,2,b,1,0,1,aud,A,27,1,0A,2A,1,0,b,1.24754770000072,1,0,1,1,0A,2A,A02,3.3322045101752,0.564585111704499,0.466591303120569,0.488606097921457,0.5,0.455958711883658,0.554431585946464,0.5,0.488606097921457,0.477471837852065,0.5,0.554431585946464,0.477471837852065,0.5,0.488606097921457,0.478746516040743,0.554431585946464,0.536070854507999,0.463929145492001,0.564585111704499,0.488606097921457,0.185829104939269,0.861435270163704,0.435414888295501,0.00992214920155713,0.5,0.0227878041570855,1.08075179169948,10.3066703325817,2.45688765128987,0.5,69.9584402316006
CBC_1006,CBC_1006_MSI_AV_v3_Vset2_Aset2_2023-06-03_13h33.59.045.csv,3,42,2,3,z,0,1,3,aud,D,63,1,2D,3D,0,1,z,1.6744278999995,0,1,1,1,3D,2D,D23,4.04305126783455,0.574507260906056,0.466591303120569,0.488606097921457,0.5,0.455958711883658,0.554431585946464,0.5,0.488606097921457,0.477471837852065,0.5,0.554431585946464,0.477471837852065,0.5,0.488606097921457,0.478746516040743,0.554431585946464,0.536627310315689,0.463372689684311,0.554431585946464,0.478746516040743,0.640453824196122,0.8640739219893,0.445568414053536,0.0101535257580352,0.5,0.0227878041570855,1.08075179169948,10.3066703325817,2.45688765128987,0.5,69.9584402316006
CBC_1006,CBC_1006_MSI_AV_v3_Vset2_Aset2_2023-06-03_13h33.59.045.csv,3,43,1,3,b,1,0,2,aud,B,27,1,1B,3B,1,0,b,1.88403219999964,1,0,1,1,1B,3B,B13,3.36729582998647,0.574507260906056,0.466591303120569,0.488606097921457,0.5,0.455958711883658,0.554431585946464,0.5,0.488606097921457,0.477471837852065,0.5,0.554431585946464,0.477471837852065,0.5,0.488606097921457,0.478746516040743,0.564585111704499,0.531554702693437,0.468445297306563,0.554431585946464,0.488606097921457,0.498489840915554,0.831888627519077,0.445568414053536,0.0101535257580352,0.5,0.0227878041570855,1.08075179169948,10.3066703325817,2.45688765128987,0.5,69.9584402316006
CBC_1006,CBC_1006_MSI_AV_v3_Vset2_Aset2_2023-06-03_13h33.59.045.csv,3,44,3,2,z,0,1,0,aud,C,63,1,3C,2C,0,1,z,2.46593779999967,0,1,1,1,2C,3C,C32,2.69124308278583,0.574507260906056,0.466591303120569,0.488606097921457,0.5,0.455958711883658,0.564585111704499,0.5,0.488606097921457,0.477471837852065,0.5,0.554431585946464,0.477471837852065,0.5,0.488606097921457,0.478746516040743,0.564585111704499,0.537290189333369,0.462709810666631,0.554431585946464,0.477471837852065,0.286227141271197,0.868268694065135,0.445568414053536,0.0101535257580352,0.5,0.0227878041570855,1.08075179169948,10.3066703325817,2.45688765128987,0.5,69.9584402316006
CBC_1006,CBC_1006_MSI_TV_v3_Vset5_Tset1_2023-06-03_13h42.16.778.csv,4,1,3,1,z,0,1,2,tac,B,27,1,3B,1B,0,1,b,1.4975114000008,1,0,0,0,3B,1B,B31,2.77258872223978,0.5,0.5,0.5,0.5,0.5,0.5,0.5,0.5,0.5,0.5,0.5,0.5,0.5,0.5,0.5,0.5,0.5,0.5,0.5,0.5,0.209202187047174,0.499516956243609,-0.5,-0.0309286273573842,0.5,0.0618572547147684,1.09335981518069,1.45975886054562,2.7372030743927,0.5,79.1311607386533
CBC_1006,CBC_1006_MSI_TV_v3_Vset5_Tset1_2023-06-03_13h42.16.778.csv,4,2,2,3,b,1,0,0,tac,C,63,1,2C,3C,1,0,b,3.30253360000097,1,0,1,1,2C,3C,C23,2.83321334405622,0.5,0.5,0.5,0.5,0.5,0.5,0.5,0.469071372642616,0.5,0.5,0.5,0.5,0.5,0.5,0.5,0.5,0.5,0.5,0.5,0.5,0.0978638911090956,0.500033925533181,0.5,0.0309286273573842,0.5,0.0618572547147684,1.09335981518069,1.45975886054562,2.7372030743927,0.5,79.1311607386533
CBC_1006,CBC_1006_MSI_TV_v3_Vset5_Tset1_2023-06-03_13h42.16.778.csv,4,3,2,3,z,0,1,3,tac,D,63,1,2D,3D,0,1,z,1.85533820000092,0,1,1,1,3D,2D,D23,2.89037175789616,0.5,0.5,0.5,0.5,0.5,0.5,0.5,0.469071372642616,0.5,0.5,0.530928627357384,0.5,0.5,0.5,0.5,0.5,0.5,0.5,0.5,0.5,0.240183973512807,0.500143965671809,0.5,0.0309286273573842,0.5,0.0618572547147684,1.09335981518069,1.45975886054562,2.7372030743927,0.5,79.1311607386533
CBC_1006,CBC_1006_MSI_TV_v3_Vset5_Tset1_2023-06-03_13h42.16.778.csv,4,4,1,0,b,1,0,2,tac,B,63,1,1B,0B,1,0,b,2.96817100000226,1,0,1,1,1B,0B,B10,2.94443897916644,0.5,0.5,0.5,0.5,0.5,0.5,0.5,0.469071372642616,0.5,0.5,0.530928627357384,0.5,0.5,0.5,0.5,0.530928627357384,0.5,0.5,0.5,0.5,0.121757077630389,0.499209133059195,0.5,0.0309286273573842,0.5,0.0618572547147684,1.09335981518069,1.45975886054562,2.7372030743927,0.5,79.1311607386533
CBC_1006,CBC_1006_MSI_TV_v3_Vset5_Tset1_2023-06-03_13h42.16.778.csv,4,5,3,0,z,0,1,1,tac,A,9,1,3A,0A,0,1,z,3.07550840000113,0,1,1,1,0A,3A,A30,2.99573227355399,0.5,0.5,0.5,0.5,0.5,0.530928627357384,0.5,0.469071372642616,0.5,0.5,0.530928627357384,0.5,0.5,0.5,0.5,0.530928627357384,0.5,0.5,0.5,0.5,0.113576035020692,0.499746649799114,0.5,0.0309286273573842,0.5,0.0618572547147684,1.09335981518069,1.45975886054562,2.7372030743927,0.5,79.1311607386533
CBC_1006,CBC_1006_MSI_TV_v3_Vset5_Tset1_2023-06-03_13h42.16.778.csv,4,6,2,3,z,0,1,3,tac,D,63,1,2D,3D,0,1,b,3.02280150000115,1,0,0,0,2D,3D,D23,2.35137525716348,0.530928627357384,0.5,0.5,0.5,0.5,0.530928627357384,0.5,0.469071372642616,0.5,0.5,0.530928627357384,0.5,0.5,0.5,0.5,0.530928627357384,0.484999627260005,0.515000372739995,0.5,0.530928627357384,0.110632529005938,0.470224349922283,-0.5,-0.0309286273573842,0.5,0.0618572547147684,1.09335981518069,1.45975886054562,2.7372030743927,0.5,79.1311607386533
CBC_1006,CBC_1006_MSI_TV_v3_Vset5_Tset1_2023-06-03_13h42.16.778.csv,4,7,2,0,b,1,0,0,tac,C,27,1,2C,0C,1,0,b,2.74667440000121,1,0,1,1,2C,0C,C20,3.09104245335832,0.530928627357384,0.5,0.5,0.5,0.5,0.530928627357384,0.5,0.469071372642616,0.5,0.5,0.530928627357384,0.5,0.5,0.5,0.469071372642616,0.530928627357384,0.515000372739995,0.484999627260005,0.530928627357384,0.5,0.149455087369097,0.529661695890619,0.469071372642616,0.0290154673769603,0.5,0.0618572547147684,1.09335981518069,1.45975886054562,2.7372030743927,0.5,79.1311607386533
CBC_1006,CBC_1006_MSI_TV_v3_Vset5_Tset1_2023-06-03_13h42.16.778.csv,4,8,1,0,z,0,1,1,tac,A,63,1,1A,0A,0,1,b,3.06001200000173,1,0,0,0,1A,0A,A10,3.13549421592915,0.530928627357384,0.5,0.5,0.5,0.5,0.530928627357384,0.5,0.469071372642616,0.5,0.5,0.559944094734345,0.5,0.5,0.5,0.469071372642616,0.530928627357384,0.484999627260005,0.515000372739995,0.5,0.530928627357384,0.107830932000232,0.469696673194075,-0.5,-0.0309286273573842,0.5,0.0618572547147684,1.09335981518069,1.45975886054562,2.7372030743927,0.5,79.1311607386533
CBC_1006,CBC_1006_MSI_TV_v3_Vset5_Tset1_2023-06-03_13h42.16.778.csv,4,9,0,1,z,0,1,2,tac,B,63,1,0B,1B,0,1,z,3.02098420000038,0,1,1,1,1B,0B,B01,3.17805383034795,0.530928627357384,0.469071372642616,0.5,0.5,0.5,0.530928627357384,0.5,0.469071372642616,0.5,0.5,0.559944094734345,0.5,0.5,0.5,0.469071372642616,0.530928627357384,0.515000372739995,0.484999627260005,0.530928627357384,0.5,0.124642752422559,0.529137093682517,0.469071372642616,0.0290154673769603,0.5,0.0618572547147684,1.09335981518069,1.45975886054562,2.7372030743927,0.5,79.1311607386533
CBC_1006,CBC_1006_MSI_TV_v3_Vset5_Tset1_2023-06-03_13h42.16.778.csv,4,10,3,1,b,1,0,3,tac,D,27,1,3D,1D,1,0,b,2.76567070000056,1,0,1,1,3D,1D,D31,3.2188758248682,0.530928627357384,0.469071372642616,0.5,0.5,0.5,0.559944094734345,0.5,0.469071372642616,0.5,0.5,0.559944094734345,0.5,0.5,0.5,0.469071372642616,0.530928627357384,0.515000372739995,0.484999627260005,0.530928627357384,0.5,0.14757780533766,0.529578761032696,0.469071372642616,0.0290154673769603,0.5,0.0618572547147684,1.09335981518069,1.45975886054562,2.7372030743927,0.5,79.1311607386533
CBC_1006,CBC_1006_MSI_TV_v3_Vset5_Tset1_2023-06-03_13h42.16.778.csv,4,11,2,3,b,1,0,0,tac,C,63,1,2C,3C,1,0,b,3.86936760000208,1,0,1,1,2C,3C,C23,2.56494935746154,0.530928627357384,0.469071372642616,0.5,0.5,0.5,0.559944094734345,0.5,0.469071372642616,0.5,0.5,0.559944094734345,0.5,0.5,0.5,0.469071372642616,0.559944094734345,0.528277007736605,0.471722992263395,0.559944094734345,0.5,0.074730228294414,0.55635451412848,0.440055905265655,0.0272206502207557,0.5,0.0618572547147684,1.09335981518069,1.45975886054562,2.7372030743927,0.5,79.1311607386533
CBC_1006,CBC_1006_MSI_TV_v3_Vset5_Tset1_2023-06-03_13h42.16.778.csv,4,12,0,1,z,0,1,2,tac,B,63,1,0B,1B,0,1,b,2.85141400000066,1,0,0,0,0B,1B,B01,2.60268968544438,0.530928627357384,0.469071372642616,0.5,0.5,0.5,0.559944094734345,0.5,0.469071372642616,0.5,0.5,0.5871647449551,0.5,0.5,0.5,0.469071372642616,0.559944094734345,0.471722992263395,0.528277007736605,0.5,0.559944094734345,0.117011446261739,0.444133044327183,-0.5,-0.0309286273573842,0.5,0.0618572547147684,1.09335981518069,1.45975886054562,2.7372030743927,0.5,79.1311607386533
CBC_1006,CBC_1006_MSI_TV_v3_Vset5_Tset1_2023-06-03_13h42.16.778.csv,4,13,1,0,z,0,1,1,tac,A,63,1,1A,0A,NaN,NaN,None,NaN,NaN,NaN,NaN,NaN,,,A10,2.63905732961526,0.530928627357384,0.469071372642616,0.5,0.5,0.469071372642616,0.559944094734345,0.5,0.469071372642616,0.5,0.5,0.5871647449551,0.5,0.5,0.5,0.469071372642616,0.559944094734345,0,0,0,0,NaN,0,0,0,0.5,0.0618572547147684,1.09335981518069,1.45975886054562,2.7372030743927,0.5,79.1311607386533
CBC_1006,CBC_1006_MSI_TV_v3_Vset5_Tset1_2023-06-03_13h42.16.778.csv,4,14,2,1,b,1,0,0,tac,C,9,1,2C,1C,1,0,b,1.84193800000139,1,0,1,1,2C,1C,C21,3.36729582998647,0.530928627357384,0.469071372642616,0.5,0.5,0.469071372642616,0.559944094734345,0.5,0.469071372642616,0.5,0.5,0.5871647449551,0.5,0.5,0.5,0.469071372642616,0.559944094734345,0.54008810318748,0.45991189681252,0.5871647449551,0.5,0.281804234829492,0.57962251843839,0.4128352550449,0.0255368555265488,0.5,0.0618572547147684,1.09335981518069,1.45975886054562,2.7372030743927,0.5,79.1311607386533
CBC_1006,CBC_1006_MSI_TV_v3_Vset5_Tset1_2023-06-03_13h42.16.778.csv,4,15,0,1,b,1,0,1,tac,A,63,1,0A,1A,1,0,z,2.63349080000262,0,1,0,0,1A,0A,A01,3.40119738166216,0.530928627357384,0.469071372642616,0.5,0.5,0.469071372642616,0.559944094734345,0.5,0.469071372642616,0.5,0.5,0.612701600481649,0.5,0.5,0.5,0.469071372642616,0.559944094734345,0.469071372642616,0.530928627357384,0.469071372642616,0.530928627357384,0.133502885943499,0.438825249677911,-0.469071372642616,-0.0290154673769603,0.5,0.0618572547147684,1.09335981518069,1.45975886054562,2.7372030743927,0.5,79.1311607386533
CBC_1006,CBC_1006_MSI_TV_v3_Vset5_Tset1_2023-06-03_13h42.16.778.csv,4,16,1,3,z,0,1,3,tac,D,27,1,1D,3D,0,1,z,2.30858290000106,0,1,1,1,3D,1D,D13,3.43398720448515,0.530928627357384,0.440055905265655,0.5,0.5,0.469071372642616,0.559944094734345,0.5,0.469071372642616,0.5,0.5,0.612701600481649,0.5,0.5,0.5,0.469071372642616,0.559944094734345,0.528277007736605,0.471722992263395,0.559944094734345,0.5,0.208888955349583,0.556112854745127,0.440055905265655,0.0272206502207557,0.5,0.0618572547147684,1.09335981518069,1.45975886054562,2.7372030743927,0.5,79.1311607386533
CBC_1006,CBC_1006_MSI_TV_v3_Vset5_Tset1_2023-06-03_13h42.16.778.csv,4,17,1,0,b,1,0,2,tac,B,63,1,1B,0B,1,0,b,2.55718190000152,1,0,1,1,1B,0B,B10,2.77258872223978,0.530928627357384,0.440055905265655,0.5,0.5,0.469071372642616,0.559944094734345,0.5,0.469071372642616,0.5,0.5,0.612701600481649,0.5,0.5,0.5,0.469071372642616,0.5871647449551,0.544155177921363,0.455844822078637,0.559944094734345,0.469071372642616,0.188465925765405,0.588170987030916,0.440055905265655,0.0272206502207557,0.5,0.0618572547147684,1.09335981518069,1.45975886054562,2.7372030743927,0.5,79.1311607386533
CBC_1006,CBC_1006_MSI_TV_v3_Vset5_Tset1_2023-06-03_13h42.16.778.csv,4,18,3,2,z,0,1,0,tac,C,63,0,3C,2C,1,0,z,2.48217410000143,0,1,1,0,2C,3C,C32,3.49650756146648,0.530928627357384,0.440055905265655,0.5,0.5,0.469071372642616,0.5871647449551,0.5,0.469071372642616,0.5,0.5,0.612701600481649,0.5,0.5,0.5,0.469071372642616,0.5871647449551,0.550643227453283,0.449356772546717,0.612701600481649,0.5,0.202086403968629,0.599618945453546,-0.612701600481649,-0.0379000389651397,0.5,0.0618572547147684,1.09335981518069,1.45975886054562,2.7372030743927,0.5,79.1311607386533
CBC_1006,CBC_1006_MSI_TV_v3_Vset5_Tset1_2023-06-03_13h42.16.778.csv,4,19,0,2,b,1,0,1,tac,A,27,1,0A,2A,1,0,b,2.84020030000102,1,0,1,1,0A,2A,A02,3.52636052461616,0.530928627357384,0.440055905265655,0.5,0.5,0.469071372642616,0.5871647449551,0.5,0.469071372642616,0.5,0.5,0.574801561516509,0.5,0.5,0.5,0.469071372642616,0.5871647449551,0.515000372739995,0.484999627260005,0.530928627357384,0.5,0.140598527182935,0.529877650440024,0.469071372642616,0.0290154673769603,0.5,0.0618572547147684,1.09335981518069,1.45975886054562,2.7372030743927,0.5,79.1311607386533
CBC_1006,CBC_1006_MSI_TV_v3_Vset5_Tset1_2023-06-03_13h42.16.778.csv,4,20,2,3,z,0,1,3,tac,D,63,1,2D,3D,0,1,b,3.75715370000216,1,0,0,0,2D,3D,D23,2.4567357728213,0.559944094734345,0.440055905265655,0.5,0.5,0.469071372642616,0.5871647449551,0.5,0.469071372642616,0.5,0.5,0.574801561516509,0.5,0.5,0.5,0.469071372642616,0.5871647449551,0.444097077185225,0.555902922814774,0.469071372642616,0.5871647449551,0.0561523047106412,0.391155750627624,-0.469071372642616,-0.0290154673769603,0.5,0.0618572547147684,1.09335981518069,1.45975886054562,2.7372030743927,0.5,79.1311607386533
CBC_1006,CBC_1006_MSI_TV_v3_Vset5_Tset1_2023-06-03_13h42.16.778.csv,4,21,1,3,b,1,0,2,tac,B,27,1,1B,3B,1,0,b,2.4578655000023,1,0,1,1,1B,3B,B13,3.58351893845611,0.559944094734345,0.440055905265655,0.5,0.5,0.469071372642616,0.5871647449551,0.5,0.469071372642616,0.5,0.5,0.574801561516509,0.5,0.5,0.5,0.440055905265655,0.5871647449551,0.555902922814774,0.444097077185225,0.5871647449551,0.469071372642616,0.208657841605631,0.608663247790613,0.4128352550449,0.0255368555265488,0.5,0.0618572547147684,1.09335981518069,1.45975886054562,2.7372030743927,0.5,79.1311607386533
CBC_1006,CBC_1006_MSI_TV_v3_Vset5_Tset1_2023-06-03_13h42.16.778.csv,4,22,2,3,b,1,0,0,tac,C,63,1,2C,3C,1,0,z,1.93028370000138,0,1,0,0,3C,2C,C23,2.51230562397611,0.559944094734345,0.440055905265655,0.5,0.5,0.469071372642616,0.612701600481649,0.5,0.469071372642616,0.5,0.5,0.574801561516509,0.5,0.5,0.5,0.440055905265655,0.5871647449551,0.465202152567137,0.534797847432863,0.5,0.574801561516509,0.201427146348276,0.430258254169802,-0.5,-0.0309286273573842,0.5,0.0618572547147684,1.09335981518069,1.45975886054562,2.7372030743927,0.5,79.1311607386533
CBC_1006,CBC_1006_MSI_TV_v3_Vset5_Tset1_2023-06-03_13h42.16.778.csv,4,23,1,0,z,0,1,1,tac,A,63,1,1A,0A,NaN,NaN,None,NaN,NaN,NaN,NaN,NaN,,,A10,2.53897387105828,0.559944094734345,0.440055905265655,0.5,0.5,0.469071372642616,0.612701600481649,0.5,0.469071372642616,0.5,0.5,0.574801561516509,0.469071372642616,0.5,0.5,0.440055905265655,0.5871647449551,0,0,0,0,NaN,0,0,0,0.5,0.0618572547147684,1.09335981518069,1.45975886054562,2.7372030743927,0.5,79.1311607386533
CBC_1006,CBC_1006_MSI_TV_v3_Vset5_Tset1_2023-06-03_13h42.16.778.csv,4,24,1,2,b,1,0,2,tac,B,9,1,1B,2B,1,0,b,2.279731300001,1,0,1,1,1B,2B,B12,3.66356164612965,0.559944094734345,0.440055905265655,0.5,0.5,0.469071372642616,0.612701600481649,0.5,0.469071372642616,0.5,0.5,0.574801561516509,0.469071372642616,0.5,0.5,0.440055905265655,0.5871647449551,0.550643227453283,0.449356772546717,0.612701600481649,0.5,0.230632916731484,0.599837757650625,0.387298399518351,0.0239572157496288,0.5,0.0618572547147684,1.09335981518069,1.45975886054562,2.7372030743927,0.5,79.1311607386533
CBC_1006,CBC_1006_MSI_TV_v3_Vset5_Tset1_2023-06-03_13h42.16.778.csv,4,25,3,2,z,0,1,0,tac,C,63,1,3C,2C,0,1,b,2.68199760000243,1,0,0,0,3C,2C,C32,2.99573227355399,0.559944094734345,0.440055905265655,0.5,0.5,0.469071372642616,0.636658816231278,0.5,0.469071372642616,0.5,0.5,0.574801561516509,0.469071372642616,0.5,0.5,0.440055905265655,0.5871647449551,0.449356772546717,0.550643227453283,0.469071372642616,0.574801561516509,0.117630454130051,0.398426749059624,-0.469071372642616,-0.0290154673769603,0.5,0.0618572547147684,1.09335981518069,1.45975886054562,2.7372030743927,0.5,79.1311607386533
CBC_1006,CBC_1006_MSI_TV_v3_Vset5_Tset1_2023-06-03_13h42.16.778.csv,4,26,3,2,b,1,0,3,tac,D,63,1,3D,2D,1,0,z,2.51034710000022,0,1,0,0,2D,3D,D32,3.71357206670431,0.559944094734345,0.440055905265655,0.5,0.5,0.469071372642616,0.636658816231278,0.5,0.469071372642616,0.5,0.5,0.574801561516509,0.440055905265655,0.5,0.5,0.440055905265655,0.5871647449551,0.428394722371561,0.571605277628439,0.440055905265655,0.5871647449551,0.11971935569264,0.360205651840298,-0.440055905265655,-0.0272206502207557,0.5,0.0618572547147684,1.09335981518069,1.45975886054562,2.7372030743927,0.5,79.1311607386533
CBC_1006,CBC_1006_MSI_TV_v3_Vset5_Tset1_2023-06-03_13h42.16.778.csv,4,27,1,0,b,1,0,2,tac,B,63,1,1B,0B,1,0,z,2.71202769999945,0,1,0,0,0B,1B,B10,2.63905732961526,0.559944094734345,0.440055905265655,0.5,0.5,0.469071372642616,0.636658816231278,0.5,0.469071372642616,0.5,0.5,0.574801561516509,0.440055905265655,0.5,0.5,0.4128352550449,0.5871647449551,0.424218654209243,0.575781345790756,0.469071372642616,0.636658816231278,0.102618439170179,0.353626739536947,-0.469071372642616,-0.0290154673769603,0.5,0.0618572547147684,1.09335981518069,1.45975886054562,2.7372030743927,0.5,79.1311607386533
CBC_1006,CBC_1006_MSI_TV_v3_Vset5_Tset1_2023-06-03_13h42.16.778.csv,4,28,2,0,z,0,1,1,tac,A,27,1,2A,0A,0,1,b,3.07216510000035,1,0,0,0,2A,0A,A20,3.76120011569356,0.559944094734345,0.440055905265655,0.5,0.5,0.440055905265655,0.636658816231278,0.5,0.469071372642616,0.5,0.5,0.574801561516509,0.440055905265655,0.5,0.5,0.4128352550449,0.5871647449551,0.471722992263395,0.528277007736605,0.5,0.559944094734345,0.101095953481054,0.444019458476886,-0.5,-0.0309286273573842,0.5,0.0618572547147684,1.09335981518069,1.45975886054562,2.7372030743927,0.5,79.1311607386533
CBC_1006,CBC_1006_MSI_TV_v3_Vset5_Tset1_2023-06-03_13h42.16.778.csv,4,29,3,1,b,1,0,3,tac,D,27,1,3D,1D,1,0,b,2.57658980000087,1,0,1,1,3D,1D,D31,3.09104245335832,0.559944094734345,0.440055905265655,0.469071372642616,0.5,0.440055905265655,0.636658816231278,0.5,0.469071372642616,0.5,0.5,0.574801561516509,0.440055905265655,0.5,0.5,0.4128352550449,0.5871647449551,0.54008810318748,0.45991189681252,0.5871647449551,0.5,0.183448287594779,0.580217545905154,0.4128352550449,0.0255368555265488,0.5,0.0618572547147684,1.09335981518069,1.45975886054562,2.7372030743927,0.5,79.1311607386533
CBC_1006,CBC_1006_MSI_TV_v3_Vset5_Tset1_2023-06-03_13h42.16.778.csv,4,30,0,1,b,1,0,1,tac,A,63,1,0A,1A,1,0,z,2.57471190000069,0,1,0,0,1A,0A,A01,3.11351530921037,0.559944094734345,0.440055905265655,0.469071372642616,0.5,0.440055905265655,0.636658816231278,0.5,0.469071372642616,0.5,0.5,0.574801561516509,0.440055905265655,0.5,0.5,0.4128352550449,0.612701600481649,0.440055905265655,0.559944094734345,0.440055905265655,0.559944094734345,0.121499107538332,0.382645264070776,-0.440055905265655,-0.0272206502207557,0.5,0.0618572547147684,1.09335981518069,1.45975886054562,2.7372030743927,0.5,79.1311607386533
CBC_1006,CBC_1006_MSI_TV_v3_Vset5_Tset1_2023-06-03_13h42.16.778.csv,4,31,0,2,z,0,1,0,tac,C,27,1,0C,2C,0,1,z,2.95814500000051,0,1,1,1,2C,0C,C02,3.8286413964891,0.559944094734345,0.4128352550449,0.469071372642616,0.5,0.440055905265655,0.636658816231278,0.5,0.469071372642616,0.5,0.5,0.574801561516509,0.440055905265655,0.5,0.5,0.4128352550449,0.612701600481649,0.534797847432863,0.465202152567137,0.574801561516509,0.5,0.139691556861606,0.568969550078109,0.425198438483491,0.0263016081135951,0.5,0.0618572547147684,1.09335981518069,1.45975886054562,2.7372030743927,0.5,79.1311607386533
CBC_1006,CBC_1006_MSI_TV_v3_Vset5_Tset1_2023-06-03_13h42.16.778.csv,4,32,3,2,b,1,0,3,tac,D,63,1,3D,2D,1,0,b,3.23682470000131,1,0,1,1,3D,2D,D32,3.15700042115011,0.559944094734345,0.4128352550449,0.469071372642616,0.5,0.440055905265655,0.636658816231278,0.5,0.469071372642616,0.5,0.5,0.601103169630104,0.440055905265655,0.5,0.5,0.4128352550449,0.612701600481649,0.59744474045944,0.40255525954056,0.612701600481649,0.4128352550449,0.138308744801132,0.685476864440318,0.387298399518351,0.0239572157496288,0.5,0.0618572547147684,1.09335981518069,1.45975886054562,2.7372030743927,0.5,79.1311607386533
CBC_1006,CBC_1006_MSI_TV_v3_Vset5_Tset1_2023-06-03_13h42.16.778.csv,4,33,0,1,z,0,1,2,tac,B,63,1,0B,1B,0,1,z,2.2572218000023,0,1,1,1,1B,0B,B01,2.77258872223978,0.559944094734345,0.4128352550449,0.469071372642616,0.5,0.440055905265655,0.636658816231278,0.5,0.469071372642616,0.5,0.5,0.601103169630104,0.440055905265655,0.5,0.5,0.4128352550449,0.636658816231278,0.591297586556767,0.408702413443233,0.636658816231278,0.440055905265655,0.267182415590304,0.674137654223831,0.363341183768722,0.0224752881527473,0.5,0.0618572547147684,1.09335981518069,1.45975886054562,2.7372030743927,0.5,79.1311607386533
CBC_1006,CBC_1006_MSI_TV_v3_Vset5_Tset1_2023-06-03_13h42.16.778.csv,4,34,1,0,z,0,1,1,tac,A,63,1,1A,0A,0,1,b,2.89667449999979,1,0,0,0,1A,0A,A10,2.50552593699074,0.559944094734345,0.4128352550449,0.469071372642616,0.5,0.440055905265655,0.659134104384025,0.5,0.469071372642616,0.5,0.5,0.601103169630104,0.440055905265655,0.5,0.5,0.4128352550449,0.636658816231278,0.424387354787687,0.575612645212313,0.4128352550449,0.559944094734345,0.090647411449005,0.354226456104589,-0.4128352550449,-0.0255368555265488,0.5,0.0618572547147684,1.09335981518069,1.45975886054562,2.7372030743927,0.5,79.1311607386533
CBC_1006,CBC_1006_MSI_TV_v3_Vset5_Tset1_2023-06-03_13h42.16.778.csv,4,35,3,2,b,1,0,3,tac,D,63,0,3D,2D,0,1,b,2.31052110000201,1,0,1,0,3D,2D,D32,2.81341071676004,0.559944094734345,0.387298399518351,0.469071372642616,0.5,0.440055905265655,0.659134104384025,0.5,0.469071372642616,0.5,0.5,0.601103169630104,0.440055905265655,0.5,0.5,0.4128352550449,0.636658816231278,0.606634028391514,0.393365971608487,0.636658816231278,0.4128352550449,0.270200820324349,0.701063174512951,-0.636658816231278,-0.0393819665620211,0.5,0.0618572547147684,1.09335981518069,1.45975886054562,2.7372030743927,0.5,79.1311607386533
CBC_1006,CBC_1006_MSI_TV_v3_Vset5_Tset1_2023-06-03_13h42.16.778.csv,4,36,0,2,z,0,1,0,tac,C,27,1,0C,2C,0,1,b,2.57669669999996,1,0,0,0,0C,2C,C02,3.23867845216438,0.559944094734345,0.387298399518351,0.469071372642616,0.5,0.440055905265655,0.659134104384025,0.5,0.469071372642616,0.5,0.5,0.601103169630104,0.440055905265655,0.5,0.5,0.4128352550449,0.597276849669257,0.454090056037134,0.545909943962866,0.5,0.601103169630104,0.12937240430744,0.408898429566477,-0.5,-0.0309286273573842,0.5,0.0618572547147684,1.09335981518069,1.45975886054562,2.7372030743927,0.5,79.1311607386533
CBC_1006,CBC_1006_MSI_TV_v3_Vset5_Tset1_2023-06-03_13h42.16.778.csv,4,37,1,0,z,0,1,1,tac,A,63,1,1A,0A,0,1,b,2.46073200000137,1,0,0,0,1A,0A,A10,2.34180580614733,0.559944094734345,0.387298399518351,0.469071372642616,0.5,0.440055905265655,0.659134104384025,0.5,0.469071372642616,0.469071372642616,0.5,0.601103169630104,0.440055905265655,0.5,0.5,0.4128352550449,0.597276849669257,0.408869325297638,0.591130674702362,0.387298399518351,0.559944094734345,0.11257970144599,0.325725581655384,-0.387298399518351,-0.0239572157496288,0.5,0.0618572547147684,1.09335981518069,1.45975886054562,2.7372030743927,0.5,79.1311607386533
CBC_1006,CBC_1006_MSI_TV_v3_Vset5_Tset1_2023-06-03_13h42.16.778.csv,4,38,3,1,z,0,1,2,tac,B,27,1,3B,1B,0,1,z,2.31300270000247,0,1,1,1,1B,3B,B31,3.27714473299218,0.559944094734345,0.363341183768722,0.469071372642616,0.5,0.440055905265655,0.659134104384025,0.5,0.469071372642616,0.469071372642616,0.5,0.601103169630104,0.440055905265655,0.5,0.5,0.4128352550449,0.597276849669257,0.584232320978584,0.415767679021416,0.659134104384025,0.469071372642616,0.25221734587529,0.662306455862871,0.340865895615975,0.021085028528695,0.5,0.0618572547147684,1.09335981518069,1.45975886054562,2.7372030743927,0.5,79.1311607386533
CBC_1006,CBC_1006_MSI_TV_v3_Vset5_Tset1_2023-06-03_13h42.16.778.csv,4,39,2,3,b,1,0,0,tac,C,63,1,2C,3C,1,0,b,2.03949410000132,1,0,1,1,2C,3C,C23,2.60268968544438,0.559944094734345,0.363341183768722,0.469071372642616,0.5,0.440055905265655,0.68021913291272,0.5,0.469071372642616,0.469071372642616,0.5,0.601103169630104,0.440055905265655,0.5,0.5,0.4128352550449,0.597276849669257,0.577340373938811,0.422659626061189,0.601103169630104,0.440055905265655,0.293531035803693,0.65104837188743,0.398896830369896,0.0246746628411044,0.5,0.0618572547147684,1.09335981518069,1.45975886054562,2.7372030743927,0.5,79.1311607386533
CBC_1006,CBC_1006_MSI_TV_v3_Vset5_Tset1_2023-06-03_13h42.16.778.csv,4,40,2,3,z,0,1,3,tac,D,63,1,2D,3D,0,1,z,2.56399330000204,0,1,1,1,3D,2D,D23,2.62103882411258,0.559944094734345,0.363341183768722,0.469071372642616,0.5,0.440055905265655,0.68021913291272,0.5,0.469071372642616,0.469071372642616,0.5,0.625777832471209,0.440055905265655,0.5,0.5,0.4128352550449,0.597276849669257,0.591297586556767,0.408702413443233,0.597276849669257,0.4128352550449,0.217020708187124,0.673950904887891,0.402723150330743,0.0249113484895428,0.5,0.0618572547147684,1.09335981518069,1.45975886054562,2.7372030743927,0.5,79.1311607386533
CBC_1006,CBC_1006_MSI_TV_v3_Vset5_Tset1_2023-06-03_13h42.16.778.csv,4,41,1,0,b,1,0,2,tac,B,63,1,1B,0B,1,0,b,2.32535920000009,1,0,1,1,1B,0B,B10,2.63905732961526,0.559944094734345,0.363341183768722,0.469071372642616,0.5,0.440055905265655,0.68021913291272,0.5,0.469071372642616,0.469071372642616,0.5,0.625777832471209,0.440055905265655,0.5,0.5,0.4128352550449,0.6221881981588,0.607189404147388,0.392810595852612,0.68021913291272,0.440055905265655,0.26828405453225,0.702811846032778,0.31978086708728,0.0197807665483274,0.5,0.0618572547147684,1.09335981518069,1.45975886054562,2.7372030743927,0.5,79.1311607386533
CBC_1006,CBC_1006_MSI_TV_v3_Vset5_Tset1_2023-06-03_13h42.16.778.csv,4,42,0,2,b,1,0,1,tac,A,27,1,0A,2A,1,0,z,2.86834500000077,0,1,0,0,2A,0A,A02,3.3499040872746,0.559944094734345,0.363341183768722,0.469071372642616,0.5,0.440055905265655,0.699999899461048,0.5,0.469071372642616,0.469071372642616,0.5,0.625777832471209,0.440055905265655,0.5,0.5,0.4128352550449,0.6221881981588,0.455844822078637,0.544155177921363,0.469071372642616,0.559944094734345,0.107386899693685,0.412009305727663,-0.469071372642616,-0.0290154673769603,0.5,0.0618572547147684,1.09335981518069,1.45975886054562,2.7372030743927,0.5,79.1311607386533
CBC_1006,CBC_1006_MSI_TV_v3_Vset5_Tset1_2023-06-03_13h42.16.778.csv,4,43,0,3,z,0,1,3,tac,D,9,1,0D,3D,0,1,b,2.44963540000026,1,0,0,0,0D,3D,D03,4.06044301054642,0.559944094734345,0.363341183768722,0.440055905265655,0.5,0.440055905265655,0.699999899461048,0.5,0.469071372642616,0.469071372642616,0.5,0.625777832471209,0.440055905265655,0.5,0.5,0.4128352550449,0.6221881981588,0.445558063095265,0.554441936904735,0.5,0.6221881981588,0.135463318774133,0.393095702407751,-0.5,-0.0309286273573842,0.5,0.0618572547147684,1.09335981518069,1.45975886054562,2.7372030743927,0.5,79.1311607386533
