ID,session,trialNr,mod2Stim,visStimLeft,visStimRight,correctKey,frequency,rewardAccurate,probFB,stimPairLeft,stimPairRight,leftCorrect,rightCorrect,pCorrectLeft,pCorrectRight,triplet,rt,surprise,0A belief,1A belief,2A belief,3A belief,0B belief,1B belief,2B belief,3B belief,0C belief,1C belief,2C belief,3C belief,0D belief,1D belief,2D belief,3D belief,reactionTime,choice,choiceLeft,choiceRight,chosenPair,otherPair,beliefPair,beliefOtherPair,beliefPairNorm,beliefOtherPairNorm,choiceAccurate,reward,rewardPE,update2,sim_CBCsimpleRW_CBCdriftDiffusionLR_startBelief,sim_CBCsimpleRW_CBCdriftDiffusionLR_alpha1,sim_CBCsimpleRW_CBCdriftDiffusionLR_nonDecisionTime,sim_CBCsimpleRW_CBCdriftDiffusionLR_weight,sim_CBCsimpleRW_CBCdriftDiffusionLR_startingBoundary,sim_CBCsimpleRW_CBCdriftDiffusionLR_startingPoint,lik,corrLik,fitCBCsimpleRW_CBCdriftDiffusionLR_startBelief,fitCBCsimpleRW_CBCdriftDiffusionLR_alpha1,fitCBCsimpleRW_CBCdriftDiffusionLR_nonDecisionTime,fitCBCsimpleRW_CBCdriftDiffusionLR_weight,fitCBCsimpleRW_CBCdriftDiffusionLR_startingBoundary,fitCBCsimpleRW_CBCdriftDiffusionLR_startingPoint,fit_CBCsimpleRW_CBCdriftDiffusionLR_NLL
164,1,1,B,0,1,l,63,1,0.73,0B,1B,0,1,0,1,B01,0.258995000291395,2.77258872223978,0.5,0.5,0.5,0.5,0.5,0.5,0.5,0.5,0.5,0.5,0.5,0.5,0.5,0.5,0.5,0.5,4.69725830828464,1,1,0,0B,1B,0.5,0.5,0.5,0.5,0,0,-0.5,-0.0380192662675348,0.5,0.41808964473495,0.746258308284643,2.03486139347923,3.74798191546504,0.5,0.0485105481605675,0.500240927933235,0.5,0.0760385325350696,0.829129731590347,7.29231848850708,3.23669473905258,0.5,99.7209372183332
164,1,2,A,0,1,a,63,1,0.73,0A,1A,1,0,1,0,A01,1.94732291815334,2.83321334405622,0.5,0.5,0.5,0.5,0.461980733732465,0.5,0.5,0.5,0.5,0.5,0.5,0.5,0.5,0.5,0.5,0.5,3.46525830828464,0,0,1,1A,0A,0.5,0.5,0.5,0.5,0,0,-0.5,-0.0380192662675348,0.5,0.41808964473495,0.746258308284643,2.03486139347923,3.74798191546504,0.5,0.0865994223291482,0.499902542002112,0.5,0.0760385325350696,0.829129731590347,7.29231848850708,3.23669473905258,0.5,99.7209372183332
164,1,3,D,2,3,l,63,1,0.73,2D,3D,0,1,0,1,D23,3.34572808643297,2.89037175789616,0.5,0.461980733732465,0.5,0.5,0.461980733732465,0.5,0.5,0.5,0.5,0.5,0.5,0.5,0.5,0.5,0.5,0.5,3.05725830828464,1,1,0,2D,3D,0.5,0.5,0.5,0.5,0,0,-0.5,-0.0380192662675348,0.5,0.41808964473495,0.746258308284643,2.03486139347923,3.74798191546504,0.5,0.105013829826756,0.50047399856086,0.5,0.0760385325350696,0.829129731590347,7.29231848850708,3.23669473905258,0.5,99.7209372183332
164,1,4,B,2,1,l,9,1,0.73,2B,1B,0,1,0,1,B21,0.542289251436969,2.94443897916644,0.5,0.461980733732465,0.5,0.5,0.461980733732465,0.5,0.5,0.5,0.5,0.5,0.5,0.5,0.5,0.5,0.461980733732465,0.5,6.02725830828464,0,0,1,1B,2B,0.5,0.5,0.5,0.5,1,1,0.5,0.0380192662675348,0.5,0.41808964473495,0.746258308284643,2.03486139347923,3.74798191546504,0.5,0.0259511027937251,0.500705269286106,0.5,0.0760385325350696,0.829129731590347,7.29231848850708,3.23669473905258,0.5,99.7209372183332
164,1,5,A,0,2,a,27,1,0.73,0A,2A,1,0,1,0,A02,2.28855097061895,2.99573227355399,0.5,0.461980733732465,0.5,0.5,0.461980733732465,0.538019266267535,0.5,0.5,0.5,0.5,0.5,0.5,0.5,0.5,0.461980733732465,0.5,1.44225830828464,1,1,0,0A,2A,0.5,0.5,0.5,0.5,1,1,0.5,0.0380192662675348,0.5,0.41808964473495,0.746258308284643,2.03486139347923,3.74798191546504,0.5,0.159171484668576,0.500898073362104,0.5,0.0760385325350696,0.829129731590347,7.29231848850708,3.23669473905258,0.5,99.7209372183332
164,1,6,C,2,3,a,63,0,0.73,2C,3C,1,0,0,1,C23,0.496430401347945,3.04452243772342,0.538019266267535,0.461980733732465,0.5,0.5,0.461980733732465,0.538019266267535,0.5,0.5,0.5,0.5,0.5,0.5,0.5,0.5,0.461980733732465,0.5,4.48025830828464,1,1,0,2C,3C,0.5,0.5,0.5,0.5,1,0,-0.5,-0.0380192662675348,0.5,0.41808964473495,0.746258308284643,2.03486139347923,3.74798191546504,0.5,0.0536495997632337,0.499479642282791,0.5,0.0760385325350696,0.829129731590347,7.29231848850708,3.23669473905258,0.5,99.7209372183332
164,1,7,D,1,3,l,27,1,0.73,1D,3D,0,1,0,1,D13,2.49643906365224,3.09104245335832,0.538019266267535,0.461980733732465,0.5,0.5,0.461980733732465,0.538019266267535,0.5,0.5,0.5,0.5,0.461980733732465,0.5,0.5,0.5,0.461980733732465,0.5,3.29825830828464,1,1,0,1D,3D,0.5,0.5,0.5,0.5,0,0,-0.5,-0.0380192662675348,0.5,0.41808964473495,0.746258308284643,2.03486139347923,3.74798191546504,0.5,0.0935236453205834,0.499095038378158,0.5,0.0760385325350696,0.829129731590347,7.29231848850708,3.23669473905258,0.5,99.7209372183332
164,1,8,A,1,0,l,63,0,0.73,1A,0A,0,1,1,0,A10,2.07768383836853,3.13549421592915,0.538019266267535,0.461980733732465,0.5,0.5,0.461980733732465,0.538019266267535,0.5,0.5,0.5,0.5,0.461980733732465,0.5,0.5,0.461980733732465,0.461980733732465,0.5,1.40725830828464,0,0,1,0A,1A,0.538019266267535,0.461980733732465,0.538019266267535,0.461980733732465,1,0,-0.538019266267535,-0.0409101954825782,0.5,0.41808964473495,0.746258308284643,2.03486139347923,3.74798191546504,0.5,0.342204272796259,0.857465950489894,0.5,0.0760385325350696,0.829129731590347,7.29231848850708,3.23669473905258,0.5,99.7209372183332
164,1,9,C,2,0,a,27,1,0.73,2C,0C,1,0,1,0,C20,3.04435356864039,3.17805383034795,0.497109070784957,0.461980733732465,0.5,0.5,0.461980733732465,0.538019266267535,0.5,0.5,0.5,0.5,0.461980733732465,0.5,0.5,0.461980733732465,0.461980733732465,0.5,2.17625830828464,1,1,0,2C,0C,0.461980733732465,0.5,0.480239070838757,0.519760929161243,1,1,0.538019266267535,0.0409101954825782,0.5,0.41808964473495,0.746258308284643,2.03486139347923,3.74798191546504,0.5,0.092670000130186,0.282839125810182,0.5,0.0760385325350696,0.829129731590347,7.29231848850708,3.23669473905258,0.5,99.7209372183332
164,1,10,D,2,3,l,63,1,0.73,2D,3D,0,1,0,1,D23,0.30188305109866,2.52572864430826,0.497109070784957,0.461980733732465,0.5,0.5,0.461980733732465,0.538019266267535,0.5,0.5,0.5,0.5,0.502890929215043,0.5,0.5,0.461980733732465,0.461980733732465,0.5,1.26325830828464,1,1,0,2D,3D,0.461980733732465,0.5,0.480239070838757,0.519760929161243,0,0,-0.461980733732465,-0.0351283370524914,0.5,0.41808964473495,0.746258308284643,2.03486139347923,3.74798191546504,0.5,0.0681259116984028,0.282501933456176,0.5,0.0760385325350696,0.829129731590347,7.29231848850708,3.23669473905258,0.5,99.7209372183332
164,1,11,B,1,0,a,63,0,0.73,1B,0B,1,0,0,1,B10,0.619823383401644,3.25809653802148,0.497109070784957,0.461980733732465,0.5,0.5,0.461980733732465,0.538019266267535,0.5,0.5,0.5,0.5,0.502890929215043,0.5,0.5,0.461980733732465,0.426852396679974,0.5,1.32225830828464,1,1,0,1B,0B,0.538019266267535,0.461980733732465,0.538019266267535,0.461980733732465,1,0,-0.538019266267535,-0.0409101954825782,0.5,0.41808964473495,0.746258308284643,2.03486139347923,3.74798191546504,0.5,0.297875295016155,0.857495137821928,0.5,0.0760385325350696,0.829129731590347,7.29231848850708,3.23669473905258,0.5,99.7209372183332
164,1,12,A,0,1,a,63,1,0.73,0A,1A,1,0,1,0,A01,3.32945701703271,2.60268968544438,0.497109070784957,0.461980733732465,0.5,0.5,0.461980733732465,0.497109070784957,0.5,0.5,0.5,0.5,0.502890929215043,0.5,0.5,0.461980733732465,0.426852396679974,0.5,2.91125830828464,1,1,0,0A,1A,0.497109070784957,0.461980733732465,0.51831337216131,0.48168662783869,1,1,0.502890929215043,0.0382390882827095,0.5,0.41808964473495,0.746258308284643,2.03486139347923,3.74798191546504,0.5,0.161011492716281,0.704918499481228,0.5,0.0760385325350696,0.829129731590347,7.29231848850708,3.23669473905258,0.5,99.7209372183332
164,1,13,D,2,3,l,63,1,0.73,2D,3D,0,1,0,1,D23,1.77265216927354,2.23359222150709,0.535348159067666,0.461980733732465,0.5,0.5,0.461980733732465,0.497109070784957,0.5,0.5,0.5,0.5,0.502890929215043,0.5,0.5,0.461980733732465,0.426852396679974,0.5,2.62625830828464,0,0,1,3D,2D,0.5,0.426852396679974,0.539460222351501,0.460539777648499,1,1,0.5,0.0380192662675348,0.5,0.41808964473495,0.746258308284643,2.03486139347923,3.74798191546504,0.5,0.241724667833929,0.866027681017038,0.5,0.0760385325350696,0.829129731590347,7.29231848850708,3.23669473905258,0.5,99.7209372183332
164,1,14,C,2,0,a,27,0,0.73,2C,0C,1,0,0,1,C20,1.86522565440445,2.67414864942653,0.535348159067666,0.461980733732465,0.5,0.5,0.461980733732465,0.497109070784957,0.5,0.5,0.5,0.5,0.502890929215043,0.5,0.5,0.461980733732465,0.426852396679974,0.538019266267535,4.05725830828464,1,1,0,2C,0C,0.502890929215043,0.5,0.501441297917265,0.498558702082735,1,0,-0.502890929215043,-0.0382390882827095,0.5,0.41808964473495,0.746258308284643,2.03486139347923,3.74798191546504,0.5,0.0676919093268426,0.516432041815012,0.5,0.0760385325350696,0.829129731590347,7.29231848850708,3.23669473905258,0.5,99.7209372183332
164,1,15,A,0,1,a,63,1,0.73,0A,1A,1,0,1,0,A01,0.384781805820741,2.30258509299405,0.535348159067666,0.461980733732465,0.5,0.5,0.461980733732465,0.497109070784957,0.5,0.5,0.5,0.5,0.464651840932334,0.5,0.5,0.461980733732465,0.426852396679974,0.538019266267535,1.68125830828464,1,1,0,0A,1A,0.535348159067666,0.461980733732465,0.536781961229065,0.463218038770935,1,1,0.464651840932334,0.0353314441242133,0.5,0.41808964473495,0.746258308284643,2.03486139347923,3.74798191546504,0.5,0.372787398534094,0.850925423436788,0.5,0.0760385325350696,0.829129731590347,7.29231848850708,3.23669473905258,0.5,99.7209372183332
164,1,16,B,1,3,a,27,1,0.73,1B,3B,1,0,1,0,B13,0.168358634477631,3.43398720448515,0.570679603191879,0.461980733732465,0.5,0.5,0.461980733732465,0.497109070784957,0.5,0.5,0.5,0.5,0.464651840932334,0.5,0.5,0.461980733732465,0.426852396679974,0.538019266267535,2.11025830828464,0,0,1,3B,1B,0.5,0.497109070784957,0.501449655458839,0.498550344541161,0,0,-0.5,-0.0380192662675348,0.5,0.41808964473495,0.746258308284643,2.03486139347923,3.74798191546504,0.5,0.165496362127564,0.516805293917652,0.5,0.0760385325350696,0.829129731590347,7.29231848850708,3.23669473905258,0.5,99.7209372183332
164,1,17,C,3,2,l,63,1,0.73,3C,2C,0,1,0,1,C32,3.19092580522835,3.46573590279973,0.570679603191879,0.461980733732465,0.5,0.5,0.461980733732465,0.497109070784957,0.5,0.461980733732465,0.5,0.5,0.464651840932334,0.5,0.5,0.461980733732465,0.426852396679974,0.538019266267535,7.85225830828464,1,1,0,3C,2C,0.5,0.464651840932334,0.518321718555734,0.481678281444266,0,0,-0.5,-0.0380192662675348,0.5,0.41808964473495,0.746258308284643,2.03486139347923,3.74798191546504,0.5,0.0131552065422217,0.703761852693078,0.5,0.0760385325350696,0.829129731590347,7.29231848850708,3.23669473905258,0.5,99.7209372183332
164,1,18,D,2,3,l,63,0,0.73,2D,3D,0,1,1,0,D23,0.0985658854298463,2.11021320034659,0.570679603191879,0.461980733732465,0.5,0.5,0.461980733732465,0.497109070784957,0.5,0.461980733732465,0.5,0.5,0.464651840932334,0.461980733732465,0.5,0.461980733732465,0.426852396679974,0.538019266267535,2.31825830828464,0,0,1,3D,2D,0.538019266267535,0.426852396679974,0.557607075560685,0.442392924439315,1,0,-0.538019266267535,-0.0409101954825782,0.5,0.41808964473495,0.746258308284643,2.03486139347923,3.74798191546504,0.5,0.338512228972875,0.937929895429042,0.5,0.0760385325350696,0.829129731590347,7.29231848850708,3.23669473905258,0.5,99.7209372183332
164,1,19,B,1,0,a,63,1,0.73,1B,0B,1,0,1,0,B10,2.18363204958509,2.83321334405622,0.570679603191879,0.461980733732465,0.5,0.5,0.461980733732465,0.497109070784957,0.5,0.461980733732465,0.5,0.5,0.464651840932334,0.461980733732465,0.5,0.461980733732465,0.426852396679974,0.497109070784957,1.46625830828464,1,1,0,1B,0B,0.497109070784957,0.461980733732465,0.51831337216131,0.48168662783869,1,1,0.502890929215043,0.0382390882827095,0.5,0.41808964473495,0.746258308284643,2.03486139347923,3.74798191546504,0.5,0.244804698933445,0.703549645111455,0.5,0.0760385325350696,0.829129731590347,7.29231848850708,3.23669473905258,0.5,99.7209372183332
164,1,20,A,2,0,l,27,0,0.73,2A,0A,0,1,1,0,A20,3.25279935771583,3.55534806148941,0.570679603191879,0.461980733732465,0.5,0.5,0.461980733732465,0.535348159067666,0.5,0.461980733732465,0.5,0.5,0.464651840932334,0.461980733732465,0.5,0.461980733732465,0.426852396679974,0.497109070784957,4.37725830828464,0,0,1,0A,2A,0.570679603191879,0.5,0.533006887859436,0.466993112140564,1,0,-0.570679603191879,-0.0433936395744064,0.5,0.41808964473495,0.746258308284643,2.03486139347923,3.74798191546504,0.5,0.0814527673434444,0.825819056262029,0.5,0.0760385325350696,0.829129731590347,7.29231848850708,3.23669473905258,0.5,99.7209372183332
164,1,21,D,0,3,l,9,1,0.73,0D,3D,0,1,0,1,D03,2.97806493255583,3.58351893845611,0.527285963617473,0.461980733732465,0.5,0.5,0.461980733732465,0.535348159067666,0.5,0.461980733732465,0.5,0.5,0.464651840932334,0.461980733732465,0.5,0.461980733732465,0.426852396679974,0.497109070784957,2.69025830828464,1,1,0,0D,3D,0.5,0.497109070784957,0.501449655458839,0.498550344541161,0,0,-0.5,-0.0380192662675348,0.5,0.41808964473495,0.746258308284643,2.03486139347923,3.74798191546504,0.5,0.128515955764684,0.516210715088851,0.5,0.0760385325350696,0.829129731590347,7.29231848850708,3.23669473905258,0.5,99.7209372183332
164,1,22,C,2,3,a,63,1,0.73,2C,3C,1,0,1,0,C23,1.06403888094304,2.91777073208428,0.527285963617473,0.461980733732465,0.5,0.5,0.461980733732465,0.535348159067666,0.5,0.461980733732465,0.5,0.5,0.464651840932334,0.461980733732465,0.461980733732465,0.461980733732465,0.426852396679974,0.497109070784957,3.06125830828464,1,1,0,2C,3C,0.464651840932334,0.461980733732465,0.501441297917265,0.498558702082735,1,1,0.535348159067666,0.0407070884108564,0.5,0.41808964473495,0.746258308284643,2.03486139347923,3.74798191546504,0.5,0.108249770224891,0.516820394313204,0.5,0.0760385325350696,0.829129731590347,7.29231848850708,3.23669473905258,0.5,99.7209372183332
164,1,23,B,3,1,l,27,0,0.73,3B,1B,0,1,1,0,B31,2.35619520839198,3.63758615972639,0.527285963617473,0.461980733732465,0.5,0.5,0.461980733732465,0.535348159067666,0.5,0.461980733732465,0.5,0.5,0.50535892934319,0.461980733732465,0.461980733732465,0.461980733732465,0.426852396679974,0.497109070784957,3.12725830828464,0,0,1,1B,3B,0.535348159067666,0.461980733732465,0.536781961229065,0.463218038770935,1,0,-0.535348159067666,-0.0407070884108564,0.5,0.41808964473495,0.746258308284643,2.03486139347923,3.74798191546504,0.5,0.173791199694636,0.850262631501195,0.5,0.0760385325350696,0.829129731590347,7.29231848850708,3.23669473905258,0.5,99.7209372183332
164,1,24,C,3,2,l,63,1,0.73,3C,2C,0,1,0,1,C32,1.14876107762834,2.9704144655697,0.527285963617473,0.461980733732465,0.5,0.5,0.461980733732465,0.49464107065681,0.5,0.461980733732465,0.5,0.5,0.50535892934319,0.461980733732465,0.461980733732465,0.461980733732465,0.426852396679974,0.497109070784957,7.02025830828464,0,0,1,2C,3C,0.50535892934319,0.461980733732465,0.522421387888099,0.477578612111901,1,1,0.49464107065681,0.0376117811443195,0.5,0.41808964473495,0.746258308284643,2.03486139347923,3.74798191546504,0.5,0.0197903740180709,0.742463731057652,0.5,0.0760385325350696,0.829129731590347,7.29231848850708,3.23669473905258,0.5,99.7209372183332
164,1,25,D,2,3,l,63,1,0.73,2D,3D,0,1,0,1,D23,0.737863089219758,2.07944154167984,0.527285963617473,0.461980733732465,0.5,0.5,0.461980733732465,0.49464107065681,0.5,0.461980733732465,0.5,0.5,0.54297071048751,0.461980733732465,0.461980733732465,0.461980733732465,0.426852396679974,0.497109070784957,1.60625830828464,0,0,1,3D,2D,0.497109070784957,0.426852396679974,0.538019266267535,0.461980733732465,1,1,0.502890929215043,0.0382390882827095,0.5,0.41808964473495,0.746258308284643,2.03486139347923,3.74798191546504,0.5,0.380579384576489,0.857651907006606,0.5,0.0760385325350696,0.829129731590347,7.29231848850708,3.23669473905258,0.5,99.7209372183332
164,1,26,B,1,0,a,63,1,0.73,1B,0B,1,0,1,0,B10,2.30181762056521,2.6149597780362,0.527285963617473,0.461980733732465,0.5,0.5,0.461980733732465,0.49464107065681,0.5,0.461980733732465,0.5,0.5,0.54297071048751,0.461980733732465,0.461980733732465,0.461980733732465,0.426852396679974,0.535348159067666,1.38825830828464,1,1,0,1B,0B,0.49464107065681,0.461980733732465,0.517070663021943,0.482929336978057,1,1,0.50535892934319,0.0384267513907501,0.5,0.41808964473495,0.746258308284643,2.03486139347923,3.74798191546504,0.5,0.218444620441156,0.691566053118919,0.5,0.0760385325350696,0.829129731590347,7.29231848850708,3.23669473905258,0.5,99.7209372183332
164,1,27,A,0,3,a,9,1,0.73,0A,3A,1,0,1,0,A03,2.50253688389345,3.73766961828337,0.527285963617473,0.461980733732465,0.5,0.5,0.461980733732465,0.53306782204756,0.5,0.461980733732465,0.5,0.5,0.54297071048751,0.461980733732465,0.461980733732465,0.461980733732465,0.426852396679974,0.535348159067666,5.47925830828464,1,1,0,0A,3A,0.527285963617473,0.5,0.51328060763207,0.48671939236793,1,1,0.472714036382527,0.0359444816352569,0.5,0.41808964473495,0.746258308284643,2.03486139347923,3.74798191546504,0.5,0.0421315478397415,0.653463934770862,0.5,0.0760385325350696,0.829129731590347,7.29231848850708,3.23669473905258,0.5,99.7209372183332
164,1,28,D,2,3,l,63,0,0.73,2D,3D,0,1,1,0,D23,1.27480676157899,1.96944064646551,0.56323044525273,0.461980733732465,0.5,0.5,0.461980733732465,0.53306782204756,0.5,0.461980733732465,0.5,0.5,0.54297071048751,0.461980733732465,0.461980733732465,0.461980733732465,0.426852396679974,0.535348159067666,1.95825830828464,0,0,1,3D,2D,0.535348159067666,0.426852396679974,0.556378975120935,0.443621024879065,1,0,-0.535348159067666,-0.0407070884108564,0.5,0.41808964473495,0.746258308284643,2.03486139347923,3.74798191546504,0.5,0.43615379962092,0.934994697810488,0.5,0.0760385325350696,0.829129731590347,7.29231848850708,3.23669473905258,0.5,99.7209372183332
164,1,29,C,2,0,a,27,1,0.73,2C,0C,1,0,1,0,C20,0.453520769817711,2.68557734525015,0.56323044525273,0.461980733732465,0.5,0.5,0.461980733732465,0.53306782204756,0.5,0.461980733732465,0.5,0.5,0.54297071048751,0.461980733732465,0.461980733732465,0.461980733732465,0.426852396679974,0.49464107065681,5.70825830828464,0,0,1,0C,2C,0.5,0.54297071048751,0.479399847926974,0.520600152073026,0,0,-0.5,-0.0380192662675348,0.5,0.41808964473495,0.746258308284643,2.03486139347923,3.74798191546504,0.5,0.0148058911024152,0.273640149314618,0.5,0.0760385325350696,0.829129731590347,7.29231848850708,3.23669473905258,0.5,99.7209372183332
164,1,30,A,1,0,l,63,0,0.73,1A,0A,0,1,1,0,A10,0.036531327540096,3.11351530921037,0.56323044525273,0.461980733732465,0.5,0.5,0.461980733732465,0.53306782204756,0.5,0.461980733732465,0.461980733732465,0.5,0.54297071048751,0.461980733732465,0.461980733732465,0.461980733732465,0.426852396679974,0.49464107065681,1.16625830828464,0,0,1,0A,1A,0.56323044525273,0.461980733732465,0.549379929518759,0.450620070481241,1,0,-0.56323044525273,-0.0428272165360915,0.5,0.41808964473495,0.746258308284643,2.03486139347923,3.74798191546504,0.5,0.199118738940581,0.911225037884367,0.5,0.0760385325350696,0.829129731590347,7.29231848850708,3.23669473905258,0.5,99.7209372183332
164,1,31,B,1,0,a,63,1,0.73,1B,0B,1,0,1,0,B10,2.73373607793957,2.4423470353692,0.520403228716638,0.461980733732465,0.5,0.5,0.461980733732465,0.53306782204756,0.5,0.461980733732465,0.461980733732465,0.5,0.54297071048751,0.461980733732465,0.461980733732465,0.461980733732465,0.426852396679974,0.49464107065681,1.80125830828464,0,0,1,0B,1B,0.461980733732465,0.53306782204756,0.46427958821599,0.53572041178401,0,0,-0.461980733732465,-0.0351283370524914,0.5,0.41808964473495,0.746258308284643,2.03486139347923,3.74798191546504,0.5,0.0660387110367236,0.156229813790215,0.5,0.0760385325350696,0.829129731590347,7.29231848850708,3.23669473905258,0.5,99.7209372183332
164,1,32,D,3,1,a,27,1,0.73,3D,1D,1,0,1,0,D31,0.322379721941646,3.85014760171006,0.520403228716638,0.461980733732465,0.5,0.5,0.426852396679974,0.53306782204756,0.5,0.461980733732465,0.461980733732465,0.5,0.54297071048751,0.461980733732465,0.461980733732465,0.461980733732465,0.426852396679974,0.49464107065681,3.88625830828464,1,1,0,3D,1D,0.49464107065681,0.461980733732465,0.517070663021943,0.482929336978057,1,1,0.50535892934319,0.0384267513907501,0.5,0.41808964473495,0.746258308284643,2.03486139347923,3.74798191546504,0.5,0.0967795517377093,0.692007766991932,0.5,0.0760385325350696,0.829129731590347,7.29231848850708,3.23669473905258,0.5,99.7209372183332
164,1,33,C,3,2,l,63,1,0.73,3C,2C,0,1,0,1,C32,1.20226511433561,2.77258872223978,0.520403228716638,0.461980733732465,0.5,0.5,0.426852396679974,0.53306782204756,0.5,0.461980733732465,0.461980733732465,0.5,0.54297071048751,0.461980733732465,0.461980733732465,0.461980733732465,0.426852396679974,0.53306782204756,1.59025830828464,0,0,1,2C,3C,0.54297071048751,0.461980733732465,0.540295467617297,0.459704532382703,1,1,0.45702928951249,0.0347518365000753,0.5,0.41808964473495,0.746258308284643,2.03486139347923,3.74798191546504,0.5,0.394790041070603,0.870000201546407,0.5,0.0760385325350696,0.829129731590347,7.29231848850708,3.23669473905258,0.5,99.7209372183332
164,1,34,B,1,0,a,63,0,0.73,1B,0B,1,0,0,1,B10,1.68486270573821,2.28238238567653,0.520403228716638,0.461980733732465,0.5,0.5,0.426852396679974,0.53306782204756,0.5,0.461980733732465,0.461980733732465,0.5,0.577722546987585,0.461980733732465,0.461980733732465,0.461980733732465,0.426852396679974,0.53306782204756,1.45025830828464,1,1,0,1B,0B,0.53306782204756,0.426852396679974,0.55532513186793,0.44467486813207,1,0,-0.53306782204756,-0.0405336949301621,0.5,0.41808964473495,0.746258308284643,2.03486139347923,3.74798191546504,0.5,0.482752971736941,0.931539034991326,0.5,0.0760385325350696,0.829129731590347,7.29231848850708,3.23669473905258,0.5,99.7209372183332
164,1,35,A,0,1,a,63,1,0.73,0A,1A,1,0,1,0,A01,1.04033455101719,2.52572864430826,0.520403228716638,0.461980733732465,0.5,0.5,0.426852396679974,0.492534127117398,0.5,0.461980733732465,0.461980733732465,0.5,0.577722546987585,0.461980733732465,0.461980733732465,0.461980733732465,0.426852396679974,0.53306782204756,2.00825830828464,1,1,0,0A,1A,0.520403228716638,0.461980733732465,0.529735061451189,0.470264938548811,1,1,0.479596771283362,0.0364678346969442,0.5,0.41808964473495,0.746258308284643,2.03486139347923,3.74798191546504,0.5,0.299703759033758,0.802665546127603,0.5,0.0760385325350696,0.829129731590347,7.29231848850708,3.23669473905258,0.5,99.7209372183332
164,1,36,C,1,2,l,9,1,0.73,1C,2C,0,1,0,1,C12,1.3397276513909,3.93182563272433,0.556871063413583,0.461980733732465,0.5,0.5,0.426852396679974,0.492534127117398,0.5,0.461980733732465,0.461980733732465,0.5,0.577722546987585,0.461980733732465,0.461980733732465,0.461980733732465,0.426852396679974,0.53306782204756,6.86725830828464,1,1,0,1C,2C,0.5,0.577722546987585,0.463941300474397,0.536058699525603,0,0,-0.5,-0.0380192662675348,0.5,0.41808964473495,0.746258308284643,2.03486139347923,3.74798191546504,0.5,0.00323614694076751,0.154298489077949,0.5,0.0760385325350696,0.829129731590347,7.29231848850708,3.23669473905258,0.5,99.7209372183332
164,1,37,A,1,0,l,63,1,0.73,1A,0A,0,1,0,1,A10,2.48763723817426,2.85263142991332,0.556871063413583,0.461980733732465,0.5,0.5,0.426852396679974,0.492534127117398,0.5,0.461980733732465,0.461980733732465,0.461980733732465,0.577722546987585,0.461980733732465,0.461980733732465,0.461980733732465,0.426852396679974,0.53306782204756,2.55425830828464,0,0,1,0A,1A,0.556871063413583,0.461980733732465,0.546567287777731,0.453432712222269,1,1,0.443128936586417,0.0336948740618571,0.5,0.41808964473495,0.746258308284643,2.03486139347923,3.74798191546504,0.5,0.266829719750456,0.899515221529817,0.5,0.0760385325350696,0.829129731590347,7.29231848850708,3.23669473905258,0.5,99.7209372183332
164,1,38,D,3,1,a,27,0,0.73,3D,1D,1,0,0,1,D31,2.22226033190013,3.27714473299218,0.59056593747544,0.461980733732465,0.5,0.5,0.426852396679974,0.492534127117398,0.5,0.461980733732465,0.461980733732465,0.461980733732465,0.577722546987585,0.461980733732465,0.461980733732465,0.461980733732465,0.426852396679974,0.53306782204756,6.08825830828464,1,1,0,3D,1D,0.53306782204756,0.461980733732465,0.53572041178401,0.46427958821599,1,0,-0.53306782204756,-0.0405336949301621,0.5,0.41808964473495,0.746258308284643,2.03486139347923,3.74798191546504,0.5,0.0286535785766212,0.843808000224665,0.5,0.0760385325350696,0.829129731590347,7.29231848850708,3.23669473905258,0.5,99.7209372183332
164,1,39,B,0,1,l,63,1,0.73,0B,1B,0,1,0,1,B01,1.93974666542908,3.29583686600433,0.59056593747544,0.461980733732465,0.5,0.5,0.426852396679974,0.492534127117398,0.5,0.461980733732465,0.461980733732465,0.461980733732465,0.577722546987585,0.461980733732465,0.461980733732465,0.461980733732465,0.426852396679974,0.492534127117398,5.84225830828464,1,1,0,0B,1B,0.426852396679974,0.492534127117398,0.46427958821599,0.53572041178401,0,0,-0.426852396679974,-0.0324572298526226,0.5,0.41808964473495,0.746258308284643,2.03486139347923,3.74798191546504,0.5,0.0061913388951402,0.156740268171007,0.5,0.0760385325350696,0.829129731590347,7.29231848850708,3.23669473905258,0.5,99.7209372183332
164,1,40,C,2,3,a,63,0,0.73,2C,3C,1,0,0,1,C23,0.495640022054282,2.90872089656436,0.59056593747544,0.461980733732465,0.5,0.5,0.394395166827351,0.492534127117398,0.5,0.461980733732465,0.461980733732465,0.461980733732465,0.577722546987585,0.461980733732465,0.461980733732465,0.461980733732465,0.426852396679974,0.492534127117398,3.16325830828464,1,1,0,2C,3C,0.577722546987585,0.461980733732465,0.555660982994573,0.444339017005428,1,0,-0.577722546987585,-0.0439291746853588,0.5,0.41808964473495,0.746258308284643,2.03486139347923,3.74798191546504,0.5,0.172100927055153,0.932622325905573,0.5,0.0760385325350696,0.829129731590347,7.29231848850708,3.23669473905258,0.5,99.7209372183332
164,1,41,A,2,0,l,27,1,0.73,2A,0A,0,1,0,1,A20,2.56168452909794,3.3322045101752,0.59056593747544,0.461980733732465,0.5,0.5,0.394395166827351,0.492534127117398,0.5,0.461980733732465,0.461980733732465,0.461980733732465,0.533793372302226,0.461980733732465,0.461980733732465,0.461980733732465,0.426852396679974,0.492534127117398,1.85525830828464,0,0,1,0A,2A,0.59056593747544,0.5,0.541522449199675,0.458477550800325,1,1,0.40943406252456,0.0311327652842395,0.5,0.41808964473495,0.746258308284643,2.03486139347923,3.74798191546504,0.5,0.382189297212493,0.876115517756578,0.5,0.0760385325350696,0.829129731590347,7.29231848850708,3.23669473905258,0.5,99.7209372183332
164,1,42,D,3,2,a,63,1,0.73,3D,2D,1,0,1,0,D32,1.35393994521015,4.04305126783455,0.621698702759679,0.461980733732465,0.5,0.5,0.394395166827351,0.492534127117398,0.5,0.461980733732465,0.461980733732465,0.461980733732465,0.533793372302226,0.461980733732465,0.461980733732465,0.461980733732465,0.426852396679974,0.492534127117398,2.25625830828464,1,1,0,3D,2D,0.492534127117398,0.426852396679974,0.53572041178401,0.46427958821599,1,1,0.507465872882602,0.0385869602856213,0.5,0.41808964473495,0.746258308284643,2.03486139347923,3.74798191546504,0.5,0.288914215373058,0.843484197658137,0.5,0.0760385325350696,0.829129731590347,7.29231848850708,3.23669473905258,0.5,99.7209372183332
164,1,43,B,3,1,l,27,1,0.73,3B,1B,0,1,0,1,B31,2.57829595408353,3.36729582998647,0.621698702759679,0.461980733732465,0.5,0.5,0.394395166827351,0.492534127117398,0.5,0.461980733732465,0.461980733732465,0.461980733732465,0.533793372302226,0.461980733732465,0.461980733732465,0.461980733732465,0.426852396679974,0.531121087403019,4.00625830828464,0,0,1,1B,3B,0.492534127117398,0.461980733732465,0.516004671398059,0.483995328601941,1,1,0.507465872882602,0.0385869602856213,0.5,0.41808964473495,0.746258308284643,2.03486139347923,3.74798191546504,0.5,0.0898849159544978,0.680820836697873,0.5,0.0760385325350696,0.829129731590347,7.29231848850708,3.23669473905258,0.5,99.7209372183332
164,1,44,C,2,3,a,63,1,0.73,2C,3C,1,0,1,0,C23,0.365602739466778,2.69124308278583,0.621698702759679,0.461980733732465,0.5,0.5,0.394395166827351,0.531121087403019,0.5,0.461980733732465,0.461980733732465,0.461980733732465,0.533793372302226,0.461980733732465,0.461980733732465,0.461980733732465,0.426852396679974,0.531121087403019,3.35525830828464,0,0,1,3C,2C,0.461980733732465,0.533793372302226,0.463941300474397,0.536058699525603,0,0,-0.461980733732465,-0.0351283370524914,0.5,0.41808964473495,0.746258308284643,2.03486139347923,3.74798191546504,0.5,0.0273825839309237,0.153765445622595,0.5,0.0760385325350696,0.829129731590347,7.29231848850708,3.23669473905258,0.5,99.7209372183332
