ID,session,trialNr,mod2Stim,visStimLeft,visStimRight,correctKey,frequency,rewardAccurate,probFB,stimPairLeft,stimPairRight,leftCorrect,rightCorrect,pCorrectLeft,pCorrectRight,triplet,rt,surprise,0A belief,1A belief,2A belief,3A belief,0B belief,1B belief,2B belief,3B belief,0C belief,1C belief,2C belief,3C belief,0D belief,1D belief,2D belief,3D belief,reactionTime,choice,choiceLeft,choiceRight,chosenPair,otherPair,beliefPair,beliefOtherPair,beliefPairNorm,beliefOtherPairNorm,choiceAccurate,reward,rewardPE,update2,sim_CBCsimpleRW_CBCdriftDiffusionLR_pwBelief_startBelief,sim_CBCsimpleRW_CBCdriftDiffusionLR_pwBelief_alpha1,sim_CBCsimpleRW_CBCdriftDiffusionLR_pwBelief_nonDecisionTime,sim_CBCsimpleRW_CBCdriftDiffusionLR_pwBelief_weight,sim_CBCsimpleRW_CBCdriftDiffusionLR_pwBelief_startingBoundary,sim_CBCsimpleRW_CBCdriftDiffusionLR_pwBelief_startingPoint,lik,corrLik,fitCBCsimpleRW_CBCdriftDiffusionLR_pwBelief_startBelief,fitCBCsimpleRW_CBCdriftDiffusionLR_pwBelief_alpha1,fitCBCsimpleRW_CBCdriftDiffusionLR_pwBelief_nonDecisionTime,fitCBCsimpleRW_CBCdriftDiffusionLR_pwBelief_weight,fitCBCsimpleRW_CBCdriftDiffusionLR_pwBelief_startingBoundary,fitCBCsimpleRW_CBCdriftDiffusionLR_pwBelief_startingPoint,fit_CBCsimpleRW_CBCdriftDiffusionLR_pwBelief_NLL
164,1,1,B,0,1,l,63,1,0.73,0B,1B,0,1,0,1,B01,0.258995000291395,2.77258872223978,0.5,0.5,0.5,0.5,0.5,0.5,0.5,0.5,0.5,0.5,0.5,0.5,0.5,0.5,0.5,0.5,0.521902603109536,0,0,1,1B,0B,0.5,0.5,0.5,0.5,1,1,0.5,0.456091587343407,0.5,0.835534691658661,0.303902603109536,6.31462990544833,1.34096989270749,0.5,1.00961729434184,0.500039205759289,0.5,0.912183174686813,0.308699366241382,6.06270878493666,1.25274509548199,0.5,-40.1041143680951
164,1,2,A,0,1,a,63,1,0.73,0A,1A,1,0,1,0,A01,1.94732291815334,2.83321334405622,0.5,0.5,0.5,0.5,0.5,0.956091587343407,0.5,0.5,0.5,0.5,0.5,0.5,0.5,0.5,0.5,0.5,0.619902603109536,0,0,1,1A,0A,0.5,0.5,0.5,0.5,0,0,-0.5,-0.456091587343407,0.5,0.835534691658661,0.303902603109536,6.31462990544833,1.34096989270749,0.5,0.751353262594898,0.499911397785886,0.5,0.912183174686813,0.308699366241382,6.06270878493666,1.25274509548199,0.5,-40.1041143680951
164,1,3,D,2,3,l,63,1,0.73,2D,3D,0,1,0,1,D23,3.34572808643297,2.89037175789616,0.5,0.0439084126565934,0.5,0.5,0.5,0.956091587343407,0.5,0.5,0.5,0.5,0.5,0.5,0.5,0.5,0.5,0.5,0.421902603109536,1,1,0,2D,3D,0.5,0.5,0.5,0.5,0,0,-0.5,-0.456091587343407,0.5,0.835534691658661,0.303902603109536,6.31462990544833,1.34096989270749,0.5,1.15956129772734,0.499924822029086,0.5,0.912183174686813,0.308699366241382,6.06270878493666,1.25274509548199,0.5,-40.1041143680951
164,1,4,B,2,1,l,9,1,0.73,2B,1B,0,1,0,1,B21,0.542289251436969,2.94443897916644,0.5,0.0439084126565934,0.5,0.5,0.5,0.956091587343407,0.5,0.5,0.5,0.5,0.5,0.5,0.5,0.5,0.0439084126565934,0.5,0.375902603109536,0,0,1,1B,2B,0.956091587343407,0.5,0.956091587343407,0.0439084126565934,1,1,0.0439084126565934,0.04005251525255,0.5,0.835534691658661,0.303902603109536,6.31462990544833,1.34096989270749,0.5,8.85133162285033,0.999021015454057,0.5,0.912183174686813,0.308699366241382,6.06270878493666,1.25274509548199,0.5,-40.1041143680951
164,1,5,A,0,2,a,27,1,0.73,0A,2A,1,0,1,0,A02,2.28855097061895,2.99573227355399,0.5,0.0439084126565934,0.5,0.5,0.5,0.996144102595957,0.5,0.5,0.5,0.5,0.5,0.5,0.5,0.5,0.0439084126565934,0.5,0.749902603109536,0,0,1,2A,0A,0.5,0.5,0.5,0.5,0,0,-0.5,-0.456091587343407,0.5,0.835534691658661,0.303902603109536,6.31462990544833,1.34096989270749,0.5,0.500180765891893,0.500272375800607,0.5,0.912183174686813,0.308699366241382,6.06270878493666,1.25274509548199,0.5,-40.1041143680951
164,1,6,C,2,3,a,63,0,0.73,2C,3C,1,0,0,1,C23,0.496430401347945,3.04452243772342,0.5,0.0439084126565934,0.0439084126565934,0.5,0.5,0.996144102595957,0.5,0.5,0.5,0.5,0.5,0.5,0.5,0.5,0.0439084126565934,0.5,0.464902603109536,0,0,1,3C,2C,0.5,0.5,0.5,0.5,0,1,0.5,0.456091587343407,0.5,0.835534691658661,0.303902603109536,6.31462990544833,1.34096989270749,0.5,1.15389893925392,0.500500672091088,0.5,0.912183174686813,0.308699366241382,6.06270878493666,1.25274509548199,0.5,-40.1041143680951
164,1,7,D,1,3,l,27,1,0.73,1D,3D,0,1,0,1,D13,2.49643906365224,3.09104245335832,0.5,0.0439084126565934,0.0439084126565934,0.5,0.5,0.996144102595957,0.5,0.5,0.5,0.5,0.5,0.956091587343407,0.5,0.5,0.0439084126565934,0.5,0.574902603109536,0,0,1,3D,1D,0.5,0.5,0.5,0.5,1,1,0.5,0.456091587343407,0.5,0.835534691658661,0.303902603109536,6.31462990544833,1.34096989270749,0.5,0.863410546316151,0.499927106168412,0.5,0.912183174686813,0.308699366241382,6.06270878493666,1.25274509548199,0.5,-40.1041143680951
164,1,8,A,1,0,l,63,0,0.73,1A,0A,0,1,1,0,A10,2.07768383836853,3.13549421592915,0.5,0.0439084126565934,0.0439084126565934,0.5,0.5,0.996144102595957,0.5,0.5,0.5,0.5,0.5,0.956091587343407,0.5,0.5,0.0439084126565934,0.956091587343407,0.370902603109536,0,0,1,0A,1A,0.5,0.0439084126565934,0.956091587343407,0.0439084126565934,1,0,-0.5,-0.456091587343407,0.5,0.835534691658661,0.303902603109536,6.31462990544833,1.34096989270749,0.5,8.48310558460648,0.999019789501183,0.5,0.912183174686813,0.308699366241382,6.06270878493666,1.25274509548199,0.5,-40.1041143680951
164,1,9,C,2,0,a,27,1,0.73,2C,0C,1,0,1,0,C20,3.04435356864039,3.17805383034795,0.0439084126565934,0.0439084126565934,0.0439084126565934,0.5,0.5,0.996144102595957,0.5,0.5,0.5,0.5,0.5,0.956091587343407,0.5,0.5,0.0439084126565934,0.956091587343407,1.34990260310954,0,0,1,0C,2C,0.5,0.5,0.5,0.5,0,0,-0.5,-0.456091587343407,0.5,0.835534691658661,0.303902603109536,6.31462990544833,1.34096989270749,0.5,0.0757823929370259,0.500032011071119,0.5,0.912183174686813,0.308699366241382,6.06270878493666,1.25274509548199,0.5,-40.1041143680951
164,1,10,D,2,3,l,63,1,0.73,2D,3D,0,1,0,1,D23,0.30188305109866,2.52572864430826,0.0439084126565934,0.0439084126565934,0.0439084126565934,0.5,0.5,0.996144102595957,0.5,0.5,0.0439084126565934,0.5,0.5,0.956091587343407,0.5,0.5,0.0439084126565934,0.956091587343407,0.345902603109536,0,0,1,3D,2D,0.956091587343407,0.0439084126565934,0.99789534228314,0.00210465771686043,1,1,0.0439084126565934,0.04005251525255,0.5,0.835534691658661,0.303902603109536,6.31462990544833,1.34096989270749,0.5,3.97655905626494,0.999480248330553,0.5,0.912183174686813,0.308699366241382,6.06270878493666,1.25274509548199,0.5,-40.1041143680951
164,1,11,B,1,0,a,63,0,0.73,1B,0B,1,0,0,1,B10,0.619823383401644,3.25809653802148,0.0439084126565934,0.0439084126565934,0.0439084126565934,0.5,0.5,0.996144102595957,0.5,0.5,0.0439084126565934,0.5,0.5,0.956091587343407,0.5,0.5,0.0439084126565934,0.996144102595957,0.389902603109536,1,1,0,1B,0B,0.996144102595957,0.5,0.996144102595957,0.00385589740404335,1,0,-0.996144102595957,-0.908665889951526,0.5,0.835534691658661,0.303902603109536,6.31462990544833,1.34096989270749,0.5,9.60552595337116,0.99946654668292,0.5,0.912183174686813,0.308699366241382,6.06270878493666,1.25274509548199,0.5,-40.1041143680951
164,1,12,A,0,1,a,63,1,0.73,0A,1A,1,0,1,0,A01,3.32945701703271,2.60268968544438,0.0439084126565934,0.0439084126565934,0.0439084126565934,0.5,0.5,0.0874782126444303,0.5,0.5,0.0439084126565934,0.5,0.5,0.956091587343407,0.5,0.5,0.0439084126565934,0.996144102595957,1.21590260310954,1,1,0,0A,1A,0.0439084126565934,0.0439084126565934,0.5,0.5,1,1,0.956091587343407,0.872130659434263,0.5,0.835534691658661,0.303902603109536,6.31462990544833,1.34096989270749,0.5,0.115428865983219,0.49974842181878,0.5,0.912183174686813,0.308699366241382,6.06270878493666,1.25274509548199,0.5,-40.1041143680951
164,1,13,D,2,3,l,63,1,0.73,2D,3D,0,1,0,1,D23,1.77265216927354,2.23359222150709,0.916039072090857,0.0439084126565934,0.0439084126565934,0.5,0.5,0.0874782126444303,0.5,0.5,0.0439084126565934,0.5,0.5,0.956091587343407,0.5,0.5,0.0439084126565934,0.996144102595957,0.441902603109536,0,0,1,3D,2D,0.996144102595957,0.0439084126565934,0.999822264432376,0.000177735567624139,1,1,0.00385589740404335,0.00351728473528691,0.5,0.835534691658661,0.303902603109536,6.31462990544833,1.34096989270749,0.5,4.54582271735383,0.999495890991385,0.5,0.912183174686813,0.308699366241382,6.06270878493666,1.25274509548199,0.5,-40.1041143680951
164,1,14,C,2,0,a,27,0,0.73,2C,0C,1,0,0,1,C20,1.86522565440445,2.67414864942653,0.916039072090857,0.0439084126565934,0.0439084126565934,0.5,0.5,0.0874782126444303,0.5,0.5,0.0439084126565934,0.5,0.5,0.956091587343407,0.5,0.5,0.0439084126565934,0.999661387331244,0.440902603109536,1,1,0,2C,0C,0.5,0.0439084126565934,0.956091587343407,0.0439084126565934,1,0,-0.5,-0.456091587343407,0.5,0.835534691658661,0.303902603109536,6.31462990544833,1.34096989270749,0.5,4.98716951080594,0.999020876213882,0.5,0.912183174686813,0.308699366241382,6.06270878493666,1.25274509548199,0.5,-40.1041143680951
164,1,15,A,0,1,a,63,1,0.73,0A,1A,1,0,1,0,A01,0.384781805820741,2.30258509299405,0.916039072090857,0.0439084126565934,0.0439084126565934,0.5,0.5,0.0874782126444303,0.5,0.5,0.0439084126565934,0.5,0.0439084126565934,0.956091587343407,0.5,0.5,0.0439084126565934,0.999661387331244,0.427902603109536,1,1,0,0A,1A,0.916039072090857,0.0439084126565934,0.995808328633256,0.00419167136674381,1,1,0.0839609279091434,0.0765877457698131,0.5,0.835534691658661,0.303902603109536,6.31462990544833,1.34096989270749,0.5,5.86802659050962,0.999463835679483,0.5,0.912183174686813,0.308699366241382,6.06270878493666,1.25274509548199,0.5,-40.1041143680951
164,1,16,B,1,3,a,27,1,0.73,1B,3B,1,0,1,0,B13,0.168358634477631,3.43398720448515,0.99262681786067,0.0439084126565934,0.0439084126565934,0.5,0.5,0.0874782126444303,0.5,0.5,0.0439084126565934,0.5,0.0439084126565934,0.956091587343407,0.5,0.5,0.0439084126565934,0.999661387331244,0.478902603109536,0,0,1,3B,1B,0.5,0.0874782126444303,0.91252178735557,0.0874782126444303,0,0,-0.5,-0.456091587343407,0.5,0.835534691658661,0.303902603109536,6.31462990544833,1.34096989270749,0.5,3.06553471652592,0.998106094458269,0.5,0.912183174686813,0.308699366241382,6.06270878493666,1.25274509548199,0.5,-40.1041143680951
164,1,17,C,3,2,l,63,1,0.73,3C,2C,0,1,0,1,C32,3.19092580522835,3.46573590279973,0.99262681786067,0.0439084126565934,0.0439084126565934,0.5,0.5,0.0874782126444303,0.5,0.0439084126565934,0.0439084126565934,0.5,0.0439084126565934,0.956091587343407,0.5,0.5,0.0439084126565934,0.999661387331244,0.400902603109536,1,1,0,3C,2C,0.956091587343407,0.0439084126565934,0.997895342283139,0.00210465771686053,0,0,-0.956091587343407,-0.872130659434263,0.5,0.835534691658661,0.303902603109536,6.31462990544833,1.34096989270749,0.5,8.69179092203069,0.99947959006853,0.5,0.912183174686813,0.308699366241382,6.06270878493666,1.25274509548199,0.5,-40.1041143680951
164,1,18,D,2,3,l,63,0,0.73,2D,3D,0,1,1,0,D23,0.0985658854298463,2.11021320034659,0.99262681786067,0.0439084126565934,0.0439084126565934,0.5,0.5,0.0874782126444303,0.5,0.0439084126565934,0.0439084126565934,0.5,0.0439084126565934,0.0839609279091434,0.5,0.5,0.0439084126565934,0.999661387331244,0.377902603109536,0,0,1,3D,2D,0.999661387331244,0.0439084126565934,0.999984444220819,1.55557791809519e-05,1,0,-0.999661387331244,-0.911874297907638,0.5,0.835534691658661,0.303902603109536,6.31462990544833,1.34096989270749,0.5,10.0785914254888,0.999497705839706,0.5,0.912183174686813,0.308699366241382,6.06270878493666,1.25274509548199,0.5,-40.1041143680951
164,1,19,B,1,0,a,63,1,0.73,1B,0B,1,0,1,0,B10,2.18363204958509,2.83321334405622,0.99262681786067,0.0439084126565934,0.0439084126565934,0.5,0.5,0.0874782126444303,0.5,0.0439084126565934,0.0439084126565934,0.5,0.0439084126565934,0.0839609279091434,0.5,0.5,0.0439084126565934,0.0877870894236058,0.360902603109536,0,0,1,0B,1B,0.5,0.0874782126444303,0.91252178735557,0.0874782126444303,0,0,-0.5,-0.456091587343407,0.5,0.835534691658661,0.303902603109536,6.31462990544833,1.34096989270749,0.5,5.83941279252679,0.998105830846989,0.5,0.912183174686813,0.308699366241382,6.06270878493666,1.25274509548199,0.5,-40.1041143680951
164,1,20,A,2,0,l,27,0,0.73,2A,0A,0,1,1,0,A20,3.25279935771583,3.55534806148941,0.99262681786067,0.0439084126565934,0.0439084126565934,0.5,0.0439084126565934,0.0874782126444303,0.5,0.0439084126565934,0.0439084126565934,0.5,0.0439084126565934,0.0839609279091434,0.5,0.5,0.0439084126565934,0.0877870894236058,0.362902603109536,0,0,1,0A,2A,0.99262681786067,0.0439084126565934,0.999658988461888,0.000341011538111563,1,0,-0.99262681786067,-0.905457481995415,0.5,0.835534691658661,0.303902603109536,6.31462990544833,1.34096989270749,0.5,8.72728550545611,0.999494140090132,0.5,0.912183174686813,0.308699366241382,6.06270878493666,1.25274509548199,0.5,-40.1041143680951
164,1,21,D,0,3,l,9,1,0.73,0D,3D,0,1,0,1,D03,2.97806493255583,3.58351893845611,0.0871693358652549,0.0439084126565934,0.0439084126565934,0.5,0.0439084126565934,0.0874782126444303,0.5,0.0439084126565934,0.0439084126565934,0.5,0.0439084126565934,0.0839609279091434,0.5,0.5,0.0439084126565934,0.0877870894236058,0.381902603109536,1,1,0,0D,3D,0.5,0.0877870894236058,0.912212910576394,0.0877870894236058,0,0,-0.5,-0.456091587343407,0.5,0.835534691658661,0.303902603109536,6.31462990544833,1.34096989270749,0.5,7.94138514354541,0.998100005304779,0.5,0.912183174686813,0.308699366241382,6.06270878493666,1.25274509548199,0.5,-40.1041143680951
164,1,22,C,2,3,a,63,1,0.73,2C,3C,1,0,1,0,C23,1.06403888094304,2.91777073208428,0.0871693358652549,0.0439084126565934,0.0439084126565934,0.5,0.0439084126565934,0.0874782126444303,0.5,0.0439084126565934,0.0439084126565934,0.5,0.0439084126565934,0.0839609279091434,0.0439084126565934,0.5,0.0439084126565934,0.0877870894236058,0.448902603109536,0,0,1,3C,2C,0.0839609279091434,0.0439084126565934,0.666198307795067,0.333801692204933,0,0,-0.0839609279091434,-0.0765877457698131,0.5,0.835534691658661,0.303902603109536,6.31462990544833,1.34096989270749,0.5,3.12285455891277,0.925882600510275,0.5,0.912183174686813,0.308699366241382,6.06270878493666,1.25274509548199,0.5,-40.1041143680951
164,1,23,B,3,1,l,27,0,0.73,3B,1B,0,1,1,0,B31,2.35619520839198,3.63758615972639,0.0871693358652549,0.0439084126565934,0.0439084126565934,0.5,0.0439084126565934,0.0874782126444303,0.5,0.0439084126565934,0.0439084126565934,0.5,0.0439084126565934,0.00737318213933032,0.0439084126565934,0.5,0.0439084126565934,0.0877870894236058,0.625902603109536,0,0,1,1B,3B,0.0874782126444303,0.0439084126565934,0.676104250885577,0.323895749114423,1,0,-0.0874782126444303,-0.0797961537259246,0.5,0.835534691658661,0.303902603109536,6.31462990544833,1.34096989270749,0.5,1.363353057341,0.935534196774197,0.5,0.912183174686813,0.308699366241382,6.06270878493666,1.25274509548199,0.5,-40.1041143680951
164,1,24,C,3,2,l,63,1,0.73,3C,2C,0,1,0,1,C32,1.14876107762834,2.9704144655697,0.0871693358652549,0.0439084126565934,0.0439084126565934,0.5,0.0439084126565934,0.00768205891850575,0.5,0.0439084126565934,0.0439084126565934,0.5,0.0439084126565934,0.00737318213933032,0.0439084126565934,0.5,0.0439084126565934,0.0877870894236058,0.573902603109536,0,0,1,2C,3C,0.0439084126565934,0.00737318213933032,0.860776894014106,0.139223105985894,1,1,0.956091587343407,0.872130659434263,0.5,0.835534691658661,0.303902603109536,6.31462990544833,1.34096989270749,0.5,1.06054855580938,0.995849631075765,0.5,0.912183174686813,0.308699366241382,6.06270878493666,1.25274509548199,0.5,-40.1041143680951
164,1,25,D,2,3,l,63,1,0.73,2D,3D,0,1,0,1,D23,0.737863089219758,2.07944154167984,0.0871693358652549,0.0439084126565934,0.0439084126565934,0.5,0.0439084126565934,0.00768205891850575,0.5,0.0439084126565934,0.0439084126565934,0.5,0.916039072090857,0.00737318213933032,0.0439084126565934,0.5,0.0439084126565934,0.0877870894236058,0.496902603109536,0,0,1,3D,2D,0.0877870894236058,0.0439084126565934,0.676949671819839,0.323050328180161,1,1,0.912212910576394,0.832105268759873,0.5,0.835534691658661,0.303902603109536,6.31462990544833,1.34096989270749,0.5,2.68098794695038,0.936274945991547,0.5,0.912183174686813,0.308699366241382,6.06270878493666,1.25274509548199,0.5,-40.1041143680951
164,1,26,B,1,0,a,63,1,0.73,1B,0B,1,0,1,0,B10,2.30181762056521,2.6149597780362,0.0871693358652549,0.0439084126565934,0.0439084126565934,0.5,0.0439084126565934,0.00768205891850575,0.5,0.0439084126565934,0.0439084126565934,0.5,0.916039072090857,0.00737318213933032,0.0439084126565934,0.5,0.0439084126565934,0.919892358183479,0.363902603109536,0,0,1,0B,1B,0.0439084126565934,0.00768205891850575,0.855747261088742,0.144252738911258,0,0,-0.0439084126565934,-0.04005251525255,0.5,0.835534691658661,0.303902603109536,6.31462990544833,1.34096989270749,0.5,4.91851482890491,0.995520031758379,0.5,0.912183174686813,0.308699366241382,6.06270878493666,1.25274509548199,0.5,-40.1041143680951
164,1,27,A,0,3,a,9,1,0.73,0A,3A,1,0,1,0,A03,2.50253688389345,3.73766961828337,0.0871693358652549,0.0439084126565934,0.0439084126565934,0.5,0.00385589740404339,0.00768205891850575,0.5,0.0439084126565934,0.0439084126565934,0.5,0.916039072090857,0.00737318213933032,0.0439084126565934,0.5,0.0439084126565934,0.919892358183479,0.446902603109536,0,0,1,3A,0A,0.5,0.0871693358652549,0.912830664134745,0.0871693358652549,0,0,-0.5,-0.456091587343407,0.5,0.835534691658661,0.303902603109536,6.31462990544833,1.34096989270749,0.5,4.78845859532337,0.998115271242504,0.5,0.912183174686813,0.308699366241382,6.06270878493666,1.25274509548199,0.5,-40.1041143680951
164,1,28,D,2,3,l,63,0,0.73,2D,3D,0,1,1,0,D23,1.27480676157899,1.96944064646551,0.0871693358652549,0.0439084126565934,0.0439084126565934,0.0439084126565934,0.00385589740404339,0.00768205891850575,0.5,0.0439084126565934,0.0439084126565934,0.5,0.916039072090857,0.00737318213933032,0.0439084126565934,0.5,0.0439084126565934,0.919892358183479,0.621902603109536,0,0,1,3D,2D,0.919892358183479,0.0439084126565934,0.996016619786982,0.00398338021301782,1,0,-0.919892358183479,-0.839110331657945,0.5,0.835534691658661,0.303902603109536,6.31462990544833,1.34096989270749,0.5,0.111856429594852,0.999466552459054,0.5,0.912183174686813,0.308699366241382,6.06270878493666,1.25274509548199,0.5,-40.1041143680951
164,1,29,C,2,0,a,27,1,0.73,2C,0C,1,0,1,0,C20,0.453520769817711,2.68557734525015,0.0871693358652549,0.0439084126565934,0.0439084126565934,0.0439084126565934,0.00385589740404339,0.00768205891850575,0.5,0.0439084126565934,0.0439084126565934,0.5,0.916039072090857,0.00737318213933032,0.0439084126565934,0.5,0.0439084126565934,0.080782026525534,0.403902603109536,1,1,0,2C,0C,0.916039072090857,0.0439084126565934,0.995808328633256,0.00419167136674381,1,1,0.0839609279091434,0.0765877457698131,0.5,0.835534691658661,0.303902603109536,6.31462990544833,1.34096989270749,0.5,8.37742212955753,0.999464325520179,0.5,0.912183174686813,0.308699366241382,6.06270878493666,1.25274509548199,0.5,-40.1041143680951
164,1,30,A,1,0,l,63,0,0.73,1A,0A,0,1,1,0,A10,0.036531327540096,3.11351530921037,0.0871693358652549,0.0439084126565934,0.0439084126565934,0.0439084126565934,0.00385589740404339,0.00768205891850575,0.5,0.0439084126565934,0.0439084126565934,0.5,0.99262681786067,0.00737318213933032,0.0439084126565934,0.5,0.0439084126565934,0.080782026525534,0.498902603109536,0,0,1,0A,1A,0.0871693358652549,0.0439084126565934,0.675254970061868,0.324745029938132,1,0,-0.0871693358652549,-0.0795144015249093,0.5,0.835534691658661,0.303902603109536,6.31462990544833,1.34096989270749,0.5,2.64420309665996,0.934816192349079,0.5,0.912183174686813,0.308699366241382,6.06270878493666,1.25274509548199,0.5,-40.1041143680951
164,1,31,B,1,0,a,63,1,0.73,1B,0B,1,0,1,0,B10,2.73373607793957,2.4423470353692,0.0076549343403456,0.0439084126565934,0.0439084126565934,0.0439084126565934,0.00385589740404339,0.00768205891850575,0.5,0.0439084126565934,0.0439084126565934,0.5,0.99262681786067,0.00737318213933032,0.0439084126565934,0.5,0.0439084126565934,0.080782026525534,0.831902603109536,1,1,0,1B,0B,0.00768205891850575,0.00385589740404339,0.666663337067757,0.333336662932243,1,1,0.992317941081494,0.9051757297944,0.5,0.835534691658661,0.303902603109536,6.31462990544833,1.34096989270749,0.5,0.46970237983344,0.926720594326683,0.5,0.912183174686813,0.308699366241382,6.06270878493666,1.25274509548199,0.5,-40.1041143680951
164,1,32,D,3,1,a,27,1,0.73,3D,1D,1,0,1,0,D31,0.322379721941646,3.85014760171006,0.0076549343403456,0.0439084126565934,0.0439084126565934,0.0439084126565934,0.00385589740404339,0.912857788712905,0.5,0.0439084126565934,0.0439084126565934,0.5,0.99262681786067,0.00737318213933032,0.0439084126565934,0.5,0.0439084126565934,0.080782026525534,0.404902603109536,0,0,1,1D,3D,0.5,0.080782026525534,0.919217973474466,0.080782026525534,0,0,-0.5,-0.456091587343407,0.5,0.835534691658661,0.303902603109536,6.31462990544833,1.34096989270749,0.5,7.59277936191549,0.998288192512046,0.5,0.912183174686813,0.308699366241382,6.06270878493666,1.25274509548199,0.5,-40.1041143680951
164,1,33,C,3,2,l,63,1,0.73,3C,2C,0,1,0,1,C32,1.20226511433561,2.77258872223978,0.0076549343403456,0.0439084126565934,0.0439084126565934,0.0439084126565934,0.00385589740404339,0.912857788712905,0.5,0.0439084126565934,0.0439084126565934,0.5,0.99262681786067,0.00737318213933032,0.0439084126565934,0.0439084126565934,0.0439084126565934,0.080782026525534,0.524902603109536,0,0,1,2C,3C,0.99262681786067,0.00737318213933032,0.999944828606326,5.5171393673752e-05,1,1,0.00737318213933036,0.00672569269139848,0.5,0.835534691658661,0.303902603109536,6.31462990544833,1.34096989270749,0.5,0.839638348871014,0.999497273509762,0.5,0.912183174686813,0.308699366241382,6.06270878493666,1.25274509548199,0.5,-40.1041143680951
164,1,34,B,1,0,a,63,0,0.73,1B,0B,1,0,0,1,B10,1.68486270573821,2.28238238567653,0.0076549343403456,0.0439084126565934,0.0439084126565934,0.0439084126565934,0.00385589740404339,0.912857788712905,0.5,0.0439084126565934,0.0439084126565934,0.5,0.999352510552068,0.00737318213933032,0.0439084126565934,0.0439084126565934,0.0439084126565934,0.080782026525534,0.350902603109536,1,1,0,1B,0B,0.912857788712905,0.00385589740404339,0.999630624313775,0.000369375686225082,1,0,-0.912857788712905,-0.832693515745722,0.5,0.835534691658661,0.303902603109536,6.31462990544833,1.34096989270749,0.5,5.65693088014605,0.99949407099246,0.5,0.912183174686813,0.308699366241382,6.06270878493666,1.25274509548199,0.5,-40.1041143680951
164,1,35,A,0,1,a,63,1,0.73,0A,1A,1,0,1,0,A01,1.04033455101719,2.52572864430826,0.0076549343403456,0.0439084126565934,0.0439084126565934,0.0439084126565934,0.00385589740404339,0.0801642729671832,0.5,0.0439084126565934,0.0439084126565934,0.5,0.999352510552068,0.00737318213933032,0.0439084126565934,0.0439084126565934,0.0439084126565934,0.080782026525534,0.504902603109536,0,0,1,1A,0A,0.0439084126565934,0.0076549343403456,0.856186716886103,0.143813283113897,0,0,-0.0439084126565934,-0.04005251525255,0.5,0.835534691658661,0.303902603109536,6.31462990544833,1.34096989270749,0.5,2.53750567386182,0.995537607666431,0.5,0.912183174686813,0.308699366241382,6.06270878493666,1.25274509548199,0.5,-40.1041143680951
164,1,36,C,1,2,l,9,1,0.73,1C,2C,0,1,0,1,C12,1.3397276513909,3.93182563272433,0.0076549343403456,0.00385589740404339,0.0439084126565934,0.0439084126565934,0.00385589740404339,0.0801642729671832,0.5,0.0439084126565934,0.0439084126565934,0.5,0.999352510552068,0.00737318213933032,0.0439084126565934,0.0439084126565934,0.0439084126565934,0.080782026525534,0.345902603109536,0,0,1,2C,1C,0.999352510552068,0.5,0.999352510552068,0.000647489447931915,1,1,0.000647489447931915,0.000590628980190746,0.5,0.835534691658661,0.303902603109536,6.31462990544833,1.34096989270749,0.5,4.00662091861269,0.999492314560058,0.5,0.912183174686813,0.308699366241382,6.06270878493666,1.25274509548199,0.5,-40.1041143680951
164,1,37,A,1,0,l,63,1,0.73,1A,0A,0,1,0,1,A10,2.48763723817426,2.85263142991332,0.0076549343403456,0.00385589740404339,0.0439084126565934,0.0439084126565934,0.00385589740404339,0.0801642729671832,0.5,0.0439084126565934,0.0439084126565934,0.5,0.999943139532259,0.00737318213933032,0.0439084126565934,0.0439084126565934,0.0439084126565934,0.080782026525534,0.448902603109536,0,0,1,0A,1A,0.0076549343403456,0.00385589740404339,0.665870755981195,0.334129244018805,1,1,0.992345065659654,0.905200472378218,0.5,0.835534691658661,0.303902603109536,6.31462990544833,1.34096989270749,0.5,3.11702759412075,0.925414712397029,0.5,0.912183174686813,0.308699366241382,6.06270878493666,1.25274509548199,0.5,-40.1041143680951
164,1,38,D,3,1,a,27,0,0.73,3D,1D,1,0,0,1,D31,2.22226033190013,3.27714473299218,0.912855406718563,0.00385589740404339,0.0439084126565934,0.0439084126565934,0.00385589740404339,0.0801642729671832,0.5,0.0439084126565934,0.0439084126565934,0.5,0.999943139532259,0.00737318213933032,0.0439084126565934,0.0439084126565934,0.0439084126565934,0.080782026525534,0.804902603109536,1,1,0,3D,1D,0.080782026525534,0.0439084126565934,0.656780344478267,0.343219655521733,1,0,-0.080782026525534,-0.073688005413696,0.5,0.835534691658661,0.303902603109536,6.31462990544833,1.34096989270749,0.5,0.564200657546612,0.915479293048561,0.5,0.912183174686813,0.308699366241382,6.06270878493666,1.25274509548199,0.5,-40.1041143680951
164,1,39,B,0,1,l,63,1,0.73,0B,1B,0,1,0,1,B01,1.93974666542908,3.29583686600433,0.912855406718563,0.00385589740404339,0.0439084126565934,0.0439084126565934,0.00385589740404339,0.0801642729671832,0.5,0.0439084126565934,0.0439084126565934,0.5,0.999943139532259,0.00737318213933032,0.0439084126565934,0.0439084126565934,0.0439084126565934,0.00709402111183804,0.455902603109536,0,0,1,1B,0B,0.0801642729671832,0.00385589740404339,0.957473515079752,0.0425264849202479,1,1,0.919835727032817,0.839058673675148,0.5,0.835534691658661,0.303902603109536,6.31462990544833,1.34096989270749,0.5,3.91360042534268,0.999040065323407,0.5,0.912183174686813,0.308699366241382,6.06270878493666,1.25274509548199,0.5,-40.1041143680951
164,1,40,C,2,3,a,63,0,0.73,2C,3C,1,0,0,1,C23,0.495640022054282,2.90872089656436,0.912855406718563,0.00385589740404339,0.0439084126565934,0.0439084126565934,0.00385589740404339,0.919222946642331,0.5,0.0439084126565934,0.0439084126565934,0.5,0.999943139532259,0.00737318213933032,0.0439084126565934,0.0439084126565934,0.0439084126565934,0.00709402111183804,0.404902603109536,1,1,0,2C,3C,0.999943139532259,0.00737318213933032,0.999999577619464,4.22380536435618e-07,1,0,-0.999943139532259,-0.912131307524835,0.5,0.835534691658661,0.303902603109536,6.31462990544833,1.34096989270749,0.5,8.29369249805074,0.999496859935633,0.5,0.912183174686813,0.308699366241382,6.06270878493666,1.25274509548199,0.5,-40.1041143680951
164,1,41,A,2,0,l,27,1,0.73,2A,0A,0,1,0,1,A20,2.56168452909794,3.3322045101752,0.912855406718563,0.00385589740404339,0.0439084126565934,0.0439084126565934,0.00385589740404339,0.919222946642331,0.5,0.0439084126565934,0.0439084126565934,0.5,0.0878118320074239,0.00737318213933032,0.0439084126565934,0.0439084126565934,0.0439084126565934,0.00709402111183804,0.350902603109536,0,0,1,0A,2A,0.912855406718563,0.0439084126565934,0.99563497395681,0.00436502604319046,1,1,0.0871445932814368,0.0794918317562521,0.5,0.835534691658661,0.303902603109536,6.31462990544833,1.34096989270749,0.5,5.55999637428393,0.999463740608086,0.5,0.912183174686813,0.308699366241382,6.06270878493666,1.25274509548199,0.5,-40.1041143680951
164,1,42,D,3,2,a,63,1,0.73,3D,2D,1,0,1,0,D32,1.35393994521015,4.04305126783455,0.992347238474815,0.00385589740404339,0.0439084126565934,0.0439084126565934,0.00385589740404339,0.919222946642331,0.5,0.0439084126565934,0.0439084126565934,0.5,0.0878118320074239,0.00737318213933032,0.0439084126565934,0.0439084126565934,0.0439084126565934,0.00709402111183804,0.451902603109536,0,0,1,2D,3D,0.0439084126565934,0.00709402111183804,0.865371046211922,0.134628953788078,0,0,-0.0439084126565934,-0.04005251525255,0.5,0.835534691658661,0.303902603109536,6.31462990544833,1.34096989270749,0.5,4.6098654280322,0.996133314721752,0.5,0.912183174686813,0.308699366241382,6.06270878493666,1.25274509548199,0.5,-40.1041143680951
164,1,43,B,3,1,l,27,1,0.73,3B,1B,0,1,0,1,B31,2.57829595408353,3.36729582998647,0.992347238474815,0.00385589740404339,0.0439084126565934,0.0439084126565934,0.00385589740404339,0.919222946642331,0.5,0.0439084126565934,0.0439084126565934,0.5,0.0878118320074239,0.00737318213933032,0.0439084126565934,0.0439084126565934,0.00385589740404339,0.00709402111183804,0.458902603109536,0,0,1,1B,3B,0.919222946642331,0.0439084126565934,0.995980553535064,0.00401944646493603,1,1,0.080777053357669,0.0736834689736447,0.5,0.835534691658661,0.303902603109536,6.31462990544833,1.34096989270749,0.5,3.32367123303606,0.999466705566765,0.5,0.912183174686813,0.308699366241382,6.06270878493666,1.25274509548199,0.5,-40.1041143680951
164,1,44,C,2,3,a,63,1,0.73,2C,3C,1,0,1,0,C23,0.365602739466778,2.69124308278583,0.992347238474815,0.00385589740404339,0.0439084126565934,0.0439084126565934,0.00385589740404339,0.992906415615976,0.5,0.0439084126565934,0.0439084126565934,0.5,0.0878118320074239,0.00737318213933032,0.0439084126565934,0.0439084126565934,0.00385589740404339,0.00709402111183804,0.482902603109536,1,1,0,2C,3C,0.0878118320074239,0.00737318213933032,0.928365941973066,0.0716340580269337,1,1,0.912188167992576,0.832082698991216,0.5,0.835534691658661,0.303902603109536,6.31462990544833,1.34096989270749,0.5,2.75095388375042,0.998506989838483,0.5,0.912183174686813,0.308699366241382,6.06270878493666,1.25274509548199,0.5,-40.1041143680951
