ID,session,trialNr,mod2Stim,visStimLeft,visStimRight,correctKey,frequency,rewardAccurate,probFB,stimPairLeft,stimPairRight,leftCorrect,rightCorrect,pCorrectLeft,pCorrectRight,triplet,rt,surprise,0A belief,1A belief,2A belief,3A belief,0B belief,1B belief,2B belief,3B belief,0C belief,1C belief,2C belief,3C belief,0D belief,1D belief,2D belief,3D belief,reactionTime,choice,choiceLeft,choiceRight,chosenPair,otherPair,beliefPair,beliefOtherPair,beliefPairNorm,beliefOtherPairNorm,choiceAccurate,reward,rewardPE,update2,sim_CBCsimpleRW_CBCdriftDiffusionLR_startBelief,sim_CBCsimpleRW_CBCdriftDiffusionLR_alpha1,sim_CBCsimpleRW_CBCdriftDiffusionLR_nonDecisionTime,sim_CBCsimpleRW_CBCdriftDiffusionLR_weight,sim_CBCsimpleRW_CBCdriftDiffusionLR_startingBoundary,sim_CBCsimpleRW_CBCdriftDiffusionLR_startingPoint,lik,corrLik,fitCBCsimpleRW_CBCdriftDiffusionLR_startBelief,fitCBCsimpleRW_CBCdriftDiffusionLR_alpha1,fitCBCsimpleRW_CBCdriftDiffusionLR_nonDecisionTime,fitCBCsimpleRW_CBCdriftDiffusionLR_weight,fitCBCsimpleRW_CBCdriftDiffusionLR_startingBoundary,fitCBCsimpleRW_CBCdriftDiffusionLR_startingPoint,fit_CBCsimpleRW_CBCdriftDiffusionLR_NLL
160,1,1,A,0,1,a,63,1,0.73,0A,1A,1,0,1,0,A01,0.28475559743683,2.77258872223978,0.5,0.5,0.5,0.5,0.5,0.5,0.5,0.5,0.5,0.5,0.5,0.5,0.5,0.5,0.5,0.5,5.46984795623116,0,0,1,1A,0A,0.5,0.5,0.5,0.5,0,0,-0.5,-0.373169360039831,0.5,0.697058009923025,0.379847956231159,6.18163784467798,4.32358605604454,0.5,0.044870404202416,0.501293498296075,0.5,0.746338720079663,0.35066911398171,5.60828074288586,4.54362726572543,0.5,35.1739227435662
160,1,2,D,2,3,l,63,1,0.73,2D,3D,0,1,0,1,D23,3.05074386139869,2.83321334405622,0.5,0.126830639960169,0.5,0.5,0.5,0.5,0.5,0.5,0.5,0.5,0.5,0.5,0.5,0.5,0.5,0.5,7.17484795623116,1,1,0,2D,3D,0.5,0.5,0.5,0.5,0,0,-0.5,-0.373169360039831,0.5,0.697058009923025,0.379847956231159,6.18163784467798,4.32358605604454,0.5,0.0297295098582735,0.49917144272341,0.5,0.746338720079663,0.35066911398171,5.60828074288586,4.54362726572543,0.5,35.1739227435662
160,1,3,C,0,2,l,27,1,0.73,0C,2C,0,1,0,1,C02,0.471541136048328,2.89037175789616,0.5,0.126830639960169,0.5,0.5,0.5,0.5,0.5,0.5,0.5,0.5,0.5,0.5,0.5,0.5,0.126830639960169,0.5,5.65184795623116,1,1,0,0C,2C,0.5,0.5,0.5,0.5,0,0,-0.5,-0.373169360039831,0.5,0.697058009923025,0.379847956231159,6.18163784467798,4.32358605604454,0.5,0.0428504402776781,0.499988202830568,0.5,0.746338720079663,0.35066911398171,5.60828074288586,4.54362726572543,0.5,35.1739227435662
160,1,4,A,0,1,a,63,1,0.73,0A,1A,1,0,1,0,A01,1.31058539731945,2.2512917986065,0.5,0.126830639960169,0.5,0.5,0.5,0.5,0.5,0.5,0.126830639960169,0.5,0.5,0.5,0.5,0.5,0.126830639960169,0.5,0.992847956231159,1,1,0,0A,1A,0.5,0.126830639960169,0.797663624151768,0.202336375848232,1,1,0.5,0.373169360039831,0.5,0.697058009923025,0.379847956231159,6.18163784467798,4.32358605604454,0.5,1.73880862423431,0.999999741307777,0.5,0.746338720079663,0.35066911398171,5.60828074288586,4.54362726572543,0.5,35.1739227435662
160,1,5,B,1,3,a,27,1,0.73,1B,3B,1,0,1,0,B13,0.896802533503307,2.99573227355399,0.873169360039831,0.126830639960169,0.5,0.5,0.5,0.5,0.5,0.5,0.126830639960169,0.5,0.5,0.5,0.5,0.5,0.126830639960169,0.5,4.07384795623116,0,0,1,3B,1B,0.5,0.5,0.5,0.5,0,0,-0.5,-0.373169360039831,0.5,0.697058009923025,0.379847956231159,6.18163784467798,4.32358605604454,0.5,0.062449293652506,0.500863883022601,0.5,0.746338720079663,0.35066911398171,5.60828074288586,4.54362726572543,0.5,35.1739227435662
160,1,6,C,3,2,l,63,1,0.73,3C,2C,0,1,0,1,C32,1.0061206942238,3.04452243772342,0.873169360039831,0.126830639960169,0.5,0.5,0.5,0.5,0.5,0.126830639960169,0.126830639960169,0.5,0.5,0.5,0.5,0.5,0.126830639960169,0.5,6.19684795623116,1,1,0,3C,2C,0.5,0.5,0.5,0.5,0,0,-0.5,-0.373169360039831,0.5,0.697058009923025,0.379847956231159,6.18163784467798,4.32358605604454,0.5,0.0376022224150748,0.499760925469052,0.5,0.746338720079663,0.35066911398171,5.60828074288586,4.54362726572543,0.5,35.1739227435662
160,1,7,D,3,2,a,63,0,0.73,3D,2D,1,0,0,1,D32,2.29905395775933,3.09104245335832,0.873169360039831,0.126830639960169,0.5,0.5,0.5,0.5,0.5,0.126830639960169,0.126830639960169,0.5,0.5,0.126830639960169,0.5,0.5,0.126830639960169,0.5,1.87684795623116,1,1,0,3D,2D,0.5,0.126830639960169,0.797663624151768,0.202336375848232,1,0,-0.5,-0.373169360039831,0.5,0.697058009923025,0.379847956231159,6.18163784467798,4.32358605604454,0.5,0.0351641049236523,0.999999743178277,0.5,0.746338720079663,0.35066911398171,5.60828074288586,4.54362726572543,0.5,35.1739227435662
160,1,8,B,0,1,l,63,1,0.73,0B,1B,0,1,0,1,B01,0.145490651642212,3.13549421592915,0.873169360039831,0.126830639960169,0.5,0.5,0.5,0.5,0.5,0.126830639960169,0.126830639960169,0.5,0.5,0.126830639960169,0.5,0.5,0.126830639960169,0.126830639960169,4.69684795623116,1,1,0,0B,1B,0.5,0.5,0.5,0.5,0,0,-0.5,-0.373169360039831,0.5,0.697058009923025,0.379847956231159,6.18163784467798,4.32358605604454,0.5,0.0537558022654035,0.499525684910101,0.5,0.746338720079663,0.35066911398171,5.60828074288586,4.54362726572543,0.5,35.1739227435662
160,1,9,A,2,0,l,27,0,0.73,2A,0A,0,1,1,0,A20,1.11763776111814,3.17805383034795,0.873169360039831,0.126830639960169,0.5,0.5,0.126830639960169,0.5,0.5,0.126830639960169,0.126830639960169,0.5,0.5,0.126830639960169,0.5,0.5,0.126830639960169,0.126830639960169,1.29584795623116,0,0,1,0A,2A,0.873169360039831,0.5,0.635878854749937,0.364121145250063,1,0,-0.873169360039831,-0.651680102584906,0.5,0.697058009923025,0.379847956231159,6.18163784467798,4.32358605604454,0.5,0.683355184668946,0.999010419226475,0.5,0.746338720079663,0.35066911398171,5.60828074288586,4.54362726572543,0.5,35.1739227435662
160,1,10,D,3,0,a,9,1,0.73,3D,0D,1,0,1,0,D30,1.71356109939667,3.2188758248682,0.221489257454926,0.126830639960169,0.5,0.5,0.126830639960169,0.5,0.5,0.126830639960169,0.126830639960169,0.5,0.5,0.126830639960169,0.5,0.5,0.126830639960169,0.126830639960169,0.839847956231159,0,0,1,0D,3D,0.5,0.126830639960169,0.797663624151768,0.202336375848232,0,0,-0.5,-0.373169360039831,0.5,0.697058009923025,0.379847956231159,6.18163784467798,4.32358605604454,0.5,1.74524989658591,0.999999741022161,0.5,0.746338720079663,0.35066911398171,5.60828074288586,4.54362726572543,0.5,35.1739227435662
160,1,11,C,2,3,a,63,0,0.73,2C,3C,1,0,0,1,C23,1.16573893143627,3.25809653802148,0.221489257454926,0.126830639960169,0.5,0.5,0.126830639960169,0.5,0.5,0.126830639960169,0.126830639960169,0.5,0.5,0.126830639960169,0.126830639960169,0.5,0.126830639960169,0.126830639960169,1.16884795623116,1,1,0,2C,3C,0.5,0.126830639960169,0.797663624151768,0.202336375848232,1,0,-0.5,-0.373169360039831,0.5,0.697058009923025,0.379847956231159,6.18163784467798,4.32358605604454,0.5,1.07639681265754,0.999999741387817,0.5,0.746338720079663,0.35066911398171,5.60828074288586,4.54362726572543,0.5,35.1739227435662
160,1,12,B,0,1,l,63,1,0.73,0B,1B,0,1,0,1,B01,1.41821817849061,2.60268968544438,0.221489257454926,0.126830639960169,0.5,0.5,0.126830639960169,0.5,0.5,0.126830639960169,0.126830639960169,0.5,0.126830639960169,0.126830639960169,0.126830639960169,0.5,0.126830639960169,0.126830639960169,1.01584795623116,0,0,1,1B,0B,0.5,0.126830639960169,0.797663624151768,0.202336375848232,1,1,0.5,0.373169360039831,0.5,0.697058009923025,0.379847956231159,6.18163784467798,4.32358605604454,0.5,1.66733407712552,0.999999741657896,0.5,0.746338720079663,0.35066911398171,5.60828074288586,4.54362726572543,0.5,35.1739227435662
160,1,13,D,2,3,l,63,0,0.73,2D,3D,0,1,1,0,D23,2.98580646984384,2.63905732961526,0.221489257454926,0.126830639960169,0.5,0.5,0.126830639960169,0.873169360039831,0.5,0.126830639960169,0.126830639960169,0.5,0.126830639960169,0.126830639960169,0.126830639960169,0.5,0.126830639960169,0.126830639960169,6.47784795623116,0,0,1,3D,2D,0.126830639960169,0.126830639960169,0.5,0.5,1,0,-0.126830639960169,-0.0946586174947568,0.5,0.697058009923025,0.379847956231159,6.18163784467798,4.32358605604454,0.5,0.0350300331468168,0.497913292233137,0.5,0.746338720079663,0.35066911398171,5.60828074288586,4.54362726572543,0.5,35.1739227435662
160,1,14,C,2,3,a,63,1,0.73,2C,3C,1,0,1,0,C23,1.00508732818766,2.67414864942653,0.221489257454926,0.126830639960169,0.5,0.5,0.126830639960169,0.873169360039831,0.5,0.126830639960169,0.126830639960169,0.5,0.126830639960169,0.126830639960169,0.126830639960169,0.5,0.126830639960169,0.0321720224654119,7.37784795623116,0,0,1,3C,2C,0.126830639960169,0.126830639960169,0.5,0.5,0,0,-0.126830639960169,-0.0946586174947568,0.5,0.697058009923025,0.379847956231159,6.18163784467798,4.32358605604454,0.5,0.028347061435299,0.499623512438188,0.5,0.746338720079663,0.35066911398171,5.60828074288586,4.54362726572543,0.5,35.1739227435662
160,1,15,B,3,1,l,27,1,0.73,3B,1B,0,1,0,1,B31,2.96706627179113,3.40119738166216,0.221489257454926,0.126830639960169,0.5,0.5,0.126830639960169,0.873169360039831,0.5,0.126830639960169,0.126830639960169,0.5,0.126830639960169,0.0321720224654119,0.126830639960169,0.5,0.126830639960169,0.0321720224654119,0.760847956231159,0,0,1,1B,3B,0.873169360039831,0.126830639960169,0.873169360039831,0.126830639960169,1,1,0.126830639960169,0.0946586174947568,0.5,0.697058009923025,0.379847956231159,6.18163784467798,4.32358605604454,0.5,2.37073609232682,0.999999994507438,0.5,0.746338720079663,0.35066911398171,5.60828074288586,4.54362726572543,0.5,35.1739227435662
160,1,16,A,0,3,a,9,1,0.73,0A,3A,1,0,1,0,A03,0.685718922841884,3.43398720448515,0.221489257454926,0.126830639960169,0.5,0.5,0.126830639960169,0.967827977534588,0.5,0.126830639960169,0.126830639960169,0.5,0.126830639960169,0.0321720224654119,0.126830639960169,0.5,0.126830639960169,0.0321720224654119,1.45984795623116,0,0,1,3A,0A,0.5,0.221489257454926,0.69301101136802,0.30698898863198,0,0,-0.5,-0.373169360039831,0.5,0.697058009923025,0.379847956231159,6.18163784467798,4.32358605604454,0.5,0.77001808668225,0.999946534174066,0.5,0.746338720079663,0.35066911398171,5.60828074288586,4.54362726572543,0.5,35.1739227435662
160,1,17,D,2,3,l,63,1,0.73,2D,3D,0,1,0,1,D23,2.66095135510781,2.36712361413162,0.221489257454926,0.126830639960169,0.5,0.126830639960169,0.126830639960169,0.967827977534588,0.5,0.126830639960169,0.126830639960169,0.5,0.126830639960169,0.0321720224654119,0.126830639960169,0.5,0.126830639960169,0.0321720224654119,1.01984795623116,1,1,0,2D,3D,0.126830639960169,0.0321720224654119,0.797663624151768,0.202336375848232,0,0,-0.126830639960169,-0.0946586174947568,0.5,0.697058009923025,0.379847956231159,6.18163784467798,4.32358605604454,0.5,1.65381010983801,0.999999740135741,0.5,0.746338720079663,0.35066911398171,5.60828074288586,4.54362726572543,0.5,35.1739227435662
160,1,18,C,0,2,l,27,0,0.73,0C,2C,0,1,1,0,C02,1.29289481427196,2.80336038090653,0.221489257454926,0.126830639960169,0.5,0.126830639960169,0.126830639960169,0.967827977534588,0.5,0.126830639960169,0.126830639960169,0.5,0.126830639960169,0.0321720224654119,0.126830639960169,0.5,0.0321720224654119,0.0321720224654119,5.21984795623116,1,1,0,0C,2C,0.126830639960169,0.126830639960169,0.5,0.5,0,1,0.873169360039831,0.651680102584906,0.5,0.697058009923025,0.379847956231159,6.18163784467798,4.32358605604454,0.5,0.0474238287266687,0.49913770817146,0.5,0.746338720079663,0.35066911398171,5.60828074288586,4.54362726572543,0.5,35.1739227435662
160,1,19,A,0,1,a,63,1,0.73,0A,1A,1,0,1,0,A01,1.4081610340739,2.42774823594805,0.221489257454926,0.126830639960169,0.5,0.126830639960169,0.126830639960169,0.967827977534588,0.5,0.126830639960169,0.778510742545074,0.5,0.126830639960169,0.0321720224654119,0.126830639960169,0.5,0.0321720224654119,0.0321720224654119,2.74984795623116,1,1,0,0A,1A,0.221489257454926,0.126830639960169,0.635878854749937,0.364121145250063,1,1,0.778510742545074,0.581032711159359,0.5,0.697058009923025,0.379847956231159,6.18163784467798,4.32358605604454,0.5,0.163836018265563,0.999010408968264,0.5,0.746338720079663,0.35066911398171,5.60828074288586,4.54362726572543,0.5,35.1739227435662
160,1,20,B,1,0,a,63,0,0.73,1B,0B,1,0,0,1,B10,1.63356645376101,3.55534806148941,0.802521968614284,0.126830639960169,0.5,0.126830639960169,0.126830639960169,0.967827977534588,0.5,0.126830639960169,0.778510742545074,0.5,0.126830639960169,0.0321720224654119,0.126830639960169,0.5,0.0321720224654119,0.0321720224654119,0.794847956231159,1,1,0,1B,0B,0.967827977534588,0.126830639960169,0.884136809473593,0.115863190526407,1,0,-0.967827977534588,-0.722327494010453,0.5,0.697058009923025,0.379847956231159,6.18163784467798,4.32358605604454,0.5,2.65016192541325,0.999999996851725,0.5,0.746338720079663,0.35066911398171,5.60828074288586,4.54362726572543,0.5,35.1739227435662
160,1,21,D,3,1,a,27,1,0.73,3D,1D,1,0,1,0,D31,3.08635334119567,3.58351893845611,0.802521968614284,0.126830639960169,0.5,0.126830639960169,0.126830639960169,0.245500483524135,0.5,0.126830639960169,0.778510742545074,0.5,0.126830639960169,0.0321720224654119,0.126830639960169,0.5,0.0321720224654119,0.0321720224654119,1.23484795623116,0,0,1,1D,3D,0.5,0.0321720224654119,0.93954582145005,0.0604541785499498,0,0,-0.5,-0.373169360039831,0.5,0.697058009923025,0.379847956231159,6.18163784467798,4.32358605604454,0.5,0.0928129256096185,0.999999999813012,0.5,0.746338720079663,0.35066911398171,5.60828074288586,4.54362726572543,0.5,35.1739227435662
160,1,22,C,3,2,l,63,1,0.73,3C,2C,0,1,0,1,C32,1.30025617053572,2.91777073208428,0.802521968614284,0.126830639960169,0.5,0.126830639960169,0.126830639960169,0.245500483524135,0.5,0.126830639960169,0.778510742545074,0.5,0.126830639960169,0.0321720224654119,0.126830639960169,0.126830639960169,0.0321720224654119,0.0321720224654119,1.42584795623116,0,0,1,2C,3C,0.126830639960169,0.0321720224654119,0.797663624151768,0.202336375848232,1,1,0.873169360039831,0.651680102584906,0.5,0.697058009923025,0.379847956231159,6.18163784467798,4.32358605604454,0.5,0.362316394121923,0.999999742277332,0.5,0.746338720079663,0.35066911398171,5.60828074288586,4.54362726572543,0.5,35.1739227435662
160,1,23,B,0,1,l,63,1,0.73,0B,1B,0,1,0,1,B01,0.566920818977445,2.53897387105828,0.802521968614284,0.126830639960169,0.5,0.126830639960169,0.126830639960169,0.245500483524135,0.5,0.126830639960169,0.778510742545074,0.5,0.778510742545074,0.0321720224654119,0.126830639960169,0.126830639960169,0.0321720224654119,0.0321720224654119,1.04584795623116,0,0,1,1B,0B,0.245500483524135,0.126830639960169,0.659360628321163,0.340639371678837,1,1,0.754499516475865,0.563112203427321,0.5,0.697058009923025,0.379847956231159,6.18163784467798,4.32358605604454,0.5,0.730323109130564,0.999703783664232,0.5,0.746338720079663,0.35066911398171,5.60828074288586,4.54362726572543,0.5,35.1739227435662
160,1,24,A,0,2,a,27,1,0.73,0A,2A,1,0,1,0,A02,3.25211751836426,3.66356164612965,0.802521968614284,0.126830639960169,0.5,0.126830639960169,0.126830639960169,0.808612686951456,0.5,0.126830639960169,0.778510742545074,0.5,0.778510742545074,0.0321720224654119,0.126830639960169,0.126830639960169,0.0321720224654119,0.0321720224654119,3.85184795623116,1,1,0,0A,2A,0.802521968614284,0.5,0.616129315245304,0.383870684754696,1,1,0.197478031385716,0.147385501188267,0.5,0.697058009923025,0.379847956231159,6.18163784467798,4.32358605604454,0.5,0.0650650934932844,0.997307097594587,0.5,0.746338720079663,0.35066911398171,5.60828074288586,4.54362726572543,0.5,35.1739227435662
160,1,25,D,3,2,a,63,1,0.73,3D,2D,1,0,1,0,D32,0.0370376409387583,2.99573227355399,0.949907469802551,0.126830639960169,0.5,0.126830639960169,0.126830639960169,0.808612686951456,0.5,0.126830639960169,0.778510742545074,0.5,0.778510742545074,0.0321720224654119,0.126830639960169,0.126830639960169,0.0321720224654119,0.0321720224654119,1.77384795623116,0,0,1,2D,3D,0.0321720224654119,0.0321720224654119,0.5,0.5,0,0,-0.0321720224654119,-0.0240112260692097,0.5,0.697058009923025,0.379847956231159,6.18163784467798,4.32358605604454,0.5,0.0868838774950711,0.498880808182645,0.5,0.746338720079663,0.35066911398171,5.60828074288586,4.54362726572543,0.5,35.1739227435662
160,1,26,C,0,2,l,27,1,0.73,0C,2C,0,1,0,1,C02,3.11813627269899,2.6149597780362,0.949907469802551,0.126830639960169,0.5,0.126830639960169,0.126830639960169,0.808612686951456,0.5,0.126830639960169,0.778510742545074,0.5,0.778510742545074,0.0321720224654119,0.126830639960169,0.126830639960169,0.00816079639620224,0.0321720224654119,2.05284795623116,0,0,1,2C,0C,0.778510742545074,0.778510742545074,0.5,0.5,1,1,0.221489257454926,0.165306008920304,0.5,0.697058009923025,0.379847956231159,6.18163784467798,4.32358605604454,0.5,0.0897257216349589,0.500640430551666,0.5,0.746338720079663,0.35066911398171,5.60828074288586,4.54362726572543,0.5,35.1739227435662
160,1,27,B,0,1,l,63,0,0.73,0B,1B,0,1,1,0,B01,3.31243779354107,2.35137525716348,0.949907469802551,0.126830639960169,0.5,0.126830639960169,0.126830639960169,0.808612686951456,0.5,0.126830639960169,0.778510742545074,0.5,0.943816751465378,0.0321720224654119,0.126830639960169,0.126830639960169,0.00816079639620224,0.0321720224654119,0.922847956231159,0,0,1,1B,0B,0.808612686951456,0.126830639960169,0.864416543139068,0.135583456860932,1,0,-0.808612686951456,-0.603498957819527,0.5,0.697058009923025,0.379847956231159,6.18163784467798,4.32358605604454,0.5,2.08601815679794,0.999999991357596,0.5,0.746338720079663,0.35066911398171,5.60828074288586,4.54362726572543,0.5,35.1739227435662
160,1,28,A,1,0,l,63,1,0.73,1A,0A,0,1,0,1,A10,1.54247225987315,3.76120011569356,0.949907469802551,0.126830639960169,0.5,0.126830639960169,0.126830639960169,0.20511372913193,0.5,0.126830639960169,0.778510742545074,0.5,0.943816751465378,0.0321720224654119,0.126830639960169,0.126830639960169,0.00816079639620224,0.0321720224654119,0.747847956231159,0,0,1,0A,1A,0.949907469802551,0.126830639960169,0.882208460153678,0.117791539846322,1,1,0.0500925301974493,0.0373859948731162,0.5,0.697058009923025,0.379847956231159,6.18163784467798,4.32358605604454,0.5,2.40869837046707,0.999999996531422,0.5,0.746338720079663,0.35066911398171,5.60828074288586,4.54362726572543,0.5,35.1739227435662
160,1,29,C,2,3,a,63,0,0.73,2C,3C,1,0,0,1,C23,3.37179520438326,2.68557734525015,0.987293464675667,0.126830639960169,0.5,0.126830639960169,0.126830639960169,0.20511372913193,0.5,0.126830639960169,0.778510742545074,0.5,0.943816751465378,0.0321720224654119,0.126830639960169,0.126830639960169,0.00816079639620224,0.0321720224654119,0.817847956231159,1,1,0,2C,3C,0.943816751465378,0.0321720224654119,0.967036483077731,0.0329635169222687,1,0,-0.943816751465378,-0.704406986278415,0.5,0.697058009923025,0.379847956231159,6.18163784467798,4.32358605604454,0.5,2.74619741342205,0.999999999953999,0.5,0.746338720079663,0.35066911398171,5.60828074288586,4.54362726572543,0.5,35.1739227435662
160,1,30,D,1,3,l,27,1,0.73,1D,3D,0,1,0,1,D13,1.19995559835427,3.80666248977032,0.987293464675667,0.126830639960169,0.5,0.126830639960169,0.126830639960169,0.20511372913193,0.5,0.126830639960169,0.778510742545074,0.5,0.239409765186963,0.0321720224654119,0.126830639960169,0.126830639960169,0.00816079639620224,0.0321720224654119,0.718847956231159,1,1,0,1D,3D,0.126830639960169,0.0321720224654119,0.797663624151768,0.202336375848232,0,0,-0.126830639960169,-0.0946586174947568,0.5,0.697058009923025,0.379847956231159,6.18163784467798,4.32358605604454,0.5,0.925445324917136,0.99999973987781,0.5,0.746338720079663,0.35066911398171,5.60828074288586,4.54362726572543,0.5,35.1739227435662
160,1,31,A,0,1,a,63,0,0.73,0A,1A,1,0,0,1,A01,2.5434556264734,2.4423470353692,0.987293464675667,0.126830639960169,0.5,0.126830639960169,0.126830639960169,0.20511372913193,0.5,0.126830639960169,0.778510742545074,0.5,0.239409765186963,0.0321720224654119,0.126830639960169,0.0321720224654119,0.00816079639620224,0.0321720224654119,0.975847956231159,1,1,0,0A,1A,0.987293464675667,0.126830639960169,0.886161120262608,0.113838879737392,1,0,-0.987293464675667,-0.736855340769053,0.5,0.697058009923025,0.379847956231159,6.18163784467798,4.32358605604454,0.5,1.57515593550876,0.999999997155436,0.5,0.746338720079663,0.35066911398171,5.60828074288586,4.54362726572543,0.5,35.1739227435662
160,1,32,D,2,3,l,63,1,0.73,2D,3D,0,1,0,1,D23,3.24145553580923,2.46385324059017,0.250438123906614,0.126830639960169,0.5,0.126830639960169,0.126830639960169,0.20511372913193,0.5,0.126830639960169,0.778510742545074,0.5,0.239409765186963,0.0321720224654119,0.126830639960169,0.0321720224654119,0.00816079639620224,0.0321720224654119,0.874847956231159,0,0,1,3D,2D,0.0321720224654119,0.00816079639620224,0.797663624151768,0.202336375848232,1,1,0.967827977534588,0.722327494010453,0.5,0.697058009923025,0.379847956231159,6.18163784467798,4.32358605604454,0.5,1.84237649313305,0.999999742291324,0.5,0.746338720079663,0.35066911398171,5.60828074288586,4.54362726572543,0.5,35.1739227435662
160,1,33,B,1,2,a,9,1,0.73,1B,2B,1,0,1,0,B12,1.84021092264522,3.87120101090789,0.250438123906614,0.126830639960169,0.5,0.126830639960169,0.126830639960169,0.20511372913193,0.5,0.126830639960169,0.778510742545074,0.5,0.239409765186963,0.0321720224654119,0.126830639960169,0.0321720224654119,0.00816079639620224,0.754499516475865,1.04084795623116,0,0,1,2B,1B,0.5,0.20511372913193,0.709105466738754,0.290894533261246,0,0,-0.5,-0.373169360039831,0.5,0.697058009923025,0.379847956231159,6.18163784467798,4.32358605604454,0.5,1.16133102265335,0.999976570052471,0.5,0.746338720079663,0.35066911398171,5.60828074288586,4.54362726572543,0.5,35.1739227435662
160,1,34,A,0,1,a,63,1,0.73,0A,1A,1,0,1,0,A01,0.0664827462030249,2.28238238567653,0.250438123906614,0.126830639960169,0.5,0.126830639960169,0.126830639960169,0.20511372913193,0.126830639960169,0.126830639960169,0.778510742545074,0.5,0.239409765186963,0.0321720224654119,0.126830639960169,0.0321720224654119,0.00816079639620224,0.754499516475865,1.15584795623116,1,1,0,0A,1A,0.250438123906614,0.126830639960169,0.66381886838383,0.33618113161617,1,1,0.749561876093386,0.559427051224048,0.5,0.697058009923025,0.379847956231159,6.18163784467798,4.32358605604454,0.5,0.849166252944563,0.999762906809097,0.5,0.746338720079663,0.35066911398171,5.60828074288586,4.54362726572543,0.5,35.1739227435662
160,1,35,C,1,2,l,9,1,0.73,1C,2C,0,1,0,1,C12,0.336218320915321,3.91202300542815,0.809865175130662,0.126830639960169,0.5,0.126830639960169,0.126830639960169,0.20511372913193,0.126830639960169,0.126830639960169,0.778510742545074,0.5,0.239409765186963,0.0321720224654119,0.126830639960169,0.0321720224654119,0.00816079639620224,0.754499516475865,1.45684795623116,1,1,0,1C,2C,0.5,0.239409765186963,0.676215034668325,0.323784965331675,0,0,-0.5,-0.373169360039831,0.5,0.697058009923025,0.379847956231159,6.18163784467798,4.32358605604454,0.5,0.776456156862797,0.999874259534455,0.5,0.746338720079663,0.35066911398171,5.60828074288586,4.54362726572543,0.5,35.1739227435662
160,1,36,B,0,1,l,63,1,0.73,0B,1B,0,1,0,1,B01,0.346027881781762,2.32238772029023,0.809865175130662,0.126830639960169,0.5,0.126830639960169,0.126830639960169,0.20511372913193,0.126830639960169,0.126830639960169,0.778510742545074,0.126830639960169,0.239409765186963,0.0321720224654119,0.126830639960169,0.0321720224654119,0.00816079639620224,0.754499516475865,2.62284795623116,0,0,1,1B,0B,0.20511372913193,0.126830639960169,0.617915976984145,0.382084023015855,1,1,0.79488627086807,0.593254402008572,0.5,0.697058009923025,0.379847956231159,6.18163784467798,4.32358605604454,0.5,0.234824250129186,0.997561882555429,0.5,0.746338720079663,0.35066911398171,5.60828074288586,4.54362726572543,0.5,35.1739227435662
160,1,37,A,1,0,l,63,0,0.73,1A,0A,0,1,1,0,A10,1.19095754868573,3.25809653802148,0.809865175130662,0.126830639960169,0.5,0.126830639960169,0.126830639960169,0.798368131140501,0.126830639960169,0.126830639960169,0.778510742545074,0.126830639960169,0.239409765186963,0.0321720224654119,0.126830639960169,0.0321720224654119,0.00816079639620224,0.754499516475865,0.595847956231159,0,0,1,0A,1A,0.809865175130662,0.126830639960169,0.864597836440777,0.135402163559223,1,0,-0.809865175130662,-0.60443373824411,0.5,0.697058009923025,0.379847956231159,6.18163784467798,4.32358605604454,0.5,0.28023075150591,0.999999991556221,0.5,0.746338720079663,0.35066911398171,5.60828074288586,4.54362726572543,0.5,35.1739227435662
160,1,38,B,1,0,a,63,1,0.73,1B,0B,1,0,1,0,B10,1.33389006055377,3.27714473299218,0.205431436886552,0.126830639960169,0.5,0.126830639960169,0.126830639960169,0.798368131140501,0.126830639960169,0.126830639960169,0.778510742545074,0.126830639960169,0.239409765186963,0.0321720224654119,0.126830639960169,0.0321720224654119,0.00816079639620224,0.754499516475865,0.998847956231159,1,1,0,1B,0B,0.798368131140501,0.126830639960169,0.862915252460524,0.137084747539476,1,1,0.201631868859499,0.150485670931869,0.5,0.697058009923025,0.379847956231159,6.18163784467798,4.32358605604454,0.5,1.56586089849787,0.999999990705084,0.5,0.746338720079663,0.35066911398171,5.60828074288586,4.54362726572543,0.5,35.1739227435662
160,1,39,D,3,1,a,27,0,0.73,3D,1D,1,0,0,1,D31,1.00529829163196,3.29583686600433,0.205431436886552,0.126830639960169,0.5,0.126830639960169,0.126830639960169,0.94885380207237,0.126830639960169,0.126830639960169,0.778510742545074,0.126830639960169,0.239409765186963,0.0321720224654119,0.126830639960169,0.0321720224654119,0.00816079639620224,0.754499516475865,0.715847956231159,1,1,0,3D,1D,0.754499516475865,0.0321720224654119,0.959103614567384,0.0408963854326163,1,0,-0.754499516475865,-0.563112203427321,0.5,0.697058009923025,0.379847956231159,6.18163784467798,4.32358605604454,0.5,3.33077998962414,0.999999999931183,0.5,0.746338720079663,0.35066911398171,5.60828074288586,4.54362726572543,0.5,35.1739227435662
160,1,40,C,2,3,a,63,1,0.73,2C,3C,1,0,1,0,C23,0.251999608330989,2.62103882411258,0.205431436886552,0.126830639960169,0.5,0.126830639960169,0.126830639960169,0.94885380207237,0.126830639960169,0.126830639960169,0.778510742545074,0.126830639960169,0.239409765186963,0.0321720224654119,0.126830639960169,0.0321720224654119,0.00816079639620224,0.191387313048544,0.837847956231159,1,1,0,2C,3C,0.239409765186963,0.0321720224654119,0.88153836550118,0.11846163449882,1,1,0.760590234813037,0.567657942355452,0.5,0.697058009923025,0.379847956231159,6.18163784467798,4.32358605604454,0.5,2.57134985048758,0.999999996404848,0.5,0.746338720079663,0.35066911398171,5.60828074288586,4.54362726572543,0.5,35.1739227435662
160,1,41,A,2,0,l,27,1,0.73,2A,0A,0,1,0,1,A20,1.51574262378887,3.3322045101752,0.205431436886552,0.126830639960169,0.5,0.126830639960169,0.126830639960169,0.94885380207237,0.126830639960169,0.126830639960169,0.778510742545074,0.126830639960169,0.807067707542415,0.0321720224654119,0.126830639960169,0.0321720224654119,0.00816079639620224,0.191387313048544,1.13384795623116,1,1,0,2A,0A,0.5,0.205431436886552,0.708786104297774,0.291213895702226,0,0,-0.5,-0.373169360039831,0.5,0.697058009923025,0.379847956231159,6.18163784467798,4.32358605604454,0.5,1.15774329570816,0.999976213703925,0.5,0.746338720079663,0.35066911398171,5.60828074288586,4.54362726572543,0.5,35.1739227435662
160,1,42,D,3,2,a,63,1,0.73,3D,2D,1,0,1,0,D32,0.0454552971099443,2.94443897916644,0.205431436886552,0.126830639960169,0.126830639960169,0.126830639960169,0.126830639960169,0.94885380207237,0.126830639960169,0.126830639960169,0.778510742545074,0.126830639960169,0.807067707542415,0.0321720224654119,0.126830639960169,0.0321720224654119,0.00816079639620224,0.191387313048544,0.796847956231159,1,1,0,3D,2D,0.191387313048544,0.00816079639620224,0.959103614567384,0.0408963854326163,1,1,0.808612686951456,0.603498957819527,0.5,0.697058009923025,0.379847956231159,6.18163784467798,4.32358605604454,0.5,3.03874722079946,0.999999999931067,0.5,0.746338720079663,0.35066911398171,5.60828074288586,4.54362726572543,0.5,35.1739227435662
160,1,43,B,3,1,l,27,0,0.73,3B,1B,0,1,1,0,B31,2.15059280689209,3.36729582998647,0.205431436886552,0.126830639960169,0.126830639960169,0.126830639960169,0.126830639960169,0.94885380207237,0.126830639960169,0.126830639960169,0.778510742545074,0.126830639960169,0.807067707542415,0.0321720224654119,0.126830639960169,0.0321720224654119,0.00816079639620224,0.79488627086807,0.783847956231159,0,0,1,1B,3B,0.94885380207237,0.126830639960169,0.882093079527563,0.117906920472437,1,0,-0.94885380207237,-0.708166332181414,0.5,0.697058009923025,0.379847956231159,6.18163784467798,4.32358605604454,0.5,2.60339936405786,0.999999996483978,0.5,0.746338720079663,0.35066911398171,5.60828074288586,4.54362726572543,0.5,35.1739227435662
160,1,44,C,2,3,a,63,1,0.73,2C,3C,1,0,1,0,C23,3.47902127592689,2.46809953147162,0.205431436886552,0.126830639960169,0.126830639960169,0.126830639960169,0.126830639960169,0.240687469890956,0.126830639960169,0.126830639960169,0.778510742545074,0.126830639960169,0.807067707542415,0.0321720224654119,0.126830639960169,0.0321720224654119,0.00816079639620224,0.79488627086807,0.689847956231159,1,1,0,2C,3C,0.807067707542415,0.0321720224654119,0.961665277137068,0.038334722862932,1,1,0.192932292457585,0.143992840214829,0.5,0.697058009923025,0.379847956231159,6.18163784467798,4.32358605604454,0.5,3.10042347513958,0.99999999993934,0.5,0.746338720079663,0.35066911398171,5.60828074288586,4.54362726572543,0.5,35.1739227435662
