ID,session,trialNr,mod2Stim,visStimLeft,visStimRight,correctKey,frequency,rewardAccurate,probFB,stimPairLeft,stimPairRight,leftCorrect,rightCorrect,pCorrectLeft,pCorrectRight,triplet,rt,surprise,0A belief,1A belief,2A belief,3A belief,0B belief,1B belief,2B belief,3B belief,0C belief,1C belief,2C belief,3C belief,0D belief,1D belief,2D belief,3D belief,reactionTime,choice,choiceLeft,choiceRight,chosenPair,otherPair,beliefPair,beliefOtherPair,beliefPairNorm,beliefOtherPairNorm,choiceAccurate,reward,rewardPE,update2,sim_CBCsimpleRW_CBCdriftDiffusionLR_startBelief,sim_CBCsimpleRW_CBCdriftDiffusionLR_alpha1,sim_CBCsimpleRW_CBCdriftDiffusionLR_nonDecisionTime,sim_CBCsimpleRW_CBCdriftDiffusionLR_weight,sim_CBCsimpleRW_CBCdriftDiffusionLR_startingBoundary,sim_CBCsimpleRW_CBCdriftDiffusionLR_startingPoint,lik,corrLik,fitCBCsimpleRW_CBCdriftDiffusionLR_startBelief,fitCBCsimpleRW_CBCdriftDiffusionLR_alpha1,fitCBCsimpleRW_CBCdriftDiffusionLR_nonDecisionTime,fitCBCsimpleRW_CBCdriftDiffusionLR_weight,fitCBCsimpleRW_CBCdriftDiffusionLR_startingBoundary,fitCBCsimpleRW_CBCdriftDiffusionLR_startingPoint,fit_CBCsimpleRW_CBCdriftDiffusionLR_NLL
178,1,1,B,3,1,l,27,1,0.82,3B,1B,0,1,0,1,B31,1.41289800648694,2.77258872223978,0.5,0.5,0.5,0.5,0.5,0.5,0.5,0.5,0.5,0.5,0.5,0.5,0.5,0.5,0.5,0.5,1.70675504436418,0,0,1,1B,3B,0.5,0.5,0.5,0.5,1,1,0.5,0.243403287971531,0.5,0.566388031718135,0.541755044364176,2.24186101689078,3.67083981409854,0.5,0.155204483466715,0.498561562616738,0.5,0.486806575943062,0.81862013051278,3.173748862037,3.4340120358755,0.5,74.2491524257452
178,1,2,C,2,3,a,63,1,0.82,2C,3C,1,0,1,0,C23,0.316528394178171,2.83321334405622,0.5,0.5,0.5,0.5,0.5,0.743403287971531,0.5,0.5,0.5,0.5,0.5,0.5,0.5,0.5,0.5,0.5,4.88775504436418,1,1,0,2C,3C,0.5,0.5,0.5,0.5,1,1,0.5,0.243403287971531,0.5,0.566388031718135,0.541755044364176,2.24186101689078,3.67083981409854,0.5,0.0484964754744451,0.499643204552389,0.5,0.486806575943062,0.81862013051278,3.173748862037,3.4340120358755,0.5,74.2491524257452
178,1,3,D,2,3,l,63,1,0.82,2D,3D,0,1,0,1,D23,0.127071917898713,2.89037175789616,0.5,0.5,0.5,0.5,0.5,0.743403287971531,0.5,0.5,0.5,0.5,0.743403287971531,0.5,0.5,0.5,0.5,0.5,1.61375504436418,1,1,0,2D,3D,0.5,0.5,0.5,0.5,0,0,-0.5,-0.243403287971531,0.5,0.566388031718135,0.541755044364176,2.24186101689078,3.67083981409854,0.5,0.15180895415871,0.501601841748138,0.5,0.486806575943062,0.81862013051278,3.173748862037,3.4340120358755,0.5,74.2491524257452
178,1,4,B,1,0,a,63,0,0.82,1B,0B,1,0,0,1,B10,0.859675890025746,2.94443897916644,0.5,0.5,0.5,0.5,0.5,0.743403287971531,0.5,0.5,0.5,0.5,0.743403287971531,0.5,0.5,0.5,0.256596712028469,0.5,6.85875504436418,1,1,0,1B,0B,0.743403287971531,0.5,0.597877852795699,0.402122147204301,1,0,-0.743403287971531,-0.361893609162235,0.5,0.566388031718135,0.541755044364176,2.24186101689078,3.67083981409854,0.5,0.0192495595054547,0.894265444490801,0.5,0.486806575943062,0.81862013051278,3.173748862037,3.4340120358755,0.5,74.2491524257452
178,1,5,A,3,0,l,9,1,0.82,3A,0A,0,1,0,1,A30,2.10769591515217,2.99573227355399,0.5,0.5,0.5,0.5,0.5,0.381509678809296,0.5,0.5,0.5,0.5,0.743403287971531,0.5,0.5,0.5,0.256596712028469,0.5,2.49675504436418,1,1,0,3A,0A,0.5,0.5,0.5,0.5,0,0,-0.5,-0.243403287971531,0.5,0.566388031718135,0.541755044364176,2.24186101689078,3.67083981409854,0.5,0.130719135135827,0.500615950629429,0.5,0.486806575943062,0.81862013051278,3.173748862037,3.4340120358755,0.5,74.2491524257452
178,1,6,D,2,3,l,63,1,0.82,2D,3D,0,1,0,1,D23,1.62559934132313,2.35137525716348,0.5,0.5,0.5,0.256596712028469,0.5,0.381509678809296,0.5,0.5,0.5,0.5,0.743403287971531,0.5,0.5,0.5,0.256596712028469,0.5,2.39375504436418,0,0,1,3D,2D,0.5,0.256596712028469,0.660854048201555,0.339145951798445,1,1,0.5,0.243403287971531,0.5,0.566388031718135,0.541755044364176,2.24186101689078,3.67083981409854,0.5,0.344559241412078,0.970701208670739,0.5,0.486806575943062,0.81862013051278,3.173748862037,3.4340120358755,0.5,74.2491524257452
178,1,7,C,2,0,a,27,1,0.82,2C,0C,1,0,1,0,C20,1.50534330278401,3.09104245335832,0.5,0.5,0.5,0.256596712028469,0.5,0.381509678809296,0.5,0.5,0.5,0.5,0.743403287971531,0.5,0.5,0.5,0.256596712028469,0.743403287971531,1.42075504436418,1,1,0,2C,0C,0.743403287971531,0.5,0.597877852795699,0.402122147204301,1,1,0.256596712028469,0.124912966780827,0.5,0.566388031718135,0.541755044364176,2.24186101689078,3.67083981409854,0.5,0.328094981812896,0.894238214339077,0.5,0.486806575943062,0.81862013051278,3.173748862037,3.4340120358755,0.5,74.2491524257452
178,1,8,A,1,0,l,63,1,0.82,1A,0A,0,1,0,1,A10,2.46817206214727,3.13549421592915,0.5,0.5,0.5,0.256596712028469,0.5,0.381509678809296,0.5,0.5,0.5,0.5,0.868316254752358,0.5,0.5,0.5,0.256596712028469,0.743403287971531,6.54475504436418,1,1,0,1A,0A,0.5,0.5,0.5,0.5,0,0,-0.5,-0.243403287971531,0.5,0.566388031718135,0.541755044364176,2.24186101689078,3.67083981409854,0.5,0.0243541120844107,0.501957267591697,0.5,0.486806575943062,0.81862013051278,3.173748862037,3.4340120358755,0.5,74.2491524257452
178,1,9,B,0,1,l,63,1,0.82,0B,1B,0,1,0,1,B01,1.80412725490091,3.17805383034795,0.5,0.256596712028469,0.5,0.256596712028469,0.5,0.381509678809296,0.5,0.5,0.5,0.5,0.868316254752358,0.5,0.5,0.5,0.256596712028469,0.743403287971531,6.73475504436418,1,1,0,0B,1B,0.5,0.381509678809296,0.567208746562349,0.432791253437651,0,0,-0.5,-0.243403287971531,0.5,0.566388031718135,0.541755044364176,2.24186101689078,3.67083981409854,0.5,0.0271907563386795,0.812649233056641,0.5,0.486806575943062,0.81862013051278,3.173748862037,3.4340120358755,0.5,74.2491524257452
178,1,10,D,3,1,a,27,0,0.82,3D,1D,1,0,0,1,D31,0.595272417649767,3.2188758248682,0.5,0.256596712028469,0.5,0.256596712028469,0.256596712028469,0.381509678809296,0.5,0.5,0.5,0.5,0.868316254752358,0.5,0.5,0.5,0.256596712028469,0.743403287971531,2.56975504436418,1,1,0,3D,1D,0.743403287971531,0.5,0.597877852795699,0.402122147204301,1,0,-0.743403287971531,-0.361893609162235,0.5,0.566388031718135,0.541755044364176,2.24186101689078,3.67083981409854,0.5,0.263142346474851,0.894247729506649,0.5,0.486806575943062,0.81862013051278,3.173748862037,3.4340120358755,0.5,74.2491524257452
178,1,11,C,2,3,a,63,1,0.82,2C,3C,1,0,1,0,C23,2.42542511563728,2.56494935746154,0.5,0.256596712028469,0.5,0.256596712028469,0.256596712028469,0.381509678809296,0.5,0.5,0.5,0.5,0.868316254752358,0.5,0.5,0.5,0.256596712028469,0.381509678809296,2.29875504436418,1,1,0,2C,3C,0.868316254752358,0.5,0.634587400198289,0.365412599801711,1,1,0.131683745247642,0.0641045131313631,0.5,0.566388031718135,0.541755044364176,2.24186101689078,3.67083981409854,0.5,0.354567543565114,0.949455990105779,0.5,0.486806575943062,0.81862013051278,3.173748862037,3.4340120358755,0.5,74.2491524257452
178,1,12,B,0,1,l,63,1,0.82,0B,1B,0,1,0,1,B01,2.39573555007853,2.60268968544438,0.5,0.256596712028469,0.5,0.256596712028469,0.256596712028469,0.381509678809296,0.5,0.5,0.5,0.5,0.932420767883721,0.5,0.5,0.5,0.256596712028469,0.381509678809296,1.85775504436418,0,0,1,1B,0B,0.381509678809296,0.256596712028469,0.597877852795699,0.402122147204301,1,1,0.618490321190704,0.301085155512771,0.5,0.566388031718135,0.541755044364176,2.24186101689078,3.67083981409854,0.5,0.371724732612999,0.893726127796368,0.5,0.486806575943062,0.81862013051278,3.173748862037,3.4340120358755,0.5,74.2491524257452
178,1,13,A,1,0,l,63,0,0.82,1A,0A,0,1,1,0,A10,1.86130180904938,2.63905732961526,0.5,0.256596712028469,0.5,0.256596712028469,0.256596712028469,0.682594834322067,0.5,0.5,0.5,0.5,0.932420767883721,0.5,0.5,0.5,0.256596712028469,0.381509678809296,2.30775504436418,0,0,1,0A,1A,0.5,0.256596712028469,0.660854048201555,0.339145951798445,1,0,-0.5,-0.243403287971531,0.5,0.566388031718135,0.541755044364176,2.24186101689078,3.67083981409854,0.5,0.371774812092966,0.970986549232724,0.5,0.486806575943062,0.81862013051278,3.173748862037,3.4340120358755,0.5,74.2491524257452
178,1,14,C,2,1,a,9,1,0.82,2C,1C,1,0,1,0,C21,1.19063487635034,3.36729582998647,0.256596712028469,0.256596712028469,0.5,0.256596712028469,0.256596712028469,0.682594834322067,0.5,0.5,0.5,0.5,0.932420767883721,0.5,0.5,0.5,0.256596712028469,0.381509678809296,2.01675504436418,1,1,0,2C,1C,0.932420767883721,0.5,0.650940553774079,0.349059446225921,1,1,0.0675792321162791,0.0328980145913872,0.5,0.566388031718135,0.541755044364176,2.24186101689078,3.67083981409854,0.5,0.456290488602609,0.964127089841528,0.5,0.486806575943062,0.81862013051278,3.173748862037,3.4340120358755,0.5,74.2491524257452
178,1,15,A,0,1,a,63,1,0.82,0A,1A,1,0,1,0,A01,0.180831494175918,3.40119738166216,0.256596712028469,0.256596712028469,0.5,0.256596712028469,0.256596712028469,0.682594834322067,0.5,0.5,0.5,0.5,0.965318782475108,0.5,0.5,0.5,0.256596712028469,0.381509678809296,1.67175504436418,1,1,0,0A,1A,0.256596712028469,0.256596712028469,0.5,0.5,1,1,0.743403287971531,0.361893609162235,0.5,0.566388031718135,0.541755044364176,2.24186101689078,3.67083981409854,0.5,0.154136288771753,0.498997663078337,0.5,0.486806575943062,0.81862013051278,3.173748862037,3.4340120358755,0.5,74.2491524257452
178,1,16,D,1,3,l,27,1,0.82,1D,3D,0,1,0,1,D13,2.97836615128304,3.43398720448515,0.618490321190704,0.256596712028469,0.5,0.256596712028469,0.256596712028469,0.682594834322067,0.5,0.5,0.5,0.5,0.965318782475108,0.5,0.5,0.5,0.256596712028469,0.381509678809296,1.29975504436418,1,1,0,1D,3D,0.5,0.381509678809296,0.567208746562349,0.432791253437651,0,0,-0.5,-0.243403287971531,0.5,0.566388031718135,0.541755044364176,2.24186101689078,3.67083981409854,0.5,0.191106619891361,0.812645246882283,0.5,0.486806575943062,0.81862013051278,3.173748862037,3.4340120358755,0.5,74.2491524257452
178,1,17,B,1,0,a,63,1,0.82,1B,0B,1,0,1,0,B10,2.21085318290116,2.77258872223978,0.618490321190704,0.256596712028469,0.5,0.256596712028469,0.256596712028469,0.682594834322067,0.5,0.5,0.5,0.5,0.965318782475108,0.5,0.5,0.256596712028469,0.256596712028469,0.381509678809296,1.57275504436418,1,1,0,1B,0B,0.682594834322067,0.256596712028469,0.726789798070969,0.273210201929031,1,1,0.317405165677933,0.154514921890315,0.5,0.566388031718135,0.541755044364176,2.24186101689078,3.67083981409854,0.5,0.803081024251867,0.99292398086786,0.5,0.486806575943062,0.81862013051278,3.173748862037,3.4340120358755,0.5,74.2491524257452
178,1,18,C,3,2,l,63,0,0.82,3C,2C,0,1,1,0,C32,0.149111789650092,3.49650756146648,0.618490321190704,0.256596712028469,0.5,0.256596712028469,0.256596712028469,0.837109756212382,0.5,0.5,0.5,0.5,0.965318782475108,0.5,0.5,0.256596712028469,0.256596712028469,0.381509678809296,3.42275504436418,0,0,1,2C,3C,0.965318782475108,0.5,0.658777321372052,0.341222678627948,1,0,-0.965318782475108,-0.469923531190233,0.5,0.566388031718135,0.541755044364176,2.24186101689078,3.67083981409854,0.5,0.134611791647234,0.96958762321064,0.5,0.486806575943062,0.81862013051278,3.173748862037,3.4340120358755,0.5,74.2491524257452
178,1,19,A,0,2,a,27,1,0.82,0A,2A,1,0,1,0,A02,1.35023648727785,3.52636052461616,0.618490321190704,0.256596712028469,0.5,0.256596712028469,0.256596712028469,0.837109756212382,0.5,0.5,0.5,0.5,0.495395251284876,0.5,0.5,0.256596712028469,0.256596712028469,0.381509678809296,4.51575504436418,1,1,0,0A,2A,0.618490321190704,0.5,0.552968863004806,0.447031136995194,1,1,0.381509678809296,0.185721420430291,0.5,0.566388031718135,0.541755044364176,2.24186101689078,3.67083981409854,0.5,0.0819501377285268,0.760242777476529,0.5,0.486806575943062,0.81862013051278,3.173748862037,3.4340120358755,0.5,74.2491524257452
178,1,20,D,2,3,l,63,1,0.82,2D,3D,0,1,0,1,D23,0.426460961935123,2.4567357728213,0.804211741620995,0.256596712028469,0.5,0.256596712028469,0.256596712028469,0.837109756212382,0.5,0.5,0.5,0.5,0.495395251284876,0.5,0.5,0.256596712028469,0.256596712028469,0.381509678809296,3.94175504436418,0,0,1,3D,2D,0.381509678809296,0.256596712028469,0.597877852795699,0.402122147204301,1,1,0.618490321190704,0.301085155512771,0.5,0.566388031718135,0.541755044364176,2.24186101689078,3.67083981409854,0.5,0.114676390191388,0.893934328925419,0.5,0.486806575943062,0.81862013051278,3.173748862037,3.4340120358755,0.5,74.2491524257452
178,1,21,B,1,3,a,27,1,0.82,1B,3B,1,0,1,0,B13,1.30896026150077,3.58351893845611,0.804211741620995,0.256596712028469,0.5,0.256596712028469,0.256596712028469,0.837109756212382,0.5,0.5,0.5,0.5,0.495395251284876,0.5,0.5,0.256596712028469,0.256596712028469,0.682594834322067,2.12075504436418,0,0,1,3B,1B,0.5,0.837109756212382,0.373940880826676,0.626059119173324,0,0,-0.5,-0.243403287971531,0.5,0.566388031718135,0.541755044364176,2.24186101689078,3.67083981409854,0.5,0.0246945597313638,0.0599533774467487,0.5,0.486806575943062,0.81862013051278,3.173748862037,3.4340120358755,0.5,74.2491524257452
178,1,22,C,2,3,a,63,1,0.82,2C,3C,1,0,1,0,C23,3.16981199772172,2.51230562397611,0.804211741620995,0.256596712028469,0.5,0.256596712028469,0.256596712028469,0.837109756212382,0.5,0.256596712028469,0.5,0.5,0.495395251284876,0.5,0.5,0.256596712028469,0.256596712028469,0.682594834322067,3.36475504436418,0,0,1,3C,2C,0.5,0.495395251284876,0.502313025257645,0.497686974742355,0,0,-0.5,-0.243403287971531,0.5,0.566388031718135,0.541755044364176,2.24186101689078,3.67083981409854,0.5,0.0941143671975891,0.512924318144944,0.5,0.486806575943062,0.81862013051278,3.173748862037,3.4340120358755,0.5,74.2491524257452
178,1,23,A,1,0,l,63,0,0.82,1A,0A,0,1,1,0,A10,3.2507820529606,2.53897387105828,0.804211741620995,0.256596712028469,0.5,0.256596712028469,0.256596712028469,0.837109756212382,0.5,0.256596712028469,0.5,0.5,0.495395251284876,0.256596712028469,0.5,0.256596712028469,0.256596712028469,0.682594834322067,2.22875504436418,0,0,1,0A,1A,0.804211741620995,0.256596712028469,0.758112116145278,0.241887883854722,1,0,-0.804211741620995,-0.391495564271723,0.5,0.566388031718135,0.541755044364176,2.24186101689078,3.67083981409854,0.5,0.360827096599894,0.996409630730728,0.5,0.486806575943062,0.81862013051278,3.173748862037,3.4340120358755,0.5,74.2491524257452
178,1,24,B,1,2,a,9,1,0.82,1B,2B,1,0,1,0,B12,0.236435177764544,3.66356164612965,0.412716177349272,0.256596712028469,0.5,0.256596712028469,0.256596712028469,0.837109756212382,0.5,0.256596712028469,0.5,0.5,0.495395251284876,0.256596712028469,0.5,0.256596712028469,0.256596712028469,0.682594834322067,1.44775504436418,1,1,0,1B,2B,0.837109756212382,0.5,0.626059119173324,0.373940880826676,1,1,0.162890243787618,0.079296041832781,0.5,0.566388031718135,0.541755044364176,2.24186101689078,3.67083981409854,0.5,0.426028672714555,0.939867410520026,0.5,0.486806575943062,0.81862013051278,3.173748862037,3.4340120358755,0.5,74.2491524257452
178,1,25,C,3,2,l,63,1,0.82,3C,2C,0,1,0,1,C32,2.02603056763989,2.99573227355399,0.412716177349272,0.256596712028469,0.5,0.256596712028469,0.256596712028469,0.916405798045163,0.5,0.256596712028469,0.5,0.5,0.495395251284876,0.256596712028469,0.5,0.256596712028469,0.256596712028469,0.682594834322067,2.41875504436418,0,0,1,2C,3C,0.495395251284876,0.256596712028469,0.658777321372052,0.341222678627948,1,1,0.504604748715124,0.245644909926619,0.5,0.566388031718135,0.541755044364176,2.24186101689078,3.67083981409854,0.5,0.336638004325837,0.969588919798741,0.5,0.486806575943062,0.81862013051278,3.173748862037,3.4340120358755,0.5,74.2491524257452
178,1,26,D,3,2,a,63,0,0.82,3D,2D,1,0,0,1,D32,1.55476325214998,3.71357206670431,0.412716177349272,0.256596712028469,0.5,0.256596712028469,0.256596712028469,0.916405798045163,0.5,0.256596712028469,0.5,0.5,0.741040161211494,0.256596712028469,0.5,0.256596712028469,0.256596712028469,0.682594834322067,1.41175504436418,1,1,0,3D,2D,0.682594834322067,0.256596712028469,0.726789798070969,0.273210201929031,1,0,-0.682594834322067,-0.332291654052747,0.5,0.566388031718135,0.541755044364176,2.24186101689078,3.67083981409854,0.5,0.799193920647946,0.992885642541385,0.5,0.486806575943062,0.81862013051278,3.173748862037,3.4340120358755,0.5,74.2491524257452
178,1,27,B,1,0,a,63,1,0.82,1B,0B,1,0,1,0,B10,1.11496226331217,2.63905732961526,0.412716177349272,0.256596712028469,0.5,0.256596712028469,0.256596712028469,0.916405798045163,0.5,0.256596712028469,0.5,0.5,0.741040161211494,0.256596712028469,0.5,0.256596712028469,0.256596712028469,0.35030318026932,2.28375504436418,1,1,0,1B,0B,0.916405798045163,0.256596712028469,0.781247942928646,0.218752057071354,1,1,0.0835942019548372,0.0406942072223271,0.5,0.566388031718135,0.541755044364176,2.24186101689078,3.67083981409854,0.5,0.292846894065972,0.997831756080888,0.5,0.486806575943062,0.81862013051278,3.173748862037,3.4340120358755,0.5,74.2491524257452
178,1,28,A,2,0,l,27,1,0.82,2A,0A,0,1,0,1,A20,1.28783480237888,3.76120011569356,0.412716177349272,0.256596712028469,0.5,0.256596712028469,0.256596712028469,0.95710000526749,0.5,0.256596712028469,0.5,0.5,0.741040161211494,0.256596712028469,0.5,0.256596712028469,0.256596712028469,0.35030318026932,8.12075504436418,0,0,1,0A,2A,0.412716177349272,0.5,0.452184575656247,0.547815424343754,1,1,0.587283822650728,0.285893626811353,0.5,0.566388031718135,0.541755044364176,2.24186101689078,3.67083981409854,0.5,0.00530856823739874,0.260293047123947,0.5,0.486806575943062,0.81862013051278,3.173748862037,3.4340120358755,0.5,74.2491524257452
178,1,29,D,3,1,a,27,1,0.82,3D,1D,1,0,1,0,D31,1.62646528234216,3.09104245335832,0.698609804160625,0.256596712028469,0.5,0.256596712028469,0.256596712028469,0.95710000526749,0.5,0.256596712028469,0.5,0.5,0.741040161211494,0.256596712028469,0.5,0.256596712028469,0.256596712028469,0.35030318026932,1.45875504436418,1,1,0,3D,1D,0.35030318026932,0.256596712028469,0.577200926734447,0.422799073265553,1,1,0.64969681973068,0.316276684214189,0.5,0.566388031718135,0.541755044364176,2.24186101689078,3.67083981409854,0.5,0.287873407770417,0.843983205384221,0.5,0.486806575943062,0.81862013051278,3.173748862037,3.4340120358755,0.5,74.2491524257452
178,1,30,A,0,1,a,63,1,0.82,0A,1A,1,0,1,0,A01,2.26582438068799,3.11351530921037,0.698609804160625,0.256596712028469,0.5,0.256596712028469,0.256596712028469,0.95710000526749,0.5,0.256596712028469,0.5,0.5,0.741040161211494,0.256596712028469,0.5,0.256596712028469,0.256596712028469,0.666579864483509,2.50275504436418,1,1,0,0A,1A,0.698609804160625,0.256596712028469,0.731370433849016,0.268629566150984,1,1,0.301390195839375,0.146718729259375,0.5,0.566388031718135,0.541755044364176,2.24186101689078,3.67083981409854,0.5,0.263777802507221,0.993584090813816,0.5,0.486806575943062,0.81862013051278,3.173748862037,3.4340120358755,0.5,74.2491524257452
178,1,31,C,0,2,l,27,1,0.82,0C,2C,0,1,0,1,C02,2.26880566016519,3.8286413964891,0.84532853342,0.256596712028469,0.5,0.256596712028469,0.256596712028469,0.95710000526749,0.5,0.256596712028469,0.5,0.5,0.741040161211494,0.256596712028469,0.5,0.256596712028469,0.256596712028469,0.666579864483509,5.32875504436418,0,0,1,2C,0C,0.741040161211494,0.5,0.597112151864688,0.402887848135312,1,1,0.258959838788506,0.1260633524274,0.5,0.566388031718135,0.541755044364176,2.24186101689078,3.67083981409854,0.5,0.0493689280819206,0.89248486487857,0.5,0.486806575943062,0.81862013051278,3.173748862037,3.4340120358755,0.5,74.2491524257452
178,1,32,D,3,2,a,63,1,0.82,3D,2D,1,0,1,0,D32,2.15777699039388,3.15700042115011,0.84532853342,0.256596712028469,0.5,0.256596712028469,0.256596712028469,0.95710000526749,0.5,0.256596712028469,0.5,0.5,0.867103513638894,0.256596712028469,0.5,0.256596712028469,0.256596712028469,0.666579864483509,3.03575504436418,1,1,0,3D,2D,0.666579864483509,0.256596712028469,0.722050235505364,0.277949764494637,1,1,0.333420135516491,0.162311114521255,0.5,0.566388031718135,0.541755044364176,2.24186101689078,3.67083981409854,0.5,0.130623052856543,0.99217291083552,0.5,0.486806575943062,0.81862013051278,3.173748862037,3.4340120358755,0.5,74.2491524257452
178,1,33,B,0,1,l,63,1,0.82,0B,1B,0,1,0,1,B01,2.99178635236394,2.77258872223978,0.84532853342,0.256596712028469,0.5,0.256596712028469,0.256596712028469,0.95710000526749,0.5,0.256596712028469,0.5,0.5,0.867103513638894,0.256596712028469,0.5,0.256596712028469,0.256596712028469,0.828890979004764,2.10175504436418,0,0,1,1B,0B,0.95710000526749,0.256596712028469,0.788582511288198,0.211417488711802,1,1,0.0428999947325102,0.0208839995437087,0.5,0.566388031718135,0.541755044364176,2.24186101689078,3.67083981409854,0.5,0.402546517946166,0.998159114510938,0.5,0.486806575943062,0.81862013051278,3.173748862037,3.4340120358755,0.5,74.2491524257452
178,1,34,A,1,0,l,63,1,0.82,1A,0A,0,1,0,1,A10,3.35670264485961,2.50552593699074,0.84532853342,0.256596712028469,0.5,0.256596712028469,0.256596712028469,0.977984004811199,0.5,0.256596712028469,0.5,0.5,0.867103513638894,0.256596712028469,0.5,0.256596712028469,0.256596712028469,0.828890979004764,1.81675504436418,0,0,1,0A,1A,0.84532853342,0.256596712028469,0.767137822562512,0.232862177437488,1,1,0.15467146658,0.0752950870419015,0.5,0.566388031718135,0.541755044364176,2.24186101689078,3.67083981409854,0.5,0.686692450210941,0.997054144917013,0.5,0.486806575943062,0.81862013051278,3.173748862037,3.4340120358755,0.5,74.2491524257452
178,1,35,D,3,2,a,63,0,0.82,3D,2D,1,0,0,1,D32,0.115750743693429,2.81341071676004,0.920623620461901,0.256596712028469,0.5,0.256596712028469,0.256596712028469,0.977984004811199,0.5,0.256596712028469,0.5,0.5,0.867103513638894,0.256596712028469,0.5,0.256596712028469,0.256596712028469,0.828890979004764,1.17075504436418,1,1,0,3D,2D,0.828890979004764,0.256596712028469,0.763611587539768,0.236388412460232,1,0,-0.828890979004764,-0.403509579319401,0.5,0.566388031718135,0.541755044364176,2.24186101689078,3.67083981409854,0.5,0.538326408197001,0.996809422739258,0.5,0.486806575943062,0.81862013051278,3.173748862037,3.4340120358755,0.5,74.2491524257452
178,1,36,C,0,2,l,27,1,0.82,0C,2C,0,1,0,1,C02,1.81971327690585,3.23867845216438,0.920623620461901,0.256596712028469,0.5,0.256596712028469,0.256596712028469,0.977984004811199,0.5,0.256596712028469,0.5,0.5,0.867103513638894,0.256596712028469,0.5,0.256596712028469,0.256596712028469,0.425381399685362,1.89275504436418,0,0,1,2C,0C,0.867103513638894,0.5,0.634263247068159,0.365736752931841,1,1,0.132896486361106,0.0646948834803138,0.5,0.566388031718135,0.541755044364176,2.24186101689078,3.67083981409854,0.5,0.456986182420552,0.949491647119647,0.5,0.486806575943062,0.81862013051278,3.173748862037,3.4340120358755,0.5,74.2491524257452
178,1,37,A,1,0,l,63,1,0.82,1A,0A,0,1,0,1,A10,1.42104098857658,2.34180580614733,0.920623620461901,0.256596712028469,0.5,0.256596712028469,0.256596712028469,0.977984004811199,0.5,0.256596712028469,0.5,0.5,0.931798397119208,0.256596712028469,0.5,0.256596712028469,0.256596712028469,0.425381399685362,1.15075504436418,0,0,1,0A,1A,0.920623620461901,0.256596712028469,0.782031702183017,0.217968297816983,1,1,0.0793763795380985,0.0386409435336986,0.5,0.566388031718135,0.541755044364176,2.24186101689078,3.67083981409854,0.5,0.537283921932308,0.997868225831624,0.5,0.486806575943062,0.81862013051278,3.173748862037,3.4340120358755,0.5,74.2491524257452
178,1,38,B,3,1,l,27,1,0.82,3B,1B,0,1,0,1,B31,2.71394794157672,3.27714473299218,0.9592645639956,0.256596712028469,0.5,0.256596712028469,0.256596712028469,0.977984004811199,0.5,0.256596712028469,0.5,0.5,0.931798397119208,0.256596712028469,0.5,0.256596712028469,0.256596712028469,0.425381399685362,1.56275504436418,0,0,1,1B,3B,0.977984004811199,0.256596712028469,0.792158820781426,0.207841179218574,1,1,0.0220159951888015,0.0107175312338394,0.5,0.566388031718135,0.541755044364176,2.24186101689078,3.67083981409854,0.5,0.988681210951928,0.998287767708185,0.5,0.486806575943062,0.81862013051278,3.173748862037,3.4340120358755,0.5,74.2491524257452
178,1,39,C,2,3,a,63,0,0.82,2C,3C,1,0,0,1,C23,1.87830087539381,2.60268968544438,0.9592645639956,0.256596712028469,0.5,0.256596712028469,0.256596712028469,0.988701536045038,0.5,0.256596712028469,0.5,0.5,0.931798397119208,0.256596712028469,0.5,0.256596712028469,0.256596712028469,0.425381399685362,2.02775504436418,1,1,0,2C,3C,0.931798397119208,0.256596712028469,0.784081312643148,0.215918687356852,1,0,-0.931798397119208,-0.453605587170835,0.5,0.566388031718135,0.541755044364176,2.24186101689078,3.67083981409854,0.5,0.471487448309114,0.997954508080854,0.5,0.486806575943062,0.81862013051278,3.173748862037,3.4340120358755,0.5,74.2491524257452
178,1,40,D,2,3,l,63,1,0.82,2D,3D,0,1,0,1,D23,1.55925635674655,2.62103882411258,0.9592645639956,0.256596712028469,0.5,0.256596712028469,0.256596712028469,0.988701536045038,0.5,0.256596712028469,0.5,0.5,0.478192809948373,0.256596712028469,0.5,0.256596712028469,0.256596712028469,0.425381399685362,3.00475504436418,0,0,1,3D,2D,0.425381399685362,0.256596712028469,0.623746411180802,0.376253588819198,1,1,0.574618600314638,0.279728113292363,0.5,0.566388031718135,0.541755044364176,2.24186101689078,3.67083981409854,0.5,0.209029226171538,0.936947039945143,0.5,0.486806575943062,0.81862013051278,3.173748862037,3.4340120358755,0.5,74.2491524257452
178,1,41,B,1,0,a,63,1,0.82,1B,0B,1,0,1,0,B10,0.153809370425621,2.63905732961526,0.9592645639956,0.256596712028469,0.5,0.256596712028469,0.256596712028469,0.988701536045038,0.5,0.256596712028469,0.5,0.5,0.478192809948373,0.256596712028469,0.5,0.256596712028469,0.256596712028469,0.705109512977726,1.13875504436418,1,1,0,1B,0B,0.988701536045038,0.256596712028469,0.793947584504011,0.206052415495989,1,1,0.0112984639549621,0.00550016655133122,0.5,0.566388031718135,0.541755044364176,2.24186101689078,3.67083981409854,0.5,0.534602758391789,0.998361722094683,0.5,0.486806575943062,0.81862013051278,3.173748862037,3.4340120358755,0.5,74.2491524257452
178,1,42,A,0,2,a,27,1,0.82,0A,2A,1,0,1,0,A02,0.802991258709074,3.3499040872746,0.9592645639956,0.256596712028469,0.5,0.256596712028469,0.256596712028469,0.994201702596369,0.5,0.256596712028469,0.5,0.5,0.478192809948373,0.256596712028469,0.5,0.256596712028469,0.256596712028469,0.705109512977726,2.06875504436418,1,1,0,0A,2A,0.9592645639956,0.5,0.657361651659001,0.342638348340999,1,1,0.0407354360043999,0.0198302781208496,0.5,0.566388031718135,0.541755044364176,2.24186101689078,3.67083981409854,0.5,0.448892722697002,0.968679600658098,0.5,0.486806575943062,0.81862013051278,3.173748862037,3.4340120358755,0.5,74.2491524257452
178,1,43,D,0,3,l,9,1,0.82,0D,3D,0,1,0,1,D03,0.00665354892626646,4.06044301054642,0.97909484211645,0.256596712028469,0.5,0.256596712028469,0.256596712028469,0.994201702596369,0.5,0.256596712028469,0.5,0.5,0.478192809948373,0.256596712028469,0.5,0.256596712028469,0.256596712028469,0.705109512977726,4.53475504436418,1,1,0,0D,3D,0.5,0.705109512977726,0.414900052331793,0.585099947668207,0,0,-0.5,-0.243403287971531,0.5,0.566388031718135,0.541755044364176,2.24186101689078,3.67083981409854,0.5,0.0129250686137668,0.135171993503324,0.5,0.486806575943062,0.81862013051278,3.173748862037,3.4340120358755,0.5,74.2491524257452
178,1,44,C,2,3,a,63,1,0.82,2C,3C,1,0,1,0,C23,2.24195303319116,2.46809953147162,0.97909484211645,0.256596712028469,0.5,0.256596712028469,0.256596712028469,0.994201702596369,0.5,0.256596712028469,0.5,0.5,0.478192809948373,0.256596712028469,0.256596712028469,0.256596712028469,0.256596712028469,0.705109512977726,3.13575504436418,1,1,0,2C,3C,0.478192809948373,0.256596712028469,0.650788825433801,0.349211174566199,1,1,0.521807190051627,0.254019171491503,0.5,0.566388031718135,0.541755044364176,2.24186101689078,3.67083981409854,0.5,0.180657747301178,0.963858292383574,0.5,0.486806575943062,0.81862013051278,3.173748862037,3.4340120358755,0.5,74.2491524257452
