ID,session,trialNr,mod2Stim,visStimLeft,visStimRight,correctKey,frequency,rewardAccurate,probFB,stimPairLeft,stimPairRight,leftCorrect,rightCorrect,pCorrectLeft,pCorrectRight,triplet,rt,surprise,0A belief,1A belief,2A belief,3A belief,0B belief,1B belief,2B belief,3B belief,0C belief,1C belief,2C belief,3C belief,0D belief,1D belief,2D belief,3D belief,reactionTime,choice,choiceLeft,choiceRight,chosenPair,otherPair,beliefPair,beliefOtherPair,beliefPairNorm,beliefOtherPairNorm,choiceAccurate,reward,rewardPE,update2,sim_CBCsimpleRW_CBCdriftDiffusionLR_startBelief,sim_CBCsimpleRW_CBCdriftDiffusionLR_alpha1,sim_CBCsimpleRW_CBCdriftDiffusionLR_nonDecisionTime,sim_CBCsimpleRW_CBCdriftDiffusionLR_weight,sim_CBCsimpleRW_CBCdriftDiffusionLR_startingBoundary,sim_CBCsimpleRW_CBCdriftDiffusionLR_startingPoint,lik,corrLik,fitCBCsimpleRW_CBCdriftDiffusionLR_startBelief,fitCBCsimpleRW_CBCdriftDiffusionLR_alpha1,fitCBCsimpleRW_CBCdriftDiffusionLR_nonDecisionTime,fitCBCsimpleRW_CBCdriftDiffusionLR_weight,fitCBCsimpleRW_CBCdriftDiffusionLR_startingBoundary,fitCBCsimpleRW_CBCdriftDiffusionLR_startingPoint,fit_CBCsimpleRW_CBCdriftDiffusionLR_NLL
190,1,1,A,1,0,l,63,1,1,1A,0A,0,1,0,1,A10,0.996067364222024,2.77258872223978,0.5,0.5,0.5,0.5,0.5,0.5,0.5,0.5,0.5,0.5,0.5,0.5,0.5,0.5,0.5,0.5,0.370760981277817,1,1,0,1A,0A,0.5,0.5,0.5,0.5,0,0,-0.5,-0.41865145722653,0.5,0.623102948638457,0.332760981277817,12.3452701142152,1.3794507801062,0.5,0.151026739041617,0.499663518645521,0.5,0.83730291445306,0.336771606101655,9.49096783426916,1.22917913661779,0.5,-48.9464107164662
190,1,2,C,3,2,l,63,1,1,3C,2C,0,1,0,1,C32,2.65501451316268,2.83321334405622,0.5,0.0813485427734699,0.5,0.5,0.5,0.5,0.5,0.5,0.5,0.5,0.5,0.5,0.5,0.5,0.5,0.5,0.474760981277817,0,0,1,2C,3C,0.5,0.5,0.5,0.5,1,1,0.5,0.41865145722653,0.5,0.623102948638457,0.332760981277817,12.3452701142152,1.3794507801062,0.5,1.21762089803489,0.500240101779502,0.5,0.83730291445306,0.336771606101655,9.49096783426916,1.22917913661779,0.5,-48.9464107164662
190,1,3,A,0,2,a,27,1,1,0A,2A,1,0,1,0,A02,3.01439507029269,2.89037175789616,0.5,0.0813485427734699,0.5,0.5,0.5,0.5,0.5,0.5,0.5,0.5,0.91865145722653,0.5,0.5,0.5,0.5,0.5,0.709760981277817,0,0,1,2A,0A,0.5,0.5,0.5,0.5,0,0,-0.5,-0.41865145722653,0.5,0.623102948638457,0.332760981277817,12.3452701142152,1.3794507801062,0.5,0.615031352609814,0.500152643814662,0.5,0.83730291445306,0.336771606101655,9.49096783426916,1.22917913661779,0.5,-48.9464107164662
190,1,4,B,1,0,a,63,1,1,1B,0B,1,0,1,0,B10,0.712150819626736,2.94443897916644,0.5,0.0813485427734699,0.0813485427734699,0.5,0.5,0.5,0.5,0.5,0.5,0.5,0.91865145722653,0.5,0.5,0.5,0.5,0.5,0.619760981277817,0,0,1,0B,1B,0.5,0.5,0.5,0.5,0,0,-0.5,-0.41865145722653,0.5,0.623102948638457,0.332760981277817,12.3452701142152,1.3794507801062,0.5,0.823651629152666,0.500047106471387,0.5,0.83730291445306,0.336771606101655,9.49096783426916,1.22917913661779,0.5,-48.9464107164662
190,1,5,D,2,3,l,63,1,1,2D,3D,0,1,0,1,D23,1.33663707510676,2.99573227355399,0.5,0.0813485427734699,0.0813485427734699,0.5,0.0813485427734699,0.5,0.5,0.5,0.5,0.5,0.91865145722653,0.5,0.5,0.5,0.5,0.5,0.506760981277817,0,0,1,3D,2D,0.5,0.5,0.5,0.5,1,1,0.5,0.41865145722653,0.5,0.623102948638457,0.332760981277817,12.3452701142152,1.3794507801062,0.5,1.15100981699909,0.499887775705585,0.5,0.83730291445306,0.336771606101655,9.49096783426916,1.22917913661779,0.5,-48.9464107164662
190,1,6,B,1,2,a,9,1,1,1B,2B,1,0,1,0,B12,0.38644748240188,3.04452243772342,0.5,0.0813485427734699,0.0813485427734699,0.5,0.0813485427734699,0.5,0.5,0.5,0.5,0.5,0.91865145722653,0.5,0.5,0.5,0.5,0.91865145722653,0.658760981277817,0,0,1,2B,1B,0.5,0.5,0.5,0.5,0,0,-0.5,-0.41865145722653,0.5,0.623102948638457,0.332760981277817,12.3452701142152,1.3794507801062,0.5,0.725823676520459,0.499927233880489,0.5,0.83730291445306,0.336771606101655,9.49096783426916,1.22917913661779,0.5,-48.9464107164662
190,1,7,D,1,3,l,27,1,1,1D,3D,0,1,0,1,D13,0.458349941289644,3.09104245335832,0.5,0.0813485427734699,0.0813485427734699,0.5,0.0813485427734699,0.5,0.0813485427734699,0.5,0.5,0.5,0.91865145722653,0.5,0.5,0.5,0.5,0.91865145722653,0.465760981277817,0,0,1,3D,1D,0.91865145722653,0.5,0.647552612410167,0.352447387589833,1,1,0.0813485427734699,0.0681133719507358,0.5,0.623102948638457,0.332760981277817,12.3452701142152,1.3794507801062,0.5,4.12666792872457,0.969002605310642,0.5,0.83730291445306,0.336771606101655,9.49096783426916,1.22917913661779,0.5,-48.9464107164662
190,1,8,A,1,0,l,63,1,1,1A,0A,0,1,0,1,A10,2.4775795447676,2.4423470353692,0.5,0.0813485427734699,0.0813485427734699,0.5,0.0813485427734699,0.5,0.0813485427734699,0.5,0.5,0.5,0.91865145722653,0.5,0.5,0.5,0.5,0.986764829177266,0.382760981277817,0,0,1,0A,1A,0.5,0.0813485427734699,0.860069241103837,0.139930758896163,1,1,0.5,0.41865145722653,0.5,0.623102948638457,0.332760981277817,12.3452701142152,1.3794507801062,0.5,9.33190430104071,0.999775776121552,0.5,0.83730291445306,0.336771606101655,9.49096783426916,1.22917913661779,0.5,-48.9464107164662
190,1,9,A,0,1,a,63,1,1,0A,1A,1,0,1,0,A01,3.06169757988558,3.17805383034795,0.91865145722653,0.0813485427734699,0.0813485427734699,0.5,0.0813485427734699,0.5,0.0813485427734699,0.5,0.5,0.5,0.91865145722653,0.5,0.5,0.5,0.5,0.986764829177266,0.488760981277817,1,1,0,0A,1A,0.91865145722653,0.0813485427734699,0.91865145722653,0.0813485427734699,1,1,0.0813485427734699,0.0681133719507358,0.5,0.623102948638457,0.332760981277817,12.3452701142152,1.3794507801062,0.5,1.30012538600919,0.999942729107987,0.5,0.83730291445306,0.336771606101655,9.49096783426916,1.22917913661779,0.5,-48.9464107164662
190,1,10,C,2,0,a,27,1,1,2C,0C,1,0,1,0,C20,2.05337894463044,3.2188758248682,0.986764829177266,0.0813485427734699,0.0813485427734699,0.5,0.0813485427734699,0.5,0.0813485427734699,0.5,0.5,0.5,0.91865145722653,0.5,0.5,0.5,0.5,0.986764829177266,0.432760981277817,1,1,0,2C,0C,0.91865145722653,0.5,0.647552612410167,0.352447387589833,1,1,0.0813485427734699,0.0681133719507358,0.5,0.623102948638457,0.332760981277817,12.3452701142152,1.3794507801062,0.5,4.42348065905519,0.969017779212639,0.5,0.83730291445306,0.336771606101655,9.49096783426916,1.22917913661779,0.5,-48.9464107164662
190,1,11,B,0,1,l,63,1,1,0B,1B,0,1,0,1,B01,2.81850456098773,3.25809653802148,0.986764829177266,0.0813485427734699,0.0813485427734699,0.5,0.0813485427734699,0.5,0.0813485427734699,0.5,0.5,0.5,0.986764829177266,0.5,0.5,0.5,0.5,0.986764829177266,0.470760981277817,0,0,1,1B,0B,0.5,0.0813485427734699,0.860069241103837,0.139930758896163,1,1,0.5,0.41865145722653,0.5,0.623102948638457,0.332760981277817,12.3452701142152,1.3794507801062,0.5,3.56317275043674,0.999775471203433,0.5,0.83730291445306,0.336771606101655,9.49096783426916,1.22917913661779,0.5,-48.9464107164662
190,1,12,A,0,1,a,63,1,1,0A,1A,1,0,1,0,A01,1.99035753661777,2.60268968544438,0.986764829177266,0.0813485427734699,0.0813485427734699,0.5,0.0813485427734699,0.91865145722653,0.0813485427734699,0.5,0.5,0.5,0.986764829177266,0.5,0.5,0.5,0.5,0.986764829177266,0.391760981277817,1,1,0,0A,1A,0.986764829177266,0.0813485427734699,0.923839037212969,0.0761609627870307,1,1,0.0132351708227342,0.0110818471031594,0.5,0.623102948638457,0.332760981277817,12.3452701142152,1.3794507801062,0.5,14.520563337938,0.999949262038734,0.5,0.83730291445306,0.336771606101655,9.49096783426916,1.22917913661779,0.5,-48.9464107164662
190,1,13,C,3,2,l,63,1,1,3C,2C,0,1,0,1,C32,1.35538143891298,2.63905732961526,0.997846676280425,0.0813485427734699,0.0813485427734699,0.5,0.0813485427734699,0.91865145722653,0.0813485427734699,0.5,0.5,0.5,0.986764829177266,0.5,0.5,0.5,0.5,0.986764829177266,0.579760981277817,0,0,1,2C,3C,0.986764829177266,0.5,0.663699335505074,0.336300664494926,1,1,0.0132351708227342,0.0110818471031594,0.5,0.623102948638457,0.332760981277817,12.3452701142152,1.3794507801062,0.5,1.95361723918596,0.978548130009932,0.5,0.83730291445306,0.336771606101655,9.49096783426916,1.22917913661779,0.5,-48.9464107164662
190,1,14,A,0,2,a,27,1,1,0A,2A,1,0,1,0,A02,2.34776729612852,2.67414864942653,0.997846676280425,0.0813485427734699,0.0813485427734699,0.5,0.0813485427734699,0.91865145722653,0.0813485427734699,0.5,0.5,0.5,0.997846676280425,0.5,0.5,0.5,0.5,0.986764829177266,0.442760981277817,1,1,0,0A,2A,0.997846676280425,0.0813485427734699,0.924621105304019,0.0753788946959812,1,1,0.00215332371957477,0.00180298422616086,0.5,0.623102948638457,0.332760981277817,12.3452701142152,1.3794507801062,0.5,5.41822087255014,0.999950213506682,0.5,0.83730291445306,0.336771606101655,9.49096783426916,1.22917913661779,0.5,-48.9464107164662
190,1,15,B,1,0,a,63,1,1,1B,0B,1,0,1,0,B10,1.47672923835934,2.70805020110221,0.999649660506586,0.0813485427734699,0.0813485427734699,0.5,0.0813485427734699,0.91865145722653,0.0813485427734699,0.5,0.5,0.5,0.997846676280425,0.5,0.5,0.5,0.5,0.986764829177266,0.375760981277817,1,1,0,1B,0B,0.91865145722653,0.0813485427734699,0.91865145722653,0.0813485427734699,1,1,0.0813485427734699,0.0681133719507358,0.5,0.623102948638457,0.332760981277817,12.3452701142152,1.3794507801062,0.5,9.68057530529337,0.999942785556984,0.5,0.83730291445306,0.336771606101655,9.49096783426916,1.22917913661779,0.5,-48.9464107164662
190,1,16,B,0,1,l,63,1,1,0B,1B,0,1,0,1,B01,2.10180587252558,2.7408400239252,0.999649660506586,0.0813485427734699,0.0813485427734699,0.5,0.0813485427734699,0.986764829177266,0.0813485427734699,0.5,0.5,0.5,0.997846676280425,0.5,0.5,0.5,0.5,0.986764829177266,0.440760981277817,0,0,1,1B,0B,0.986764829177266,0.0813485427734699,0.923839037212969,0.0761609627870307,1,1,0.0132351708227342,0.0110818471031594,0.5,0.623102948638457,0.332760981277817,12.3452701142152,1.3794507801062,0.5,5.76789903556444,0.999949308955584,0.5,0.83730291445306,0.336771606101655,9.49096783426916,1.22917913661779,0.5,-48.9464107164662
190,1,17,C,3,2,l,63,1,1,3C,2C,0,1,0,1,C32,2.0583759728664,2.36712361413162,0.999649660506586,0.0813485427734699,0.0813485427734699,0.5,0.0813485427734699,0.997846676280425,0.0813485427734699,0.5,0.5,0.5,0.997846676280425,0.5,0.5,0.5,0.5,0.986764829177266,0.708760981277817,0,0,1,2C,3C,0.997846676280425,0.5,0.66618746236321,0.33381253763679,1,1,0.00215332371957477,0.00180298422616086,0.5,0.623102948638457,0.332760981277817,12.3452701142152,1.3794507801062,0.5,0.673533975285883,0.979716516337727,0.5,0.83730291445306,0.336771606101655,9.49096783426916,1.22917913661779,0.5,-48.9464107164662
190,1,18,D,3,1,a,27,1,1,3D,1D,1,0,1,0,D31,1.40940889564526,3.49650756146648,0.999649660506586,0.0813485427734699,0.0813485427734699,0.5,0.0813485427734699,0.997846676280425,0.0813485427734699,0.5,0.5,0.5,0.999649660506586,0.5,0.5,0.5,0.5,0.986764829177266,0.441760981277817,1,1,0,3D,1D,0.986764829177266,0.5,0.663699335505074,0.336300664494926,1,1,0.0132351708227342,0.0110818471031594,0.5,0.623102948638457,0.332760981277817,12.3452701142152,1.3794507801062,0.5,4.85074728733366,0.978532333424665,0.5,0.83730291445306,0.336771606101655,9.49096783426916,1.22917913661779,0.5,-48.9464107164662
190,1,19,C,1,2,l,9,1,1,1C,2C,0,1,0,1,C12,1.73716504966635,3.52636052461616,0.999649660506586,0.0813485427734699,0.0813485427734699,0.5,0.0813485427734699,0.997846676280425,0.0813485427734699,0.5,0.5,0.5,0.999649660506586,0.5,0.5,0.5,0.5,0.997846676280425,0.899760981277817,0,0,1,2C,1C,0.999649660506586,0.5,0.666588795258288,0.333411204741712,1,1,0.000350339493413898,0.000293340278883466,0.5,0.623102948638457,0.332760981277817,12.3452701142152,1.3794507801062,0.5,0.138105123021434,0.979936734409234,0.5,0.83730291445306,0.336771606101655,9.49096783426916,1.22917913661779,0.5,-48.9464107164662
190,1,20,B,3,1,l,27,1,1,3B,1B,0,1,0,1,B31,1.38257679434175,3.55534806148941,0.999649660506586,0.0813485427734699,0.0813485427734699,0.5,0.0813485427734699,0.997846676280425,0.0813485427734699,0.5,0.5,0.5,0.99994300078547,0.5,0.5,0.5,0.5,0.997846676280425,0.454760981277817,0,0,1,1B,3B,0.997846676280425,0.5,0.66618746236321,0.33381253763679,1,1,0.00215332371957477,0.00180298422616086,0.5,0.623102948638457,0.332760981277817,12.3452701142152,1.3794507801062,0.5,4.71536942849032,0.97969748450931,0.5,0.83730291445306,0.336771606101655,9.49096783426916,1.22917913661779,0.5,-48.9464107164662
190,1,21,D,3,2,a,63,1,1,3D,2D,1,0,1,0,D32,1.30750803534911,3.58351893845611,0.999649660506586,0.0813485427734699,0.0813485427734699,0.5,0.0813485427734699,0.999649660506586,0.0813485427734699,0.5,0.5,0.5,0.99994300078547,0.5,0.5,0.5,0.5,0.997846676280425,0.592760981277817,1,1,0,3D,2D,0.997846676280425,0.5,0.66618746236321,0.33381253763679,1,1,0.00215332371957477,0.00180298422616086,0.5,0.623102948638457,0.332760981277817,12.3452701142152,1.3794507801062,0.5,1.7457598616299,0.979724399474438,0.5,0.83730291445306,0.336771606101655,9.49096783426916,1.22917913661779,0.5,-48.9464107164662
190,1,22,B,1,0,a,63,1,1,1B,0B,1,0,1,0,B10,0.69166558559912,2.51230562397611,0.999649660506586,0.0813485427734699,0.0813485427734699,0.5,0.0813485427734699,0.999649660506586,0.0813485427734699,0.5,0.5,0.5,0.99994300078547,0.5,0.5,0.5,0.5,0.999649660506586,0.404760981277817,1,1,0,1B,0B,0.999649660506586,0.0813485427734699,0.924746828878498,0.0752531711215017,1,1,0.000350339493413898,0.000293340278883466,0.5,0.623102948638457,0.332760981277817,12.3452701142152,1.3794507801062,0.5,13.3883801316962,0.999950311388027,0.5,0.83730291445306,0.336771606101655,9.49096783426916,1.22917913661779,0.5,-48.9464107164662
190,1,23,A,3,0,l,9,1,1,3A,0A,0,1,0,1,A30,2.065621406601,3.63758615972639,0.999649660506586,0.0813485427734699,0.0813485427734699,0.5,0.0813485427734699,0.99994300078547,0.0813485427734699,0.5,0.5,0.5,0.99994300078547,0.5,0.5,0.5,0.5,0.999649660506586,0.634760981277817,0,0,1,0A,3A,0.999649660506586,0.5,0.666588795258288,0.333411204741712,1,1,0.000350339493413898,0.000293340278883466,0.5,0.623102948638457,0.332760981277817,12.3452701142152,1.3794507801062,0.5,1.23561446138224,0.979867843355168,0.5,0.83730291445306,0.336771606101655,9.49096783426916,1.22917913661779,0.5,-48.9464107164662
190,1,24,D,2,3,l,63,1,1,2D,3D,0,1,0,1,D23,1.21238270020423,2.9704144655697,0.99994300078547,0.0813485427734699,0.0813485427734699,0.5,0.0813485427734699,0.99994300078547,0.0813485427734699,0.5,0.5,0.5,0.99994300078547,0.5,0.5,0.5,0.5,0.999649660506586,0.420760981277817,0,0,1,3D,2D,0.999649660506586,0.5,0.666588795258288,0.333411204741712,1,1,0.000350339493413898,0.000293340278883466,0.5,0.623102948638457,0.332760981277817,12.3452701142152,1.3794507801062,0.5,4.87849869573675,0.979908399593613,0.5,0.83730291445306,0.336771606101655,9.49096783426916,1.22917913661779,0.5,-48.9464107164662
190,1,25,B,1,3,a,27,1,1,1B,3B,1,0,1,0,B13,0.217255828337082,3.68887945411394,0.99994300078547,0.0813485427734699,0.0813485427734699,0.5,0.0813485427734699,0.99994300078547,0.0813485427734699,0.5,0.5,0.5,0.99994300078547,0.5,0.5,0.5,0.5,0.99994300078547,0.431760981277817,1,1,0,1B,3B,0.99994300078547,0.5,0.66665399969321,0.33334600030679,1,1,5.69992145303955e-05,4.77256084478353e-05,0.5,0.623102948638457,0.332760981277817,12.3452701142152,1.3794507801062,0.5,4.9818117959625,0.979922045574869,0.5,0.83730291445306,0.336771606101655,9.49096783426916,1.22917913661779,0.5,-48.9464107164662
190,1,26,C,2,3,a,63,1,1,2C,3C,1,0,1,0,C23,0.670488100881837,3.71357206670431,0.99994300078547,0.0813485427734699,0.0813485427734699,0.5,0.0813485427734699,0.999990726393917,0.0813485427734699,0.5,0.5,0.5,0.99994300078547,0.5,0.5,0.5,0.5,0.99994300078547,0.532760981277817,1,1,0,2C,3C,0.99994300078547,0.5,0.66665399969321,0.33334600030679,1,1,5.69992145303955e-05,4.77256084478353e-05,0.5,0.623102948638457,0.332760981277817,12.3452701142152,1.3794507801062,0.5,2.82182026689452,0.979929174668201,0.5,0.83730291445306,0.336771606101655,9.49096783426916,1.22917913661779,0.5,-48.9464107164662
190,1,27,C,2,0,a,27,1,1,2C,0C,1,0,1,0,C20,0.405141282323241,3.04452243772342,0.99994300078547,0.0813485427734699,0.0813485427734699,0.5,0.0813485427734699,0.999990726393917,0.0813485427734699,0.5,0.5,0.5,0.999990726393917,0.5,0.5,0.5,0.5,0.99994300078547,0.469760981277817,1,1,0,2C,0C,0.999990726393917,0.5,0.666664605852574,0.333335394147426,1,1,9.27360608260486e-06,7.76481740045467e-06,0.5,0.623102948638457,0.332760981277817,12.3452701142152,1.3794507801062,0.5,4.38974374884035,0.979952117353392,0.5,0.83730291445306,0.336771606101655,9.49096783426916,1.22917913661779,0.5,-48.9464107164662
190,1,28,B,0,1,l,63,1,1,0B,1B,0,1,0,1,B01,1.71756551306409,2.66258782702545,0.99994300078547,0.0813485427734699,0.0813485427734699,0.5,0.0813485427734699,0.999990726393917,0.0813485427734699,0.5,0.5,0.5,0.999998491211318,0.5,0.5,0.5,0.5,0.99994300078547,0.420760981277817,0,0,1,1B,0B,0.999990726393917,0.0813485427734699,0.92477056452772,0.0752294354722796,1,1,9.27360608260486e-06,7.76481740045467e-06,0.5,0.623102948638457,0.332760981277817,12.3452701142152,1.3794507801062,0.5,9.83921335009169,0.999950507372251,0.5,0.83730291445306,0.336771606101655,9.49096783426916,1.22917913661779,0.5,-48.9464107164662
190,1,29,C,2,3,a,63,1,1,2C,3C,1,0,1,0,C23,1.99685795336633,3.09104245335832,0.99994300078547,0.0813485427734699,0.0813485427734699,0.5,0.0813485427734699,0.999998491211318,0.0813485427734699,0.5,0.5,0.5,0.999998491211318,0.5,0.5,0.5,0.5,0.99994300078547,0.660760981277817,1,1,0,2C,3C,0.999998491211318,0.5,0.666666331379956,0.333333668620044,1,1,1.50878868210302e-06,1.26331316081865e-06,0.5,0.623102948638457,0.332760981277817,12.3452701142152,1.3794507801062,0.5,0.995623496102906,0.979972598008642,0.5,0.83730291445306,0.336771606101655,9.49096783426916,1.22917913661779,0.5,-48.9464107164662
190,1,30,A,1,0,l,63,1,1,1A,0A,0,1,0,1,A10,1.56313053680786,2.70805020110221,0.99994300078547,0.0813485427734699,0.0813485427734699,0.5,0.0813485427734699,0.999998491211318,0.0813485427734699,0.5,0.5,0.5,0.999999754524479,0.5,0.5,0.5,0.5,0.99994300078547,0.375760981277817,0,0,1,0A,1A,0.99994300078547,0.0813485427734699,0.92476724408135,0.0752327559186499,1,1,5.69992145303955e-05,4.77256084478353e-05,0.5,0.623102948638457,0.332760981277817,12.3452701142152,1.3794507801062,0.5,10.0247416126068,0.999950357406042,0.5,0.83730291445306,0.336771606101655,9.49096783426916,1.22917913661779,0.5,-48.9464107164662
190,1,31,D,2,3,l,63,1,1,2D,3D,0,1,0,1,D23,0.0215892473988864,2.73002910782099,0.999990726393917,0.0813485427734699,0.0813485427734699,0.5,0.0813485427734699,0.999998491211318,0.0813485427734699,0.5,0.5,0.5,0.999999754524479,0.5,0.5,0.5,0.5,0.99994300078547,0.418760981277817,0,0,1,3D,2D,0.99994300078547,0.5,0.66665399969321,0.33334600030679,1,1,5.69992145303955e-05,4.77256084478353e-05,0.5,0.623102948638457,0.332760981277817,12.3452701142152,1.3794507801062,0.5,4.83954449229869,0.979954863875822,0.5,0.83730291445306,0.336771606101655,9.49096783426916,1.22917913661779,0.5,-48.9464107164662
190,1,32,C,2,3,a,63,1,1,2C,3C,1,0,1,0,C23,2.87856946890105,2.75153531304195,0.999990726393917,0.0813485427734699,0.0813485427734699,0.5,0.0813485427734699,0.999998491211318,0.0813485427734699,0.5,0.5,0.5,0.999999754524479,0.5,0.5,0.5,0.5,0.999990726393917,0.486760981277817,1,1,0,2C,3C,0.999999754524479,0.5,0.666666612116542,0.333333387883458,1,1,2.45475521243321e-07,2.05537369363917e-07,0.5,0.623102948638457,0.332760981277817,12.3452701142152,1.3794507801062,0.5,3.95333631884141,0.979946880518134,0.5,0.83730291445306,0.336771606101655,9.49096783426916,1.22917913661779,0.5,-48.9464107164662
190,1,33,D,3,1,a,27,1,1,3D,1D,1,0,1,0,D31,0.499897320741493,3.17805383034795,0.999990726393917,0.0813485427734699,0.0813485427734699,0.5,0.0813485427734699,0.999998491211318,0.0813485427734699,0.5,0.5,0.5,0.999999960061848,0.5,0.5,0.5,0.5,0.999990726393917,0.516760981277817,1,1,0,3D,1D,0.999990726393917,0.5,0.666664605852574,0.333335394147426,1,1,9.27360608260486e-06,7.76481740045467e-06,0.5,0.623102948638457,0.332760981277817,12.3452701142152,1.3794507801062,0.5,3.19041025132235,0.979910894211985,0.5,0.83730291445306,0.336771606101655,9.49096783426916,1.22917913661779,0.5,-48.9464107164662
190,1,34,C,0,2,l,27,1,1,0C,2C,0,1,0,1,C02,2.80063204225938,3.89182029811063,0.999990726393917,0.0813485427734699,0.0813485427734699,0.5,0.0813485427734699,0.999998491211318,0.0813485427734699,0.5,0.5,0.5,0.999999960061848,0.5,0.5,0.5,0.5,0.999998491211318,0.411760981277817,0,0,1,2C,0C,0.999999960061848,0.5,0.666666657791522,0.333333342208478,1,1,3.99381518967346e-08,3.34403309810049e-08,0.5,0.623102948638457,0.332760981277817,12.3452701142152,1.3794507801062,0.5,4.62065932480159,0.979943838512448,0.5,0.83730291445306,0.336771606101655,9.49096783426916,1.22917913661779,0.5,-48.9464107164662
190,1,35,D,2,3,l,63,1,1,2D,3D,0,1,0,1,D23,3.30050251058999,2.52572864430826,0.999990726393917,0.0813485427734699,0.0813485427734699,0.5,0.0813485427734699,0.999998491211318,0.0813485427734699,0.5,0.5,0.5,0.999999993502179,0.5,0.5,0.5,0.5,0.999998491211318,0.702760981277817,0,0,1,3D,2D,0.999998491211318,0.5,0.666666331379956,0.333333668620044,1,1,1.50878868210302e-06,1.26331316081865e-06,0.5,0.623102948638457,0.332760981277817,12.3452701142152,1.3794507801062,0.5,0.704664701479095,0.979906748143221,0.5,0.83730291445306,0.336771606101655,9.49096783426916,1.22917913661779,0.5,-48.9464107164662
190,1,36,A,1,0,l,63,1,1,1A,0A,0,1,0,1,A10,2.17707921735486,2.54553127160444,0.999990726393917,0.0813485427734699,0.0813485427734699,0.5,0.0813485427734699,0.999998491211318,0.0813485427734699,0.5,0.5,0.5,0.999999993502179,0.5,0.5,0.5,0.5,0.999999754524479,0.424760981277817,0,0,1,0A,1A,0.999990726393917,0.0813485427734699,0.92477056452772,0.0752294354722796,1,1,9.27360608260486e-06,7.76481740045467e-06,0.5,0.623102948638457,0.332760981277817,12.3452701142152,1.3794507801062,0.5,8.92595465352165,0.999950346673987,0.5,0.83730291445306,0.336771606101655,9.49096783426916,1.22917913661779,0.5,-48.9464107164662
190,1,37,C,2,3,a,63,1,1,2C,3C,1,0,1,0,C23,2.33438962053061,2.56494935746154,0.999998491211318,0.0813485427734699,0.0813485427734699,0.5,0.0813485427734699,0.999998491211318,0.0813485427734699,0.5,0.5,0.5,0.999999993502179,0.5,0.5,0.5,0.5,0.999999754524479,0.409760981277817,1,1,0,2C,3C,0.999999993502179,0.5,0.666666665222706,0.333333334777294,1,1,6.49782094797047e-09,5.44064441732982e-09,0.5,0.623102948638457,0.332760981277817,12.3452701142152,1.3794507801062,0.5,4.53378262377817,0.979910452410276,0.5,0.83730291445306,0.336771606101655,9.49096783426916,1.22917913661779,0.5,-48.9464107164662
190,1,38,A,0,2,a,27,1,1,0A,2A,1,0,1,0,A02,2.18416035516925,2.87167962488401,0.999998491211318,0.0813485427734699,0.0813485427734699,0.5,0.0813485427734699,0.999998491211318,0.0813485427734699,0.5,0.5,0.5,0.999999998942823,0.5,0.5,0.5,0.5,0.999999754524479,0.398760981277817,1,1,0,0A,2A,0.999998491211318,0.0813485427734699,0.924771104726945,0.0752288952730547,1,1,1.50878868210302e-06,1.26331316081865e-06,0.5,0.623102948638457,0.332760981277817,12.3452701142152,1.3794507801062,0.5,14.2848326195719,0.999950366506016,0.5,0.83730291445306,0.336771606101655,9.49096783426916,1.22917913661779,0.5,-48.9464107164662
190,1,39,D,2,3,l,63,1,1,2D,3D,0,1,0,1,D23,1.60054798780476,2.37954613413017,0.999999754524479,0.0813485427734699,0.0813485427734699,0.5,0.0813485427734699,0.999998491211318,0.0813485427734699,0.5,0.5,0.5,0.999999998942823,0.5,0.5,0.5,0.5,0.999999754524479,0.452760981277817,0,0,1,3D,2D,0.999999754524479,0.5,0.666666612116542,0.333333387883458,1,1,2.45475521243321e-07,2.05537369363917e-07,0.5,0.623102948638457,0.332760981277817,12.3452701142152,1.3794507801062,0.5,4.76493578483749,0.979938884937437,0.5,0.83730291445306,0.336771606101655,9.49096783426916,1.22917913661779,0.5,-48.9464107164662
190,1,40,D,3,2,a,63,1,1,3D,2D,1,0,1,0,D32,2.24139424780631,3.31418600467253,0.999999754524479,0.0813485427734699,0.0813485427734699,0.5,0.0813485427734699,0.999998491211318,0.0813485427734699,0.5,0.5,0.5,0.999999998942823,0.5,0.5,0.5,0.5,0.999999960061848,0.472760981277817,1,1,0,3D,2D,0.999999960061848,0.5,0.666666657791522,0.333333342208478,1,1,3.99381518967346e-08,3.34403309810049e-08,0.5,0.623102948638457,0.332760981277817,12.3452701142152,1.3794507801062,0.5,4.31567623908189,0.979971013007426,0.5,0.83730291445306,0.336771606101655,9.49096783426916,1.22917913661779,0.5,-48.9464107164662
190,1,41,B,3,1,l,27,1,1,3B,1B,0,1,0,1,B31,2.08128625509393,3.3322045101752,0.999999754524479,0.0813485427734699,0.0813485427734699,0.5,0.0813485427734699,0.999998491211318,0.0813485427734699,0.5,0.5,0.5,0.999999998942823,0.5,0.5,0.5,0.5,0.999999993502179,0.432760981277817,0,0,1,1B,3B,0.999998491211318,0.5,0.666666331379956,0.333333668620044,1,1,1.50878868210302e-06,1.26331316081865e-06,0.5,0.623102948638457,0.332760981277817,12.3452701142152,1.3794507801062,0.5,4.98280119950733,0.979937327348418,0.5,0.83730291445306,0.336771606101655,9.49096783426916,1.22917913661779,0.5,-48.9464107164662
190,1,42,D,3,0,a,9,1,1,3D,0D,1,0,1,0,D30,3.23233918358984,4.04305126783455,0.999999754524479,0.0813485427734699,0.0813485427734699,0.5,0.0813485427734699,0.999999754524479,0.0813485427734699,0.5,0.5,0.5,0.999999998942823,0.5,0.5,0.5,0.5,0.999999993502179,0.657760981277817,1,1,0,3D,0D,0.999999993502179,0.5,0.666666665222706,0.333333334777294,1,1,6.49782094797047e-09,5.44064441732982e-09,0.5,0.623102948638457,0.332760981277817,12.3452701142152,1.3794507801062,0.5,1.02086639726103,0.979956694306127,0.5,0.83730291445306,0.336771606101655,9.49096783426916,1.22917913661779,0.5,-48.9464107164662
190,1,43,B,0,1,l,63,1,1,0B,1B,0,1,0,1,B01,2.39766962228786,2.67414864942653,0.999999754524479,0.0813485427734699,0.0813485427734699,0.5,0.0813485427734699,0.999999754524479,0.0813485427734699,0.5,0.5,0.5,0.999999998942823,0.5,0.5,0.5,0.5,0.999999998942823,0.413760981277817,0,0,1,1B,0B,0.999999754524479,0.0813485427734699,0.924771192615051,0.075228807384949,1,1,2.45475521243321e-07,2.05537369363917e-07,0.5,0.623102948638457,0.332760981277817,12.3452701142152,1.3794507801062,0.5,11.4746167961191,0.999950444494425,0.5,0.83730291445306,0.336771606101655,9.49096783426916,1.22917913661779,0.5,-48.9464107164662
190,1,44,A,0,1,a,63,1,1,0A,1A,1,0,1,0,A01,1.28928394820675,2.97892515523761,0.999999754524479,0.0813485427734699,0.0813485427734699,0.5,0.0813485427734699,0.999999960061848,0.0813485427734699,0.5,0.5,0.5,0.999999998942823,0.5,0.5,0.5,0.5,0.999999998942823,0.403760981277817,1,1,0,0A,1A,0.999999754524479,0.0813485427734699,0.924771192615051,0.075228807384949,1,1,2.45475521243321e-07,2.05537369363917e-07,0.5,0.623102948638457,0.332760981277817,12.3452701142152,1.3794507801062,0.5,13.5689217890191,0.999950423329536,0.5,0.83730291445306,0.336771606101655,9.49096783426916,1.22917913661779,0.5,-48.9464107164662
