ID,filename,session,trial,visStimLeft,visStimRight,correctKey,leftCorrect,rightCorrect,secondStim,mod2Type,mod2Stim,frequency,rewardAccurate,stimPairLeft,stimPairRight,pCorrectLeft,pCorrectRight,key,reactionTime,choiceLeft,choiceRight,choiceAccurate,reward,chosenPair,otherPair,triplet,surprise,0A belief,1A belief,2A belief,3A belief,0B belief,1B belief,2B belief,3B belief,0C belief,1C belief,2C belief,3C belief,0D belief,1D belief,2D belief,3D belief,beliefPairNorm,beliefOtherPairNorm,beliefPair,beliefOtherPair,lik,corrLik,rewardPE,update2,fitCBCsimpleRW_CBCdriftDiffusionLR_pwBelief_startBelief,fitCBCsimpleRW_CBCdriftDiffusionLR_pwBelief_alpha1,fitCBCsimpleRW_CBCdriftDiffusionLR_pwBelief_nonDecisionTime,fitCBCsimpleRW_CBCdriftDiffusionLR_pwBelief_weight,fitCBCsimpleRW_CBCdriftDiffusionLR_pwBelief_startingBoundary,fitCBCsimpleRW_CBCdriftDiffusionLR_pwBelief_startingPoint,fit_CBCsimpleRW_CBCdriftDiffusionLR_pwBelief_NLL
CBC_1075,CBC_1075_MSI_AV_v3_Vset3_Aset3_2024-03-13_15h01.44.828.csv,1,1,1,0,b,1,0,0,aud,B,63,1,1B,0B,1,0,z,0.912142800001675,0,1,0,0,0B,1B,B10,2.77258872223978,0.5,0.5,0.5,0.5,0.5,0.5,0.5,0.5,0.5,0.5,0.5,0.5,0.5,0.5,0.5,0.5,0.5,0.5,0.5,0.5,0.0385415163123823,0.499944546447618,-0.5,-0.00232559420490569,0.5,0.00465118840981138,0.721193731733233,7.90744188928578,2.80748499765005,0.5,93.9062241530622
CBC_1075,CBC_1075_MSI_AV_v3_Vset3_Aset3_2024-03-13_15h01.44.828.csv,1,2,1,0,z,0,1,1,aud,A,63,1,1A,0A,0,1,b,1.85668040000019,1,0,0,0,1A,0A,A10,2.83321334405622,0.5,0.5,0.5,0.5,0.497674405795094,0.5,0.5,0.5,0.5,0.5,0.5,0.5,0.5,0.5,0.5,0.5,0.5,0.5,0.5,0.5,0.193911040086418,0.500312111459852,-0.5,-0.00232559420490569,0.5,0.00465118840981138,0.721193731733233,7.90744188928578,2.80748499765005,0.5,93.9062241530622
CBC_1075,CBC_1075_MSI_AV_v3_Vset3_Aset3_2024-03-13_15h01.44.828.csv,1,3,3,2,b,1,0,3,aud,D,63,1,3D,2D,1,0,z,1.12403900000027,0,1,0,0,2D,3D,D32,2.89037175789616,0.5,0.497674405795094,0.5,0.5,0.497674405795094,0.5,0.5,0.5,0.5,0.5,0.5,0.5,0.5,0.5,0.5,0.5,0.5,0.5,0.5,0.5,0.189618369747871,0.499485142212285,-0.5,-0.00232559420490569,0.5,0.00465118840981138,0.721193731733233,7.90744188928578,2.80748499765005,0.5,93.9062241530622
CBC_1075,CBC_1075_MSI_AV_v3_Vset3_Aset3_2024-03-13_15h01.44.828.csv,1,4,1,2,b,1,0,0,aud,B,9,1,1B,2B,1,0,z,2.22112689999994,0,1,0,0,2B,1B,B12,2.94443897916644,0.5,0.497674405795094,0.5,0.5,0.497674405795094,0.5,0.5,0.5,0.5,0.5,0.5,0.5,0.5,0.5,0.497674405795094,0.5,0.5,0.5,0.5,0.5,0.155277831662011,0.499019538126175,-0.5,-0.00232559420490569,0.5,0.00465118840981138,0.721193731733233,7.90744188928578,2.80748499765005,0.5,93.9062241530622
CBC_1075,CBC_1075_MSI_AV_v3_Vset3_Aset3_2024-03-13_15h01.44.828.csv,1,5,2,0,z,0,1,1,aud,A,27,1,2A,0A,0,1,z,1.51490770000055,0,1,1,1,0A,2A,A20,2.99573227355399,0.5,0.497674405795094,0.5,0.5,0.497674405795094,0.5,0.497674405795094,0.5,0.5,0.5,0.5,0.5,0.5,0.5,0.497674405795094,0.5,0.5,0.5,0.5,0.5,0.229557515198892,0.501553262301389,0.5,0.00232559420490569,0.5,0.00465118840981138,0.721193731733233,7.90744188928578,2.80748499765005,0.5,93.9062241530622
CBC_1075,CBC_1075_MSI_AV_v3_Vset3_Aset3_2024-03-13_15h01.44.828.csv,1,6,3,2,z,0,1,2,aud,C,63,1,3C,2C,0,1,b,1.73350030000256,1,0,0,0,3C,2C,C32,3.04452243772342,0.502325594204906,0.497674405795094,0.5,0.5,0.497674405795094,0.5,0.497674405795094,0.5,0.5,0.5,0.5,0.5,0.5,0.5,0.497674405795094,0.5,0.5,0.5,0.5,0.5,0.207024179871538,0.498870747043094,-0.5,-0.00232559420490569,0.5,0.00465118840981138,0.721193731733233,7.90744188928578,2.80748499765005,0.5,93.9062241530622
CBC_1075,CBC_1075_MSI_AV_v3_Vset3_Aset3_2024-03-13_15h01.44.828.csv,1,7,3,1,b,1,0,3,aud,D,27,1,3D,1D,1,0,z,3.26812640000207,0,1,0,0,1D,3D,D31,3.09104245335832,0.502325594204906,0.497674405795094,0.5,0.5,0.497674405795094,0.5,0.497674405795094,0.5,0.5,0.5,0.5,0.497674405795094,0.5,0.5,0.497674405795094,0.5,0.5,0.5,0.5,0.5,0.0807835433588121,0.499239229037398,-0.5,-0.00232559420490569,0.5,0.00465118840981138,0.721193731733233,7.90744188928578,2.80748499765005,0.5,93.9062241530622
CBC_1075,CBC_1075_MSI_AV_v3_Vset3_Aset3_2024-03-13_15h01.44.828.csv,1,8,0,1,b,1,0,1,aud,A,63,1,0A,1A,1,0,b,1.71383930000229,1,0,1,1,0A,1A,A01,3.13549421592915,0.502325594204906,0.497674405795094,0.5,0.5,0.497674405795094,0.5,0.497674405795094,0.5,0.5,0.5,0.5,0.497674405795094,0.5,0.497674405795094,0.497674405795094,0.5,0.504651087790254,0.495348912209746,0.502325594204906,0.497674405795094,0.231529260042246,0.550777262421014,0.497674405795094,0.00231477742809391,0.5,0.00465118840981138,0.721193731733233,7.90744188928578,2.80748499765005,0.5,93.9062241530622
CBC_1075,CBC_1075_MSI_AV_v3_Vset3_Aset3_2024-03-13_15h01.44.828.csv,1,9,0,2,z,0,1,2,aud,C,27,1,0C,2C,0,1,z,1.51240700000017,0,1,1,1,2C,0C,C02,3.17805383034795,0.504640371633,0.497674405795094,0.5,0.5,0.497674405795094,0.5,0.497674405795094,0.5,0.5,0.5,0.5,0.497674405795094,0.5,0.497674405795094,0.497674405795094,0.5,0.5,0.5,0.5,0.5,0.229055973018431,0.500051369289422,0.5,0.00232559420490569,0.5,0.00465118840981138,0.721193731733233,7.90744188928578,2.80748499765005,0.5,93.9062241530622
CBC_1075,CBC_1075_MSI_AV_v3_Vset3_Aset3_2024-03-13_15h01.44.828.csv,1,10,3,2,b,1,0,3,aud,D,63,1,3D,2D,1,0,z,2.56606100000135,0,1,0,0,2D,3D,D32,2.52572864430826,0.504640371633,0.497674405795094,0.5,0.5,0.497674405795094,0.5,0.497674405795094,0.5,0.5,0.5,0.502325594204906,0.497674405795094,0.5,0.497674405795094,0.497674405795094,0.5,0.497674405795094,0.502325594204906,0.497674405795094,0.5,0.119317581473418,0.475207140404392,-0.497674405795094,-0.00231477742809391,0.5,0.00465118840981138,0.721193731733233,7.90744188928578,2.80748499765005,0.5,93.9062241530622
CBC_1075,CBC_1075_MSI_AV_v3_Vset3_Aset3_2024-03-13_15h01.44.828.csv,1,11,0,1,z,0,1,0,aud,B,63,1,0B,1B,0,1,b,3.44533150000279,1,0,0,0,0B,1B,B01,3.25809653802148,0.504640371633,0.497674405795094,0.5,0.5,0.497674405795094,0.5,0.497674405795094,0.5,0.5,0.5,0.502325594204906,0.497674405795094,0.5,0.497674405795094,0.495359628367,0.5,0.497674405795094,0.502325594204906,0.497674405795094,0.5,0.0685867713379502,0.473843523842925,-0.497674405795094,-0.00231477742809391,0.5,0.00465118840981138,0.721193731733233,7.90744188928578,2.80748499765005,0.5,93.9062241530622
CBC_1075,CBC_1075_MSI_AV_v3_Vset3_Aset3_2024-03-13_15h01.44.828.csv,1,12,1,0,z,0,1,1,aud,A,63,1,1A,0A,0,1,z,2.42229980000229,0,1,1,1,0A,1A,A10,2.60268968544438,0.504640371633,0.497674405795094,0.5,0.5,0.495359628367,0.5,0.497674405795094,0.5,0.5,0.5,0.502325594204906,0.497674405795094,0.5,0.497674405795094,0.495359628367,0.5,0.506965665154621,0.493034334845379,0.504640371633,0.497674405795094,0.158419462378157,0.575955211354776,0.495359628367,0.00230401096214906,0.5,0.00465118840981138,0.721193731733233,7.90744188928578,2.80748499765005,0.5,93.9062241530622
CBC_1075,CBC_1075_MSI_AV_v3_Vset3_Aset3_2024-03-13_15h01.44.828.csv,1,13,3,2,b,1,0,3,aud,D,63,1,3D,2D,1,0,b,3.11185060000025,1,0,1,1,3D,2D,D32,2.23359222150709,0.506944382595149,0.497674405795094,0.5,0.5,0.495359628367,0.5,0.497674405795094,0.5,0.5,0.5,0.502325594204906,0.497674405795094,0.5,0.497674405795094,0.495359628367,0.5,0.504640371633,0.495359628367,0.5,0.495359628367,0.0981743694379994,0.550783240386093,0.5,0.00232559420490569,0.5,0.00465118840981138,0.721193731733233,7.90744188928578,2.80748499765005,0.5,93.9062241530622
CBC_1075,CBC_1075_MSI_AV_v3_Vset3_Aset3_2024-03-13_15h01.44.828.csv,1,14,0,2,z,0,1,2,aud,C,27,1,0C,2C,0,1,z,2.32805870000266,0,1,1,1,2C,0C,C02,2.67414864942653,0.506944382595149,0.497674405795094,0.5,0.5,0.495359628367,0.5,0.497674405795094,0.5,0.5,0.5,0.502325594204906,0.497674405795094,0.5,0.497674405795094,0.495359628367,0.502325594204906,0.502325594204906,0.497674405795094,0.502325594204906,0.5,0.153285055367125,0.526232751590396,0.497674405795094,0.00231477742809391,0.5,0.00465118840981138,0.721193731733233,7.90744188928578,2.80748499765005,0.5,93.9062241530622
CBC_1075,CBC_1075_MSI_AV_v3_Vset3_Aset3_2024-03-13_15h01.44.828.csv,1,15,1,0,z,0,1,1,aud,A,63,1,1A,0A,0,1,b,1.90712069999972,1,0,0,0,1A,0A,A10,2.30258509299405,0.506944382595149,0.497674405795094,0.5,0.5,0.495359628367,0.5,0.497674405795094,0.5,0.5,0.5,0.504640371633,0.497674405795094,0.5,0.497674405795094,0.495359628367,0.502325594204906,0.49073062199494,0.50926937800506,0.497674405795094,0.506944382595149,0.151629268269822,0.39959526238643,-0.497674405795094,-0.00231477742809391,0.5,0.00465118840981138,0.721193731733233,7.90744188928578,2.80748499765005,0.5,93.9062241530622
CBC_1075,CBC_1075_MSI_AV_v3_Vset3_Aset3_2024-03-13_15h01.44.828.csv,1,16,3,1,z,0,1,0,aud,B,27,1,3B,1B,0,1,z,2.63363010000103,0,1,1,1,1B,3B,B31,3.43398720448515,0.506944382595149,0.495359628367,0.5,0.5,0.495359628367,0.5,0.497674405795094,0.5,0.5,0.5,0.504640371633,0.497674405795094,0.5,0.497674405795094,0.495359628367,0.502325594204906,0.5,0.5,0.5,0.5,0.120368229388199,0.500104097874441,0.5,0.00232559420490569,0.5,0.00465118840981138,0.721193731733233,7.90744188928578,2.80748499765005,0.5,93.9062241530622
CBC_1075,CBC_1075_MSI_AV_v3_Vset3_Aset3_2024-03-13_15h01.44.828.csv,1,17,2,3,b,1,0,2,aud,C,63,1,2C,3C,1,0,b,2.48943080000208,1,0,1,1,2C,3C,C23,3.46573590279973,0.506944382595149,0.495359628367,0.5,0.5,0.495359628367,0.502325594204906,0.497674405795094,0.5,0.5,0.5,0.504640371633,0.497674405795094,0.5,0.497674405795094,0.495359628367,0.502325594204906,0.506965665154621,0.493034334845379,0.504640371633,0.497674405795094,0.151963224245582,0.576323626135519,0.495359628367,0.00230401096214906,0.5,0.00465118840981138,0.721193731733233,7.90744188928578,2.80748499765005,0.5,93.9062241530622
CBC_1075,CBC_1075_MSI_AV_v3_Vset3_Aset3_2024-03-13_15h01.44.828.csv,1,18,3,2,b,1,0,3,aud,D,63,0,3D,2D,0,1,z,3.02874170000177,0,1,0,1,2D,3D,D32,2.11021320034659,0.506944382595149,0.495359628367,0.5,0.5,0.495359628367,0.502325594204906,0.497674405795094,0.5,0.5,0.5,0.506944382595149,0.497674405795094,0.5,0.497674405795094,0.495359628367,0.502325594204906,0.493034334845379,0.506965665154621,0.495359628367,0.502325594204906,0.0790905559243217,0.421674983691103,0.504640371633,0.00234717744766231,0.5,0.00465118840981138,0.721193731733233,7.90744188928578,2.80748499765005,0.5,93.9062241530622
CBC_1075,CBC_1075_MSI_AV_v3_Vset3_Aset3_2024-03-13_15h01.44.828.csv,1,19,0,1,z,0,1,0,aud,B,63,1,0B,1B,0,1,b,3.32660940000278,1,0,0,0,0B,1B,B01,2.83321334405622,0.506944382595149,0.495359628367,0.5,0.5,0.495359628367,0.502325594204906,0.497674405795094,0.5,0.5,0.5,0.506944382595149,0.497674405795094,0.5,0.497674405795094,0.497706805814663,0.502325594204906,0.493034334845379,0.506965665154621,0.495359628367,0.502325594204906,0.0658629801327083,0.42383526113507,-0.495359628367,-0.00230401096214906,0.5,0.00465118840981138,0.721193731733233,7.90744188928578,2.80748499765005,0.5,93.9062241530622
CBC_1075,CBC_1075_MSI_AV_v3_Vset3_Aset3_2024-03-13_15h01.44.828.csv,1,20,0,2,b,1,0,1,aud,A,27,1,0A,2A,1,0,z,2.50955450000038,0,1,0,0,2A,0A,A02,3.55534806148941,0.506944382595149,0.495359628367,0.5,0.5,0.493055617404851,0.502325594204906,0.497674405795094,0.5,0.5,0.5,0.506944382595149,0.497674405795094,0.5,0.497674405795094,0.497706805814663,0.502325594204906,0.493055617404851,0.506944382595149,0.5,0.506944382595149,0.110213081801564,0.423314673804445,-0.5,-0.00232559420490569,0.5,0.00465118840981138,0.721193731733233,7.90744188928578,2.80748499765005,0.5,93.9062241530622
CBC_1075,CBC_1075_MSI_AV_v3_Vset3_Aset3_2024-03-13_15h01.44.828.csv,1,21,3,0,b,1,0,3,aud,D,9,1,3D,0D,1,0,b,3.39073750000171,1,0,1,1,3D,0D,D30,3.58351893845611,0.506944382595149,0.495359628367,0.497674405795094,0.5,0.493055617404851,0.502325594204906,0.497674405795094,0.5,0.5,0.5,0.506944382595149,0.497674405795094,0.5,0.497674405795094,0.497706805814663,0.502325594204906,0.502325594204906,0.497674405795094,0.502325594204906,0.5,0.0787601574927695,0.525817759722561,0.497674405795094,0.00231477742809391,0.5,0.00465118840981138,0.721193731733233,7.90744188928578,2.80748499765005,0.5,93.9062241530622
CBC_1075,CBC_1075_MSI_AV_v3_Vset3_Aset3_2024-03-13_15h01.44.828.csv,1,22,3,2,z,0,1,2,aud,C,63,1,3C,2C,0,1,z,2.2447841000012,0,1,1,1,2C,3C,C32,2.91777073208428,0.506944382595149,0.495359628367,0.497674405795094,0.5,0.493055617404851,0.502325594204906,0.497674405795094,0.5,0.5,0.5,0.506944382595149,0.497674405795094,0.5,0.497674405795094,0.497706805814663,0.504640371633,0.50926937800506,0.49073062199494,0.506944382595149,0.497674405795094,0.185157130905388,0.601031746050143,0.493055617404851,0.00229329457306584,0.5,0.00465118840981138,0.721193731733233,7.90744188928578,2.80748499765005,0.5,93.9062241530622
CBC_1075,CBC_1075_MSI_AV_v3_Vset3_Aset3_2024-03-13_15h01.44.828.csv,1,23,1,3,b,1,0,0,aud,B,27,1,1B,3B,1,0,b,2.78446850000182,1,0,1,1,1B,3B,B13,3.63758615972639,0.506944382595149,0.495359628367,0.497674405795094,0.5,0.493055617404851,0.502325594204906,0.497674405795094,0.5,0.5,0.5,0.509237677168214,0.497674405795094,0.5,0.497674405795094,0.497706805814663,0.504640371633,0.502325594204906,0.497674405795094,0.502325594204906,0.5,0.115123373046605,0.525660544369762,0.497674405795094,0.00231477742809391,0.5,0.00465118840981138,0.721193731733233,7.90744188928578,2.80748499765005,0.5,93.9062241530622
CBC_1075,CBC_1075_MSI_AV_v3_Vset3_Aset3_2024-03-13_15h01.44.828.csv,1,24,2,3,b,1,0,2,aud,C,63,1,2C,3C,1,0,b,2.93806110000151,1,0,1,1,2C,3C,C23,2.9704144655697,0.506944382595149,0.495359628367,0.497674405795094,0.5,0.493055617404851,0.504640371633,0.497674405795094,0.5,0.5,0.5,0.509237677168214,0.497674405795094,0.5,0.497674405795094,0.497706805814663,0.504640371633,0.511562277799372,0.488437722200628,0.509237677168214,0.497674405795094,0.123996886933394,0.626073667371172,0.490762322831786,0.00228262802792731,0.5,0.00465118840981138,0.721193731733233,7.90744188928578,2.80748499765005,0.5,93.9062241530622
CBC_1075,CBC_1075_MSI_AV_v3_Vset3_Aset3_2024-03-13_15h01.44.828.csv,1,25,3,2,b,1,0,3,aud,D,63,1,3D,2D,1,0,z,3.65716290000091,0,1,0,0,2D,3D,D32,2.07944154167984,0.506944382595149,0.495359628367,0.497674405795094,0.5,0.493055617404851,0.504640371633,0.497674405795094,0.5,0.5,0.5,0.511520305196142,0.497674405795094,0.5,0.497674405795094,0.497706805814663,0.504640371633,0.493066729296975,0.506933270703025,0.497706805814663,0.504640371633,0.0536447625450955,0.425323012625918,-0.497706805814663,-0.0023149281266894,0.5,0.00465118840981138,0.721193731733233,7.90744188928578,2.80748499765005,0.5,93.9062241530622
CBC_1075,CBC_1075_MSI_AV_v3_Vset3_Aset3_2024-03-13_15h01.44.828.csv,1,26,0,1,z,0,1,0,aud,B,63,1,0B,1B,0,1,b,3.06468860000132,1,0,0,0,0B,1B,B01,2.6149597780362,0.506944382595149,0.495359628367,0.497674405795094,0.5,0.493055617404851,0.504640371633,0.497674405795094,0.5,0.5,0.5,0.511520305196142,0.497674405795094,0.5,0.497674405795094,0.495391877687973,0.504640371633,0.488416738831791,0.511583261168209,0.493055617404851,0.504640371633,0.0684195148617248,0.374716909970383,-0.493055617404851,-0.00229329457306584,0.5,0.00465118840981138,0.721193731733233,7.90744188928578,2.80748499765005,0.5,93.9062241530622
CBC_1075,CBC_1075_MSI_AV_v3_Vset3_Aset3_2024-03-13_15h01.44.828.csv,1,27,3,0,z,0,1,1,aud,A,9,1,3A,0A,0,1,z,3.03522120000162,0,1,1,1,0A,3A,A30,3.73766961828337,0.506944382595149,0.495359628367,0.497674405795094,0.5,0.490762322831786,0.504640371633,0.497674405795094,0.5,0.5,0.5,0.511520305196142,0.497674405795094,0.5,0.497674405795094,0.495391877687973,0.504640371633,0.506944382595149,0.493055617404851,0.506944382595149,0.5,0.107506144922608,0.575430648986277,0.493055617404851,0.00229329457306584,0.5,0.00465118840981138,0.721193731733233,7.90744188928578,2.80748499765005,0.5,93.9062241530622
CBC_1075,CBC_1075_MSI_AV_v3_Vset3_Aset3_2024-03-13_15h01.44.828.csv,1,28,3,2,b,1,0,3,aud,D,63,1,3D,2D,1,0,b,2.77343010000186,1,0,1,1,3D,2D,D32,1.96944064646551,0.509237677168214,0.495359628367,0.497674405795094,0.5,0.490762322831786,0.504640371633,0.497674405795094,0.5,0.5,0.5,0.511520305196142,0.497674405795094,0.5,0.497674405795094,0.495391877687973,0.504640371633,0.509247702955699,0.490752297044301,0.504640371633,0.495391877687973,0.132404952978373,0.600980735116579,0.495359628367,0.00230401096214906,0.5,0.00465118840981138,0.721193731733233,7.90744188928578,2.80748499765005,0.5,93.9062241530622
CBC_1075,CBC_1075_MSI_AV_v3_Vset3_Aset3_2024-03-13_15h01.44.828.csv,1,29,0,2,z,0,1,2,aud,C,27,1,0C,2C,0,1,b,3.59826610000164,1,0,0,0,0C,2C,C02,2.68557734525015,0.509237677168214,0.495359628367,0.497674405795094,0.5,0.490762322831786,0.504640371633,0.497674405795094,0.5,0.5,0.5,0.511520305196142,0.497674405795094,0.5,0.497674405795094,0.495391877687973,0.506944382595149,0.488479694803858,0.511520305196142,0.5,0.511520305196142,0.0485010234105895,0.37432312280495,-0.5,-0.00232559420490569,0.5,0.00465118840981138,0.721193731733233,7.90744188928578,2.80748499765005,0.5,93.9062241530622
CBC_1075,CBC_1075_MSI_AV_v3_Vset3_Aset3_2024-03-13_15h01.44.828.csv,1,30,0,1,b,1,0,1,aud,A,63,1,0A,1A,1,0,b,3.82870810000168,1,0,1,1,0A,1A,A01,3.11351530921037,0.509237677168214,0.495359628367,0.497674405795094,0.5,0.490762322831786,0.504640371633,0.497674405795094,0.5,0.497674405795094,0.5,0.511520305196142,0.497674405795094,0.5,0.497674405795094,0.495391877687973,0.506944382595149,0.513875669609242,0.486124330390758,0.509237677168214,0.495359628367,0.0719265098305505,0.649410052384428,0.490762322831786,0.00228262802792731,0.5,0.00465118840981138,0.721193731733233,7.90744188928578,2.80748499765005,0.5,93.9062241530622
CBC_1075,CBC_1075_MSI_AV_v3_Vset3_Aset3_2024-03-13_15h01.44.828.csv,1,31,0,1,z,0,1,0,aud,B,63,1,0B,1B,0,1,z,1.82535440000174,0,1,1,1,1B,0B,B01,2.4423470353692,0.511520305196142,0.495359628367,0.497674405795094,0.5,0.490762322831786,0.504640371633,0.497674405795094,0.5,0.497674405795094,0.5,0.511520305196142,0.497674405795094,0.5,0.497674405795094,0.495391877687973,0.506944382595149,0.513875669609242,0.486124330390758,0.504640371633,0.490762322831786,0.260944313148647,0.648341503607996,0.495359628367,0.00230401096214906,0.5,0.00465118840981138,0.721193731733233,7.90744188928578,2.80748499765005,0.5,93.9062241530622
CBC_1075,CBC_1075_MSI_AV_v3_Vset3_Aset3_2024-03-13_15h01.44.828.csv,1,32,1,3,z,0,1,3,aud,D,27,1,1D,3D,0,1,z,2.31435300000157,0,1,1,1,3D,1D,D13,3.85014760171006,0.511520305196142,0.495359628367,0.497674405795094,0.5,0.490762322831786,0.506944382595149,0.497674405795094,0.5,0.497674405795094,0.5,0.511520305196142,0.497674405795094,0.5,0.497674405795094,0.495391877687973,0.506944382595149,0.50926937800506,0.49073062199494,0.506944382595149,0.497674405795094,0.177435596826082,0.601762866693608,0.493055617404851,0.00229329457306584,0.5,0.00465118840981138,0.721193731733233,7.90744188928578,2.80748499765005,0.5,93.9062241530622
CBC_1075,CBC_1075_MSI_AV_v3_Vset3_Aset3_2024-03-13_15h01.44.828.csv,1,33,2,3,b,1,0,2,aud,C,63,1,2C,3C,1,0,b,2.89684600000146,1,0,1,1,2C,3C,C23,2.77258872223978,0.511520305196142,0.495359628367,0.497674405795094,0.5,0.490762322831786,0.506944382595149,0.497674405795094,0.5,0.497674405795094,0.5,0.511520305196142,0.497674405795094,0.5,0.497674405795094,0.495391877687973,0.509237677168214,0.513844415747344,0.486155584252656,0.511520305196142,0.497674405795094,0.131729600332583,0.64890709884514,0.488479694803858,0.00227201109489991,0.5,0.00465118840981138,0.721193731733233,7.90744188928578,2.80748499765005,0.5,93.9062241530622
CBC_1075,CBC_1075_MSI_AV_v3_Vset3_Aset3_2024-03-13_15h01.44.828.csv,1,34,0,1,z,0,1,0,aud,B,63,1,0B,1B,0,1,z,1.0831143000014,0,1,1,1,1B,0B,B01,2.28238238567653,0.511520305196142,0.495359628367,0.497674405795094,0.5,0.490762322831786,0.506944382595149,0.497674405795094,0.5,0.497674405795094,0.5,0.513792316291042,0.497674405795094,0.5,0.497674405795094,0.495391877687973,0.509237677168214,0.516177908514333,0.483822091485667,0.506944382595149,0.490762322831786,0.239127195772938,0.672001178787211,0.493055617404851,0.00229329457306584,0.5,0.00465118840981138,0.721193731733233,7.90744188928578,2.80748499765005,0.5,93.9062241530622
CBC_1075,CBC_1075_MSI_AV_v3_Vset3_Aset3_2024-03-13_15h01.44.828.csv,1,35,1,0,z,0,1,1,aud,A,63,1,1A,0A,0,1,b,2.59152860000177,1,0,0,0,1A,0A,A10,2.52572864430826,0.511520305196142,0.495359628367,0.497674405795094,0.5,0.490762322831786,0.509237677168214,0.497674405795094,0.5,0.497674405795094,0.5,0.513792316291042,0.497674405795094,0.5,0.497674405795094,0.495391877687973,0.509237677168214,0.483842778134073,0.516157221865926,0.495359628367,0.511520305196142,0.0809849001475341,0.327101327813057,-0.495359628367,-0.00230401096214906,0.5,0.00465118840981138,0.721193731733233,7.90744188928578,2.80748499765005,0.5,93.9062241530622
CBC_1075,CBC_1075_MSI_AV_v3_Vset3_Aset3_2024-03-13_15h01.44.828.csv,1,36,2,1,b,1,0,2,aud,C,9,1,2C,1C,1,0,b,3.44647640000039,1,0,1,1,2C,1C,C21,3.93182563272433,0.511520305196142,0.493055617404851,0.497674405795094,0.5,0.490762322831786,0.509237677168214,0.497674405795094,0.5,0.497674405795094,0.5,0.513792316291042,0.497674405795094,0.5,0.497674405795094,0.495391877687973,0.509237677168214,0.513792316291042,0.486207683708958,0.513792316291042,0.5,0.0921148008353436,0.648514175397945,0.486207683708958,0.00226144354322834,0.5,0.00465118840981138,0.721193731733233,7.90744188928578,2.80748499765005,0.5,93.9062241530622
CBC_1075,CBC_1075_MSI_AV_v3_Vset3_Aset3_2024-03-13_15h01.44.828.csv,1,37,0,1,b,1,0,1,aud,A,63,1,0A,1A,1,0,z,1.40877030000047,0,1,0,0,1A,0A,A01,2.85263142991332,0.511520305196142,0.493055617404851,0.497674405795094,0.5,0.490762322831786,0.509237677168214,0.497674405795094,0.5,0.497674405795094,0.5,0.51605375983427,0.497674405795094,0.5,0.497674405795094,0.495391877687973,0.509237677168214,0.481541219122469,0.518458780877531,0.493055617404851,0.511520305196142,0.151429613722006,0.30672121169609,-0.493055617404851,-0.00229329457306584,0.5,0.00465118840981138,0.721193731733233,7.90744188928578,2.80748499765005,0.5,93.9062241530622
CBC_1075,CBC_1075_MSI_AV_v3_Vset3_Aset3_2024-03-13_15h01.44.828.csv,1,38,1,3,z,0,1,3,aud,D,27,1,1D,3D,0,1,z,2.51571860000149,0,1,1,1,3D,1D,D13,3.27714473299218,0.511520305196142,0.490762322831786,0.497674405795094,0.5,0.490762322831786,0.509237677168214,0.497674405795094,0.5,0.497674405795094,0.5,0.51605375983427,0.497674405795094,0.5,0.497674405795094,0.495391877687973,0.509237677168214,0.511562277799372,0.488437722200628,0.509237677168214,0.497674405795094,0.162492957229406,0.625564437021764,0.490762322831786,0.00228262802792731,0.5,0.00465118840981138,0.721193731733233,7.90744188928578,2.80748499765005,0.5,93.9062241530622
CBC_1075,CBC_1075_MSI_AV_v3_Vset3_Aset3_2024-03-13_15h01.44.828.csv,1,39,1,0,b,1,0,0,aud,B,63,1,1B,0B,1,0,b,2.7327449000004,1,0,1,1,1B,0B,B10,3.29583686600433,0.511520305196142,0.490762322831786,0.497674405795094,0.5,0.490762322831786,0.509237677168214,0.497674405795094,0.5,0.497674405795094,0.5,0.51605375983427,0.497674405795094,0.5,0.497674405795094,0.495391877687973,0.511520305196142,0.518469050134536,0.481530949865464,0.509237677168214,0.490762322831786,0.156265439790958,0.693494603004206,0.490762322831786,0.00228262802792731,0.5,0.00465118840981138,0.721193731733233,7.90744188928578,2.80748499765005,0.5,93.9062241530622
CBC_1075,CBC_1075_MSI_AV_v3_Vset3_Aset3_2024-03-13_15h01.44.828.csv,1,40,3,2,z,0,1,2,aud,C,63,0,3C,2C,1,0,z,2.68571890000203,0,1,1,0,2C,3C,C32,2.90872089656436,0.511520305196142,0.490762322831786,0.497674405795094,0.5,0.490762322831786,0.511520305196142,0.497674405795094,0.5,0.497674405795094,0.5,0.51605375983427,0.497674405795094,0.5,0.497674405795094,0.495391877687973,0.511520305196142,0.518376609710768,0.481623390289232,0.51605375983427,0.497674405795094,0.161216556129572,0.693347510871202,-0.51605375983427,-0.00240026326658074,0.5,0.00465118840981138,0.721193731733233,7.90744188928578,2.80748499765005,0.5,93.9062241530622
CBC_1075,CBC_1075_MSI_AV_v3_Vset3_Aset3_2024-03-13_15h01.44.828.csv,1,41,0,2,b,1,0,1,aud,A,27,1,0A,2A,1,0,z,3.16673840000112,0,1,0,0,2A,0A,A02,3.3322045101752,0.511520305196142,0.490762322831786,0.497674405795094,0.5,0.490762322831786,0.511520305196142,0.497674405795094,0.5,0.497674405795094,0.5,0.513653496567689,0.497674405795094,0.5,0.497674405795094,0.495391877687973,0.511520305196142,0.486155584252656,0.513844415747344,0.497674405795094,0.511520305196142,0.0599825817272424,0.352063085636359,-0.497674405795094,-0.00231477742809391,0.5,0.00465118840981138,0.721193731733233,7.90744188928578,2.80748499765005,0.5,93.9062241530622
CBC_1075,CBC_1075_MSI_AV_v3_Vset3_Aset3_2024-03-13_15h01.44.828.csv,1,42,2,3,z,0,1,3,aud,D,63,1,2D,3D,0,1,b,2.42551730000196,1,0,0,0,2D,3D,D23,4.04305126783455,0.511520305196142,0.490762322831786,0.495359628367,0.5,0.490762322831786,0.511520305196142,0.497674405795094,0.5,0.497674405795094,0.5,0.513653496567689,0.497674405795094,0.5,0.497674405795094,0.495391877687973,0.511520305196142,0.483874996602467,0.516125003397533,0.495391877687973,0.511520305196142,0.0906425314354964,0.328303534374579,-0.495391877687973,-0.002304160959817,0.5,0.00465118840981138,0.721193731733233,7.90744188928578,2.80748499765005,0.5,93.9062241530622
CBC_1075,CBC_1075_MSI_AV_v3_Vset3_Aset3_2024-03-13_15h01.44.828.csv,1,43,1,3,b,1,0,0,aud,B,27,1,1B,3B,1,0,b,3.27286200000162,1,0,1,1,1B,3B,B13,3.36729582998647,0.511520305196142,0.490762322831786,0.495359628367,0.5,0.490762322831786,0.511520305196142,0.497674405795094,0.5,0.497674405795094,0.5,0.513653496567689,0.497674405795094,0.5,0.497674405795094,0.493087716728156,0.511520305196142,0.511520305196142,0.488479694803858,0.511520305196142,0.5,0.099895538254616,0.625433644618538,0.488479694803858,0.00227201109489991,0.5,0.00465118840981138,0.721193731733233,7.90744188928578,2.80748499765005,0.5,93.9062241530622
CBC_1075,CBC_1075_MSI_AV_v3_Vset3_Aset3_2024-03-13_15h01.44.828.csv,1,44,3,2,z,0,1,2,aud,C,63,1,3C,2C,0,1,z,3.64614390000133,0,1,1,1,2C,3C,C32,2.69124308278583,0.511520305196142,0.490762322831786,0.495359628367,0.5,0.490762322831786,0.513792316291042,0.497674405795094,0.5,0.497674405795094,0.5,0.513653496567689,0.497674405795094,0.5,0.497674405795094,0.493087716728156,0.511520305196142,0.51597706152649,0.48402293847351,0.513653496567689,0.497674405795094,0.0828346881560198,0.669236558755172,0.486346503432311,0.00226208921991665,0.5,0.00465118840981138,0.721193731733233,7.90744188928578,2.80748499765005,0.5,93.9062241530622
CBC_1075,CBC_1075_MSI_TV_v3_Vset2_Tset1_2024-03-13_17h09.54.370.csv,2,1,3,1,z,0,1,0,tac,B,27,1,3B,1B,0,1,b,1.14685660000032,1,0,0,0,3B,1B,B31,2.77258872223978,0.5,0.5,0.5,0.5,0.5,0.5,0.5,0.5,0.5,0.5,0.5,0.5,0.5,0.5,0.5,0.5,0.5,0.5,0.5,0.5,0.0180921514196169,0.500462129436925,-0.5,-0.0537930984316319,0.5,0.107586196863264,0.973986997543283,0.729771089152719,2.90453705969088,0.5,91.0496041047407
CBC_1075,CBC_1075_MSI_TV_v3_Vset2_Tset1_2024-03-13_17h09.54.370.csv,2,2,2,3,b,1,0,2,tac,C,63,1,2C,3C,1,0,b,2.6462294999983,1,0,1,1,2C,3C,C23,2.83321334405622,0.5,0.5,0.5,0.5,0.5,0.5,0.5,0.446206901568368,0.5,0.5,0.5,0.5,0.5,0.5,0.5,0.5,0.5,0.5,0.5,0.5,0.139941457373975,0.500329098156316,0.5,0.0537930984316319,0.5,0.107586196863264,0.973986997543283,0.729771089152719,2.90453705969088,0.5,91.0496041047407
CBC_1075,CBC_1075_MSI_TV_v3_Vset2_Tset1_2024-03-13_17h09.54.370.csv,2,3,2,3,z,0,1,3,tac,D,63,1,2D,3D,0,1,b,3.74990590000016,1,0,0,0,2D,3D,D23,2.89037175789616,0.5,0.5,0.5,0.5,0.5,0.5,0.5,0.446206901568368,0.5,0.5,0.553793098431632,0.5,0.5,0.5,0.5,0.5,0.5,0.5,0.5,0.5,0.0734053422259569,0.499914798954931,-0.5,-0.0537930984316319,0.5,0.107586196863264,0.973986997543283,0.729771089152719,2.90453705969088,0.5,91.0496041047407
CBC_1075,CBC_1075_MSI_TV_v3_Vset2_Tset1_2024-03-13_17h09.54.370.csv,2,4,1,0,b,1,0,0,tac,B,63,1,1B,0B,1,0,z,2.6412584000027,0,1,0,0,0B,1B,B10,2.94443897916644,0.5,0.5,0.5,0.5,0.5,0.5,0.5,0.446206901568368,0.5,0.5,0.553793098431632,0.5,0.5,0.5,0.446206901568368,0.5,0.5,0.5,0.5,0.5,0.14029731779766,0.500159086781413,-0.5,-0.0537930984316319,0.5,0.107586196863264,0.973986997543283,0.729771089152719,2.90453705969088,0.5,91.0496041047407
CBC_1075,CBC_1075_MSI_TV_v3_Vset2_Tset1_2024-03-13_17h09.54.370.csv,2,5,3,0,z,0,1,1,tac,A,9,1,3A,0A,0,1,z,2.55710069999986,0,1,1,1,0A,3A,A30,2.99573227355399,0.5,0.5,0.5,0.5,0.446206901568368,0.5,0.5,0.446206901568368,0.5,0.5,0.553793098431632,0.5,0.5,0.5,0.446206901568368,0.5,0.5,0.5,0.5,0.5,0.147123526098259,0.499596120638013,0.5,0.0537930984316319,0.5,0.107586196863264,0.973986997543283,0.729771089152719,2.90453705969088,0.5,91.0496041047407
CBC_1075,CBC_1075_MSI_TV_v3_Vset2_Tset1_2024-03-13_17h09.54.370.csv,2,6,2,3,z,0,1,3,tac,D,63,1,2D,3D,0,1,b,3.65819610000108,1,0,0,0,2D,3D,D23,2.35137525716348,0.553793098431632,0.5,0.5,0.5,0.446206901568368,0.5,0.5,0.446206901568368,0.5,0.5,0.553793098431632,0.5,0.5,0.5,0.446206901568368,0.5,0.446206901568368,0.553793098431632,0.446206901568368,0.5,0.0686943134880667,0.444163830514107,-0.446206901568368,-0.0480057035538815,0.5,0.107586196863264,0.973986997543283,0.729771089152719,2.90453705969088,0.5,91.0496041047407
CBC_1075,CBC_1075_MSI_TV_v3_Vset2_Tset1_2024-03-13_17h09.54.370.csv,2,7,2,0,b,1,0,2,tac,C,27,1,2C,0C,1,0,z,2.72785620000286,0,1,0,0,0C,2C,C20,3.09104245335832,0.553793098431632,0.5,0.5,0.5,0.446206901568368,0.5,0.5,0.446206901568368,0.5,0.5,0.553793098431632,0.5,0.5,0.5,0.398201198014487,0.5,0.446206901568368,0.553793098431632,0.5,0.553793098431632,0.118303715179665,0.443001806096703,-0.5,-0.0537930984316319,0.5,0.107586196863264,0.973986997543283,0.729771089152719,2.90453705969088,0.5,91.0496041047407
CBC_1075,CBC_1075_MSI_TV_v3_Vset2_Tset1_2024-03-13_17h09.54.370.csv,2,8,1,0,z,0,1,1,tac,A,63,1,1A,0A,0,1,b,2.56671049999932,1,0,0,0,1A,0A,A10,3.13549421592915,0.553793098431632,0.5,0.5,0.5,0.446206901568368,0.5,0.5,0.446206901568368,0.446206901568368,0.5,0.553793098431632,0.5,0.5,0.5,0.398201198014487,0.5,0.446206901568368,0.553793098431632,0.5,0.553793098431632,0.130094340749934,0.443530904809994,-0.5,-0.0537930984316319,0.5,0.107586196863264,0.973986997543283,0.729771089152719,2.90453705969088,0.5,91.0496041047407
CBC_1075,CBC_1075_MSI_TV_v3_Vset2_Tset1_2024-03-13_17h09.54.370.csv,2,9,0,1,z,0,1,0,tac,B,63,1,0B,1B,0,1,b,3.95638980000149,1,0,0,0,0B,1B,B01,3.17805383034795,0.553793098431632,0.446206901568368,0.5,0.5,0.446206901568368,0.5,0.5,0.446206901568368,0.446206901568368,0.5,0.553793098431632,0.5,0.5,0.5,0.398201198014487,0.5,0.446206901568368,0.553793098431632,0.446206901568368,0.5,0.057699065961024,0.444540315580447,-0.446206901568368,-0.0480057035538815,0.5,0.107586196863264,0.973986997543283,0.729771089152719,2.90453705969088,0.5,91.0496041047407
CBC_1075,CBC_1075_MSI_TV_v3_Vset2_Tset1_2024-03-13_17h09.54.370.csv,2,10,3,1,b,1,0,3,tac,D,27,1,3D,1D,1,0,z,3.57880389999991,0,1,0,0,1D,3D,D31,3.2188758248682,0.553793098431632,0.446206901568368,0.5,0.5,0.398201198014487,0.5,0.5,0.446206901568368,0.446206901568368,0.5,0.553793098431632,0.5,0.5,0.5,0.398201198014487,0.5,0.5,0.5,0.5,0.5,0.0812074712183583,0.500381709653503,-0.5,-0.0537930984316319,0.5,0.107586196863264,0.973986997543283,0.729771089152719,2.90453705969088,0.5,91.0496041047407
CBC_1075,CBC_1075_MSI_TV_v3_Vset2_Tset1_2024-03-13_17h09.54.370.csv,2,11,2,3,b,1,0,2,tac,C,63,1,2C,3C,1,0,b,2.92712130000291,1,0,1,1,2C,3C,C23,2.56494935746154,0.553793098431632,0.446206901568368,0.5,0.5,0.398201198014487,0.5,0.5,0.446206901568368,0.446206901568368,0.5,0.553793098431632,0.5,0.5,0.446206901568368,0.398201198014487,0.5,0.553793098431632,0.446206901568368,0.553793098431632,0.5,0.132463129537049,0.55740868157373,0.446206901568368,0.0480057035538815,0.5,0.107586196863264,0.973986997543283,0.729771089152719,2.90453705969088,0.5,91.0496041047407
CBC_1075,CBC_1075_MSI_TV_v3_Vset2_Tset1_2024-03-13_17h09.54.370.csv,2,12,0,1,z,0,1,0,tac,B,63,1,0B,1B,0,1,b,1.96006269999998,1,0,0,0,0B,1B,B01,2.60268968544438,0.553793098431632,0.446206901568368,0.5,0.5,0.398201198014487,0.5,0.5,0.446206901568368,0.446206901568368,0.5,0.601798801985513,0.5,0.5,0.446206901568368,0.398201198014487,0.5,0.398201198014487,0.601798801985513,0.398201198014487,0.5,0.161898404351964,0.394043381718611,-0.398201198014487,-0.0428409524807741,0.5,0.107586196863264,0.973986997543283,0.729771089152719,2.90453705969088,0.5,91.0496041047407
CBC_1075,CBC_1075_MSI_TV_v3_Vset2_Tset1_2024-03-13_17h09.54.370.csv,2,13,1,0,z,0,1,1,tac,A,63,1,1A,0A,0,1,z,2.05585430000065,0,1,1,1,0A,1A,A10,2.63905732961526,0.553793098431632,0.446206901568368,0.5,0.5,0.355360245533713,0.5,0.5,0.446206901568368,0.446206901568368,0.5,0.601798801985513,0.5,0.5,0.446206901568368,0.398201198014487,0.5,0.606355158266911,0.393644841733089,0.553793098431632,0.446206901568368,0.239721455019429,0.610384422936766,0.446206901568368,0.0480057035538815,0.5,0.107586196863264,0.973986997543283,0.729771089152719,2.90453705969088,0.5,91.0496041047407
CBC_1075,CBC_1075_MSI_TV_v3_Vset2_Tset1_2024-03-13_17h09.54.370.csv,2,14,2,1,b,1,0,2,tac,C,9,1,2C,1C,1,0,z,3.08213780000005,0,1,0,0,1C,2C,C21,3.36729582998647,0.601798801985513,0.446206901568368,0.5,0.5,0.355360245533713,0.5,0.5,0.446206901568368,0.446206901568368,0.5,0.601798801985513,0.5,0.5,0.446206901568368,0.398201198014487,0.5,0.398201198014487,0.601798801985513,0.5,0.601798801985513,0.0855759018722439,0.394472212086693,-0.5,-0.0537930984316319,0.5,0.107586196863264,0.973986997543283,0.729771089152719,2.90453705969088,0.5,91.0496041047407
CBC_1075,CBC_1075_MSI_TV_v3_Vset2_Tset1_2024-03-13_17h09.54.370.csv,2,15,0,1,b,1,0,1,tac,A,63,1,0A,1A,1,0,b,0.147821799997473,1,0,1,1,0A,1A,A01,3.40119738166216,0.601798801985513,0.446206901568368,0.5,0.5,0.355360245533713,0.5,0.5,0.446206901568368,0.446206901568368,0.446206901568368,0.601798801985513,0.5,0.5,0.446206901568368,0.398201198014487,0.5,0.652256822532369,0.347743177467631,0.601798801985513,0.446206901568368,1e-20,0.5,0.398201198014487,0.0428409524807741,0.5,0.107586196863264,0.973986997543283,0.729771089152719,2.90453705969088,0.5,91.0496041047407
CBC_1075,CBC_1075_MSI_TV_v3_Vset2_Tset1_2024-03-13_17h09.54.370.csv,2,16,1,3,z,0,1,3,tac,D,27,1,1D,3D,0,1,b,2.8772280000012,1,0,0,0,1D,3D,D13,3.43398720448515,0.644639754466287,0.446206901568368,0.5,0.5,0.355360245533713,0.5,0.5,0.446206901568368,0.446206901568368,0.446206901568368,0.601798801985513,0.5,0.5,0.446206901568368,0.398201198014487,0.5,0.446206901568368,0.553793098431632,0.446206901568368,0.5,0.108585787349884,0.443768375069071,-0.446206901568368,-0.0480057035538815,0.5,0.107586196863264,0.973986997543283,0.729771089152719,2.90453705969088,0.5,91.0496041047407
CBC_1075,CBC_1075_MSI_TV_v3_Vset2_Tset1_2024-03-13_17h09.54.370.csv,2,17,1,0,b,1,0,0,tac,B,63,1,1B,0B,1,0,b,3.03260279999813,1,0,1,1,1B,0B,B10,2.77258872223978,0.644639754466287,0.446206901568368,0.5,0.5,0.355360245533713,0.5,0.5,0.446206901568368,0.446206901568368,0.446206901568368,0.601798801985513,0.5,0.5,0.398201198014487,0.398201198014487,0.5,0.644639754466287,0.355360245533713,0.5,0.355360245533713,0.144897519853987,0.648503047910829,0.5,0.0537930984316319,0.5,0.107586196863264,0.973986997543283,0.729771089152719,2.90453705969088,0.5,91.0496041047407
CBC_1075,CBC_1075_MSI_TV_v3_Vset2_Tset1_2024-03-13_17h09.54.370.csv,2,18,3,2,z,0,1,2,tac,C,63,0,3C,2C,1,0,z,2.67980149999858,0,1,1,0,2C,3C,C32,3.49650756146648,0.644639754466287,0.446206901568368,0.5,0.5,0.355360245533713,0.553793098431632,0.5,0.446206901568368,0.446206901568368,0.446206901568368,0.601798801985513,0.5,0.5,0.398201198014487,0.398201198014487,0.5,0.601798801985513,0.398201198014487,0.601798801985513,0.5,0.167086908047837,0.606512473014682,-0.601798801985513,-0.0647452443824898,0.5,0.107586196863264,0.973986997543283,0.729771089152719,2.90453705969088,0.5,91.0496041047407
CBC_1075,CBC_1075_MSI_TV_v3_Vset2_Tset1_2024-03-13_17h09.54.370.csv,2,19,0,2,b,1,0,1,tac,A,27,1,0A,2A,1,0,b,3.42492969999876,1,0,1,1,0A,2A,A02,3.52636052461616,0.644639754466287,0.446206901568368,0.5,0.5,0.355360245533713,0.553793098431632,0.5,0.446206901568368,0.446206901568368,0.446206901568368,0.537053557603024,0.5,0.5,0.398201198014487,0.398201198014487,0.5,0.644639754466287,0.355360245533713,0.644639754466287,0.5,0.114192001601565,0.648433473280117,0.355360245533713,0.0382318573333678,0.5,0.107586196863264,0.973986997543283,0.729771089152719,2.90453705969088,0.5,91.0496041047407
CBC_1075,CBC_1075_MSI_TV_v3_Vset2_Tset1_2024-03-13_17h09.54.370.csv,2,20,2,3,z,0,1,3,tac,D,63,1,2D,3D,0,1,z,2.62172329999885,0,1,1,1,3D,2D,D23,2.4567357728213,0.682871611799655,0.446206901568368,0.5,0.5,0.355360245533713,0.553793098431632,0.5,0.446206901568368,0.446206901568368,0.446206901568368,0.537053557603024,0.5,0.5,0.398201198014487,0.398201198014487,0.5,0.601798801985513,0.398201198014487,0.5,0.398201198014487,0.173219799546407,0.607518449161571,0.5,0.0537930984316319,0.5,0.107586196863264,0.973986997543283,0.729771089152719,2.90453705969088,0.5,91.0496041047407
CBC_1075,CBC_1075_MSI_TV_v3_Vset2_Tset1_2024-03-13_17h09.54.370.csv,2,21,1,3,b,1,0,0,tac,B,27,1,1B,3B,1,0,z,3.55862999999954,0,1,0,0,3B,1B,B13,3.58351893845611,0.682871611799655,0.446206901568368,0.5,0.5,0.355360245533713,0.553793098431632,0.5,0.446206901568368,0.446206901568368,0.446206901568368,0.537053557603024,0.5,0.5,0.398201198014487,0.398201198014487,0.553793098431632,0.393644841733089,0.606355158266911,0.446206901568368,0.553793098431632,0.0635185553439059,0.389103203661451,-0.446206901568368,-0.0480057035538815,0.5,0.107586196863264,0.973986997543283,0.729771089152719,2.90453705969088,0.5,91.0496041047407
CBC_1075,CBC_1075_MSI_TV_v3_Vset2_Tset1_2024-03-13_17h09.54.370.csv,2,22,2,3,b,1,0,2,tac,C,63,1,2C,3C,1,0,z,3.13131960000101,0,1,0,0,3C,2C,C23,2.51230562397611,0.682871611799655,0.446206901568368,0.5,0.5,0.355360245533713,0.553793098431632,0.5,0.398201198014487,0.446206901568368,0.446206901568368,0.537053557603024,0.5,0.5,0.398201198014487,0.398201198014487,0.553793098431632,0.462946442396976,0.537053557603024,0.5,0.537053557603024,0.0970974831985692,0.460590006161496,-0.5,-0.0537930984316319,0.5,0.107586196863264,0.973986997543283,0.729771089152719,2.90453705969088,0.5,91.0496041047407
CBC_1075,CBC_1075_MSI_TV_v3_Vset2_Tset1_2024-03-13_17h09.54.370.csv,2,23,1,0,z,0,1,1,tac,A,63,1,1A,0A,0,1,b,3.56330589999925,1,0,0,0,1A,0A,A10,2.53897387105828,0.682871611799655,0.446206901568368,0.5,0.5,0.355360245533713,0.553793098431632,0.5,0.398201198014487,0.446206901568368,0.446206901568368,0.537053557603024,0.446206901568368,0.5,0.398201198014487,0.398201198014487,0.553793098431632,0.272295227215761,0.727704772784239,0.446206901568368,0.682871611799655,0.043596403900351,0.274645446267708,-0.446206901568368,-0.0480057035538815,0.5,0.107586196863264,0.973986997543283,0.729771089152719,2.90453705969088,0.5,91.0496041047407
CBC_1075,CBC_1075_MSI_TV_v3_Vset2_Tset1_2024-03-13_17h09.54.370.csv,2,24,1,2,b,1,0,0,tac,B,9,1,1B,2B,1,0,z,2.82642430000124,0,1,0,0,2B,1B,B12,3.66356164612965,0.682871611799655,0.398201198014487,0.5,0.5,0.355360245533713,0.553793098431632,0.5,0.398201198014487,0.446206901568368,0.446206901568368,0.537053557603024,0.446206901568368,0.5,0.398201198014487,0.398201198014487,0.553793098431632,0.446206901568368,0.553793098431632,0.5,0.553793098431632,0.111923120927065,0.443997390752318,-0.5,-0.0537930984316319,0.5,0.107586196863264,0.973986997543283,0.729771089152719,2.90453705969088,0.5,91.0496041047407
CBC_1075,CBC_1075_MSI_TV_v3_Vset2_Tset1_2024-03-13_17h09.54.370.csv,2,25,3,2,z,0,1,2,tac,C,63,1,3C,2C,0,1,z,3.70000959999743,0,1,1,1,2C,3C,C32,2.99573227355399,0.682871611799655,0.398201198014487,0.5,0.5,0.355360245533713,0.553793098431632,0.446206901568368,0.398201198014487,0.446206901568368,0.446206901568368,0.537053557603024,0.446206901568368,0.5,0.398201198014487,0.398201198014487,0.553793098431632,0.590128073674019,0.409871926325981,0.537053557603024,0.446206901568368,0.0893608225472228,0.594295525728909,0.462946442396976,0.0498066470888688,0.5,0.107586196863264,0.973986997543283,0.729771089152719,2.90453705969088,0.5,91.0496041047407
CBC_1075,CBC_1075_MSI_TV_v3_Vset2_Tset1_2024-03-13_17h09.54.370.csv,2,26,3,2,b,1,0,3,tac,D,63,1,3D,2D,1,0,b,2.92505789999996,1,0,1,1,3D,2D,D32,3.71357206670431,0.682871611799655,0.398201198014487,0.5,0.5,0.355360245533713,0.553793098431632,0.446206901568368,0.398201198014487,0.446206901568368,0.446206901568368,0.586860204691892,0.446206901568368,0.5,0.398201198014487,0.398201198014487,0.553793098431632,0.652256822532369,0.347743177467631,0.553793098431632,0.398201198014487,0.156501234315653,0.656095409373931,0.446206901568368,0.0480057035538815,0.5,0.107586196863264,0.973986997543283,0.729771089152719,2.90453705969088,0.5,91.0496041047407
CBC_1075,CBC_1075_MSI_TV_v3_Vset2_Tset1_2024-03-13_17h09.54.370.csv,2,27,1,0,b,1,0,0,tac,B,63,1,1B,0B,1,0,b,2.72791529999813,1,0,1,1,1B,0B,B10,2.63905732961526,0.682871611799655,0.398201198014487,0.5,0.5,0.355360245533713,0.553793098431632,0.446206901568368,0.398201198014487,0.446206901568368,0.446206901568368,0.586860204691892,0.446206901568368,0.5,0.398201198014487,0.398201198014487,0.601798801985513,0.692443532484339,0.307556467515661,0.553793098431632,0.355360245533713,0.187420706666252,0.694292358515005,0.446206901568368,0.0480057035538815,0.5,0.107586196863264,0.973986997543283,0.729771089152719,2.90453705969088,0.5,91.0496041047407
CBC_1075,CBC_1075_MSI_TV_v3_Vset2_Tset1_2024-03-13_17h09.54.370.csv,2,28,2,0,z,0,1,1,tac,A,27,1,2A,0A,0,1,z,3.38778410000305,0,1,1,1,0A,2A,A20,3.76120011569356,0.682871611799655,0.398201198014487,0.5,0.5,0.355360245533713,0.601798801985513,0.446206901568368,0.398201198014487,0.446206901568368,0.446206901568368,0.586860204691892,0.446206901568368,0.5,0.398201198014487,0.398201198014487,0.601798801985513,0.682871611799655,0.317128388200345,0.682871611799655,0.5,0.12256866083773,0.683933336400231,0.317128388200345,0.0341186372038519,0.5,0.107586196863264,0.973986997543283,0.729771089152719,2.90453705969088,0.5,91.0496041047407
CBC_1075,CBC_1075_MSI_TV_v3_Vset2_Tset1_2024-03-13_17h09.54.370.csv,2,29,3,1,b,1,0,3,tac,D,27,1,3D,1D,1,0,b,2.87421360000008,1,0,1,1,3D,1D,D31,3.09104245335832,0.716990249003507,0.398201198014487,0.5,0.5,0.355360245533713,0.601798801985513,0.446206901568368,0.398201198014487,0.446206901568368,0.446206901568368,0.586860204691892,0.446206901568368,0.5,0.398201198014487,0.398201198014487,0.601798801985513,0.69549399015214,0.30450600984786,0.601798801985513,0.398201198014487,0.171620442840351,0.696271112053046,0.398201198014487,0.0428409524807741,0.5,0.107586196863264,0.973986997543283,0.729771089152719,2.90453705969088,0.5,91.0496041047407
CBC_1075,CBC_1075_MSI_TV_v3_Vset2_Tset1_2024-03-13_17h09.54.370.csv,2,30,0,1,b,1,0,1,tac,A,63,1,0A,1A,1,0,b,3.32553440000265,1,0,1,1,0A,1A,A01,3.11351530921037,0.716990249003507,0.398201198014487,0.5,0.5,0.355360245533713,0.601798801985513,0.446206901568368,0.398201198014487,0.446206901568368,0.446206901568368,0.586860204691892,0.446206901568368,0.5,0.398201198014487,0.398201198014487,0.644639754466287,0.792908426998063,0.207091573001937,0.716990249003507,0.398201198014487,0.141117824807593,0.775037512979988,0.283009750996493,0.030447942784932,0.5,0.107586196863264,0.973986997543283,0.729771089152719,2.90453705969088,0.5,91.0496041047407
CBC_1075,CBC_1075_MSI_TV_v3_Vset2_Tset1_2024-03-13_17h09.54.370.csv,2,31,0,2,z,0,1,2,tac,C,27,1,0C,2C,0,1,b,2.8296119000006,1,0,0,0,0C,2C,C02,3.8286413964891,0.747438191788439,0.398201198014487,0.5,0.5,0.355360245533713,0.601798801985513,0.446206901568368,0.398201198014487,0.446206901568368,0.446206901568368,0.586860204691892,0.446206901568368,0.5,0.398201198014487,0.398201198014487,0.644639754466287,0.361927264994292,0.638072735005708,0.446206901568368,0.586860204691892,0.0902994684942311,0.357520065019487,-0.446206901568368,-0.0480057035538815,0.5,0.107586196863264,0.973986997543283,0.729771089152719,2.90453705969088,0.5,91.0496041047407
CBC_1075,CBC_1075_MSI_TV_v3_Vset2_Tset1_2024-03-13_17h09.54.370.csv,2,32,3,2,b,1,0,3,tac,D,63,1,3D,2D,1,0,b,2.68075080000199,1,0,1,1,3D,2D,D32,3.15700042115011,0.747438191788439,0.398201198014487,0.5,0.5,0.355360245533713,0.601798801985513,0.446206901568368,0.398201198014487,0.398201198014487,0.446206901568368,0.586860204691892,0.446206901568368,0.5,0.398201198014487,0.398201198014487,0.644639754466287,0.732731461206785,0.267268538793215,0.644639754466287,0.398201198014487,0.203510561011032,0.728632260084814,0.355360245533713,0.0382318573333678,0.5,0.107586196863264,0.973986997543283,0.729771089152719,2.90453705969088,0.5,91.0496041047407
CBC_1075,CBC_1075_MSI_TV_v3_Vset2_Tset1_2024-03-13_17h09.54.370.csv,2,33,0,1,z,0,1,0,tac,B,63,1,0B,1B,0,1,z,1.62269250000099,0,1,1,1,1B,0B,B01,2.77258872223978,0.747438191788439,0.398201198014487,0.5,0.5,0.355360245533713,0.601798801985513,0.446206901568368,0.398201198014487,0.398201198014487,0.446206901568368,0.586860204691892,0.446206901568368,0.5,0.398201198014487,0.398201198014487,0.682871611799655,0.732731461206785,0.267268538793215,0.601798801985513,0.355360245533713,0.343836247552014,0.727854670486983,0.398201198014487,0.0428409524807741,0.5,0.107586196863264,0.973986997543283,0.729771089152719,2.90453705969088,0.5,91.0496041047407
CBC_1075,CBC_1075_MSI_TV_v3_Vset2_Tset1_2024-03-13_17h09.54.370.csv,2,34,1,0,z,0,1,1,tac,A,63,1,1A,0A,0,1,z,2.34733839999899,0,1,1,1,0A,1A,A10,2.50552593699074,0.747438191788439,0.398201198014487,0.5,0.5,0.355360245533713,0.644639754466287,0.446206901568368,0.398201198014487,0.398201198014487,0.446206901568368,0.586860204691892,0.446206901568368,0.5,0.398201198014487,0.398201198014487,0.682871611799655,0.817270227099291,0.182729772900709,0.747438191788439,0.398201198014487,0.280797302175108,0.793686345483442,0.252561808211561,0.0271721644183909,0.5,0.107586196863264,0.973986997543283,0.729771089152719,2.90453705969088,0.5,91.0496041047407
CBC_1075,CBC_1075_MSI_TV_v3_Vset2_Tset1_2024-03-13_17h09.54.370.csv,2,35,3,2,b,1,0,3,tac,D,63,0,3D,2D,0,1,b,3.08402470000146,1,0,1,0,3D,2D,D32,2.81341071676004,0.77461035620683,0.398201198014487,0.5,0.5,0.355360245533713,0.644639754466287,0.446206901568368,0.398201198014487,0.398201198014487,0.446206901568368,0.586860204691892,0.446206901568368,0.5,0.398201198014487,0.398201198014487,0.682871611799655,0.764941678969976,0.235058321030024,0.682871611799655,0.398201198014487,0.162164375185872,0.753952644349618,-0.682871611799655,-0.073467559659412,0.5,0.107586196863264,0.973986997543283,0.729771089152719,2.90453705969088,0.5,91.0496041047407
CBC_1075,CBC_1075_MSI_TV_v3_Vset2_Tset1_2024-03-13_17h09.54.370.csv,2,36,0,2,z,0,1,2,tac,C,27,1,0C,2C,0,1,z,2.11061300000074,0,1,1,1,2C,0C,C02,3.23867845216438,0.77461035620683,0.398201198014487,0.5,0.5,0.355360245533713,0.644639754466287,0.446206901568368,0.398201198014487,0.398201198014487,0.446206901568368,0.586860204691892,0.446206901568368,0.5,0.398201198014487,0.398201198014487,0.609404052140243,0.682214259753252,0.317785740246748,0.586860204691892,0.398201198014487,0.266691602373138,0.683937984903221,0.413139795308108,0.0444481393500666,0.5,0.107586196863264,0.973986997543283,0.729771089152719,2.90453705969088,0.5,91.0496041047407
CBC_1075,CBC_1075_MSI_TV_v3_Vset2_Tset1_2024-03-13_17h09.54.370.csv,2,37,1,0,z,0,1,1,tac,A,63,1,1A,0A,0,1,z,1.9885749999994,0,1,1,1,0A,1A,A10,2.34180580614733,0.77461035620683,0.398201198014487,0.5,0.5,0.355360245533713,0.644639754466287,0.446206901568368,0.398201198014487,0.398201198014487,0.446206901568368,0.631308344041959,0.446206901568368,0.5,0.398201198014487,0.398201198014487,0.609404052140243,0.838552239615529,0.161447760384471,0.77461035620683,0.398201198014487,0.362394540601356,0.807182462575998,0.22538964379317,0.0242488145880729,0.5,0.107586196863264,0.973986997543283,0.729771089152719,2.90453705969088,0.5,91.0496041047407
CBC_1075,CBC_1075_MSI_TV_v3_Vset2_Tset1_2024-03-13_17h09.54.370.csv,2,38,3,1,z,0,1,0,tac,B,27,1,3B,1B,0,1,z,2.56692529999782,0,1,1,1,1B,3B,B31,3.27714473299218,0.798859170794903,0.398201198014487,0.5,0.5,0.355360245533713,0.644639754466287,0.446206901568368,0.398201198014487,0.398201198014487,0.446206901568368,0.631308344041959,0.446206901568368,0.5,0.398201198014487,0.398201198014487,0.609404052140243,0.732731461206785,0.267268538793215,0.644639754466287,0.398201198014487,0.218677303531279,0.72827568934044,0.355360245533713,0.0382318573333678,0.5,0.107586196863264,0.973986997543283,0.729771089152719,2.90453705969088,0.5,91.0496041047407
CBC_1075,CBC_1075_MSI_TV_v3_Vset2_Tset1_2024-03-13_17h09.54.370.csv,2,39,2,3,b,1,0,2,tac,C,63,1,2C,3C,1,0,z,3.60986069999853,0,1,0,0,3C,2C,C23,2.60268968544438,0.798859170794903,0.398201198014487,0.5,0.5,0.355360245533713,0.682871611799655,0.446206901568368,0.398201198014487,0.398201198014487,0.446206901568368,0.631308344041959,0.446206901568368,0.5,0.398201198014487,0.398201198014487,0.609404052140243,0.319984697411367,0.680015302588633,0.446206901568368,0.631308344041959,0.0497078941467079,0.318151399090165,-0.446206901568368,-0.0480057035538815,0.5,0.107586196863264,0.973986997543283,0.729771089152719,2.90453705969088,0.5,91.0496041047407
CBC_1075,CBC_1075_MSI_TV_v3_Vset2_Tset1_2024-03-13_17h09.54.370.csv,2,40,2,3,z,0,1,3,tac,D,63,1,2D,3D,0,1,b,3.11465039999894,1,0,0,0,2D,3D,D23,2.62103882411258,0.798859170794903,0.398201198014487,0.5,0.5,0.355360245533713,0.682871611799655,0.446206901568368,0.398201198014487,0.398201198014487,0.446206901568368,0.631308344041959,0.398201198014487,0.5,0.398201198014487,0.398201198014487,0.609404052140243,0.297804704805635,0.702195295194365,0.398201198014487,0.609404052140243,0.0631233614218329,0.29771625660982,-0.398201198014487,-0.0428409524807741,0.5,0.107586196863264,0.973986997543283,0.729771089152719,2.90453705969088,0.5,91.0496041047407
CBC_1075,CBC_1075_MSI_TV_v3_Vset2_Tset1_2024-03-13_17h09.54.370.csv,2,41,1,0,b,1,0,0,tac,B,63,1,1B,0B,1,0,b,1.64333980000083,1,0,1,1,1B,0B,B10,2.63905732961526,0.798859170794903,0.398201198014487,0.5,0.5,0.355360245533713,0.682871611799655,0.446206901568368,0.398201198014487,0.398201198014487,0.446206901568368,0.631308344041959,0.398201198014487,0.5,0.398201198014487,0.355360245533713,0.609404052140243,0.796175409618918,0.203824590381082,0.682871611799655,0.355360245533713,0.384904467425548,0.777880974578807,0.317128388200345,0.0341186372038519,0.5,0.107586196863264,0.973986997543283,0.729771089152719,2.90453705969088,0.5,91.0496041047407
CBC_1075,CBC_1075_MSI_TV_v3_Vset2_Tset1_2024-03-13_17h09.54.370.csv,2,42,0,2,b,1,0,1,tac,A,27,1,0A,2A,1,0,z,3.5774960000017,0,1,0,0,2A,0A,A02,3.3499040872746,0.798859170794903,0.398201198014487,0.5,0.5,0.355360245533713,0.716990249003507,0.446206901568368,0.398201198014487,0.398201198014487,0.446206901568368,0.631308344041959,0.398201198014487,0.5,0.398201198014487,0.355360245533713,0.609404052140243,0.201140829205097,0.798859170794903,0.5,0.798859170794903,0.0336196017932243,0.219636865765029,-0.5,-0.0537930984316319,0.5,0.107586196863264,0.973986997543283,0.729771089152719,2.90453705969088,0.5,91.0496041047407
CBC_1075,CBC_1075_MSI_TV_v3_Vset2_Tset1_2024-03-13_17h09.54.370.csv,2,43,0,3,z,0,1,3,tac,D,9,1,0D,3D,0,1,b,2.79037349999999,1,0,0,0,0D,3D,D03,4.06044301054642,0.798859170794903,0.398201198014487,0.446206901568368,0.5,0.355360245533713,0.716990249003507,0.446206901568368,0.398201198014487,0.398201198014487,0.446206901568368,0.631308344041959,0.398201198014487,0.5,0.398201198014487,0.355360245533713,0.609404052140243,0.390595947859757,0.609404052140243,0.5,0.609404052140243,0.0996586276010548,0.386072762560692,-0.5,-0.0537930984316319,0.5,0.107586196863264,0.973986997543283,0.729771089152719,2.90453705969088,0.5,91.0496041047407
CBC_1075,CBC_1075_MSI_TV_v3_Vset2_Tset1_2024-03-13_17h09.54.370.csv,2,44,2,3,b,1,0,2,tac,C,63,1,2C,3C,1,0,b,3.59436610000193,1,0,1,1,2C,3C,C23,2.46809953147162,0.798859170794903,0.398201198014487,0.446206901568368,0.5,0.355360245533713,0.716990249003507,0.446206901568368,0.398201198014487,0.398201198014487,0.446206901568368,0.631308344041959,0.398201198014487,0.446206901568368,0.398201198014487,0.355360245533713,0.609404052140243,0.721275935864305,0.278724064135695,0.631308344041959,0.398201198014487,0.112129193373352,0.718842879994422,0.368691655958041,0.0396661330797446,0.5,0.107586196863264,0.973986997543283,0.729771089152719,2.90453705969088,0.5,91.0496041047407
