ID,filename,session,trial,visStimLeft,visStimRight,correctKey,leftCorrect,rightCorrect,secondStim,mod2Type,mod2Stim,frequency,rewardAccurate,stimPairLeft,stimPairRight,pCorrectLeft,pCorrectRight,key,reactionTime,choiceLeft,choiceRight,choiceAccurate,reward,chosenPair,otherPair,triplet,surprise,0A belief,1A belief,2A belief,3A belief,0B belief,1B belief,2B belief,3B belief,0C belief,1C belief,2C belief,3C belief,0D belief,1D belief,2D belief,3D belief,beliefPairNorm,beliefOtherPairNorm,beliefPair,beliefOtherPair,lik,corrLik,rewardPE,update2,fitCBCsimpleRW_CBCdriftDiffusionLR_startBelief,fitCBCsimpleRW_CBCdriftDiffusionLR_alpha1,fitCBCsimpleRW_CBCdriftDiffusionLR_nonDecisionTime,fitCBCsimpleRW_CBCdriftDiffusionLR_weight,fitCBCsimpleRW_CBCdriftDiffusionLR_startingBoundary,fitCBCsimpleRW_CBCdriftDiffusionLR_startingPoint,fit_CBCsimpleRW_CBCdriftDiffusionLR_NLL
CBC_1075,CBC_1075_MSI_AV_v3_Vset3_Aset3_2024-03-13_15h01.44.828.csv,1,1,1,0,b,1,0,0,aud,B,63,1,1B,0B,1,0,z,0.912142800001675,0,1,0,0,0B,1B,B10,2.77258872223978,0.5,0.5,0.5,0.5,0.5,0.5,0.5,0.5,0.5,0.5,0.5,0.5,0.5,0.5,0.5,0.5,0.5,0.5,0.5,0.5,0.0321179919655241,0.500357850136374,-0.5,-0.0540187272419119,0.5,0.108037454483824,0.7414069144471,0.824994596073976,2.73722397287677,0.5,93.9862432272205
CBC_1075,CBC_1075_MSI_AV_v3_Vset3_Aset3_2024-03-13_15h01.44.828.csv,1,2,1,0,z,0,1,1,aud,A,63,1,1A,0A,0,1,b,1.85668040000019,1,0,0,0,1A,0A,A10,2.83321334405622,0.5,0.5,0.5,0.5,0.445981272758088,0.5,0.5,0.5,0.5,0.5,0.5,0.5,0.5,0.5,0.5,0.5,0.5,0.5,0.5,0.5,0.199116734621271,0.499154942680135,-0.5,-0.0540187272419119,0.5,0.108037454483824,0.7414069144471,0.824994596073976,2.73722397287677,0.5,93.9862432272205
CBC_1075,CBC_1075_MSI_AV_v3_Vset3_Aset3_2024-03-13_15h01.44.828.csv,1,3,3,2,b,1,0,3,aud,D,63,1,3D,2D,1,0,z,1.12403900000027,0,1,0,0,2D,3D,D32,2.89037175789616,0.5,0.445981272758088,0.5,0.5,0.445981272758088,0.5,0.5,0.5,0.5,0.5,0.5,0.5,0.5,0.5,0.5,0.5,0.5,0.5,0.5,0.5,0.199183023219594,0.499119236391837,-0.5,-0.0540187272419119,0.5,0.108037454483824,0.7414069144471,0.824994596073976,2.73722397287677,0.5,93.9862432272205
CBC_1075,CBC_1075_MSI_AV_v3_Vset3_Aset3_2024-03-13_15h01.44.828.csv,1,4,1,2,b,1,0,0,aud,B,9,1,1B,2B,1,0,z,2.22112689999994,0,1,0,0,2B,1B,B12,2.94443897916644,0.5,0.445981272758088,0.5,0.5,0.445981272758088,0.5,0.5,0.5,0.5,0.5,0.5,0.5,0.5,0.5,0.445981272758088,0.5,0.5,0.5,0.5,0.5,0.157989615348374,0.499885749266503,-0.5,-0.0540187272419119,0.5,0.108037454483824,0.7414069144471,0.824994596073976,2.73722397287677,0.5,93.9862432272205
CBC_1075,CBC_1075_MSI_AV_v3_Vset3_Aset3_2024-03-13_15h01.44.828.csv,1,5,2,0,z,0,1,1,aud,A,27,1,2A,0A,0,1,z,1.51490770000055,0,1,1,1,0A,2A,A20,2.99573227355399,0.5,0.445981272758088,0.5,0.5,0.445981272758088,0.5,0.445981272758088,0.5,0.5,0.5,0.5,0.5,0.5,0.5,0.445981272758088,0.5,0.5,0.5,0.5,0.5,0.239194391016341,0.50019967502018,0.5,0.0540187272419119,0.5,0.108037454483824,0.7414069144471,0.824994596073976,2.73722397287677,0.5,93.9862432272205
CBC_1075,CBC_1075_MSI_AV_v3_Vset3_Aset3_2024-03-13_15h01.44.828.csv,1,6,3,2,z,0,1,2,aud,C,63,1,3C,2C,0,1,b,1.73350030000256,1,0,0,0,3C,2C,C32,3.04452243772342,0.554018727241912,0.445981272758088,0.5,0.5,0.445981272758088,0.5,0.445981272758088,0.5,0.5,0.5,0.5,0.5,0.5,0.5,0.445981272758088,0.5,0.5,0.5,0.5,0.5,0.215257694804575,0.501453412346826,-0.5,-0.0540187272419119,0.5,0.108037454483824,0.7414069144471,0.824994596073976,2.73722397287677,0.5,93.9862432272205
CBC_1075,CBC_1075_MSI_AV_v3_Vset3_Aset3_2024-03-13_15h01.44.828.csv,1,7,3,1,b,1,0,3,aud,D,27,1,3D,1D,1,0,z,3.26812640000207,0,1,0,0,1D,3D,D31,3.09104245335832,0.554018727241912,0.445981272758088,0.5,0.5,0.445981272758088,0.5,0.445981272758088,0.5,0.5,0.5,0.5,0.445981272758088,0.5,0.5,0.445981272758088,0.5,0.5,0.5,0.5,0.5,0.0794834070936614,0.500579882732269,-0.5,-0.0540187272419119,0.5,0.108037454483824,0.7414069144471,0.824994596073976,2.73722397287677,0.5,93.9862432272205
CBC_1075,CBC_1075_MSI_AV_v3_Vset3_Aset3_2024-03-13_15h01.44.828.csv,1,8,0,1,b,1,0,1,aud,A,63,1,0A,1A,1,0,b,1.71383930000229,1,0,1,1,0A,1A,A01,3.13549421592915,0.554018727241912,0.445981272758088,0.5,0.5,0.445981272758088,0.5,0.445981272758088,0.5,0.5,0.5,0.5,0.445981272758088,0.5,0.445981272758088,0.445981272758088,0.5,0.554018727241912,0.445981272758088,0.554018727241912,0.445981272758088,0.244299700094265,0.560786477553261,0.445981272758088,0.0481826814562397,0.5,0.108037454483824,0.7414069144471,0.824994596073976,2.73722397287677,0.5,93.9862432272205
CBC_1075,CBC_1075_MSI_AV_v3_Vset3_Aset3_2024-03-13_15h01.44.828.csv,1,9,0,2,z,0,1,2,aud,C,27,1,0C,2C,0,1,z,1.51240700000017,0,1,1,1,2C,0C,C02,3.17805383034795,0.602201408698152,0.445981272758088,0.5,0.5,0.445981272758088,0.5,0.445981272758088,0.5,0.5,0.5,0.5,0.445981272758088,0.5,0.445981272758088,0.445981272758088,0.5,0.5,0.5,0.5,0.5,0.239287619235776,0.499926542073865,0.5,0.0540187272419119,0.5,0.108037454483824,0.7414069144471,0.824994596073976,2.73722397287677,0.5,93.9862432272205
CBC_1075,CBC_1075_MSI_AV_v3_Vset3_Aset3_2024-03-13_15h01.44.828.csv,1,10,3,2,b,1,0,3,aud,D,63,1,3D,2D,1,0,z,2.56606100000135,0,1,0,0,2D,3D,D32,2.52572864430826,0.602201408698152,0.445981272758088,0.5,0.5,0.445981272758088,0.5,0.445981272758088,0.5,0.5,0.5,0.554018727241912,0.445981272758088,0.5,0.445981272758088,0.445981272758088,0.5,0.471448310448887,0.528551689551113,0.445981272758088,0.5,0.117821746667958,0.467371192357973,-0.445981272758088,-0.0481826814562397,0.5,0.108037454483824,0.7414069144471,0.824994596073976,2.73722397287677,0.5,93.9862432272205
CBC_1075,CBC_1075_MSI_AV_v3_Vset3_Aset3_2024-03-13_15h01.44.828.csv,1,11,0,1,z,0,1,0,aud,B,63,1,0B,1B,0,1,b,3.44533150000279,1,0,0,0,0B,1B,B01,3.25809653802148,0.602201408698152,0.445981272758088,0.5,0.5,0.445981272758088,0.5,0.445981272758088,0.5,0.5,0.5,0.554018727241912,0.445981272758088,0.5,0.445981272758088,0.397798591301848,0.5,0.471448310448887,0.528551689551113,0.445981272758088,0.5,0.0661007387454888,0.468252698033542,-0.445981272758088,-0.0481826814562397,0.5,0.108037454483824,0.7414069144471,0.824994596073976,2.73722397287677,0.5,93.9862432272205
CBC_1075,CBC_1075_MSI_AV_v3_Vset3_Aset3_2024-03-13_15h01.44.828.csv,1,12,1,0,z,0,1,1,aud,A,63,1,1A,0A,0,1,z,2.42229980000229,0,1,1,1,0A,1A,A10,2.60268968544438,0.602201408698152,0.445981272758088,0.5,0.5,0.397798591301848,0.5,0.445981272758088,0.5,0.5,0.5,0.554018727241912,0.445981272758088,0.5,0.445981272758088,0.397798591301848,0.5,0.574519517782447,0.425480482217552,0.602201408698152,0.445981272758088,0.161919575377557,0.583619449844607,0.397798591301848,0.0429771472015026,0.5,0.108037454483824,0.7414069144471,0.824994596073976,2.73722397287677,0.5,93.9862432272205
CBC_1075,CBC_1075_MSI_AV_v3_Vset3_Aset3_2024-03-13_15h01.44.828.csv,1,13,3,2,b,1,0,3,aud,D,63,1,3D,2D,1,0,b,3.11185060000025,1,0,1,1,3D,2D,D32,2.23359222150709,0.645178555899654,0.445981272758088,0.5,0.5,0.397798591301848,0.5,0.445981272758088,0.5,0.5,0.5,0.554018727241912,0.445981272758088,0.5,0.445981272758088,0.397798591301848,0.5,0.556917781832312,0.443082218167688,0.5,0.397798591301848,0.0991874312012103,0.564867112350519,0.5,0.0540187272419119,0.5,0.108037454483824,0.7414069144471,0.824994596073976,2.73722397287677,0.5,93.9862432272205
CBC_1075,CBC_1075_MSI_AV_v3_Vset3_Aset3_2024-03-13_15h01.44.828.csv,1,14,0,2,z,0,1,2,aud,C,27,1,0C,2C,0,1,z,2.32805870000266,0,1,1,1,2C,0C,C02,2.67414864942653,0.645178555899654,0.445981272758088,0.5,0.5,0.397798591301848,0.5,0.445981272758088,0.5,0.5,0.5,0.554018727241912,0.445981272758088,0.5,0.445981272758088,0.397798591301848,0.554018727241912,0.52562512688141,0.47437487311859,0.554018727241912,0.5,0.155888277548478,0.528812722326394,0.445981272758088,0.0481826814562397,0.5,0.108037454483824,0.7414069144471,0.824994596073976,2.73722397287677,0.5,93.9862432272205
CBC_1075,CBC_1075_MSI_AV_v3_Vset3_Aset3_2024-03-13_15h01.44.828.csv,1,15,1,0,z,0,1,1,aud,A,63,1,1A,0A,0,1,b,1.90712069999972,1,0,0,0,1A,0A,A10,2.30258509299405,0.645178555899654,0.445981272758088,0.5,0.5,0.397798591301848,0.5,0.445981272758088,0.5,0.5,0.5,0.602201408698152,0.445981272758088,0.5,0.445981272758088,0.397798591301848,0.554018727241912,0.408722224778655,0.591277775221345,0.445981272758088,0.645178555899654,0.155415260139643,0.398843748817345,-0.445981272758088,-0.0481826814562397,0.5,0.108037454483824,0.7414069144471,0.824994596073976,2.73722397287677,0.5,93.9862432272205
CBC_1075,CBC_1075_MSI_AV_v3_Vset3_Aset3_2024-03-13_15h01.44.828.csv,1,16,3,1,z,0,1,0,aud,B,27,1,3B,1B,0,1,z,2.63363010000103,0,1,1,1,1B,3B,B31,3.43398720448515,0.645178555899654,0.397798591301848,0.5,0.5,0.397798591301848,0.5,0.445981272758088,0.5,0.5,0.5,0.602201408698152,0.445981272758088,0.5,0.445981272758088,0.397798591301848,0.554018727241912,0.5,0.5,0.5,0.5,0.120624028359753,0.500259490632022,0.5,0.0540187272419119,0.5,0.108037454483824,0.7414069144471,0.824994596073976,2.73722397287677,0.5,93.9862432272205
CBC_1075,CBC_1075_MSI_AV_v3_Vset3_Aset3_2024-03-13_15h01.44.828.csv,1,17,2,3,b,1,0,2,aud,C,63,1,2C,3C,1,0,b,2.48943080000208,1,0,1,1,2C,3C,C23,3.46573590279973,0.645178555899654,0.397798591301848,0.5,0.5,0.397798591301848,0.554018727241912,0.445981272758088,0.5,0.5,0.5,0.602201408698152,0.445981272758088,0.5,0.445981272758088,0.397798591301848,0.554018727241912,0.574519517782447,0.425480482217552,0.602201408698152,0.445981272758088,0.154532421017347,0.58241074265774,0.397798591301848,0.0429771472015026,0.5,0.108037454483824,0.7414069144471,0.824994596073976,2.73722397287677,0.5,93.9862432272205
CBC_1075,CBC_1075_MSI_AV_v3_Vset3_Aset3_2024-03-13_15h01.44.828.csv,1,18,3,2,b,1,0,3,aud,D,63,0,3D,2D,0,1,z,3.02874170000177,0,1,0,1,2D,3D,D32,2.11021320034659,0.645178555899654,0.397798591301848,0.5,0.5,0.397798591301848,0.554018727241912,0.445981272758088,0.5,0.5,0.5,0.645178555899654,0.445981272758088,0.5,0.445981272758088,0.397798591301848,0.554018727241912,0.417935861800102,0.582064138199898,0.397798591301848,0.554018727241912,0.0756605563802491,0.408583726790254,0.602201408698152,0.0650603072823211,0.5,0.108037454483824,0.7414069144471,0.824994596073976,2.73722397287677,0.5,93.9862432272205
CBC_1075,CBC_1075_MSI_AV_v3_Vset3_Aset3_2024-03-13_15h01.44.828.csv,1,19,0,1,z,0,1,0,aud,B,63,1,0B,1B,0,1,b,3.32660940000278,1,0,0,0,0B,1B,B01,2.83321334405622,0.645178555899654,0.397798591301848,0.5,0.5,0.397798591301848,0.554018727241912,0.445981272758088,0.5,0.5,0.5,0.645178555899654,0.445981272758088,0.5,0.445981272758088,0.46285889858417,0.554018727241912,0.417935861800102,0.582064138199898,0.397798591301848,0.554018727241912,0.0621278355905192,0.409289083410685,-0.397798591301848,-0.0429771472015026,0.5,0.108037454483824,0.7414069144471,0.824994596073976,2.73722397287677,0.5,93.9862432272205
CBC_1075,CBC_1075_MSI_AV_v3_Vset3_Aset3_2024-03-13_15h01.44.828.csv,1,20,0,2,b,1,0,1,aud,A,27,1,0A,2A,1,0,z,2.50955450000038,0,1,0,0,2A,0A,A02,3.55534806148941,0.645178555899654,0.397798591301848,0.5,0.5,0.354821444100346,0.554018727241912,0.445981272758088,0.5,0.5,0.5,0.645178555899654,0.445981272758088,0.5,0.445981272758088,0.46285889858417,0.554018727241912,0.436613135501126,0.563386864498874,0.5,0.645178555899654,0.112132913325583,0.428373058494274,-0.5,-0.0540187272419119,0.5,0.108037454483824,0.7414069144471,0.824994596073976,2.73722397287677,0.5,93.9862432272205
CBC_1075,CBC_1075_MSI_AV_v3_Vset3_Aset3_2024-03-13_15h01.44.828.csv,1,21,3,0,b,1,0,3,aud,D,9,1,3D,0D,1,0,b,3.39073750000171,1,0,1,1,3D,0D,D30,3.58351893845611,0.645178555899654,0.397798591301848,0.445981272758088,0.5,0.354821444100346,0.554018727241912,0.445981272758088,0.5,0.5,0.5,0.645178555899654,0.445981272758088,0.5,0.445981272758088,0.46285889858417,0.554018727241912,0.52562512688141,0.47437487311859,0.554018727241912,0.5,0.0775041997176814,0.529552199942513,0.445981272758088,0.0481826814562397,0.5,0.108037454483824,0.7414069144471,0.824994596073976,2.73722397287677,0.5,93.9862432272205
CBC_1075,CBC_1075_MSI_AV_v3_Vset3_Aset3_2024-03-13_15h01.44.828.csv,1,22,3,2,z,0,1,2,aud,C,63,1,3C,2C,0,1,z,2.2447841000012,0,1,1,1,2C,3C,C32,2.91777073208428,0.645178555899654,0.397798591301848,0.445981272758088,0.5,0.354821444100346,0.554018727241912,0.445981272758088,0.5,0.5,0.5,0.645178555899654,0.445981272758088,0.5,0.445981272758088,0.46285889858417,0.602201408698152,0.591277775221345,0.408722224778655,0.645178555899654,0.445981272758088,0.188030988775486,0.601748719378434,0.354821444100346,0.0383340056168757,0.5,0.108037454483824,0.7414069144471,0.824994596073976,2.73722397287677,0.5,93.9862432272205
CBC_1075,CBC_1075_MSI_AV_v3_Vset3_Aset3_2024-03-13_15h01.44.828.csv,1,23,1,3,b,1,0,0,aud,B,27,1,1B,3B,1,0,b,2.78446850000182,1,0,1,1,1B,3B,B13,3.63758615972639,0.645178555899654,0.397798591301848,0.445981272758088,0.5,0.354821444100346,0.554018727241912,0.445981272758088,0.5,0.5,0.5,0.68351256151653,0.445981272758088,0.5,0.445981272758088,0.46285889858417,0.602201408698152,0.52562512688141,0.47437487311859,0.554018727241912,0.5,0.115444129353781,0.528825583227004,0.445981272758088,0.0481826814562397,0.5,0.108037454483824,0.7414069144471,0.824994596073976,2.73722397287677,0.5,93.9862432272205
CBC_1075,CBC_1075_MSI_AV_v3_Vset3_Aset3_2024-03-13_15h01.44.828.csv,1,24,2,3,b,1,0,2,aud,C,63,1,2C,3C,1,0,b,2.93806110000151,1,0,1,1,2C,3C,C23,2.9704144655697,0.645178555899654,0.397798591301848,0.445981272758088,0.5,0.354821444100346,0.602201408698152,0.445981272758088,0.5,0.5,0.5,0.68351256151653,0.445981272758088,0.5,0.445981272758088,0.46285889858417,0.602201408698152,0.605149440196364,0.394850559803636,0.68351256151653,0.445981272758088,0.12093322373429,0.615946045084553,0.31648743848347,0.0341924972298598,0.5,0.108037454483824,0.7414069144471,0.824994596073976,2.73722397287677,0.5,93.9862432272205
CBC_1075,CBC_1075_MSI_AV_v3_Vset3_Aset3_2024-03-13_15h01.44.828.csv,1,25,3,2,b,1,0,3,aud,D,63,1,3D,2D,1,0,z,3.65716290000091,0,1,0,0,2D,3D,D32,2.07944154167984,0.645178555899654,0.397798591301848,0.445981272758088,0.5,0.354821444100346,0.602201408698152,0.445981272758088,0.5,0.5,0.5,0.71770505874639,0.445981272758088,0.5,0.445981272758088,0.46285889858417,0.602201408698152,0.43458468541113,0.565415314588869,0.46285889858417,0.602201408698152,0.0521798710003879,0.427167260995532,-0.46285889858417,-0.05000609718822,0.5,0.108037454483824,0.7414069144471,0.824994596073976,2.73722397287677,0.5,93.9862432272205
CBC_1075,CBC_1075_MSI_AV_v3_Vset3_Aset3_2024-03-13_15h01.44.828.csv,1,26,0,1,z,0,1,0,aud,B,63,1,0B,1B,0,1,b,3.06468860000132,1,0,0,0,0B,1B,B01,2.6149597780362,0.645178555899654,0.397798591301848,0.445981272758088,0.5,0.354821444100346,0.602201408698152,0.445981272758088,0.5,0.5,0.5,0.71770505874639,0.445981272758088,0.5,0.445981272758088,0.412852801395949,0.602201408698152,0.370755455904514,0.629244544095486,0.354821444100346,0.602201408698152,0.0642445349379117,0.35774367680309,-0.354821444100346,-0.0383340056168757,0.5,0.108037454483824,0.7414069144471,0.824994596073976,2.73722397287677,0.5,93.9862432272205
CBC_1075,CBC_1075_MSI_AV_v3_Vset3_Aset3_2024-03-13_15h01.44.828.csv,1,27,3,0,z,0,1,1,aud,A,9,1,3A,0A,0,1,z,3.03522120000162,0,1,1,1,0A,3A,A30,3.73766961828337,0.645178555899654,0.397798591301848,0.445981272758088,0.5,0.31648743848347,0.602201408698152,0.445981272758088,0.5,0.5,0.5,0.71770505874639,0.445981272758088,0.5,0.445981272758088,0.412852801395949,0.602201408698152,0.563386864498874,0.436613135501126,0.645178555899654,0.5,0.105375317193868,0.570583814893223,0.354821444100346,0.0383340056168757,0.5,0.108037454483824,0.7414069144471,0.824994596073976,2.73722397287677,0.5,93.9862432272205
CBC_1075,CBC_1075_MSI_AV_v3_Vset3_Aset3_2024-03-13_15h01.44.828.csv,1,28,3,2,b,1,0,3,aud,D,63,1,3D,2D,1,0,b,2.77343010000186,1,0,1,1,3D,2D,D32,1.96944064646551,0.68351256151653,0.397798591301848,0.445981272758088,0.5,0.31648743848347,0.602201408698152,0.445981272758088,0.5,0.5,0.5,0.71770505874639,0.445981272758088,0.5,0.445981272758088,0.412852801395949,0.602201408698152,0.593270194546875,0.406729805453125,0.602201408698152,0.412852801395949,0.132755923152324,0.604897427763512,0.397798591301848,0.0429771472015026,0.5,0.108037454483824,0.7414069144471,0.824994596073976,2.73722397287677,0.5,93.9862432272205
CBC_1075,CBC_1075_MSI_AV_v3_Vset3_Aset3_2024-03-13_15h01.44.828.csv,1,29,0,2,z,0,1,2,aud,C,27,1,0C,2C,0,1,b,3.59826610000164,1,0,0,0,0C,2C,C02,2.68557734525015,0.68351256151653,0.397798591301848,0.445981272758088,0.5,0.31648743848347,0.602201408698152,0.445981272758088,0.5,0.5,0.5,0.71770505874639,0.445981272758088,0.5,0.445981272758088,0.412852801395949,0.645178555899654,0.410608460898358,0.589391539101642,0.5,0.71770505874639,0.0506138466014265,0.400495818804695,-0.5,-0.0540187272419119,0.5,0.108037454483824,0.7414069144471,0.824994596073976,2.73722397287677,0.5,93.9862432272205
CBC_1075,CBC_1075_MSI_AV_v3_Vset3_Aset3_2024-03-13_15h01.44.828.csv,1,30,0,1,b,1,0,1,aud,A,63,1,0A,1A,1,0,b,3.82870810000168,1,0,1,1,0A,1A,A01,3.11351530921037,0.68351256151653,0.397798591301848,0.445981272758088,0.5,0.31648743848347,0.602201408698152,0.445981272758088,0.5,0.445981272758088,0.5,0.71770505874639,0.445981272758088,0.5,0.445981272758088,0.412852801395949,0.645178555899654,0.632114595077459,0.367885404922541,0.68351256151653,0.397798591301848,0.0687941565598637,0.645762676694686,0.31648743848347,0.0341924972298598,0.5,0.108037454483824,0.7414069144471,0.824994596073976,2.73722397287677,0.5,93.9862432272205
CBC_1075,CBC_1075_MSI_AV_v3_Vset3_Aset3_2024-03-13_15h01.44.828.csv,1,31,0,1,z,0,1,0,aud,B,63,1,0B,1B,0,1,z,1.82535440000174,0,1,1,1,1B,0B,B01,2.4423470353692,0.71770505874639,0.397798591301848,0.445981272758088,0.5,0.31648743848347,0.602201408698152,0.445981272758088,0.5,0.445981272758088,0.5,0.71770505874639,0.445981272758088,0.5,0.445981272758088,0.412852801395949,0.645178555899654,0.6555009463167,0.3444990536833,0.602201408698152,0.31648743848347,0.279119249608085,0.669518507049819,0.397798591301848,0.0429771472015026,0.5,0.108037454483824,0.7414069144471,0.824994596073976,2.73722397287677,0.5,93.9862432272205
CBC_1075,CBC_1075_MSI_AV_v3_Vset3_Aset3_2024-03-13_15h01.44.828.csv,1,32,1,3,z,0,1,3,aud,D,27,1,1D,3D,0,1,z,2.31435300000157,0,1,1,1,3D,1D,D13,3.85014760171006,0.71770505874639,0.397798591301848,0.445981272758088,0.5,0.31648743848347,0.645178555899654,0.445981272758088,0.5,0.445981272758088,0.5,0.71770505874639,0.445981272758088,0.5,0.445981272758088,0.412852801395949,0.645178555899654,0.591277775221345,0.408722224778655,0.645178555899654,0.445981272758088,0.179455125067127,0.60151448569189,0.354821444100346,0.0383340056168757,0.5,0.108037454483824,0.7414069144471,0.824994596073976,2.73722397287677,0.5,93.9862432272205
CBC_1075,CBC_1075_MSI_AV_v3_Vset3_Aset3_2024-03-13_15h01.44.828.csv,1,33,2,3,b,1,0,2,aud,C,63,1,2C,3C,1,0,b,2.89684600000146,1,0,1,1,2C,3C,C23,2.77258872223978,0.71770505874639,0.397798591301848,0.445981272758088,0.5,0.31648743848347,0.645178555899654,0.445981272758088,0.5,0.445981272758088,0.5,0.71770505874639,0.445981272758088,0.5,0.445981272758088,0.412852801395949,0.68351256151653,0.616751300858283,0.383248699141717,0.71770505874639,0.445981272758088,0.126882933917626,0.629328809039321,0.28229494125361,0.0304984268667006,0.5,0.108037454483824,0.7414069144471,0.824994596073976,2.73722397287677,0.5,93.9862432272205
CBC_1075,CBC_1075_MSI_AV_v3_Vset3_Aset3_2024-03-13_15h01.44.828.csv,1,34,0,1,z,0,1,0,aud,B,63,1,0B,1B,0,1,z,1.0831143000014,0,1,1,1,1B,0B,B01,2.28238238567653,0.71770505874639,0.397798591301848,0.445981272758088,0.5,0.31648743848347,0.645178555899654,0.445981272758088,0.5,0.445981272758088,0.5,0.74820348561309,0.445981272758088,0.5,0.445981272758088,0.412852801395949,0.68351256151653,0.670896714314531,0.329103285685469,0.645178555899654,0.31648743848347,0.255709246184116,0.683539615279325,0.354821444100346,0.0383340056168757,0.5,0.108037454483824,0.7414069144471,0.824994596073976,2.73722397287677,0.5,93.9862432272205
CBC_1075,CBC_1075_MSI_AV_v3_Vset3_Aset3_2024-03-13_15h01.44.828.csv,1,35,1,0,z,0,1,1,aud,A,63,1,1A,0A,0,1,b,2.59152860000177,1,0,0,0,1A,0A,A10,2.52572864430826,0.71770505874639,0.397798591301848,0.445981272758088,0.5,0.31648743848347,0.68351256151653,0.445981272758088,0.5,0.445981272758088,0.5,0.74820348561309,0.445981272758088,0.5,0.445981272758088,0.412852801395949,0.68351256151653,0.356608955322241,0.64339104467776,0.397798591301848,0.71770505874639,0.0850389124721027,0.34313251963843,-0.397798591301848,-0.0429771472015026,0.5,0.108037454483824,0.7414069144471,0.824994596073976,2.73722397287677,0.5,93.9862432272205
CBC_1075,CBC_1075_MSI_AV_v3_Vset3_Aset3_2024-03-13_15h01.44.828.csv,1,36,2,1,b,1,0,2,aud,C,9,1,2C,1C,1,0,b,3.44647640000039,1,0,1,1,2C,1C,C21,3.93182563272433,0.71770505874639,0.354821444100346,0.445981272758088,0.5,0.31648743848347,0.68351256151653,0.445981272758088,0.5,0.445981272758088,0.5,0.74820348561309,0.445981272758088,0.5,0.445981272758088,0.412852801395949,0.68351256151653,0.599424287976242,0.400575712023758,0.74820348561309,0.5,0.0852309525507838,0.61063671885245,0.25179651438691,0.0272034544622612,0.5,0.108037454483824,0.7414069144471,0.824994596073976,2.73722397287677,0.5,93.9862432272205
CBC_1075,CBC_1075_MSI_AV_v3_Vset3_Aset3_2024-03-13_15h01.44.828.csv,1,37,0,1,b,1,0,1,aud,A,63,1,0A,1A,1,0,z,1.40877030000047,0,1,0,0,1A,0A,A01,2.85263142991332,0.71770505874639,0.354821444100346,0.445981272758088,0.5,0.31648743848347,0.68351256151653,0.445981272758088,0.5,0.445981272758088,0.5,0.775406940075352,0.445981272758088,0.5,0.445981272758088,0.412852801395949,0.68351256151653,0.330827670140147,0.669172329859853,0.354821444100346,0.71770505874639,0.16375303268809,0.317972229801431,-0.354821444100346,-0.0383340056168757,0.5,0.108037454483824,0.7414069144471,0.824994596073976,2.73722397287677,0.5,93.9862432272205
CBC_1075,CBC_1075_MSI_AV_v3_Vset3_Aset3_2024-03-13_15h01.44.828.csv,1,38,1,3,z,0,1,3,aud,D,27,1,1D,3D,0,1,z,2.51571860000149,0,1,1,1,3D,1D,D13,3.27714473299218,0.71770505874639,0.31648743848347,0.445981272758088,0.5,0.31648743848347,0.68351256151653,0.445981272758088,0.5,0.445981272758088,0.5,0.775406940075352,0.445981272758088,0.5,0.445981272758088,0.412852801395949,0.68351256151653,0.605149440196364,0.394850559803636,0.68351256151653,0.445981272758088,0.161054589207688,0.617334979948024,0.31648743848347,0.0341924972298598,0.5,0.108037454483824,0.7414069144471,0.824994596073976,2.73722397287677,0.5,93.9862432272205
CBC_1075,CBC_1075_MSI_AV_v3_Vset3_Aset3_2024-03-13_15h01.44.828.csv,1,39,1,0,b,1,0,0,aud,B,63,1,1B,0B,1,0,b,2.7327449000004,1,0,1,1,1B,0B,B10,3.29583686600433,0.71770505874639,0.31648743848347,0.445981272758088,0.5,0.31648743848347,0.68351256151653,0.445981272758088,0.5,0.445981272758088,0.5,0.775406940075352,0.445981272758088,0.5,0.445981272758088,0.412852801395949,0.71770505874639,0.68351256151653,0.31648743848347,0.68351256151653,0.31648743848347,0.156094176035742,0.696409604471722,0.31648743848347,0.0341924972298598,0.5,0.108037454483824,0.7414069144471,0.824994596073976,2.73722397287677,0.5,93.9862432272205
CBC_1075,CBC_1075_MSI_AV_v3_Vset3_Aset3_2024-03-13_15h01.44.828.csv,1,40,3,2,z,0,1,2,aud,C,63,0,3C,2C,1,0,z,2.68571890000203,0,1,1,0,2C,3C,C32,2.90872089656436,0.71770505874639,0.31648743848347,0.445981272758088,0.5,0.31648743848347,0.71770505874639,0.445981272758088,0.5,0.445981272758088,0.5,0.775406940075352,0.445981272758088,0.5,0.445981272758088,0.412852801395949,0.71770505874639,0.63485706831616,0.36514293168384,0.775406940075352,0.445981272758088,0.150578353268864,0.647859985730097,-0.775406940075352,-0.0837729919948318,0.5,0.108037454483824,0.7414069144471,0.824994596073976,2.73722397287677,0.5,93.9862432272205
CBC_1075,CBC_1075_MSI_AV_v3_Vset3_Aset3_2024-03-13_15h01.44.828.csv,1,41,0,2,b,1,0,1,aud,A,27,1,0A,2A,1,0,z,3.16673840000112,0,1,0,0,2A,0A,A02,3.3322045101752,0.71770505874639,0.31648743848347,0.445981272758088,0.5,0.31648743848347,0.71770505874639,0.445981272758088,0.5,0.445981272758088,0.5,0.69163394808052,0.445981272758088,0.5,0.445981272758088,0.412852801395949,0.71770505874639,0.383248699141717,0.616751300858283,0.445981272758088,0.71770505874639,0.0623771154516497,0.371385875063879,-0.445981272758088,-0.0481826814562397,0.5,0.108037454483824,0.7414069144471,0.824994596073976,2.73722397287677,0.5,93.9862432272205
CBC_1075,CBC_1075_MSI_AV_v3_Vset3_Aset3_2024-03-13_15h01.44.828.csv,1,42,2,3,z,0,1,3,aud,D,63,1,2D,3D,0,1,b,2.42551730000196,1,0,0,0,2D,3D,D23,4.04305126783455,0.71770505874639,0.31648743848347,0.397798591301848,0.5,0.31648743848347,0.71770505874639,0.445981272758088,0.5,0.445981272758088,0.5,0.69163394808052,0.445981272758088,0.5,0.445981272758088,0.412852801395949,0.71770505874639,0.365176180672408,0.634823819327592,0.412852801395949,0.71770505874639,0.0977064658458678,0.352000389552893,-0.412852801395949,-0.044603565739334,0.5,0.108037454483824,0.7414069144471,0.824994596073976,2.73722397287677,0.5,93.9862432272205
CBC_1075,CBC_1075_MSI_AV_v3_Vset3_Aset3_2024-03-13_15h01.44.828.csv,1,43,1,3,b,1,0,0,aud,B,27,1,1B,3B,1,0,b,3.27286200000162,1,0,1,1,1B,3B,B13,3.36729582998647,0.71770505874639,0.31648743848347,0.397798591301848,0.5,0.31648743848347,0.71770505874639,0.445981272758088,0.5,0.445981272758088,0.5,0.69163394808052,0.445981272758088,0.5,0.445981272758088,0.368249235656615,0.71770505874639,0.589391539101642,0.410608460898358,0.71770505874639,0.5,0.0942403933939657,0.599748262077442,0.28229494125361,0.0304984268667006,0.5,0.108037454483824,0.7414069144471,0.824994596073976,2.73722397287677,0.5,93.9862432272205
CBC_1075,CBC_1075_MSI_AV_v3_Vset3_Aset3_2024-03-13_15h01.44.828.csv,1,44,3,2,z,0,1,2,aud,C,63,1,3C,2C,0,1,z,3.64614390000133,0,1,1,1,2C,3C,C32,2.69124308278583,0.71770505874639,0.31648743848347,0.397798591301848,0.5,0.31648743848347,0.74820348561309,0.445981272758088,0.5,0.445981272758088,0.5,0.69163394808052,0.445981272758088,0.5,0.445981272758088,0.368249235656615,0.71770505874639,0.607968261509962,0.392031738490038,0.69163394808052,0.445981272758088,0.0753763432051823,0.619060294033434,0.30836605191948,0.0333150832986073,0.5,0.108037454483824,0.7414069144471,0.824994596073976,2.73722397287677,0.5,93.9862432272205
CBC_1075,CBC_1075_MSI_TV_v3_Vset2_Tset1_2024-03-13_17h09.54.370.csv,2,1,3,1,z,0,1,0,tac,B,27,1,3B,1B,0,1,b,1.14685660000032,1,0,0,0,3B,1B,B31,2.77258872223978,0.5,0.5,0.5,0.5,0.5,0.5,0.5,0.5,0.5,0.5,0.5,0.5,0.5,0.5,0.5,0.5,0.5,0.5,0.5,0.5,0.0178918942504777,0.499660291332926,-0.5,-0.170425578932727,0.5,0.340851157865455,0.968831046730066,0.78507475912799,2.94230108485317,0.5,90.1112443675238
CBC_1075,CBC_1075_MSI_TV_v3_Vset2_Tset1_2024-03-13_17h09.54.370.csv,2,2,2,3,b,1,0,2,tac,C,63,1,2C,3C,1,0,b,2.6462294999983,1,0,1,1,2C,3C,C23,2.83321334405622,0.5,0.5,0.5,0.5,0.5,0.5,0.5,0.329574421067273,0.5,0.5,0.5,0.5,0.5,0.5,0.5,0.5,0.5,0.5,0.5,0.5,0.139396925863511,0.500408616007398,0.5,0.170425578932727,0.5,0.340851157865455,0.968831046730066,0.78507475912799,2.94230108485317,0.5,90.1112443675238
CBC_1075,CBC_1075_MSI_TV_v3_Vset2_Tset1_2024-03-13_17h09.54.370.csv,2,3,2,3,z,0,1,3,tac,D,63,1,2D,3D,0,1,b,3.74990590000016,1,0,0,0,2D,3D,D23,2.89037175789616,0.5,0.5,0.5,0.5,0.5,0.5,0.5,0.329574421067273,0.5,0.5,0.670425578932727,0.5,0.5,0.5,0.5,0.5,0.5,0.5,0.5,0.5,0.074427143267384,0.500508775860119,-0.5,-0.170425578932727,0.5,0.340851157865455,0.968831046730066,0.78507475912799,2.94230108485317,0.5,90.1112443675238
CBC_1075,CBC_1075_MSI_TV_v3_Vset2_Tset1_2024-03-13_17h09.54.370.csv,2,4,1,0,b,1,0,0,tac,B,63,1,1B,0B,1,0,z,2.6412584000027,0,1,0,0,0B,1B,B10,2.94443897916644,0.5,0.5,0.5,0.5,0.5,0.5,0.5,0.329574421067273,0.5,0.5,0.670425578932727,0.5,0.5,0.5,0.329574421067273,0.5,0.5,0.5,0.5,0.5,0.139577032825496,0.499653760865787,-0.5,-0.170425578932727,0.5,0.340851157865455,0.968831046730066,0.78507475912799,2.94230108485317,0.5,90.1112443675238
CBC_1075,CBC_1075_MSI_TV_v3_Vset2_Tset1_2024-03-13_17h09.54.370.csv,2,5,3,0,z,0,1,1,tac,A,9,1,3A,0A,0,1,z,2.55710069999986,0,1,1,1,0A,3A,A30,2.99573227355399,0.5,0.5,0.5,0.5,0.329574421067273,0.5,0.5,0.329574421067273,0.5,0.5,0.670425578932727,0.5,0.5,0.5,0.329574421067273,0.5,0.5,0.5,0.5,0.5,0.146335726029341,0.49965364904683,0.5,0.170425578932727,0.5,0.340851157865455,0.968831046730066,0.78507475912799,2.94230108485317,0.5,90.1112443675238
CBC_1075,CBC_1075_MSI_TV_v3_Vset2_Tset1_2024-03-13_17h09.54.370.csv,2,6,2,3,z,0,1,3,tac,D,63,1,2D,3D,0,1,b,3.65819610000108,1,0,0,0,2D,3D,D23,2.35137525716348,0.670425578932727,0.5,0.5,0.5,0.329574421067273,0.5,0.5,0.329574421067273,0.5,0.5,0.670425578932727,0.5,0.5,0.5,0.329574421067273,0.5,0.397281320033066,0.602718679966934,0.329574421067273,0.5,0.0596791176703707,0.383598428427542,-0.329574421067273,-0.112335823023617,0.5,0.340851157865455,0.968831046730066,0.78507475912799,2.94230108485317,0.5,90.1112443675238
CBC_1075,CBC_1075_MSI_TV_v3_Vset2_Tset1_2024-03-13_17h09.54.370.csv,2,7,2,0,b,1,0,2,tac,C,27,1,2C,0C,1,0,z,2.72785620000286,0,1,0,0,0C,2C,C20,3.09104245335832,0.670425578932727,0.5,0.5,0.5,0.329574421067273,0.5,0.5,0.329574421067273,0.5,0.5,0.670425578932727,0.5,0.5,0.5,0.217238598043656,0.5,0.427195038283368,0.572804961716632,0.5,0.670425578932727,0.11085440767011,0.415612399912293,-0.5,-0.170425578932727,0.5,0.340851157865455,0.968831046730066,0.78507475912799,2.94230108485317,0.5,90.1112443675238
CBC_1075,CBC_1075_MSI_TV_v3_Vset2_Tset1_2024-03-13_17h09.54.370.csv,2,8,1,0,z,0,1,1,tac,A,63,1,1A,0A,0,1,b,2.56671049999932,1,0,0,0,1A,0A,A10,3.13549421592915,0.670425578932727,0.5,0.5,0.5,0.329574421067273,0.5,0.5,0.329574421067273,0.329574421067273,0.5,0.670425578932727,0.5,0.5,0.5,0.217238598043656,0.5,0.427195038283368,0.572804961716632,0.5,0.670425578932727,0.121763109718167,0.416472543105577,-0.5,-0.170425578932727,0.5,0.340851157865455,0.968831046730066,0.78507475912799,2.94230108485317,0.5,90.1112443675238
CBC_1075,CBC_1075_MSI_TV_v3_Vset2_Tset1_2024-03-13_17h09.54.370.csv,2,9,0,1,z,0,1,0,tac,B,63,1,0B,1B,0,1,b,3.95638980000149,1,0,0,0,0B,1B,B01,3.17805383034795,0.670425578932727,0.329574421067273,0.5,0.5,0.329574421067273,0.5,0.5,0.329574421067273,0.329574421067273,0.5,0.670425578932727,0.5,0.5,0.5,0.217238598043656,0.5,0.397281320033066,0.602718679966934,0.329574421067273,0.5,0.0502835329569287,0.384503898218802,-0.329574421067273,-0.112335823023617,0.5,0.340851157865455,0.968831046730066,0.78507475912799,2.94230108485317,0.5,90.1112443675238
CBC_1075,CBC_1075_MSI_TV_v3_Vset2_Tset1_2024-03-13_17h09.54.370.csv,2,10,3,1,b,1,0,3,tac,D,27,1,3D,1D,1,0,z,3.57880389999991,0,1,0,0,1D,3D,D31,3.2188758248682,0.670425578932727,0.329574421067273,0.5,0.5,0.217238598043656,0.5,0.5,0.329574421067273,0.329574421067273,0.5,0.670425578932727,0.5,0.5,0.5,0.217238598043656,0.5,0.5,0.5,0.5,0.5,0.0818618383430875,0.499354174185131,-0.5,-0.170425578932727,0.5,0.340851157865455,0.968831046730066,0.78507475912799,2.94230108485317,0.5,90.1112443675238
CBC_1075,CBC_1075_MSI_TV_v3_Vset2_Tset1_2024-03-13_17h09.54.370.csv,2,11,2,3,b,1,0,2,tac,C,63,1,2C,3C,1,0,b,2.92712130000291,1,0,1,1,2C,3C,C23,2.56494935746154,0.670425578932727,0.329574421067273,0.5,0.5,0.217238598043656,0.5,0.5,0.329574421067273,0.329574421067273,0.5,0.670425578932727,0.5,0.5,0.329574421067273,0.217238598043656,0.5,0.572804961716632,0.427195038283368,0.670425578932727,0.5,0.13861438912683,0.582667910336724,0.329574421067273,0.112335823023617,0.5,0.340851157865455,0.968831046730066,0.78507475912799,2.94230108485317,0.5,90.1112443675238
CBC_1075,CBC_1075_MSI_TV_v3_Vset2_Tset1_2024-03-13_17h09.54.370.csv,2,12,0,1,z,0,1,0,tac,B,63,1,0B,1B,0,1,b,1.96006269999998,1,0,0,0,0B,1B,B01,2.60268968544438,0.670425578932727,0.329574421067273,0.5,0.5,0.217238598043656,0.5,0.5,0.329574421067273,0.329574421067273,0.5,0.782761401956344,0.5,0.5,0.329574421067273,0.217238598043656,0.5,0.302881912150569,0.697118087849431,0.217238598043656,0.5,0.12054891233781,0.286522487179637,-0.217238598043656,-0.0740460276762482,0.5,0.340851157865455,0.968831046730066,0.78507475912799,2.94230108485317,0.5,90.1112443675238
CBC_1075,CBC_1075_MSI_TV_v3_Vset2_Tset1_2024-03-13_17h09.54.370.csv,2,13,1,0,z,0,1,1,tac,A,63,1,1A,0A,0,1,z,2.05585430000065,0,1,1,1,0A,1A,A10,2.63905732961526,0.670425578932727,0.329574421067273,0.5,0.5,0.143192570367408,0.5,0.5,0.329574421067273,0.329574421067273,0.5,0.782761401956344,0.5,0.5,0.329574421067273,0.217238598043656,0.5,0.670425578932727,0.329574421067273,0.670425578932727,0.329574421067273,0.27255476353115,0.68723018083417,0.329574421067273,0.112335823023617,0.5,0.340851157865455,0.968831046730066,0.78507475912799,2.94230108485317,0.5,90.1112443675238
CBC_1075,CBC_1075_MSI_TV_v3_Vset2_Tset1_2024-03-13_17h09.54.370.csv,2,14,2,1,b,1,0,2,tac,C,9,1,2C,1C,1,0,z,3.08213780000005,0,1,0,0,1C,2C,C21,3.36729582998647,0.782761401956344,0.329574421067273,0.5,0.5,0.143192570367408,0.5,0.5,0.329574421067273,0.329574421067273,0.5,0.782761401956344,0.5,0.5,0.329574421067273,0.217238598043656,0.5,0.389784101109878,0.610215898890122,0.5,0.782761401956344,0.0815216414203104,0.374575407847567,-0.5,-0.170425578932727,0.5,0.340851157865455,0.968831046730066,0.78507475912799,2.94230108485317,0.5,90.1112443675238
CBC_1075,CBC_1075_MSI_TV_v3_Vset2_Tset1_2024-03-13_17h09.54.370.csv,2,15,0,1,b,1,0,1,tac,A,63,1,0A,1A,1,0,b,0.147821799997473,1,0,1,1,0A,1A,A01,3.40119738166216,0.782761401956344,0.329574421067273,0.5,0.5,0.143192570367408,0.5,0.5,0.329574421067273,0.329574421067273,0.329574421067273,0.782761401956344,0.5,0.5,0.329574421067273,0.217238598043656,0.5,0.703709604378825,0.296290395621175,0.782761401956344,0.329574421067273,1e-20,0.5,0.217238598043656,0.0740460276762482,0.5,0.340851157865455,0.968831046730066,0.78507475912799,2.94230108485317,0.5,90.1112443675238
CBC_1075,CBC_1075_MSI_TV_v3_Vset2_Tset1_2024-03-13_17h09.54.370.csv,2,16,1,3,z,0,1,3,tac,D,27,1,1D,3D,0,1,b,2.8772280000012,1,0,0,0,1D,3D,D13,3.43398720448515,0.856807429632592,0.329574421067273,0.5,0.5,0.143192570367408,0.5,0.5,0.329574421067273,0.329574421067273,0.329574421067273,0.782761401956344,0.5,0.5,0.329574421067273,0.217238598043656,0.5,0.397281320033066,0.602718679966934,0.329574421067273,0.5,0.0940483946864604,0.383595158673215,-0.329574421067273,-0.112335823023617,0.5,0.340851157865455,0.968831046730066,0.78507475912799,2.94230108485317,0.5,90.1112443675238
CBC_1075,CBC_1075_MSI_TV_v3_Vset2_Tset1_2024-03-13_17h09.54.370.csv,2,17,1,0,b,1,0,0,tac,B,63,1,1B,0B,1,0,b,3.03260279999813,1,0,1,1,1B,0B,B10,2.77258872223978,0.856807429632592,0.329574421067273,0.5,0.5,0.143192570367408,0.5,0.5,0.329574421067273,0.329574421067273,0.329574421067273,0.782761401956344,0.5,0.5,0.217238598043656,0.217238598043656,0.5,0.777372163540987,0.222627836459013,0.5,0.143192570367408,0.17442335131965,0.781860172057376,0.5,0.170425578932727,0.5,0.340851157865455,0.968831046730066,0.78507475912799,2.94230108485317,0.5,90.1112443675238
CBC_1075,CBC_1075_MSI_TV_v3_Vset2_Tset1_2024-03-13_17h09.54.370.csv,2,18,3,2,z,0,1,2,tac,C,63,0,3C,2C,1,0,z,2.67980149999858,0,1,1,0,2C,3C,C32,3.49650756146648,0.856807429632592,0.329574421067273,0.5,0.5,0.143192570367408,0.670425578932727,0.5,0.329574421067273,0.329574421067273,0.329574421067273,0.782761401956344,0.5,0.5,0.217238598043656,0.217238598043656,0.5,0.610215898890122,0.389784101109878,0.782761401956344,0.5,0.171996851294598,0.625161344705783,-0.782761401956344,-0.266805130189207,0.5,0.340851157865455,0.968831046730066,0.78507475912799,2.94230108485317,0.5,90.1112443675238
CBC_1075,CBC_1075_MSI_TV_v3_Vset2_Tset1_2024-03-13_17h09.54.370.csv,2,19,0,2,b,1,0,1,tac,A,27,1,0A,2A,1,0,b,3.42492969999876,1,0,1,1,0A,2A,A02,3.52636052461616,0.856807429632592,0.329574421067273,0.5,0.5,0.143192570367408,0.670425578932727,0.5,0.329574421067273,0.329574421067273,0.329574421067273,0.515956271767138,0.5,0.5,0.217238598043656,0.217238598043656,0.5,0.631487866973581,0.368512133026419,0.856807429632592,0.5,0.115254673107882,0.648576747733754,0.143192570367408,0.0488073534074615,0.5,0.340851157865455,0.968831046730066,0.78507475912799,2.94230108485317,0.5,90.1112443675238
CBC_1075,CBC_1075_MSI_TV_v3_Vset2_Tset1_2024-03-13_17h09.54.370.csv,2,20,2,3,z,0,1,3,tac,D,63,1,2D,3D,0,1,z,2.62172329999885,0,1,1,1,3D,2D,D23,2.4567357728213,0.905614783040054,0.329574421067273,0.5,0.5,0.143192570367408,0.670425578932727,0.5,0.329574421067273,0.329574421067273,0.329574421067273,0.515956271767138,0.5,0.5,0.217238598043656,0.217238598043656,0.5,0.697118087849431,0.302881912150569,0.5,0.217238598043656,0.205488346204498,0.712457582673225,0.5,0.170425578932727,0.5,0.340851157865455,0.968831046730066,0.78507475912799,2.94230108485317,0.5,90.1112443675238
CBC_1075,CBC_1075_MSI_TV_v3_Vset2_Tset1_2024-03-13_17h09.54.370.csv,2,21,1,3,b,1,0,0,tac,B,27,1,1B,3B,1,0,z,3.55862999999954,0,1,0,0,3B,1B,B13,3.58351893845611,0.905614783040054,0.329574421067273,0.5,0.5,0.143192570367408,0.670425578932727,0.5,0.329574421067273,0.329574421067273,0.329574421067273,0.515956271767138,0.5,0.5,0.217238598043656,0.217238598043656,0.670425578932727,0.329574421067273,0.670425578932727,0.329574421067273,0.670425578932727,0.0510151170038488,0.31294224492692,-0.329574421067273,-0.112335823023617,0.5,0.340851157865455,0.968831046730066,0.78507475912799,2.94230108485317,0.5,90.1112443675238
CBC_1075,CBC_1075_MSI_TV_v3_Vset2_Tset1_2024-03-13_17h09.54.370.csv,2,22,2,3,b,1,0,2,tac,C,63,1,2C,3C,1,0,z,3.13131960000101,0,1,0,0,3C,2C,C23,2.51230562397611,0.905614783040054,0.329574421067273,0.5,0.5,0.143192570367408,0.670425578932727,0.5,0.217238598043656,0.329574421067273,0.329574421067273,0.515956271767138,0.5,0.5,0.217238598043656,0.217238598043656,0.670425578932727,0.49214716606878,0.50785283393122,0.5,0.515956271767138,0.103753414466341,0.49046669560577,-0.5,-0.170425578932727,0.5,0.340851157865455,0.968831046730066,0.78507475912799,2.94230108485317,0.5,90.1112443675238
CBC_1075,CBC_1075_MSI_TV_v3_Vset2_Tset1_2024-03-13_17h09.54.370.csv,2,23,1,0,z,0,1,1,tac,A,63,1,1A,0A,0,1,b,3.56330589999925,1,0,0,0,1A,0A,A10,2.53897387105828,0.905614783040054,0.329574421067273,0.5,0.5,0.143192570367408,0.670425578932727,0.5,0.217238598043656,0.329574421067273,0.329574421067273,0.515956271767138,0.329574421067273,0.5,0.217238598043656,0.217238598043656,0.670425578932727,0.266821001973909,0.733178998026091,0.329574421067273,0.905614783040054,0.0405909640465642,0.254234965643938,-0.329574421067273,-0.112335823023617,0.5,0.340851157865455,0.968831046730066,0.78507475912799,2.94230108485317,0.5,90.1112443675238
CBC_1075,CBC_1075_MSI_TV_v3_Vset2_Tset1_2024-03-13_17h09.54.370.csv,2,24,1,2,b,1,0,0,tac,B,9,1,1B,2B,1,0,z,2.82642430000124,0,1,0,0,2B,1B,B12,3.66356164612965,0.905614783040054,0.217238598043656,0.5,0.5,0.143192570367408,0.670425578932727,0.5,0.217238598043656,0.329574421067273,0.329574421067273,0.515956271767138,0.329574421067273,0.5,0.217238598043656,0.217238598043656,0.670425578932727,0.427195038283368,0.572804961716632,0.5,0.670425578932727,0.105272108715174,0.417660378746148,-0.5,-0.170425578932727,0.5,0.340851157865455,0.968831046730066,0.78507475912799,2.94230108485317,0.5,90.1112443675238
CBC_1075,CBC_1075_MSI_TV_v3_Vset2_Tset1_2024-03-13_17h09.54.370.csv,2,25,3,2,z,0,1,2,tac,C,63,1,3C,2C,0,1,z,3.70000959999743,0,1,1,1,2C,3C,C32,2.99573227355399,0.905614783040054,0.217238598043656,0.5,0.5,0.143192570367408,0.670425578932727,0.329574421067273,0.217238598043656,0.329574421067273,0.329574421067273,0.515956271767138,0.329574421067273,0.5,0.217238598043656,0.217238598043656,0.670425578932727,0.610215898890122,0.389784101109878,0.515956271767138,0.329574421067273,0.0946120417948128,0.623819073413954,0.484043728232862,0.164986865225683,0.5,0.340851157865455,0.968831046730066,0.78507475912799,2.94230108485317,0.5,90.1112443675238
CBC_1075,CBC_1075_MSI_TV_v3_Vset2_Tset1_2024-03-13_17h09.54.370.csv,2,26,3,2,b,1,0,3,tac,D,63,1,3D,2D,1,0,b,2.92505789999996,1,0,1,1,3D,2D,D32,3.71357206670431,0.905614783040054,0.217238598043656,0.5,0.5,0.143192570367408,0.670425578932727,0.329574421067273,0.217238598043656,0.329574421067273,0.329574421067273,0.68094313699282,0.329574421067273,0.5,0.217238598043656,0.217238598043656,0.670425578932727,0.75526938714185,0.24473061285815,0.670425578932727,0.217238598043656,0.183258596609964,0.764653895819139,0.329574421067273,0.112335823023617,0.5,0.340851157865455,0.968831046730066,0.78507475912799,2.94230108485317,0.5,90.1112443675238
CBC_1075,CBC_1075_MSI_TV_v3_Vset2_Tset1_2024-03-13_17h09.54.370.csv,2,27,1,0,b,1,0,0,tac,B,63,1,1B,0B,1,0,b,2.72791529999813,1,0,1,1,1B,0B,B10,2.63905732961526,0.905614783040054,0.217238598043656,0.5,0.5,0.143192570367408,0.670425578932727,0.329574421067273,0.217238598043656,0.329574421067273,0.329574421067273,0.68094313699282,0.329574421067273,0.5,0.217238598043656,0.217238598043656,0.782761401956344,0.824005191513267,0.175994808486733,0.670425578932727,0.143192570367408,0.223943160924961,0.817265930341164,0.329574421067273,0.112335823023617,0.5,0.340851157865455,0.968831046730066,0.78507475912799,2.94230108485317,0.5,90.1112443675238
CBC_1075,CBC_1075_MSI_TV_v3_Vset2_Tset1_2024-03-13_17h09.54.370.csv,2,28,2,0,z,0,1,1,tac,A,27,1,2A,0A,0,1,z,3.38778410000305,0,1,1,1,0A,2A,A20,3.76120011569356,0.905614783040054,0.217238598043656,0.5,0.5,0.143192570367408,0.782761401956344,0.329574421067273,0.217238598043656,0.329574421067273,0.329574421067273,0.68094313699282,0.329574421067273,0.5,0.217238598043656,0.217238598043656,0.782761401956344,0.644283763921006,0.355716236078994,0.905614783040054,0.5,0.119928310056103,0.661092140125164,0.0943852169599462,0.0321713104861798,0.5,0.340851157865455,0.968831046730066,0.78507475912799,2.94230108485317,0.5,90.1112443675238
CBC_1075,CBC_1075_MSI_TV_v3_Vset2_Tset1_2024-03-13_17h09.54.370.csv,2,29,3,1,b,1,0,3,tac,D,27,1,3D,1D,1,0,b,2.87421360000008,1,0,1,1,3D,1D,D31,3.09104245335832,0.937786093526234,0.217238598043656,0.5,0.5,0.143192570367408,0.782761401956344,0.329574421067273,0.217238598043656,0.329574421067273,0.329574421067273,0.68094313699282,0.329574421067273,0.5,0.217238598043656,0.217238598043656,0.782761401956344,0.782761401956344,0.217238598043656,0.782761401956344,0.217238598043656,0.195035619860941,0.787163668052353,0.217238598043656,0.0740460276762482,0.5,0.340851157865455,0.968831046730066,0.78507475912799,2.94230108485317,0.5,90.1112443675238
CBC_1075,CBC_1075_MSI_TV_v3_Vset2_Tset1_2024-03-13_17h09.54.370.csv,2,30,0,1,b,1,0,1,tac,A,63,1,0A,1A,1,0,b,3.32553440000265,1,0,1,1,0A,1A,A01,3.11351530921037,0.937786093526234,0.217238598043656,0.5,0.5,0.143192570367408,0.782761401956344,0.329574421067273,0.217238598043656,0.329574421067273,0.329574421067273,0.68094313699282,0.329574421067273,0.5,0.217238598043656,0.217238598043656,0.856807429632592,0.811918654528165,0.188081345471835,0.937786093526234,0.217238598043656,0.146687333360547,0.808305786990625,0.0622139064737663,0.0212056820569164,0.5,0.340851157865455,0.968831046730066,0.78507475912799,2.94230108485317,0.5,90.1112443675238
CBC_1075,CBC_1075_MSI_TV_v3_Vset2_Tset1_2024-03-13_17h09.54.370.csv,2,31,0,2,z,0,1,2,tac,C,27,1,0C,2C,0,1,b,2.8296119000006,1,0,0,0,0C,2C,C02,3.8286413964891,0.95899177558315,0.217238598043656,0.5,0.5,0.143192570367408,0.782761401956344,0.329574421067273,0.217238598043656,0.329574421067273,0.329574421067273,0.68094313699282,0.329574421067273,0.5,0.217238598043656,0.217238598043656,0.856807429632592,0.326144180710687,0.673855819289313,0.329574421067273,0.68094313699282,0.0789290613601759,0.311475699924466,-0.329574421067273,-0.112335823023617,0.5,0.340851157865455,0.968831046730066,0.78507475912799,2.94230108485317,0.5,90.1112443675238
CBC_1075,CBC_1075_MSI_TV_v3_Vset2_Tset1_2024-03-13_17h09.54.370.csv,2,32,3,2,b,1,0,3,tac,D,63,1,3D,2D,1,0,b,2.68075080000199,1,0,1,1,3D,2D,D32,3.15700042115011,0.95899177558315,0.217238598043656,0.5,0.5,0.143192570367408,0.782761401956344,0.329574421067273,0.217238598043656,0.217238598043656,0.329574421067273,0.68094313699282,0.329574421067273,0.5,0.217238598043656,0.217238598043656,0.856807429632592,0.797738092739226,0.202261907260774,0.856807429632592,0.217238598043656,0.225374498581734,0.79829767664277,0.143192570367408,0.0488073534074615,0.5,0.340851157865455,0.968831046730066,0.78507475912799,2.94230108485317,0.5,90.1112443675238
CBC_1075,CBC_1075_MSI_TV_v3_Vset2_Tset1_2024-03-13_17h09.54.370.csv,2,33,0,1,z,0,1,0,tac,B,63,1,0B,1B,0,1,z,1.62269250000099,0,1,1,1,1B,0B,B01,2.77258872223978,0.95899177558315,0.217238598043656,0.5,0.5,0.143192570367408,0.782761401956344,0.329574421067273,0.217238598043656,0.217238598043656,0.329574421067273,0.68094313699282,0.329574421067273,0.5,0.217238598043656,0.217238598043656,0.905614783040054,0.845356708165466,0.154643291834534,0.782761401956344,0.143192570367408,0.427125487661219,0.83076635921062,0.217238598043656,0.0740460276762482,0.5,0.340851157865455,0.968831046730066,0.78507475912799,2.94230108485317,0.5,90.1112443675238
CBC_1075,CBC_1075_MSI_TV_v3_Vset2_Tset1_2024-03-13_17h09.54.370.csv,2,34,1,0,z,0,1,1,tac,A,63,1,1A,0A,0,1,z,2.34733839999899,0,1,1,1,0A,1A,A10,2.50552593699074,0.95899177558315,0.217238598043656,0.5,0.5,0.143192570367408,0.856807429632592,0.329574421067273,0.217238598043656,0.217238598043656,0.329574421067273,0.68094313699282,0.329574421067273,0.5,0.217238598043656,0.217238598043656,0.905614783040054,0.815309481106308,0.184690518893692,0.95899177558315,0.217238598043656,0.28801517281867,0.811538562988456,0.0410082244168499,0.0139777007744897,0.5,0.340851157865455,0.968831046730066,0.78507475912799,2.94230108485317,0.5,90.1112443675238
CBC_1075,CBC_1075_MSI_TV_v3_Vset2_Tset1_2024-03-13_17h09.54.370.csv,2,35,3,2,b,1,0,3,tac,D,63,0,3D,2D,0,1,b,3.08402470000146,1,0,1,0,3D,2D,D32,2.81341071676004,0.97296947635764,0.217238598043656,0.5,0.5,0.143192570367408,0.856807429632592,0.329574421067273,0.217238598043656,0.217238598043656,0.329574421067273,0.68094313699282,0.329574421067273,0.5,0.217238598043656,0.217238598043656,0.905614783040054,0.806529862488377,0.193470137511623,0.905614783040054,0.217238598043656,0.172643487628432,0.804696811215776,-0.905614783040054,-0.308679847379275,0.5,0.340851157865455,0.968831046730066,0.78507475912799,2.94230108485317,0.5,90.1112443675238
CBC_1075,CBC_1075_MSI_TV_v3_Vset2_Tset1_2024-03-13_17h09.54.370.csv,2,36,0,2,z,0,1,2,tac,C,27,1,0C,2C,0,1,z,2.11061300000074,0,1,1,1,2C,0C,C02,3.23867845216438,0.97296947635764,0.217238598043656,0.5,0.5,0.143192570367408,0.856807429632592,0.329574421067273,0.217238598043656,0.217238598043656,0.329574421067273,0.68094313699282,0.329574421067273,0.5,0.217238598043656,0.217238598043656,0.596934935660779,0.75813514173183,0.241864858268169,0.68094313699282,0.217238598043656,0.307945268384275,0.767588126760619,0.31905686300718,0.108750901180917,0.5,0.340851157865455,0.968831046730066,0.78507475912799,2.94230108485317,0.5,90.1112443675238
CBC_1075,CBC_1075_MSI_TV_v3_Vset2_Tset1_2024-03-13_17h09.54.370.csv,2,37,1,0,z,0,1,1,tac,A,63,1,1A,0A,0,1,z,1.9885749999994,0,1,1,1,0A,1A,A10,2.34180580614733,0.97296947635764,0.217238598043656,0.5,0.5,0.143192570367408,0.856807429632592,0.329574421067273,0.217238598043656,0.217238598043656,0.329574421067273,0.789694038173737,0.329574421067273,0.5,0.217238598043656,0.217238598043656,0.596934935660779,0.81747847060025,0.18252152939975,0.97296947635764,0.217238598043656,0.361575079604949,0.812597344235372,0.0270305236423602,0.00921338528120804,0.5,0.340851157865455,0.968831046730066,0.78507475912799,2.94230108485317,0.5,90.1112443675238
CBC_1075,CBC_1075_MSI_TV_v3_Vset2_Tset1_2024-03-13_17h09.54.370.csv,2,38,3,1,z,0,1,0,tac,B,27,1,3B,1B,0,1,z,2.56692529999782,0,1,1,1,1B,3B,B31,3.27714473299218,0.982182861638848,0.217238598043656,0.5,0.5,0.143192570367408,0.856807429632592,0.329574421067273,0.217238598043656,0.217238598043656,0.329574421067273,0.789694038173737,0.329574421067273,0.5,0.217238598043656,0.217238598043656,0.596934935660779,0.797738092739226,0.202261907260774,0.856807429632592,0.217238598043656,0.243316459421464,0.798367320191875,0.143192570367408,0.0488073534074615,0.5,0.340851157865455,0.968831046730066,0.78507475912799,2.94230108485317,0.5,90.1112443675238
CBC_1075,CBC_1075_MSI_TV_v3_Vset2_Tset1_2024-03-13_17h09.54.370.csv,2,39,2,3,b,1,0,2,tac,C,63,1,2C,3C,1,0,z,3.60986069999853,0,1,0,0,3C,2C,C23,2.60268968544438,0.982182861638848,0.217238598043656,0.5,0.5,0.143192570367408,0.905614783040054,0.329574421067273,0.217238598043656,0.217238598043656,0.329574421067273,0.789694038173737,0.329574421067273,0.5,0.217238598043656,0.217238598043656,0.596934935660779,0.294455202723001,0.705544797276999,0.329574421067273,0.789694038173737,0.0435286595727815,0.27823822178421,-0.329574421067273,-0.112335823023617,0.5,0.340851157865455,0.968831046730066,0.78507475912799,2.94230108485317,0.5,90.1112443675238
CBC_1075,CBC_1075_MSI_TV_v3_Vset2_Tset1_2024-03-13_17h09.54.370.csv,2,40,2,3,z,0,1,3,tac,D,63,1,2D,3D,0,1,b,3.11465039999894,1,0,0,0,2D,3D,D23,2.62103882411258,0.982182861638848,0.217238598043656,0.5,0.5,0.143192570367408,0.905614783040054,0.329574421067273,0.217238598043656,0.217238598043656,0.329574421067273,0.789694038173737,0.217238598043656,0.5,0.217238598043656,0.217238598043656,0.596934935660779,0.26682100197391,0.733178998026091,0.217238598043656,0.596934935660779,0.0541376979457437,0.254823535759882,-0.217238598043656,-0.0740460276762482,0.5,0.340851157865455,0.968831046730066,0.78507475912799,2.94230108485317,0.5,90.1112443675238
CBC_1075,CBC_1075_MSI_TV_v3_Vset2_Tset1_2024-03-13_17h09.54.370.csv,2,41,1,0,b,1,0,0,tac,B,63,1,1B,0B,1,0,b,1.64333980000083,1,0,1,1,1B,0B,B10,2.63905732961526,0.982182861638848,0.217238598043656,0.5,0.5,0.143192570367408,0.905614783040054,0.329574421067273,0.217238598043656,0.217238598043656,0.329574421067273,0.789694038173737,0.217238598043656,0.5,0.217238598043656,0.143192570367408,0.596934935660779,0.863471046515654,0.136528953484346,0.905614783040054,0.143192570367408,0.441949050214024,0.842896533696342,0.0943852169599462,0.0321713104861798,0.5,0.340851157865455,0.968831046730066,0.78507475912799,2.94230108485317,0.5,90.1112443675238
CBC_1075,CBC_1075_MSI_TV_v3_Vset2_Tset1_2024-03-13_17h09.54.370.csv,2,42,0,2,b,1,0,1,tac,A,27,1,0A,2A,1,0,z,3.5774960000017,0,1,0,0,2A,0A,A02,3.3499040872746,0.982182861638848,0.217238598043656,0.5,0.5,0.143192570367408,0.937786093526234,0.329574421067273,0.217238598043656,0.217238598043656,0.329574421067273,0.789694038173737,0.217238598043656,0.5,0.217238598043656,0.143192570367408,0.596934935660779,0.337340292443505,0.662659707556495,0.5,0.982182861638848,0.0517027873969599,0.320278612398004,-0.5,-0.170425578932727,0.5,0.340851157865455,0.968831046730066,0.78507475912799,2.94230108485317,0.5,90.1112443675238
CBC_1075,CBC_1075_MSI_TV_v3_Vset2_Tset1_2024-03-13_17h09.54.370.csv,2,43,0,3,z,0,1,3,tac,D,9,1,0D,3D,0,1,b,2.79037349999999,1,0,0,0,0D,3D,D03,4.06044301054642,0.982182861638848,0.217238598043656,0.329574421067273,0.5,0.143192570367408,0.937786093526234,0.329574421067273,0.217238598043656,0.217238598043656,0.329574421067273,0.789694038173737,0.217238598043656,0.5,0.217238598043656,0.143192570367408,0.596934935660779,0.455815549077035,0.544184450922965,0.5,0.596934935660779,0.115477837077507,0.449369889867332,-0.5,-0.170425578932727,0.5,0.340851157865455,0.968831046730066,0.78507475912799,2.94230108485317,0.5,90.1112443675238
CBC_1075,CBC_1075_MSI_TV_v3_Vset2_Tset1_2024-03-13_17h09.54.370.csv,2,44,2,3,b,1,0,2,tac,C,63,1,2C,3C,1,0,b,3.59436610000193,1,0,1,1,2C,3C,C23,2.46809953147162,0.982182861638848,0.217238598043656,0.329574421067273,0.5,0.143192570367408,0.937786093526234,0.329574421067273,0.217238598043656,0.217238598043656,0.329574421067273,0.789694038173737,0.217238598043656,0.329574421067273,0.217238598043656,0.143192570367408,0.596934935660779,0.784257069211972,0.215742930788028,0.789694038173737,0.217238598043656,0.120593674762346,0.787839829486514,0.210305961826263,0.0716830305944898,0.5,0.340851157865455,0.968831046730066,0.78507475912799,2.94230108485317,0.5,90.1112443675238
