ID,filename,session,trial,visStimLeft,visStimRight,correctKey,leftCorrect,rightCorrect,secondStim,mod2Type,mod2Stim,frequency,rewardAccurate,stimPairLeft,stimPairRight,pCorrectLeft,pCorrectRight,key,reactionTime,choiceLeft,choiceRight,choiceAccurate,reward,chosenPair,otherPair,triplet,surprise,0A belief,1A belief,2A belief,3A belief,0B belief,1B belief,2B belief,3B belief,0C belief,1C belief,2C belief,3C belief,0D belief,1D belief,2D belief,3D belief,beliefPairNorm,beliefOtherPairNorm,beliefPair,beliefOtherPair,lik,corrLik,rewardPE,update2,fitCBCsimpleRW_CBCdriftDiffusionLR_pwBelief_startBelief,fitCBCsimpleRW_CBCdriftDiffusionLR_pwBelief_alpha1,fitCBCsimpleRW_CBCdriftDiffusionLR_pwBelief_nonDecisionTime,fitCBCsimpleRW_CBCdriftDiffusionLR_pwBelief_weight,fitCBCsimpleRW_CBCdriftDiffusionLR_pwBelief_startingBoundary,fitCBCsimpleRW_CBCdriftDiffusionLR_pwBelief_startingPoint,fit_CBCsimpleRW_CBCdriftDiffusionLR_pwBelief_NLL
CBC_1029,CBC_1029_MSI_AV_v3_Vset2_Aset2_2023-07-21_14h51.03.497.csv,1,1,0,1,b,1,0,0,aud,A,63,1,0A,1A,1,0,z,2.53555319999941,0,1,0,0,1A,0A,A01,2.77258872223978,0.5,0.5,0.5,0.5,0.5,0.5,0.5,0.5,0.5,0.5,0.5,0.5,0.5,0.5,0.5,0.5,0.5,0.5,0.5,0.5,0.160710220404451,0.499618988619351,-0.5,-0.256629317243111,0.5,0.513258634486222,1.09379141533664,0.193033458842521,2.49248207836337,0.5,81.4245977464804
CBC_1029,CBC_1029_MSI_AV_v3_Vset2_Aset2_2023-07-21_14h51.03.497.csv,1,2,3,2,z,0,1,1,aud,C,63,1,3C,2C,0,1,z,3.65741829999934,0,1,1,1,2C,3C,C32,2.83321334405622,0.5,0.243370682756889,0.5,0.5,0.5,0.5,0.5,0.5,0.5,0.5,0.5,0.5,0.5,0.5,0.5,0.5,0.5,0.5,0.5,0.5,0.0661004674355895,0.500819474527621,0.5,0.256629317243111,0.5,0.513258634486222,1.09379141533664,0.193033458842521,2.49248207836337,0.5,81.4245977464804
CBC_1029,CBC_1029_MSI_AV_v3_Vset2_Aset2_2023-07-21_14h51.03.497.csv,1,3,0,2,b,1,0,0,aud,A,27,1,0A,2A,1,0,b,2.44632450000063,1,0,1,1,0A,2A,A02,2.89037175789616,0.5,0.243370682756889,0.5,0.5,0.5,0.5,0.5,0.5,0.5,0.5,0.756629317243111,0.5,0.5,0.5,0.5,0.5,0.5,0.5,0.5,0.5,0.172678373036857,0.500214108373031,0.5,0.256629317243111,0.5,0.513258634486222,1.09379141533664,0.193033458842521,2.49248207836337,0.5,81.4245977464804
CBC_1029,CBC_1029_MSI_AV_v3_Vset2_Aset2_2023-07-21_14h51.03.497.csv,1,4,1,0,b,1,0,3,aud,B,63,1,1B,0B,1,0,b,2.63816149999911,1,0,1,1,1B,0B,B10,2.94443897916644,0.756629317243111,0.243370682756889,0.5,0.5,0.5,0.5,0.5,0.5,0.5,0.5,0.756629317243111,0.5,0.5,0.5,0.5,0.5,0.5,0.5,0.5,0.5,0.14805677251023,0.499293249424013,0.5,0.256629317243111,0.5,0.513258634486222,1.09379141533664,0.193033458842521,2.49248207836337,0.5,81.4245977464804
CBC_1029,CBC_1029_MSI_AV_v3_Vset2_Aset2_2023-07-21_14h51.03.497.csv,1,5,0,1,z,0,1,3,aud,B,63,1,0B,1B,0,1,z,1.47881809999853,0,1,1,1,1B,0B,B01,2.99573227355399,0.756629317243111,0.243370682756889,0.5,0.5,0.5,0.756629317243111,0.5,0.5,0.5,0.5,0.756629317243111,0.5,0.5,0.5,0.5,0.5,0.756629317243111,0.243370682756889,0.756629317243111,0.5,0.312820968083453,0.561592528060967,0.243370682756889,0.12491210430578,0.5,0.513258634486222,1.09379141533664,0.193033458842521,2.49248207836337,0.5,81.4245977464804
CBC_1029,CBC_1029_MSI_AV_v3_Vset2_Aset2_2023-07-21_14h51.03.497.csv,1,6,3,2,z,0,1,1,aud,C,63,1,3C,2C,0,1,b,2.46306419999928,1,0,0,0,3C,2C,C32,2.35137525716348,0.756629317243111,0.243370682756889,0.5,0.5,0.5,0.881541421548891,0.5,0.5,0.5,0.5,0.756629317243111,0.5,0.5,0.5,0.5,0.5,0.243370682756889,0.756629317243111,0.5,0.756629317243111,0.149347621867727,0.438002081779115,-0.5,-0.256629317243111,0.5,0.513258634486222,1.09379141533664,0.193033458842521,2.49248207836337,0.5,81.4245977464804
CBC_1029,CBC_1029_MSI_AV_v3_Vset2_Aset2_2023-07-21_14h51.03.497.csv,1,7,3,1,b,1,0,2,aud,D,27,1,3D,1D,1,0,z,2.91480769999907,0,1,0,0,1D,3D,D31,3.09104245335832,0.756629317243111,0.243370682756889,0.5,0.5,0.5,0.881541421548891,0.5,0.5,0.5,0.5,0.756629317243111,0.243370682756889,0.5,0.5,0.5,0.5,0.5,0.5,0.5,0.5,0.119175086223043,0.500599626210654,-0.5,-0.256629317243111,0.5,0.513258634486222,1.09379141533664,0.193033458842521,2.49248207836337,0.5,81.4245977464804
CBC_1029,CBC_1029_MSI_AV_v3_Vset2_Aset2_2023-07-21_14h51.03.497.csv,1,8,1,2,z,0,1,1,aud,C,9,1,1C,2C,0,1,z,2.15106249999917,0,1,1,1,2C,1C,C12,3.13549421592915,0.756629317243111,0.243370682756889,0.5,0.5,0.5,0.881541421548891,0.5,0.5,0.5,0.5,0.756629317243111,0.243370682756889,0.5,0.243370682756889,0.5,0.5,0.756629317243111,0.243370682756889,0.756629317243111,0.5,0.245013072955702,0.561727363230314,0.243370682756889,0.12491210430578,0.5,0.513258634486222,1.09379141533664,0.193033458842521,2.49248207836337,0.5,81.4245977464804
CBC_1029,CBC_1029_MSI_AV_v3_Vset2_Aset2_2023-07-21_14h51.03.497.csv,1,9,3,1,z,0,1,3,aud,B,27,1,3B,1B,0,1,z,3.11267210000005,0,1,1,1,1B,3B,B31,3.17805383034795,0.756629317243111,0.243370682756889,0.5,0.5,0.5,0.881541421548891,0.5,0.5,0.5,0.5,0.881541421548891,0.243370682756889,0.5,0.243370682756889,0.5,0.5,0.881541421548891,0.118458578451109,0.881541421548891,0.5,0.119699213683795,0.591447643843715,0.118458578451109,0.0607998882189951,0.5,0.513258634486222,1.09379141533664,0.193033458842521,2.49248207836337,0.5,81.4245977464804
CBC_1029,CBC_1029_MSI_AV_v3_Vset2_Aset2_2023-07-21_14h51.03.497.csv,1,10,3,2,b,1,0,2,aud,D,63,1,3D,2D,1,0,b,1.73663420000048,1,0,1,1,3D,2D,D32,3.2188758248682,0.756629317243111,0.243370682756889,0.5,0.5,0.5,0.942341309767886,0.5,0.5,0.5,0.5,0.881541421548891,0.243370682756889,0.5,0.243370682756889,0.5,0.5,0.5,0.5,0.5,0.5,0.287815167536799,0.49939241373117,0.5,0.256629317243111,0.5,0.513258634486222,1.09379141533664,0.193033458842521,2.49248207836337,0.5,81.4245977464804
CBC_1029,CBC_1029_MSI_AV_v3_Vset2_Aset2_2023-07-21_14h51.03.497.csv,1,11,1,0,b,1,0,3,aud,B,63,1,1B,0B,1,0,z,1.93121780000001,0,1,0,0,0B,1B,B10,2.56494935746154,0.756629317243111,0.243370682756889,0.5,0.5,0.5,0.942341309767886,0.5,0.5,0.5,0.5,0.881541421548891,0.243370682756889,0.5,0.243370682756889,0.5,0.756629317243111,0.0576586902321138,0.942341309767886,0.5,0.942341309767886,0.204509015915262,0.395030007722174,-0.5,-0.256629317243111,0.5,0.513258634486222,1.09379141533664,0.193033458842521,2.49248207836337,0.5,81.4245977464804
CBC_1029,CBC_1029_MSI_AV_v3_Vset2_Aset2_2023-07-21_14h51.03.497.csv,1,12,0,2,z,0,1,1,aud,C,27,1,0C,2C,0,1,z,2.61304679999921,0,1,1,1,2C,0C,C02,3.29583686600433,0.756629317243111,0.243370682756889,0.5,0.5,0.243370682756889,0.942341309767886,0.5,0.5,0.5,0.5,0.881541421548891,0.243370682756889,0.5,0.243370682756889,0.5,0.756629317243111,0.881541421548891,0.118458578451109,0.881541421548891,0.5,0.178956314632048,0.591429272880423,0.118458578451109,0.0607998882189951,0.5,0.513258634486222,1.09379141533664,0.193033458842521,2.49248207836337,0.5,81.4245977464804
CBC_1029,CBC_1029_MSI_AV_v3_Vset2_Aset2_2023-07-21_14h51.03.497.csv,1,13,3,2,b,1,0,2,aud,D,63,0,3D,2D,0,1,b,2.77919079999992,1,0,1,0,3D,2D,D32,2.63905732961526,0.756629317243111,0.243370682756889,0.5,0.5,0.243370682756889,0.942341309767886,0.5,0.5,0.5,0.5,0.942341309767886,0.243370682756889,0.5,0.243370682756889,0.5,0.756629317243111,0.756629317243111,0.243370682756889,0.756629317243111,0.5,0.148739310880287,0.561374537675101,-0.756629317243111,-0.388346530180441,0.5,0.513258634486222,1.09379141533664,0.193033458842521,2.49248207836337,0.5,81.4245977464804
CBC_1029,CBC_1029_MSI_AV_v3_Vset2_Aset2_2023-07-21_14h51.03.497.csv,1,14,1,0,z,0,1,0,aud,A,63,1,1A,0A,0,1,z,3.11643209999966,0,1,1,1,0A,1A,A10,3.36729582998647,0.756629317243111,0.243370682756889,0.5,0.5,0.243370682756889,0.942341309767886,0.5,0.5,0.5,0.5,0.942341309767886,0.243370682756889,0.5,0.243370682756889,0.5,0.36828278706267,0.906240817865081,0.0937591821349188,0.756629317243111,0.243370682756889,0.120321711326306,0.596716357918543,0.243370682756889,0.12491210430578,0.5,0.513258634486222,1.09379141533664,0.193033458842521,2.49248207836337,0.5,81.4245977464804
CBC_1029,CBC_1029_MSI_AV_v3_Vset2_Aset2_2023-07-21_14h51.03.497.csv,1,15,2,3,b,1,0,1,aud,C,63,1,2C,3C,1,0,z,3.12212129999898,0,1,0,0,3C,2C,C23,3.40119738166216,0.881541421548891,0.243370682756889,0.5,0.5,0.243370682756889,0.942341309767886,0.5,0.5,0.5,0.5,0.942341309767886,0.243370682756889,0.5,0.243370682756889,0.5,0.36828278706267,0.0193008936616356,0.980699106338364,0.243370682756889,0.942341309767886,0.0773514740134217,0.386316560145743,-0.243370682756889,-0.12491210430578,0.5,0.513258634486222,1.09379141533664,0.193033458842521,2.49248207836337,0.5,81.4245977464804
CBC_1029,CBC_1029_MSI_AV_v3_Vset2_Aset2_2023-07-21_14h51.03.497.csv,1,16,0,2,b,1,0,0,aud,A,27,1,0A,2A,1,0,b,3.35502400000041,1,0,1,1,0A,2A,A02,2.7408400239252,0.881541421548891,0.243370682756889,0.5,0.5,0.243370682756889,0.942341309767886,0.5,0.5,0.5,0.5,0.942341309767886,0.118458578451109,0.5,0.243370682756889,0.5,0.36828278706267,0.881541421548891,0.118458578451109,0.881541421548891,0.5,0.0984710998180644,0.591417091111745,0.118458578451109,0.0607998882189951,0.5,0.513258634486222,1.09379141533664,0.193033458842521,2.49248207836337,0.5,81.4245977464804
CBC_1029,CBC_1029_MSI_AV_v3_Vset2_Aset2_2023-07-21_14h51.03.497.csv,1,17,2,3,z,0,1,2,aud,D,63,1,2D,3D,0,1,z,1.76026009999805,0,1,1,1,3D,2D,D23,3.46573590279973,0.942341309767886,0.243370682756889,0.5,0.5,0.243370682756889,0.942341309767886,0.5,0.5,0.5,0.5,0.942341309767886,0.118458578451109,0.5,0.243370682756889,0.5,0.36828278706267,0.36828278706267,0.63171721293733,0.36828278706267,0.5,0.266599140763204,0.467309813238622,0.63171721293733,0.324234314093656,0.5,0.513258634486222,1.09379141533664,0.193033458842521,2.49248207836337,0.5,81.4245977464804
CBC_1029,CBC_1029_MSI_AV_v3_Vset2_Aset2_2023-07-21_14h51.03.497.csv,1,18,3,2,b,1,0,2,aud,D,63,1,3D,2D,1,0,z,1.54740149999998,0,1,0,0,2D,3D,D32,2.39789527279837,0.942341309767886,0.243370682756889,0.5,0.5,0.243370682756889,0.942341309767886,0.5,0.5,0.5,0.5,0.942341309767886,0.118458578451109,0.5,0.243370682756889,0.5,0.692517101156325,0.307482898843675,0.692517101156325,0.5,0.692517101156325,0.267096523911327,0.453200925766813,-0.5,-0.256629317243111,0.5,0.513258634486222,1.09379141533664,0.193033458842521,2.49248207836337,0.5,81.4245977464804
CBC_1029,CBC_1029_MSI_AV_v3_Vset2_Aset2_2023-07-21_14h51.03.497.csv,1,19,3,1,z,0,1,3,aud,B,27,1,3B,1B,0,1,z,2.85014949999822,0,1,1,1,1B,3B,B31,2.83321334405622,0.942341309767886,0.243370682756889,0.5,0.5,0.243370682756889,0.942341309767886,0.5,0.5,0.5,0.5,0.942341309767886,0.118458578451109,0.5,0.243370682756889,0.243370682756889,0.692517101156325,0.942341309767886,0.0576586902321138,0.942341309767886,0.5,0.151133902468996,0.604967071436172,0.0576586902321138,0.0295938206147988,0.5,0.513258634486222,1.09379141533664,0.193033458842521,2.49248207836337,0.5,81.4245977464804
CBC_1029,CBC_1029_MSI_AV_v3_Vset2_Aset2_2023-07-21_14h51.03.497.csv,1,20,0,3,z,0,1,2,aud,D,9,1,0D,3D,0,1,b,2.49632679999922,1,0,0,0,0D,3D,D03,3.55534806148941,0.942341309767886,0.243370682756889,0.5,0.5,0.243370682756889,0.971935130382685,0.5,0.5,0.5,0.5,0.942341309767886,0.118458578451109,0.5,0.243370682756889,0.243370682756889,0.692517101156325,0.307482898843675,0.692517101156325,0.5,0.692517101156325,0.150445887526247,0.45321016698017,-0.5,-0.256629317243111,0.5,0.513258634486222,1.09379141533664,0.193033458842521,2.49248207836337,0.5,81.4245977464804
CBC_1029,CBC_1029_MSI_AV_v3_Vset2_Aset2_2023-07-21_14h51.03.497.csv,1,21,1,0,b,1,0,3,aud,B,63,1,1B,0B,1,0,z,1.91469479999978,0,1,0,0,0B,1B,B10,2.484906649788,0.942341309767886,0.243370682756889,0.5,0.5,0.243370682756889,0.971935130382685,0.5,0.5,0.5,0.5,0.942341309767886,0.118458578451109,0.243370682756889,0.243370682756889,0.243370682756889,0.692517101156325,0.00920228838877324,0.990797711611227,0.243370682756889,0.971935130382685,0.202127523353305,0.385059366765669,-0.243370682756889,-0.12491210430578,0.5,0.513258634486222,1.09379141533664,0.193033458842521,2.49248207836337,0.5,81.4245977464804
CBC_1029,CBC_1029_MSI_AV_v3_Vset2_Aset2_2023-07-21_14h51.03.497.csv,1,22,1,0,z,0,1,0,aud,A,63,1,1A,0A,0,1,z,2.38374779999867,0,1,1,1,0A,1A,A10,2.91777073208428,0.942341309767886,0.243370682756889,0.5,0.5,0.118458578451109,0.971935130382685,0.5,0.5,0.5,0.5,0.942341309767886,0.118458578451109,0.243370682756889,0.243370682756889,0.243370682756889,0.692517101156325,0.980699106338364,0.0193008936616356,0.942341309767886,0.243370682756889,0.22378717262567,0.614320360688836,0.0576586902321138,0.0295938206147988,0.5,0.513258634486222,1.09379141533664,0.193033458842521,2.49248207836337,0.5,81.4245977464804
CBC_1029,CBC_1029_MSI_AV_v3_Vset2_Aset2_2023-07-21_14h51.03.497.csv,1,23,2,3,b,1,0,1,aud,C,63,1,2C,3C,1,0,z,1.66331419999915,0,1,0,0,3C,2C,C23,2.94443897916644,0.971935130382685,0.243370682756889,0.5,0.5,0.118458578451109,0.971935130382685,0.5,0.5,0.5,0.5,0.942341309767886,0.118458578451109,0.243370682756889,0.243370682756889,0.243370682756889,0.692517101156325,0.00815500333244701,0.991844996667553,0.118458578451109,0.942341309767886,0.231156885425482,0.383927316420236,-0.118458578451109,-0.0607998882189951,0.5,0.513258634486222,1.09379141533664,0.193033458842521,2.49248207836337,0.5,81.4245977464804
CBC_1029,CBC_1029_MSI_AV_v3_Vset2_Aset2_2023-07-21_14h51.03.497.csv,1,24,0,2,b,1,0,0,aud,A,27,1,0A,2A,1,0,b,3.37110229999962,1,0,1,1,0A,2A,A02,2.56494935746154,0.971935130382685,0.243370682756889,0.5,0.5,0.118458578451109,0.971935130382685,0.5,0.5,0.5,0.5,0.942341309767886,0.0576586902321138,0.243370682756889,0.243370682756889,0.243370682756889,0.692517101156325,0.971935130382685,0.028064869617315,0.971935130382685,0.5,0.100134427174625,0.611819257198515,0.028064869617315,0.014404536656817,0.5,0.513258634486222,1.09379141533664,0.193033458842521,2.49248207836337,0.5,81.4245977464804
CBC_1029,CBC_1029_MSI_AV_v3_Vset2_Aset2_2023-07-21_14h51.03.497.csv,1,25,1,0,b,1,0,3,aud,B,63,1,1B,0B,1,0,b,3.08375579999847,1,0,1,1,1B,0B,B10,2.30258509299405,0.986339667039502,0.243370682756889,0.5,0.5,0.118458578451109,0.971935130382685,0.5,0.5,0.5,0.5,0.942341309767886,0.0576586902321138,0.243370682756889,0.243370682756889,0.243370682756889,0.692517101156325,0.996134838266383,0.00386516173361651,0.971935130382685,0.118458578451109,0.127153478974708,0.615764636784879,0.028064869617315,0.014404536656817,0.5,0.513258634486222,1.09379141533664,0.193033458842521,2.49248207836337,0.5,81.4245977464804
CBC_1029,CBC_1029_MSI_AV_v3_Vset2_Aset2_2023-07-21_14h51.03.497.csv,1,26,2,3,z,0,1,2,aud,D,63,1,2D,3D,0,1,b,2.9254959000009,1,0,0,0,2D,3D,D23,3.02042488614436,0.986339667039502,0.243370682756889,0.5,0.5,0.118458578451109,0.986339667039502,0.5,0.5,0.5,0.5,0.942341309767886,0.0576586902321138,0.243370682756889,0.243370682756889,0.243370682756889,0.692517101156325,0.124968170212073,0.875031829787927,0.243370682756889,0.692517101156325,0.0968626419734448,0.411556159998227,-0.243370682756889,-0.12491210430578,0.5,0.513258634486222,1.09379141533664,0.193033458842521,2.49248207836337,0.5,81.4245977464804
CBC_1029,CBC_1029_MSI_AV_v3_Vset2_Aset2_2023-07-21_14h51.03.497.csv,1,27,1,2,b,1,0,3,aud,B,9,1,1B,2B,1,0,z,2.30609030000051,0,1,0,0,2B,1B,B12,3.73766961828337,0.986339667039502,0.243370682756889,0.5,0.5,0.118458578451109,0.986339667039502,0.5,0.5,0.5,0.5,0.942341309767886,0.0576586902321138,0.243370682756889,0.243370682756889,0.118458578451109,0.692517101156325,0.0136603329604981,0.986339667039502,0.5,0.986339667039502,0.149341787760289,0.385093977594978,-0.5,-0.256629317243111,0.5,0.513258634486222,1.09379141533664,0.193033458842521,2.49248207836337,0.5,81.4245977464804
CBC_1029,CBC_1029_MSI_AV_v3_Vset2_Aset2_2023-07-21_14h51.03.497.csv,1,28,1,3,z,0,1,2,aud,D,27,1,1D,3D,0,1,b,1.56901309999921,1,0,0,0,1D,3D,D13,3.76120011569356,0.986339667039502,0.243370682756889,0.5,0.5,0.118458578451109,0.986339667039502,0.243370682756889,0.5,0.5,0.5,0.942341309767886,0.0576586902321138,0.243370682756889,0.243370682756889,0.118458578451109,0.692517101156325,0.124968170212073,0.875031829787927,0.243370682756889,0.692517101156325,0.245924636322447,0.410581533419471,-0.243370682756889,-0.12491210430578,0.5,0.513258634486222,1.09379141533664,0.193033458842521,2.49248207836337,0.5,81.4245977464804
CBC_1029,CBC_1029_MSI_AV_v3_Vset2_Aset2_2023-07-21_14h51.03.497.csv,1,29,1,0,z,0,1,0,aud,A,63,1,1A,0A,0,1,z,2.70835799999986,0,1,1,1,0A,1A,A10,2.68557734525015,0.986339667039502,0.243370682756889,0.5,0.5,0.118458578451109,0.986339667039502,0.243370682756889,0.5,0.5,0.5,0.942341309767886,0.0576586902321138,0.243370682756889,0.118458578451109,0.118458578451109,0.692517101156325,0.995565041913148,0.00443495808685227,0.986339667039502,0.243370682756889,0.172928048771741,0.617436823189743,0.0136603329604981,0.00701128384193236,0.5,0.513258634486222,1.09379141533664,0.193033458842521,2.49248207836337,0.5,81.4245977464804
CBC_1029,CBC_1029_MSI_AV_v3_Vset2_Aset2_2023-07-21_14h51.03.497.csv,1,30,0,1,b,1,0,0,aud,A,63,1,0A,1A,1,0,b,1.60033680000015,1,0,1,1,0A,1A,A01,3.11351530921037,0.993350950881434,0.243370682756889,0.5,0.5,0.118458578451109,0.986339667039502,0.243370682756889,0.5,0.5,0.5,0.942341309767886,0.0576586902321138,0.243370682756889,0.118458578451109,0.118458578451109,0.692517101156325,0.997851635840636,0.00214836415936359,0.993350950881434,0.243370682756889,0.374869552622731,0.617682612406893,0.00664904911856568,0.00341268187122683,0.5,0.513258634486222,1.09379141533664,0.193033458842521,2.49248207836337,0.5,81.4245977464804
CBC_1029,CBC_1029_MSI_AV_v3_Vset2_Aset2_2023-07-21_14h51.03.497.csv,1,31,0,2,z,0,1,1,aud,C,27,1,0C,2C,0,1,z,3.12533649999932,0,1,1,1,2C,0C,C02,3.13549421592915,0.996763632752661,0.243370682756889,0.5,0.5,0.118458578451109,0.986339667039502,0.243370682756889,0.5,0.5,0.5,0.942341309767886,0.0576586902321138,0.243370682756889,0.118458578451109,0.118458578451109,0.692517101156325,0.942341309767886,0.0576586902321138,0.942341309767886,0.5,0.121017372283052,0.605197438251419,0.0576586902321138,0.0295938206147988,0.5,0.513258634486222,1.09379141533664,0.193033458842521,2.49248207836337,0.5,81.4245977464804
CBC_1029,CBC_1029_MSI_AV_v3_Vset2_Aset2_2023-07-21_14h51.03.497.csv,1,32,1,0,z,0,1,0,aud,A,63,1,1A,0A,0,1,b,2.80590060000031,1,0,0,0,1A,0A,A10,2.46385324059017,0.996763632752661,0.243370682756889,0.5,0.5,0.118458578451109,0.986339667039502,0.243370682756889,0.5,0.5,0.5,0.971935130382685,0.0576586902321138,0.243370682756889,0.118458578451109,0.118458578451109,0.692517101156325,0.00104327159978076,0.998956728400219,0.243370682756889,0.996763632752661,0.0987527964705304,0.381689305722208,-0.243370682756889,-0.12491210430578,0.5,0.513258634486222,1.09379141533664,0.193033458842521,2.49248207836337,0.5,81.4245977464804
CBC_1029,CBC_1029_MSI_AV_v3_Vset2_Aset2_2023-07-21_14h51.03.497.csv,1,33,1,0,b,1,0,3,aud,B,63,1,1B,0B,1,0,z,3.53142479999769,0,1,0,0,0B,1B,B10,2.26176309847379,0.996763632752661,0.118458578451109,0.5,0.5,0.118458578451109,0.986339667039502,0.243370682756889,0.5,0.5,0.5,0.971935130382685,0.0576586902321138,0.243370682756889,0.118458578451109,0.118458578451109,0.692517101156325,0.00185759522189455,0.998142404778105,0.118458578451109,0.986339667039502,0.0548858020179776,0.382539170286492,-0.118458578451109,-0.0607998882189951,0.5,0.513258634486222,1.09379141533664,0.193033458842521,2.49248207836337,0.5,81.4245977464804
CBC_1029,CBC_1029_MSI_AV_v3_Vset2_Aset2_2023-07-21_14h51.03.497.csv,1,34,3,2,b,1,0,2,aud,D,63,1,3D,2D,1,0,b,2.17426460000024,1,0,1,1,3D,2D,D32,2.50552593699074,0.996763632752661,0.118458578451109,0.5,0.5,0.0576586902321138,0.986339667039502,0.243370682756889,0.5,0.5,0.5,0.971935130382685,0.0576586902321138,0.243370682756889,0.118458578451109,0.118458578451109,0.692517101156325,0.943695128631639,0.0563048713683614,0.692517101156325,0.118458578451109,0.260656140758739,0.605732135764197,0.307482898843675,0.157818252788369,0.5,0.513258634486222,1.09379141533664,0.193033458842521,2.49248207836337,0.5,81.4245977464804
CBC_1029,CBC_1029_MSI_AV_v3_Vset2_Aset2_2023-07-21_14h51.03.497.csv,1,35,3,1,z,0,1,3,aud,B,27,1,3B,1B,0,1,z,1.66122990000076,0,1,1,1,1B,3B,B31,2.81341071676004,0.996763632752661,0.118458578451109,0.5,0.5,0.0576586902321138,0.986339667039502,0.243370682756889,0.5,0.5,0.5,0.971935130382685,0.0576586902321138,0.243370682756889,0.118458578451109,0.118458578451109,0.850335353944695,0.986339667039502,0.0136603329604981,0.986339667039502,0.5,0.370202165027812,0.614783306299162,0.0136603329604981,0.00701128384193236,0.5,0.513258634486222,1.09379141533664,0.193033458842521,2.49248207836337,0.5,81.4245977464804
CBC_1029,CBC_1029_MSI_AV_v3_Vset2_Aset2_2023-07-21_14h51.03.497.csv,1,36,3,2,z,0,1,1,aud,C,63,1,3C,2C,0,1,z,3.17819379999855,0,1,1,1,2C,3C,C32,2.83321334405622,0.996763632752661,0.118458578451109,0.5,0.5,0.0576586902321138,0.993350950881434,0.243370682756889,0.5,0.5,0.5,0.971935130382685,0.0576586902321138,0.243370682756889,0.118458578451109,0.118458578451109,0.850335353944695,0.998236336745796,0.0017636632542042,0.971935130382685,0.0576586902321138,0.117981366919567,0.617036674612198,0.028064869617315,0.014404536656817,0.5,0.513258634486222,1.09379141533664,0.193033458842521,2.49248207836337,0.5,81.4245977464804
CBC_1029,CBC_1029_MSI_AV_v3_Vset2_Aset2_2023-07-21_14h51.03.497.csv,1,37,2,0,b,1,0,1,aud,C,27,1,2C,0C,1,0,b,3.27878699999928,1,0,1,1,2C,0C,C20,3.95124371858143,0.996763632752661,0.118458578451109,0.5,0.5,0.0576586902321138,0.993350950881434,0.243370682756889,0.5,0.5,0.5,0.986339667039502,0.0576586902321138,0.243370682756889,0.118458578451109,0.118458578451109,0.850335353944695,0.986339667039502,0.0136603329604981,0.986339667039502,0.5,0.108430621600472,0.615142762890075,0.0136603329604981,0.00701128384193236,0.5,0.513258634486222,1.09379141533664,0.193033458842521,2.49248207836337,0.5,81.4245977464804
CBC_1029,CBC_1029_MSI_AV_v3_Vset2_Aset2_2023-07-21_14h51.03.497.csv,1,38,1,0,b,1,0,3,aud,B,63,1,1B,0B,1,0,z,3.41732169999887,0,1,0,0,0B,1B,B10,2.17853244432407,0.996763632752661,0.118458578451109,0.5,0.5,0.0576586902321138,0.993350950881434,0.243370682756889,0.5,0.5,0.5,0.993350950881434,0.0576586902321138,0.243370682756889,0.118458578451109,0.118458578451109,0.850335353944695,0.000409388407529021,0.999590611592471,0.0576586902321138,0.993350950881434,0.0600774154032531,0.381718793094842,-0.0576586902321138,-0.0295938206147987,0.5,0.513258634486222,1.09379141533664,0.193033458842521,2.49248207836337,0.5,81.4245977464804
CBC_1029,CBC_1029_MSI_AV_v3_Vset2_Aset2_2023-07-21_14h51.03.497.csv,1,39,3,0,z,0,1,0,aud,A,9,1,3A,0A,0,1,z,2.13409820000015,0,1,1,1,0A,3A,A30,3.98898404656427,0.996763632752661,0.118458578451109,0.5,0.5,0.028064869617315,0.993350950881434,0.243370682756889,0.5,0.5,0.5,0.993350950881434,0.0576586902321138,0.243370682756889,0.118458578451109,0.118458578451109,0.850335353944695,0.996763632752661,0.00323636724733889,0.996763632752661,0.5,0.274337249409553,0.616691969761728,0.00323636724733889,0.00166109343406509,0.5,0.513258634486222,1.09379141533664,0.193033458842521,2.49248207836337,0.5,81.4245977464804
CBC_1029,CBC_1029_MSI_AV_v3_Vset2_Aset2_2023-07-21_14h51.03.497.csv,1,40,3,2,z,0,1,1,aud,C,63,0,3C,2C,1,0,z,1.28888779999943,0,1,1,0,2C,3C,C32,2.62103882411258,0.998424726186726,0.118458578451109,0.5,0.5,0.028064869617315,0.993350950881434,0.243370682756889,0.5,0.5,0.5,0.993350950881434,0.0576586902321138,0.243370682756889,0.118458578451109,0.118458578451109,0.850335353944695,0.999590611592471,0.000409388407529111,0.993350950881434,0.0576586902321138,0.136562180349035,0.617962118975103,-0.993350950881434,-0.509845952614995,0.5,0.513258634486222,1.09379141533664,0.193033458842521,2.49248207836337,0.5,81.4245977464804
CBC_1029,CBC_1029_MSI_AV_v3_Vset2_Aset2_2023-07-21_14h51.03.497.csv,1,41,1,0,z,0,1,0,aud,A,63,1,1A,0A,0,1,z,2.89447569999902,0,1,1,1,0A,1A,A10,2.41591377830105,0.998424726186726,0.118458578451109,0.5,0.5,0.028064869617315,0.993350950881434,0.243370682756889,0.5,0.5,0.5,0.48350499826644,0.0576586902321138,0.243370682756889,0.118458578451109,0.118458578451109,0.850335353944695,0.9997880309507,0.00021196904929967,0.998424726186726,0.118458578451109,0.148625872150934,0.617277698086927,0.00157527381327383,0.000808522886342827,0.5,0.513258634486222,1.09379141533664,0.193033458842521,2.49248207836337,0.5,81.4245977464804
CBC_1029,CBC_1029_MSI_AV_v3_Vset2_Aset2_2023-07-21_14h51.03.497.csv,1,42,3,2,b,1,0,2,aud,D,63,1,3D,2D,1,0,z,2.655018200001,0,1,0,0,2D,3D,D32,2.43361335540045,0.999233249073069,0.118458578451109,0.5,0.5,0.028064869617315,0.993350950881434,0.243370682756889,0.5,0.5,0.5,0.48350499826644,0.0576586902321138,0.243370682756889,0.118458578451109,0.118458578451109,0.850335353944695,0.0231047242397342,0.976895275760266,0.118458578451109,0.850335353944695,0.113148705583925,0.386852519375174,-0.118458578451109,-0.0607998882189951,0.5,0.513258634486222,1.09379141533664,0.193033458842521,2.49248207836337,0.5,81.4245977464804
CBC_1029,CBC_1029_MSI_AV_v3_Vset2_Aset2_2023-07-21_14h51.03.497.csv,1,43,2,3,b,1,0,1,aud,C,63,1,2C,3C,1,0,z,2.09896939999817,0,1,0,0,3C,2C,C23,2.96183072187831,0.999233249073069,0.118458578451109,0.5,0.5,0.028064869617315,0.993350950881434,0.243370682756889,0.5,0.5,0.5,0.48350499826644,0.0576586902321138,0.243370682756889,0.118458578451109,0.0576586902321138,0.850335353944695,0.0613514341110643,0.938648565888936,0.0576586902321138,0.48350499826644,0.180843116925428,0.396299728659469,-0.0576586902321138,-0.0295938206147987,0.5,0.513258634486222,1.09379141533664,0.193033458842521,2.49248207836337,0.5,81.4245977464804
CBC_1029,CBC_1029_MSI_AV_v3_Vset2_Aset2_2023-07-21_14h51.03.497.csv,1,44,1,3,z,0,1,2,aud,D,27,1,1D,3D,0,1,z,2.28387180000027,0,1,1,1,3D,1D,D13,3.38439026334577,0.999233249073069,0.118458578451109,0.5,0.5,0.028064869617315,0.993350950881434,0.243370682756889,0.5,0.5,0.5,0.48350499826644,0.028064869617315,0.243370682756889,0.118458578451109,0.0576586902321138,0.850335353944695,0.976895275760266,0.0231047242397341,0.850335353944695,0.118458578451109,0.241849703842368,0.612751170413089,0.149664646055305,0.0768166718652096,0.5,0.513258634486222,1.09379141533664,0.193033458842521,2.49248207836337,0.5,81.4245977464804
CBC_1029,CBC_1029_MSI_TV_v3_Vset5_Tset2_2023-07-21_14h59.39.665.csv,2,1,0,1,z,0,1,3,tac,B,63,1,0B,1B,0,1,z,2.3680848999993,0,1,1,1,1B,0B,B01,2.77258872223978,0.5,0.5,0.5,0.5,0.5,0.5,0.5,0.5,0.5,0.5,0.5,0.5,0.5,0.5,0.5,0.5,0.5,0.5,0.5,0.5,0.173127884969402,0.500745313794036,0.5,0.5,0.5,1,1.03966333582063,0.000196062491176874,2.32720253920586,0.5,74.8313214703249
CBC_1029,CBC_1029_MSI_TV_v3_Vset5_Tset2_2023-07-21_14h59.39.665.csv,2,2,1,0,z,0,1,0,tac,A,63,1,1A,0A,0,1,z,1.6776933000001,0,1,1,1,0A,1A,A10,2.83321334405622,0.5,0.5,0.5,0.5,0.5,1,0.5,0.5,0.5,0.5,0.5,0.5,0.5,0.5,0.5,0.5,0.5,0.5,0.5,0.5,0.314726423995383,0.499491863658644,0.5,0.5,0.5,1,1.03966333582063,0.000196062491176874,2.32720253920586,0.5,74.8313214703249
CBC_1029,CBC_1029_MSI_TV_v3_Vset5_Tset2_2023-07-21_14h59.39.665.csv,2,3,2,1,b,1,0,1,tac,C,9,1,2C,1C,1,0,b,2.97678300000007,1,0,1,1,2C,1C,C21,2.89037175789616,1,0.5,0.5,0.5,0.5,1,0.5,0.5,0.5,0.5,0.5,0.5,0.5,0.5,0.5,0.5,0.5,0.5,0.5,0.5,0.0991722212529787,0.499381635733077,0.5,0.5,0.5,1,1.03966333582063,0.000196062491176874,2.32720253920586,0.5,74.8313214703249
CBC_1029,CBC_1029_MSI_TV_v3_Vset5_Tset2_2023-07-21_14h59.39.665.csv,2,4,0,1,b,1,0,0,tac,A,63,1,0A,1A,1,0,z,2.43210160000126,0,1,0,0,1A,0A,A01,2.94443897916644,1,0.5,0.5,0.5,0.5,1,0.5,0.5,0.5,0.5,1,0.5,0.5,0.5,0.5,0.5,0,1,0.5,1,0.163169969824252,0.500256097603114,-0.5,-0.5,0.5,1,1.03966333582063,0.000196062491176874,2.32720253920586,0.5,74.8313214703249
CBC_1029,CBC_1029_MSI_TV_v3_Vset5_Tset2_2023-07-21_14h59.39.665.csv,2,5,1,3,z,0,1,2,tac,D,27,1,1D,3D,0,1,z,3.96560479999971,0,1,1,1,3D,1D,D13,2.99573227355399,1,0,0.5,0.5,0.5,1,0.5,0.5,0.5,0.5,1,0.5,0.5,0.5,0.5,0.5,0.5,0.5,0.5,0.5,0.0403247264520504,0.499927867743678,0.5,0.5,0.5,1,1.03966333582063,0.000196062491176874,2.32720253920586,0.5,74.8313214703249
CBC_1029,CBC_1029_MSI_TV_v3_Vset5_Tset2_2023-07-21_14h59.39.665.csv,2,6,1,0,b,1,0,3,tac,B,63,1,1B,0B,1,0,z,2.63812340000186,0,1,0,0,0B,1B,B10,3.04452243772342,1,0,0.5,0.5,0.5,1,0.5,0.5,0.5,0.5,1,0.5,0.5,0.5,0.5,1,0,1,0.5,1,0.135197551477606,0.500043657965797,-0.5,-0.5,0.5,1,1.03966333582063,0.000196062491176874,2.32720253920586,0.5,74.8313214703249
CBC_1029,CBC_1029_MSI_TV_v3_Vset5_Tset2_2023-07-21_14h59.39.665.csv,2,7,3,2,z,0,1,1,tac,C,63,1,3C,2C,0,1,b,3.02134149999983,1,0,0,0,3C,2C,C32,3.09104245335832,1,0,0.5,0.5,0,1,0.5,0.5,0.5,0.5,1,0.5,0.5,0.5,0.5,1,0,1,0.5,1,0.0953446203627019,0.500001039732889,-0.5,-0.5,0.5,1,1.03966333582063,0.000196062491176874,2.32720253920586,0.5,74.8313214703249
CBC_1029,CBC_1029_MSI_TV_v3_Vset5_Tset2_2023-07-21_14h59.39.665.csv,2,8,0,2,b,1,0,0,tac,A,27,1,0A,2A,1,0,z,2.58301200000096,0,1,0,0,2A,0A,A02,3.13549421592915,1,0,0.5,0.5,0,1,0.5,0.5,0.5,0.5,1,0,0.5,0.5,0.5,1,0,1,0.5,1,0.142052560624149,0.499672232295509,-0.5,-0.5,0.5,1,1.03966333582063,0.000196062491176874,2.32720253920586,0.5,74.8313214703249
CBC_1029,CBC_1029_MSI_TV_v3_Vset5_Tset2_2023-07-21_14h59.39.665.csv,2,9,2,3,z,0,1,2,tac,D,63,1,2D,3D,0,1,z,2.00281109999924,0,1,1,1,3D,2D,D23,3.17805383034795,1,0,0,0.5,0,1,0.5,0.5,0.5,0.5,1,0,0.5,0.5,0.5,1,1,0,1,0.5,0.240827649474981,0.500604541860078,0,0,0.5,1,1.03966333582063,0.000196062491176874,2.32720253920586,0.5,74.8313214703249
CBC_1029,CBC_1029_MSI_TV_v3_Vset5_Tset2_2023-07-21_14h59.39.665.csv,2,10,1,3,b,1,0,3,tac,B,27,1,1B,3B,1,0,z,2.6222226000009,0,1,0,0,3B,1B,B13,3.2188758248682,1,0,0,0.5,0,1,0.5,0.5,0.5,0.5,1,0,0.5,0.5,0.5,1,0,1,0.5,1,0.137254489512012,0.500351073859241,-0.5,-0.5,0.5,1,1.03966333582063,0.000196062491176874,2.32720253920586,0.5,74.8313214703249
CBC_1029,CBC_1029_MSI_TV_v3_Vset5_Tset2_2023-07-21_14h59.39.665.csv,2,11,2,3,b,1,0,1,tac,C,63,1,2C,3C,1,0,b,2.50660470000003,1,0,1,1,2C,3C,C23,3.25809653802148,1,0,0,0.5,0,1,0.5,0,0.5,0.5,1,0,0.5,0.5,0.5,1,1,0,1,0,0.152247432067004,0.499531664836747,0,0,0.5,1,1.03966333582063,0.000196062491176874,2.32720253920586,0.5,74.8313214703249
CBC_1029,CBC_1029_MSI_TV_v3_Vset5_Tset2_2023-07-21_14h59.39.665.csv,2,12,3,1,z,0,1,3,tac,B,27,1,3B,1B,0,1,z,2.74678689999928,0,1,1,1,1B,3B,B31,3.29583686600433,1,0,0,0.5,0,1,0.5,0,0.5,0.5,1,0,0.5,0.5,0.5,1,1,0,1,0,0.122488669990936,0.500182982311069,0,0,0.5,1,1.03966333582063,0.000196062491176874,2.32720253920586,0.5,74.8313214703249
CBC_1029,CBC_1029_MSI_TV_v3_Vset5_Tset2_2023-07-21_14h59.39.665.csv,2,13,2,3,b,1,0,1,tac,C,63,1,2C,3C,1,0,z,1.66885670000011,0,1,0,0,3C,2C,C23,2.63905732961526,1,0,0,0.5,0,1,0.5,0,0.5,0.5,1,0,0.5,0.5,0.5,1,0,1,0,1,0.317113299529838,0.500225650620447,0,0,0.5,1,1.03966333582063,0.000196062491176874,2.32720253920586,0.5,74.8313214703249
CBC_1029,CBC_1029_MSI_TV_v3_Vset5_Tset2_2023-07-21_14h59.39.665.csv,2,14,2,3,z,0,1,2,tac,D,63,1,2D,3D,0,1,b,2.83338230000118,1,0,0,0,2D,3D,D23,2.67414864942653,1,0,0,0.5,0,1,0.5,0,0.5,0.5,1,0,0.5,0.5,0.5,1,0,1,0.5,1,0.112800945150699,0.498438244644568,-0.5,-0.5,0.5,1,1.03966333582063,0.000196062491176874,2.32720253920586,0.5,74.8313214703249
CBC_1029,CBC_1029_MSI_TV_v3_Vset5_Tset2_2023-07-21_14h59.39.665.csv,2,15,3,0,z,0,1,0,tac,A,9,1,3A,0A,0,1,z,3.57798109999931,0,1,1,1,0A,3A,A30,3.40119738166216,1,0,0,0.5,0,1,0.5,0,0.5,0.5,1,0,0.5,0.5,0,1,1,0,1,0.5,0.057438187035876,0.500203862206937,0,0,0.5,1,1.03966333582063,0.000196062491176874,2.32720253920586,0.5,74.8313214703249
CBC_1029,CBC_1029_MSI_TV_v3_Vset5_Tset2_2023-07-21_14h59.39.665.csv,2,16,1,0,b,1,0,3,tac,B,63,0,1B,0B,0,1,b,2.35829010000089,1,0,1,0,1B,0B,B10,2.7408400239252,1,0,0,0.5,0,1,0.5,0,0.5,0.5,1,0,0.5,0.5,0,1,1,0,1,0,0.174477640056765,0.500172360275365,-1,-1,0.5,1,1.03966333582063,0.000196062491176874,2.32720253920586,0.5,74.8313214703249
CBC_1029,CBC_1029_MSI_TV_v3_Vset5_Tset2_2023-07-21_14h59.39.665.csv,2,17,3,2,b,1,0,2,tac,D,63,1,3D,2D,1,0,z,2.32812980000017,0,1,0,0,2D,3D,D32,3.46573590279973,1,0,0,0.5,0,0,0.5,0,0.5,0.5,1,0,0.5,0.5,0,1,0,1,0,1,0.179068864131671,0.49944359781627,0,0,0.5,1,1.03966333582063,0.000196062491176874,2.32720253920586,0.5,74.8313214703249
CBC_1029,CBC_1029_MSI_TV_v3_Vset5_Tset2_2023-07-21_14h59.39.665.csv,2,18,2,0,b,1,0,1,tac,C,27,1,2C,0C,1,0,z,2.75275570000122,0,1,0,0,0C,2C,C20,3.49650756146648,1,0,0,0.5,0,0,0.5,0,0.5,0.5,1,0,0.5,0.5,0,1,0,1,0.5,1,0.121595097207355,0.499241781365006,-0.5,-0.5,0.5,1,1.03966333582063,0.000196062491176874,2.32720253920586,0.5,74.8313214703249
CBC_1029,CBC_1029_MSI_TV_v3_Vset5_Tset2_2023-07-21_14h59.39.665.csv,2,19,1,0,z,0,1,0,tac,A,63,1,1A,0A,0,1,z,3.79615569999987,0,1,1,1,0A,1A,A10,2.83321334405622,1,0,0,0.5,0,0,0.5,0,0,0.5,1,0,0.5,0.5,0,1,1,0,1,0,0.0471499546667149,0.500914846003271,0,0,0.5,1,1.03966333582063,0.000196062491176874,2.32720253920586,0.5,74.8313214703249
CBC_1029,CBC_1029_MSI_TV_v3_Vset5_Tset2_2023-07-21_14h59.39.665.csv,2,20,0,1,z,0,1,3,tac,B,63,1,0B,1B,0,1,z,2.90896859999884,0,1,1,1,1B,0B,B01,2.86220088092947,1,0,0,0.5,0,0,0.5,0,0,0.5,1,0,0.5,0.5,0,1,NaN,NaN,0,0,NaN,NaN,1,1,0.5,1,1.03966333582063,0.000196062491176874,2.32720253920586,0.5,74.8313214703249
CBC_1029,CBC_1029_MSI_TV_v3_Vset5_Tset2_2023-07-21_14h59.39.665.csv,2,21,3,1,b,1,0,2,tac,D,27,1,3D,1D,1,0,b,1.62863050000124,1,0,1,1,3D,1D,D31,3.58351893845611,1,0,0,0.5,0,1,0.5,0,0,0.5,1,0,0.5,0.5,0,1,1,0,1,0.5,0.325460592556573,0.500287420194912,0,0,0.5,1,1.03966333582063,0.000196062491176874,2.32720253920586,0.5,74.8313214703249
CBC_1029,CBC_1029_MSI_TV_v3_Vset5_Tset2_2023-07-21_14h59.39.665.csv,2,22,2,3,b,1,0,1,tac,C,63,1,2C,3C,1,0,z,2.30075710000165,0,1,0,0,3C,2C,C23,2.51230562397611,1,0,0,0.5,0,1,0.5,0,0,0.5,1,0,0.5,0.5,0,1,0,1,0,1,0.183913868515617,0.500348941146134,0,0,0.5,1,1.03966333582063,0.000196062491176874,2.32720253920586,0.5,74.8313214703249
CBC_1029,CBC_1029_MSI_TV_v3_Vset5_Tset2_2023-07-21_14h59.39.665.csv,2,23,1,0,z,0,1,0,tac,A,63,1,1A,0A,0,1,b,2.62020790000133,1,0,0,0,1A,0A,A10,2.53897387105828,1,0,0,0.5,0,1,0.5,0,0,0.5,1,0,0.5,0.5,0,1,0,1,0,1,0.137389408993769,0.499924534582328,0,0,0.5,1,1.03966333582063,0.000196062491176874,2.32720253920586,0.5,74.8313214703249
CBC_1029,CBC_1029_MSI_TV_v3_Vset5_Tset2_2023-07-21_14h59.39.665.csv,2,24,3,2,b,1,0,2,tac,D,63,1,3D,2D,1,0,z,2.30871280000065,0,1,0,0,2D,3D,D32,2.9704144655697,1,0,0,0.5,0,1,0.5,0,0,0.5,1,0,0.5,0.5,0,1,0,1,0,1,0.182335296909394,0.499654718850756,0,0,0.5,1,1.03966333582063,0.000196062491176874,2.32720253920586,0.5,74.8313214703249
CBC_1029,CBC_1029_MSI_TV_v3_Vset5_Tset2_2023-07-21_14h59.39.665.csv,2,25,0,2,z,0,1,1,tac,C,27,1,0C,2C,0,1,b,2.83827010000095,1,0,0,0,0C,2C,C02,3.68887945411394,1,0,0,0.5,0,1,0.5,0,0,0.5,1,0,0.5,0.5,0,1,0,1,0,1,0.112674631622613,0.500101520951524,0,0,0.5,1,1.03966333582063,0.000196062491176874,2.32720253920586,0.5,74.8313214703249
CBC_1029,CBC_1029_MSI_TV_v3_Vset5_Tset2_2023-07-21_14h59.39.665.csv,2,26,1,0,z,0,1,0,tac,A,63,1,1A,0A,0,1,z,1.22012259999974,0,1,1,1,0A,1A,A10,2.32727770558442,1,0,0,0.5,0,1,0.5,0,0,0.5,1,0,0.5,0.5,0,1,1,0,1,0,0.142242037700064,0.500134291936939,0,0,0.5,1,1.03966333582063,0.000196062491176874,2.32720253920586,0.5,74.8313214703249
CBC_1029,CBC_1029_MSI_TV_v3_Vset5_Tset2_2023-07-21_14h59.39.665.csv,2,27,3,1,z,0,1,3,tac,B,27,1,3B,1B,0,1,b,2.69081310000001,1,0,0,0,3B,1B,B31,3.04452243772342,1,0,0,0.5,0,1,0.5,0,0,0.5,1,0,0.5,0.5,0,1,0,1,0,1,0.128773834947931,0.499704642149048,0,0,0.5,1,1.03966333582063,0.000196062491176874,2.32720253920586,0.5,74.8313214703249
CBC_1029,CBC_1029_MSI_TV_v3_Vset5_Tset2_2023-07-21_14h59.39.665.csv,2,28,2,3,b,1,0,1,tac,C,63,1,2C,3C,1,0,z,1.75138180000067,0,1,0,0,3C,2C,C23,2.37490575457367,1,0,0,0.5,0,1,0.5,0,0,0.5,1,0,0.5,0.5,0,1,0,1,0,1,0.297970969537662,0.499617442429963,0,0,0.5,1,1.03966333582063,0.000196062491176874,2.32720253920586,0.5,74.8313214703249
CBC_1029,CBC_1029_MSI_TV_v3_Vset5_Tset2_2023-07-21_14h59.39.665.csv,2,29,2,3,z,0,1,2,tac,D,63,1,2D,3D,0,1,b,2.08804070000042,1,0,0,0,2D,3D,D23,2.68557734525015,1,0,0,0.5,0,1,0.5,0,0,0.5,1,0,0.5,0.5,0,1,0,1,0,1,0.2225876751865,0.499432587806259,0,0,0.5,1,1.03966333582063,0.000196062491176874,2.32720253920586,0.5,74.8313214703249
CBC_1029,CBC_1029_MSI_TV_v3_Vset5_Tset2_2023-07-21_14h59.39.665.csv,2,30,1,0,b,1,0,3,tac,B,63,1,1B,0B,1,0,b,1.40769470000123,1,0,1,1,1B,0B,B10,2.70805020110221,1,0,0,0.5,0,1,0.5,0,0,0.5,1,0,0.5,0.5,0,1,1,0,1,0,0.330584371187598,0.500309783168645,0,0,0.5,1,1.03966333582063,0.000196062491176874,2.32720253920586,0.5,74.8313214703249
CBC_1029,CBC_1029_MSI_TV_v3_Vset5_Tset2_2023-07-21_14h59.39.665.csv,2,31,0,2,b,1,0,0,tac,A,27,1,0A,2A,1,0,z,2.67088409999997,0,1,0,0,2A,0A,A02,3.13549421592915,1,0,0,0.5,0,1,0.5,0,0,0.5,1,0,0.5,0.5,0,1,0,1,0,1,0.13146475990833,0.500968250518836,0,0,0.5,1,1.03966333582063,0.000196062491176874,2.32720253920586,0.5,74.8313214703249
CBC_1029,CBC_1029_MSI_TV_v3_Vset5_Tset2_2023-07-21_14h59.39.665.csv,2,32,0,3,z,0,1,2,tac,D,9,1,0D,3D,0,1,z,1.98345370000061,0,1,1,1,3D,0D,D03,3.85014760171006,1,0,0,0.5,0,1,0.5,0,0,0.5,1,0,0.5,0.5,0,1,1,0,1,0.5,0.244522954327949,0.499602851525825,0,0,0.5,1,1.03966333582063,0.000196062491176874,2.32720253920586,0.5,74.8313214703249
CBC_1029,CBC_1029_MSI_TV_v3_Vset5_Tset2_2023-07-21_14h59.39.665.csv,2,33,2,3,b,1,0,1,tac,C,63,1,2C,3C,1,0,z,2.60129090000009,0,1,0,0,3C,2C,C23,2.26176309847379,1,0,0,0.5,0,1,0.5,0,0,0.5,1,0,0.5,0.5,0,1,0,1,0,1,0.139993794631806,0.500698350092862,0,0,0.5,1,1.03966333582063,0.000196062491176874,2.32720253920586,0.5,74.8313214703249
CBC_1029,CBC_1029_MSI_TV_v3_Vset5_Tset2_2023-07-21_14h59.39.665.csv,2,34,1,0,b,1,0,3,tac,B,63,1,1B,0B,1,0,b,1.50153540000065,1,0,1,1,1B,0B,B10,2.50552593699074,1,0,0,0.5,0,1,0.5,0,0,0.5,1,0,0.5,0.5,0,1,1,0,1,0,0.341016486571033,0.499328503581574,0,0,0.5,1,1.03966333582063,0.000196062491176874,2.32720253920586,0.5,74.8313214703249
CBC_1029,CBC_1029_MSI_TV_v3_Vset5_Tset2_2023-07-21_14h59.39.665.csv,2,35,1,0,z,0,1,0,tac,A,63,0,1A,0A,1,0,z,1.8739673,0,1,1,0,0A,1A,A10,2.30258509299405,1,0,0,0.5,0,1,0.5,0,0,0.5,1,0,0.5,0.5,0,1,1,0,1,0,0.268920851433123,0.499170061889943,-1,-1,0.5,1,1.03966333582063,0.000196062491176874,2.32720253920586,0.5,74.8313214703249
CBC_1029,CBC_1029_MSI_TV_v3_Vset5_Tset2_2023-07-21_14h59.39.665.csv,2,36,3,2,b,1,0,2,tac,D,63,1,3D,2D,1,0,z,3.48104240000066,0,1,0,0,2D,3D,D32,2.83321334405622,0,0,0,0.5,0,1,0.5,0,0,0.5,1,0,0.5,0.5,0,1,0,1,0,1,0.0626489252308221,0.499458890646411,0,0,0.5,1,1.03966333582063,0.000196062491176874,2.32720253920586,0.5,74.8313214703249
CBC_1029,CBC_1029_MSI_TV_v3_Vset5_Tset2_2023-07-21_14h59.39.665.csv,2,37,2,1,z,0,1,3,tac,B,9,1,2B,1B,0,1,z,1.40838729999996,0,1,1,1,1B,2B,B21,3.95124371858143,0,0,0,0.5,0,1,0.5,0,0,0.5,1,0,0.5,0.5,0,1,1,0,1,0.5,0.330757997111704,0.500254823809863,0,0,0.5,1,1.03966333582063,0.000196062491176874,2.32720253920586,0.5,74.8313214703249
CBC_1029,CBC_1029_MSI_TV_v3_Vset5_Tset2_2023-07-21_14h59.39.665.csv,2,38,0,2,b,1,0,0,tac,A,27,1,0A,2A,1,0,z,1.41790330000003,0,1,0,0,2A,0A,A02,2.87167962488401,0,0,0,0.5,0,1,0.5,0,0,0.5,1,0,0.5,0.5,0,1,NaN,NaN,0,0,NaN,NaN,0,0,0.5,1,1.03966333582063,0.000196062491176874,2.32720253920586,0.5,74.8313214703249
CBC_1029,CBC_1029_MSI_TV_v3_Vset5_Tset2_2023-07-21_14h59.39.665.csv,2,39,3,2,z,0,1,1,tac,C,63,1,3C,2C,0,1,b,2.08560050000051,1,0,0,0,3C,2C,C32,3.29583686600433,0,0,0,0.5,0,1,0.5,0,0,0.5,1,0,0.5,0.5,0,1,0,1,0,1,0.223246088699115,0.499810393889812,0,0,0.5,1,1.03966333582063,0.000196062491176874,2.32720253920586,0.5,74.8313214703249
CBC_1029,CBC_1029_MSI_TV_v3_Vset5_Tset2_2023-07-21_14h59.39.665.csv,2,40,3,1,b,1,0,2,tac,D,27,1,3D,1D,1,0,b,1.20068580000043,1,0,1,1,3D,1D,D31,3.31418600467253,0,0,0,0.5,0,1,0.5,0,0,0.5,1,0,0.5,0.5,0,1,1,0,1,0.5,0.107001326304774,0.49873535973475,0,0,0.5,1,1.03966333582063,0.000196062491176874,2.32720253920586,0.5,74.8313214703249
CBC_1029,CBC_1029_MSI_TV_v3_Vset5_Tset2_2023-07-21_14h59.39.665.csv,2,41,1,0,z,0,1,0,tac,A,63,1,1A,0A,0,1,z,1.45253080000111,0,1,1,1,0A,1A,A10,2.23359222150709,0,0,0,0.5,0,1,0.5,0,0,0.5,1,0,0.5,0.5,0,1,NaN,NaN,0,0,NaN,NaN,1,1,0.5,1,1.03966333582063,0.000196062491176874,2.32720253920586,0.5,74.8313214703249
CBC_1029,CBC_1029_MSI_TV_v3_Vset5_Tset2_2023-07-21_14h59.39.665.csv,2,42,2,0,b,1,0,1,tac,C,27,1,2C,0C,1,0,b,2.41656329999932,1,0,1,1,2C,0C,C20,3.3499040872746,1,0,0,0.5,0,1,0.5,0,0,0.5,1,0,0.5,0.5,0,1,1,0,1,0,0.165431890610972,0.500067594339377,0,0,0.5,1,1.03966333582063,0.000196062491176874,2.32720253920586,0.5,74.8313214703249
CBC_1029,CBC_1029_MSI_TV_v3_Vset5_Tset2_2023-07-21_14h59.39.665.csv,2,43,2,3,z,0,1,2,tac,D,63,1,2D,3D,0,1,z,1.81117629999972,0,1,1,1,3D,2D,D23,2.67414864942653,1,0,0,0.5,0,1,0.5,0,0,0.5,1,0,0.5,0.5,0,1,1,0,1,0,0.284313283765976,0.500399565767532,0,0,0.5,1,1.03966333582063,0.000196062491176874,2.32720253920586,0.5,74.8313214703249
CBC_1029,CBC_1029_MSI_TV_v3_Vset5_Tset2_2023-07-21_14h59.39.665.csv,2,44,0,1,z,0,1,3,tac,B,63,1,0B,1B,0,1,z,1.64933500000006,0,1,1,1,1B,0B,B01,2.97892515523761,1,0,0,0.5,0,1,0.5,0,0,0.5,1,0,0.5,0.5,0,1,1,0,1,0,0.320593889940215,0.499205396767252,0,0,0.5,1,1.03966333582063,0.000196062491176874,2.32720253920586,0.5,74.8313214703249
CBC_1029,CBC_1029_MSI_AV_v3_Vset6_Aset1_2023-07-21_17h16.24.897.csv,3,1,0,1,z,0,1,3,aud,B,63,1,0B,1B,0,1,b,2.53984019999916,1,0,0,0,0B,1B,B01,2.77258872223978,0.5,0.5,0.5,0.5,0.5,0.5,0.5,0.5,0.5,0.5,0.5,0.5,0.5,0.5,0.5,0.5,0.5,0.5,0.5,0.5,0.116079924214363,0.499365162957382,-0.5,-0.00727421639393067,0.5,0.0145484327878613,0.832701447619746,4.40631117261551,2.23182284522882,0.5,70.742703669591
CBC_1029,CBC_1029_MSI_AV_v3_Vset6_Aset1_2023-07-21_17h16.24.897.csv,3,2,2,3,z,0,1,2,aud,D,63,1,2D,3D,0,1,z,2.62739710000096,0,1,1,1,3D,2D,D23,2.83321334405622,0.5,0.5,0.5,0.5,0.492725783606069,0.5,0.5,0.5,0.5,0.5,0.5,0.5,0.5,0.5,0.5,0.5,0.5,0.5,0.5,0.5,0.106328993387132,0.498867109272045,0.5,0.00727421639393067,0.5,0.0145484327878613,0.832701447619746,4.40631117261551,2.23182284522882,0.5,70.742703669591
CBC_1029,CBC_1029_MSI_AV_v3_Vset6_Aset1_2023-07-21_17h16.24.897.csv,3,3,1,3,b,1,0,3,aud,B,27,1,1B,3B,1,0,z,1.92127389999951,0,1,0,0,3B,1B,B13,2.89037175789616,0.5,0.5,0.5,0.5,0.492725783606069,0.5,0.5,0.5,0.5,0.5,0.5,0.5,0.5,0.5,0.5,0.507274216393931,0.5,0.5,0.5,0.5,0.214495610870343,0.500223925213284,-0.5,-0.00727421639393067,0.5,0.0145484327878613,0.832701447619746,4.40631117261551,2.23182284522882,0.5,70.742703669591
CBC_1029,CBC_1029_MSI_AV_v3_Vset6_Aset1_2023-07-21_17h16.24.897.csv,3,4,3,2,z,0,1,1,aud,C,63,1,3C,2C,0,1,z,1.84123919999911,0,1,1,1,2C,3C,C32,2.94443897916644,0.5,0.5,0.5,0.5,0.492725783606069,0.5,0.5,0.492725783606069,0.5,0.5,0.5,0.5,0.5,0.5,0.5,0.507274216393931,0.5,0.5,0.5,0.5,0.231879256520383,0.499779846966562,0.5,0.00727421639393067,0.5,0.0145484327878613,0.832701447619746,4.40631117261551,2.23182284522882,0.5,70.742703669591
CBC_1029,CBC_1029_MSI_AV_v3_Vset6_Aset1_2023-07-21_17h16.24.897.csv,3,5,2,0,b,1,0,1,aud,C,27,1,2C,0C,1,0,b,1.39579419999791,1,0,1,1,2C,0C,C20,2.99573227355399,0.5,0.5,0.5,0.5,0.492725783606069,0.5,0.5,0.492725783606069,0.5,0.5,0.507274216393931,0.5,0.5,0.5,0.5,0.507274216393931,0.507274216393931,0.492725783606069,0.507274216393931,0.5,0.373548766945767,0.535130457049714,0.492725783606069,0.00716838794563921,0.5,0.0145484327878613,0.832701447619746,4.40631117261551,2.23182284522882,0.5,70.742703669591
CBC_1029,CBC_1029_MSI_AV_v3_Vset6_Aset1_2023-07-21_17h16.24.897.csv,3,6,3,0,z,0,1,0,aud,A,9,1,3A,0A,0,1,z,2.74288069999966,0,1,1,1,0A,3A,A30,3.04452243772342,0.5,0.5,0.5,0.5,0.492725783606069,0.5,0.5,0.492725783606069,0.5,0.5,0.51444260433957,0.5,0.5,0.5,0.5,0.507274216393931,0.5,0.5,0.5,0.5,0.094902358594226,0.499226732523107,0.5,0.00727421639393067,0.5,0.0145484327878613,0.832701447619746,4.40631117261551,2.23182284522882,0.5,70.742703669591
CBC_1029,CBC_1029_MSI_AV_v3_Vset6_Aset1_2023-07-21_17h16.24.897.csv,3,7,3,2,z,0,1,1,aud,C,63,1,3C,2C,0,1,z,1.36125170000014,0,1,1,1,2C,3C,C32,2.39789527279837,0.507274216393931,0.5,0.5,0.5,0.492725783606069,0.5,0.5,0.492725783606069,0.5,0.5,0.51444260433957,0.5,0.5,0.5,0.5,0.507274216393931,0.51444260433957,0.48555739566043,0.51444260433957,0.5,0.40912248756444,0.570326433047944,0.48555739566043,0.00706409913541476,0.5,0.0145484327878613,0.832701447619746,4.40631117261551,2.23182284522882,0.5,70.742703669591
CBC_1029,CBC_1029_MSI_AV_v3_Vset6_Aset1_2023-07-21_17h16.24.897.csv,3,8,0,1,b,1,0,0,aud,A,63,1,0A,1A,1,0,b,2.09805450000204,1,0,1,1,0A,1A,A01,3.13549421592915,0.507274216393931,0.5,0.5,0.5,0.492725783606069,0.5,0.5,0.492725783606069,0.5,0.5,0.521506703474985,0.5,0.5,0.5,0.5,0.507274216393931,0.507274216393931,0.492725783606069,0.507274216393931,0.5,0.192769936248681,0.535414685764647,0.492725783606069,0.00716838794563921,0.5,0.0145484327878613,0.832701447619746,4.40631117261551,2.23182284522882,0.5,70.742703669591
CBC_1029,CBC_1029_MSI_AV_v3_Vset6_Aset1_2023-07-21_17h16.24.897.csv,3,9,3,2,b,1,0,2,aud,D,63,1,3D,2D,1,0,z,2.1090675000014,0,1,0,0,2D,3D,D32,3.17805383034795,0.51444260433957,0.5,0.5,0.5,0.492725783606069,0.5,0.5,0.492725783606069,0.5,0.5,0.521506703474985,0.5,0.5,0.5,0.5,0.507274216393931,0.492725783606069,0.507274216393931,0.5,0.507274216393931,0.16537494617471,0.464370265754773,-0.5,-0.00727421639393067,0.5,0.0145484327878613,0.832701447619746,4.40631117261551,2.23182284522882,0.5,70.742703669591
CBC_1029,CBC_1029_MSI_AV_v3_Vset6_Aset1_2023-07-21_17h16.24.897.csv,3,10,2,3,b,1,0,1,aud,C,63,1,2C,3C,1,0,b,1.56771060000028,1,0,1,1,2C,3C,C23,3.2188758248682,0.51444260433957,0.5,0.5,0.5,0.492725783606069,0.5,0.5,0.492725783606069,0.5,0.5,0.521506703474985,0.5,0.5,0.5,0.492725783606069,0.507274216393931,0.521506703474985,0.478493296525015,0.521506703474985,0.5,0.367931370039311,0.604108357264089,0.478493296525015,0.00696132756393639,0.5,0.0145484327878613,0.832701447619746,4.40631117261551,2.23182284522882,0.5,70.742703669591
CBC_1029,CBC_1029_MSI_AV_v3_Vset6_Aset1_2023-07-21_17h16.24.897.csv,3,11,1,3,z,0,1,2,aud,D,27,1,1D,3D,0,1,z,3.08530520000204,0,1,1,1,3D,1D,D13,3.25809653802148,0.51444260433957,0.5,0.5,0.5,0.492725783606069,0.5,0.5,0.492725783606069,0.5,0.5,0.528468031038921,0.5,0.5,0.5,0.492725783606069,0.507274216393931,0.507274216393931,0.492725783606069,0.507274216393931,0.5,0.0724317585405009,0.536042191755082,0.492725783606069,0.00716838794563921,0.5,0.0145484327878613,0.832701447619746,4.40631117261551,2.23182284522882,0.5,70.742703669591
CBC_1029,CBC_1029_MSI_AV_v3_Vset6_Aset1_2023-07-21_17h16.24.897.csv,3,12,1,0,z,0,1,0,aud,A,63,0,1A,0A,1,0,z,1.64243630000055,0,1,1,0,0A,1A,A10,3.29583686600433,0.51444260433957,0.5,0.5,0.5,0.492725783606069,0.5,0.5,0.492725783606069,0.5,0.5,0.528468031038921,0.5,0.5,0.5,0.492725783606069,0.51444260433957,0.51444260433957,0.48555739566043,0.51444260433957,0.5,0.322844461782853,0.57161073131976,-0.51444260433957,-0.00748433365244657,0.5,0.0145484327878613,0.832701447619746,4.40631117261551,2.23182284522882,0.5,70.742703669591
CBC_1029,CBC_1029_MSI_AV_v3_Vset6_Aset1_2023-07-21_17h16.24.897.csv,3,13,2,3,b,1,0,1,aud,C,63,1,2C,3C,1,0,z,2.30276040000172,0,1,0,0,3C,2C,C23,2.63905732961526,0.506958270687123,0.5,0.5,0.5,0.492725783606069,0.5,0.5,0.492725783606069,0.5,0.5,0.528468031038921,0.5,0.5,0.5,0.492725783606069,0.51444260433957,0.471531968961079,0.528468031038921,0.5,0.528468031038921,0.106305872113636,0.364310088253016,-0.5,-0.00727421639393067,0.5,0.0145484327878613,0.832701447619746,4.40631117261551,2.23182284522882,0.5,70.742703669591
CBC_1029,CBC_1029_MSI_AV_v3_Vset6_Aset1_2023-07-21_17h16.24.897.csv,3,14,0,2,b,1,0,0,aud,A,27,1,0A,2A,1,0,b,2.21084630000041,1,0,1,1,0A,2A,A02,3.36729582998647,0.506958270687123,0.5,0.5,0.5,0.492725783606069,0.5,0.5,0.492725783606069,0.5,0.5,0.528468031038921,0.492725783606069,0.5,0.5,0.492725783606069,0.51444260433957,0.506958270687123,0.493041729312877,0.506958270687123,0.5,0.171874744230792,0.533885658171473,0.493041729312877,0.00717298446051931,0.5,0.0145484327878613,0.832701447619746,4.40631117261551,2.23182284522882,0.5,70.742703669591
CBC_1029,CBC_1029_MSI_AV_v3_Vset6_Aset1_2023-07-21_17h16.24.897.csv,3,15,0,1,z,0,1,3,aud,B,63,1,0B,1B,0,1,b,1.822737100003,1,0,0,0,0B,1B,B01,2.70805020110221,0.514131255147643,0.5,0.5,0.5,0.492725783606069,0.5,0.5,0.492725783606069,0.5,0.5,0.528468031038921,0.492725783606069,0.5,0.5,0.492725783606069,0.51444260433957,0.492725783606069,0.507274216393931,0.492725783606069,0.5,0.219765845334301,0.464907722592196,-0.492725783606069,-0.00716838794563921,0.5,0.0145484327878613,0.832701447619746,4.40631117261551,2.23182284522882,0.5,70.742703669591
CBC_1029,CBC_1029_MSI_AV_v3_Vset6_Aset1_2023-07-21_17h16.24.897.csv,3,16,3,2,b,1,0,2,aud,D,63,1,3D,2D,1,0,z,1.75301889999901,0,1,0,0,2D,3D,D32,2.7408400239252,0.514131255147643,0.5,0.5,0.5,0.48555739566043,0.5,0.5,0.492725783606069,0.5,0.5,0.528468031038921,0.492725783606069,0.5,0.5,0.492725783606069,0.51444260433957,0.478292301590656,0.521707698409344,0.492725783606069,0.51444260433957,0.200844377267285,0.394777958118473,-0.492725783606069,-0.00716838794563921,0.5,0.0145484327878613,0.832701447619746,4.40631117261551,2.23182284522882,0.5,70.742703669591
CBC_1029,CBC_1029_MSI_AV_v3_Vset6_Aset1_2023-07-21_17h16.24.897.csv,3,17,1,2,b,1,0,3,aud,B,9,1,1B,2B,1,0,z,1.4667748000029,0,1,0,0,2B,1B,B12,3.46573590279973,0.514131255147643,0.5,0.5,0.5,0.48555739566043,0.5,0.5,0.492725783606069,0.5,0.5,0.528468031038921,0.492725783606069,0.5,0.5,0.48555739566043,0.51444260433957,0.5,0.5,0.5,0.5,0.329988103462218,0.500148564260568,-0.5,-0.00727421639393067,0.5,0.0145484327878613,0.832701447619746,4.40631117261551,2.23182284522882,0.5,70.742703669591
CBC_1029,CBC_1029_MSI_AV_v3_Vset6_Aset1_2023-07-21_17h16.24.897.csv,3,18,1,3,z,0,1,2,aud,D,27,1,1D,3D,0,1,z,1.7553869000003,0,1,1,1,3D,1D,D13,2.80336038090653,0.514131255147643,0.5,0.5,0.5,0.48555739566043,0.5,0.492725783606069,0.492725783606069,0.5,0.5,0.528468031038921,0.492725783606069,0.5,0.5,0.48555739566043,0.51444260433957,0.51444260433957,0.48555739566043,0.51444260433957,0.5,0.288810350253845,0.570809741230096,0.48555739566043,0.00706409913541476,0.5,0.0145484327878613,0.832701447619746,4.40631117261551,2.23182284522882,0.5,70.742703669591
CBC_1029,CBC_1029_MSI_AV_v3_Vset6_Aset1_2023-07-21_17h16.24.897.csv,3,19,0,1,b,1,0,0,aud,A,63,1,0A,1A,1,0,z,2.32253599999967,0,1,0,0,1A,0A,A01,2.83321334405622,0.514131255147643,0.5,0.5,0.5,0.48555739566043,0.5,0.492725783606069,0.492725783606069,0.5,0.5,0.528468031038921,0.492725783606069,0.5,0.5,0.48555739566043,0.521506703474985,0.485868744852357,0.514131255147643,0.5,0.514131255147643,0.124191952332465,0.431603947100469,-0.5,-0.00727421639393067,0.5,0.0145484327878613,0.832701447619746,4.40631117261551,2.23182284522882,0.5,70.742703669591
CBC_1029,CBC_1029_MSI_AV_v3_Vset6_Aset1_2023-07-21_17h16.24.897.csv,3,20,1,0,z,0,1,0,aud,A,63,1,1A,0A,0,1,z,2.43662190000032,0,1,1,1,0A,1A,A10,2.86220088092947,0.514131255147643,0.492725783606069,0.5,0.5,0.48555739566043,0.5,0.492725783606069,0.492725783606069,0.5,0.5,0.528468031038921,0.492725783606069,0.5,0.5,0.48555739566043,0.521506703474985,0.521396673759288,0.478603326240712,0.514131255147643,0.492725783606069,0.154283818235606,0.6030831683416,0.485868744852357,0.00706862877820707,0.5,0.0145484327878613,0.832701447619746,4.40631117261551,2.23182284522882,0.5,70.742703669591
CBC_1029,CBC_1029_MSI_AV_v3_Vset6_Aset1_2023-07-21_17h16.24.897.csv,3,21,2,0,b,1,0,1,aud,C,27,1,2C,0C,1,0,z,2.90278970000145,0,1,0,0,0C,2C,C20,2.89037175789616,0.52119988392585,0.492725783606069,0.5,0.5,0.48555739566043,0.5,0.492725783606069,0.492725783606069,0.5,0.5,0.528468031038921,0.492725783606069,0.5,0.5,0.48555739566043,0.521506703474985,0.471531968961079,0.528468031038921,0.5,0.528468031038921,0.0574261624112018,0.36345036542972,-0.5,-0.00727421639393067,0.5,0.0145484327878613,0.832701447619746,4.40631117261551,2.23182284522882,0.5,70.742703669591
CBC_1029,CBC_1029_MSI_AV_v3_Vset6_Aset1_2023-07-21_17h16.24.897.csv,3,22,0,1,z,0,1,3,aud,B,63,1,0B,1B,0,1,b,1.70822370000315,1,0,0,0,0B,1B,B01,2.51230562397611,0.52119988392585,0.492725783606069,0.5,0.5,0.48555739566043,0.5,0.492725783606069,0.492725783606069,0.492725783606069,0.5,0.528468031038921,0.492725783606069,0.5,0.5,0.48555739566043,0.521506703474985,0.48555739566043,0.51444260433957,0.48555739566043,0.5,0.227989213292466,0.430296826801283,-0.48555739566043,-0.00706409913541476,0.5,0.0145484327878613,0.832701447619746,4.40631117261551,2.23182284522882,0.5,70.742703669591
CBC_1029,CBC_1029_MSI_AV_v3_Vset6_Aset1_2023-07-21_17h16.24.897.csv,3,23,2,0,b,1,0,1,aud,C,27,1,2C,0C,1,0,b,2.39700210000228,1,0,1,1,2C,0C,C20,2.53897387105828,0.52119988392585,0.492725783606069,0.5,0.5,0.478493296525015,0.5,0.492725783606069,0.492725783606069,0.492725783606069,0.5,0.528468031038921,0.492725783606069,0.5,0.5,0.48555739566043,0.521506703474985,0.535712665543733,0.464287334456267,0.528468031038921,0.492725783606069,0.176204246851313,0.669403326871883,0.471531968961079,0.00686005115775817,0.5,0.0145484327878613,0.832701447619746,4.40631117261551,2.23182284522882,0.5,70.742703669591
CBC_1029,CBC_1029_MSI_AV_v3_Vset6_Aset1_2023-07-21_17h16.24.897.csv,3,24,3,2,b,1,0,2,aud,D,63,1,3D,2D,1,0,b,2.27793079999901,1,0,1,1,3D,2D,D32,2.56494935746154,0.52119988392585,0.492725783606069,0.5,0.5,0.478493296525015,0.5,0.492725783606069,0.492725783606069,0.492725783606069,0.5,0.535328082196679,0.492725783606069,0.5,0.5,0.48555739566043,0.521506703474985,0.535904697978182,0.464095302021818,0.521506703474985,0.48555739566043,0.199465592236703,0.669480010748973,0.478493296525015,0.00696132756393639,0.5,0.0145484327878613,0.832701447619746,4.40631117261551,2.23182284522882,0.5,70.742703669591
CBC_1029,CBC_1029_MSI_AV_v3_Vset6_Aset1_2023-07-21_17h16.24.897.csv,3,25,1,0,z,0,1,0,aud,A,63,1,1A,0A,0,1,z,4.2087317000005,0,1,1,1,0A,1A,A10,2.59026716544583,0.52119988392585,0.492725783606069,0.5,0.5,0.478493296525015,0.5,0.492725783606069,0.492725783606069,0.492725783606069,0.5,0.535328082196679,0.492725783606069,0.5,0.5,0.48555739566043,0.528468031038921,0.528456546893911,0.471543453106089,0.52119988392585,0.492725783606069,0.0264691899018552,0.63665466406523,0.47880011607415,0.00696579130752498,0.5,0.0145484327878613,0.832701447619746,4.40631117261551,2.23182284522882,0.5,70.742703669591
CBC_1029,CBC_1029_MSI_AV_v3_Vset6_Aset1_2023-07-21_17h16.24.897.csv,3,26,3,2,z,0,1,1,aud,C,63,1,3C,2C,0,1,z,1.09646770000109,0,1,1,1,2C,3C,C32,2.6149597780362,0.528165675233375,0.492725783606069,0.5,0.5,0.478493296525015,0.5,0.492725783606069,0.492725783606069,0.492725783606069,0.5,0.535328082196679,0.492725783606069,0.5,0.5,0.48555739566043,0.528468031038921,0.542558551104299,0.457441448895701,0.535328082196679,0.492725783606069,0.462160862398146,0.697356059965922,0.464671917803321,0.00676024816456824,0.5,0.0145484327878613,0.832701447619746,4.40631117261551,2.23182284522882,0.5,70.742703669591
CBC_1029,CBC_1029_MSI_AV_v3_Vset6_Aset1_2023-07-21_17h16.24.897.csv,3,27,2,0,z,0,1,0,aud,A,27,1,2A,0A,0,1,z,1.61070090000067,0,1,1,1,0A,2A,A20,3.73766961828337,0.528165675233375,0.492725783606069,0.5,0.5,0.478493296525015,0.5,0.492725783606069,0.492725783606069,0.492725783606069,0.5,0.542088330361247,0.492725783606069,0.5,0.5,0.48555739566043,0.528468031038921,0.528165675233375,0.471834324766625,0.528165675233375,0.5,0.373366775422739,0.634938802283826,0.471834324766625,0.00686444996087319,0.5,0.0145484327878613,0.832701447619746,4.40631117261551,2.23182284522882,0.5,70.742703669591
CBC_1029,CBC_1029_MSI_AV_v3_Vset6_Aset1_2023-07-21_17h16.24.897.csv,3,28,3,2,b,1,0,2,aud,D,63,1,3D,2D,1,0,z,1.71500110000125,0,1,0,0,2D,3D,D32,2.37490575457367,0.535030125194248,0.492725783606069,0.5,0.5,0.478493296525015,0.5,0.492725783606069,0.492725783606069,0.492725783606069,0.5,0.542088330361247,0.492725783606069,0.5,0.5,0.48555739566043,0.528468031038921,0.457159820011398,0.542840179988602,0.48555739566043,0.528468031038921,0.161671927443772,0.300913126660999,-0.48555739566043,-0.00706409913541476,0.5,0.0145484327878613,0.832701447619746,4.40631117261551,2.23182284522882,0.5,70.742703669591
CBC_1029,CBC_1029_MSI_AV_v3_Vset6_Aset1_2023-07-21_17h16.24.897.csv,3,29,3,2,b,1,0,2,aud,D,63,1,3D,2D,1,0,b,2.32758959999774,1,0,1,1,3D,2D,D32,2.17475172148416,0.535030125194248,0.492725783606069,0.5,0.5,0.478493296525015,0.5,0.492725783606069,0.492725783606069,0.492725783606069,0.5,0.542088330361247,0.492725783606069,0.5,0.5,0.478493296525015,0.528468031038921,0.549852644688713,0.450147355311287,0.528468031038921,0.478493296525015,0.202843885125666,0.727822197623344,0.471531968961079,0.00686005115775817,0.5,0.0145484327878613,0.832701447619746,4.40631117261551,2.23182284522882,0.5,70.742703669591
CBC_1029,CBC_1029_MSI_AV_v3_Vset6_Aset1_2023-07-21_17h16.24.897.csv,3,30,3,1,z,0,1,3,aud,B,27,1,3B,1B,0,1,z,2.3555465999998,0,1,1,1,1B,3B,B31,3.80666248977032,0.535030125194248,0.492725783606069,0.5,0.5,0.478493296525015,0.5,0.492725783606069,0.492725783606069,0.492725783606069,0.5,0.542088330361247,0.492725783606069,0.5,0.5,0.478493296525015,0.535328082196679,0.507274216393931,0.492725783606069,0.5,0.492725783606069,0.149534430136392,0.536252670706296,0.5,0.00727421639393067,0.5,0.0145484327878613,0.832701447619746,4.40631117261551,2.23182284522882,0.5,70.742703669591
CBC_1029,CBC_1029_MSI_AV_v3_Vset6_Aset1_2023-07-21_17h16.24.897.csv,3,31,0,3,z,0,1,2,aud,D,9,1,0D,3D,0,1,z,1.63751120000234,0,1,1,1,3D,0D,D03,3.8286413964891,0.535030125194248,0.492725783606069,0.5,0.5,0.478493296525015,0.507274216393931,0.492725783606069,0.492725783606069,0.492725783606069,0.5,0.542088330361247,0.492725783606069,0.5,0.5,0.478493296525015,0.535328082196679,0.535328082196679,0.464671917803321,0.535328082196679,0.5,0.384776637519305,0.666953622523438,0.464671917803321,0.00676024816456824,0.5,0.0145484327878613,0.832701447619746,4.40631117261551,2.23182284522882,0.5,70.742703669591
CBC_1029,CBC_1029_MSI_AV_v3_Vset6_Aset1_2023-07-21_17h16.24.897.csv,3,32,1,0,b,1,0,3,aud,B,63,1,1B,0B,1,0,z,2.51423480000085,0,1,0,0,0B,1B,B10,3.85014760171006,0.535030125194248,0.492725783606069,0.5,0.5,0.478493296525015,0.507274216393931,0.492725783606069,0.492725783606069,0.492725783606069,0.5,0.542088330361247,0.492725783606069,0.5,0.5,0.478493296525015,0.542088330361247,0.471237079324279,0.528762920675721,0.478493296525015,0.507274216393931,0.0851481471948177,0.362344254439065,-0.478493296525015,-0.00696132756393639,0.5,0.0145484327878613,0.832701447619746,4.40631117261551,2.23182284522882,0.5,70.742703669591
CBC_1029,CBC_1029_MSI_AV_v3_Vset6_Aset1_2023-07-21_17h16.24.897.csv,3,33,1,0,z,0,1,0,aud,A,63,1,1A,0A,0,1,z,2.68172290000075,0,1,1,1,0A,1A,A10,2.484906649788,0.535030125194248,0.492725783606069,0.5,0.5,0.471531968961079,0.507274216393931,0.492725783606069,0.492725783606069,0.492725783606069,0.5,0.542088330361247,0.492725783606069,0.5,0.5,0.478493296525015,0.542088330361247,0.542261266080882,0.457738733919118,0.535030125194248,0.492725783606069,0.134633393037904,0.696832877845192,0.464969874805752,0.00676458297199178,0.5,0.0145484327878613,0.832701447619746,4.40631117261551,2.23182284522882,0.5,70.742703669591
CBC_1029,CBC_1029_MSI_AV_v3_Vset6_Aset1_2023-07-21_17h16.24.897.csv,3,34,1,0,b,1,0,3,aud,B,63,1,1B,0B,1,0,z,1.42032830000244,0,1,0,0,0B,1B,B10,3.19867311755068,0.54179470816624,0.492725783606069,0.5,0.5,0.471531968961079,0.507274216393931,0.492725783606069,0.492725783606069,0.492725783606069,0.5,0.542088330361247,0.492725783606069,0.5,0.5,0.478493296525015,0.542088330361247,0.464287334456267,0.535712665543733,0.471531968961079,0.507274216393931,0.234188072522307,0.331521406061216,-0.471531968961079,-0.00686005115775817,0.5,0.0145484327878613,0.832701447619746,4.40631117261551,2.23182284522882,0.5,70.742703669591
CBC_1029,CBC_1029_MSI_AV_v3_Vset6_Aset1_2023-07-21_17h16.24.897.csv,3,35,3,2,z,0,1,1,aud,C,63,1,3C,2C,0,1,z,1.1278117000038,0,1,1,1,2C,3C,C32,2.52572864430826,0.54179470816624,0.492725783606069,0.5,0.5,0.464671917803321,0.507274216393931,0.492725783606069,0.492725783606069,0.492725783606069,0.5,0.542088330361247,0.492725783606069,0.5,0.5,0.478493296525015,0.542088330361247,0.549302169420824,0.450697830579176,0.542088330361247,0.492725783606069,0.532334860300408,0.725509739894671,0.457911669638753,0.00666189714851676,0.5,0.0145484327878613,0.832701447619746,4.40631117261551,2.23182284522882,0.5,70.742703669591
CBC_1029,CBC_1029_MSI_AV_v3_Vset6_Aset1_2023-07-21_17h16.24.897.csv,3,36,0,2,b,1,0,0,aud,A,27,1,0A,2A,1,0,b,2.53960160000133,1,0,1,1,0A,2A,A02,3.23867845216438,0.54179470816624,0.492725783606069,0.5,0.5,0.464671917803321,0.507274216393931,0.492725783606069,0.492725783606069,0.492725783606069,0.5,0.548750227509764,0.492725783606069,0.5,0.5,0.478493296525015,0.542088330361247,0.54179470816624,0.45820529183376,0.54179470816624,0.5,0.156184038043871,0.694680739808264,0.45820529183376,0.00666616889128585,0.5,0.0145484327878613,0.832701447619746,4.40631117261551,2.23182284522882,0.5,70.742703669591
CBC_1029,CBC_1029_MSI_AV_v3_Vset6_Aset1_2023-07-21_17h16.24.897.csv,3,37,1,0,b,1,0,3,aud,B,63,1,1B,0B,1,0,z,1.33412409999801,0,1,0,0,0B,1B,B10,2.85263142991332,0.548460877057525,0.492725783606069,0.5,0.5,0.464671917803321,0.507274216393931,0.492725783606069,0.492725783606069,0.492725783606069,0.5,0.548750227509764,0.492725783606069,0.5,0.5,0.478493296525015,0.542088330361247,0.457441448895701,0.542558551104299,0.464671917803321,0.507274216393931,0.229514236654901,0.301320041892255,-0.464671917803321,-0.00676024816456824,0.5,0.0145484327878613,0.832701447619746,4.40631117261551,2.23182284522882,0.5,70.742703669591
CBC_1029,CBC_1029_MSI_AV_v3_Vset6_Aset1_2023-07-21_17h16.24.897.csv,3,38,3,1,z,0,1,3,aud,B,27,1,3B,1B,0,1,z,1.78639560000374,0,1,1,1,1B,3B,B31,3.27714473299218,0.548460877057525,0.492725783606069,0.5,0.5,0.457911669638753,0.507274216393931,0.492725783606069,0.492725783606069,0.492725783606069,0.5,0.548750227509764,0.492725783606069,0.5,0.5,0.478493296525015,0.542088330361247,0.514545354163339,0.485454645836661,0.507274216393931,0.492725783606069,0.28049764508637,0.571542924114264,0.492725783606069,0.00716838794563921,0.5,0.0145484327878613,0.832701447619746,4.40631117261551,2.23182284522882,0.5,70.742703669591
CBC_1029,CBC_1029_MSI_AV_v3_Vset6_Aset1_2023-07-21_17h16.24.897.csv,3,39,3,2,z,0,1,1,aud,C,63,1,3C,2C,0,1,z,0.938702899999043,0,1,1,1,2C,3C,C32,2.37954613413017,0.548460877057525,0.492725783606069,0.5,0.5,0.457911669638753,0.51444260433957,0.492725783606069,0.492725783606069,0.492725783606069,0.5,0.548750227509764,0.492725783606069,0.5,0.5,0.478493296525015,0.542088330361247,0.555945086982915,0.444054913017085,0.548750227509764,0.492725783606069,0.0621276830496977,0.750615420955598,0.451249772490236,0.00656497698561191,0.5,0.0145484327878613,0.832701447619746,4.40631117261551,2.23182284522882,0.5,70.742703669591
CBC_1029,CBC_1029_MSI_AV_v3_Vset6_Aset1_2023-07-21_17h16.24.897.csv,3,40,3,1,b,1,0,2,aud,D,27,1,3D,1D,1,0,b,2.16352660000121,1,0,1,1,3D,1D,D31,4.00733318523247,0.548460877057525,0.492725783606069,0.5,0.5,0.457911669638753,0.51444260433957,0.492725783606069,0.492725783606069,0.492725783606069,0.5,0.555315204495376,0.492725783606069,0.5,0.5,0.478493296525015,0.542088330361247,0.542088330361247,0.457911669638753,0.542088330361247,0.5,0.232981000353479,0.696119961601418,0.457911669638753,0.00666189714851676,0.5,0.0145484327878613,0.832701447619746,4.40631117261551,2.23182284522882,0.5,70.742703669591
CBC_1029,CBC_1029_MSI_AV_v3_Vset6_Aset1_2023-07-21_17h16.24.897.csv,3,41,1,2,z,0,1,1,aud,C,9,1,1C,2C,0,1,z,1.77853020000111,0,1,1,1,2C,1C,C12,4.02535169073515,0.548460877057525,0.492725783606069,0.5,0.5,0.457911669638753,0.51444260433957,0.492725783606069,0.492725783606069,0.492725783606069,0.5,0.555315204495376,0.492725783606069,0.5,0.5,0.478493296525015,0.548750227509764,0.555315204495376,0.444684795504624,0.555315204495376,0.5,0.379956643981904,0.748206867926661,0.444684795504624,0.00646946685918288,0.5,0.0145484327878613,0.832701447619746,4.40631117261551,2.23182284522882,0.5,70.742703669591
CBC_1029,CBC_1029_MSI_AV_v3_Vset6_Aset1_2023-07-21_17h16.24.897.csv,3,42,0,1,z,0,1,3,aud,B,63,0,0B,1B,1,0,b,1.32587620000049,1,0,0,1,0B,1B,B01,2.65675690671466,0.548460877057525,0.492725783606069,0.5,0.5,0.457911669638753,0.51444260433957,0.492725783606069,0.492725783606069,0.492725783606069,0.5,0.561784671354559,0.492725783606069,0.5,0.5,0.478493296525015,0.548750227509764,0.443606184628677,0.556393815371323,0.457911669638753,0.51444260433957,0.196527078595266,0.248049788057458,0.542088330361247,0.00788653563934458,0.5,0.0145484327878613,0.832701447619746,4.40631117261551,2.23182284522882,0.5,70.742703669591
CBC_1029,CBC_1029_MSI_AV_v3_Vset6_Aset1_2023-07-21_17h16.24.897.csv,3,43,3,2,b,1,0,2,aud,D,63,1,3D,2D,1,0,b,1.67314799999804,1,0,1,1,3D,2D,D32,2.26868354131836,0.548460877057525,0.492725783606069,0.5,0.5,0.465798205278097,0.51444260433957,0.492725783606069,0.492725783606069,0.492725783606069,0.5,0.561784671354559,0.492725783606069,0.5,0.5,0.478493296525015,0.548750227509764,0.569963516119354,0.430036483880646,0.548750227509764,0.478493296525015,0.463910005054268,0.798990522905213,0.451249772490236,0.00656497698561191,0.5,0.0145484327878613,0.832701447619746,4.40631117261551,2.23182284522882,0.5,70.742703669591
CBC_1029,CBC_1029_MSI_AV_v3_Vset6_Aset1_2023-07-21_17h16.24.897.csv,3,44,0,1,b,1,0,0,aud,A,63,1,0A,1A,1,0,z,2.65657139999894,0,1,0,0,1A,0A,A01,2.97892515523761,0.548460877057525,0.492725783606069,0.5,0.5,0.465798205278097,0.51444260433957,0.492725783606069,0.492725783606069,0.492725783606069,0.5,0.561784671354559,0.492725783606069,0.5,0.5,0.478493296525015,0.555315204495376,0.444343385693266,0.555656614306734,0.492725783606069,0.548460877057525,0.0479222243012613,0.24998984939839,-0.492725783606069,-0.00716838794563921,0.5,0.0145484327878613,0.832701447619746,4.40631117261551,2.23182284522882,0.5,70.742703669591
CBC_1029,CBC_1029_MSI_TV_v3_Vset3_Tset1_2023-07-21_17h25.06.255.csv,4,1,1,0,z,0,1,0,tac,A,63,1,1A,0A,0,1,z,2.36152779999975,0,1,1,1,0A,1A,A10,2.77258872223978,0.5,0.5,0.5,0.5,0.5,0.5,0.5,0.5,0.5,0.5,0.5,0.5,0.5,0.5,0.5,0.5,0.5,0.5,0.5,0.5,0.131775236506327,0.50090229150087,0.5,0.416600476067778,0.5,0.833200952135555,0.612105078555089,0.499843821095809,3.20246387147257,0.5,91.3664117803071
CBC_1029,CBC_1029_MSI_TV_v3_Vset3_Tset1_2023-07-21_17h25.06.255.csv,4,2,3,2,z,0,1,1,tac,C,63,1,3C,2C,0,1,z,3.99804819999554,0,1,1,1,2C,3C,C32,2.83321334405622,0.916600476067778,0.5,0.5,0.5,0.5,0.5,0.5,0.5,0.5,0.5,0.5,0.5,0.5,0.5,0.5,0.5,0.5,0.5,0.5,0.5,0.059994509291333,0.499420381812985,0.5,0.416600476067778,0.5,0.833200952135555,0.612105078555089,0.499843821095809,3.20246387147257,0.5,91.3664117803071
CBC_1029,CBC_1029_MSI_TV_v3_Vset3_Tset1_2023-07-21_17h25.06.255.csv,4,3,0,2,b,1,0,0,tac,A,27,1,0A,2A,1,0,z,2.6808839999976,0,1,0,0,2A,0A,A02,2.89037175789616,0.916600476067778,0.5,0.5,0.5,0.5,0.5,0.5,0.5,0.5,0.5,0.916600476067778,0.5,0.5,0.5,0.5,0.5,0.0833995239322225,0.916600476067778,0.5,0.916600476067778,0.0484692318058991,0.20833859828228,-0.5,-0.416600476067778,0.5,0.833200952135555,0.612105078555089,0.499843821095809,3.20246387147257,0.5,91.3664117803071
CBC_1029,CBC_1029_MSI_TV_v3_Vset3_Tset1_2023-07-21_17h25.06.255.csv,4,4,1,0,b,1,0,3,tac,B,63,1,1B,0B,1,0,b,3.40184409999711,1,0,1,1,1B,0B,B10,2.94443897916644,0.916600476067778,0.5,0.0833995239322224,0.5,0.5,0.5,0.5,0.5,0.5,0.5,0.916600476067778,0.5,0.5,0.5,0.5,0.5,0.5,0.5,0.5,0.5,0.0798830848745276,0.499166823620613,0.5,0.416600476067778,0.5,0.833200952135555,0.612105078555089,0.499843821095809,3.20246387147257,0.5,91.3664117803071
CBC_1029,CBC_1029_MSI_TV_v3_Vset3_Tset1_2023-07-21_17h25.06.255.csv,4,5,2,3,z,0,1,2,tac,D,63,1,2D,3D,0,1,z,4.34453979999671,0,1,1,1,3D,2D,D23,2.99573227355399,0.916600476067778,0.5,0.0833995239322224,0.5,0.5,0.916600476067778,0.5,0.5,0.5,0.5,0.916600476067778,0.5,0.5,0.5,0.5,0.5,0.5,0.5,0.5,0.5,0.05096665856635,0.501240275594023,0.5,0.416600476067778,0.5,0.833200952135555,0.612105078555089,0.499843821095809,3.20246387147257,0.5,91.3664117803071
CBC_1029,CBC_1029_MSI_TV_v3_Vset3_Tset1_2023-07-21_17h25.06.255.csv,4,6,1,2,b,1,0,3,tac,B,9,1,1B,2B,1,0,b,4.59496989999752,1,0,1,1,1B,2B,B12,3.04452243772342,0.916600476067778,0.5,0.0833995239322224,0.5,0.5,0.916600476067778,0.5,0.5,0.5,0.5,0.916600476067778,0.5,0.5,0.5,0.5,0.916600476067778,0.916600476067778,0.0833995239322225,0.916600476067778,0.5,0.0621583401655066,0.791156928915268,0.0833995239322225,0.0694885627479798,0.5,0.833200952135555,0.612105078555089,0.499843821095809,3.20246387147257,0.5,91.3664117803071
CBC_1029,CBC_1029_MSI_TV_v3_Vset3_Tset1_2023-07-21_17h25.06.255.csv,4,7,1,3,z,0,1,2,tac,D,27,1,1D,3D,0,1,z,2.71557499999835,0,1,1,1,3D,1D,D13,3.09104245335832,0.916600476067778,0.5,0.0833995239322224,0.5,0.5,0.986089038815757,0.5,0.5,0.5,0.5,0.916600476067778,0.5,0.5,0.5,0.5,0.916600476067778,0.916600476067778,0.0833995239322225,0.916600476067778,0.5,0.180376762091138,0.790732804186557,0.0833995239322225,0.0694885627479798,0.5,0.833200952135555,0.612105078555089,0.499843821095809,3.20246387147257,0.5,91.3664117803071
CBC_1029,CBC_1029_MSI_TV_v3_Vset3_Tset1_2023-07-21_17h25.06.255.csv,4,8,1,0,z,0,1,0,tac,A,63,1,1A,0A,0,1,z,3.01213839999764,0,1,1,1,0A,1A,A10,2.4423470353692,0.916600476067778,0.5,0.0833995239322224,0.5,0.5,0.986089038815757,0.5,0.5,0.5,0.5,0.916600476067778,0.5,0.5,0.5,0.5,0.986089038815757,0.916600476067778,0.0833995239322225,0.916600476067778,0.5,0.152304057743239,0.78938543215959,0.0833995239322225,0.0694885627479798,0.5,0.833200952135555,0.612105078555089,0.499843821095809,3.20246387147257,0.5,91.3664117803071
CBC_1029,CBC_1029_MSI_TV_v3_Vset3_Tset1_2023-07-21_17h25.06.255.csv,4,9,0,1,b,1,0,0,tac,A,63,1,0A,1A,1,0,b,1.86994769999728,1,0,1,1,0A,1A,A01,3.17805383034795,0.986089038815757,0.5,0.0833995239322224,0.5,0.5,0.986089038815757,0.5,0.5,0.5,0.5,0.916600476067778,0.5,0.5,0.5,0.5,0.986089038815757,0.986089038815757,0.0139109611842427,0.986089038815757,0.5,0.306377323767319,0.825705990941506,0.0139109611842427,0.0115906261038318,0.5,0.833200952135555,0.612105078555089,0.499843821095809,3.20246387147257,0.5,91.3664117803071
CBC_1029,CBC_1029_MSI_TV_v3_Vset3_Tset1_2023-07-21_17h25.06.255.csv,4,10,2,0,b,1,0,1,tac,C,27,1,2C,0C,1,0,b,2.85564269999668,1,0,1,1,2C,0C,C20,3.2188758248682,0.997679664919589,0.5,0.0833995239322224,0.5,0.5,0.986089038815757,0.5,0.5,0.5,0.5,0.916600476067778,0.5,0.5,0.5,0.5,0.986089038815757,0.916600476067778,0.0833995239322225,0.916600476067778,0.5,0.166791107092872,0.791348560896589,0.0833995239322225,0.0694885627479798,0.5,0.833200952135555,0.612105078555089,0.499843821095809,3.20246387147257,0.5,91.3664117803071
CBC_1029,CBC_1029_MSI_TV_v3_Vset3_Tset1_2023-07-21_17h25.06.255.csv,4,11,0,1,z,0,1,3,tac,B,63,1,0B,1B,0,1,z,2.18382369999745,0,1,1,1,1B,0B,B01,3.25809653802148,0.997679664919589,0.5,0.0833995239322224,0.5,0.5,0.986089038815757,0.5,0.5,0.5,0.5,0.986089038815757,0.5,0.5,0.5,0.5,0.986089038815757,0.986089038815757,0.0139109611842427,0.986089038815757,0.5,0.257904119377662,0.825135988071129,0.0139109611842427,0.0115906261038318,0.5,0.833200952135555,0.612105078555089,0.499843821095809,3.20246387147257,0.5,91.3664117803071
CBC_1029,CBC_1029_MSI_TV_v3_Vset3_Tset1_2023-07-21_17h25.06.255.csv,4,12,0,1,b,1,0,0,tac,A,63,1,0A,1A,1,0,b,2.59030409999832,1,0,1,1,0A,1A,A01,2.60268968544438,0.997679664919589,0.5,0.0833995239322224,0.5,0.5,0.997679664919589,0.5,0.5,0.5,0.5,0.986089038815757,0.5,0.5,0.5,0.5,0.986089038815757,0.997679664919589,0.00232033508041096,0.997679664919589,0.5,0.20502594109523,0.831086982792878,0.00232033508041096,0.00193330539827194,0.5,0.833200952135555,0.612105078555089,0.499843821095809,3.20246387147257,0.5,91.3664117803071
CBC_1029,CBC_1029_MSI_TV_v3_Vset3_Tset1_2023-07-21_17h25.06.255.csv,4,13,3,2,z,0,1,1,tac,C,63,1,3C,2C,0,1,z,3.0384812999946,0,1,1,1,2C,3C,C32,2.63905732961526,0.999612970317861,0.5,0.0833995239322224,0.5,0.5,0.997679664919589,0.5,0.5,0.5,0.5,0.986089038815757,0.5,0.5,0.5,0.5,0.986089038815757,0.986089038815757,0.0139109611842427,0.986089038815757,0.5,0.155774981127378,0.825715907045839,0.0139109611842427,0.0115906261038318,0.5,0.833200952135555,0.612105078555089,0.499843821095809,3.20246387147257,0.5,91.3664117803071
CBC_1029,CBC_1029_MSI_TV_v3_Vset3_Tset1_2023-07-21_17h25.06.255.csv,4,14,0,2,b,1,0,0,tac,A,27,1,0A,2A,1,0,b,1.78168219999861,1,0,1,1,0A,2A,A02,2.67414864942653,0.999612970317861,0.5,0.0833995239322224,0.5,0.5,0.997679664919589,0.5,0.5,0.5,0.5,0.997679664919589,0.5,0.5,0.5,0.5,0.986089038815757,0.999964772600513,3.52273994874697e-05,0.999612970317861,0.0833995239322224,0.325012376010031,0.832798602323702,0.000387029682138995,0.000322473499662932,0.5,0.833200952135555,0.612105078555089,0.499843821095809,3.20246387147257,0.5,91.3664117803071
CBC_1029,CBC_1029_MSI_TV_v3_Vset3_Tset1_2023-07-21_17h25.06.255.csv,4,15,1,0,b,1,0,3,tac,B,63,1,1B,0B,1,0,b,2.44466389999798,1,0,1,1,1B,0B,B10,2.70805020110221,0.999935443817524,0.5,0.0833995239322224,0.5,0.5,0.997679664919589,0.5,0.5,0.5,0.5,0.997679664919589,0.5,0.5,0.5,0.5,0.986089038815757,0.997679664919589,0.00232033508041096,0.997679664919589,0.5,0.223469149378391,0.830530814025543,0.00232033508041096,0.00193330539827194,0.5,0.833200952135555,0.612105078555089,0.499843821095809,3.20246387147257,0.5,91.3664117803071
CBC_1029,CBC_1029_MSI_TV_v3_Vset3_Tset1_2023-07-21_17h25.06.255.csv,4,16,0,1,z,0,1,3,tac,B,63,1,0B,1B,0,1,z,2.12040609999531,0,1,1,1,1B,0B,B01,2.7408400239252,0.999935443817524,0.5,0.0833995239322224,0.5,0.5,0.999612970317861,0.5,0.5,0.5,0.5,0.997679664919589,0.5,0.5,0.5,0.5,0.986089038815757,0.999612970317861,0.000387029682138995,0.999612970317861,0.5,0.271478631319165,0.833237301943206,0.000387029682138995,0.000322473499662932,0.5,0.833200952135555,0.612105078555089,0.499843821095809,3.20246387147257,0.5,91.3664117803071
CBC_1029,CBC_1029_MSI_TV_v3_Vset3_Tset1_2023-07-21_17h25.06.255.csv,4,17,3,2,z,0,1,1,tac,C,63,1,3C,2C,0,1,z,2.60835829999633,0,1,1,1,2C,3C,C32,2.36712361413162,0.999935443817524,0.5,0.0833995239322224,0.5,0.5,0.999935443817524,0.5,0.5,0.5,0.5,0.997679664919589,0.5,0.5,0.5,0.5,0.986089038815757,0.997679664919589,0.00232033508041096,0.997679664919589,0.5,0.202695227169365,0.830635731407683,0.00232033508041096,0.00193330539827194,0.5,0.833200952135555,0.612105078555089,0.499843821095809,3.20246387147257,0.5,91.3664117803071
CBC_1029,CBC_1029_MSI_TV_v3_Vset3_Tset1_2023-07-21_17h25.06.255.csv,4,18,3,1,b,1,0,2,tac,D,27,1,3D,1D,1,0,b,3.77117749999888,1,0,1,1,3D,1D,D31,3.49650756146648,0.999935443817524,0.5,0.0833995239322224,0.5,0.5,0.999935443817524,0.5,0.5,0.5,0.5,0.999612970317861,0.5,0.5,0.5,0.5,0.986089038815757,0.986089038815757,0.0139109611842427,0.986089038815757,0.5,0.100456130805548,0.826079464535649,0.0139109611842427,0.0115906261038318,0.5,0.833200952135555,0.612105078555089,0.499843821095809,3.20246387147257,0.5,91.3664117803071
CBC_1029,CBC_1029_MSI_TV_v3_Vset3_Tset1_2023-07-21_17h25.06.255.csv,4,19,1,2,z,0,1,1,tac,C,9,1,1C,2C,0,1,z,3.17852579999817,0,1,1,1,2C,1C,C12,3.52636052461616,0.999935443817524,0.5,0.0833995239322224,0.5,0.5,0.999935443817524,0.5,0.5,0.5,0.5,0.999612970317861,0.5,0.5,0.5,0.5,0.997679664919589,0.999612970317861,0.000387029682138995,0.999612970317861,0.5,0.143925228072274,0.832025367338321,0.000387029682138995,0.000322473499662932,0.5,0.833200952135555,0.612105078555089,0.499843821095809,3.20246387147257,0.5,91.3664117803071
CBC_1029,CBC_1029_MSI_TV_v3_Vset3_Tset1_2023-07-21_17h25.06.255.csv,4,20,3,1,z,0,1,3,tac,B,27,1,3B,1B,0,1,z,2.63280769999983,0,1,1,1,1B,3B,B31,3.55534806148941,0.999935443817524,0.5,0.0833995239322224,0.5,0.5,0.999935443817524,0.5,0.5,0.5,0.5,0.999935443817524,0.5,0.5,0.5,0.5,0.997679664919589,0.999935443817524,6.45561824760277e-05,0.999935443817524,0.5,0.200240509804193,0.832501849488027,6.45561824760277e-05,5.37882727052629e-05,0.5,0.833200952135555,0.612105078555089,0.499843821095809,3.20246387147257,0.5,91.3664117803071
CBC_1029,CBC_1029_MSI_TV_v3_Vset3_Tset1_2023-07-21_17h25.06.255.csv,4,21,3,2,b,1,0,2,tac,D,63,1,3D,2D,1,0,z,4.60329399999682,0,1,0,0,2D,3D,D32,3.58351893845611,0.999935443817524,0.5,0.0833995239322224,0.5,0.5,0.999989232090229,0.5,0.5,0.5,0.5,0.999935443817524,0.5,0.5,0.5,0.5,0.997679664919589,0.00232033508041096,0.997679664919589,0.5,0.997679664919589,0.01227012515427,0.168119567122212,-0.5,-0.416600476067778,0.5,0.833200952135555,0.612105078555089,0.499843821095809,3.20246387147257,0.5,91.3664117803071
CBC_1029,CBC_1029_MSI_TV_v3_Vset3_Tset1_2023-07-21_17h25.06.255.csv,4,22,1,0,b,1,0,3,tac,B,63,0,1B,0B,0,1,z,2.46265619999758,0,1,0,1,0B,1B,B10,2.51230562397611,0.999935443817524,0.5,0.0833995239322224,0.5,0.5,0.999989232090229,0.5,0.5,0.5,0.5,0.999935443817524,0.5,0.5,0.5,0.0833995239322224,0.997679664919589,1.07679097707258e-05,0.999989232090229,0.5,0.999989232090229,0.044845243140858,0.168406150474651,0.5,0.416600476067778,0.5,0.833200952135555,0.612105078555089,0.499843821095809,3.20246387147257,0.5,91.3664117803071
CBC_1029,CBC_1029_MSI_TV_v3_Vset3_Tset1_2023-07-21_17h25.06.255.csv,4,23,3,0,z,0,1,0,tac,A,9,1,3A,0A,0,1,z,1.34490409999853,0,1,1,1,0A,3A,A30,3.63758615972639,0.999935443817524,0.5,0.0833995239322224,0.5,0.916600476067778,0.999989232090229,0.5,0.5,0.5,0.5,0.999935443817524,0.5,0.5,0.5,0.0833995239322224,0.997679664919589,0.999935443817524,6.45561824760277e-05,0.999935443817524,0.5,0.360111793118104,0.832517452213728,6.45561824760277e-05,5.37882727052629e-05,0.5,0.833200952135555,0.612105078555089,0.499843821095809,3.20246387147257,0.5,91.3664117803071
CBC_1029,CBC_1029_MSI_TV_v3_Vset3_Tset1_2023-07-21_17h25.06.255.csv,4,24,2,3,z,0,1,2,tac,D,63,1,2D,3D,0,1,b,2.48271679999743,1,0,0,0,2D,3D,D23,2.9704144655697,0.999989232090229,0.5,0.0833995239322224,0.5,0.916600476067778,0.999989232090229,0.5,0.5,0.5,0.5,0.999935443817524,0.5,0.5,0.5,0.0833995239322224,0.997679664919589,0.000211568587213929,0.999788431412786,0.0833995239322224,0.997679664919589,0.044303566822988,0.168373308080908,-0.0833995239322224,-0.0694885627479798,0.5,0.833200952135555,0.612105078555089,0.499843821095809,3.20246387147257,0.5,91.3664117803071
CBC_1029,CBC_1029_MSI_TV_v3_Vset3_Tset1_2023-07-21_17h25.06.255.csv,4,25,1,3,b,1,0,3,tac,B,27,1,1B,3B,1,0,b,2.66518200000064,1,0,1,1,1B,3B,B13,3.68887945411394,0.999989232090229,0.5,0.0833995239322224,0.5,0.916600476067778,0.999989232090229,0.5,0.5,0.5,0.5,0.999935443817524,0.5,0.5,0.5,0.0139109611842427,0.997679664919589,0.999989232090229,1.07679097707258e-05,0.999989232090229,0.5,0.196150762166636,0.831609449664077,1.07679097707258e-05,8.97183267347851e-06,0.5,0.833200952135555,0.612105078555089,0.499843821095809,3.20246387147257,0.5,91.3664117803071
CBC_1029,CBC_1029_MSI_TV_v3_Vset3_Tset1_2023-07-21_17h25.06.255.csv,4,26,2,3,b,1,0,1,tac,C,63,1,2C,3C,1,0,z,3.01885649999531,0,1,0,0,3C,2C,C23,3.71357206670431,0.999989232090229,0.5,0.0833995239322224,0.5,0.916600476067778,0.999998203922903,0.5,0.5,0.5,0.5,0.999935443817524,0.5,0.5,0.5,0.0139109611842427,0.997679664919589,6.45561824760277e-05,0.999935443817524,0.5,0.999935443817524,0.0319226553843641,0.16756727722474,-0.5,-0.416600476067778,0.5,0.833200952135555,0.612105078555089,0.499843821095809,3.20246387147257,0.5,91.3664117803071
CBC_1029,CBC_1029_MSI_TV_v3_Vset3_Tset1_2023-07-21_17h25.06.255.csv,4,27,2,0,b,1,0,1,tac,C,27,1,2C,0C,1,0,b,2.38424549999763,1,0,1,1,2C,0C,C20,3.04452243772342,0.999989232090229,0.5,0.0833995239322224,0.5,0.916600476067778,0.999998203922903,0.5,0.5,0.5,0.5,0.999935443817524,0.0833995239322224,0.5,0.5,0.0139109611842427,0.997679664919589,0.999935443817524,6.45561824760277e-05,0.999935443817524,0.5,0.232376384851972,0.832563914339147,6.45561824760277e-05,5.37882727052629e-05,0.5,0.833200952135555,0.612105078555089,0.499843821095809,3.20246387147257,0.5,91.3664117803071
CBC_1029,CBC_1029_MSI_TV_v3_Vset3_Tset1_2023-07-21_17h25.06.255.csv,4,28,0,1,z,0,1,3,tac,B,63,1,0B,1B,0,1,z,2.35138580000057,0,1,1,1,1B,0B,B01,2.66258782702545,0.999989232090229,0.5,0.0833995239322224,0.5,0.916600476067778,0.999998203922903,0.5,0.5,0.5,0.5,0.999989232090229,0.0833995239322224,0.5,0.5,0.0139109611842427,0.997679664919589,0.999980260611752,1.97393882474917e-05,0.999998203922903,0.916600476067778,0.236614297484221,0.831697727187289,1.79607709727136e-06,1.49649314755536e-06,0.5,0.833200952135555,0.612105078555089,0.499843821095809,3.20246387147257,0.5,91.3664117803071
CBC_1029,CBC_1029_MSI_TV_v3_Vset3_Tset1_2023-07-21_17h25.06.255.csv,4,29,2,3,b,1,0,1,tac,C,63,1,2C,3C,1,0,z,3.90295699999842,0,1,0,0,3C,2C,C23,3.09104245335832,0.999989232090229,0.5,0.0833995239322224,0.5,0.916600476067778,0.99999970041605,0.5,0.5,0.5,0.5,0.999989232090229,0.0833995239322224,0.5,0.5,0.0139109611842427,0.997679664919589,9.7975875235079e-07,0.999999020241248,0.0833995239322224,0.999989232090229,0.0187900093884959,0.168379846367428,-0.0833995239322224,-0.0694885627479798,0.5,0.833200952135555,0.612105078555089,0.499843821095809,3.20246387147257,0.5,91.3664117803071
CBC_1029,CBC_1029_MSI_TV_v3_Vset3_Tset1_2023-07-21_17h25.06.255.csv,4,30,1,0,z,0,1,0,tac,A,63,1,1A,0A,0,1,z,0.866024599999946,0,1,1,1,0A,1A,A10,2.70805020110221,0.999989232090229,0.5,0.0833995239322224,0.5,0.916600476067778,0.99999970041605,0.5,0.5,0.5,0.5,0.999989232090229,0.0139109611842427,0.5,0.5,0.0139109611842427,0.997679664919589,0.999989232090229,1.07679097707258e-05,0.999989232090229,0.5,0.0691555478230535,0.832347671552422,1.07679097707258e-05,8.97183267347851e-06,0.5,0.833200952135555,0.612105078555089,0.499843821095809,3.20246387147257,0.5,91.3664117803071
CBC_1029,CBC_1029_MSI_TV_v3_Vset3_Tset1_2023-07-21_17h25.06.255.csv,4,31,2,3,z,0,1,2,tac,D,63,1,2D,3D,0,1,z,3.73478819999946,0,1,1,1,3D,2D,D23,2.73002910782099,0.999998203922903,0.5,0.0833995239322224,0.5,0.916600476067778,0.99999970041605,0.5,0.5,0.5,0.5,0.999989232090229,0.0139109611842427,0.5,0.5,0.0139109611842427,0.997679664919589,0.999967191502307,3.28084976927184e-05,0.997679664919589,0.0139109611842427,0.102744599277724,0.831068716839703,0.00232033508041096,0.00193330539827194,0.5,0.833200952135555,0.612105078555089,0.499843821095809,3.20246387147257,0.5,91.3664117803071
CBC_1029,CBC_1029_MSI_TV_v3_Vset3_Tset1_2023-07-21_17h25.06.255.csv,4,32,2,3,b,1,0,1,tac,C,63,1,2C,3C,1,0,z,4.09980469999937,0,1,0,0,3C,2C,C23,2.75153531304195,0.999998203922903,0.5,0.0833995239322224,0.5,0.916600476067778,0.99999970041605,0.5,0.5,0.5,0.5,0.999989232090229,0.0139109611842427,0.5,0.5,0.0139109611842427,0.999612970317861,1.51906733747431e-07,0.999999848093266,0.0139109611842427,0.999989232090229,0.0167361097387512,0.168841953583411,-0.0139109611842427,-0.0115906261038318,0.5,0.833200952135555,0.612105078555089,0.499843821095809,3.20246387147257,0.5,91.3664117803071
CBC_1029,CBC_1029_MSI_TV_v3_Vset3_Tset1_2023-07-21_17h25.06.255.csv,4,33,3,1,b,1,0,2,tac,D,27,1,3D,1D,1,0,b,3.25502969999798,1,0,1,1,3D,1D,D31,3.17805383034795,0.999998203922903,0.5,0.0833995239322224,0.5,0.916600476067778,0.99999970041605,0.5,0.5,0.5,0.5,0.999989232090229,0.00232033508041093,0.5,0.5,0.0139109611842427,0.999612970317861,0.999612970317861,0.000387029682138995,0.999612970317861,0.5,0.137331213574928,0.831112228743698,0.000387029682138995,0.000322473499662932,0.5,0.833200952135555,0.612105078555089,0.499843821095809,3.20246387147257,0.5,91.3664117803071
CBC_1029,CBC_1029_MSI_TV_v3_Vset3_Tset1_2023-07-21_17h25.06.255.csv,4,34,0,2,z,0,1,1,tac,C,27,1,0C,2C,0,1,z,1.8960511999976,0,1,1,1,2C,0C,C02,3.89182029811063,0.999998203922903,0.5,0.0833995239322224,0.5,0.916600476067778,0.99999970041605,0.5,0.5,0.5,0.5,0.999989232090229,0.00232033508041093,0.5,0.5,0.0139109611842427,0.999935443817524,0.999989232090229,1.07679097707258e-05,0.999989232090229,0.5,0.306199089865541,0.831682950889984,1.07679097707258e-05,8.97183267347851e-06,0.5,0.833200952135555,0.612105078555089,0.499843821095809,3.20246387147257,0.5,91.3664117803071
CBC_1029,CBC_1029_MSI_TV_v3_Vset3_Tset1_2023-07-21_17h25.06.255.csv,4,35,2,3,z,0,1,2,tac,D,63,0,2D,3D,1,0,b,2.9911744999954,1,0,0,1,2D,3D,D23,2.52572864430826,0.999998203922903,0.5,0.0833995239322224,0.5,0.916600476067778,0.99999970041605,0.5,0.5,0.5,0.5,0.999998203922903,0.00232033508041093,0.5,0.5,0.0139109611842427,0.999935443817524,9.10765329501615e-07,0.999999089234671,0.0139109611842427,0.999935443817524,0.0326653115795109,0.168569303931749,0.986089038815757,0.821610326031723,0.5,0.833200952135555,0.612105078555089,0.499843821095809,3.20246387147257,0.5,91.3664117803071
CBC_1029,CBC_1029_MSI_TV_v3_Vset3_Tset1_2023-07-21_17h25.06.255.csv,4,36,1,0,z,0,1,0,tac,A,63,1,1A,0A,0,1,z,0.915139999997336,0,1,1,1,0A,1A,A10,2.54553127160444,0.999998203922903,0.5,0.0833995239322224,0.5,0.916600476067778,0.99999970041605,0.5,0.5,0.5,0.5,0.999998203922903,0.00232033508041093,0.5,0.5,0.835521287215966,0.999935443817524,0.999998203922903,1.79607709727136e-06,0.999998203922903,0.5,0.119636822860185,0.832719214546063,1.79607709727136e-06,1.49649314755536e-06,0.5,0.833200952135555,0.612105078555089,0.499843821095809,3.20246387147257,0.5,91.3664117803071
CBC_1029,CBC_1029_MSI_TV_v3_Vset3_Tset1_2023-07-21_17h25.06.255.csv,4,37,2,3,b,1,0,1,tac,C,63,1,2C,3C,1,0,b,3.15939409999555,1,0,1,1,2C,3C,C23,2.56494935746154,0.99999970041605,0.5,0.0833995239322224,0.5,0.916600476067778,0.99999970041605,0.5,0.5,0.5,0.5,0.999998203922903,0.00232033508041093,0.5,0.5,0.835521287215966,0.999935443817524,0.999999995822799,4.17720069645355e-09,0.999998203922903,0.00232033508041093,0.145611130616301,0.832112362486976,1.79607709727136e-06,1.49649314755536e-06,0.5,0.833200952135555,0.612105078555089,0.499843821095809,3.20246387147257,0.5,91.3664117803071
CBC_1029,CBC_1029_MSI_TV_v3_Vset3_Tset1_2023-07-21_17h25.06.255.csv,4,38,0,2,b,1,0,0,tac,A,27,1,0A,2A,1,0,b,1.16449740000098,1,0,1,1,0A,2A,A02,2.87167962488401,0.99999970041605,0.5,0.0833995239322224,0.5,0.916600476067778,0.99999970041605,0.5,0.5,0.5,0.5,0.99999970041605,0.00232033508041093,0.5,0.5,0.835521287215966,0.999935443817524,0.999999972741487,2.72585125582481e-08,0.99999970041605,0.0833995239322224,0.317968787589848,0.832633785069692,2.99583949758819e-07,2.49613632183579e-07,0.5,0.833200952135555,0.612105078555089,0.499843821095809,3.20246387147257,0.5,91.3664117803071
CBC_1029,CBC_1029_MSI_TV_v3_Vset3_Tset1_2023-07-21_17h25.06.255.csv,4,39,2,3,z,0,1,2,tac,D,63,1,2D,3D,0,1,z,2.38760069999989,0,1,1,1,3D,2D,D23,2.37954613413017,0.999999950029682,0.5,0.0833995239322224,0.5,0.916600476067778,0.99999970041605,0.5,0.5,0.5,0.5,0.99999970041605,0.00232033508041093,0.5,0.5,0.835521287215966,0.999935443817524,0.99967215294034,0.00032784705966001,0.999935443817524,0.835521287215966,0.231235807853651,0.830729856620994,6.45561824760277e-05,5.37882727052629e-05,0.5,0.833200952135555,0.612105078555089,0.499843821095809,3.20246387147257,0.5,91.3664117803071
CBC_1029,CBC_1029_MSI_TV_v3_Vset3_Tset1_2023-07-21_17h25.06.255.csv,4,40,3,2,b,1,0,2,tac,D,63,1,3D,2D,1,0,b,2.37364089999755,1,0,1,1,3D,2D,D32,3.31418600467253,0.999999950029682,0.5,0.0833995239322224,0.5,0.916600476067778,0.99999970041605,0.5,0.5,0.5,0.5,0.99999970041605,0.00232033508041093,0.5,0.5,0.835521287215966,0.999989232090229,0.999945303422811,5.46965771892616e-05,0.999989232090229,0.835521287215966,0.233679688724478,0.832127457012296,1.07679097707258e-05,8.97183267347851e-06,0.5,0.833200952135555,0.612105078555089,0.499843821095809,3.20246387147257,0.5,91.3664117803071
CBC_1029,CBC_1029_MSI_TV_v3_Vset3_Tset1_2023-07-21_17h25.06.255.csv,4,41,3,1,z,0,1,3,tac,B,27,1,3B,1B,0,1,z,1.61297369999738,0,1,1,1,1B,3B,B31,3.3322045101752,0.999999950029682,0.5,0.0833995239322224,0.5,0.916600476067778,0.99999970041605,0.5,0.5,0.5,0.5,0.99999970041605,0.00232033508041093,0.5,0.5,0.835521287215966,0.999998203922903,0.99999970041605,2.99583949758819e-07,0.99999970041605,0.5,0.34783927127352,0.831747852195533,2.99583949758819e-07,2.49613632183579e-07,0.5,0.833200952135555,0.612105078555089,0.499843821095809,3.20246387147257,0.5,91.3664117803071
CBC_1029,CBC_1029_MSI_TV_v3_Vset3_Tset1_2023-07-21_17h25.06.255.csv,4,42,3,0,b,1,0,2,tac,D,9,1,3D,0D,1,0,b,2.30805249999685,1,0,1,1,3D,0D,D30,4.04305126783455,0.999999950029682,0.5,0.0833995239322224,0.5,0.916600476067778,0.999999950029682,0.5,0.5,0.5,0.5,0.99999970041605,0.00232033508041093,0.5,0.5,0.835521287215966,0.999998203922903,0.999998203922903,1.79607709727136e-06,0.999998203922903,0.5,0.242812305108827,0.831869892284032,1.79607709727136e-06,1.49649314755536e-06,0.5,0.833200952135555,0.612105078555089,0.499843821095809,3.20246387147257,0.5,91.3664117803071
CBC_1029,CBC_1029_MSI_TV_v3_Vset3_Tset1_2023-07-21_17h25.06.255.csv,4,43,0,1,z,0,1,3,tac,B,63,1,0B,1B,0,1,z,1.42423599999893,0,1,1,1,1B,0B,B01,2.67414864942653,0.999999950029682,0.5,0.0833995239322224,0.5,0.916600476067778,0.999999950029682,0.5,0.5,0.5,0.5,0.99999970041605,0.00232033508041093,0.5,0.5,0.835521287215966,0.99999970041605,0.999999450802692,5.49197307496174e-07,0.999999950029682,0.916600476067778,0.362343648772776,0.832303197985305,4.99703175504962e-08,4.16353161615895e-08,0.5,0.833200952135555,0.612105078555089,0.499843821095809,3.20246387147257,0.5,91.3664117803071
CBC_1029,CBC_1029_MSI_TV_v3_Vset3_Tset1_2023-07-21_17h25.06.255.csv,4,44,0,1,b,1,0,0,tac,A,63,1,0A,1A,1,0,b,2.74813119999453,1,0,1,1,0A,1A,A01,2.97892515523761,0.999999950029682,0.5,0.0833995239322224,0.5,0.916600476067778,0.999999991664999,0.5,0.5,0.5,0.5,0.99999970041605,0.00232033508041093,0.5,0.5,0.835521287215966,0.99999970041605,0.999999950029682,4.99703175504962e-08,0.999999950029682,0.5,0.186793761947954,0.832486248410827,4.99703175504962e-08,4.16353161615895e-08,0.5,0.833200952135555,0.612105078555089,0.499843821095809,3.20246387147257,0.5,91.3664117803071
