ID,filename,session,trial,visStimLeft,visStimRight,correctKey,leftCorrect,rightCorrect,secondStim,mod2Type,mod2Stim,frequency,rewardAccurate,stimPairLeft,stimPairRight,pCorrectLeft,pCorrectRight,key,reactionTime,choiceLeft,choiceRight,choiceAccurate,reward,chosenPair,otherPair,triplet,surprise,0A belief,1A belief,2A belief,3A belief,0B belief,1B belief,2B belief,3B belief,0C belief,1C belief,2C belief,3C belief,0D belief,1D belief,2D belief,3D belief,beliefPairNorm,beliefOtherPairNorm,beliefPair,beliefOtherPair,lik,corrLik,rewardPE,update2,fitCBCsimpleRW_CBCdriftDiffusionLR_startBelief,fitCBCsimpleRW_CBCdriftDiffusionLR_alpha1,fitCBCsimpleRW_CBCdriftDiffusionLR_nonDecisionTime,fitCBCsimpleRW_CBCdriftDiffusionLR_weight,fitCBCsimpleRW_CBCdriftDiffusionLR_startingBoundary,fitCBCsimpleRW_CBCdriftDiffusionLR_startingPoint,fit_CBCsimpleRW_CBCdriftDiffusionLR_NLL
CBC_1029,CBC_1029_MSI_AV_v3_Vset2_Aset2_2023-07-21_14h51.03.497.csv,1,1,0,1,b,1,0,0,aud,A,63,1,0A,1A,1,0,z,2.53555319999941,0,1,0,0,1A,0A,A01,2.77258872223978,0.5,0.5,0.5,0.5,0.5,0.5,0.5,0.5,0.5,0.5,0.5,0.5,0.5,0.5,0.5,0.5,0.5,0.5,0.5,0.5,0.160823571193838,0.499614621554778,-0.5,-0.0271693285549048,0.5,0.0543386571098096,1.09755969779884,1.11296300672949,2.47346073446187,0.5,81.6919317021102
CBC_1029,CBC_1029_MSI_AV_v3_Vset2_Aset2_2023-07-21_14h51.03.497.csv,1,2,3,2,z,0,1,1,aud,C,63,1,3C,2C,0,1,z,3.65741829999934,0,1,1,1,2C,3C,C32,2.83321334405622,0.5,0.472830671445095,0.5,0.5,0.5,0.5,0.5,0.5,0.5,0.5,0.5,0.5,0.5,0.5,0.5,0.5,0.5,0.5,0.5,0.5,0.0650672336495082,0.499481314238636,0.5,0.0271693285549048,0.5,0.0543386571098096,1.09755969779884,1.11296300672949,2.47346073446187,0.5,81.6919317021102
CBC_1029,CBC_1029_MSI_AV_v3_Vset2_Aset2_2023-07-21_14h51.03.497.csv,1,3,0,2,b,1,0,0,aud,A,27,1,0A,2A,1,0,b,2.44632450000063,1,0,1,1,0A,2A,A02,2.89037175789616,0.5,0.472830671445095,0.5,0.5,0.5,0.5,0.5,0.5,0.5,0.5,0.527169328554905,0.5,0.5,0.5,0.5,0.5,0.5,0.5,0.5,0.5,0.173171799665271,0.500726060834583,0.5,0.0271693285549048,0.5,0.0543386571098096,1.09755969779884,1.11296300672949,2.47346073446187,0.5,81.6919317021102
CBC_1029,CBC_1029_MSI_AV_v3_Vset2_Aset2_2023-07-21_14h51.03.497.csv,1,4,1,0,b,1,0,3,aud,B,63,1,1B,0B,1,0,b,2.63816149999911,1,0,1,1,1B,0B,B10,2.94443897916644,0.527169328554905,0.472830671445095,0.5,0.5,0.5,0.5,0.5,0.5,0.5,0.5,0.527169328554905,0.5,0.5,0.5,0.5,0.5,0.5,0.5,0.5,0.5,0.1483164290795,0.500448977948712,0.5,0.0271693285549048,0.5,0.0543386571098096,1.09755969779884,1.11296300672949,2.47346073446187,0.5,81.6919317021102
CBC_1029,CBC_1029_MSI_AV_v3_Vset2_Aset2_2023-07-21_14h51.03.497.csv,1,5,0,1,z,0,1,3,aud,B,63,1,0B,1B,0,1,z,1.47881809999853,0,1,1,1,1B,0B,B01,2.99573227355399,0.527169328554905,0.472830671445095,0.5,0.5,0.5,0.527169328554905,0.5,0.5,0.5,0.5,0.527169328554905,0.5,0.5,0.5,0.5,0.5,0.513225340652027,0.486774659347973,0.527169328554905,0.5,0.292627414179157,0.518605697182249,0.472830671445095,0.0256929837266561,0.5,0.0543386571098096,1.09755969779884,1.11296300672949,2.47346073446187,0.5,81.6919317021102
CBC_1029,CBC_1029_MSI_AV_v3_Vset2_Aset2_2023-07-21_14h51.03.497.csv,1,6,3,2,z,0,1,1,aud,C,63,1,3C,2C,0,1,b,2.46306419999928,1,0,0,0,3C,2C,C32,2.35137525716348,0.527169328554905,0.472830671445095,0.5,0.5,0.5,0.552862312281561,0.5,0.5,0.5,0.5,0.527169328554905,0.5,0.5,0.5,0.5,0.5,0.486774659347973,0.513225340652027,0.5,0.527169328554905,0.164426924128267,0.481844782212412,-0.5,-0.0271693285549048,0.5,0.0543386571098096,1.09755969779884,1.11296300672949,2.47346073446187,0.5,81.6919317021102
CBC_1029,CBC_1029_MSI_AV_v3_Vset2_Aset2_2023-07-21_14h51.03.497.csv,1,7,3,1,b,1,0,2,aud,D,27,1,3D,1D,1,0,z,2.91480769999907,0,1,0,0,1D,3D,D31,3.09104245335832,0.527169328554905,0.472830671445095,0.5,0.5,0.5,0.552862312281561,0.5,0.5,0.5,0.5,0.527169328554905,0.472830671445095,0.5,0.5,0.5,0.5,0.5,0.5,0.5,0.5,0.118407582807673,0.499353326787733,-0.5,-0.0271693285549048,0.5,0.0543386571098096,1.09755969779884,1.11296300672949,2.47346073446187,0.5,81.6919317021102
CBC_1029,CBC_1029_MSI_AV_v3_Vset2_Aset2_2023-07-21_14h51.03.497.csv,1,8,1,2,z,0,1,1,aud,C,9,1,1C,2C,0,1,z,2.15106249999917,0,1,1,1,2C,1C,C12,3.13549421592915,0.527169328554905,0.472830671445095,0.5,0.5,0.5,0.552862312281561,0.5,0.5,0.5,0.5,0.527169328554905,0.472830671445095,0.5,0.472830671445095,0.5,0.5,0.513225340652027,0.486774659347973,0.527169328554905,0.5,0.227105857209621,0.518876339119834,0.472830671445095,0.0256929837266561,0.5,0.0543386571098096,1.09755969779884,1.11296300672949,2.47346073446187,0.5,81.6919317021102
CBC_1029,CBC_1029_MSI_AV_v3_Vset2_Aset2_2023-07-21_14h51.03.497.csv,1,9,3,1,z,0,1,3,aud,B,27,1,3B,1B,0,1,z,3.11267210000005,0,1,1,1,1B,3B,B31,3.17805383034795,0.527169328554905,0.472830671445095,0.5,0.5,0.5,0.552862312281561,0.5,0.5,0.5,0.5,0.552862312281561,0.472830671445095,0.5,0.472830671445095,0.5,0.5,0.525104095599646,0.474895904400354,0.552862312281561,0.5,0.107854584141581,0.533938573208849,0.447137687718439,0.0242968614938054,0.5,0.0543386571098096,1.09755969779884,1.11296300672949,2.47346073446187,0.5,81.6919317021102
CBC_1029,CBC_1029_MSI_AV_v3_Vset2_Aset2_2023-07-21_14h51.03.497.csv,1,10,3,2,b,1,0,2,aud,D,63,1,3D,2D,1,0,b,1.73663420000048,1,0,1,1,3D,2D,D32,3.2188758248682,0.527169328554905,0.472830671445095,0.5,0.5,0.5,0.577159173775366,0.5,0.5,0.5,0.5,0.552862312281561,0.472830671445095,0.5,0.472830671445095,0.5,0.5,0.5,0.5,0.5,0.5,0.291532168277423,0.499561970762794,0.5,0.0271693285549048,0.5,0.0543386571098096,1.09755969779884,1.11296300672949,2.47346073446187,0.5,81.6919317021102
CBC_1029,CBC_1029_MSI_AV_v3_Vset2_Aset2_2023-07-21_14h51.03.497.csv,1,11,1,0,b,1,0,3,aud,B,63,1,1B,0B,1,0,z,1.93121780000001,0,1,0,0,0B,1B,B10,2.56494935746154,0.527169328554905,0.472830671445095,0.5,0.5,0.5,0.577159173775366,0.5,0.5,0.5,0.5,0.552862312281561,0.472830671445095,0.5,0.472830671445095,0.5,0.527169328554905,0.46418394994264,0.53581605005736,0.5,0.577159173775366,0.233727619827908,0.4511013727533,-0.5,-0.0271693285549048,0.5,0.0543386571098096,1.09755969779884,1.11296300672949,2.47346073446187,0.5,81.6919317021102
CBC_1029,CBC_1029_MSI_AV_v3_Vset2_Aset2_2023-07-21_14h51.03.497.csv,1,12,0,2,z,0,1,1,aud,C,27,1,0C,2C,0,1,z,2.61304679999921,0,1,1,1,2C,0C,C02,3.29583686600433,0.527169328554905,0.472830671445095,0.5,0.5,0.472830671445095,0.577159173775366,0.5,0.5,0.5,0.5,0.552862312281561,0.472830671445095,0.5,0.472830671445095,0.5,0.527169328554905,0.525104095599646,0.474895904400354,0.552862312281561,0.5,0.161737699539497,0.5347936885049,0.447137687718439,0.0242968614938054,0.5,0.0543386571098096,1.09755969779884,1.11296300672949,2.47346073446187,0.5,81.6919317021102
CBC_1029,CBC_1029_MSI_AV_v3_Vset2_Aset2_2023-07-21_14h51.03.497.csv,1,13,3,2,b,1,0,2,aud,D,63,0,3D,2D,0,1,b,2.77919079999992,1,0,1,0,3D,2D,D32,2.63905732961526,0.527169328554905,0.472830671445095,0.5,0.5,0.472830671445095,0.577159173775366,0.5,0.5,0.5,0.5,0.577159173775366,0.472830671445095,0.5,0.472830671445095,0.5,0.527169328554905,0.513225340652027,0.486774659347973,0.527169328554905,0.5,0.1371222254447,0.518409906134389,-0.527169328554905,-0.0286456733831535,0.5,0.0543386571098096,1.09755969779884,1.11296300672949,2.47346073446187,0.5,81.6919317021102
CBC_1029,CBC_1029_MSI_AV_v3_Vset2_Aset2_2023-07-21_14h51.03.497.csv,1,14,1,0,z,0,1,0,aud,A,63,1,1A,0A,0,1,z,3.11643209999966,0,1,1,1,0A,1A,A10,3.36729582998647,0.527169328554905,0.472830671445095,0.5,0.5,0.472830671445095,0.577159173775366,0.5,0.5,0.5,0.5,0.577159173775366,0.472830671445095,0.5,0.472830671445095,0.5,0.498523655171751,0.527169328554905,0.472830671445095,0.527169328554905,0.472830671445095,0.108072909978619,0.536715639733099,0.472830671445095,0.0256929837266561,0.5,0.0543386571098096,1.09755969779884,1.11296300672949,2.47346073446187,0.5,81.6919317021102
CBC_1029,CBC_1029_MSI_AV_v3_Vset2_Aset2_2023-07-21_14h51.03.497.csv,1,15,2,3,b,1,0,1,aud,C,63,1,2C,3C,1,0,z,3.12212129999898,0,1,0,0,3C,2C,C23,3.40119738166216,0.552862312281561,0.472830671445095,0.5,0.5,0.472830671445095,0.577159173775366,0.5,0.5,0.5,0.5,0.577159173775366,0.472830671445095,0.5,0.472830671445095,0.5,0.498523655171751,0.450319280322008,0.549680719677992,0.472830671445095,0.577159173775366,0.0863683542878336,0.431849811948451,-0.472830671445095,-0.0256929837266561,0.5,0.0543386571098096,1.09755969779884,1.11296300672949,2.47346073446187,0.5,81.6919317021102
CBC_1029,CBC_1029_MSI_AV_v3_Vset2_Aset2_2023-07-21_14h51.03.497.csv,1,16,0,2,b,1,0,0,aud,A,27,1,0A,2A,1,0,b,3.35502400000041,1,0,1,1,0A,2A,A02,2.7408400239252,0.552862312281561,0.472830671445095,0.5,0.5,0.472830671445095,0.577159173775366,0.5,0.5,0.5,0.5,0.577159173775366,0.447137687718439,0.5,0.472830671445095,0.5,0.498523655171751,0.525104095599646,0.474895904400354,0.552862312281561,0.5,0.0887799320886105,0.534613765968486,0.447137687718439,0.0242968614938054,0.5,0.0543386571098096,1.09755969779884,1.11296300672949,2.47346073446187,0.5,81.6919317021102
CBC_1029,CBC_1029_MSI_AV_v3_Vset2_Aset2_2023-07-21_14h51.03.497.csv,1,17,2,3,z,0,1,2,aud,D,63,1,2D,3D,0,1,z,1.76026009999805,0,1,1,1,3D,2D,D23,3.46573590279973,0.577159173775366,0.472830671445095,0.5,0.5,0.472830671445095,0.577159173775366,0.5,0.5,0.5,0.5,0.577159173775366,0.447137687718439,0.5,0.472830671445095,0.5,0.498523655171751,0.499260736177555,0.500739263822445,0.498523655171751,0.5,0.288106862296606,0.499590522935783,0.501476344828249,0.0272495511503028,0.5,0.0543386571098096,1.09755969779884,1.11296300672949,2.47346073446187,0.5,81.6919317021102
CBC_1029,CBC_1029_MSI_AV_v3_Vset2_Aset2_2023-07-21_14h51.03.497.csv,1,18,3,2,b,1,0,2,aud,D,63,1,3D,2D,1,0,z,1.54740149999998,0,1,0,0,2D,3D,D32,2.39789527279837,0.577159173775366,0.472830671445095,0.5,0.5,0.472830671445095,0.577159173775366,0.5,0.5,0.5,0.5,0.577159173775366,0.447137687718439,0.5,0.472830671445095,0.5,0.525773206322054,0.487437180965925,0.512562819034075,0.5,0.525773206322054,0.288653187572829,0.482940860110748,-0.5,-0.0271693285549048,0.5,0.0543386571098096,1.09755969779884,1.11296300672949,2.47346073446187,0.5,81.6919317021102
CBC_1029,CBC_1029_MSI_AV_v3_Vset2_Aset2_2023-07-21_14h51.03.497.csv,1,19,3,1,z,0,1,3,aud,B,27,1,3B,1B,0,1,z,2.85014949999822,0,1,1,1,1B,3B,B31,2.83321334405622,0.577159173775366,0.472830671445095,0.5,0.5,0.472830671445095,0.577159173775366,0.5,0.5,0.5,0.5,0.577159173775366,0.447137687718439,0.5,0.472830671445095,0.472830671445095,0.525773206322054,0.53581605005736,0.46418394994264,0.577159173775366,0.5,0.136941929527503,0.548560047553652,0.422840826224634,0.0229766026682489,0.5,0.0543386571098096,1.09755969779884,1.11296300672949,2.47346073446187,0.5,81.6919317021102
CBC_1029,CBC_1029_MSI_AV_v3_Vset2_Aset2_2023-07-21_14h51.03.497.csv,1,20,0,3,z,0,1,2,aud,D,9,1,0D,3D,0,1,b,2.49632679999922,1,0,0,0,0D,3D,D03,3.55534806148941,0.577159173775366,0.472830671445095,0.5,0.5,0.472830671445095,0.600135776443615,0.5,0.5,0.5,0.5,0.577159173775366,0.447137687718439,0.5,0.472830671445095,0.472830671445095,0.525773206322054,0.487437180965925,0.512562819034075,0.5,0.525773206322054,0.160383117991803,0.482742945816613,-0.5,-0.0271693285549048,0.5,0.0543386571098096,1.09755969779884,1.11296300672949,2.47346073446187,0.5,81.6919317021102
CBC_1029,CBC_1029_MSI_AV_v3_Vset2_Aset2_2023-07-21_14h51.03.497.csv,1,21,1,0,b,1,0,3,aud,B,63,1,1B,0B,1,0,z,1.91469479999978,0,1,0,0,0B,1B,B10,2.484906649788,0.577159173775366,0.472830671445095,0.5,0.5,0.472830671445095,0.600135776443615,0.5,0.5,0.5,0.5,0.577159173775366,0.447137687718439,0.472830671445095,0.472830671445095,0.472830671445095,0.525773206322054,0.440676101639049,0.559323898360951,0.472830671445095,0.600135776443615,0.22092678696793,0.41979215018093,-0.472830671445095,-0.0256929837266561,0.5,0.0543386571098096,1.09755969779884,1.11296300672949,2.47346073446187,0.5,81.6919317021102
CBC_1029,CBC_1029_MSI_AV_v3_Vset2_Aset2_2023-07-21_14h51.03.497.csv,1,22,1,0,z,0,1,0,aud,A,63,1,1A,0A,0,1,z,2.38374779999867,0,1,1,1,0A,1A,A10,2.91777073208428,0.577159173775366,0.472830671445095,0.5,0.5,0.447137687718439,0.600135776443615,0.5,0.5,0.5,0.5,0.577159173775366,0.447137687718439,0.472830671445095,0.472830671445095,0.472830671445095,0.525773206322054,0.549680719677992,0.450319280322008,0.577159173775366,0.472830671445095,0.20671024690452,0.567603405332196,0.422840826224634,0.0229766026682489,0.5,0.0543386571098096,1.09755969779884,1.11296300672949,2.47346073446187,0.5,81.6919317021102
CBC_1029,CBC_1029_MSI_AV_v3_Vset2_Aset2_2023-07-21_14h51.03.497.csv,1,23,2,3,b,1,0,1,aud,C,63,1,2C,3C,1,0,z,1.66331419999915,0,1,0,0,3C,2C,C23,2.94443897916644,0.600135776443615,0.472830671445095,0.5,0.5,0.447137687718439,0.600135776443615,0.5,0.5,0.5,0.5,0.577159173775366,0.447137687718439,0.472830671445095,0.472830671445095,0.472830671445095,0.525773206322054,0.436531346065384,0.563468653934616,0.447137687718439,0.577159173775366,0.250437822865918,0.413378380512027,-0.447137687718439,-0.0242968614938054,0.5,0.0543386571098096,1.09755969779884,1.11296300672949,2.47346073446187,0.5,81.6919317021102
CBC_1029,CBC_1029_MSI_AV_v3_Vset2_Aset2_2023-07-21_14h51.03.497.csv,1,24,0,2,b,1,0,0,aud,A,27,1,0A,2A,1,0,b,3.37110229999962,1,0,1,1,0A,2A,A02,2.56494935746154,0.600135776443615,0.472830671445095,0.5,0.5,0.447137687718439,0.600135776443615,0.5,0.5,0.5,0.5,0.577159173775366,0.422840826224634,0.472830671445095,0.472830671445095,0.472830671445095,0.525773206322054,0.545510644498501,0.454489355501499,0.600135776443615,0.5,0.0918719836569304,0.561939290643423,0.399864223556385,0.0217280849343106,0.5,0.0543386571098096,1.09755969779884,1.11296300672949,2.47346073446187,0.5,81.6919317021102
CBC_1029,CBC_1029_MSI_AV_v3_Vset2_Aset2_2023-07-21_14h51.03.497.csv,1,25,1,0,b,1,0,3,aud,B,63,1,1B,0B,1,0,b,3.08375579999847,1,0,1,1,1B,0B,B10,2.30258509299405,0.621863861377926,0.472830671445095,0.5,0.5,0.447137687718439,0.600135776443615,0.5,0.5,0.5,0.5,0.577159173775366,0.422840826224634,0.472830671445095,0.472830671445095,0.472830671445095,0.525773206322054,0.573045911101926,0.426954088898073,0.600135776443615,0.447137687718439,0.123256343880094,0.599382169762716,0.399864223556385,0.0217280849343106,0.5,0.0543386571098096,1.09755969779884,1.11296300672949,2.47346073446187,0.5,81.6919317021102
CBC_1029,CBC_1029_MSI_AV_v3_Vset2_Aset2_2023-07-21_14h51.03.497.csv,1,26,2,3,z,0,1,2,aud,D,63,1,2D,3D,0,1,b,2.9254959000009,1,0,0,0,2D,3D,D23,3.02042488614436,0.621863861377926,0.472830671445095,0.5,0.5,0.447137687718439,0.621863861377926,0.5,0.5,0.5,0.5,0.577159173775366,0.422840826224634,0.472830671445095,0.472830671445095,0.472830671445095,0.525773206322054,0.473491723767718,0.526508276232282,0.472830671445095,0.525773206322054,0.108775248585483,0.462952485840831,-0.472830671445095,-0.0256929837266561,0.5,0.0543386571098096,1.09755969779884,1.11296300672949,2.47346073446187,0.5,81.6919317021102
CBC_1029,CBC_1029_MSI_AV_v3_Vset2_Aset2_2023-07-21_14h51.03.497.csv,1,27,1,2,b,1,0,3,aud,B,9,1,1B,2B,1,0,z,2.30609030000051,0,1,0,0,2B,1B,B12,3.73766961828337,0.621863861377926,0.472830671445095,0.5,0.5,0.447137687718439,0.621863861377926,0.5,0.5,0.5,0.5,0.577159173775366,0.422840826224634,0.472830671445095,0.472830671445095,0.447137687718439,0.525773206322054,0.445686876289853,0.554313123710147,0.5,0.621863861377926,0.165069813831228,0.425577178447414,-0.5,-0.0271693285549048,0.5,0.0543386571098096,1.09755969779884,1.11296300672949,2.47346073446187,0.5,81.6919317021102
CBC_1029,CBC_1029_MSI_AV_v3_Vset2_Aset2_2023-07-21_14h51.03.497.csv,1,28,1,3,z,0,1,2,aud,D,27,1,1D,3D,0,1,b,1.56901309999921,1,0,0,0,1D,3D,D13,3.76120011569356,0.621863861377926,0.472830671445095,0.5,0.5,0.447137687718439,0.621863861377926,0.472830671445095,0.5,0.5,0.5,0.577159173775366,0.422840826224634,0.472830671445095,0.472830671445095,0.447137687718439,0.525773206322054,0.473491723767718,0.526508276232282,0.472830671445095,0.525773206322054,0.279108852006891,0.462764078552206,-0.472830671445095,-0.0256929837266561,0.5,0.0543386571098096,1.09755969779884,1.11296300672949,2.47346073446187,0.5,81.6919317021102
CBC_1029,CBC_1029_MSI_AV_v3_Vset2_Aset2_2023-07-21_14h51.03.497.csv,1,29,1,0,z,0,1,0,aud,A,63,1,1A,0A,0,1,z,2.70835799999986,0,1,1,1,0A,1A,A10,2.68557734525015,0.621863861377926,0.472830671445095,0.5,0.5,0.447137687718439,0.621863861377926,0.472830671445095,0.5,0.5,0.5,0.577159173775366,0.422840826224634,0.472830671445095,0.447137687718439,0.447137687718439,0.525773206322054,0.568070674267689,0.431929325732311,0.621863861377926,0.472830671445095,0.165741997580707,0.592403384836172,0.378136138622074,0.0205474099774123,0.5,0.0543386571098096,1.09755969779884,1.11296300672949,2.47346073446187,0.5,81.6919317021102
CBC_1029,CBC_1029_MSI_AV_v3_Vset2_Aset2_2023-07-21_14h51.03.497.csv,1,30,0,1,b,1,0,0,aud,A,63,1,0A,1A,1,0,b,1.60033680000015,1,0,1,1,0A,1A,A01,3.11351530921037,0.642411271355338,0.472830671445095,0.5,0.5,0.447137687718439,0.621863861377926,0.472830671445095,0.5,0.5,0.5,0.577159173775366,0.422840826224634,0.472830671445095,0.447137687718439,0.447137687718439,0.525773206322054,0.576028614689839,0.423971385310161,0.642411271355338,0.472830671445095,0.369928716920244,0.602931927445126,0.357588728644662,0.019430891312155,0.5,0.0543386571098096,1.09755969779884,1.11296300672949,2.47346073446187,0.5,81.6919317021102
CBC_1029,CBC_1029_MSI_AV_v3_Vset2_Aset2_2023-07-21_14h51.03.497.csv,1,31,0,2,z,0,1,1,aud,C,27,1,0C,2C,0,1,z,3.12533649999932,0,1,1,1,2C,0C,C02,3.13549421592915,0.661842162667493,0.472830671445095,0.5,0.5,0.447137687718439,0.621863861377926,0.472830671445095,0.5,0.5,0.5,0.577159173775366,0.422840826224634,0.472830671445095,0.447137687718439,0.447137687718439,0.525773206322054,0.53581605005736,0.46418394994264,0.577159173775366,0.5,0.109555936664355,0.548371406966311,0.422840826224634,0.0229766026682489,0.5,0.0543386571098096,1.09755969779884,1.11296300672949,2.47346073446187,0.5,81.6919317021102
CBC_1029,CBC_1029_MSI_AV_v3_Vset2_Aset2_2023-07-21_14h51.03.497.csv,1,32,1,0,z,0,1,0,aud,A,63,1,1A,0A,0,1,b,2.80590060000031,1,0,0,0,1A,0A,A10,2.46385324059017,0.661842162667493,0.472830671445095,0.5,0.5,0.447137687718439,0.621863861377926,0.472830671445095,0.5,0.5,0.5,0.600135776443615,0.422840826224634,0.472830671445095,0.447137687718439,0.447137687718439,0.525773206322054,0.416711017687217,0.583288982312783,0.472830671445095,0.661842162667493,0.0999403524963686,0.387314031491941,-0.472830671445095,-0.0256929837266561,0.5,0.0543386571098096,1.09755969779884,1.11296300672949,2.47346073446187,0.5,81.6919317021102
CBC_1029,CBC_1029_MSI_AV_v3_Vset2_Aset2_2023-07-21_14h51.03.497.csv,1,33,1,0,b,1,0,3,aud,B,63,1,1B,0B,1,0,z,3.53142479999769,0,1,0,0,0B,1B,B10,2.26176309847379,0.661842162667493,0.447137687718439,0.5,0.5,0.447137687718439,0.621863861377926,0.472830671445095,0.5,0.5,0.5,0.600135776443615,0.422840826224634,0.472830671445095,0.447137687718439,0.447137687718439,0.525773206322054,0.418275996041734,0.581724003958266,0.447137687718439,0.621863861377926,0.0551707136607366,0.388530574246313,-0.447137687718439,-0.0242968614938054,0.5,0.0543386571098096,1.09755969779884,1.11296300672949,2.47346073446187,0.5,81.6919317021102
CBC_1029,CBC_1029_MSI_AV_v3_Vset2_Aset2_2023-07-21_14h51.03.497.csv,1,34,3,2,b,1,0,2,aud,D,63,1,3D,2D,1,0,b,2.17426460000024,1,0,1,1,3D,2D,D32,2.50552593699074,0.661842162667493,0.447137687718439,0.5,0.5,0.422840826224634,0.621863861377926,0.472830671445095,0.5,0.5,0.5,0.600135776443615,0.422840826224634,0.472830671445095,0.447137687718439,0.447137687718439,0.525773206322054,0.54041249773504,0.45958750226496,0.525773206322054,0.447137687718439,0.238815916654275,0.554812949190115,0.474226793677946,0.0257688471339503,0.5,0.0543386571098096,1.09755969779884,1.11296300672949,2.47346073446187,0.5,81.6919317021102
CBC_1029,CBC_1029_MSI_AV_v3_Vset2_Aset2_2023-07-21_14h51.03.497.csv,1,35,3,1,z,0,1,3,aud,B,27,1,3B,1B,0,1,z,1.66122990000076,0,1,1,1,1B,3B,B31,2.81341071676004,0.661842162667493,0.447137687718439,0.5,0.5,0.422840826224634,0.621863861377926,0.472830671445095,0.5,0.5,0.5,0.600135776443615,0.422840826224634,0.472830671445095,0.447137687718439,0.447137687718439,0.551542053456004,0.554313123710147,0.445686876289853,0.621863861377926,0.5,0.347248321479529,0.574319449546492,0.378136138622074,0.0205474099774123,0.5,0.0543386571098096,1.09755969779884,1.11296300672949,2.47346073446187,0.5,81.6919317021102
CBC_1029,CBC_1029_MSI_AV_v3_Vset2_Aset2_2023-07-21_14h51.03.497.csv,1,36,3,2,z,0,1,1,aud,C,63,1,3C,2C,0,1,z,3.17819379999855,0,1,1,1,2C,3C,C32,2.83321334405622,0.661842162667493,0.447137687718439,0.5,0.5,0.422840826224634,0.642411271355338,0.472830671445095,0.5,0.5,0.5,0.600135776443615,0.422840826224634,0.472830671445095,0.447137687718439,0.447137687718439,0.551542053456004,0.586656405315889,0.413343594684111,0.600135776443615,0.422840826224634,0.116986362264229,0.616513488663084,0.399864223556385,0.0217280849343106,0.5,0.0543386571098096,1.09755969779884,1.11296300672949,2.47346073446187,0.5,81.6919317021102
CBC_1029,CBC_1029_MSI_AV_v3_Vset2_Aset2_2023-07-21_14h51.03.497.csv,1,37,2,0,b,1,0,1,aud,C,27,1,2C,0C,1,0,b,3.27878699999928,1,0,1,1,2C,0C,C20,3.95124371858143,0.661842162667493,0.447137687718439,0.5,0.5,0.422840826224634,0.642411271355338,0.472830671445095,0.5,0.5,0.5,0.621863861377926,0.422840826224634,0.472830671445095,0.447137687718439,0.447137687718439,0.551542053456004,0.554313123710147,0.445686876289853,0.621863861377926,0.5,0.101041499494216,0.574263852898558,0.378136138622074,0.0205474099774123,0.5,0.0543386571098096,1.09755969779884,1.11296300672949,2.47346073446187,0.5,81.6919317021102
CBC_1029,CBC_1029_MSI_AV_v3_Vset2_Aset2_2023-07-21_14h51.03.497.csv,1,38,1,0,b,1,0,3,aud,B,63,1,1B,0B,1,0,z,3.41732169999887,0,1,0,0,0B,1B,B10,2.17853244432407,0.661842162667493,0.447137687718439,0.5,0.5,0.422840826224634,0.642411271355338,0.472830671445095,0.5,0.5,0.5,0.642411271355338,0.422840826224634,0.472830671445095,0.447137687718439,0.447137687718439,0.551542053456004,0.396939679523034,0.603060320476966,0.422840826224634,0.642411271355338,0.0559211372128679,0.361371318863996,-0.422840826224634,-0.0229766026682489,0.5,0.0543386571098096,1.09755969779884,1.11296300672949,2.47346073446187,0.5,81.6919317021102
CBC_1029,CBC_1029_MSI_AV_v3_Vset2_Aset2_2023-07-21_14h51.03.497.csv,1,39,3,0,z,0,1,0,aud,A,9,1,3A,0A,0,1,z,2.13409820000015,0,1,1,1,0A,3A,A30,3.98898404656427,0.661842162667493,0.447137687718439,0.5,0.5,0.399864223556385,0.642411271355338,0.472830671445095,0.5,0.5,0.5,0.642411271355338,0.422840826224634,0.472830671445095,0.447137687718439,0.447137687718439,0.551542053456004,0.56964894538511,0.43035105461489,0.661842162667493,0.5,0.264991374150705,0.594148849252516,0.338157837332507,0.0183750427718058,0.5,0.0543386571098096,1.09755969779884,1.11296300672949,2.47346073446187,0.5,81.6919317021102
CBC_1029,CBC_1029_MSI_AV_v3_Vset2_Aset2_2023-07-21_14h51.03.497.csv,1,40,3,2,z,0,1,1,aud,C,63,0,3C,2C,1,0,z,1.28888779999943,0,1,1,0,2C,3C,C32,2.62103882411258,0.680217205439299,0.447137687718439,0.5,0.5,0.399864223556385,0.642411271355338,0.472830671445095,0.5,0.5,0.5,0.642411271355338,0.422840826224634,0.472830671445095,0.447137687718439,0.447137687718439,0.551542053456004,0.603060320476966,0.396939679523034,0.642411271355338,0.422840826224634,0.143131335375351,0.638271375993002,-0.642411271355338,-0.0349077657976546,0.5,0.0543386571098096,1.09755969779884,1.11296300672949,2.47346073446187,0.5,81.6919317021102
CBC_1029,CBC_1029_MSI_AV_v3_Vset2_Aset2_2023-07-21_14h51.03.497.csv,1,41,1,0,z,0,1,0,aud,A,63,1,1A,0A,0,1,z,2.89447569999902,0,1,1,1,0A,1A,A10,2.41591377830105,0.680217205439299,0.447137687718439,0.5,0.5,0.399864223556385,0.642411271355338,0.472830671445095,0.5,0.5,0.5,0.607503505557684,0.422840826224634,0.472830671445095,0.447137687718439,0.447137687718439,0.551542053456004,0.603374509276312,0.396625490723688,0.680217205439299,0.447137687718439,0.152846478422608,0.638987705605763,0.319782794560701,0.0173765676232506,0.5,0.0543386571098096,1.09755969779884,1.11296300672949,2.47346073446187,0.5,81.6919317021102
CBC_1029,CBC_1029_MSI_AV_v3_Vset2_Aset2_2023-07-21_14h51.03.497.csv,1,42,3,2,b,1,0,2,aud,D,63,1,3D,2D,1,0,z,2.655018200001,0,1,0,0,2D,3D,D32,2.43361335540045,0.69759377306255,0.447137687718439,0.5,0.5,0.399864223556385,0.642411271355338,0.472830671445095,0.5,0.5,0.5,0.607503505557684,0.422840826224634,0.472830671445095,0.447137687718439,0.447137687718439,0.551542053456004,0.447728805625522,0.552271194374478,0.447137687718439,0.551542053456004,0.125166227270604,0.428208114172316,-0.447137687718439,-0.0242968614938054,0.5,0.0543386571098096,1.09755969779884,1.11296300672949,2.47346073446187,0.5,81.6919317021102
CBC_1029,CBC_1029_MSI_AV_v3_Vset2_Aset2_2023-07-21_14h51.03.497.csv,1,43,2,3,b,1,0,1,aud,C,63,1,2C,3C,1,0,z,2.09896939999817,0,1,0,0,3C,2C,C23,2.96183072187831,0.69759377306255,0.447137687718439,0.5,0.5,0.399864223556385,0.642411271355338,0.472830671445095,0.5,0.5,0.5,0.607503505557684,0.422840826224634,0.472830671445095,0.447137687718439,0.422840826224634,0.551542053456004,0.410387880227567,0.589612119772433,0.422840826224634,0.607503505557684,0.174587971744445,0.379190249545544,-0.422840826224634,-0.0229766026682489,0.5,0.0543386571098096,1.09755969779884,1.11296300672949,2.47346073446187,0.5,81.6919317021102
CBC_1029,CBC_1029_MSI_AV_v3_Vset2_Aset2_2023-07-21_14h51.03.497.csv,1,44,1,3,z,0,1,2,aud,D,27,1,1D,3D,0,1,z,2.28387180000027,0,1,1,1,3D,1D,D13,3.38439026334577,0.69759377306255,0.447137687718439,0.5,0.5,0.399864223556385,0.642411271355338,0.472830671445095,0.5,0.5,0.5,0.607503505557684,0.399864223556385,0.472830671445095,0.447137687718439,0.422840826224634,0.551542053456004,0.552271194374478,0.447728805625522,0.551542053456004,0.447137687718439,0.225352096681908,0.570823928163158,0.448457946543996,0.0243686025854235,0.5,0.0543386571098096,1.09755969779884,1.11296300672949,2.47346073446187,0.5,81.6919317021102
CBC_1029,CBC_1029_MSI_TV_v3_Vset5_Tset2_2023-07-21_14h59.39.665.csv,2,1,0,1,z,0,1,3,tac,B,63,1,0B,1B,0,1,z,2.3680848999993,0,1,1,1,1B,0B,B01,2.77258872223978,0.5,0.5,0.5,0.5,0.5,0.5,0.5,0.5,0.5,0.5,0.5,0.5,0.5,0.5,0.5,0.5,0.5,0.5,0.5,0.5,0.172004720123164,0.499791565868384,0.5,0.00219804586513794,0.5,0.00439609173027589,1.04174879270792,0.0811663451868011,2.29376692591454,0.5,79.2321227817648
CBC_1029,CBC_1029_MSI_TV_v3_Vset5_Tset2_2023-07-21_14h59.39.665.csv,2,2,1,0,z,0,1,0,tac,A,63,1,1A,0A,0,1,z,1.6776933000001,0,1,1,1,0A,1A,A10,2.83321334405622,0.5,0.5,0.5,0.5,0.5,0.502198045865138,0.5,0.5,0.5,0.5,0.5,0.5,0.5,0.5,0.5,0.5,0.5,0.5,0.5,0.5,0.320030508631891,0.499257909019863,0.5,0.00219804586513794,0.5,0.00439609173027589,1.04174879270792,0.0811663451868011,2.29376692591454,0.5,79.2321227817648
CBC_1029,CBC_1029_MSI_TV_v3_Vset5_Tset2_2023-07-21_14h59.39.665.csv,2,3,2,1,b,1,0,1,tac,C,9,1,2C,1C,1,0,b,2.97678300000007,1,0,1,1,2C,1C,C21,2.89037175789616,0.502198045865138,0.5,0.5,0.5,0.5,0.502198045865138,0.5,0.5,0.5,0.5,0.5,0.5,0.5,0.5,0.5,0.5,0.5,0.5,0.5,0.5,0.0972991140599264,0.50031354213047,0.5,0.00219804586513794,0.5,0.00439609173027589,1.04174879270792,0.0811663451868011,2.29376692591454,0.5,79.2321227817648
CBC_1029,CBC_1029_MSI_TV_v3_Vset5_Tset2_2023-07-21_14h59.39.665.csv,2,4,0,1,b,1,0,0,tac,A,63,1,0A,1A,1,0,z,2.43210160000126,0,1,0,0,1A,0A,A01,2.94443897916644,0.502198045865138,0.5,0.5,0.5,0.5,0.502198045865138,0.5,0.5,0.5,0.5,0.502198045865138,0.5,0.5,0.5,0.5,0.5,0.498903387472064,0.501096612527936,0.5,0.502198045865138,0.161964606971913,0.499713957521683,-0.5,-0.00219804586513794,0.5,0.00439609173027589,1.04174879270792,0.0811663451868011,2.29376692591454,0.5,79.2321227817648
CBC_1029,CBC_1029_MSI_TV_v3_Vset5_Tset2_2023-07-21_14h59.39.665.csv,2,5,1,3,z,0,1,2,tac,D,27,1,1D,3D,0,1,z,3.96560479999971,0,1,1,1,3D,1D,D13,2.99573227355399,0.502198045865138,0.497801954134862,0.5,0.5,0.5,0.502198045865138,0.5,0.5,0.5,0.5,0.502198045865138,0.5,0.5,0.5,0.5,0.5,0.5,0.5,0.5,0.5,0.0385534024122775,0.501166531019094,0.5,0.00219804586513794,0.5,0.00439609173027589,1.04174879270792,0.0811663451868011,2.29376692591454,0.5,79.2321227817648
CBC_1029,CBC_1029_MSI_TV_v3_Vset5_Tset2_2023-07-21_14h59.39.665.csv,2,6,1,0,b,1,0,3,tac,B,63,1,1B,0B,1,0,z,2.63812340000186,0,1,0,0,0B,1B,B10,3.04452243772342,0.502198045865138,0.497801954134862,0.5,0.5,0.5,0.502198045865138,0.5,0.5,0.5,0.5,0.502198045865138,0.5,0.5,0.5,0.5,0.502198045865138,0.498903387472064,0.501096612527936,0.5,0.502198045865138,0.133438927444194,0.499429703834289,-0.5,-0.00219804586513794,0.5,0.00439609173027589,1.04174879270792,0.0811663451868011,2.29376692591454,0.5,79.2321227817648
CBC_1029,CBC_1029_MSI_TV_v3_Vset5_Tset2_2023-07-21_14h59.39.665.csv,2,7,3,2,z,0,1,1,tac,C,63,1,3C,2C,0,1,b,3.02134149999983,1,0,0,0,3C,2C,C32,3.09104245335832,0.502198045865138,0.497801954134862,0.5,0.5,0.497801954134862,0.502198045865138,0.5,0.5,0.5,0.5,0.502198045865138,0.5,0.5,0.5,0.5,0.502198045865138,0.498903387472064,0.501096612527936,0.5,0.502198045865138,0.0932316137269591,0.499858121698331,-0.5,-0.00219804586513794,0.5,0.00439609173027589,1.04174879270792,0.0811663451868011,2.29376692591454,0.5,79.2321227817648
CBC_1029,CBC_1029_MSI_TV_v3_Vset5_Tset2_2023-07-21_14h59.39.665.csv,2,8,0,2,b,1,0,0,tac,A,27,1,0A,2A,1,0,z,2.58301200000096,0,1,0,0,2A,0A,A02,3.13549421592915,0.502198045865138,0.497801954134862,0.5,0.5,0.497801954134862,0.502198045865138,0.5,0.5,0.5,0.5,0.502198045865138,0.497801954134862,0.5,0.5,0.5,0.502198045865138,0.498903387472064,0.501096612527936,0.5,0.502198045865138,0.14075428350582,0.500274758130069,-0.5,-0.00219804586513794,0.5,0.00439609173027589,1.04174879270792,0.0811663451868011,2.29376692591454,0.5,79.2321227817648
CBC_1029,CBC_1029_MSI_TV_v3_Vset5_Tset2_2023-07-21_14h59.39.665.csv,2,9,2,3,z,0,1,2,tac,D,63,1,2D,3D,0,1,z,2.00281109999924,0,1,1,1,3D,2D,D23,3.17805383034795,0.502198045865138,0.497801954134862,0.497801954134862,0.5,0.497801954134862,0.502198045865138,0.5,0.5,0.5,0.5,0.502198045865138,0.497801954134862,0.5,0.5,0.5,0.502198045865138,0.501096612527936,0.498903387472064,0.502198045865138,0.5,0.241902171043586,0.500033427831137,0.497801954134862,0.00218838305388744,0.5,0.00439609173027589,1.04174879270792,0.0811663451868011,2.29376692591454,0.5,79.2321227817648
CBC_1029,CBC_1029_MSI_TV_v3_Vset5_Tset2_2023-07-21_14h59.39.665.csv,2,10,1,3,b,1,0,3,tac,B,27,1,1B,3B,1,0,z,2.6222226000009,0,1,0,0,3B,1B,B13,3.2188758248682,0.502198045865138,0.497801954134862,0.497801954134862,0.5,0.497801954134862,0.502198045865138,0.5,0.5,0.5,0.5,0.502198045865138,0.497801954134862,0.5,0.5,0.5,0.504386428919025,0.498903387472064,0.501096612527936,0.5,0.502198045865138,0.135879075158632,0.501035575987811,-0.5,-0.00219804586513794,0.5,0.00439609173027589,1.04174879270792,0.0811663451868011,2.29376692591454,0.5,79.2321227817648
CBC_1029,CBC_1029_MSI_TV_v3_Vset5_Tset2_2023-07-21_14h59.39.665.csv,2,11,2,3,b,1,0,1,tac,C,63,1,2C,3C,1,0,b,2.50660470000003,1,0,1,1,2C,3C,C23,3.25809653802148,0.502198045865138,0.497801954134862,0.497801954134862,0.5,0.497801954134862,0.502198045865138,0.5,0.497801954134862,0.5,0.5,0.502198045865138,0.497801954134862,0.5,0.5,0.5,0.504386428919025,0.502198045865138,0.497801954134862,0.502198045865138,0.497801954134862,0.151201668568024,0.500252754734644,0.497801954134862,0.00218838305388744,0.5,0.00439609173027589,1.04174879270792,0.0811663451868011,2.29376692591454,0.5,79.2321227817648
CBC_1029,CBC_1029_MSI_TV_v3_Vset5_Tset2_2023-07-21_14h59.39.665.csv,2,12,3,1,z,0,1,3,tac,B,27,1,3B,1B,0,1,z,2.74678689999928,0,1,1,1,1B,3B,B31,3.29583686600433,0.502198045865138,0.497801954134862,0.497801954134862,0.5,0.497801954134862,0.502198045865138,0.5,0.497801954134862,0.5,0.5,0.504386428919025,0.497801954134862,0.5,0.5,0.5,0.504386428919025,0.502198045865138,0.497801954134862,0.502198045865138,0.497801954134862,0.120739728153737,0.500380372201558,0.497801954134862,0.00218838305388744,0.5,0.00439609173027589,1.04174879270792,0.0811663451868011,2.29376692591454,0.5,79.2321227817648
CBC_1029,CBC_1029_MSI_TV_v3_Vset5_Tset2_2023-07-21_14h59.39.665.csv,2,13,2,3,b,1,0,1,tac,C,63,1,2C,3C,1,0,z,1.66885670000011,0,1,0,0,3C,2C,C23,2.63905732961526,0.502198045865138,0.497801954134862,0.497801954134862,0.5,0.497801954134862,0.504386428919025,0.5,0.497801954134862,0.5,0.5,0.504386428919025,0.497801954134862,0.5,0.5,0.5,0.504386428919025,0.496714951552272,0.503285048447727,0.497801954134862,0.504386428919025,0.322968579113127,0.500576704892524,-0.497801954134862,-0.00218838305388744,0.5,0.00439609173027589,1.04174879270792,0.0811663451868011,2.29376692591454,0.5,79.2321227817648
CBC_1029,CBC_1029_MSI_TV_v3_Vset5_Tset2_2023-07-21_14h59.39.665.csv,2,14,2,3,z,0,1,2,tac,D,63,1,2D,3D,0,1,b,2.83338230000118,1,0,0,0,2D,3D,D23,2.67414864942653,0.502198045865138,0.497801954134862,0.497801954134862,0.5,0.497801954134862,0.504386428919025,0.5,0.497801954134862,0.5,0.5,0.504386428919025,0.495613571080975,0.5,0.5,0.5,0.504386428919025,0.497816363905003,0.502183636094997,0.5,0.504386428919025,0.111214848742094,0.499901829844812,-0.5,-0.00219804586513794,0.5,0.00439609173027589,1.04174879270792,0.0811663451868011,2.29376692591454,0.5,79.2321227817648
CBC_1029,CBC_1029_MSI_TV_v3_Vset5_Tset2_2023-07-21_14h59.39.665.csv,2,15,3,0,z,0,1,0,tac,A,9,1,3A,0A,0,1,z,3.57798109999931,0,1,1,1,0A,3A,A30,3.40119738166216,0.502198045865138,0.497801954134862,0.497801954134862,0.5,0.497801954134862,0.504386428919025,0.5,0.497801954134862,0.5,0.5,0.504386428919025,0.495613571080975,0.5,0.5,0.497801954134862,0.504386428919025,0.501096612527936,0.498903387472064,0.502198045865138,0.5,0.0552635503712534,0.499416515317796,0.497801954134862,0.00218838305388744,0.5,0.00439609173027589,1.04174879270792,0.0811663451868011,2.29376692591454,0.5,79.2321227817648
CBC_1029,CBC_1029_MSI_TV_v3_Vset5_Tset2_2023-07-21_14h59.39.665.csv,2,16,1,0,b,1,0,3,tac,B,63,0,1B,0B,0,1,b,2.35829010000089,1,0,1,0,1B,0B,B10,2.7408400239252,0.504386428919025,0.497801954134862,0.497801954134862,0.5,0.497801954134862,0.504386428919025,0.5,0.497801954134862,0.5,0.5,0.504386428919025,0.495613571080975,0.5,0.5,0.497801954134862,0.504386428919025,0.503285048447727,0.496714951552272,0.504386428919025,0.497801954134862,0.173730406951026,0.500194979565996,-0.504386428919025,-0.00221732900903431,0.5,0.00439609173027589,1.04174879270792,0.0811663451868011,2.29376692591454,0.5,79.2321227817648
CBC_1029,CBC_1029_MSI_TV_v3_Vset5_Tset2_2023-07-21_14h59.39.665.csv,2,17,3,2,b,1,0,2,tac,D,63,1,3D,2D,1,0,z,2.32812980000017,0,1,0,0,2D,3D,D32,3.46573590279973,0.504386428919025,0.497801954134862,0.497801954134862,0.5,0.497801954134862,0.502169099909991,0.5,0.497801954134862,0.5,0.5,0.504386428919025,0.495613571080975,0.5,0.5,0.497801954134862,0.504386428919025,0.496714951552272,0.503285048447727,0.497801954134862,0.504386428919025,0.178652996660371,0.500040646817804,-0.497801954134862,-0.00218838305388744,0.5,0.00439609173027589,1.04174879270792,0.0811663451868011,2.29376692591454,0.5,79.2321227817648
CBC_1029,CBC_1029_MSI_TV_v3_Vset5_Tset2_2023-07-21_14h59.39.665.csv,2,18,2,0,b,1,0,1,tac,C,27,1,2C,0C,1,0,z,2.75275570000122,0,1,0,0,0C,2C,C20,3.49650756146648,0.504386428919025,0.497801954134862,0.497801954134862,0.5,0.497801954134862,0.502169099909991,0.5,0.497801954134862,0.5,0.5,0.504386428919025,0.495613571080975,0.5,0.5,0.495613571080975,0.504386428919025,0.497816363905003,0.502183636094997,0.5,0.504386428919025,0.120082211298265,0.500449117835317,-0.5,-0.00219804586513794,0.5,0.00439609173027589,1.04174879270792,0.0811663451868011,2.29376692591454,0.5,79.2321227817648
CBC_1029,CBC_1029_MSI_TV_v3_Vset5_Tset2_2023-07-21_14h59.39.665.csv,2,19,1,0,z,0,1,0,tac,A,63,1,1A,0A,0,1,z,3.79615569999987,0,1,1,1,0A,1A,A10,2.83321334405622,0.504386428919025,0.497801954134862,0.497801954134862,0.5,0.497801954134862,0.502169099909991,0.5,0.497801954134862,0.497801954134862,0.5,0.504386428919025,0.495613571080975,0.5,0.5,0.495613571080975,0.504386428919025,0.503285048447727,0.496714951552272,0.504386428919025,0.497801954134862,0.0451612294022884,0.500796305307091,0.495613571080975,0.00217876272124157,0.5,0.00439609173027589,1.04174879270792,0.0811663451868011,2.29376692591454,0.5,79.2321227817648
CBC_1029,CBC_1029_MSI_TV_v3_Vset5_Tset2_2023-07-21_14h59.39.665.csv,2,20,0,1,z,0,1,3,tac,B,63,1,0B,1B,0,1,z,2.90896859999884,0,1,1,1,1B,0B,B01,2.86220088092947,0.506565191640267,0.497801954134862,0.497801954134862,0.5,0.497801954134862,0.502169099909991,0.5,0.497801954134862,0.497801954134862,0.5,0.504386428919025,0.495613571080975,0.5,0.5,0.495613571080975,0.504386428919025,0.502183636094997,0.497816363905003,0.502169099909991,0.497801954134862,0.103511377686546,0.499457498770817,0.497830900090009,0.00218851030296149,0.5,0.00439609173027589,1.04174879270792,0.0811663451868011,2.29376692591454,0.5,79.2321227817648
CBC_1029,CBC_1029_MSI_TV_v3_Vset5_Tset2_2023-07-21_14h59.39.665.csv,2,21,3,1,b,1,0,2,tac,D,27,1,3D,1D,1,0,b,1.62863050000124,1,0,1,1,3D,1D,D31,3.58351893845611,0.506565191640267,0.497801954134862,0.497801954134862,0.5,0.497801954134862,0.504357610212953,0.5,0.497801954134862,0.497801954134862,0.5,0.504386428919025,0.495613571080975,0.5,0.5,0.495613571080975,0.504386428919025,0.502183636094997,0.497816363905003,0.504386428919025,0.5,0.332950416305879,0.501868143361093,0.495613571080975,0.00217876272124157,0.5,0.00439609173027589,1.04174879270792,0.0811663451868011,2.29376692591454,0.5,79.2321227817648
CBC_1029,CBC_1029_MSI_TV_v3_Vset5_Tset2_2023-07-21_14h59.39.665.csv,2,22,2,3,b,1,0,1,tac,C,63,1,2C,3C,1,0,z,2.30075710000165,0,1,0,0,3C,2C,C23,2.51230562397611,0.506565191640267,0.497801954134862,0.497801954134862,0.5,0.497801954134862,0.504357610212953,0.5,0.497801954134862,0.497801954134862,0.5,0.504386428919025,0.495613571080975,0.5,0.5,0.495613571080975,0.506565191640267,0.495613571080975,0.504386428919025,0.495613571080975,0.504386428919025,0.183417461258072,0.500385617869297,-0.495613571080975,-0.00217876272124157,0.5,0.00439609173027589,1.04174879270792,0.0811663451868011,2.29376692591454,0.5,79.2321227817648
CBC_1029,CBC_1029_MSI_TV_v3_Vset5_Tset2_2023-07-21_14h59.39.665.csv,2,23,1,0,z,0,1,0,tac,A,63,1,1A,0A,0,1,b,2.62020790000133,1,0,0,0,1A,0A,A10,2.53897387105828,0.506565191640267,0.497801954134862,0.497801954134862,0.5,0.497801954134862,0.504357610212953,0.5,0.497801954134862,0.497801954134862,0.5,0.504386428919025,0.493434808359733,0.5,0.5,0.495613571080975,0.506565191640267,0.495637433212413,0.504362566787587,0.497801954134862,0.506565191640267,0.135727728180814,0.499532659054328,-0.497801954134862,-0.00218838305388744,0.5,0.00439609173027589,1.04174879270792,0.0811663451868011,2.29376692591454,0.5,79.2321227817648
CBC_1029,CBC_1029_MSI_TV_v3_Vset5_Tset2_2023-07-21_14h59.39.665.csv,2,24,3,2,b,1,0,2,tac,D,63,1,3D,2D,1,0,z,2.30871280000065,0,1,0,0,2D,3D,D32,2.9704144655697,0.506565191640267,0.495613571080975,0.497801954134862,0.5,0.497801954134862,0.504357610212953,0.5,0.497801954134862,0.497801954134862,0.5,0.504386428919025,0.493434808359733,0.5,0.5,0.495613571080975,0.506565191640267,0.494536094274461,0.505463905725539,0.495613571080975,0.506565191640267,0.181725441958934,0.499475940732781,-0.495613571080975,-0.00217876272124157,0.5,0.00439609173027589,1.04174879270792,0.0811663451868011,2.29376692591454,0.5,79.2321227817648
CBC_1029,CBC_1029_MSI_TV_v3_Vset5_Tset2_2023-07-21_14h59.39.665.csv,2,25,0,2,z,0,1,1,tac,C,27,1,0C,2C,0,1,b,2.83827010000095,1,0,0,0,0C,2C,C02,3.68887945411394,0.506565191640267,0.495613571080975,0.497801954134862,0.5,0.497801954134862,0.504357610212953,0.5,0.497801954134862,0.497801954134862,0.5,0.504386428919025,0.493434808359733,0.5,0.5,0.493434808359733,0.506565191640267,0.496714951552272,0.503285048447727,0.497801954134862,0.504386428919025,0.110703958118918,0.499891810268858,-0.497801954134862,-0.00218838305388744,0.5,0.00439609173027589,1.04174879270792,0.0811663451868011,2.29376692591454,0.5,79.2321227817648
CBC_1029,CBC_1029_MSI_TV_v3_Vset5_Tset2_2023-07-21_14h59.39.665.csv,2,26,1,0,z,0,1,0,tac,A,63,1,1A,0A,0,1,z,1.22012259999974,0,1,1,1,0A,1A,A10,2.32727770558442,0.506565191640267,0.495613571080975,0.497801954134862,0.5,0.497801954134862,0.504357610212953,0.5,0.497801954134862,0.495613571080975,0.5,0.504386428919025,0.493434808359733,0.5,0.5,0.493434808359733,0.506565191640267,0.505463905725539,0.494536094274461,0.506565191640267,0.495613571080975,0.152602895193527,0.501600513797357,0.493434808359733,0.00216918468046049,0.5,0.00439609173027589,1.04174879270792,0.0811663451868011,2.29376692591454,0.5,79.2321227817648
CBC_1029,CBC_1029_MSI_TV_v3_Vset5_Tset2_2023-07-21_14h59.39.665.csv,2,27,3,1,z,0,1,3,tac,B,27,1,3B,1B,0,1,b,2.69081310000001,1,0,0,0,3B,1B,B31,3.04452243772342,0.508734376320727,0.495613571080975,0.497801954134862,0.5,0.497801954134862,0.504357610212953,0.5,0.497801954134862,0.495613571080975,0.5,0.504386428919025,0.493434808359733,0.5,0.5,0.493434808359733,0.506565191640267,0.496729235387602,0.503270764612398,0.497801954134862,0.504357610212953,0.127237629774495,0.500342316810699,-0.497801954134862,-0.00218838305388744,0.5,0.00439609173027589,1.04174879270792,0.0811663451868011,2.29376692591454,0.5,79.2321227817648
CBC_1029,CBC_1029_MSI_TV_v3_Vset5_Tset2_2023-07-21_14h59.39.665.csv,2,28,2,3,b,1,0,1,tac,C,63,1,2C,3C,1,0,z,1.75138180000067,0,1,0,0,3C,2C,C23,2.37490575457367,0.508734376320727,0.495613571080975,0.497801954134862,0.5,0.497801954134862,0.504357610212953,0.5,0.495613571080975,0.495613571080975,0.5,0.504386428919025,0.493434808359733,0.5,0.5,0.493434808359733,0.506565191640267,0.49451223317858,0.505487766821419,0.493434808359733,0.504386428919025,0.30274937698129,0.500557601902736,-0.493434808359733,-0.00216918468046049,0.5,0.00439609173027589,1.04174879270792,0.0811663451868011,2.29376692591454,0.5,79.2321227817648
CBC_1029,CBC_1029_MSI_TV_v3_Vset5_Tset2_2023-07-21_14h59.39.665.csv,2,29,2,3,z,0,1,2,tac,D,63,1,2D,3D,0,1,b,2.08804070000042,1,0,0,0,2D,3D,D23,2.68557734525015,0.508734376320727,0.495613571080975,0.497801954134862,0.5,0.497801954134862,0.504357610212953,0.5,0.495613571080975,0.495613571080975,0.5,0.504386428919025,0.491265623679273,0.5,0.5,0.493434808359733,0.506565191640267,0.493434808359733,0.506565191640267,0.493434808359733,0.506565191640267,0.223335163949526,0.499549433576378,-0.493434808359733,-0.00216918468046049,0.5,0.00439609173027589,1.04174879270792,0.0811663451868011,2.29376692591454,0.5,79.2321227817648
CBC_1029,CBC_1029_MSI_TV_v3_Vset5_Tset2_2023-07-21_14h59.39.665.csv,2,30,1,0,b,1,0,3,tac,B,63,1,1B,0B,1,0,b,1.40769470000123,1,0,1,1,1B,0B,B10,2.70805020110221,0.508734376320727,0.495613571080975,0.497801954134862,0.5,0.497801954134862,0.504357610212953,0.5,0.495613571080975,0.495613571080975,0.5,0.504386428919025,0.491265623679273,0.5,0.5,0.491265623679273,0.506565191640267,0.503270764612398,0.496729235387602,0.504357610212953,0.497801954134862,0.343183819030596,0.50083959495611,0.495642389787047,0.00217888941091702,0.5,0.00439609173027589,1.04174879270792,0.0811663451868011,2.29376692591454,0.5,79.2321227817648
CBC_1029,CBC_1029_MSI_TV_v3_Vset5_Tset2_2023-07-21_14h59.39.665.csv,2,31,0,2,b,1,0,0,tac,A,27,1,0A,2A,1,0,z,2.67088409999997,0,1,0,0,2A,0A,A02,3.13549421592915,0.508734376320727,0.495613571080975,0.497801954134862,0.5,0.497801954134862,0.50653649962387,0.5,0.495613571080975,0.495613571080975,0.5,0.504386428919025,0.491265623679273,0.5,0.5,0.491265623679273,0.506565191640267,0.494569285849366,0.505430714150634,0.497801954134862,0.508734376320727,0.129550899459921,0.50000587904086,-0.497801954134862,-0.00218838305388744,0.5,0.00439609173027589,1.04174879270792,0.0811663451868011,2.29376692591454,0.5,79.2321227817648
CBC_1029,CBC_1029_MSI_TV_v3_Vset5_Tset2_2023-07-21_14h59.39.665.csv,2,32,0,3,z,0,1,2,tac,D,9,1,0D,3D,0,1,z,1.98345370000061,0,1,1,1,3D,0D,D03,3.85014760171006,0.508734376320727,0.495613571080975,0.495613571080975,0.5,0.497801954134862,0.50653649962387,0.5,0.495613571080975,0.495613571080975,0.5,0.504386428919025,0.491265623679273,0.5,0.5,0.491265623679273,0.506565191640267,0.503261185512271,0.496738814487729,0.506565191640267,0.5,0.245923360576593,0.499372541438884,0.493434808359733,0.00216918468046049,0.5,0.00439609173027589,1.04174879270792,0.0811663451868011,2.29376692591454,0.5,79.2321227817648
CBC_1029,CBC_1029_MSI_TV_v3_Vset5_Tset2_2023-07-21_14h59.39.665.csv,2,33,2,3,b,1,0,1,tac,C,63,1,2C,3C,1,0,z,2.60129090000009,0,1,0,0,3C,2C,C23,2.26176309847379,0.508734376320727,0.495613571080975,0.495613571080975,0.5,0.497801954134862,0.50653649962387,0.5,0.495613571080975,0.495613571080975,0.5,0.504386428919025,0.491265623679273,0.5,0.5,0.491265623679273,0.508734376320727,0.493410948530909,0.506589051469091,0.491265623679273,0.504386428919025,0.13838566831115,0.500359569311856,-0.491265623679273,-0.00215964874562528,0.5,0.00439609173027589,1.04174879270792,0.0811663451868011,2.29376692591454,0.5,79.2321227817648
CBC_1029,CBC_1029_MSI_TV_v3_Vset5_Tset2_2023-07-21_14h59.39.665.csv,2,34,1,0,b,1,0,3,tac,B,63,1,1B,0B,1,0,b,1.50153540000065,1,0,1,1,1B,0B,B10,2.50552593699074,0.508734376320727,0.495613571080975,0.495613571080975,0.5,0.497801954134862,0.50653649962387,0.5,0.495613571080975,0.495613571080975,0.5,0.504386428919025,0.489105974933647,0.5,0.5,0.491265623679273,0.508734376320727,0.504348407380161,0.495651592619839,0.50653649962387,0.497801954134862,0.351663841859976,0.500868509122303,0.49346350037613,0.0021693108131965,0.5,0.00439609173027589,1.04174879270792,0.0811663451868011,2.29376692591454,0.5,79.2321227817648
CBC_1029,CBC_1029_MSI_TV_v3_Vset5_Tset2_2023-07-21_14h59.39.665.csv,2,35,1,0,z,0,1,0,tac,A,63,0,1A,0A,1,0,z,1.8739673,0,1,1,0,0A,1A,A10,2.30258509299405,0.508734376320727,0.495613571080975,0.495613571080975,0.5,0.497801954134862,0.508705810437066,0.5,0.495613571080975,0.495613571080975,0.5,0.504386428919025,0.489105974933647,0.5,0.5,0.491265623679273,0.508734376320727,0.506532001819537,0.493467998180463,0.508734376320727,0.495613571080975,0.272163224841694,0.500356032063276,-0.508734376320727,-0.00223644298465061,0.5,0.00439609173027589,1.04174879270792,0.0811663451868011,2.29376692591454,0.5,79.2321227817648
CBC_1029,CBC_1029_MSI_TV_v3_Vset5_Tset2_2023-07-21_14h59.39.665.csv,2,36,3,2,b,1,0,2,tac,D,63,1,3D,2D,1,0,z,3.48104240000066,0,1,0,0,2D,3D,D32,2.83321334405622,0.506497933336077,0.495613571080975,0.495613571080975,0.5,0.497801954134862,0.508705810437066,0.5,0.495613571080975,0.495613571080975,0.5,0.504386428919025,0.489105974933647,0.5,0.5,0.491265623679273,0.508734376320727,0.491265623679273,0.508734376320727,0.491265623679273,0.508734376320727,0.0605310349969167,0.499476760647992,-0.491265623679273,-0.00215964874562528,0.5,0.00439609173027589,1.04174879270792,0.0811663451868011,2.29376692591454,0.5,79.2321227817648
CBC_1029,CBC_1029_MSI_TV_v3_Vset5_Tset2_2023-07-21_14h59.39.665.csv,2,37,2,1,z,0,1,3,tac,B,9,1,2B,1B,0,1,z,1.40838729999996,0,1,1,1,1B,2B,B21,3.95124371858143,0.506497933336077,0.495613571080975,0.495613571080975,0.5,0.497801954134862,0.508705810437066,0.5,0.495613571080975,0.495613571080975,0.5,0.504386428919025,0.489105974933647,0.5,0.5,0.489105974933647,0.508734376320727,0.504315336715119,0.495684663284881,0.508705810437066,0.5,0.343383067904342,0.500850479289175,0.491294189562934,0.00215977432387021,0.5,0.00439609173027589,1.04174879270792,0.0811663451868011,2.29376692591454,0.5,79.2321227817648
CBC_1029,CBC_1029_MSI_TV_v3_Vset5_Tset2_2023-07-21_14h59.39.665.csv,2,38,0,2,b,1,0,0,tac,A,27,1,0A,2A,1,0,z,1.41790330000003,0,1,0,0,2A,0A,A02,2.87167962488401,0.506497933336077,0.495613571080975,0.495613571080975,0.5,0.497801954134862,0.510865584760936,0.5,0.495613571080975,0.495613571080975,0.5,0.504386428919025,0.489105974933647,0.5,0.5,0.489105974933647,0.508734376320727,0.494569285849366,0.505430714150634,0.495613571080975,0.506497933336077,0.344064263012072,0.498370348154799,-0.495613571080975,-0.00217876272124157,0.5,0.00439609173027589,1.04174879270792,0.0811663451868011,2.29376692591454,0.5,79.2321227817648
CBC_1029,CBC_1029_MSI_TV_v3_Vset5_Tset2_2023-07-21_14h59.39.665.csv,2,39,3,2,z,0,1,1,tac,C,63,1,3C,2C,0,1,b,2.08560050000051,1,0,0,0,3C,2C,C32,3.29583686600433,0.506497933336077,0.495613571080975,0.493434808359733,0.5,0.497801954134862,0.510865584760936,0.5,0.495613571080975,0.495613571080975,0.5,0.504386428919025,0.489105974933647,0.5,0.5,0.489105974933647,0.508734376320727,0.492309727821712,0.507690272178288,0.489105974933647,0.504386428919025,0.223983447566062,0.4998649901654,-0.489105974933647,-0.00215015473163433,0.5,0.00439609173027589,1.04174879270792,0.0811663451868011,2.29376692591454,0.5,79.2321227817648
CBC_1029,CBC_1029_MSI_TV_v3_Vset5_Tset2_2023-07-21_14h59.39.665.csv,2,40,3,1,b,1,0,2,tac,D,27,1,3D,1D,1,0,b,1.20068580000043,1,0,1,1,3D,1D,D31,3.31418600467253,0.506497933336077,0.495613571080975,0.493434808359733,0.5,0.497801954134862,0.510865584760936,0.5,0.495613571080975,0.495613571080975,0.5,0.504386428919025,0.486955820202013,0.5,0.5,0.489105974933647,0.508734376320727,0.504329373780531,0.495670626219469,0.508734376320727,0.5,0.115422378787938,0.500898211845701,0.491265623679273,0.00215964874562528,0.5,0.00439609173027589,1.04174879270792,0.0811663451868011,2.29376692591454,0.5,79.2321227817648
CBC_1029,CBC_1029_MSI_TV_v3_Vset5_Tset2_2023-07-21_14h59.39.665.csv,2,41,1,0,z,0,1,0,tac,A,63,1,1A,0A,0,1,z,1.45253080000111,0,1,1,1,0A,1A,A10,2.23359222150709,0.506497933336077,0.495613571080975,0.493434808359733,0.5,0.497801954134862,0.510865584760936,0.5,0.495613571080975,0.495613571080975,0.5,0.504386428919025,0.486955820202013,0.5,0.5,0.489105974933647,0.510894025066353,0.505430714150634,0.494569285849366,0.506497933336077,0.495613571080975,0.351243408252351,0.501053005985394,0.493502066663923,0.00216948035413533,0.5,0.00439609173027589,1.04174879270792,0.0811663451868011,2.29376692591454,0.5,79.2321227817648
CBC_1029,CBC_1029_MSI_TV_v3_Vset5_Tset2_2023-07-21_14h59.39.665.csv,2,42,2,0,b,1,0,1,tac,C,27,1,2C,0C,1,0,b,2.41656329999932,1,0,1,1,2C,0C,C20,3.3499040872746,0.508667413690212,0.495613571080975,0.493434808359733,0.5,0.497801954134862,0.510865584760936,0.5,0.495613571080975,0.495613571080975,0.5,0.504386428919025,0.486955820202013,0.5,0.5,0.489105974933647,0.510894025066353,0.504386428919025,0.495613571080975,0.504386428919025,0.495613571080975,0.164199316395,0.499284539217318,0.495613571080975,0.00217876272124157,0.5,0.00439609173027589,1.04174879270792,0.0811663451868011,2.29376692591454,0.5,79.2321227817648
CBC_1029,CBC_1029_MSI_TV_v3_Vset5_Tset2_2023-07-21_14h59.39.665.csv,2,43,2,3,z,0,1,2,tac,D,63,1,2D,3D,0,1,z,1.81117629999972,0,1,1,1,3D,2D,D23,2.67414864942653,0.508667413690212,0.495613571080975,0.493434808359733,0.5,0.497801954134862,0.510865584760936,0.5,0.495613571080975,0.495613571080975,0.5,0.506565191640267,0.486955820202013,0.5,0.5,0.489105974933647,0.510894025066353,0.510894025066353,0.489105974933647,0.510894025066353,0.489105974933647,0.287907251475898,0.500793320633139,0.489105974933647,0.00215015473163433,0.5,0.00439609173027589,1.04174879270792,0.0811663451868011,2.29376692591454,0.5,79.2321227817648
CBC_1029,CBC_1029_MSI_TV_v3_Vset5_Tset2_2023-07-21_14h59.39.665.csv,2,44,0,1,z,0,1,3,tac,B,63,1,0B,1B,0,1,z,1.64933500000006,0,1,1,1,1B,0B,B01,2.97892515523761,0.508667413690212,0.495613571080975,0.493434808359733,0.5,0.497801954134862,0.510865584760936,0.5,0.495613571080975,0.495613571080975,0.5,0.506565191640267,0.486955820202013,0.5,0.5,0.489105974933647,0.513044179797987,0.506475687043709,0.493524312956291,0.510865584760936,0.497801954134862,0.328292806643846,0.501802409902532,0.489134415239064,0.00215027975782578,0.5,0.00439609173027589,1.04174879270792,0.0811663451868011,2.29376692591454,0.5,79.2321227817648
CBC_1029,CBC_1029_MSI_AV_v3_Vset6_Aset1_2023-07-21_17h16.24.897.csv,3,1,0,1,z,0,1,3,aud,B,63,1,0B,1B,0,1,b,2.53984019999916,1,0,0,0,0B,1B,B01,2.77258872223978,0.5,0.5,0.5,0.5,0.5,0.5,0.5,0.5,0.5,0.5,0.5,0.5,0.5,0.5,0.5,0.5,0.5,0.5,0.5,0.5,0.116283607559231,0.500084026816379,-0.5,-0.00428613298733094,0.5,0.00857226597466187,0.82616318967264,14.2272985270192,2.24284379536273,0.5,70.7671437466603
CBC_1029,CBC_1029_MSI_AV_v3_Vset6_Aset1_2023-07-21_17h16.24.897.csv,3,2,2,3,z,0,1,2,aud,D,63,1,2D,3D,0,1,z,2.62739710000096,0,1,1,1,3D,2D,D23,2.83321334405622,0.5,0.5,0.5,0.5,0.495713867012669,0.5,0.5,0.5,0.5,0.5,0.5,0.5,0.5,0.5,0.5,0.5,0.5,0.5,0.5,0.5,0.106710158424513,0.500072003899521,0.5,0.00428613298733094,0.5,0.00857226597466187,0.82616318967264,14.2272985270192,2.24284379536273,0.5,70.7671437466603
CBC_1029,CBC_1029_MSI_AV_v3_Vset6_Aset1_2023-07-21_17h16.24.897.csv,3,3,1,3,b,1,0,3,aud,B,27,1,1B,3B,1,0,z,1.92127389999951,0,1,0,0,3B,1B,B13,2.89037175789616,0.5,0.5,0.5,0.5,0.495713867012669,0.5,0.5,0.5,0.5,0.5,0.5,0.5,0.5,0.5,0.5,0.504286132987331,0.5,0.5,0.5,0.5,0.2128697982507,0.499275728775821,-0.5,-0.00428613298733094,0.5,0.00857226597466187,0.82616318967264,14.2272985270192,2.24284379536273,0.5,70.7671437466603
CBC_1029,CBC_1029_MSI_AV_v3_Vset6_Aset1_2023-07-21_17h16.24.897.csv,3,4,3,2,z,0,1,1,aud,C,63,1,3C,2C,0,1,z,1.84123919999911,0,1,1,1,2C,3C,C32,2.94443897916644,0.5,0.5,0.5,0.5,0.495713867012669,0.5,0.5,0.495713867012669,0.5,0.5,0.5,0.5,0.5,0.5,0.5,0.504286132987331,0.5,0.5,0.5,0.5,0.230277485614878,0.499563244668223,0.5,0.00428613298733094,0.5,0.00857226597466187,0.82616318967264,14.2272985270192,2.24284379536273,0.5,70.7671437466603
CBC_1029,CBC_1029_MSI_AV_v3_Vset6_Aset1_2023-07-21_17h16.24.897.csv,3,5,2,0,b,1,0,1,aud,C,27,1,2C,0C,1,0,b,1.39579419999791,1,0,1,1,2C,0C,C20,2.99573227355399,0.5,0.5,0.5,0.5,0.495713867012669,0.5,0.5,0.495713867012669,0.5,0.5,0.504286132987331,0.5,0.5,0.5,0.5,0.504286132987331,0.502133920227785,0.497866079772215,0.504286132987331,0.5,0.368729728192047,0.533869101015822,0.495713867012669,0.00424939111536076,0.5,0.00857226597466187,0.82616318967264,14.2272985270192,2.24284379536273,0.5,70.7671437466603
CBC_1029,CBC_1029_MSI_AV_v3_Vset6_Aset1_2023-07-21_17h16.24.897.csv,3,6,3,0,z,0,1,0,aud,A,9,1,3A,0A,0,1,z,2.74288069999966,0,1,1,1,0A,3A,A30,3.04452243772342,0.5,0.5,0.5,0.5,0.495713867012669,0.5,0.5,0.495713867012669,0.5,0.5,0.508535524102692,0.5,0.5,0.5,0.5,0.504286132987331,0.5,0.5,0.5,0.5,0.095418304095886,0.500794398925854,0.5,0.00428613298733094,0.5,0.00857226597466187,0.82616318967264,14.2272985270192,2.24284379536273,0.5,70.7671437466603
CBC_1029,CBC_1029_MSI_AV_v3_Vset6_Aset1_2023-07-21_17h16.24.897.csv,3,7,3,2,z,0,1,1,aud,C,63,1,3C,2C,0,1,z,1.36125170000014,0,1,1,1,2C,3C,C32,2.39789527279837,0.504286132987331,0.5,0.5,0.5,0.495713867012669,0.5,0.5,0.495713867012669,0.5,0.5,0.508535524102692,0.5,0.5,0.5,0.5,0.504286132987331,0.504231642762552,0.495768357237448,0.508535524102692,0.5,0.402078676888447,0.566829739843659,0.491464475897308,0.00421296420448953,0.5,0.00857226597466187,0.82616318967264,14.2272985270192,2.24284379536273,0.5,70.7671437466603
CBC_1029,CBC_1029_MSI_AV_v3_Vset6_Aset1_2023-07-21_17h16.24.897.csv,3,8,0,1,b,1,0,0,aud,A,63,1,0A,1A,1,0,b,2.09805450000204,1,0,1,1,0A,1A,A01,3.13549421592915,0.504286132987331,0.5,0.5,0.5,0.495713867012669,0.5,0.5,0.495713867012669,0.5,0.5,0.512748488307181,0.5,0.5,0.5,0.5,0.504286132987331,0.502133920227785,0.497866079772215,0.504286132987331,0.5,0.191431598554565,0.533811269271679,0.495713867012669,0.00424939111536076,0.5,0.00857226597466187,0.82616318967264,14.2272985270192,2.24284379536273,0.5,70.7671437466603
CBC_1029,CBC_1029_MSI_AV_v3_Vset6_Aset1_2023-07-21_17h16.24.897.csv,3,9,3,2,b,1,0,2,aud,D,63,1,3D,2D,1,0,z,2.1090675000014,0,1,0,0,2D,3D,D32,3.17805383034795,0.508535524102692,0.5,0.5,0.5,0.495713867012669,0.5,0.5,0.495713867012669,0.5,0.5,0.512748488307181,0.5,0.5,0.5,0.5,0.504286132987331,0.497866079772215,0.502133920227785,0.5,0.504286132987331,0.165088075945669,0.465357449626605,-0.5,-0.00428613298733094,0.5,0.00857226597466187,0.82616318967264,14.2272985270192,2.24284379536273,0.5,70.7671437466603
CBC_1029,CBC_1029_MSI_AV_v3_Vset6_Aset1_2023-07-21_17h16.24.897.csv,3,10,2,3,b,1,0,1,aud,C,63,1,2C,3C,1,0,b,1.56771060000028,1,0,1,1,2C,3C,C23,3.2188758248682,0.508535524102692,0.5,0.5,0.5,0.495713867012669,0.5,0.5,0.495713867012669,0.5,0.5,0.512748488307181,0.5,0.5,0.5,0.495713867012669,0.504286132987331,0.506294005103128,0.493705994896872,0.512748488307181,0.5,0.361006252727558,0.59874228521883,0.487251511692819,0.00417684955478691,0.5,0.00857226597466187,0.82616318967264,14.2272985270192,2.24284379536273,0.5,70.7671437466603
CBC_1029,CBC_1029_MSI_AV_v3_Vset6_Aset1_2023-07-21_17h16.24.897.csv,3,11,1,3,z,0,1,2,aud,D,27,1,1D,3D,0,1,z,3.08530520000204,0,1,1,1,3D,1D,D13,3.25809653802148,0.508535524102692,0.5,0.5,0.5,0.495713867012669,0.5,0.5,0.495713867012669,0.5,0.5,0.516925337861968,0.5,0.5,0.5,0.495713867012669,0.504286132987331,0.502133920227785,0.497866079772215,0.504286132987331,0.5,0.0725933193274347,0.534096467303327,0.495713867012669,0.00424939111536076,0.5,0.00857226597466187,0.82616318967264,14.2272985270192,2.24284379536273,0.5,70.7671437466603
CBC_1029,CBC_1029_MSI_AV_v3_Vset6_Aset1_2023-07-21_17h16.24.897.csv,3,12,1,0,z,0,1,0,aud,A,63,0,1A,0A,1,0,z,1.64243630000055,0,1,1,0,0A,1A,A10,3.29583686600433,0.508535524102692,0.5,0.5,0.5,0.495713867012669,0.5,0.5,0.495713867012669,0.5,0.5,0.516925337861968,0.5,0.5,0.5,0.495713867012669,0.508535524102692,0.504231642762552,0.495768357237448,0.508535524102692,0.5,0.317637617107729,0.567397123740016,-0.508535524102692,-0.00435930177017235,0.5,0.00857226597466187,0.82616318967264,14.2272985270192,2.24284379536273,0.5,70.7671437466603
CBC_1029,CBC_1029_MSI_AV_v3_Vset6_Aset1_2023-07-21_17h16.24.897.csv,3,13,2,3,b,1,0,1,aud,C,63,1,2C,3C,1,0,z,2.30276040000172,0,1,0,0,3C,2C,C23,2.63905732961526,0.504176222332519,0.5,0.5,0.5,0.495713867012669,0.5,0.5,0.495713867012669,0.5,0.5,0.516925337861968,0.5,0.5,0.5,0.495713867012669,0.508535524102692,0.491678180672756,0.508321819327244,0.5,0.516925337861968,0.108040460324694,0.370629285156216,-0.5,-0.00428613298733094,0.5,0.00857226597466187,0.82616318967264,14.2272985270192,2.24284379536273,0.5,70.7671437466603
CBC_1029,CBC_1029_MSI_AV_v3_Vset6_Aset1_2023-07-21_17h16.24.897.csv,3,14,0,2,b,1,0,0,aud,A,27,1,0A,2A,1,0,b,2.21084630000041,1,0,1,1,0A,2A,A02,3.36729582998647,0.504176222332519,0.5,0.5,0.5,0.495713867012669,0.5,0.5,0.495713867012669,0.5,0.5,0.516925337861968,0.495713867012669,0.5,0.5,0.495713867012669,0.508535524102692,0.502079427016714,0.497920572983286,0.504176222332519,0.5,0.170881637752915,0.532315411002973,0.495823777667481,0.00425033329872726,0.5,0.00857226597466187,0.82616318967264,14.2272985270192,2.24284379536273,0.5,70.7671437466603
CBC_1029,CBC_1029_MSI_AV_v3_Vset6_Aset1_2023-07-21_17h16.24.897.csv,3,15,0,1,z,0,1,3,aud,B,63,1,0B,1B,0,1,b,1.822737100003,1,0,0,0,0B,1B,B01,2.70805020110221,0.508426555631247,0.5,0.5,0.5,0.495713867012669,0.5,0.5,0.495713867012669,0.5,0.5,0.516925337861968,0.495713867012669,0.5,0.5,0.495713867012669,0.508535524102692,0.497847708498733,0.502152291501267,0.495713867012669,0.5,0.218847573331614,0.466081080282484,-0.495713867012669,-0.00424939111536076,0.5,0.00857226597466187,0.82616318967264,14.2272985270192,2.24284379536273,0.5,70.7671437466603
CBC_1029,CBC_1029_MSI_AV_v3_Vset6_Aset1_2023-07-21_17h16.24.897.csv,3,16,3,2,b,1,0,2,aud,D,63,1,3D,2D,1,0,z,1.75301889999901,0,1,0,0,2D,3D,D32,2.7408400239252,0.508426555631247,0.5,0.5,0.5,0.491464475897308,0.5,0.5,0.495713867012669,0.5,0.5,0.516925337861968,0.495713867012669,0.5,0.5,0.495713867012669,0.508535524102692,0.493616298300275,0.506383701699725,0.495713867012669,0.508535524102692,0.201242884347832,0.3986356905403,-0.495713867012669,-0.00424939111536076,0.5,0.00857226597466187,0.82616318967264,14.2272985270192,2.24284379536273,0.5,70.7671437466603
CBC_1029,CBC_1029_MSI_AV_v3_Vset6_Aset1_2023-07-21_17h16.24.897.csv,3,17,1,2,b,1,0,3,aud,B,9,1,1B,2B,1,0,z,1.4667748000029,0,1,0,0,2B,1B,B12,3.46573590279973,0.508426555631247,0.5,0.5,0.5,0.491464475897308,0.5,0.5,0.495713867012669,0.5,0.5,0.516925337861968,0.495713867012669,0.5,0.5,0.491464475897308,0.508535524102692,0.5,0.5,0.5,0.5,0.32695853666535,0.500570322742967,-0.5,-0.00428613298733094,0.5,0.00857226597466187,0.82616318967264,14.2272985270192,2.24284379536273,0.5,70.7671437466603
CBC_1029,CBC_1029_MSI_AV_v3_Vset6_Aset1_2023-07-21_17h16.24.897.csv,3,18,1,3,z,0,1,2,aud,D,27,1,1D,3D,0,1,z,1.7553869000003,0,1,1,1,3D,1D,D13,2.80336038090653,0.508426555631247,0.5,0.5,0.5,0.491464475897308,0.5,0.495713867012669,0.495713867012669,0.5,0.5,0.516925337861968,0.495713867012669,0.5,0.5,0.491464475897308,0.508535524102692,0.504231642762552,0.495768357237448,0.508535524102692,0.5,0.285033665064111,0.567617952284236,0.491464475897308,0.00421296420448953,0.5,0.00857226597466187,0.82616318967264,14.2272985270192,2.24284379536273,0.5,70.7671437466603
CBC_1029,CBC_1029_MSI_AV_v3_Vset6_Aset1_2023-07-21_17h16.24.897.csv,3,19,0,1,b,1,0,0,aud,A,63,1,0A,1A,1,0,z,2.32253599999967,0,1,0,0,1A,0A,A01,2.83321334405622,0.508426555631247,0.5,0.5,0.5,0.491464475897308,0.5,0.495713867012669,0.495713867012669,0.5,0.5,0.516925337861968,0.495713867012669,0.5,0.5,0.491464475897308,0.512748488307181,0.495821928932657,0.504178071067343,0.5,0.508426555631247,0.1245960505835,0.433711024777634,-0.5,-0.00428613298733094,0.5,0.00857226597466187,0.82616318967264,14.2272985270192,2.24284379536273,0.5,70.7671437466603
CBC_1029,CBC_1029_MSI_AV_v3_Vset6_Aset1_2023-07-21_17h16.24.897.csv,3,20,1,0,z,0,1,0,aud,A,63,1,1A,0A,0,1,z,2.43662190000032,0,1,1,1,0A,1A,A10,2.86220088092947,0.508426555631247,0.495713867012669,0.5,0.5,0.491464475897308,0.5,0.495713867012669,0.495713867012669,0.5,0.5,0.516925337861968,0.495713867012669,0.5,0.5,0.491464475897308,0.512748488307181,0.506330134875511,0.493669865124489,0.508426555631247,0.495713867012669,0.153548070350022,0.600312107999045,0.491573444368753,0.00421389831120961,0.5,0.00857226597466187,0.82616318967264,14.2272985270192,2.24284379536273,0.5,70.7671437466603
CBC_1029,CBC_1029_MSI_AV_v3_Vset6_Aset1_2023-07-21_17h16.24.897.csv,3,21,2,0,b,1,0,1,aud,C,27,1,2C,0C,1,0,z,2.90278970000145,0,1,0,0,0C,2C,C20,2.89037175789616,0.512640453942456,0.495713867012669,0.5,0.5,0.491464475897308,0.5,0.495713867012669,0.495713867012669,0.5,0.5,0.516925337861968,0.495713867012669,0.5,0.5,0.491464475897308,0.512748488307181,0.491678180672756,0.508321819327244,0.5,0.516925337861968,0.0589362864218186,0.370395236345861,-0.5,-0.00428613298733094,0.5,0.00857226597466187,0.82616318967264,14.2272985270192,2.24284379536273,0.5,70.7671437466603
CBC_1029,CBC_1029_MSI_AV_v3_Vset6_Aset1_2023-07-21_17h16.24.897.csv,3,22,0,1,z,0,1,3,aud,B,63,1,0B,1B,0,1,b,1.70822370000315,1,0,0,0,0B,1B,B01,2.51230562397611,0.512640453942456,0.495713867012669,0.5,0.5,0.491464475897308,0.5,0.495713867012669,0.495713867012669,0.495713867012669,0.5,0.516925337861968,0.495713867012669,0.5,0.5,0.491464475897308,0.512748488307181,0.495695496757477,0.504304503242523,0.491464475897308,0.5,0.226536811465371,0.430923890322215,-0.491464475897308,-0.00421296420448953,0.5,0.00857226597466187,0.82616318967264,14.2272985270192,2.24284379536273,0.5,70.7671437466603
CBC_1029,CBC_1029_MSI_AV_v3_Vset6_Aset1_2023-07-21_17h16.24.897.csv,3,23,2,0,b,1,0,1,aud,C,27,1,2C,0C,1,0,b,2.39700210000228,1,0,1,1,2C,0C,C20,2.53897387105828,0.512640453942456,0.495713867012669,0.5,0.5,0.487251511692819,0.5,0.495713867012669,0.495713867012669,0.495713867012669,0.5,0.516925337861968,0.495713867012669,0.5,0.5,0.491464475897308,0.512748488307181,0.510473360475869,0.489526639524131,0.516925337861968,0.495713867012669,0.174179920536751,0.660886339272236,0.483074662138032,0.00414104448946713,0.5,0.00857226597466187,0.82616318967264,14.2272985270192,2.24284379536273,0.5,70.7671437466603
CBC_1029,CBC_1029_MSI_AV_v3_Vset6_Aset1_2023-07-21_17h16.24.897.csv,3,24,3,2,b,1,0,2,aud,D,63,1,3D,2D,1,0,b,2.27793079999901,1,0,1,1,3D,2D,D32,2.56494935746154,0.512640453942456,0.495713867012669,0.5,0.5,0.487251511692819,0.5,0.495713867012669,0.495713867012669,0.495713867012669,0.5,0.521066382351435,0.495713867012669,0.5,0.5,0.491464475897308,0.512748488307181,0.510597359906986,0.489402640093014,0.512748488307181,0.491464475897308,0.197347727836672,0.662948011475577,0.487251511692819,0.00417684955478691,0.5,0.00857226597466187,0.82616318967264,14.2272985270192,2.24284379536273,0.5,70.7671437466603
CBC_1029,CBC_1029_MSI_AV_v3_Vset6_Aset1_2023-07-21_17h16.24.897.csv,3,25,1,0,z,0,1,0,aud,A,63,1,1A,0A,0,1,z,4.2087317000005,0,1,1,1,0A,1A,A10,2.59026716544583,0.512640453942456,0.495713867012669,0.5,0.5,0.487251511692819,0.5,0.495713867012669,0.495713867012669,0.495713867012669,0.5,0.521066382351435,0.495713867012669,0.5,0.5,0.491464475897308,0.516925337861968,0.508393174193846,0.491606825806154,0.512640453942456,0.495713867012669,0.0268381151590458,0.630451005077884,0.487359546057544,0.00417777565409574,0.5,0.00857226597466187,0.82616318967264,14.2272985270192,2.24284379536273,0.5,70.7671437466603
CBC_1029,CBC_1029_MSI_AV_v3_Vset6_Aset1_2023-07-21_17h16.24.897.csv,3,26,3,2,z,0,1,1,aud,C,63,1,3C,2C,0,1,z,1.09646770000109,0,1,1,1,2C,3C,C32,2.6149597780362,0.516818229596552,0.495713867012669,0.5,0.5,0.487251511692819,0.5,0.495713867012669,0.495713867012669,0.495713867012669,0.5,0.521066382351435,0.495713867012669,0.5,0.5,0.491464475897308,0.516925337861968,0.512467057338408,0.487532942661592,0.521066382351435,0.495713867012669,0.455142003013027,0.689188977900944,0.478933617648565,0.00410554635469051,0.5,0.00857226597466187,0.82616318967264,14.2272985270192,2.24284379536273,0.5,70.7671437466603
CBC_1029,CBC_1029_MSI_AV_v3_Vset6_Aset1_2023-07-21_17h16.24.897.csv,3,27,2,0,z,0,1,0,aud,A,27,1,2A,0A,0,1,z,1.61070090000067,0,1,1,1,0A,2A,A20,3.73766961828337,0.516818229596552,0.495713867012669,0.5,0.5,0.487251511692819,0.5,0.495713867012669,0.495713867012669,0.495713867012669,0.5,0.525171928706126,0.495713867012669,0.5,0.5,0.491464475897308,0.516925337861968,0.508270027575737,0.491729972424263,0.516818229596552,0.5,0.365976944670945,0.628639871688595,0.483181770403448,0.00414196265000636,0.5,0.00857226597466187,0.82616318967264,14.2272985270192,2.24284379536273,0.5,70.7671437466603
CBC_1029,CBC_1029_MSI_AV_v3_Vset6_Aset1_2023-07-21_17h16.24.897.csv,3,28,3,2,b,1,0,2,aud,D,63,1,3D,2D,1,0,z,1.71500110000125,0,1,0,0,2D,3D,D32,2.37490575457367,0.520960192246558,0.495713867012669,0.5,0.5,0.487251511692819,0.5,0.495713867012669,0.495713867012669,0.495713867012669,0.5,0.525171928706126,0.495713867012669,0.5,0.5,0.491464475897308,0.516925337861968,0.487375486336112,0.512624513663889,0.491464475897308,0.516925337861968,0.163888836352272,0.307863880381245,-0.491464475897308,-0.00421296420448953,0.5,0.00857226597466187,0.82616318967264,14.2272985270192,2.24284379536273,0.5,70.7671437466603
CBC_1029,CBC_1029_MSI_AV_v3_Vset6_Aset1_2023-07-21_17h16.24.897.csv,3,29,3,2,b,1,0,2,aud,D,63,1,3D,2D,1,0,b,2.32758959999774,1,0,1,1,3D,2D,D32,2.17475172148416,0.520960192246558,0.495713867012669,0.5,0.5,0.487251511692819,0.5,0.495713867012669,0.495713867012669,0.495713867012669,0.5,0.525171928706126,0.495713867012669,0.5,0.5,0.487251511692819,0.516925337861968,0.514775199299957,0.485224800700043,0.516925337861968,0.487251511692819,0.200885174863345,0.719592239259623,0.483074662138032,0.00414104448946713,0.5,0.00857226597466187,0.82616318967264,14.2272985270192,2.24284379536273,0.5,70.7671437466603
CBC_1029,CBC_1029_MSI_AV_v3_Vset6_Aset1_2023-07-21_17h16.24.897.csv,3,30,3,1,z,0,1,3,aud,B,27,1,3B,1B,0,1,z,2.3555465999998,0,1,1,1,1B,3B,B31,3.80666248977032,0.520960192246558,0.495713867012669,0.5,0.5,0.487251511692819,0.5,0.495713867012669,0.495713867012669,0.495713867012669,0.5,0.525171928706126,0.495713867012669,0.5,0.5,0.487251511692819,0.521066382351435,0.502152291501267,0.497847708498733,0.5,0.495713867012669,0.148640876056015,0.533785876354656,0.5,0.00428613298733094,0.5,0.00857226597466187,0.82616318967264,14.2272985270192,2.24284379536273,0.5,70.7671437466603
CBC_1029,CBC_1029_MSI_AV_v3_Vset6_Aset1_2023-07-21_17h16.24.897.csv,3,31,0,3,z,0,1,2,aud,D,9,1,0D,3D,0,1,z,1.63751120000234,0,1,1,1,3D,0D,D03,3.8286413964891,0.520960192246558,0.495713867012669,0.5,0.5,0.487251511692819,0.504286132987331,0.495713867012669,0.495713867012669,0.495713867012669,0.5,0.525171928706126,0.495713867012669,0.5,0.5,0.487251511692819,0.521066382351435,0.510315873049763,0.489684126950238,0.521066382351435,0.5,0.376106627281011,0.658750026815836,0.478933617648565,0.00410554635469051,0.5,0.00857226597466187,0.82616318967264,14.2272985270192,2.24284379536273,0.5,70.7671437466603
CBC_1029,CBC_1029_MSI_AV_v3_Vset6_Aset1_2023-07-21_17h16.24.897.csv,3,32,1,0,b,1,0,3,aud,B,63,1,1B,0B,1,0,z,2.51423480000085,0,1,0,0,0B,1B,B10,3.85014760171006,0.520960192246558,0.495713867012669,0.5,0.5,0.487251511692819,0.504286132987331,0.495713867012669,0.495713867012669,0.495713867012669,0.5,0.525171928706126,0.495713867012669,0.5,0.5,0.487251511692819,0.525171928706126,0.491409997701092,0.508590002298908,0.487251511692819,0.504286132987331,0.0860428784250181,0.36573554729329,-0.487251511692819,-0.00417684955478691,0.5,0.00857226597466187,0.82616318967264,14.2272985270192,2.24284379536273,0.5,70.7671437466603
CBC_1029,CBC_1029_MSI_AV_v3_Vset6_Aset1_2023-07-21_17h16.24.897.csv,3,33,1,0,z,0,1,0,aud,A,63,1,1A,0A,0,1,z,2.68172290000075,0,1,1,1,0A,1A,A10,2.484906649788,0.520960192246558,0.495713867012669,0.5,0.5,0.483074662138032,0.504286132987331,0.495713867012669,0.495713867012669,0.495713867012669,0.5,0.525171928706126,0.495713867012669,0.5,0.5,0.487251511692819,0.525171928706126,0.512416135242146,0.487583864757853,0.520960192246558,0.495713867012669,0.134016684730096,0.689270910619229,0.479039807753442,0.00410645664451339,0.5,0.00857226597466187,0.82616318967264,14.2272985270192,2.24284379536273,0.5,70.7671437466603
CBC_1029,CBC_1029_MSI_AV_v3_Vset6_Aset1_2023-07-21_17h16.24.897.csv,3,34,1,0,b,1,0,3,aud,B,63,1,1B,0B,1,0,z,1.42032830000244,0,1,0,0,0B,1B,B10,3.19867311755068,0.525066648891072,0.495713867012669,0.5,0.5,0.483074662138032,0.504286132987331,0.495713867012669,0.495713867012669,0.495713867012669,0.5,0.525171928706126,0.495713867012669,0.5,0.5,0.487251511692819,0.525171928706126,0.489258500563309,0.510741499436691,0.483074662138032,0.504286132987331,0.233702280687263,0.334709472808014,-0.483074662138032,-0.00414104448946713,0.5,0.00857226597466187,0.82616318967264,14.2272985270192,2.24284379536273,0.5,70.7671437466603
CBC_1029,CBC_1029_MSI_AV_v3_Vset6_Aset1_2023-07-21_17h16.24.897.csv,3,35,3,2,z,0,1,1,aud,C,63,1,3C,2C,0,1,z,1.1278117000038,0,1,1,1,2C,3C,C32,2.52572864430826,0.525066648891072,0.495713867012669,0.5,0.5,0.478933617648565,0.504286132987331,0.495713867012669,0.495713867012669,0.495713867012669,0.5,0.525171928706126,0.495713867012669,0.5,0.5,0.487251511692819,0.525171928706126,0.514427696916243,0.485572303083757,0.525171928706126,0.495713867012669,0.518902764365279,0.715254935176058,0.474828071293874,0.0040703525193668,0.5,0.00857226597466187,0.82616318967264,14.2272985270192,2.24284379536273,0.5,70.7671437466603
CBC_1029,CBC_1029_MSI_AV_v3_Vset6_Aset1_2023-07-21_17h16.24.897.csv,3,36,0,2,b,1,0,0,aud,A,27,1,0A,2A,1,0,b,2.53960160000133,1,0,1,1,0A,2A,A02,3.23867845216438,0.525066648891072,0.495713867012669,0.5,0.5,0.478933617648565,0.504286132987331,0.495713867012669,0.495713867012669,0.495713867012669,0.5,0.529242281225493,0.495713867012669,0.5,0.5,0.487251511692819,0.525171928706126,0.512226838575906,0.487773161424094,0.525066648891072,0.5,0.154898549920699,0.685946053087063,0.474933351108928,0.00407125500594321,0.5,0.00857226597466187,0.82616318967264,14.2272985270192,2.24284379536273,0.5,70.7671437466603
CBC_1029,CBC_1029_MSI_AV_v3_Vset6_Aset1_2023-07-21_17h16.24.897.csv,3,37,1,0,b,1,0,3,aud,B,63,1,1B,0B,1,0,z,1.33412409999801,0,1,0,0,0B,1B,B10,2.85263142991332,0.529137903897015,0.495713867012669,0.5,0.5,0.478933617648565,0.504286132987331,0.495713867012669,0.495713867012669,0.495713867012669,0.5,0.529242281225493,0.495713867012669,0.5,0.5,0.487251511692819,0.525171928706126,0.487107401309641,0.512892598690359,0.478933617648565,0.504286132987331,0.22959438803658,0.305345390837578,-0.478933617648565,-0.00410554635469051,0.5,0.00857226597466187,0.82616318967264,14.2272985270192,2.24284379536273,0.5,70.7671437466603
CBC_1029,CBC_1029_MSI_AV_v3_Vset6_Aset1_2023-07-21_17h16.24.897.csv,3,38,3,1,z,0,1,3,aud,B,27,1,3B,1B,0,1,z,1.78639560000374,0,1,1,1,1B,3B,B31,3.27714473299218,0.529137903897015,0.495713867012669,0.5,0.5,0.474828071293874,0.504286132987331,0.495713867012669,0.495713867012669,0.495713867012669,0.5,0.529242281225493,0.495713867012669,0.5,0.5,0.487251511692819,0.525171928706126,0.504286132987331,0.495713867012669,0.504286132987331,0.495713867012669,0.276866857335834,0.568240222588713,0.495713867012669,0.00424939111536076,0.5,0.00857226597466187,0.82616318967264,14.2272985270192,2.24284379536273,0.5,70.7671437466603
CBC_1029,CBC_1029_MSI_AV_v3_Vset6_Aset1_2023-07-21_17h16.24.897.csv,3,39,3,2,z,0,1,1,aud,C,63,1,3C,2C,0,1,z,0.938702899999043,0,1,1,1,2C,3C,C32,2.37954613413017,0.529137903897015,0.495713867012669,0.5,0.5,0.474828071293874,0.508535524102692,0.495713867012669,0.495713867012669,0.495713867012669,0.5,0.529242281225493,0.495713867012669,0.5,0.5,0.487251511692819,0.525171928706126,0.516356023753044,0.483643976246956,0.529242281225493,0.495713867012669,0.0738648549437067,0.739477625823966,0.470757718774507,0.00403546037496015,0.5,0.00857226597466187,0.82616318967264,14.2272985270192,2.24284379536273,0.5,70.7671437466603
CBC_1029,CBC_1029_MSI_AV_v3_Vset6_Aset1_2023-07-21_17h16.24.897.csv,3,40,3,1,b,1,0,2,aud,D,27,1,3D,1D,1,0,b,2.16352660000121,1,0,1,1,3D,1D,D31,4.00733318523247,0.529137903897015,0.495713867012669,0.5,0.5,0.474828071293874,0.508535524102692,0.495713867012669,0.495713867012669,0.495713867012669,0.5,0.533277741600453,0.495713867012669,0.5,0.5,0.487251511692819,0.525171928706126,0.512276930337868,0.487723069662132,0.525171928706126,0.5,0.229388579371151,0.686668526246962,0.474828071293874,0.0040703525193668,0.5,0.00857226597466187,0.82616318967264,14.2272985270192,2.24284379536273,0.5,70.7671437466603
CBC_1029,CBC_1029_MSI_AV_v3_Vset6_Aset1_2023-07-21_17h16.24.897.csv,3,41,1,2,z,0,1,1,aud,C,9,1,1C,2C,0,1,z,1.77853020000111,0,1,1,1,2C,1C,C12,4.02535169073515,0.529137903897015,0.495713867012669,0.5,0.5,0.474828071293874,0.508535524102692,0.495713867012669,0.495713867012669,0.495713867012669,0.5,0.533277741600453,0.495713867012669,0.5,0.5,0.487251511692819,0.529242281225493,0.516102999348901,0.483897000651099,0.533277741600453,0.5,0.370382820675547,0.73624868630597,0.466722258399547,0.00400086733529579,0.5,0.00857226597466187,0.82616318967264,14.2272985270192,2.24284379536273,0.5,70.7671437466603
CBC_1029,CBC_1029_MSI_AV_v3_Vset6_Aset1_2023-07-21_17h16.24.897.csv,3,42,0,1,z,0,1,3,aud,B,63,0,0B,1B,1,0,b,1.32587620000049,1,0,0,1,0B,1B,B01,2.65675690671466,0.529137903897015,0.495713867012669,0.5,0.5,0.474828071293874,0.508535524102692,0.495713867012669,0.495713867012669,0.495713867012669,0.5,0.537278608935749,0.495713867012669,0.5,0.5,0.487251511692819,0.529242281225493,0.482861144663778,0.517138855336222,0.474828071293874,0.508535524102692,0.196346764742949,0.251103498069541,0.525171928706126,0.00450191345529507,0.5,0.00857226597466187,0.82616318967264,14.2272985270192,2.24284379536273,0.5,70.7671437466603
CBC_1029,CBC_1029_MSI_AV_v3_Vset6_Aset1_2023-07-21_17h16.24.897.csv,3,43,3,2,b,1,0,2,aud,D,63,1,3D,2D,1,0,b,1.67314799999804,1,0,1,1,3D,2D,D32,2.26868354131836,0.529137903897015,0.495713867012669,0.5,0.5,0.479329984749169,0.508535524102692,0.495713867012669,0.495713867012669,0.495713867012669,0.5,0.537278608935749,0.495713867012669,0.5,0.5,0.487251511692819,0.529242281225493,0.520654710252642,0.479345289747358,0.529242281225493,0.487251511692819,0.452384002317507,0.788595651106779,0.470757718774507,0.00403546037496015,0.5,0.00857226597466187,0.82616318967264,14.2272985270192,2.24284379536273,0.5,70.7671437466603
CBC_1029,CBC_1029_MSI_AV_v3_Vset6_Aset1_2023-07-21_17h16.24.897.csv,3,44,0,1,b,1,0,0,aud,A,63,1,0A,1A,1,0,z,2.65657139999894,0,1,0,0,1A,0A,A01,2.97892515523761,0.529137903897015,0.495713867012669,0.5,0.5,0.479329984749169,0.508535524102692,0.495713867012669,0.495713867012669,0.495713867012669,0.5,0.537278608935749,0.495713867012669,0.5,0.5,0.487251511692819,0.533277741600453,0.483693233581146,0.516306766418854,0.495713867012669,0.529137903897015,0.0505786353759029,0.26092149037356,-0.495713867012669,-0.00424939111536076,0.5,0.00857226597466187,0.82616318967264,14.2272985270192,2.24284379536273,0.5,70.7671437466603
CBC_1029,CBC_1029_MSI_TV_v3_Vset3_Tset1_2023-07-21_17h25.06.255.csv,4,1,1,0,z,0,1,0,tac,A,63,1,1A,0A,0,1,z,2.36152779999975,0,1,1,1,0A,1A,A10,2.77258872223978,0.5,0.5,0.5,0.5,0.5,0.5,0.5,0.5,0.5,0.5,0.5,0.5,0.5,0.5,0.5,0.5,0.5,0.5,0.5,0.5,0.131087873027502,0.499537442647814,0.5,0.0108365261364985,0.5,0.021673052272997,0.59771500683709,8.14826869294117,3.16077027445952,0.5,93.3590782156906
CBC_1029,CBC_1029_MSI_TV_v3_Vset3_Tset1_2023-07-21_17h25.06.255.csv,4,2,3,2,z,0,1,1,tac,C,63,1,3C,2C,0,1,z,3.99804819999554,0,1,1,1,2C,3C,C32,2.83321334405622,0.510836526136498,0.5,0.5,0.5,0.5,0.5,0.5,0.5,0.5,0.5,0.5,0.5,0.5,0.5,0.5,0.5,0.5,0.5,0.5,0.5,0.0586674145001014,0.500316748640168,0.5,0.0108365261364985,0.5,0.021673052272997,0.59771500683709,8.14826869294117,3.16077027445952,0.5,93.3590782156906
CBC_1029,CBC_1029_MSI_TV_v3_Vset3_Tset1_2023-07-21_17h25.06.255.csv,4,3,0,2,b,1,0,0,tac,A,27,1,0A,2A,1,0,z,2.6808839999976,0,1,0,0,2A,0A,A02,2.89037175789616,0.510836526136498,0.5,0.5,0.5,0.5,0.5,0.5,0.5,0.5,0.5,0.510836526136498,0.5,0.5,0.5,0.5,0.5,0.494639822633875,0.505360177366125,0.5,0.510836526136498,0.0969127019104267,0.430854643244321,-0.5,-0.0108365261364985,0.5,0.021673052272997,0.59771500683709,8.14826869294117,3.16077027445952,0.5,93.3590782156906
CBC_1029,CBC_1029_MSI_TV_v3_Vset3_Tset1_2023-07-21_17h25.06.255.csv,4,4,1,0,b,1,0,3,tac,B,63,1,1B,0B,1,0,b,3.40184409999711,1,0,1,1,1B,0B,B10,2.94443897916644,0.510836526136498,0.5,0.489163473863502,0.5,0.5,0.5,0.5,0.5,0.5,0.5,0.510836526136498,0.5,0.5,0.5,0.5,0.5,0.5,0.5,0.5,0.5,0.0786543288983359,0.499678941393321,0.5,0.0108365261364985,0.5,0.021673052272997,0.59771500683709,8.14826869294117,3.16077027445952,0.5,93.3590782156906
CBC_1029,CBC_1029_MSI_TV_v3_Vset3_Tset1_2023-07-21_17h25.06.255.csv,4,5,2,3,z,0,1,2,tac,D,63,1,2D,3D,0,1,z,4.34453979999671,0,1,1,1,3D,2D,D23,2.99573227355399,0.510836526136498,0.5,0.489163473863502,0.5,0.5,0.510836526136498,0.5,0.5,0.5,0.5,0.510836526136498,0.5,0.5,0.5,0.5,0.5,0.5,0.5,0.5,0.5,0.049528264236744,0.501221678352665,0.5,0.0108365261364985,0.5,0.021673052272997,0.59771500683709,8.14826869294117,3.16077027445952,0.5,93.3590782156906
CBC_1029,CBC_1029_MSI_TV_v3_Vset3_Tset1_2023-07-21_17h25.06.255.csv,4,6,1,2,b,1,0,3,tac,B,9,1,1B,2B,1,0,b,4.59496989999752,1,0,1,1,1B,2B,B12,3.04452243772342,0.510836526136498,0.5,0.489163473863502,0.5,0.5,0.510836526136498,0.5,0.5,0.5,0.5,0.510836526136498,0.5,0.5,0.5,0.5,0.510836526136498,0.505360177366125,0.494639822633875,0.510836526136498,0.5,0.0493645097706823,0.568606793858351,0.489163473863502,0.0106016655390845,0.5,0.021673052272997,0.59771500683709,8.14826869294117,3.16077027445952,0.5,93.3590782156906
CBC_1029,CBC_1029_MSI_TV_v3_Vset3_Tset1_2023-07-21_17h25.06.255.csv,4,7,1,3,z,0,1,2,tac,D,27,1,1D,3D,0,1,z,2.71557499999835,0,1,1,1,3D,1D,D13,3.09104245335832,0.510836526136498,0.5,0.489163473863502,0.5,0.5,0.521438191675583,0.5,0.5,0.5,0.5,0.510836526136498,0.5,0.5,0.5,0.5,0.510836526136498,0.505360177366125,0.494639822633875,0.510836526136498,0.5,0.125541923854317,0.567829778998903,0.489163473863502,0.0106016655390845,0.5,0.021673052272997,0.59771500683709,8.14826869294117,3.16077027445952,0.5,93.3590782156906
CBC_1029,CBC_1029_MSI_TV_v3_Vset3_Tset1_2023-07-21_17h25.06.255.csv,4,8,1,0,z,0,1,0,tac,A,63,1,1A,0A,0,1,z,3.01213839999764,0,1,1,1,0A,1A,A10,2.4423470353692,0.510836526136498,0.5,0.489163473863502,0.5,0.5,0.521438191675583,0.5,0.5,0.5,0.5,0.510836526136498,0.5,0.5,0.5,0.5,0.521438191675583,0.505360177366125,0.494639822633875,0.510836526136498,0.5,0.108343945268348,0.567707977148752,0.489163473863502,0.0106016655390845,0.5,0.021673052272997,0.59771500683709,8.14826869294117,3.16077027445952,0.5,93.3590782156906
CBC_1029,CBC_1029_MSI_TV_v3_Vset3_Tset1_2023-07-21_17h25.06.255.csv,4,9,0,1,b,1,0,0,tac,A,63,1,0A,1A,1,0,b,1.86994769999728,1,0,1,1,0A,1A,A01,3.17805383034795,0.521438191675583,0.5,0.489163473863502,0.5,0.5,0.521438191675583,0.5,0.5,0.5,0.5,0.510836526136498,0.5,0.5,0.5,0.5,0.521438191675583,0.510494120863258,0.489505879136742,0.521438191675583,0.5,0.211436788308362,0.631770694137176,0.478561808324417,0.0103718950876751,0.5,0.021673052272997,0.59771500683709,8.14826869294117,3.16077027445952,0.5,93.3590782156906
CBC_1029,CBC_1029_MSI_TV_v3_Vset3_Tset1_2023-07-21_17h25.06.255.csv,4,10,2,0,b,1,0,1,tac,C,27,1,2C,0C,1,0,b,2.85564269999668,1,0,1,1,2C,0C,C20,3.2188758248682,0.531810086763258,0.5,0.489163473863502,0.5,0.5,0.521438191675583,0.5,0.5,0.5,0.5,0.510836526136498,0.5,0.5,0.5,0.5,0.521438191675583,0.505360177366125,0.494639822633875,0.510836526136498,0.5,0.11729860182963,0.568668012813985,0.489163473863502,0.0106016655390845,0.5,0.021673052272997,0.59771500683709,8.14826869294117,3.16077027445952,0.5,93.3590782156906
CBC_1029,CBC_1029_MSI_TV_v3_Vset3_Tset1_2023-07-21_17h25.06.255.csv,4,11,0,1,z,0,1,3,tac,B,63,1,0B,1B,0,1,z,2.18382369999745,0,1,1,1,1B,0B,B01,3.25809653802148,0.531810086763258,0.5,0.489163473863502,0.5,0.5,0.521438191675583,0.5,0.5,0.5,0.5,0.521438191675583,0.5,0.5,0.5,0.5,0.521438191675583,0.510494120863258,0.489505879136742,0.521438191675583,0.5,0.182881278394352,0.631979286463435,0.478561808324417,0.0103718950876751,0.5,0.021673052272997,0.59771500683709,8.14826869294117,3.16077027445952,0.5,93.3590782156906
CBC_1029,CBC_1029_MSI_TV_v3_Vset3_Tset1_2023-07-21_17h25.06.255.csv,4,12,0,1,b,1,0,0,tac,A,63,1,0A,1A,1,0,b,2.59030409999832,1,0,1,1,0A,1A,A01,2.60268968544438,0.531810086763258,0.5,0.489163473863502,0.5,0.5,0.531810086763258,0.5,0.5,0.5,0.5,0.521438191675583,0.5,0.5,0.5,0.5,0.521438191675583,0.515414700423721,0.484585299576279,0.531810086763258,0.5,0.164170891867578,0.689510629663259,0.468189913236742,0.0101471044632698,0.5,0.021673052272997,0.59771500683709,8.14826869294117,3.16077027445952,0.5,93.3590782156906
CBC_1029,CBC_1029_MSI_TV_v3_Vset3_Tset1_2023-07-21_17h25.06.255.csv,4,13,3,2,z,0,1,1,tac,C,63,1,3C,2C,0,1,z,3.0384812999946,0,1,1,1,2C,3C,C32,2.63905732961526,0.541957191226528,0.5,0.489163473863502,0.5,0.5,0.531810086763258,0.5,0.5,0.5,0.5,0.521438191675583,0.5,0.5,0.5,0.5,0.521438191675583,0.510494120863258,0.489505879136742,0.521438191675583,0.5,0.118941197192698,0.631312819780823,0.478561808324417,0.0103718950876751,0.5,0.021673052272997,0.59771500683709,8.14826869294117,3.16077027445952,0.5,93.3590782156906
CBC_1029,CBC_1029_MSI_TV_v3_Vset3_Tset1_2023-07-21_17h25.06.255.csv,4,14,0,2,b,1,0,0,tac,A,27,1,0A,2A,1,0,b,1.78168219999861,1,0,1,1,0A,2A,A02,2.67414864942653,0.541957191226528,0.5,0.489163473863502,0.5,0.5,0.531810086763258,0.5,0.5,0.5,0.5,0.531810086763258,0.5,0.5,0.5,0.5,0.521438191675583,0.525600164534777,0.474399835465223,0.541957191226528,0.489163473863502,0.297090322468324,0.788948521010967,0.458042808773472,0.00992718573781782,0.5,0.021673052272997,0.59771500683709,8.14826869294117,3.16077027445952,0.5,93.3590782156906
CBC_1029,CBC_1029_MSI_TV_v3_Vset3_Tset1_2023-07-21_17h25.06.255.csv,4,15,1,0,b,1,0,3,tac,B,63,1,1B,0B,1,0,b,2.44466389999798,1,0,1,1,1B,0B,B10,2.70805020110221,0.551884376964346,0.5,0.489163473863502,0.5,0.5,0.531810086763258,0.5,0.5,0.5,0.5,0.531810086763258,0.5,0.5,0.5,0.5,0.521438191675583,0.515414700423721,0.484585299576279,0.531810086763258,0.5,0.176938548648056,0.689028122288821,0.468189913236742,0.0101471044632698,0.5,0.021673052272997,0.59771500683709,8.14826869294117,3.16077027445952,0.5,93.3590782156906
CBC_1029,CBC_1029_MSI_TV_v3_Vset3_Tset1_2023-07-21_17h25.06.255.csv,4,16,0,1,z,0,1,3,tac,B,63,1,0B,1B,0,1,z,2.12040609999531,0,1,1,1,1B,0B,B01,2.7408400239252,0.551884376964346,0.5,0.489163473863502,0.5,0.5,0.541957191226528,0.5,0.5,0.5,0.5,0.531810086763258,0.5,0.5,0.5,0.5,0.521438191675583,0.520133836389736,0.479866163610264,0.541957191226528,0.5,0.227463978430634,0.737740114896138,0.458042808773472,0.00992718573781782,0.5,0.021673052272997,0.59771500683709,8.14826869294117,3.16077027445952,0.5,93.3590782156906
CBC_1029,CBC_1029_MSI_TV_v3_Vset3_Tset1_2023-07-21_17h25.06.255.csv,4,17,3,2,z,0,1,1,tac,C,63,1,3C,2C,0,1,z,2.60835829999633,0,1,1,1,2C,3C,C32,2.36712361413162,0.551884376964346,0.5,0.489163473863502,0.5,0.5,0.551884376964346,0.5,0.5,0.5,0.5,0.531810086763258,0.5,0.5,0.5,0.5,0.521438191675583,0.515414700423721,0.484585299576279,0.531810086763258,0.5,0.16252342440897,0.68908724470927,0.468189913236742,0.0101471044632698,0.5,0.021673052272997,0.59771500683709,8.14826869294117,3.16077027445952,0.5,93.3590782156906
CBC_1029,CBC_1029_MSI_TV_v3_Vset3_Tset1_2023-07-21_17h25.06.255.csv,4,18,3,1,b,1,0,2,tac,D,27,1,3D,1D,1,0,b,3.77117749999888,1,0,1,1,3D,1D,D31,3.49650756146648,0.551884376964346,0.5,0.489163473863502,0.5,0.5,0.551884376964346,0.5,0.5,0.5,0.5,0.541957191226528,0.5,0.5,0.5,0.5,0.521438191675583,0.510494120863258,0.489505879136742,0.521438191675583,0.5,0.0819284782518867,0.631000382436687,0.478561808324417,0.0103718950876751,0.5,0.021673052272997,0.59771500683709,8.14826869294117,3.16077027445952,0.5,93.3590782156906
CBC_1029,CBC_1029_MSI_TV_v3_Vset3_Tset1_2023-07-21_17h25.06.255.csv,4,19,1,2,z,0,1,1,tac,C,9,1,1C,2C,0,1,z,3.17852579999817,0,1,1,1,2C,1C,C12,3.52636052461616,0.551884376964346,0.5,0.489163473863502,0.5,0.5,0.551884376964346,0.5,0.5,0.5,0.5,0.541957191226528,0.5,0.5,0.5,0.5,0.531810086763258,0.520133836389736,0.479866163610264,0.541957191226528,0.5,0.128425305947777,0.738102802348574,0.458042808773472,0.00992718573781782,0.5,0.021673052272997,0.59771500683709,8.14826869294117,3.16077027445952,0.5,93.3590782156906
CBC_1029,CBC_1029_MSI_TV_v3_Vset3_Tset1_2023-07-21_17h25.06.255.csv,4,20,3,1,z,0,1,3,tac,B,27,1,3B,1B,0,1,z,2.63280769999983,0,1,1,1,1B,3B,B31,3.55534806148941,0.551884376964346,0.5,0.489163473863502,0.5,0.5,0.551884376964346,0.5,0.5,0.5,0.5,0.551884376964346,0.5,0.5,0.5,0.5,0.531810086763258,0.524662585594284,0.475337414405716,0.551884376964346,0.5,0.184053911222696,0.780638725512236,0.448115623035654,0.00971203332239835,0.5,0.021673052272997,0.59771500683709,8.14826869294117,3.16077027445952,0.5,93.3590782156906
CBC_1029,CBC_1029_MSI_TV_v3_Vset3_Tset1_2023-07-21_17h25.06.255.csv,4,21,3,2,b,1,0,2,tac,D,63,1,3D,2D,1,0,z,4.60329399999682,0,1,0,0,2D,3D,D32,3.58351893845611,0.551884376964346,0.5,0.489163473863502,0.5,0.5,0.561596410286744,0.5,0.5,0.5,0.5,0.551884376964346,0.5,0.5,0.5,0.5,0.531810086763258,0.484585299576279,0.515414700423721,0.5,0.531810086763258,0.0256835774372874,0.310510542591162,-0.5,-0.0108365261364985,0.5,0.021673052272997,0.59771500683709,8.14826869294117,3.16077027445952,0.5,93.3590782156906
CBC_1029,CBC_1029_MSI_TV_v3_Vset3_Tset1_2023-07-21_17h25.06.255.csv,4,22,1,0,b,1,0,3,tac,B,63,0,1B,0B,0,1,z,2.46265619999758,0,1,0,1,0B,1B,B10,2.51230562397611,0.551884376964346,0.5,0.489163473863502,0.5,0.5,0.561596410286744,0.5,0.5,0.5,0.5,0.551884376964346,0.5,0.5,0.5,0.489163473863502,0.531810086763258,0.470988781758358,0.529011218241642,0.5,0.561596410286744,0.0481113971962018,0.18352919435567,0.5,0.0108365261364985,0.5,0.021673052272997,0.59771500683709,8.14826869294117,3.16077027445952,0.5,93.3590782156906
CBC_1029,CBC_1029_MSI_TV_v3_Vset3_Tset1_2023-07-21_17h25.06.255.csv,4,23,3,0,z,0,1,0,tac,A,9,1,3A,0A,0,1,z,1.34490409999853,0,1,1,1,0A,3A,A30,3.63758615972639,0.551884376964346,0.5,0.489163473863502,0.5,0.510836526136498,0.561596410286744,0.5,0.5,0.5,0.5,0.551884376964346,0.5,0.5,0.5,0.489163473863502,0.531810086763258,0.524662585594284,0.475337414405716,0.551884376964346,0.5,0.325965339462429,0.780663106518736,0.448115623035654,0.00971203332239835,0.5,0.021673052272997,0.59771500683709,8.14826869294117,3.16077027445952,0.5,93.3590782156906
CBC_1029,CBC_1029_MSI_TV_v3_Vset3_Tset1_2023-07-21_17h25.06.255.csv,4,24,2,3,z,0,1,2,tac,D,63,1,2D,3D,0,1,b,2.48271679999743,1,0,0,0,2D,3D,D23,2.9704144655697,0.561596410286744,0.5,0.489163473863502,0.5,0.510836526136498,0.561596410286744,0.5,0.5,0.5,0.5,0.551884376964346,0.5,0.5,0.5,0.489163473863502,0.531810086763258,0.47911473198504,0.52088526801496,0.489163473863502,0.531810086763258,0.0648540039717552,0.254629755710548,-0.489163473863502,-0.0106016655390845,0.5,0.021673052272997,0.59771500683709,8.14826869294117,3.16077027445952,0.5,93.3590782156906
CBC_1029,CBC_1029_MSI_TV_v3_Vset3_Tset1_2023-07-21_17h25.06.255.csv,4,25,1,3,b,1,0,3,tac,B,27,1,1B,3B,1,0,b,2.66518200000064,1,0,1,1,1B,3B,B13,3.68887945411394,0.561596410286744,0.5,0.489163473863502,0.5,0.510836526136498,0.561596410286744,0.5,0.5,0.5,0.5,0.551884376964346,0.5,0.5,0.5,0.478561808324417,0.531810086763258,0.529011218241642,0.470988781758358,0.561596410286744,0.5,0.189652005927497,0.816966228224011,0.438403589713256,0.00950154391652492,0.5,0.021673052272997,0.59771500683709,8.14826869294117,3.16077027445952,0.5,93.3590782156906
CBC_1029,CBC_1029_MSI_TV_v3_Vset3_Tset1_2023-07-21_17h25.06.255.csv,4,26,2,3,b,1,0,1,tac,C,63,1,2C,3C,1,0,z,3.01885649999531,0,1,0,0,3C,2C,C23,3.71357206670431,0.561596410286744,0.5,0.489163473863502,0.5,0.510836526136498,0.571097954203269,0.5,0.5,0.5,0.5,0.551884376964346,0.5,0.5,0.5,0.478561808324417,0.531810086763258,0.475337414405716,0.524662585594284,0.5,0.551884376964346,0.041418428075064,0.219140038613025,-0.5,-0.0108365261364985,0.5,0.021673052272997,0.59771500683709,8.14826869294117,3.16077027445952,0.5,93.3590782156906
CBC_1029,CBC_1029_MSI_TV_v3_Vset3_Tset1_2023-07-21_17h25.06.255.csv,4,27,2,0,b,1,0,1,tac,C,27,1,2C,0C,1,0,b,2.38424549999763,1,0,1,1,2C,0C,C20,3.04452243772342,0.561596410286744,0.5,0.489163473863502,0.5,0.510836526136498,0.571097954203269,0.5,0.5,0.5,0.5,0.551884376964346,0.489163473863502,0.5,0.5,0.478561808324417,0.531810086763258,0.524662585594284,0.475337414405716,0.551884376964346,0.5,0.212072921497317,0.780948387190684,0.448115623035654,0.00971203332239835,0.5,0.021673052272997,0.59771500683709,8.14826869294117,3.16077027445952,0.5,93.3590782156906
CBC_1029,CBC_1029_MSI_TV_v3_Vset3_Tset1_2023-07-21_17h25.06.255.csv,4,28,0,1,z,0,1,3,tac,B,63,1,0B,1B,0,1,z,2.35138580000057,0,1,1,1,1B,0B,B01,2.66258782702545,0.561596410286744,0.5,0.489163473863502,0.5,0.510836526136498,0.571097954203269,0.5,0.5,0.5,0.5,0.561596410286744,0.489163473863502,0.5,0.5,0.478561808324417,0.531810086763258,0.527848926696488,0.472151073303512,0.571097954203269,0.510836526136498,0.225413619726502,0.80735495667838,0.428902045796731,0.0092956164585479,0.5,0.021673052272997,0.59771500683709,8.14826869294117,3.16077027445952,0.5,93.3590782156906
CBC_1029,CBC_1029_MSI_TV_v3_Vset3_Tset1_2023-07-21_17h25.06.255.csv,4,29,2,3,b,1,0,1,tac,C,63,1,2C,3C,1,0,z,3.90295699999842,0,1,0,0,3C,2C,C23,3.09104245335832,0.561596410286744,0.5,0.489163473863502,0.5,0.510836526136498,0.580393570661817,0.5,0.5,0.5,0.5,0.561596410286744,0.489163473863502,0.5,0.5,0.478561808324417,0.531810086763258,0.465533069202666,0.534466930797334,0.489163473863502,0.561596410286744,0.01502051626471,0.144907162055634,-0.489163473863502,-0.0106016655390845,0.5,0.021673052272997,0.59771500683709,8.14826869294117,3.16077027445952,0.5,93.3590782156906
CBC_1029,CBC_1029_MSI_TV_v3_Vset3_Tset1_2023-07-21_17h25.06.255.csv,4,30,1,0,z,0,1,0,tac,A,63,1,1A,0A,0,1,z,0.866024599999946,0,1,1,1,0A,1A,A10,2.70805020110221,0.561596410286744,0.5,0.489163473863502,0.5,0.510836526136498,0.580393570661817,0.5,0.5,0.5,0.5,0.561596410286744,0.478561808324417,0.5,0.5,0.478561808324417,0.531810086763258,0.529011218241642,0.470988781758358,0.561596410286744,0.5,0.0882052221837329,0.815728620753306,0.438403589713256,0.00950154391652492,0.5,0.021673052272997,0.59771500683709,8.14826869294117,3.16077027445952,0.5,93.3590782156906
CBC_1029,CBC_1029_MSI_TV_v3_Vset3_Tset1_2023-07-21_17h25.06.255.csv,4,31,2,3,z,0,1,2,tac,D,63,1,2D,3D,0,1,z,3.73478819999946,0,1,1,1,3D,2D,D23,2.73002910782099,0.571097954203269,0.5,0.489163473863502,0.5,0.510836526136498,0.580393570661817,0.5,0.5,0.5,0.5,0.561596410286744,0.478561808324417,0.5,0.5,0.478561808324417,0.531810086763258,0.526350831163124,0.473649168836876,0.531810086763258,0.478561808324417,0.0985096724480523,0.794156505510773,0.468189913236742,0.0101471044632698,0.5,0.021673052272997,0.59771500683709,8.14826869294117,3.16077027445952,0.5,93.3590782156906
CBC_1029,CBC_1029_MSI_TV_v3_Vset3_Tset1_2023-07-21_17h25.06.255.csv,4,32,2,3,b,1,0,1,tac,C,63,1,2C,3C,1,0,z,4.09980469999937,0,1,0,0,3C,2C,C23,2.75153531304195,0.571097954203269,0.5,0.489163473863502,0.5,0.510836526136498,0.580393570661817,0.5,0.5,0.5,0.5,0.561596410286744,0.478561808324417,0.5,0.5,0.478561808324417,0.541957191226528,0.460085590597363,0.539914409402637,0.478561808324417,0.561596410286744,0.00953991170536973,0.113727313180008,-0.478561808324417,-0.0103718950876751,0.5,0.021673052272997,0.59771500683709,8.14826869294117,3.16077027445952,0.5,93.3590782156906
CBC_1029,CBC_1029_MSI_TV_v3_Vset3_Tset1_2023-07-21_17h25.06.255.csv,4,33,3,1,b,1,0,2,tac,D,27,1,3D,1D,1,0,b,3.25502969999798,1,0,1,1,3D,1D,D31,3.17805383034795,0.571097954203269,0.5,0.489163473863502,0.5,0.510836526136498,0.580393570661817,0.5,0.5,0.5,0.5,0.561596410286744,0.468189913236742,0.5,0.5,0.478561808324417,0.541957191226528,0.520133836389736,0.479866163610264,0.541957191226528,0.5,0.123296501604359,0.739065107542335,0.458042808773472,0.00992718573781782,0.5,0.021673052272997,0.59771500683709,8.14826869294117,3.16077027445952,0.5,93.3590782156906
CBC_1029,CBC_1029_MSI_TV_v3_Vset3_Tset1_2023-07-21_17h25.06.255.csv,4,34,0,2,z,0,1,1,tac,C,27,1,0C,2C,0,1,z,1.8960511999976,0,1,1,1,2C,0C,C02,3.89182029811063,0.571097954203269,0.5,0.489163473863502,0.5,0.510836526136498,0.580393570661817,0.5,0.5,0.5,0.5,0.561596410286744,0.468189913236742,0.5,0.5,0.478561808324417,0.551884376964346,0.529011218241642,0.470988781758358,0.561596410286744,0.5,0.297199681524539,0.817068755891757,0.438403589713256,0.00950154391652492,0.5,0.021673052272997,0.59771500683709,8.14826869294117,3.16077027445952,0.5,93.3590782156906
CBC_1029,CBC_1029_MSI_TV_v3_Vset3_Tset1_2023-07-21_17h25.06.255.csv,4,35,2,3,z,0,1,2,tac,D,63,0,2D,3D,1,0,b,2.9911744999954,1,0,0,1,2D,3D,D23,2.52572864430826,0.571097954203269,0.5,0.489163473863502,0.5,0.510836526136498,0.580393570661817,0.5,0.5,0.5,0.5,0.571097954203269,0.468189913236742,0.5,0.5,0.478561808324417,0.551884376964346,0.464421932126722,0.535578067873278,0.478561808324417,0.551884376964346,0.0258264163881481,0.138134900550284,0.521438191675583,0.0113011571853219,0.5,0.021673052272997,0.59771500683709,8.14826869294117,3.16077027445952,0.5,93.3590782156906
CBC_1029,CBC_1029_MSI_TV_v3_Vset3_Tset1_2023-07-21_17h25.06.255.csv,4,36,1,0,z,0,1,0,tac,A,63,1,1A,0A,0,1,z,0.915139999997336,0,1,1,1,0A,1A,A10,2.54553127160444,0.571097954203269,0.5,0.489163473863502,0.5,0.510836526136498,0.580393570661817,0.5,0.5,0.5,0.5,0.571097954203269,0.468189913236742,0.5,0.5,0.489862965509739,0.551884376964346,0.53318928671475,0.46681071328525,0.571097954203269,0.5,0.15467237847784,0.846600849873114,0.428902045796731,0.0092956164585479,0.5,0.021673052272997,0.59771500683709,8.14826869294117,3.16077027445952,0.5,93.3590782156906
CBC_1029,CBC_1029_MSI_TV_v3_Vset3_Tset1_2023-07-21_17h25.06.255.csv,4,37,2,3,b,1,0,1,tac,C,63,1,2C,3C,1,0,b,3.15939409999555,1,0,1,1,2C,3C,C23,2.56494935746154,0.580393570661817,0.5,0.489163473863502,0.5,0.510836526136498,0.580393570661817,0.5,0.5,0.5,0.5,0.571097954203269,0.468189913236742,0.5,0.5,0.489862965509739,0.551884376964346,0.549508920574629,0.450491079425371,0.571097954203269,0.468189913236742,0.137944873861979,0.927518676171419,0.428902045796731,0.0092956164585479,0.5,0.021673052272997,0.59771500683709,8.14826869294117,3.16077027445952,0.5,93.3590782156906
CBC_1029,CBC_1029_MSI_TV_v3_Vset3_Tset1_2023-07-21_17h25.06.255.csv,4,38,0,2,b,1,0,0,tac,A,27,1,0A,2A,1,0,b,1.16449740000098,1,0,1,1,0A,2A,A02,2.87167962488401,0.580393570661817,0.5,0.489163473863502,0.5,0.510836526136498,0.580393570661817,0.5,0.5,0.5,0.5,0.580393570661817,0.468189913236742,0.5,0.5,0.489862965509739,0.551884376964346,0.542648541873147,0.457351458126853,0.580393570661817,0.489163473863502,0.427980753168112,0.900618881615757,0.419606429338183,0.00909415207713206,0.5,0.021673052272997,0.59771500683709,8.14826869294117,3.16077027445952,0.5,93.3590782156906
CBC_1029,CBC_1029_MSI_TV_v3_Vset3_Tset1_2023-07-21_17h25.06.255.csv,4,39,2,3,z,0,1,2,tac,D,63,1,2D,3D,0,1,z,2.38760069999989,0,1,1,1,3D,2D,D23,2.37954613413017,0.589487722738949,0.5,0.489163473863502,0.5,0.510836526136498,0.580393570661817,0.5,0.5,0.5,0.5,0.580393570661817,0.468189913236742,0.5,0.5,0.489862965509739,0.551884376964346,0.529767972005242,0.470232027994758,0.551884376964346,0.489862965509739,0.226169424172652,0.823166502455719,0.448115623035654,0.00971203332239835,0.5,0.021673052272997,0.59771500683709,8.14826869294117,3.16077027445952,0.5,93.3590782156906
CBC_1029,CBC_1029_MSI_TV_v3_Vset3_Tset1_2023-07-21_17h25.06.255.csv,4,40,3,2,b,1,0,2,tac,D,63,1,3D,2D,1,0,b,2.37364089999755,1,0,1,1,3D,2D,D32,3.31418600467253,0.589487722738949,0.5,0.489163473863502,0.5,0.510836526136498,0.580393570661817,0.5,0.5,0.5,0.5,0.580393570661817,0.468189913236742,0.5,0.5,0.489862965509739,0.561596410286744,0.534111372454436,0.465888627545564,0.561596410286744,0.489862965509739,0.238817829660598,0.853260995931396,0.438403589713256,0.00950154391652492,0.5,0.021673052272997,0.59771500683709,8.14826869294117,3.16077027445952,0.5,93.3590782156906
CBC_1029,CBC_1029_MSI_TV_v3_Vset3_Tset1_2023-07-21_17h25.06.255.csv,4,41,3,1,z,0,1,3,tac,B,27,1,3B,1B,0,1,z,1.61297369999738,0,1,1,1,1B,3B,B31,3.3322045101752,0.589487722738949,0.5,0.489163473863502,0.5,0.510836526136498,0.580393570661817,0.5,0.5,0.5,0.5,0.580393570661817,0.468189913236742,0.5,0.5,0.489862965509739,0.571097954203269,0.537205687281427,0.462794312718572,0.580393570661817,0.5,0.389202788314946,0.871347608153248,0.419606429338183,0.00909415207713206,0.5,0.021673052272997,0.59771500683709,8.14826869294117,3.16077027445952,0.5,93.3590782156906
CBC_1029,CBC_1029_MSI_TV_v3_Vset3_Tset1_2023-07-21_17h25.06.255.csv,4,42,3,0,b,1,0,2,tac,D,9,1,3D,0D,1,0,b,2.30805249999685,1,0,1,1,3D,0D,D30,4.04305126783455,0.589487722738949,0.5,0.489163473863502,0.5,0.510836526136498,0.589487722738949,0.5,0.5,0.5,0.5,0.580393570661817,0.468189913236742,0.5,0.5,0.489862965509739,0.571097954203269,0.53318928671475,0.46681071328525,0.571097954203269,0.5,0.246543536183538,0.847020942322419,0.428902045796731,0.0092956164585479,0.5,0.021673052272997,0.59771500683709,8.14826869294117,3.16077027445952,0.5,93.3590782156906
CBC_1029,CBC_1029_MSI_TV_v3_Vset3_Tset1_2023-07-21_17h25.06.255.csv,4,43,0,1,z,0,1,3,tac,B,63,1,0B,1B,0,1,z,1.42423599999893,0,1,1,1,1B,0B,B01,2.67414864942653,0.589487722738949,0.5,0.489163473863502,0.5,0.510836526136498,0.589487722738949,0.5,0.5,0.5,0.5,0.580393570661817,0.468189913236742,0.5,0.5,0.489862965509739,0.580393570661817,0.535740008766885,0.464259991233114,0.589487722738949,0.510836526136498,0.403702975692797,0.862739401013312,0.410512277261051,0.00889705404378579,0.5,0.021673052272997,0.59771500683709,8.14826869294117,3.16077027445952,0.5,93.3590782156906
CBC_1029,CBC_1029_MSI_TV_v3_Vset3_Tset1_2023-07-21_17h25.06.255.csv,4,44,0,1,b,1,0,0,tac,A,63,1,0A,1A,1,0,b,2.74813119999453,1,0,1,1,0A,1A,A01,2.97892515523761,0.589487722738949,0.5,0.489163473863502,0.5,0.510836526136498,0.598384776782735,0.5,0.5,0.5,0.5,0.580393570661817,0.468189913236742,0.5,0.5,0.489862965509739,0.580393570661817,0.541068715539987,0.458931284460013,0.589487722738949,0.5,0.193311780098615,0.892756595148036,0.410512277261051,0.00889705404378579,0.5,0.021673052272997,0.59771500683709,8.14826869294117,3.16077027445952,0.5,93.3590782156906
