ID,session,trialNr,mod2Stim,visStimLeft,visStimRight,correctKey,frequency,rewardAccurate,probFB,stimPairLeft,stimPairRight,leftCorrect,rightCorrect,pCorrectLeft,pCorrectRight,triplet,rt,surprise,0A belief,1A belief,2A belief,3A belief,0B belief,1B belief,2B belief,3B belief,0C belief,1C belief,2C belief,3C belief,0D belief,1D belief,2D belief,3D belief,reactionTime,choice,choiceLeft,choiceRight,chosenPair,otherPair,beliefPair,beliefOtherPair,beliefPairNorm,beliefOtherPairNorm,choiceAccurate,reward,rewardPE,update2,sim_CBCsimpleRW_CBCdriftDiffusionLR_startBelief,sim_CBCsimpleRW_CBCdriftDiffusionLR_alpha1,sim_CBCsimpleRW_CBCdriftDiffusionLR_nonDecisionTime,sim_CBCsimpleRW_CBCdriftDiffusionLR_weight,sim_CBCsimpleRW_CBCdriftDiffusionLR_startingBoundary,sim_CBCsimpleRW_CBCdriftDiffusionLR_startingPoint,lik,corrLik,fitCBCsimpleRW_CBCdriftDiffusionLR_startBelief,fitCBCsimpleRW_CBCdriftDiffusionLR_alpha1,fitCBCsimpleRW_CBCdriftDiffusionLR_nonDecisionTime,fitCBCsimpleRW_CBCdriftDiffusionLR_weight,fitCBCsimpleRW_CBCdriftDiffusionLR_startingBoundary,fitCBCsimpleRW_CBCdriftDiffusionLR_startingPoint,fit_CBCsimpleRW_CBCdriftDiffusionLR_NLL
148,1,1,A,0,1,a,63,1,0.95,0A,1A,1,0,1,0,A01,2.27784056015895,2.77258872223978,0.5,0.5,0.5,0.5,0.5,0.5,0.5,0.5,0.5,0.5,0.5,0.5,0.5,0.5,0.5,0.5,4.69962292994777,0,0,1,1A,0A,0.5,0.5,0.5,0.5,0,0,-0.5,-0.219080831856148,0.5,0.44050596979264,0.634622929947774,10.6440837989533,2.60177474539685,0.5,0.0273616497448976,0.500281905040911,0.5,0.438161663712295,0.635811758113028,11.8739984153201,2.69500997165334,0.5,-18.4720993857278
148,1,2,C,3,2,l,63,1,0.95,3C,2C,0,1,0,1,C32,3.42363823572773,2.83321334405622,0.5,0.280919168143852,0.5,0.5,0.5,0.5,0.5,0.5,0.5,0.5,0.5,0.5,0.5,0.5,0.5,0.5,1.91662292994777,1,1,0,3C,2C,0.5,0.5,0.5,0.5,0,0,-0.5,-0.219080831856148,0.5,0.44050596979264,0.634622929947774,10.6440837989533,2.60177474539685,0.5,0.180639068168645,0.499947895506031,0.5,0.438161663712295,0.635811758113028,11.8739984153201,2.69500997165334,0.5,-18.4720993857278
148,1,3,A,0,2,a,27,1,0.95,0A,2A,1,0,1,0,A02,0.339117248166088,2.89037175789616,0.5,0.280919168143852,0.5,0.5,0.5,0.5,0.5,0.5,0.5,0.5,0.5,0.280919168143852,0.5,0.5,0.5,0.5,1.78362292994777,1,1,0,0A,2A,0.5,0.5,0.5,0.5,1,1,0.5,0.219080831856148,0.5,0.44050596979264,0.634622929947774,10.6440837989533,2.60177474539685,0.5,0.19714054733621,0.499986822355461,0.5,0.438161663712295,0.635811758113028,11.8739984153201,2.69500997165334,0.5,-18.4720993857278
148,1,4,B,1,0,a,63,1,0.95,1B,0B,1,0,1,0,B10,2.83240604046047,2.94443897916644,0.719080831856148,0.280919168143852,0.5,0.5,0.5,0.5,0.5,0.5,0.5,0.5,0.5,0.280919168143852,0.5,0.5,0.5,0.5,1.59262292994777,0,0,1,0B,1B,0.5,0.5,0.5,0.5,0,0,-0.5,-0.219080831856148,0.5,0.44050596979264,0.634622929947774,10.6440837989533,2.60177474539685,0.5,0.222722638641219,0.501507863505241,0.5,0.438161663712295,0.635811758113028,11.8739984153201,2.69500997165334,0.5,-18.4720993857278
148,1,5,B,0,1,l,63,1,0.95,0B,1B,0,1,0,1,B01,1.15963180951062,2.99573227355399,0.719080831856148,0.280919168143852,0.5,0.5,0.280919168143852,0.5,0.5,0.5,0.5,0.5,0.5,0.280919168143852,0.5,0.5,0.5,0.5,0.910622929947774,0,0,1,1B,0B,0.5,0.280919168143852,0.640271132271523,0.359728867728477,1,1,0.5,0.219080831856148,0.5,0.44050596979264,0.634622929947774,10.6440837989533,2.60177474539685,0.5,2.65893881944674,0.999874393097058,0.5,0.438161663712295,0.635811758113028,11.8739984153201,2.69500997165334,0.5,-18.4720993857278
148,1,6,C,3,2,l,63,1,0.95,3C,2C,0,1,0,1,C32,2.02118381494012,2.35137525716348,0.719080831856148,0.280919168143852,0.5,0.5,0.280919168143852,0.719080831856148,0.5,0.5,0.5,0.5,0.5,0.280919168143852,0.5,0.5,0.5,0.5,1.18362292994777,0,0,1,2C,3C,0.5,0.280919168143852,0.640271132271523,0.359728867728477,1,1,0.5,0.219080831856148,0.5,0.44050596979264,0.634622929947774,10.6440837989533,2.60177474539685,0.5,1.07685290176868,0.999873825089722,0.5,0.438161663712295,0.635811758113028,11.8739984153201,2.69500997165334,0.5,-18.4720993857278
148,1,7,D,3,1,a,27,1,0.95,3D,1D,1,0,1,0,D31,2.76136754606723,3.09104245335832,0.719080831856148,0.280919168143852,0.5,0.5,0.280919168143852,0.719080831856148,0.5,0.5,0.5,0.5,0.719080831856148,0.280919168143852,0.5,0.5,0.5,0.5,2.56862292994777,0,0,1,1D,3D,0.5,0.5,0.5,0.5,0,0,-0.5,-0.219080831856148,0.5,0.44050596979264,0.634622929947774,10.6440837989533,2.60177474539685,0.5,0.116228368067111,0.499590456618525,0.5,0.438161663712295,0.635811758113028,11.8739984153201,2.69500997165334,0.5,-18.4720993857278
148,1,8,C,1,2,l,9,1,0.95,1C,2C,0,1,0,1,C12,0.723211605918942,3.13549421592915,0.719080831856148,0.280919168143852,0.5,0.5,0.280919168143852,0.719080831856148,0.5,0.5,0.5,0.5,0.719080831856148,0.280919168143852,0.5,0.280919168143852,0.5,0.5,1.07562292994777,0,0,1,2C,1C,0.719080831856148,0.5,0.589854924354187,0.410145075645813,1,1,0.280919168143852,0.123088010082584,0.5,0.44050596979264,0.634622929947774,10.6440837989533,2.60177474539685,0.5,1.5238490020349,0.996829580691872,0.5,0.438161663712295,0.635811758113028,11.8739984153201,2.69500997165334,0.5,-18.4720993857278
148,1,9,B,3,1,l,27,1,0.95,3B,1B,0,1,0,1,B31,1.39916277432666,3.17805383034795,0.719080831856148,0.280919168143852,0.5,0.5,0.280919168143852,0.719080831856148,0.5,0.5,0.5,0.5,0.842168841938732,0.280919168143852,0.5,0.280919168143852,0.5,0.5,1.48362292994777,0,0,1,1B,3B,0.719080831856148,0.5,0.589854924354187,0.410145075645813,1,1,0.280919168143852,0.123088010082584,0.5,0.44050596979264,0.634622929947774,10.6440837989533,2.60177474539685,0.5,0.607062788748282,0.996826988528841,0.5,0.438161663712295,0.635811758113028,11.8739984153201,2.69500997165334,0.5,-18.4720993857278
148,1,10,D,3,2,a,63,1,0.95,3D,2D,1,0,1,0,D32,0.773039519959447,3.2188758248682,0.719080831856148,0.280919168143852,0.5,0.5,0.280919168143852,0.842168841938732,0.5,0.5,0.5,0.5,0.842168841938732,0.280919168143852,0.5,0.280919168143852,0.5,0.5,2.07562292994777,0,0,1,2D,3D,0.5,0.5,0.5,0.5,0,0,-0.5,-0.219080831856148,0.5,0.44050596979264,0.634622929947774,10.6440837989533,2.60177474539685,0.5,0.162471658539197,0.500140533477467,0.5,0.438161663712295,0.635811758113028,11.8739984153201,2.69500997165334,0.5,-18.4720993857278
148,1,11,B,1,0,a,63,1,0.95,1B,0B,1,0,1,0,B10,3.33440351676375,2.56494935746154,0.719080831856148,0.280919168143852,0.5,0.5,0.280919168143852,0.842168841938732,0.5,0.5,0.5,0.5,0.842168841938732,0.280919168143852,0.5,0.280919168143852,0.280919168143852,0.5,0.765622929947774,1,1,0,1B,0B,0.842168841938732,0.280919168143852,0.749868963409915,0.250131036590085,1,1,0.157831158061268,0.0691555628017634,0.5,0.44050596979264,0.634622929947774,10.6440837989533,2.60177474539685,0.5,3.18362963760077,0.999999886299567,0.5,0.438161663712295,0.635811758113028,11.8739984153201,2.69500997165334,0.5,-18.4720993857278
148,1,12,C,0,2,l,27,1,0.95,0C,2C,0,1,0,1,C02,1.9605873855772,3.29583686600433,0.719080831856148,0.280919168143852,0.5,0.5,0.280919168143852,0.911324404740495,0.5,0.5,0.5,0.5,0.842168841938732,0.280919168143852,0.5,0.280919168143852,0.280919168143852,0.5,1.25962292994777,0,0,1,2C,0C,0.842168841938732,0.5,0.627468628106609,0.372531371893391,1,1,0.157831158061268,0.0691555628017634,0.5,0.44050596979264,0.634622929947774,10.6440837989533,2.60177474539685,0.5,0.86278829965696,0.999714079375813,0.5,0.438161663712295,0.635811758113028,11.8739984153201,2.69500997165334,0.5,-18.4720993857278
148,1,13,D,3,2,a,63,0,0.95,3D,2D,1,0,0,1,D32,3.08543992026447,2.63905732961526,0.719080831856148,0.280919168143852,0.5,0.5,0.280919168143852,0.911324404740495,0.5,0.5,0.5,0.5,0.911324404740495,0.280919168143852,0.5,0.280919168143852,0.280919168143852,0.5,0.918622929947774,1,1,0,3D,2D,0.5,0.280919168143852,0.640271132271523,0.359728867728477,1,0,-0.5,-0.219080831856148,0.5,0.44050596979264,0.634622929947774,10.6440837989533,2.60177474539685,0.5,2.67361976325977,0.999873999706036,0.5,0.438161663712295,0.635811758113028,11.8739984153201,2.69500997165334,0.5,-18.4720993857278
148,1,14,A,1,0,l,63,1,0.95,1A,0A,0,1,0,1,A10,2.05721127487355,3.36729582998647,0.719080831856148,0.280919168143852,0.5,0.5,0.280919168143852,0.911324404740495,0.5,0.5,0.5,0.5,0.911324404740495,0.280919168143852,0.5,0.280919168143852,0.280919168143852,0.280919168143852,0.872622929947774,0,0,1,0A,1A,0.719080831856148,0.280919168143852,0.719080831856148,0.280919168143852,1,1,0.280919168143852,0.123088010082584,0.5,0.44050596979264,0.634622929947774,10.6440837989533,2.60177474539685,0.5,4.53582107225375,0.999999187775753,0.5,0.438161663712295,0.635811758113028,11.8739984153201,2.69500997165334,0.5,-18.4720993857278
148,1,15,C,2,3,a,63,1,0.95,2C,3C,1,0,1,0,C23,3.26107936501001,3.40119738166216,0.842168841938732,0.280919168143852,0.5,0.5,0.280919168143852,0.911324404740495,0.5,0.5,0.5,0.5,0.911324404740495,0.280919168143852,0.5,0.280919168143852,0.280919168143852,0.280919168143852,0.760622929947774,1,1,0,2C,3C,0.911324404740495,0.280919168143852,0.764377703908073,0.235622296091927,1,1,0.0886755952595046,0.0388542463495827,0.5,0.44050596979264,0.634622929947774,10.6440837989533,2.60177474539685,0.5,3.41110239067253,0.999999955190531,0.5,0.438161663712295,0.635811758113028,11.8739984153201,2.69500997165334,0.5,-18.4720993857278
148,1,16,A,0,2,a,27,1,0.95,0A,2A,1,0,1,0,A02,1.22733773524161,2.7408400239252,0.842168841938732,0.280919168143852,0.5,0.5,0.280919168143852,0.911324404740495,0.5,0.5,0.5,0.5,0.950178651090078,0.280919168143852,0.5,0.280919168143852,0.280919168143852,0.280919168143852,1.01462292994777,1,1,0,0A,2A,0.842168841938732,0.5,0.627468628106609,0.372531371893391,1,1,0.157831158061268,0.0691555628017634,0.5,0.44050596979264,0.634622929947774,10.6440837989533,2.60177474539685,0.5,2.18584702418909,0.999713028204369,0.5,0.438161663712295,0.635811758113028,11.8739984153201,2.69500997165334,0.5,-18.4720993857278
148,1,17,D,2,3,l,63,1,0.95,2D,3D,0,1,0,1,D23,3.34727872964792,3.46573590279973,0.911324404740495,0.280919168143852,0.5,0.5,0.280919168143852,0.911324404740495,0.5,0.5,0.5,0.5,0.950178651090078,0.280919168143852,0.5,0.280919168143852,0.280919168143852,0.280919168143852,1.27562292994777,0,0,1,3D,2D,0.280919168143852,0.280919168143852,0.5,0.5,1,1,0.719080831856148,0.315073653629711,0.5,0.44050596979264,0.634622929947774,10.6440837989533,2.60177474539685,0.5,0.253562790710772,0.498845824574727,0.5,0.438161663712295,0.635811758113028,11.8739984153201,2.69500997165334,0.5,-18.4720993857278
148,1,18,D,3,2,a,63,1,0.95,3D,2D,1,0,1,0,D32,1.32797748236186,2.39789527279837,0.911324404740495,0.280919168143852,0.5,0.5,0.280919168143852,0.911324404740495,0.5,0.5,0.5,0.5,0.950178651090078,0.280919168143852,0.5,0.280919168143852,0.280919168143852,0.595992821773563,0.989622929947774,1,1,0,3D,2D,0.595992821773563,0.280919168143852,0.679649529971294,0.320350470028706,1,1,0.404007178226437,0.177020457363405,0.5,0.44050596979264,0.634622929947774,10.6440837989533,2.60177474539685,0.5,2.46236241696786,0.99998978126057,0.5,0.438161663712295,0.635811758113028,11.8739984153201,2.69500997165334,0.5,-18.4720993857278
148,1,19,B,3,1,l,27,1,0.95,3B,1B,0,1,0,1,B31,2.90860569535896,2.83321334405622,0.911324404740495,0.280919168143852,0.5,0.5,0.280919168143852,0.911324404740495,0.5,0.5,0.5,0.5,0.950178651090078,0.280919168143852,0.5,0.280919168143852,0.280919168143852,0.773013279136969,0.793622929947774,0,0,1,1B,3B,0.911324404740495,0.5,0.645722841381789,0.354277158618211,1,1,0.0886755952595046,0.0388542463495827,0.5,0.44050596979264,0.634622929947774,10.6440837989533,2.60177474539685,0.5,1.11959786840011,0.999910625283393,0.5,0.438161663712295,0.635811758113028,11.8739984153201,2.69500997165334,0.5,-18.4720993857278
148,1,20,D,0,3,l,9,1,0.95,0D,3D,0,1,0,1,D03,1.58691136815097,3.55534806148941,0.911324404740495,0.280919168143852,0.5,0.5,0.280919168143852,0.950178651090078,0.5,0.5,0.5,0.5,0.950178651090078,0.280919168143852,0.5,0.280919168143852,0.280919168143852,0.773013279136969,1.82362292994777,0,0,1,3D,0D,0.773013279136969,0.5,0.607231119899258,0.392768880100742,1,1,0.226986720863031,0.0994568792539442,0.5,0.44050596979264,0.634622929947774,10.6440837989533,2.60177474539685,0.5,0.126089246377733,0.998956950008527,0.5,0.438161663712295,0.635811758113028,11.8739984153201,2.69500997165334,0.5,-18.4720993857278
148,1,21,B,1,0,a,63,1,0.95,1B,0B,1,0,1,0,B10,3.36968507765234,2.484906649788,0.911324404740495,0.280919168143852,0.5,0.5,0.280919168143852,0.950178651090078,0.5,0.5,0.5,0.5,0.950178651090078,0.280919168143852,0.5,0.280919168143852,0.280919168143852,0.872470158390913,0.888622929947774,1,1,0,1B,0B,0.950178651090078,0.280919168143852,0.771814096528366,0.228185903471634,1,1,0.049821348909922,0.0218298051267622,0.5,0.44050596979264,0.634622929947774,10.6440837989533,2.60177474539685,0.5,3.60401623819385,0.999999972140205,0.5,0.438161663712295,0.635811758113028,11.8739984153201,2.69500997165334,0.5,-18.4720993857278
148,1,22,A,1,0,l,63,1,0.95,1A,0A,0,1,0,1,A10,1.28599855761592,2.91777073208428,0.911324404740495,0.280919168143852,0.5,0.5,0.280919168143852,0.97200845621684,0.5,0.5,0.5,0.5,0.950178651090078,0.280919168143852,0.5,0.280919168143852,0.280919168143852,0.872470158390913,0.757622929947774,0,0,1,0A,1A,0.911324404740495,0.280919168143852,0.764377703908073,0.235622296091927,1,1,0.0886755952595046,0.0388542463495827,0.5,0.44050596979264,0.634622929947774,10.6440837989533,2.60177474539685,0.5,3.13645271554417,0.999999955103192,0.5,0.438161663712295,0.635811758113028,11.8739984153201,2.69500997165334,0.5,-18.4720993857278
148,1,23,C,2,3,a,63,1,0.95,2C,3C,1,0,1,0,C23,2.98548237251811,2.94443897916644,0.950178651090078,0.280919168143852,0.5,0.5,0.280919168143852,0.97200845621684,0.5,0.5,0.5,0.5,0.950178651090078,0.280919168143852,0.5,0.280919168143852,0.280919168143852,0.872470158390913,0.778622929947774,1,1,0,2C,3C,0.950178651090078,0.280919168143852,0.771814096528366,0.228185903471634,1,1,0.049821348909922,0.0218298051267622,0.5,0.44050596979264,0.634622929947774,10.6440837989533,2.60177474539685,0.5,5.27963687225209,0.999999972065914,0.5,0.438161663712295,0.635811758113028,11.8739984153201,2.69500997165334,0.5,-18.4720993857278
148,1,24,A,0,2,a,27,1,0.95,0A,2A,1,0,1,0,A02,0.62141889828334,2.56494935746154,0.950178651090078,0.280919168143852,0.5,0.5,0.280919168143852,0.97200845621684,0.5,0.5,0.5,0.5,0.97200845621684,0.280919168143852,0.5,0.280919168143852,0.280919168143852,0.872470158390913,0.816622929947774,1,1,0,0A,2A,0.950178651090078,0.5,0.655214893955198,0.344785106044802,1,1,0.049821348909922,0.0218298051267622,0.5,0.44050596979264,0.634622929947774,10.6440837989533,2.60177474539685,0.5,1.94032157462765,0.999951622465054,0.5,0.438161663712295,0.635811758113028,11.8739984153201,2.69500997165334,0.5,-18.4720993857278
148,1,25,B,1,0,a,63,1,0.95,1B,0B,1,0,1,0,B10,2.55334757326837,2.30258509299405,0.97200845621684,0.280919168143852,0.5,0.5,0.280919168143852,0.97200845621684,0.5,0.5,0.5,0.5,0.97200845621684,0.280919168143852,0.5,0.280919168143852,0.280919168143852,0.872470158390913,0.870622929947774,1,1,0,1B,0B,0.97200845621684,0.280919168143852,0.77578978810752,0.22421021189248,1,1,0.0279915437831598,0.0122648213939049,0.5,0.44050596979264,0.634622929947774,10.6440837989533,2.60177474539685,0.5,4.37317245842114,0.999999978439401,0.5,0.438161663712295,0.635811758113028,11.8739984153201,2.69500997165334,0.5,-18.4720993857278
148,1,26,D,2,3,l,63,1,0.95,2D,3D,0,1,0,1,D23,3.46691714894132,3.02042488614436,0.97200845621684,0.280919168143852,0.5,0.5,0.280919168143852,0.984273277610745,0.5,0.5,0.5,0.5,0.97200845621684,0.280919168143852,0.5,0.280919168143852,0.280919168143852,0.872470158390913,0.817622929947774,0,0,1,3D,2D,0.872470158390913,0.280919168143852,0.756440291512109,0.243559708487891,1,1,0.127529841609087,0.0558786875724031,0.5,0.44050596979264,0.634622929947774,10.6440837989533,2.60177474539685,0.5,5.91742253881861,0.999999925656069,0.5,0.438161663712295,0.635811758113028,11.8739984153201,2.69500997165334,0.5,-18.4720993857278
148,1,27,B,1,2,a,9,1,0.95,1B,2B,1,0,1,0,B12,2.63127942687641,3.73766961828337,0.97200845621684,0.280919168143852,0.5,0.5,0.280919168143852,0.984273277610745,0.5,0.5,0.5,0.5,0.97200845621684,0.280919168143852,0.5,0.280919168143852,0.280919168143852,0.928348845963316,1.14362292994777,1,1,0,1B,2B,0.984273277610745,0.5,0.663134809780543,0.336865190219457,1,1,0.015726722389255,0.00689084684681737,0.5,0.44050596979264,0.634622929947774,10.6440837989533,2.60177474539685,0.5,1.01648499641387,0.99997093281199,0.5,0.438161663712295,0.635811758113028,11.8739984153201,2.69500997165334,0.5,-18.4720993857278
148,1,28,D,1,3,l,27,1,0.95,1D,3D,0,1,0,1,D13,1.51237785412078,3.76120011569356,0.97200845621684,0.280919168143852,0.5,0.5,0.280919168143852,0.991164124457562,0.5,0.5,0.5,0.5,0.97200845621684,0.280919168143852,0.5,0.280919168143852,0.280919168143852,0.928348845963316,0.978622929947774,0,0,1,3D,1D,0.928348845963316,0.280919168143852,0.767694865929897,0.232305134070103,1,1,0.0716511540366841,0.0313947888596194,0.5,0.44050596979264,0.634622929947774,10.6440837989533,2.60177474539685,0.5,0.976375066952591,0.999999963735487,0.5,0.438161663712295,0.635811758113028,11.8739984153201,2.69500997165334,0.5,-18.4720993857278
148,1,29,A,1,0,l,63,1,0.95,1A,0A,0,1,0,1,A10,2.61646420375607,2.68557734525015,0.97200845621684,0.280919168143852,0.5,0.5,0.280919168143852,0.991164124457562,0.5,0.5,0.5,0.5,0.97200845621684,0.280919168143852,0.5,0.280919168143852,0.280919168143852,0.959743634822935,0.825622929947774,0,0,1,0A,1A,0.97200845621684,0.280919168143852,0.77578978810752,0.22421021189248,1,1,0.0279915437831598,0.0122648213939049,0.5,0.44050596979264,0.634622929947774,10.6440837989533,2.60177474539685,0.5,6.31667320138663,0.999999978388707,0.5,0.438161663712295,0.635811758113028,11.8739984153201,2.69500997165334,0.5,-18.4720993857278
148,1,30,A,0,1,a,63,1,0.95,0A,1A,1,0,1,0,A01,3.1837456836128,3.11351530921037,0.984273277610745,0.280919168143852,0.5,0.5,0.280919168143852,0.991164124457562,0.5,0.5,0.5,0.5,0.97200845621684,0.280919168143852,0.5,0.280919168143852,0.280919168143852,0.959743634822935,0.823622929947774,1,1,0,0A,1A,0.984273277610745,0.280919168143852,0.777963290022409,0.222036709977591,1,1,0.015726722389255,0.00689084684681737,0.5,0.44050596979264,0.634622929947774,10.6440837989533,2.60177474539685,0.5,6.40472890262757,0.999999981281601,0.5,0.438161663712295,0.635811758113028,11.8739984153201,2.69500997165334,0.5,-18.4720993857278
148,1,31,C,0,2,l,27,1,0.95,0C,2C,0,1,0,1,C02,3.14401058962676,3.13549421592915,0.991164124457562,0.280919168143852,0.5,0.5,0.280919168143852,0.991164124457562,0.5,0.5,0.5,0.5,0.97200845621684,0.280919168143852,0.5,0.280919168143852,0.280919168143852,0.959743634822935,0.860622929947774,0,0,1,2C,0C,0.97200845621684,0.5,0.660328038274296,0.339671961725705,1,1,0.0279915437831598,0.0122648213939049,0.5,0.44050596979264,0.634622929947774,10.6440837989533,2.60177474539685,0.5,2.94790950877674,0.999965115155578,0.5,0.438161663712295,0.635811758113028,11.8739984153201,2.69500997165334,0.5,-18.4720993857278
148,1,32,A,1,0,l,63,1,0.95,1A,0A,0,1,0,1,A10,0.277604137531232,2.46385324059017,0.991164124457562,0.280919168143852,0.5,0.5,0.280919168143852,0.991164124457562,0.5,0.5,0.5,0.5,0.984273277610745,0.280919168143852,0.5,0.280919168143852,0.280919168143852,0.959743634822935,0.919622929947774,0,0,1,0A,1A,0.991164124457562,0.280919168143852,0.779166057932125,0.220833942067875,1,1,0.00883587554243759,0.00387154192802923,0.5,0.44050596979264,0.634622929947774,10.6440837989533,2.60177474539685,0.5,2.15217991171332,0.999999982560443,0.5,0.438161663712295,0.635811758113028,11.8739984153201,2.69500997165334,0.5,-18.4720993857278
148,1,33,B,1,0,a,63,1,0.95,1B,0B,1,0,1,0,B10,2.75206825468763,2.26176309847379,0.995035666385592,0.280919168143852,0.5,0.5,0.280919168143852,0.991164124457562,0.5,0.5,0.5,0.5,0.984273277610745,0.280919168143852,0.5,0.280919168143852,0.280919168143852,0.959743634822935,0.740622929947774,1,1,0,1B,0B,0.991164124457562,0.280919168143852,0.779166057932125,0.220833942067875,1,1,0.00883587554243759,0.00387154192802923,0.5,0.44050596979264,0.634622929947774,10.6440837989533,2.60177474539685,0.5,2.07558800274455,0.999999982566648,0.5,0.438161663712295,0.635811758113028,11.8739984153201,2.69500997165334,0.5,-18.4720993857278
148,1,34,D,3,2,a,63,1,0.95,3D,2D,1,0,1,0,D32,1.55242811625465,2.50552593699074,0.995035666385592,0.280919168143852,0.5,0.5,0.280919168143852,0.995035666385592,0.5,0.5,0.5,0.5,0.984273277610745,0.280919168143852,0.5,0.280919168143852,0.280919168143852,0.959743634822935,0.786622929947774,1,1,0,3D,2D,0.959743634822935,0.280919168143852,0.773573313012938,0.226426686987062,1,1,0.0402563651770647,0.0176387959409924,0.5,0.44050596979264,0.634622929947774,10.6440837989533,2.60177474539685,0.5,5.86106599655264,0.999999975061527,0.5,0.438161663712295,0.635811758113028,11.8739984153201,2.69500997165334,0.5,-18.4720993857278
148,1,35,B,3,1,l,27,1,0.95,3B,1B,0,1,0,1,B31,2.52695229650078,2.81341071676004,0.995035666385592,0.280919168143852,0.5,0.5,0.280919168143852,0.995035666385592,0.5,0.5,0.5,0.5,0.984273277610745,0.280919168143852,0.5,0.280919168143852,0.280919168143852,0.977382430763928,0.955622929947774,0,0,1,1B,3B,0.995035666385592,0.5,0.665559818242461,0.334440181757539,1,1,0.0049643336144084,0.00217518067571206,0.5,0.44050596979264,0.634622929947774,10.6440837989533,2.60177474539685,0.5,2.93508521979306,0.999975041142995,0.5,0.438161663712295,0.635811758113028,11.8739984153201,2.69500997165334,0.5,-18.4720993857278
148,1,36,C,3,2,l,63,1,0.95,3C,2C,0,1,0,1,C32,0.177889922200911,2.83321334405622,0.995035666385592,0.280919168143852,0.5,0.5,0.280919168143852,0.997210847061304,0.5,0.5,0.5,0.5,0.984273277610745,0.280919168143852,0.5,0.280919168143852,0.280919168143852,0.977382430763928,0.852622929947774,0,0,1,2C,3C,0.984273277610745,0.280919168143852,0.777963290022409,0.222036709977591,1,1,0.015726722389255,0.00689084684681737,0.5,0.44050596979264,0.634622929947774,10.6440837989533,2.60177474539685,0.5,5.23960022757019,0.999999981219197,0.5,0.438161663712295,0.635811758113028,11.8739984153201,2.69500997165334,0.5,-18.4720993857278
148,1,37,C,2,0,a,27,1,0.95,2C,0C,1,0,1,0,C20,1.67720948139526,3.95124371858143,0.995035666385592,0.280919168143852,0.5,0.5,0.280919168143852,0.997210847061304,0.5,0.5,0.5,0.5,0.991164124457562,0.280919168143852,0.5,0.280919168143852,0.280919168143852,0.977382430763928,1.22462292994777,1,1,0,2C,0C,0.991164124457562,0.5,0.664691503906799,0.335308496093201,1,1,0.00883587554243759,0.00387154192802923,0.5,0.44050596979264,0.634622929947774,10.6440837989533,2.60177474539685,0.5,0.548422941340457,0.999973509911784,0.5,0.438161663712295,0.635811758113028,11.8739984153201,2.69500997165334,0.5,-18.4720993857278
148,1,38,B,1,0,a,63,1,0.95,1B,0B,1,0,1,0,B10,3.34214166240808,2.17853244432407,0.995035666385592,0.280919168143852,0.5,0.5,0.280919168143852,0.997210847061304,0.5,0.5,0.5,0.5,0.995035666385592,0.280919168143852,0.5,0.280919168143852,0.280919168143852,0.977382430763928,0.911622929947774,1,1,0,1B,0B,0.997210847061304,0.280919168143852,0.780210804220288,0.219789195779712,1,1,0.0027891529386963,0.00122209989196721,0.5,0.44050596979264,0.634622929947774,10.6440837989533,2.60177474539685,0.5,2.41071164352254,0.999999983725363,0.5,0.438161663712295,0.635811758113028,11.8739984153201,2.69500997165334,0.5,-18.4720993857278
148,1,39,A,3,0,l,9,1,0.95,3A,0A,0,1,0,1,A30,2.53939176118741,3.98898404656427,0.995035666385592,0.280919168143852,0.5,0.5,0.280919168143852,0.998432946953271,0.5,0.5,0.5,0.5,0.995035666385592,0.280919168143852,0.5,0.280919168143852,0.280919168143852,0.977382430763928,0.858622929947774,0,0,1,0A,3A,0.995035666385592,0.5,0.665559818242461,0.334440181757539,1,1,0.0049643336144084,0.00217518067571206,0.5,0.44050596979264,0.634622929947774,10.6440837989533,2.60177474539685,0.5,3.10410079950319,0.999974997803338,0.5,0.438161663712295,0.635811758113028,11.8739984153201,2.69500997165334,0.5,-18.4720993857278
148,1,40,C,3,2,l,63,0,0.95,3C,2C,0,1,1,0,C32,2.53808687237296,2.62103882411258,0.997210847061304,0.280919168143852,0.5,0.5,0.280919168143852,0.998432946953271,0.5,0.5,0.5,0.5,0.995035666385592,0.280919168143852,0.5,0.280919168143852,0.280919168143852,0.977382430763928,0.864622929947774,0,0,1,2C,3C,0.995035666385592,0.280919168143852,0.779836119162124,0.220163880837876,1,0,-0.995035666385592,-0.435986483036583,0.5,0.44050596979264,0.634622929947774,10.6440837989533,2.60177474539685,0.5,4.60007962610065,0.999999983352258,0.5,0.438161663712295,0.635811758113028,11.8739984153201,2.69500997165334,0.5,-18.4720993857278
148,1,41,A,1,0,l,63,1,0.95,1A,0A,0,1,0,1,A10,2.25670012600159,2.41591377830105,0.997210847061304,0.280919168143852,0.5,0.5,0.280919168143852,0.998432946953271,0.5,0.5,0.5,0.5,0.559049183349008,0.280919168143852,0.5,0.280919168143852,0.280919168143852,0.977382430763928,0.840622929947774,0,0,1,0A,1A,0.997210847061304,0.280919168143852,0.780210804220288,0.219789195779712,1,1,0.0027891529386963,0.00122209989196721,0.5,0.44050596979264,0.634622929947774,10.6440837989533,2.60177474539685,0.5,5.79651110852407,0.999999983673807,0.5,0.438161663712295,0.635811758113028,11.8739984153201,2.69500997165334,0.5,-18.4720993857278
148,1,42,D,3,2,a,63,1,0.95,3D,2D,1,0,1,0,D32,1.37993505954768,2.43361335540045,0.998432946953271,0.280919168143852,0.5,0.5,0.280919168143852,0.998432946953271,0.5,0.5,0.5,0.5,0.559049183349008,0.280919168143852,0.5,0.280919168143852,0.280919168143852,0.977382430763928,0.830622929947774,1,1,0,3D,2D,0.977382430763928,0.280919168143852,0.776747348658149,0.223252651341851,1,1,0.0226175692360723,0.00991015176560546,0.5,0.44050596979264,0.634622929947774,10.6440837989533,2.60177474539685,0.5,6.17978005490596,0.999999979656106,0.5,0.438161663712295,0.635811758113028,11.8739984153201,2.69500997165334,0.5,-18.4720993857278
148,1,43,C,2,3,a,63,1,0.95,2C,3C,1,0,1,0,C23,1.28939585968329,2.96183072187831,0.998432946953271,0.280919168143852,0.5,0.5,0.280919168143852,0.998432946953271,0.5,0.5,0.5,0.5,0.559049183349008,0.280919168143852,0.5,0.280919168143852,0.280919168143852,0.987292582529533,0.937622929947774,1,1,0,2C,3C,0.559049183349008,0.280919168143852,0.665559818242461,0.334440181757539,1,1,0.440950816650992,0.193207743439094,0.5,0.44050596979264,0.634622929947774,10.6440837989533,2.60177474539685,0.5,3.10631186392297,0.999975011081736,0.5,0.438161663712295,0.635811758113028,11.8739984153201,2.69500997165334,0.5,-18.4720993857278
148,1,44,D,1,3,l,27,1,0.95,1D,3D,0,1,0,1,D13,2.83502937091429,3.38439026334577,0.998432946953271,0.280919168143852,0.5,0.5,0.280919168143852,0.998432946953271,0.5,0.5,0.5,0.5,0.752256926788102,0.280919168143852,0.5,0.280919168143852,0.280919168143852,0.987292582529533,0.943622929947774,0,0,1,3D,1D,0.987292582529533,0.280919168143852,0.778491905634298,0.221508094365702,1,1,0.0127074174704668,0.00556790318034641,0.5,0.44050596979264,0.634622929947774,10.6440837989533,2.60177474539685,0.5,1.45920026426186,0.999999981792653,0.5,0.438161663712295,0.635811758113028,11.8739984153201,2.69500997165334,0.5,-18.4720993857278
