ID,filename,session,trial,visStimLeft,visStimRight,correctKey,leftCorrect,rightCorrect,secondStim,mod2Type,mod2Stim,frequency,rewardAccurate,stimPairLeft,stimPairRight,pCorrectLeft,pCorrectRight,key,reactionTime,choiceLeft,choiceRight,choiceAccurate,reward,chosenPair,otherPair,triplet,surprise,0A belief,1A belief,2A belief,3A belief,0B belief,1B belief,2B belief,3B belief,0C belief,1C belief,2C belief,3C belief,0D belief,1D belief,2D belief,3D belief,beliefPairNorm,beliefOtherPairNorm,beliefPair,beliefOtherPair,lik,corrLik,rewardPE,update2,fitCBCsimpleRW_CBCdriftDiffusionLR_startBelief,fitCBCsimpleRW_CBCdriftDiffusionLR_alpha1,fitCBCsimpleRW_CBCdriftDiffusionLR_nonDecisionTime,fitCBCsimpleRW_CBCdriftDiffusionLR_weight,fitCBCsimpleRW_CBCdriftDiffusionLR_startingBoundary,fitCBCsimpleRW_CBCdriftDiffusionLR_startingPoint,fit_CBCsimpleRW_CBCdriftDiffusionLR_NLL
CBC_1042,CBC_1042_MSI_TV_v3_Vset6_Tset2_2024-07-26_15h40.22.663.csv,1,1,0,1,b,1,0,3,tac,A,63,1,0A,1A,1,0,b,2.6234028000008,1,0,1,1,0A,1A,A01,2.77258872223978,0.5,0.5,0.5,0.5,0.5,0.5,0.5,0.5,0.5,0.5,0.5,0.5,0.5,0.5,0.5,0.5,0.5,0.5,0.5,0.5,0.151805410781606,0.499212994874198,0.5,0.342502381711908,0.5,0.685004763423816,1.09874037903233,0.507760887550978,2.92147237475446,0.5,79.2848293485701
CBC_1042,CBC_1042_MSI_TV_v3_Vset6_Tset2_2024-07-26_15h40.22.663.csv,1,2,2,3,z,0,1,1,tac,D,63,1,2D,3D,0,1,z,2.69367519999923,0,1,1,1,3D,2D,D23,2.83321334405622,0.842502381711908,0.5,0.5,0.5,0.5,0.5,0.5,0.5,0.5,0.5,0.5,0.5,0.5,0.5,0.5,0.5,0.5,0.5,0.5,0.5,0.146319646231655,0.500764174308189,0.5,0.342502381711908,0.5,0.685004763423816,1.09874037903233,0.507760887550978,2.92147237475446,0.5,79.2848293485701
CBC_1042,CBC_1042_MSI_TV_v3_Vset6_Tset2_2024-07-26_15h40.22.663.csv,1,3,0,2,z,0,1,2,tac,C,27,1,0C,2C,0,1,b,2.85773749999953,1,0,0,0,0C,2C,C02,2.89037175789616,0.842502381711908,0.5,0.5,0.5,0.5,0.5,0.5,0.5,0.5,0.5,0.5,0.5,0.5,0.5,0.5,0.842502381711908,0.5,0.5,0.5,0.5,0.133073887989324,0.500248901203088,-0.5,-0.342502381711908,0.5,0.685004763423816,1.09874037903233,0.507760887550978,2.92147237475446,0.5,79.2848293485701
CBC_1042,CBC_1042_MSI_TV_v3_Vset6_Tset2_2024-07-26_15h40.22.663.csv,1,4,0,1,b,1,0,3,tac,A,63,1,0A,1A,1,0,b,2.66204649999872,1,0,1,1,0A,1A,A01,2.2512917986065,0.842502381711908,0.5,0.5,0.5,0.5,0.5,0.5,0.5,0.157497618288092,0.5,0.5,0.5,0.5,0.5,0.5,0.842502381711908,0.627561182154166,0.372438817845834,0.842502381711908,0.5,0.177618244763921,0.594211518035541,0.157497618288092,0.107886618755249,0.5,0.685004763423816,1.09874037903233,0.507760887550978,2.92147237475446,0.5,79.2848293485701
CBC_1042,CBC_1042_MSI_TV_v3_Vset6_Tset2_2024-07-26_15h40.22.663.csv,1,5,1,3,b,1,0,0,tac,B,27,1,1B,3B,1,0,z,3.05179429999862,0,1,0,0,3B,1B,B13,2.99573227355399,0.950389000467157,0.5,0.5,0.5,0.5,0.5,0.5,0.5,0.157497618288092,0.5,0.5,0.5,0.5,0.5,0.5,0.842502381711908,0.5,0.5,0.5,0.5,0.119175908425504,0.500937665106145,-0.5,-0.342502381711908,0.5,0.685004763423816,1.09874037903233,0.507760887550978,2.92147237475446,0.5,79.2848293485701
CBC_1042,CBC_1042_MSI_TV_v3_Vset6_Tset2_2024-07-26_15h40.22.663.csv,1,6,3,2,z,0,1,2,tac,C,63,1,3C,2C,0,1,z,2.66706939999949,0,1,1,1,2C,3C,C32,3.04452243772342,0.950389000467157,0.5,0.5,0.5,0.5,0.5,0.5,0.157497618288092,0.157497618288092,0.5,0.5,0.5,0.5,0.5,0.5,0.842502381711908,0.5,0.5,0.5,0.5,0.148404126283345,0.500268110902889,0.5,0.342502381711908,0.5,0.685004763423816,1.09874037903233,0.507760887550978,2.92147237475446,0.5,79.2848293485701
CBC_1042,CBC_1042_MSI_TV_v3_Vset6_Tset2_2024-07-26_15h40.22.663.csv,1,7,3,2,b,1,0,1,tac,D,63,1,3D,2D,1,0,b,2.86745219999921,1,0,1,1,3D,2D,D32,3.09104245335832,0.950389000467157,0.5,0.5,0.5,0.5,0.5,0.5,0.157497618288092,0.157497618288092,0.5,0.842502381711908,0.5,0.5,0.5,0.5,0.842502381711908,0.627561182154166,0.372438817845834,0.842502381711908,0.5,0.157545953905868,0.593787604337477,0.157497618288092,0.107886618755249,0.5,0.685004763423816,1.09874037903233,0.507760887550978,2.92147237475446,0.5,79.2848293485701
CBC_1042,CBC_1042_MSI_TV_v3_Vset6_Tset2_2024-07-26_15h40.22.663.csv,1,8,0,1,z,0,1,0,tac,B,63,1,0B,1B,NaN,NaN,None,NaN,NaN,NaN,NaN,NaN,,,B01,3.13549421592915,0.950389000467157,0.5,0.5,0.5,0.5,0.5,0.5,0.157497618288092,0.157497618288092,0.5,0.842502381711908,0.5,0.5,0.5,0.5,0.950389000467157,0,0,0,0,NaN,0,0,0,0.5,0.685004763423816,1.09874037903233,0.507760887550978,2.92147237475446,0.5,79.2848293485701
CBC_1042,CBC_1042_MSI_TV_v3_Vset6_Tset2_2024-07-26_15h40.22.663.csv,1,9,2,0,z,0,1,3,tac,A,27,1,2A,0A,0,1,b,3.03197849999833,1,0,0,0,2A,0A,A20,3.17805383034795,0.950389000467157,0.5,0.5,0.5,0.5,0.5,0.5,0.157497618288092,0.157497618288092,0.5,0.842502381711908,0.5,0.5,0.5,0.5,0.950389000467157,0.344735101989159,0.655264898010841,0.5,0.950389000467157,0.0932307723719864,0.386551250557993,-0.5,-0.342502381711908,0.5,0.685004763423816,1.09874037903233,0.507760887550978,2.92147237475446,0.5,79.2848293485701
CBC_1042,CBC_1042_MSI_TV_v3_Vset6_Tset2_2024-07-26_15h40.22.663.csv,1,10,3,0,b,1,0,1,tac,D,9,1,3D,0D,1,0,b,2.22411799999918,1,0,1,1,3D,0D,D30,3.2188758248682,0.950389000467157,0.5,0.157497618288092,0.5,0.5,0.5,0.5,0.157497618288092,0.157497618288092,0.5,0.842502381711908,0.5,0.5,0.5,0.5,0.950389000467157,0.655264898010841,0.344735101989159,0.950389000467157,0.5,0.234811748718619,0.613930477565624,0.049610999532843,0.0339837709982142,0.5,0.685004763423816,1.09874037903233,0.507760887550978,2.92147237475446,0.5,79.2848293485701
CBC_1042,CBC_1042_MSI_TV_v3_Vset6_Tset2_2024-07-26_15h40.22.663.csv,1,11,2,3,b,1,0,2,tac,C,63,1,2C,3C,1,0,z,2.67989650000072,0,1,0,0,3C,2C,C23,3.25809653802148,0.950389000467157,0.5,0.157497618288092,0.5,0.5,0.5,0.5,0.157497618288092,0.157497618288092,0.5,0.842502381711908,0.5,0.5,0.5,0.5,0.984372771465371,0.372438817845834,0.627561182154166,0.5,0.842502381711908,0.120424121402298,0.40709461383795,-0.5,-0.342502381711908,0.5,0.685004763423816,1.09874037903233,0.507760887550978,2.92147237475446,0.5,79.2848293485701
CBC_1042,CBC_1042_MSI_TV_v3_Vset6_Tset2_2024-07-26_15h40.22.663.csv,1,12,0,1,z,0,1,0,tac,B,63,1,0B,1B,0,1,z,2.87054780000017,0,1,1,1,1B,0B,B01,2.60268968544438,0.950389000467157,0.5,0.157497618288092,0.5,0.5,0.5,0.5,0.157497618288092,0.157497618288092,0.5,0.842502381711908,0.157497618288092,0.5,0.5,0.5,0.984372771465371,0.5,0.5,0.5,0.5,0.131944041014586,0.499663704045852,0.5,0.342502381711908,0.5,0.685004763423816,1.09874037903233,0.507760887550978,2.92147237475446,0.5,79.2848293485701
CBC_1042,CBC_1042_MSI_TV_v3_Vset6_Tset2_2024-07-26_15h40.22.663.csv,1,13,2,3,z,0,1,1,tac,D,63,1,2D,3D,0,1,b,2.23308029999953,1,0,0,0,2D,3D,D23,2.63905732961526,0.950389000467157,0.5,0.157497618288092,0.5,0.5,0.842502381711908,0.5,0.157497618288092,0.157497618288092,0.5,0.842502381711908,0.157497618288092,0.5,0.5,0.5,0.984372771465371,0.336842610974601,0.663157389025399,0.5,0.984372771465371,0.144924111378648,0.38015643765273,-0.5,-0.342502381711908,0.5,0.685004763423816,1.09874037903233,0.507760887550978,2.92147237475446,0.5,79.2848293485701
CBC_1042,CBC_1042_MSI_TV_v3_Vset6_Tset2_2024-07-26_15h40.22.663.csv,1,14,2,3,b,1,0,2,tac,C,63,1,2C,3C,1,0,b,2.79182149999815,1,0,1,1,2C,3C,C23,2.67414864942653,0.950389000467157,0.5,0.157497618288092,0.5,0.5,0.842502381711908,0.5,0.157497618288092,0.157497618288092,0.5,0.842502381711908,0.157497618288092,0.5,0.5,0.157497618288092,0.984372771465371,0.842502381711908,0.157497618288092,0.842502381711908,0.157497618288092,0.207517849524837,0.735106102633781,0.157497618288092,0.107886618755249,0.5,0.685004763423816,1.09874037903233,0.507760887550978,2.92147237475446,0.5,79.2848293485701
CBC_1042,CBC_1042_MSI_TV_v3_Vset6_Tset2_2024-07-26_15h40.22.663.csv,1,15,3,1,z,0,1,0,tac,B,27,1,3B,1B,0,1,z,2.79417019999983,0,1,1,1,1B,3B,B31,3.40119738166216,0.950389000467157,0.5,0.157497618288092,0.5,0.5,0.842502381711908,0.5,0.157497618288092,0.157497618288092,0.5,0.950389000467157,0.157497618288092,0.5,0.5,0.157497618288092,0.984372771465371,0.842502381711908,0.157497618288092,0.842502381711908,0.157497618288092,0.206867690818505,0.734026109586659,0.157497618288092,0.107886618755249,0.5,0.685004763423816,1.09874037903233,0.507760887550978,2.92147237475446,0.5,79.2848293485701
CBC_1042,CBC_1042_MSI_TV_v3_Vset6_Tset2_2024-07-26_15h40.22.663.csv,1,16,0,3,b,1,0,3,tac,A,9,1,0A,3A,1,0,b,2.61375719999978,1,0,1,1,0A,3A,A03,3.43398720448515,0.950389000467157,0.5,0.157497618288092,0.5,0.5,0.950389000467157,0.5,0.157497618288092,0.157497618288092,0.5,0.950389000467157,0.157497618288092,0.5,0.5,0.157497618288092,0.984372771465371,0.655264898010841,0.344735101989159,0.950389000467157,0.5,0.188488289221041,0.611984547251411,0.049610999532843,0.0339837709982142,0.5,0.685004763423816,1.09874037903233,0.507760887550978,2.92147237475446,0.5,79.2848293485701
CBC_1042,CBC_1042_MSI_TV_v3_Vset6_Tset2_2024-07-26_15h40.22.663.csv,1,17,2,3,z,0,1,1,tac,D,63,1,2D,3D,0,1,z,2.5644575999986,0,1,1,1,3D,2D,D23,2.36712361413162,0.984372771465371,0.5,0.157497618288092,0.5,0.5,0.950389000467157,0.5,0.157497618288092,0.157497618288092,0.5,0.950389000467157,0.157497618288092,0.5,0.5,0.157497618288092,0.984372771465371,0.86207049442617,0.13792950557383,0.984372771465371,0.157497618288092,0.243536075730745,0.745278098064114,0.0156272285346288,0.0107047259853333,0.5,0.685004763423816,1.09874037903233,0.507760887550978,2.92147237475446,0.5,79.2848293485701
CBC_1042,CBC_1042_MSI_TV_v3_Vset6_Tset2_2024-07-26_15h40.22.663.csv,1,18,0,2,z,0,1,2,tac,C,27,1,0C,2C,0,1,b,2.87793659999897,1,0,0,0,0C,2C,C02,2.80336038090653,0.984372771465371,0.5,0.157497618288092,0.5,0.5,0.950389000467157,0.5,0.157497618288092,0.157497618288092,0.5,0.950389000467157,0.157497618288092,0.5,0.5,0.157497618288092,0.995077497450705,0.142160412105208,0.857839587894792,0.157497618288092,0.950389000467157,0.0687394424820208,0.256946294718916,-0.157497618288092,-0.107886618755249,0.5,0.685004763423816,1.09874037903233,0.507760887550978,2.92147237475446,0.5,79.2848293485701
CBC_1042,CBC_1042_MSI_TV_v3_Vset6_Tset2_2024-07-26_15h40.22.663.csv,1,19,0,1,b,1,0,3,tac,A,63,1,0A,1A,1,0,b,2.77228259999811,1,0,1,1,0A,1A,A01,2.42774823594805,0.984372771465371,0.5,0.157497618288092,0.5,0.5,0.950389000467157,0.5,0.157497618288092,0.0496109995328429,0.5,0.950389000467157,0.157497618288092,0.5,0.5,0.157497618288092,0.995077497450705,0.663157389025399,0.336842610974601,0.984372771465371,0.5,0.173861055089475,0.618595087502815,0.0156272285346288,0.0107047259853333,0.5,0.685004763423816,1.09874037903233,0.507760887550978,2.92147237475446,0.5,79.2848293485701
CBC_1042,CBC_1042_MSI_TV_v3_Vset6_Tset2_2024-07-26_15h40.22.663.csv,1,20,1,0,b,1,0,0,tac,B,63,0,1B,0B,0,1,z,2.72273729999961,0,1,0,1,0B,1B,B10,3.55534806148941,0.995077497450705,0.5,0.157497618288092,0.5,0.5,0.950389000467157,0.5,0.157497618288092,0.0496109995328429,0.5,0.950389000467157,0.157497618288092,0.5,0.5,0.157497618288092,0.995077497450705,0.344735101989159,0.655264898010841,0.5,0.950389000467157,0.111752274234125,0.38646787218237,0.5,0.342502381711908,0.5,0.685004763423816,1.09874037903233,0.507760887550978,2.92147237475446,0.5,79.2848293485701
CBC_1042,CBC_1042_MSI_TV_v3_Vset6_Tset2_2024-07-26_15h40.22.663.csv,1,21,3,1,b,1,0,1,tac,D,27,1,3D,1D,1,0,b,2.8957134000002,1,0,1,1,3D,1D,D31,3.58351893845611,0.995077497450705,0.5,0.157497618288092,0.5,0.842502381711908,0.950389000467157,0.5,0.157497618288092,0.0496109995328429,0.5,0.950389000467157,0.157497618288092,0.5,0.5,0.157497618288092,0.995077497450705,0.665569175609584,0.334430824390417,0.995077497450705,0.5,0.162238919608782,0.620554292722262,0.00492250254929549,0.00337193769423329,0.5,0.685004763423816,1.09874037903233,0.507760887550978,2.92147237475446,0.5,79.2848293485701
CBC_1042,CBC_1042_MSI_TV_v3_Vset6_Tset2_2024-07-26_15h40.22.663.csv,1,22,3,2,z,0,1,2,tac,C,63,1,3C,2C,0,1,z,2.73429839999972,0,1,1,1,2C,3C,C32,2.91777073208428,0.995077497450705,0.5,0.157497618288092,0.5,0.842502381711908,0.950389000467157,0.5,0.157497618288092,0.0496109995328429,0.5,0.950389000467157,0.157497618288092,0.5,0.5,0.157497618288092,0.998449435144938,0.857839587894792,0.142160412105208,0.950389000467157,0.157497618288092,0.217687671380197,0.74244498711762,0.049610999532843,0.0339837709982142,0.5,0.685004763423816,1.09874037903233,0.507760887550978,2.92147237475446,0.5,79.2848293485701
CBC_1042,CBC_1042_MSI_TV_v3_Vset6_Tset2_2024-07-26_15h40.22.663.csv,1,23,0,1,z,0,1,0,tac,B,63,1,0B,1B,0,1,b,3.00142119999964,1,0,0,0,0B,1B,B01,2.53897387105828,0.995077497450705,0.5,0.157497618288092,0.5,0.842502381711908,0.950389000467157,0.5,0.157497618288092,0.0496109995328429,0.5,0.984372771465371,0.157497618288092,0.5,0.5,0.157497618288092,0.998449435144938,0.469912672951742,0.530087327048258,0.842502381711908,0.950389000467157,0.117200707777504,0.478491334716277,-0.842502381711908,-0.577118144668568,0.5,0.685004763423816,1.09874037903233,0.507760887550978,2.92147237475446,0.5,79.2848293485701
CBC_1042,CBC_1042_MSI_TV_v3_Vset6_Tset2_2024-07-26_15h40.22.663.csv,1,24,0,2,b,1,0,3,tac,A,27,1,0A,2A,1,0,b,2.92453309999928,1,0,1,1,0A,2A,A02,3.66356164612965,0.995077497450705,0.5,0.157497618288092,0.5,0.265384237043341,0.950389000467157,0.5,0.157497618288092,0.0496109995328429,0.5,0.984372771465371,0.157497618288092,0.5,0.5,0.157497618288092,0.998449435144938,0.863351536800154,0.136648463199847,0.995077497450705,0.157497618288092,0.193612894046043,0.745508088080422,0.00492250254929549,0.00337193769423329,0.5,0.685004763423816,1.09874037903233,0.507760887550978,2.92147237475446,0.5,79.2848293485701
CBC_1042,CBC_1042_MSI_TV_v3_Vset6_Tset2_2024-07-26_15h40.22.663.csv,1,25,3,2,b,1,0,1,tac,D,63,1,3D,2D,1,0,z,2.9342530999993,0,1,0,0,2D,3D,D32,2.99573227355399,0.998449435144938,0.5,0.157497618288092,0.5,0.265384237043341,0.950389000467157,0.5,0.157497618288092,0.0496109995328429,0.5,0.984372771465371,0.157497618288092,0.5,0.5,0.157497618288092,0.998449435144938,0.13624985488768,0.86375014511232,0.157497618288092,0.998449435144938,0.0656065148123189,0.254196408482568,-0.157497618288092,-0.107886618755249,0.5,0.685004763423816,1.09874037903233,0.507760887550978,2.92147237475446,0.5,79.2848293485701
CBC_1042,CBC_1042_MSI_TV_v3_Vset6_Tset2_2024-07-26_15h40.22.663.csv,1,26,0,2,z,0,1,2,tac,C,27,1,0C,2C,0,1,z,2.6780004000002,0,1,1,1,2C,0C,C02,2.6149597780362,0.998449435144938,0.5,0.157497618288092,0.5,0.265384237043341,0.950389000467157,0.5,0.157497618288092,0.0496109995328429,0.5,0.984372771465371,0.157497618288092,0.5,0.5,0.0496109995328429,0.998449435144938,0.952019556859245,0.0479804431407547,0.984372771465371,0.0496109995328429,0.244137581990407,0.792925325880881,0.0156272285346288,0.0107047259853333,0.5,0.685004763423816,1.09874037903233,0.507760887550978,2.92147237475446,0.5,79.2848293485701
CBC_1042,CBC_1042_MSI_TV_v3_Vset6_Tset2_2024-07-26_15h40.22.663.csv,1,27,0,1,z,0,1,0,tac,B,63,1,0B,1B,0,1,b,2.79741929999818,1,0,0,0,0B,1B,B01,2.35137525716348,0.998449435144938,0.5,0.157497618288092,0.5,0.265384237043341,0.950389000467157,0.5,0.157497618288092,0.0496109995328429,0.5,0.995077497450705,0.157497618288092,0.5,0.5,0.0496109995328429,0.998449435144938,0.218284322154319,0.781715677845681,0.265384237043341,0.950389000467157,0.0846859946219935,0.302853162271239,-0.265384237043341,-0.181789466512284,0.5,0.685004763423816,1.09874037903233,0.507760887550978,2.92147237475446,0.5,79.2848293485701
CBC_1042,CBC_1042_MSI_TV_v3_Vset6_Tset2_2024-07-26_15h40.22.663.csv,1,28,1,0,z,0,1,3,tac,A,63,1,1A,0A,0,1,z,2.67068389999895,0,1,1,1,0A,1A,A10,3.76120011569356,0.998449435144938,0.5,0.157497618288092,0.5,0.083594770531057,0.950389000467157,0.5,0.157497618288092,0.0496109995328429,0.5,0.995077497450705,0.157497618288092,0.5,0.5,0.0496109995328429,0.998449435144938,0.666321740144914,0.333678259855086,0.998449435144938,0.5,0.184886934850275,0.61982268953638,0.00155056485506222,0.00106214431171518,0.5,0.685004763423816,1.09874037903233,0.507760887550978,2.92147237475446,0.5,79.2848293485701
CBC_1042,CBC_1042_MSI_TV_v3_Vset6_Tset2_2024-07-26_15h40.22.663.csv,1,29,2,3,b,1,0,2,tac,C,63,1,2C,3C,1,0,b,2.76507509999919,1,0,1,1,2C,3C,C23,2.68557734525015,0.999511579456653,0.5,0.157497618288092,0.5,0.083594770531057,0.950389000467157,0.5,0.157497618288092,0.0496109995328429,0.5,0.995077497450705,0.157497618288092,0.5,0.5,0.0496109995328429,0.998449435144938,0.863351536800154,0.136648463199847,0.995077497450705,0.157497618288092,0.214416490544192,0.745361947040608,0.00492250254929549,0.00337193769423329,0.5,0.685004763423816,1.09874037903233,0.507760887550978,2.92147237475446,0.5,79.2848293485701
CBC_1042,CBC_1042_MSI_TV_v3_Vset6_Tset2_2024-07-26_15h40.22.663.csv,1,30,1,3,z,0,1,1,tac,D,27,1,1D,3D,0,1,z,2.84266780000053,0,1,1,1,3D,1D,D13,3.80666248977032,0.999511579456653,0.5,0.157497618288092,0.5,0.083594770531057,0.950389000467157,0.5,0.157497618288092,0.0496109995328429,0.5,0.998449435144938,0.157497618288092,0.5,0.5,0.0496109995328429,0.998449435144938,0.666321740144914,0.333678259855086,0.998449435144938,0.5,0.167765283076867,0.621898504403581,0.00155056485506222,0.00106214431171518,0.5,0.685004763423816,1.09874037903233,0.507760887550978,2.92147237475446,0.5,79.2848293485701
CBC_1042,CBC_1042_MSI_TV_v3_Vset6_Tset2_2024-07-26_15h40.22.663.csv,1,31,0,1,b,1,0,3,tac,A,63,1,0A,1A,1,0,b,2.58101629999965,1,0,1,1,0A,1A,A01,2.4423470353692,0.999511579456653,0.5,0.157497618288092,0.5,0.083594770531057,0.950389000467157,0.5,0.157497618288092,0.0496109995328429,0.5,0.998449435144938,0.157497618288092,0.5,0.5,0.0496109995328429,0.999511579456653,0.666558093415207,0.333441906584793,0.999511579456653,0.5,0.195074003454552,0.620737088751339,0.000488420543347079,0.000334570398746798,0.5,0.685004763423816,1.09874037903233,0.507760887550978,2.92147237475446,0.5,79.2848293485701
CBC_1042,CBC_1042_MSI_TV_v3_Vset6_Tset2_2024-07-26_15h40.22.663.csv,1,32,2,3,z,0,1,1,tac,D,63,1,2D,3D,0,1,b,2.98508280000078,1,0,0,0,2D,3D,D23,2.46385324059017,0.9998461498554,0.5,0.157497618288092,0.5,0.083594770531057,0.950389000467157,0.5,0.157497618288092,0.0496109995328429,0.5,0.998449435144938,0.157497618288092,0.5,0.5,0.0496109995328429,0.999511579456653,0.0472880867559134,0.952711913244087,0.0496109995328429,0.999511579456653,0.0516020134867417,0.2064424421967,-0.0496109995328429,-0.0339837709982141,0.5,0.685004763423816,1.09874037903233,0.507760887550978,2.92147237475446,0.5,79.2848293485701
CBC_1042,CBC_1042_MSI_TV_v3_Vset6_Tset2_2024-07-26_15h40.22.663.csv,1,33,1,2,b,1,0,0,tac,B,9,1,1B,2B,1,0,b,4.29109879999942,1,0,1,1,1B,2B,B12,3.87120101090789,0.9998461498554,0.5,0.157497618288092,0.5,0.083594770531057,0.950389000467157,0.5,0.157497618288092,0.0496109995328429,0.5,0.998449435144938,0.157497618288092,0.5,0.5,0.0156272285346288,0.999511579456653,0.655264898010841,0.344735101989159,0.950389000467157,0.5,0.0702899384743382,0.612771002345633,0.049610999532843,0.0339837709982142,0.5,0.685004763423816,1.09874037903233,0.507760887550978,2.92147237475446,0.5,79.2848293485701
CBC_1042,CBC_1042_MSI_TV_v3_Vset6_Tset2_2024-07-26_15h40.22.663.csv,1,34,0,1,b,1,0,3,tac,A,63,1,0A,1A,1,0,z,3.02833060000103,0,1,0,0,1A,0A,A01,2.28238238567653,0.9998461498554,0.5,0.157497618288092,0.5,0.083594770531057,0.984372771465371,0.5,0.157497618288092,0.0496109995328429,0.5,0.998449435144938,0.157497618288092,0.5,0.5,0.0156272285346288,0.999511579456653,0.333367525761362,0.666632474238638,0.5,0.9998461498554,0.0916300166761684,0.378987318194988,-0.5,-0.342502381711908,0.5,0.685004763423816,1.09874037903233,0.507760887550978,2.92147237475446,0.5,79.2848293485701
CBC_1042,CBC_1042_MSI_TV_v3_Vset6_Tset2_2024-07-26_15h40.22.663.csv,1,35,1,2,z,0,1,2,tac,C,9,1,1C,2C,0,1,b,2.98571419999917,1,0,0,0,1C,2C,C12,3.91202300542815,0.9998461498554,0.157497618288092,0.157497618288092,0.5,0.083594770531057,0.984372771465371,0.5,0.157497618288092,0.0496109995328429,0.5,0.998449435144938,0.157497618288092,0.5,0.5,0.0156272285346288,0.999511579456653,0.333678259855086,0.666321740144914,0.5,0.998449435144938,0.0941508688060982,0.379752082213736,-0.5,-0.342502381711908,0.5,0.685004763423816,1.09874037903233,0.507760887550978,2.92147237475446,0.5,79.2848293485701
CBC_1042,CBC_1042_MSI_TV_v3_Vset6_Tset2_2024-07-26_15h40.22.663.csv,1,36,0,1,z,0,1,0,tac,B,63,1,0B,1B,0,1,b,2.61649649999981,1,0,0,0,0B,1B,B01,2.32238772029023,0.9998461498554,0.157497618288092,0.157497618288092,0.5,0.083594770531057,0.984372771465371,0.5,0.157497618288092,0.0496109995328429,0.157497618288092,0.998449435144938,0.157497618288092,0.5,0.5,0.0156272285346288,0.999511579456653,0.0782746359264696,0.92172536407353,0.083594770531057,0.984372771465371,0.0709036647921843,0.222022161979612,-0.083594770531057,-0.057262816011095,0.5,0.685004763423816,1.09874037903233,0.507760887550978,2.92147237475446,0.5,79.2848293485701
CBC_1042,CBC_1042_MSI_TV_v3_Vset6_Tset2_2024-07-26_15h40.22.663.csv,1,37,1,0,z,0,1,3,tac,A,63,0,1A,0A,1,0,z,2.58454009999969,0,1,1,0,0A,1A,A10,3.25809653802148,0.9998461498554,0.157497618288092,0.157497618288092,0.5,0.0263319545199621,0.984372771465371,0.5,0.157497618288092,0.0496109995328429,0.157497618288092,0.998449435144938,0.157497618288092,0.5,0.5,0.0156272285346288,0.999511579456653,0.863914575233999,0.136085424766001,0.9998461498554,0.157497618288092,0.241327590739306,0.747433776837285,-0.9998461498554,-0.684899375341912,0.5,0.685004763423816,1.09874037903233,0.507760887550978,2.92147237475446,0.5,79.2848293485701
CBC_1042,CBC_1042_MSI_TV_v3_Vset6_Tset2_2024-07-26_15h40.22.663.csv,1,38,1,0,b,1,0,0,tac,B,63,1,1B,0B,1,0,b,2.91819379999924,1,0,1,1,1B,0B,B10,3.27714473299218,0.314946774513488,0.157497618288092,0.157497618288092,0.5,0.0263319545199621,0.984372771465371,0.5,0.157497618288092,0.0496109995328429,0.157497618288092,0.998449435144938,0.157497618288092,0.5,0.5,0.0156272285346288,0.999511579456653,0.973946936387093,0.0260530636129075,0.984372771465371,0.0263319545199621,0.210247687643954,0.803392117024092,0.0156272285346288,0.0107047259853333,0.5,0.685004763423816,1.09874037903233,0.507760887550978,2.92147237475446,0.5,79.2848293485701
CBC_1042,CBC_1042_MSI_TV_v3_Vset6_Tset2_2024-07-26_15h40.22.663.csv,1,39,3,1,b,1,0,1,tac,D,27,1,3D,1D,1,0,z,2.61679969999841,0,1,0,0,1D,3D,D31,3.29583686600433,0.314946774513488,0.157497618288092,0.157497618288092,0.5,0.0263319545199621,0.995077497450705,0.5,0.157497618288092,0.0496109995328429,0.157497618288092,0.998449435144938,0.157497618288092,0.5,0.5,0.0156272285346288,0.999511579456653,0.333441906584793,0.666558093415207,0.5,0.999511579456653,0.116579809390707,0.378698414124589,-0.5,-0.342502381711908,0.5,0.685004763423816,1.09874037903233,0.507760887550978,2.92147237475446,0.5,79.2848293485701
CBC_1042,CBC_1042_MSI_TV_v3_Vset6_Tset2_2024-07-26_15h40.22.663.csv,1,40,2,3,b,1,0,2,tac,C,63,1,2C,3C,1,0,b,2.5105967999998,1,0,1,1,2C,3C,C23,2.62103882411258,0.314946774513488,0.157497618288092,0.157497618288092,0.5,0.0263319545199621,0.995077497450705,0.5,0.157497618288092,0.0496109995328429,0.157497618288092,0.998449435144938,0.157497618288092,0.5,0.157497618288092,0.0156272285346288,0.999511579456653,0.86375014511232,0.13624985488768,0.998449435144938,0.157497618288092,0.25239569861676,0.746410646620656,0.00155056485506222,0.00106214431171518,0.5,0.685004763423816,1.09874037903233,0.507760887550978,2.92147237475446,0.5,79.2848293485701
CBC_1042,CBC_1042_MSI_TV_v3_Vset6_Tset2_2024-07-26_15h40.22.663.csv,1,41,2,0,z,0,1,3,tac,A,27,1,2A,0A,0,1,z,2.54142240000056,0,1,1,1,0A,2A,A20,3.3322045101752,0.314946774513488,0.157497618288092,0.157497618288092,0.5,0.0263319545199621,0.995077497450705,0.5,0.157497618288092,0.0496109995328429,0.157497618288092,0.999511579456653,0.157497618288092,0.5,0.157497618288092,0.0156272285346288,0.999511579456653,0.666632474238638,0.333367525761362,0.314946774513488,0.157497618288092,0.199999059401052,0.621932506713008,0.685053225486512,0.469264722657111,0.5,0.685004763423816,1.09874037903233,0.507760887550978,2.92147237475446,0.5,79.2848293485701
CBC_1042,CBC_1042_MSI_TV_v3_Vset6_Tset2_2024-07-26_15h40.22.663.csv,1,42,3,2,b,1,0,1,tac,D,63,1,3D,2D,1,0,b,2.72546249999959,1,0,1,1,3D,2D,D32,2.94443897916644,0.784211497170598,0.157497618288092,0.157497618288092,0.5,0.0263319545199621,0.995077497450705,0.5,0.157497618288092,0.0496109995328429,0.157497618288092,0.999511579456653,0.157497618288092,0.5,0.157497618288092,0.0156272285346288,0.999511579456653,0.984605820985653,0.0153941790143472,0.999511579456653,0.0156272285346288,0.241952964197343,0.808597021566334,0.000488420543347079,0.000334570398746798,0.5,0.685004763423816,1.09874037903233,0.507760887550978,2.92147237475446,0.5,79.2848293485701
CBC_1042,CBC_1042_MSI_TV_v3_Vset6_Tset2_2024-07-26_15h40.22.663.csv,1,43,3,1,z,0,1,0,tac,B,27,1,3B,1B,0,1,z,2.71032389999982,0,1,1,1,1B,3B,B31,3.36729582998647,0.784211497170598,0.157497618288092,0.157497618288092,0.5,0.0263319545199621,0.995077497450705,0.5,0.157497618288092,0.0496109995328429,0.157497618288092,0.999511579456653,0.157497618288092,0.5,0.157497618288092,0.0156272285346288,0.9998461498554,0.863351536800154,0.136648463199847,0.995077497450705,0.157497618288092,0.222613192577802,0.746990371078943,0.00492250254929549,0.00337193769423329,0.5,0.685004763423816,1.09874037903233,0.507760887550978,2.92147237475446,0.5,79.2848293485701
CBC_1042,CBC_1042_MSI_TV_v3_Vset6_Tset2_2024-07-26_15h40.22.663.csv,1,44,2,3,b,1,0,2,tac,C,63,1,2C,3C,1,0,b,2.45377719999942,1,0,1,1,2C,3C,C23,2.46809953147162,0.784211497170598,0.157497618288092,0.157497618288092,0.5,0.0263319545199621,0.998449435144938,0.5,0.157497618288092,0.0496109995328429,0.157497618288092,0.999511579456653,0.157497618288092,0.5,0.157497618288092,0.0156272285346288,0.9998461498554,0.863875223641188,0.136124776358812,0.999511579456653,0.157497618288092,0.261659026650677,0.746775988001367,0.000488420543347079,0.000334570398746798,0.5,0.685004763423816,1.09874037903233,0.507760887550978,2.92147237475446,0.5,79.2848293485701
CBC_1042,CBC_1042_MSI_AV_v3_Vset5_Aset2_2024-07-26_17h06.06.006.csv,2,1,0,2,z,0,1,2,aud,C,27,1,0C,2C,0,1,z,1.53142370000023,0,1,1,1,2C,0C,C02,2.77258872223978,0.5,0.5,0.5,0.5,0.5,0.5,0.5,0.5,0.5,0.5,0.5,0.5,0.5,0.5,0.5,0.5,0.5,0.5,0.5,0.5,0.340935425914711,0.50021196073741,0.5,2.51818354112254e-05,0.5,5.03636708224509e-05,1.09969554177368,0.0352728121983231,2.32820027164792,0.5,72.4274055105715
CBC_1042,CBC_1042_MSI_AV_v3_Vset5_Aset2_2024-07-26_17h06.06.006.csv,2,2,2,3,z,0,1,1,aud,D,63,1,2D,3D,0,1,b,2.64017270000113,1,0,0,0,2D,3D,D23,2.83321334405622,0.5,0.5,0.5,0.5,0.5,0.5,0.5,0.5,0.5,0.5,0.500025181835411,0.5,0.5,0.5,0.5,0.5,0.5,0.5,0.5,0.5,0.142667675942582,0.500352301238342,-0.5,-2.51818354112254e-05,0.5,5.03636708224509e-05,1.09969554177368,0.0352728121983231,2.32820027164792,0.5,72.4274055105715
CBC_1042,CBC_1042_MSI_AV_v3_Vset5_Aset2_2024-07-26_17h06.06.006.csv,2,3,0,1,b,1,0,3,aud,A,63,1,0A,1A,1,0,b,2.58847270000115,1,0,1,1,0A,1A,A01,2.89037175789616,0.5,0.5,0.5,0.5,0.5,0.5,0.5,0.5,0.5,0.5,0.500025181835411,0.5,0.5,0.5,0.499974818164589,0.5,0.5,0.5,0.5,0.5,0.149440632564157,0.500018303002474,0.5,2.51818354112254e-05,0.5,5.03636708224509e-05,1.09969554177368,0.0352728121983231,2.32820027164792,0.5,72.4274055105715
CBC_1042,CBC_1042_MSI_AV_v3_Vset5_Aset2_2024-07-26_17h06.06.006.csv,2,4,3,2,z,0,1,2,aud,C,63,1,3C,2C,0,1,z,1.60919189999913,0,1,1,1,2C,3C,C32,2.94443897916644,0.500025181835411,0.5,0.5,0.5,0.5,0.5,0.5,0.5,0.5,0.5,0.500025181835411,0.5,0.5,0.5,0.499974818164589,0.5,0.500012590600651,0.499987409399349,0.500025181835411,0.5,0.336576035383395,0.498252782609637,0.499974818164589,2.51805671615561e-05,0.5,5.03636708224509e-05,1.09969554177368,0.0352728121983231,2.32820027164792,0.5,72.4274055105715
CBC_1042,CBC_1042_MSI_AV_v3_Vset5_Aset2_2024-07-26_17h06.06.006.csv,2,5,2,0,z,0,1,3,aud,A,27,1,2A,0A,0,1,b,2.5845659000006,1,0,0,0,2A,0A,A20,2.99573227355399,0.500025181835411,0.5,0.5,0.5,0.5,0.5,0.5,0.5,0.5,0.5,0.500050362402573,0.5,0.5,0.5,0.499974818164589,0.5,0.499987409399349,0.500012590600651,0.5,0.500025181835411,0.149824095955183,0.49952238889411,-0.5,-2.51818354112254e-05,0.5,5.03636708224509e-05,1.09969554177368,0.0352728121983231,2.32820027164792,0.5,72.4274055105715
CBC_1042,CBC_1042_MSI_AV_v3_Vset5_Aset2_2024-07-26_17h06.06.006.csv,2,6,3,2,b,1,0,1,aud,D,63,1,3D,2D,1,0,b,2.63970619999964,1,0,1,1,3D,2D,D32,3.04452243772342,0.500025181835411,0.5,0.499974818164589,0.5,0.5,0.5,0.5,0.5,0.5,0.5,0.500050362402573,0.5,0.5,0.5,0.499974818164589,0.5,0.500012591234776,0.499987408765224,0.5,0.499974818164589,0.142684240174539,0.500197972378883,0.5,2.51818354112254e-05,0.5,5.03636708224509e-05,1.09969554177368,0.0352728121983231,2.32820027164792,0.5,72.4274055105715
CBC_1042,CBC_1042_MSI_AV_v3_Vset5_Aset2_2024-07-26_17h06.06.006.csv,2,7,2,3,z,0,1,1,aud,D,63,1,2D,3D,0,1,z,2.40493799999967,0,1,1,1,3D,2D,D23,2.39789527279837,0.500025181835411,0.5,0.499974818164589,0.5,0.5,0.5,0.5,0.5,0.5,0.5,0.500050362402573,0.5,0.5,0.5,0.499974818164589,0.500025181835411,0.500025181835411,0.499974818164589,0.500025181835411,0.499974818164589,0.176592743199571,0.500029687448979,0.499974818164589,2.51805671615561e-05,0.5,5.03636708224509e-05,1.09969554177368,0.0352728121983231,2.32820027164792,0.5,72.4274055105715
CBC_1042,CBC_1042_MSI_AV_v3_Vset5_Aset2_2024-07-26_17h06.06.006.csv,2,8,1,3,b,1,0,0,aud,B,27,1,1B,3B,1,0,b,2.6957110000003,1,0,1,1,1B,3B,B13,3.13549421592915,0.500025181835411,0.5,0.499974818164589,0.5,0.5,0.5,0.5,0.5,0.5,0.5,0.500050362402573,0.5,0.5,0.5,0.499974818164589,0.500050362402573,0.5,0.5,0.5,0.5,0.135419514647451,0.499556297050172,0.5,2.51818354112254e-05,0.5,5.03636708224509e-05,1.09969554177368,0.0352728121983231,2.32820027164792,0.5,72.4274055105715
CBC_1042,CBC_1042_MSI_AV_v3_Vset5_Aset2_2024-07-26_17h06.06.006.csv,2,9,3,0,b,1,0,1,aud,D,9,1,3D,0D,1,0,z,2.51392590000069,0,1,0,0,0D,3D,D30,3.17805383034795,0.500025181835411,0.5,0.499974818164589,0.5,0.5,0.500025181835411,0.5,0.5,0.5,0.5,0.500050362402573,0.5,0.5,0.5,0.499974818164589,0.500050362402573,0.499974820066836,0.500025179933165,0.5,0.500050362402573,0.160029514681764,0.500335630371839,-0.5,-2.51818354112254e-05,0.5,5.03636708224509e-05,1.09969554177368,0.0352728121983231,2.32820027164792,0.5,72.4274055105715
CBC_1042,CBC_1042_MSI_AV_v3_Vset5_Aset2_2024-07-26_17h06.06.006.csv,2,10,0,1,z,0,1,0,aud,B,63,1,0B,1B,0,1,z,2.55217470000025,0,1,1,1,1B,0B,B01,3.2188758248682,0.500025181835411,0.5,0.499974818164589,0.5,0.5,0.500025181835411,0.5,0.5,0.5,0.5,0.500050362402573,0.5,0.499974818164589,0.5,0.499974818164589,0.500050362402573,0.500012590600651,0.499987409399349,0.500025181835411,0.5,0.154386942225337,0.499785921001197,0.499974818164589,2.51805671615561e-05,0.5,5.03636708224509e-05,1.09969554177368,0.0352728121983231,2.32820027164792,0.5,72.4274055105715
CBC_1042,CBC_1042_MSI_AV_v3_Vset5_Aset2_2024-07-26_17h06.06.006.csv,2,11,0,1,b,1,0,3,aud,A,63,1,0A,1A,1,0,b,2.64501159999963,1,0,1,1,0A,1A,A01,2.56494935746154,0.500025181835411,0.5,0.499974818164589,0.5,0.5,0.500050362402573,0.5,0.5,0.5,0.5,0.500050362402573,0.5,0.499974818164589,0.5,0.499974818164589,0.500050362402573,0.500012590600651,0.499987409399349,0.500025181835411,0.5,0.141935793154207,0.499982521781173,0.499974818164589,2.51805671615561e-05,0.5,5.03636708224509e-05,1.09969554177368,0.0352728121983231,2.32820027164792,0.5,72.4274055105715
CBC_1042,CBC_1042_MSI_AV_v3_Vset5_Aset2_2024-07-26_17h06.06.006.csv,2,12,1,0,b,1,0,0,aud,B,63,1,1B,0B,1,0,b,2.59045770000012,1,0,1,1,1B,0B,B10,3.29583686600433,0.500050362402573,0.5,0.499974818164589,0.5,0.5,0.500050362402573,0.5,0.5,0.5,0.5,0.500050362402573,0.5,0.499974818164589,0.5,0.499974818164589,0.500050362402573,0.500025179933165,0.499974820066836,0.500050362402573,0.5,0.149476190450368,0.50104159509216,0.499949637597427,2.51792989757604e-05,0.5,5.03636708224509e-05,1.09969554177368,0.0352728121983231,2.32820027164792,0.5,72.4274055105715
CBC_1042,CBC_1042_MSI_AV_v3_Vset5_Aset2_2024-07-26_17h06.06.006.csv,2,13,3,2,b,1,0,1,aud,D,63,1,3D,2D,1,0,z,2.54648629999974,0,1,0,0,2D,3D,D32,2.63905732961526,0.500050362402573,0.5,0.499974818164589,0.5,0.5,0.500075541701549,0.5,0.5,0.5,0.5,0.500050362402573,0.5,0.499974818164589,0.5,0.499974818164589,0.500050362402573,0.499962228832107,0.500037771167893,0.499974818164589,0.500050362402573,0.155157024398318,0.499686052467577,-0.499974818164589,-2.51805671615561e-05,0.5,5.03636708224509e-05,1.09969554177368,0.0352728121983231,2.32820027164792,0.5,72.4274055105715
CBC_1042,CBC_1042_MSI_AV_v3_Vset5_Aset2_2024-07-26_17h06.06.006.csv,2,14,3,1,z,0,1,0,aud,B,27,1,3B,1B,0,1,z,2.49263210000026,0,1,1,1,1B,3B,B31,3.36729582998647,0.500050362402573,0.5,0.499974818164589,0.5,0.5,0.500075541701549,0.5,0.5,0.5,0.5,0.500050362402573,0.5,0.499974818164589,0.5,0.499949637597427,0.500050362402573,0.500037767997715,0.499962232002285,0.500075541701549,0.5,0.16321039802534,0.500492303149219,0.499924458298451,2.51780308538353e-05,0.5,5.03636708224509e-05,1.09969554177368,0.0352728121983231,2.32820027164792,0.5,72.4274055105715
CBC_1042,CBC_1042_MSI_AV_v3_Vset5_Aset2_2024-07-26_17h06.06.006.csv,2,15,2,3,b,1,0,2,aud,C,63,1,2C,3C,1,0,b,1.68915040000138,1,0,1,1,2C,3C,C23,3.40119738166216,0.500050362402573,0.5,0.499974818164589,0.5,0.5,0.500100719732402,0.5,0.5,0.5,0.5,0.500050362402573,0.5,0.499974818164589,0.5,0.499949637597427,0.500050362402573,0.500025179933165,0.499974820066836,0.500050362402573,0.5,0.324979044074015,0.49997045304194,0.499949637597427,2.51792989757604e-05,0.5,5.03636708224509e-05,1.09969554177368,0.0352728121983231,2.32820027164792,0.5,72.4274055105715
CBC_1042,CBC_1042_MSI_AV_v3_Vset5_Aset2_2024-07-26_17h06.06.006.csv,2,16,0,2,z,0,1,2,aud,C,27,1,0C,2C,0,1,z,1.55693969999993,0,1,1,1,2C,0C,C02,2.7408400239252,0.500050362402573,0.5,0.499974818164589,0.5,0.5,0.500100719732402,0.5,0.5,0.5,0.5,0.500075541701549,0.5,0.499974818164589,0.5,0.499949637597427,0.500050362402573,0.500037767997715,0.499962232002285,0.500075541701549,0.5,0.341036754789689,0.499641999202451,0.499924458298451,2.51780308538353e-05,0.5,5.03636708224509e-05,1.09969554177368,0.0352728121983231,2.32820027164792,0.5,72.4274055105715
CBC_1042,CBC_1042_MSI_AV_v3_Vset5_Aset2_2024-07-26_17h06.06.006.csv,2,17,3,0,z,0,1,3,aud,A,9,1,3A,0A,0,1,b,2.45789690000129,1,0,0,0,3A,0A,A30,3.46573590279973,0.500050362402573,0.5,0.499974818164589,0.5,0.5,0.500100719732402,0.5,0.5,0.5,0.5,0.500100719732402,0.5,0.499974818164589,0.5,0.499949637597427,0.500050362402573,0.499974820066836,0.500025179933165,0.5,0.500050362402573,0.16826879573833,0.499958929184531,-0.5,-2.51818354112254e-05,0.5,5.03636708224509e-05,1.09969554177368,0.0352728121983231,2.32820027164792,0.5,72.4274055105715
CBC_1042,CBC_1042_MSI_AV_v3_Vset5_Aset2_2024-07-26_17h06.06.006.csv,2,18,3,2,z,0,1,2,aud,C,63,0,3C,2C,1,0,b,1.45038649999879,1,0,0,1,3C,2C,C32,2.80336038090653,0.500050362402573,0.5,0.499974818164589,0.499974818164589,0.5,0.500100719732402,0.5,0.5,0.5,0.5,0.500100719732402,0.5,0.499974818164589,0.5,0.499949637597427,0.500050362402573,0.49994964520552,0.50005035479448,0.5,0.500100719732402,0.323675926892766,0.49964397851114,0.5,2.51818354112254e-05,0.5,5.03636708224509e-05,1.09969554177368,0.0352728121983231,2.32820027164792,0.5,72.4274055105715
CBC_1042,CBC_1042_MSI_AV_v3_Vset5_Aset2_2024-07-26_17h06.06.006.csv,2,19,0,1,b,1,0,3,aud,A,63,1,0A,1A,1,0,z,2.30270399999972,0,1,0,0,1A,0A,A01,2.42774823594805,0.500050362402573,0.5,0.499974818164589,0.499974818164589,0.5,0.500100719732402,0.5,0.5,0.5,0.5,0.500100719732402,0.500025181835411,0.499974818164589,0.5,0.499949637597427,0.500050362402573,0.499974820066836,0.500025179933165,0.5,0.500050362402573,0.193596566171758,0.499581783343745,-0.5,-2.51818354112254e-05,0.5,5.03636708224509e-05,1.09969554177368,0.0352728121983231,2.32820027164792,0.5,72.4274055105715
CBC_1042,CBC_1042_MSI_AV_v3_Vset5_Aset2_2024-07-26_17h06.06.006.csv,2,20,2,3,z,0,1,1,aud,D,63,1,2D,3D,0,1,b,2.64390289999938,1,0,0,0,2D,3D,D23,2.4567357728213,0.500050362402573,0.499974818164589,0.499974818164589,0.499974818164589,0.5,0.500100719732402,0.5,0.5,0.5,0.5,0.500100719732402,0.500025181835411,0.499974818164589,0.5,0.499949637597427,0.500050362402573,0.499949637597427,0.500050362402573,0.499949637597427,0.500050362402573,0.142130073257803,0.500161958560987,-0.499949637597427,-2.51792989757604e-05,0.5,5.03636708224509e-05,1.09969554177368,0.0352728121983231,2.32820027164792,0.5,72.4274055105715
CBC_1042,CBC_1042_MSI_AV_v3_Vset5_Aset2_2024-07-26_17h06.06.006.csv,2,21,2,3,b,1,0,2,aud,C,63,1,2C,3C,NaN,NaN,[],NaN,NaN,NaN,NaN,NaN,,,C23,2.89037175789616,0.500050362402573,0.499974818164589,0.499974818164589,0.499974818164589,0.5,0.500100719732402,0.5,0.5,0.5,0.5,0.500100719732402,0.500025181835411,0.499974818164589,0.5,0.499924458298451,0.500050362402573,0,0,0,0,NaN,0,0,0,0.5,5.03636708224509e-05,1.09969554177368,0.0352728121983231,2.32820027164792,0.5,72.4274055105715
CBC_1042,CBC_1042_MSI_AV_v3_Vset5_Aset2_2024-07-26_17h06.06.006.csv,2,22,1,3,z,0,1,1,aud,D,27,1,1D,3D,0,1,b,2.52278230000047,1,0,0,0,1D,3D,D13,3.61091791264422,0.500050362402573,0.499974818164589,0.499974818164589,0.499974818164589,0.5,0.500100719732402,0.5,0.5,0.5,0.5,0.500100719732402,0.500025181835411,0.499974818164589,0.5,0.499924458298451,0.500050362402573,0.499974820066836,0.500025179933165,0.5,0.500050362402573,0.158255079162239,0.498790250077676,-0.5,-2.51818354112254e-05,0.5,5.03636708224509e-05,1.09969554177368,0.0352728121983231,2.32820027164792,0.5,72.4274055105715
CBC_1042,CBC_1042_MSI_AV_v3_Vset5_Aset2_2024-07-26_17h06.06.006.csv,2,23,1,0,z,0,1,3,aud,A,63,1,1A,0A,0,1,b,2.5277186000003,1,0,0,0,1A,0A,A10,3.63758615972639,0.500050362402573,0.499974818164589,0.499974818164589,0.499974818164589,0.5,0.500100719732402,0.5,0.5,0.5,0.5,0.500100719732402,0.500025181835411,0.499974818164589,0.499974818164589,0.499924458298451,0.500050362402573,0.499962228832107,0.500037771167893,0.499974818164589,0.500050362402573,0.158204696211471,0.500875626849738,-0.499974818164589,-2.51805671615561e-05,0.5,5.03636708224509e-05,1.09969554177368,0.0352728121983231,2.32820027164792,0.5,72.4274055105715
CBC_1042,CBC_1042_MSI_AV_v3_Vset5_Aset2_2024-07-26_17h06.06.006.csv,2,24,2,3,b,1,0,2,aud,C,63,1,2C,3C,1,0,b,1.75677639999958,1,0,1,1,2C,3C,C23,2.56494935746154,0.500050362402573,0.499949637597427,0.499974818164589,0.499974818164589,0.5,0.500100719732402,0.5,0.5,0.5,0.5,0.500100719732402,0.500025181835411,0.499974818164589,0.499974818164589,0.499924458298451,0.500050362402573,0.500037764193924,0.499962235806076,0.500100719732402,0.500025181835411,0.310530719012655,0.49977691170018,0.499899280267598,2.51767627957774e-05,0.5,5.03636708224509e-05,1.09969554177368,0.0352728121983231,2.32820027164792,0.5,72.4274055105715
CBC_1042,CBC_1042_MSI_AV_v3_Vset5_Aset2_2024-07-26_17h06.06.006.csv,2,25,2,0,z,0,1,3,aud,A,27,1,2A,0A,0,1,z,2.64610330000141,0,1,1,1,0A,2A,A20,2.99573227355399,0.500050362402573,0.499949637597427,0.499974818164589,0.499974818164589,0.5,0.500100719732402,0.5,0.5,0.5,0.5,0.500125896495198,0.500025181835411,0.499974818164589,0.499974818164589,0.499924458298451,0.500050362402573,0.500037771167893,0.499962228832107,0.500050362402573,0.499974818164589,0.141572938531351,0.499200164811566,0.499949637597427,2.51792989757604e-05,0.5,5.03636708224509e-05,1.09969554177368,0.0352728121983231,2.32820027164792,0.5,72.4274055105715
CBC_1042,CBC_1042_MSI_AV_v3_Vset5_Aset2_2024-07-26_17h06.06.006.csv,2,26,0,1,z,0,1,0,aud,B,63,1,0B,1B,0,1,b,2.48990049999884,1,0,0,0,0B,1B,B01,3.02042488614436,0.500075541701549,0.499949637597427,0.499974818164589,0.499974818164589,0.5,0.500100719732402,0.5,0.5,0.5,0.5,0.500125896495198,0.500025181835411,0.499974818164589,0.499974818164589,0.499924458298451,0.500050362402573,0.49994964520552,0.50005035479448,0.5,0.500100719732402,0.16316337117497,0.499106553734547,-0.5,-2.51818354112254e-05,0.5,5.03636708224509e-05,1.09969554177368,0.0352728121983231,2.32820027164792,0.5,72.4274055105715
CBC_1042,CBC_1042_MSI_AV_v3_Vset5_Aset2_2024-07-26_17h06.06.006.csv,2,27,1,0,b,1,0,0,aud,B,63,1,1B,0B,1,0,z,2.42101469999943,0,1,0,0,0B,1B,B10,3.04452243772342,0.500075541701549,0.499949637597427,0.499974818164589,0.499974818164589,0.499974818164589,0.500100719732402,0.5,0.5,0.5,0.5,0.500125896495198,0.500025181835411,0.499974818164589,0.499974818164589,0.499924458298451,0.500050362402573,0.499937053970904,0.500062946029096,0.499974818164589,0.500100719732402,0.173922188094554,0.49971639880358,-0.499974818164589,-2.51805671615561e-05,0.5,5.03636708224509e-05,1.09969554177368,0.0352728121983231,2.32820027164792,0.5,72.4274055105715
CBC_1042,CBC_1042_MSI_AV_v3_Vset5_Aset2_2024-07-26_17h06.06.006.csv,2,28,2,3,b,1,0,2,aud,C,63,1,2C,3C,1,0,b,1.51199309999902,1,0,1,1,2C,3C,C23,2.37490575457367,0.500075541701549,0.499949637597427,0.499974818164589,0.499974818164589,0.499949637597427,0.500100719732402,0.5,0.5,0.5,0.5,0.500125896495198,0.500025181835411,0.499974818164589,0.499974818164589,0.499924458298451,0.500050362402573,0.500050349723141,0.499949650276859,0.500125896495198,0.500025181835411,0.338690130136684,0.499349475171766,0.499874103504802,2.51754948015836e-05,0.5,5.03636708224509e-05,1.09969554177368,0.0352728121983231,2.32820027164792,0.5,72.4274055105715
CBC_1042,CBC_1042_MSI_AV_v3_Vset5_Aset2_2024-07-26_17h06.06.006.csv,2,29,1,3,z,0,1,1,aud,D,27,1,1D,3D,0,1,z,2.54378340000039,0,1,1,1,3D,1D,D13,3.09104245335832,0.500075541701549,0.499949637597427,0.499974818164589,0.499974818164589,0.499949637597427,0.500100719732402,0.5,0.5,0.5,0.5,0.50015107199,0.500025181835411,0.499974818164589,0.499974818164589,0.499924458298451,0.500050362402573,0.500037771167893,0.499962228832107,0.500050362402573,0.499974818164589,0.155514303098329,0.499606574361904,0.499949637597427,2.51792989757604e-05,0.5,5.03636708224509e-05,1.09969554177368,0.0352728121983231,2.32820027164792,0.5,72.4274055105715
CBC_1042,CBC_1042_MSI_AV_v3_Vset5_Aset2_2024-07-26_17h06.06.006.csv,2,30,2,1,b,1,0,2,aud,C,9,1,2C,1C,1,0,b,1.50645460000123,1,0,1,1,2C,1C,C21,3.80666248977032,0.500075541701549,0.499949637597427,0.499974818164589,0.499974818164589,0.499949637597427,0.500100719732402,0.5,0.5,0.5,0.5,0.50015107199,0.500025181835411,0.499974818164589,0.499974818164589,0.499924458298451,0.500075541701549,0.50007552458535,0.499924475414649,0.50015107199,0.5,0.338453873232036,0.500045057926563,0.49984892801,2.51742268712506e-05,0.5,5.03636708224509e-05,1.09969554177368,0.0352728121983231,2.32820027164792,0.5,72.4274055105715
CBC_1042,CBC_1042_MSI_AV_v3_Vset5_Aset2_2024-07-26_17h06.06.006.csv,2,31,1,3,b,1,0,0,aud,B,27,1,1B,3B,1,0,z,2.37143669999932,0,1,0,0,3B,1B,B13,3.13549421592915,0.500075541701549,0.499949637597427,0.499974818164589,0.499974818164589,0.499949637597427,0.500100719732402,0.5,0.5,0.5,0.5,0.500176246216871,0.500025181835411,0.499974818164589,0.499974818164589,0.499924458298451,0.500075541701549,0.49994964520552,0.50005035479448,0.5,0.500100719732402,0.181922068650692,0.499677047284585,-0.5,-2.51818354112254e-05,0.5,5.03636708224509e-05,1.09969554177368,0.0352728121983231,2.32820027164792,0.5,72.4274055105715
CBC_1042,CBC_1042_MSI_AV_v3_Vset5_Aset2_2024-07-26_17h06.06.006.csv,2,32,2,3,z,0,1,1,aud,D,63,1,2D,3D,0,1,b,2.52131310000004,1,0,0,0,2D,3D,D23,2.46385324059017,0.500075541701549,0.499949637597427,0.499974818164589,0.499974818164589,0.499949637597427,0.500100719732402,0.5,0.499974818164589,0.5,0.5,0.500176246216871,0.500025181835411,0.499974818164589,0.499974818164589,0.499924458298451,0.500075541701549,0.499924458298451,0.500075541701549,0.499924458298451,0.500075541701549,0.158926593224869,0.500237634672159,-0.499924458298451,-2.51780308538353e-05,0.5,5.03636708224509e-05,1.09969554177368,0.0352728121983231,2.32820027164792,0.5,72.4274055105715
CBC_1042,CBC_1042_MSI_AV_v3_Vset5_Aset2_2024-07-26_17h06.06.006.csv,2,33,1,0,b,1,0,0,aud,B,63,1,1B,0B,1,0,z,2.35719239999889,0,1,0,0,0B,1B,B10,2.77258872223978,0.500075541701549,0.499949637597427,0.499974818164589,0.499974818164589,0.499949637597427,0.500100719732402,0.5,0.499974818164589,0.5,0.5,0.500176246216871,0.500025181835411,0.499974818164589,0.499974818164589,0.499899280267598,0.500075541701549,0.499924462736367,0.500075537263633,0.499949637597427,0.500100719732402,0.184281481448652,0.499651665122932,-0.499949637597427,-2.51792989757604e-05,0.5,5.03636708224509e-05,1.09969554177368,0.0352728121983231,2.32820027164792,0.5,72.4274055105715
CBC_1042,CBC_1042_MSI_AV_v3_Vset5_Aset2_2024-07-26_17h06.06.006.csv,2,34,0,1,b,1,0,3,aud,A,63,0,0A,1A,0,1,z,2.51396590000149,0,1,0,1,1A,0A,A01,2.50552593699074,0.500075541701549,0.499949637597427,0.499974818164589,0.499974818164589,0.499924458298451,0.500100719732402,0.5,0.499974818164589,0.5,0.5,0.500176246216871,0.500025181835411,0.499974818164589,0.499974818164589,0.499899280267598,0.500075541701549,0.499937049532988,0.500062950467012,0.499949637597427,0.500075541701549,0.16003502979264,0.500371080921588,0.500050362402573,2.51843718466904e-05,0.5,5.03636708224509e-05,1.09969554177368,0.0352728121983231,2.32820027164792,0.5,72.4274055105715
CBC_1042,CBC_1042_MSI_AV_v3_Vset5_Aset2_2024-07-26_17h06.06.006.csv,2,35,3,2,z,0,1,2,aud,C,63,1,3C,2C,0,1,b,1.41565549999905,1,0,0,0,3C,2C,C32,2.81341071676004,0.500075541701549,0.499974821969274,0.499974818164589,0.499974818164589,0.499924458298451,0.500100719732402,0.5,0.499974818164589,0.5,0.5,0.500176246216871,0.500025181835411,0.499974818164589,0.499974818164589,0.499899280267598,0.500075541701549,0.499924483020508,0.500075516979492,0.500025181835411,0.500176246216871,0.306562561677835,0.500455321531774,-0.500025181835411,-2.51831036608948e-05,0.5,5.03636708224509e-05,1.09969554177368,0.0352728121983231,2.32820027164792,0.5,72.4274055105715
CBC_1042,CBC_1042_MSI_AV_v3_Vset5_Aset2_2024-07-26_17h06.06.006.csv,2,36,2,0,z,0,1,3,aud,A,27,1,2A,0A,0,1,b,2.63900720000129,1,0,0,0,2A,0A,A20,2.83321334405622,0.500075541701549,0.499974821969274,0.499974818164589,0.499974818164589,0.499924458298451,0.500100719732402,0.5,0.499974818164589,0.5,0.5,0.500176246216871,0.49999999873175,0.499974818164589,0.499974818164589,0.499899280267598,0.500075541701549,0.499949640767604,0.500050359232396,0.499974818164589,0.500075541701549,0.142551049823075,0.499413290576149,-0.499974818164589,-2.51805671615561e-05,0.5,5.03636708224509e-05,1.09969554177368,0.0352728121983231,2.32820027164792,0.5,72.4274055105715
CBC_1042,CBC_1042_MSI_AV_v3_Vset5_Aset2_2024-07-26_17h06.06.006.csv,2,37,1,0,b,1,0,0,aud,B,63,1,1B,0B,1,0,z,2.68480429999909,0,1,0,0,0B,1B,B10,2.56494935746154,0.500075541701549,0.499974821969274,0.499949637597427,0.499974818164589,0.499924458298451,0.500100719732402,0.5,0.499974818164589,0.5,0.5,0.500176246216871,0.49999999873175,0.499974818164589,0.499974818164589,0.499899280267598,0.500075541701549,0.499911871501927,0.500088128498073,0.499924458298451,0.500100719732402,0.136647759917851,0.499107934720523,-0.499924458298451,-2.51780308538353e-05,0.5,5.03636708224509e-05,1.09969554177368,0.0352728121983231,2.32820027164792,0.5,72.4274055105715
CBC_1042,CBC_1042_MSI_AV_v3_Vset5_Aset2_2024-07-26_17h06.06.006.csv,2,38,3,2,b,1,0,1,aud,D,63,1,3D,2D,1,0,z,2.7051352999988,0,1,0,0,2D,3D,D32,2.87167962488401,0.500075541701549,0.499974821969274,0.499949637597427,0.499974818164589,0.499899280267598,0.500100719732402,0.5,0.499974818164589,0.5,0.5,0.500176246216871,0.49999999873175,0.499974818164589,0.499974818164589,0.499899280267598,0.500075541701549,0.499911867064011,0.500088132935989,0.499899280267598,0.500075541701549,0.134327655232874,0.499797397131038,-0.499899280267598,-2.51767627957774e-05,0.5,5.03636708224509e-05,1.09969554177368,0.0352728121983231,2.32820027164792,0.5,72.4274055105715
CBC_1042,CBC_1042_MSI_AV_v3_Vset5_Aset2_2024-07-26_17h06.06.006.csv,2,39,2,1,z,0,1,0,aud,B,9,1,2B,1B,0,1,z,2.48412469999857,0,1,1,1,1B,2B,B21,3.98898404656427,0.500075541701549,0.499974821969274,0.499949637597427,0.499974818164589,0.499899280267598,0.500100719732402,0.5,0.499974818164589,0.5,0.5,0.500176246216871,0.49999999873175,0.499974818164589,0.499974818164589,0.499874103504802,0.500075541701549,0.50005035479448,0.49994964520552,0.500100719732402,0.5,0.164404053347758,0.500266844633184,0.499899280267598,2.51767627957774e-05,0.5,5.03636708224509e-05,1.09969554177368,0.0352728121983231,2.32820027164792,0.5,72.4274055105715
CBC_1042,CBC_1042_MSI_AV_v3_Vset5_Aset2_2024-07-26_17h06.06.006.csv,2,40,3,1,b,1,0,1,aud,D,27,1,3D,1D,1,0,b,2.61100180000176,1,0,1,1,3D,1D,D31,4.00733318523247,0.500075541701549,0.499974821969274,0.499949637597427,0.499974818164589,0.499899280267598,0.500125896495198,0.5,0.499974818164589,0.5,0.5,0.500176246216871,0.49999999873175,0.499974818164589,0.499974818164589,0.499874103504802,0.500075541701549,0.500050359232396,0.499949640767604,0.500075541701549,0.499974818164589,0.146512469241351,0.500374860649916,0.499924458298451,2.51780308538353e-05,0.5,5.03636708224509e-05,1.09969554177368,0.0352728121983231,2.32820027164792,0.5,72.4274055105715
CBC_1042,CBC_1042_MSI_AV_v3_Vset5_Aset2_2024-07-26_17h06.06.006.csv,2,41,0,1,b,1,0,3,aud,A,63,1,0A,1A,1,0,z,2.57103780000034,0,1,0,0,1A,0A,A01,2.41591377830105,0.500075541701549,0.499974821969274,0.499949637597427,0.499974818164589,0.499899280267598,0.500125896495198,0.5,0.499974818164589,0.5,0.5,0.500176246216871,0.49999999873175,0.499974818164589,0.499974818164589,0.499874103504802,0.500100719732402,0.499949642670043,0.500050357329957,0.499974821969274,0.500075541701549,0.15166702113429,0.499480386403664,-0.499974821969274,-2.5180567353174e-05,0.5,5.03636708224509e-05,1.09969554177368,0.0352728121983231,2.32820027164792,0.5,72.4274055105715
CBC_1042,CBC_1042_MSI_AV_v3_Vset5_Aset2_2024-07-26_17h06.06.006.csv,2,42,1,0,z,0,1,3,aud,A,63,1,1A,0A,0,1,z,2.42350499999884,0,1,1,1,0A,1A,A10,3.3499040872746,0.500075541701549,0.499949641401921,0.499949637597427,0.499974818164589,0.499899280267598,0.500125896495198,0.5,0.499974818164589,0.5,0.5,0.500176246216871,0.49999999873175,0.499974818164589,0.499974818164589,0.499874103504802,0.500100719732402,0.500062948564574,0.499937051435426,0.500075541701549,0.499949641401921,0.173916141505188,0.50083140359879,0.499924458298451,2.51780308538353e-05,0.5,5.03636708224509e-05,1.09969554177368,0.0352728121983231,2.32820027164792,0.5,72.4274055105715
CBC_1042,CBC_1042_MSI_AV_v3_Vset5_Aset2_2024-07-26_17h06.06.006.csv,2,43,0,2,z,0,1,2,aud,C,27,1,0C,2C,0,1,b,1.54678319999948,1,0,0,0,0C,2C,C02,2.96183072187831,0.500100719732402,0.499949641401921,0.499949637597427,0.499974818164589,0.499899280267598,0.500125896495198,0.5,0.499974818164589,0.5,0.5,0.500176246216871,0.49999999873175,0.499974818164589,0.499974818164589,0.499874103504802,0.500100719732402,0.499911892420192,0.500088107579808,0.5,0.500176246216871,0.341368479395315,0.500109972709832,-0.5,-2.51818354112254e-05,0.5,5.03636708224509e-05,1.09969554177368,0.0352728121983231,2.32820027164792,0.5,72.4274055105715
CBC_1042,CBC_1042_MSI_AV_v3_Vset5_Aset2_2024-07-26_17h06.06.006.csv,2,44,1,0,b,1,0,0,aud,B,63,1,1B,0B,1,0,b,2.58461119999993,1,0,1,1,1B,0B,B10,2.46809953147162,0.500100719732402,0.499949641401921,0.499949637597427,0.499974818164589,0.499899280267598,0.500125896495198,0.5,0.499974818164589,0.499974818164589,0.5,0.500176246216871,0.49999999873175,0.499974818164589,0.499974818164589,0.499874103504802,0.500100719732402,0.500113305261141,0.499886694738859,0.500125896495198,0.499899280267598,0.149832078779046,0.499569592300922,0.499874103504802,2.51754948015836e-05,0.5,5.03636708224509e-05,1.09969554177368,0.0352728121983231,2.32820027164792,0.5,72.4274055105715
