ID,filename,session,trial,visStimLeft,visStimRight,correctKey,leftCorrect,rightCorrect,secondStim,mod2Type,mod2Stim,frequency,rewardAccurate,stimPairLeft,stimPairRight,pCorrectLeft,pCorrectRight,key,reactionTime,choiceLeft,choiceRight,choiceAccurate,reward,chosenPair,otherPair,triplet,surprise,0A belief,1A belief,2A belief,3A belief,0B belief,1B belief,2B belief,3B belief,0C belief,1C belief,2C belief,3C belief,0D belief,1D belief,2D belief,3D belief,beliefPairNorm,beliefOtherPairNorm,beliefPair,beliefOtherPair,lik,corrLik,rewardPE,update2,fitCBCsimpleRW_CBCdriftDiffusionLR_pwBelief_startBelief,fitCBCsimpleRW_CBCdriftDiffusionLR_pwBelief_alpha1,fitCBCsimpleRW_CBCdriftDiffusionLR_pwBelief_nonDecisionTime,fitCBCsimpleRW_CBCdriftDiffusionLR_pwBelief_weight,fitCBCsimpleRW_CBCdriftDiffusionLR_pwBelief_startingBoundary,fitCBCsimpleRW_CBCdriftDiffusionLR_pwBelief_startingPoint,fit_CBCsimpleRW_CBCdriftDiffusionLR_pwBelief_NLL
CBC_1033,CBC_1033_MSI_AV_v3_Vset1_Aset1_2023-12-13_14h51.00.395.csv,1,1,0,1,b,1,0,1,aud,A,63,1,0A,1A,1,0,b,2.08949329999996,1,0,1,1,0A,1A,A01,2.77258872223978,0.5,0.5,0.5,0.5,0.5,0.5,0.5,0.5,0.5,0.5,0.5,0.5,0.5,0.5,0.5,0.5,0.5,0.5,0.5,0.5,0.155427078340141,0.500124598109704,0.5,0.185545682660337,0.5,0.371091365320675,0.584973340592235,2.26908426956022,2.66264815861375,0.5,24.6035529235786
CBC_1033,CBC_1033_MSI_AV_v3_Vset1_Aset1_2023-12-13_14h51.00.395.csv,1,2,3,2,z,0,1,0,aud,C,63,1,3C,2C,0,1,z,2.01392130000022,0,1,1,1,2C,3C,C32,2.83321334405622,0.685545682660337,0.5,0.5,0.5,0.5,0.5,0.5,0.5,0.5,0.5,0.5,0.5,0.5,0.5,0.5,0.5,0.5,0.5,0.5,0.5,0.163718921865666,0.499991326943277,0.5,0.185545682660337,0.5,0.371091365320675,0.584973340592235,2.26908426956022,2.66264815861375,0.5,24.6035529235786
CBC_1033,CBC_1033_MSI_AV_v3_Vset1_Aset1_2023-12-13_14h51.00.395.csv,1,3,0,2,b,1,0,1,aud,A,27,1,0A,2A,1,0,b,1.20797300000049,1,0,1,1,0A,2A,A02,2.89037175789616,0.685545682660337,0.5,0.5,0.5,0.5,0.5,0.5,0.5,0.5,0.5,0.685545682660337,0.5,0.5,0.5,0.5,0.5,0.685545682660337,0.314454317339663,0.685545682660337,0.5,0.640516790304425,0.903914891954522,0.314454317339663,0.116691281952556,0.5,0.371091365320675,0.584973340592235,2.26908426956022,2.66264815861375,0.5,24.6035529235786
CBC_1033,CBC_1033_MSI_AV_v3_Vset1_Aset1_2023-12-13_14h51.00.395.csv,1,4,1,0,b,1,0,3,aud,B,63,1,1B,0B,1,0,b,1.20005380000021,1,0,1,1,1B,0B,B10,2.94443897916644,0.802236964612894,0.5,0.5,0.5,0.5,0.5,0.5,0.5,0.5,0.5,0.685545682660337,0.5,0.5,0.5,0.5,0.5,0.5,0.5,0.5,0.5,0.26069828322995,0.500102888293899,0.5,0.185545682660337,0.5,0.371091365320675,0.584973340592235,2.26908426956022,2.66264815861375,0.5,24.6035529235786
CBC_1033,CBC_1033_MSI_AV_v3_Vset1_Aset1_2023-12-13_14h51.00.395.csv,1,5,0,1,z,0,1,3,aud,B,63,1,0B,1B,0,1,z,1.27970930000083,0,1,1,1,1B,0B,B01,2.99573227355399,0.802236964612894,0.5,0.5,0.5,0.5,0.685545682660337,0.5,0.5,0.5,0.5,0.685545682660337,0.5,0.5,0.5,0.5,0.5,0.685545682660337,0.314454317339663,0.685545682660337,0.5,0.614060410882481,0.903887140597701,0.314454317339663,0.116691281952556,0.5,0.371091365320675,0.584973340592235,2.26908426956022,2.66264815861375,0.5,24.6035529235786
CBC_1033,CBC_1033_MSI_AV_v3_Vset1_Aset1_2023-12-13_14h51.00.395.csv,1,6,3,2,z,0,1,0,aud,C,63,1,3C,2C,0,1,z,1.44666870000037,0,1,1,1,2C,3C,C32,2.35137525716348,0.802236964612894,0.5,0.5,0.5,0.5,0.802236964612894,0.5,0.5,0.5,0.5,0.685545682660337,0.5,0.5,0.5,0.5,0.5,0.685545682660337,0.314454317339663,0.685545682660337,0.5,0.536157579552679,0.903912320779659,0.314454317339663,0.116691281952556,0.5,0.371091365320675,0.584973340592235,2.26908426956022,2.66264815861375,0.5,24.6035529235786
CBC_1033,CBC_1033_MSI_AV_v3_Vset1_Aset1_2023-12-13_14h51.00.395.csv,1,7,3,1,b,1,0,2,aud,D,27,1,3D,1D,1,0,b,1.31131449999975,1,0,1,1,3D,1D,D31,3.09104245335832,0.802236964612894,0.5,0.5,0.5,0.5,0.802236964612894,0.5,0.5,0.5,0.5,0.802236964612894,0.5,0.5,0.5,0.5,0.5,0.5,0.5,0.5,0.5,0.253522696779013,0.500568453685708,0.5,0.185545682660337,0.5,0.371091365320675,0.584973340592235,2.26908426956022,2.66264815861375,0.5,24.6035529235786
CBC_1033,CBC_1033_MSI_AV_v3_Vset1_Aset1_2023-12-13_14h51.00.395.csv,1,8,1,2,z,0,1,0,aud,C,9,1,1C,2C,0,1,z,1.67217550000078,0,1,1,1,2C,1C,C12,3.13549421592915,0.802236964612894,0.5,0.5,0.5,0.5,0.802236964612894,0.5,0.5,0.5,0.5,0.802236964612894,0.5,0.5,0.5,0.5,0.685545682660337,0.802236964612894,0.197763035387106,0.802236964612894,0.5,0.460961979794847,0.974752225752815,0.197763035387106,0.0733881548117623,0.5,0.371091365320675,0.584973340592235,2.26908426956022,2.66264815861375,0.5,24.6035529235786
CBC_1033,CBC_1033_MSI_AV_v3_Vset1_Aset1_2023-12-13_14h51.00.395.csv,1,9,3,1,z,0,1,3,aud,B,27,1,3B,1B,0,1,z,1.68694720000076,0,1,1,1,1B,3B,B31,3.17805383034795,0.802236964612894,0.5,0.5,0.5,0.5,0.802236964612894,0.5,0.5,0.5,0.5,0.875625119424656,0.5,0.5,0.5,0.5,0.685545682660337,0.802236964612894,0.197763035387106,0.802236964612894,0.5,0.450350502053917,0.974628796423578,0.197763035387106,0.0733881548117623,0.5,0.371091365320675,0.584973340592235,2.26908426956022,2.66264815861375,0.5,24.6035529235786
CBC_1033,CBC_1033_MSI_AV_v3_Vset1_Aset1_2023-12-13_14h51.00.395.csv,1,10,3,2,b,1,0,2,aud,D,63,1,3D,2D,1,0,b,1.58024110000042,1,0,1,1,3D,2D,D32,3.2188758248682,0.802236964612894,0.5,0.5,0.5,0.5,0.875625119424656,0.5,0.5,0.5,0.5,0.875625119424656,0.5,0.5,0.5,0.5,0.685545682660337,0.685545682660337,0.314454317339663,0.685545682660337,0.5,0.471985850723288,0.903728580075562,0.314454317339663,0.116691281952556,0.5,0.371091365320675,0.584973340592235,2.26908426956022,2.66264815861375,0.5,24.6035529235786
CBC_1033,CBC_1033_MSI_AV_v3_Vset1_Aset1_2023-12-13_14h51.00.395.csv,1,11,1,0,b,1,0,3,aud,B,63,1,1B,0B,1,0,b,1.50970469999993,1,0,1,1,1B,0B,B10,2.56494935746154,0.802236964612894,0.5,0.5,0.5,0.5,0.875625119424656,0.5,0.5,0.5,0.5,0.875625119424656,0.5,0.5,0.5,0.5,0.802236964612894,0.875625119424656,0.124374880575344,0.875625119424656,0.5,0.577498845320554,0.989404436536099,0.124374880575344,0.0461544442443003,0.5,0.371091365320675,0.584973340592235,2.26908426956022,2.66264815861375,0.5,24.6035529235786
CBC_1033,CBC_1033_MSI_AV_v3_Vset1_Aset1_2023-12-13_14h51.00.395.csv,1,12,0,2,z,0,1,0,aud,C,27,1,0C,2C,0,1,z,1.45184109999991,0,1,1,1,2C,0C,C02,3.29583686600433,0.802236964612894,0.5,0.5,0.5,0.5,0.921779563668956,0.5,0.5,0.5,0.5,0.875625119424656,0.5,0.5,0.5,0.5,0.802236964612894,0.875625119424656,0.124374880575344,0.875625119424656,0.5,0.649541938703634,0.989394190209846,0.124374880575344,0.0461544442443003,0.5,0.371091365320675,0.584973340592235,2.26908426956022,2.66264815861375,0.5,24.6035529235786
CBC_1033,CBC_1033_MSI_AV_v3_Vset1_Aset1_2023-12-13_14h51.00.395.csv,1,13,3,2,b,1,0,2,aud,D,63,0,3D,2D,0,1,b,1.46097090000058,1,0,1,0,3D,2D,D32,2.63905732961526,0.802236964612894,0.5,0.5,0.5,0.5,0.921779563668956,0.5,0.5,0.5,0.5,0.921779563668956,0.5,0.5,0.5,0.5,0.802236964612894,0.802236964612894,0.197763035387106,0.802236964612894,0.5,0.641082080997847,0.974776194562863,-0.802236964612894,-0.297703210508913,0.5,0.371091365320675,0.584973340592235,2.26908426956022,2.66264815861375,0.5,24.6035529235786
CBC_1033,CBC_1033_MSI_AV_v3_Vset1_Aset1_2023-12-13_14h51.00.395.csv,1,14,1,0,z,0,1,1,aud,A,63,1,1A,0A,0,1,z,1.07982549999997,0,1,1,1,0A,1A,A10,3.36729582998647,0.802236964612894,0.5,0.5,0.5,0.5,0.921779563668956,0.5,0.5,0.5,0.5,0.921779563668956,0.5,0.5,0.5,0.5,0.504533754103981,0.802236964612894,0.197763035387106,0.802236964612894,0.5,0.99150072615048,0.974646705773595,0.197763035387106,0.0733881548117623,0.5,0.371091365320675,0.584973340592235,2.26908426956022,2.66264815861375,0.5,24.6035529235786
CBC_1033,CBC_1033_MSI_AV_v3_Vset1_Aset1_2023-12-13_14h51.00.395.csv,1,15,2,3,b,1,0,0,aud,C,63,1,2C,3C,1,0,b,1.54134770000019,1,0,1,1,2C,3C,C23,3.40119738166216,0.875625119424656,0.5,0.5,0.5,0.5,0.921779563668956,0.5,0.5,0.5,0.5,0.921779563668956,0.5,0.5,0.5,0.5,0.504533754103981,0.921779563668956,0.0782204363310438,0.921779563668956,0.5,0.4977023087509,0.993911925018212,0.0782204363310438,0.029026928514066,0.5,0.371091365320675,0.584973340592235,2.26908426956022,2.66264815861375,0.5,24.6035529235786
CBC_1033,CBC_1033_MSI_AV_v3_Vset1_Aset1_2023-12-13_14h51.00.395.csv,1,16,0,2,b,1,0,1,aud,A,27,1,0A,2A,1,0,b,0.998756900000444,1,0,1,1,0A,2A,A02,2.7408400239252,0.875625119424656,0.5,0.5,0.5,0.5,0.921779563668956,0.5,0.5,0.5,0.5,0.950806492183022,0.5,0.5,0.5,0.5,0.504533754103981,0.875625119424656,0.124374880575344,0.875625119424656,0.5,1.24342873298891,0.989449786184378,0.124374880575344,0.0461544442443003,0.5,0.371091365320675,0.584973340592235,2.26908426956022,2.66264815861375,0.5,24.6035529235786
CBC_1033,CBC_1033_MSI_AV_v3_Vset1_Aset1_2023-12-13_14h51.00.395.csv,1,17,2,3,z,0,1,2,aud,D,63,1,2D,3D,0,1,z,1.88948849999997,0,1,1,1,3D,2D,D23,3.46573590279973,0.921779563668956,0.5,0.5,0.5,0.5,0.921779563668956,0.5,0.5,0.5,0.5,0.950806492183022,0.5,0.5,0.5,0.5,0.504533754103981,0.504533754103981,0.495466245896019,0.504533754103981,0.5,0.183324524912923,0.513903502223397,0.495466245896019,0.183863245659863,0.5,0.371091365320675,0.584973340592235,2.26908426956022,2.66264815861375,0.5,24.6035529235786
CBC_1033,CBC_1033_MSI_AV_v3_Vset1_Aset1_2023-12-13_14h51.00.395.csv,1,18,3,2,b,1,0,2,aud,D,63,1,3D,2D,1,0,b,1.36069330000009,1,0,1,1,3D,2D,D32,2.39789527279837,0.921779563668956,0.5,0.5,0.5,0.5,0.921779563668956,0.5,0.5,0.5,0.5,0.950806492183022,0.5,0.5,0.5,0.5,0.688396999763844,0.688396999763844,0.311603000236156,0.688396999763844,0.5,0.582446044475197,0.906686319447277,0.311603000236156,0.115633182795654,0.5,0.371091365320675,0.584973340592235,2.26908426956022,2.66264815861375,0.5,24.6035529235786
CBC_1033,CBC_1033_MSI_AV_v3_Vset1_Aset1_2023-12-13_14h51.00.395.csv,1,19,3,1,z,0,1,3,aud,B,27,1,3B,1B,0,1,z,1.31639020000057,0,1,1,1,1B,3B,B31,2.83321334405622,0.921779563668956,0.5,0.5,0.5,0.5,0.921779563668956,0.5,0.5,0.5,0.5,0.950806492183022,0.5,0.5,0.5,0.5,0.804030182559498,0.921779563668956,0.0782204363310438,0.921779563668956,0.5,0.846237598304302,0.993905014927309,0.0782204363310438,0.029026928514066,0.5,0.371091365320675,0.584973340592235,2.26908426956022,2.66264815861375,0.5,24.6035529235786
CBC_1033,CBC_1033_MSI_AV_v3_Vset1_Aset1_2023-12-13_14h51.00.395.csv,1,20,0,3,z,0,1,2,aud,D,9,1,0D,3D,0,1,z,1.45568999999978,0,1,1,1,3D,0D,D03,3.55534806148941,0.921779563668956,0.5,0.5,0.5,0.5,0.950806492183022,0.5,0.5,0.5,0.5,0.950806492183022,0.5,0.5,0.5,0.5,0.804030182559498,0.804030182559498,0.195969817440502,0.804030182559498,0.5,0.646830832103662,0.975251486010585,0.195969817440502,0.0727227071156394,0.5,0.371091365320675,0.584973340592235,2.26908426956022,2.66264815861375,0.5,24.6035529235786
CBC_1033,CBC_1033_MSI_AV_v3_Vset1_Aset1_2023-12-13_14h51.00.395.csv,1,21,1,0,b,1,0,3,aud,B,63,1,1B,0B,1,0,b,1.20577370000046,1,0,1,1,1B,0B,B10,2.484906649788,0.921779563668956,0.5,0.5,0.5,0.5,0.950806492183022,0.5,0.5,0.5,0.5,0.950806492183022,0.5,0.5,0.5,0.5,0.876752889675137,0.950806492183022,0.0491935078169778,0.950806492183022,0.5,1.08240256982409,0.995689609327478,0.0491935078169778,0.0182552859807156,0.5,0.371091365320675,0.584973340592235,2.26908426956022,2.66264815861375,0.5,24.6035529235786
CBC_1033,CBC_1033_MSI_AV_v3_Vset1_Aset1_2023-12-13_14h51.00.395.csv,1,22,1,0,z,0,1,1,aud,A,63,1,1A,0A,0,1,z,0.820714999999836,0,1,1,1,0A,1A,A10,2.91777073208428,0.921779563668956,0.5,0.5,0.5,0.5,0.969061778163738,0.5,0.5,0.5,0.5,0.950806492183022,0.5,0.5,0.5,0.5,0.876752889675137,0.921779563668956,0.0782204363310438,0.921779563668956,0.5,0.898439565413601,0.993936992890836,0.0782204363310438,0.029026928514066,0.5,0.371091365320675,0.584973340592235,2.26908426956022,2.66264815861375,0.5,24.6035529235786
CBC_1033,CBC_1033_MSI_AV_v3_Vset1_Aset1_2023-12-13_14h51.00.395.csv,1,23,2,3,b,1,0,0,aud,C,63,1,2C,3C,1,0,b,1.32429730000058,1,0,1,1,2C,3C,C23,2.94443897916644,0.950806492183022,0.5,0.5,0.5,0.5,0.969061778163738,0.5,0.5,0.5,0.5,0.950806492183022,0.5,0.5,0.5,0.5,0.876752889675137,0.950806492183022,0.0491935078169778,0.950806492183022,0.5,0.81671936715544,0.995730114704342,0.0491935078169778,0.0182552859807156,0.5,0.371091365320675,0.584973340592235,2.26908426956022,2.66264815861375,0.5,24.6035529235786
CBC_1033,CBC_1033_MSI_AV_v3_Vset1_Aset1_2023-12-13_14h51.00.395.csv,1,24,0,2,b,1,0,1,aud,A,27,1,0A,2A,1,0,b,0.713290200000301,1,0,1,1,0A,2A,A02,2.56494935746154,0.950806492183022,0.5,0.5,0.5,0.5,0.969061778163738,0.5,0.5,0.5,0.5,0.969061778163738,0.5,0.5,0.5,0.5,0.876752889675137,0.950806492183022,0.0491935078169778,0.950806492183022,0.5,0.134696112019982,0.995704839820823,0.0491935078169778,0.0182552859807156,0.5,0.371091365320675,0.584973340592235,2.26908426956022,2.66264815861375,0.5,24.6035529235786
CBC_1033,CBC_1033_MSI_AV_v3_Vset1_Aset1_2023-12-13_14h51.00.395.csv,1,25,1,0,b,1,0,3,aud,B,63,1,1B,0B,1,0,b,1.02836300000035,1,0,1,1,1B,0B,B10,2.30258509299405,0.969061778163738,0.5,0.5,0.5,0.5,0.969061778163738,0.5,0.5,0.5,0.5,0.969061778163738,0.5,0.5,0.5,0.5,0.876752889675137,0.969061778163738,0.0309382218362623,0.969061778163738,0.5,1.51942205270253,0.996567562872499,0.0309382218362623,0.0114809069818125,0.5,0.371091365320675,0.584973340592235,2.26908426956022,2.66264815861375,0.5,24.6035529235786
CBC_1033,CBC_1033_MSI_AV_v3_Vset1_Aset1_2023-12-13_14h51.00.395.csv,1,26,2,3,z,0,1,2,aud,D,63,1,2D,3D,0,1,z,1.46188260000054,0,1,1,1,3D,2D,D23,3.02042488614436,0.969061778163738,0.5,0.5,0.5,0.5,0.98054268514555,0.5,0.5,0.5,0.5,0.969061778163738,0.5,0.5,0.5,0.5,0.876752889675137,0.876752889675137,0.123247110324863,0.876752889675137,0.5,0.636038398272622,0.989527114934772,0.123247110324863,0.0457359384422813,0.5,0.371091365320675,0.584973340592235,2.26908426956022,2.66264815861375,0.5,24.6035529235786
CBC_1033,CBC_1033_MSI_AV_v3_Vset1_Aset1_2023-12-13_14h51.00.395.csv,1,27,1,2,b,1,0,3,aud,B,9,1,1B,2B,1,0,b,2.26401040000019,1,0,1,1,1B,2B,B12,3.73766961828337,0.969061778163738,0.5,0.5,0.5,0.5,0.98054268514555,0.5,0.5,0.5,0.5,0.969061778163738,0.5,0.5,0.5,0.5,0.922488828117418,0.98054268514555,0.0194573148544498,0.98054268514555,0.5,0.0462401782576551,0.997007587129254,0.0194573148544498,0.00722044153481202,0.5,0.371091365320675,0.584973340592235,2.26908426956022,2.66264815861375,0.5,24.6035529235786
CBC_1033,CBC_1033_MSI_AV_v3_Vset1_Aset1_2023-12-13_14h51.00.395.csv,1,28,1,3,z,0,1,2,aud,D,27,1,1D,3D,0,1,z,2.51908509999976,0,1,1,1,3D,1D,D13,3.76120011569356,0.969061778163738,0.5,0.5,0.5,0.5,0.987763126680362,0.5,0.5,0.5,0.5,0.969061778163738,0.5,0.5,0.5,0.5,0.922488828117418,0.922488828117418,0.0775111718825817,0.922488828117418,0.5,0.0423597646835705,0.99396375081918,0.0775111718825817,0.0287637266015127,0.5,0.371091365320675,0.584973340592235,2.26908426956022,2.66264815861375,0.5,24.6035529235786
CBC_1033,CBC_1033_MSI_AV_v3_Vset1_Aset1_2023-12-13_14h51.00.395.csv,1,29,1,0,z,0,1,1,aud,A,63,1,1A,0A,0,1,z,0.916380400000889,0,1,1,1,0A,1A,A10,2.68557734525015,0.969061778163738,0.5,0.5,0.5,0.5,0.987763126680362,0.5,0.5,0.5,0.5,0.969061778163738,0.5,0.5,0.5,0.5,0.951252554718931,0.969061778163738,0.0309382218362623,0.969061778163738,0.5,1.54111606114634,0.996551530321804,0.0309382218362623,0.0114809069818125,0.5,0.371091365320675,0.584973340592235,2.26908426956022,2.66264815861375,0.5,24.6035529235786
CBC_1033,CBC_1033_MSI_AV_v3_Vset1_Aset1_2023-12-13_14h51.00.395.csv,1,30,0,1,b,1,0,1,aud,A,63,1,0A,1A,1,0,b,0.985610500000803,1,0,1,1,0A,1A,A01,3.11351530921037,0.98054268514555,0.5,0.5,0.5,0.5,0.987763126680362,0.5,0.5,0.5,0.5,0.969061778163738,0.5,0.5,0.5,0.5,0.951252554718931,0.98054268514555,0.0194573148544498,0.98054268514555,0.5,1.61215136613216,0.996995301190542,0.0194573148544498,0.00722044153481202,0.5,0.371091365320675,0.584973340592235,2.26908426956022,2.66264815861375,0.5,24.6035529235786
CBC_1033,CBC_1033_MSI_AV_v3_Vset1_Aset1_2023-12-13_14h51.00.395.csv,1,31,0,2,z,0,1,0,aud,C,27,1,0C,2C,0,1,z,0.972706300000027,0,1,1,1,2C,0C,C02,3.13549421592915,0.987763126680362,0.5,0.5,0.5,0.5,0.987763126680362,0.5,0.5,0.5,0.5,0.969061778163738,0.5,0.5,0.5,0.5,0.951252554718931,0.969061778163738,0.0309382218362623,0.969061778163738,0.5,1.58146594285043,0.996558381710884,0.0309382218362623,0.0114809069818125,0.5,0.371091365320675,0.584973340592235,2.26908426956022,2.66264815861375,0.5,24.6035529235786
CBC_1033,CBC_1033_MSI_AV_v3_Vset1_Aset1_2023-12-13_14h51.00.395.csv,1,32,1,0,z,0,1,1,aud,A,63,1,1A,0A,0,1,z,1.06937950000065,0,1,1,1,0A,1A,A10,2.46385324059017,0.987763126680362,0.5,0.5,0.5,0.5,0.987763126680362,0.5,0.5,0.5,0.5,0.98054268514555,0.5,0.5,0.5,0.5,0.951252554718931,0.987763126680362,0.0122368733196377,0.987763126680362,0.5,1.46938096992669,0.997241119909055,0.0122368733196377,0.00454099802744051,0.5,0.371091365320675,0.584973340592235,2.26908426956022,2.66264815861375,0.5,24.6035529235786
CBC_1033,CBC_1033_MSI_AV_v3_Vset1_Aset1_2023-12-13_14h51.00.395.csv,1,33,1,0,b,1,0,3,aud,B,63,1,1B,0B,1,0,b,1.08269990000008,1,0,1,1,1B,0B,B10,2.26176309847379,0.992304124707803,0.5,0.5,0.5,0.5,0.987763126680362,0.5,0.5,0.5,0.5,0.98054268514555,0.5,0.5,0.5,0.5,0.951252554718931,0.987763126680362,0.0122368733196377,0.987763126680362,0.5,1.43515797509995,0.997265147004523,0.0122368733196377,0.00454099802744051,0.5,0.371091365320675,0.584973340592235,2.26908426956022,2.66264815861375,0.5,24.6035529235786
CBC_1033,CBC_1033_MSI_AV_v3_Vset1_Aset1_2023-12-13_14h51.00.395.csv,1,34,3,2,b,1,0,2,aud,D,63,1,3D,2D,1,0,b,1.33382840000013,1,0,1,1,3D,2D,D32,2.50552593699074,0.992304124707803,0.5,0.5,0.5,0.5,0.992304124707803,0.5,0.5,0.5,0.5,0.98054268514555,0.5,0.5,0.5,0.5,0.951252554718931,0.951252554718931,0.048747445281069,0.951252554718931,0.5,0.797166444848828,0.99574509989043,0.048747445281069,0.0180897560252468,0.5,0.371091365320675,0.584973340592235,2.26908426956022,2.66264815861375,0.5,24.6035529235786
CBC_1033,CBC_1033_MSI_AV_v3_Vset1_Aset1_2023-12-13_14h51.00.395.csv,1,35,3,1,z,0,1,3,aud,B,27,1,3B,1B,0,1,z,1.87008340000102,0,1,1,1,1B,3B,B31,2.81341071676004,0.992304124707803,0.5,0.5,0.5,0.5,0.992304124707803,0.5,0.5,0.5,0.5,0.98054268514555,0.5,0.5,0.5,0.5,0.969342310744178,0.992304124707803,0.00769587529219729,0.992304124707803,0.5,0.143227196318104,0.997396243282965,0.00769587529219729,0.00285587286951914,0.5,0.371091365320675,0.584973340592235,2.26908426956022,2.66264815861375,0.5,24.6035529235786
CBC_1033,CBC_1033_MSI_AV_v3_Vset1_Aset1_2023-12-13_14h51.00.395.csv,1,36,3,2,z,0,1,0,aud,C,63,1,3C,2C,0,1,z,0.972023100000115,0,1,1,1,2C,3C,C32,2.83321334405622,0.992304124707803,0.5,0.5,0.5,0.5,0.995159997577322,0.5,0.5,0.5,0.5,0.98054268514555,0.5,0.5,0.5,0.5,0.969342310744178,0.98054268514555,0.0194573148544498,0.98054268514555,0.5,1.62316267038912,0.997002147640315,0.0194573148544498,0.00722044153481202,0.5,0.371091365320675,0.584973340592235,2.26908426956022,2.66264815861375,0.5,24.6035529235786
CBC_1033,CBC_1033_MSI_AV_v3_Vset1_Aset1_2023-12-13_14h51.00.395.csv,1,37,2,0,b,1,0,0,aud,C,27,1,2C,0C,1,0,b,1.02005970000027,1,0,1,1,2C,0C,C20,3.95124371858143,0.992304124707803,0.5,0.5,0.5,0.5,0.995159997577322,0.5,0.5,0.5,0.5,0.987763126680362,0.5,0.5,0.5,0.5,0.969342310744178,0.987763126680362,0.0122368733196377,0.987763126680362,0.5,1.583690214651,0.997252119555409,0.0122368733196377,0.00454099802744051,0.5,0.371091365320675,0.584973340592235,2.26908426956022,2.66264815861375,0.5,24.6035529235786
CBC_1033,CBC_1033_MSI_AV_v3_Vset1_Aset1_2023-12-13_14h51.00.395.csv,1,38,1,0,b,1,0,3,aud,B,63,1,1B,0B,1,0,b,0.94277349999993,1,0,1,1,1B,0B,B10,2.17853244432407,0.992304124707803,0.5,0.5,0.5,0.5,0.995159997577322,0.5,0.5,0.5,0.5,0.992304124707803,0.5,0.5,0.5,0.5,0.969342310744178,0.995159997577322,0.00484000242267812,0.995159997577322,0.5,1.68219243445872,0.997482598500526,0.00484000242267812,0.001796083107187,0.5,0.371091365320675,0.584973340592235,2.26908426956022,2.66264815861375,0.5,24.6035529235786
CBC_1033,CBC_1033_MSI_AV_v3_Vset1_Aset1_2023-12-13_14h51.00.395.csv,1,39,3,0,z,0,1,1,aud,A,9,1,3A,0A,0,1,z,0.921386099999836,0,1,1,1,0A,3A,A30,3.98898404656427,0.992304124707803,0.5,0.5,0.5,0.5,0.996956080684509,0.5,0.5,0.5,0.5,0.992304124707803,0.5,0.5,0.5,0.5,0.969342310744178,0.992304124707803,0.00769587529219729,0.992304124707803,0.5,1.65379002084113,0.997412226583158,0.00769587529219729,0.00285587286951914,0.5,0.371091365320675,0.584973340592235,2.26908426956022,2.66264815861375,0.5,24.6035529235786
CBC_1033,CBC_1033_MSI_AV_v3_Vset1_Aset1_2023-12-13_14h51.00.395.csv,1,40,3,2,z,0,1,0,aud,C,63,0,3C,2C,1,0,z,0.899935000000369,0,1,1,0,2C,3C,C32,2.62103882411258,0.995159997577322,0.5,0.5,0.5,0.5,0.996956080684509,0.5,0.5,0.5,0.5,0.992304124707803,0.5,0.5,0.5,0.5,0.969342310744178,0.992304124707803,0.00769587529219729,0.992304124707803,0.5,1.60777291809613,0.997398229822287,-0.992304124707803,-0.368235492451156,0.5,0.371091365320675,0.584973340592235,2.26908426956022,2.66264815861375,0.5,24.6035529235786
CBC_1033,CBC_1033_MSI_AV_v3_Vset1_Aset1_2023-12-13_14h51.00.395.csv,1,41,1,0,z,0,1,1,aud,A,63,1,1A,0A,0,1,z,0.906697499999609,0,1,1,1,0A,1A,A10,2.41591377830105,0.995159997577322,0.5,0.5,0.5,0.5,0.996956080684509,0.5,0.5,0.5,0.5,0.624068632256647,0.5,0.5,0.5,0.5,0.969342310744178,0.995159997577322,0.00484000242267812,0.995159997577322,0.5,1.63824782302921,0.997491378195544,0.00484000242267812,0.001796083107187,0.5,0.371091365320675,0.584973340592235,2.26908426956022,2.66264815861375,0.5,24.6035529235786
CBC_1033,CBC_1033_MSI_AV_v3_Vset1_Aset1_2023-12-13_14h51.00.395.csv,1,42,3,2,b,1,0,2,aud,D,63,1,3D,2D,1,0,b,1.47624590000032,1,0,1,1,3D,2D,D32,2.43361335540045,0.996956080684509,0.5,0.5,0.5,0.5,0.996956080684509,0.5,0.5,0.5,0.5,0.624068632256647,0.5,0.5,0.5,0.5,0.969342310744178,0.969342310744178,0.0306576892558222,0.969342310744178,0.5,0.526178487108375,0.996577644781518,0.0306576892558222,0.0113768037635201,0.5,0.371091365320675,0.584973340592235,2.26908426956022,2.66264815861375,0.5,24.6035529235786
CBC_1033,CBC_1033_MSI_AV_v3_Vset1_Aset1_2023-12-13_14h51.00.395.csv,1,43,2,3,b,1,0,0,aud,C,63,1,2C,3C,1,0,b,1.55395700000099,1,0,1,1,2C,3C,C23,2.96183072187831,0.996956080684509,0.5,0.5,0.5,0.5,0.996956080684509,0.5,0.5,0.5,0.5,0.624068632256647,0.5,0.5,0.5,0.5,0.980719114507698,0.624068632256647,0.375931367743353,0.624068632256647,0.5,0.404103135102534,0.817448758138767,0.375931367743353,0.13950488452275,0.5,0.371091365320675,0.584973340592235,2.26908426956022,2.66264815861375,0.5,24.6035529235786
CBC_1033,CBC_1033_MSI_AV_v3_Vset1_Aset1_2023-12-13_14h51.00.395.csv,1,44,1,3,z,0,1,2,aud,D,27,1,1D,3D,0,1,z,2.05274770000051,0,1,1,1,3D,1D,D13,3.38439026334577,0.996956080684509,0.5,0.5,0.5,0.5,0.996956080684509,0.5,0.5,0.5,0.5,0.763573516779397,0.5,0.5,0.5,0.5,0.980719114507698,0.980719114507698,0.0192808854923022,0.980719114507698,0.5,0.0884774188884017,0.997008770789815,0.0192808854923022,0.00715497012193002,0.5,0.371091365320675,0.584973340592235,2.26908426956022,2.66264815861375,0.5,24.6035529235786
CBC_1033,CBC_1033_MSI_TV_v3_Vset2_Tset3_2023-12-13_15h01.20.123.csv,2,1,0,1,z,0,1,3,tac,B,63,1,0B,1B,0,1,z,1.43948470000032,0,1,1,1,1B,0B,B01,2.77258872223978,0.5,0.5,0.5,0.5,0.5,0.5,0.5,0.5,0.5,0.5,0.5,0.5,0.5,0.5,0.5,0.5,0.5,0.5,0.5,0.5,0.354931515952412,0.500469114072953,0.5,0.00484471989420032,0.5,0.00968943978840064,1.03052644067112,14.0192607989,2.28120059276238,0.5,63.0923059163121
CBC_1033,CBC_1033_MSI_TV_v3_Vset2_Tset3_2023-12-13_15h01.20.123.csv,2,2,2,3,z,0,1,2,tac,D,63,1,2D,3D,0,1,b,1.66595120000056,1,0,0,0,2D,3D,D23,2.83321334405622,0.5,0.5,0.5,0.5,0.5,0.5048447198942,0.5,0.5,0.5,0.5,0.5,0.5,0.5,0.5,0.5,0.5,0.5,0.5,0.5,0.5,0.322249562050872,0.499647896446177,-0.5,-0.00484471989420032,0.5,0.00968943978840064,1.03052644067112,14.0192607989,2.28120059276238,0.5,63.0923059163121
CBC_1033,CBC_1033_MSI_TV_v3_Vset2_Tset3_2023-12-13_15h01.20.123.csv,2,3,1,3,b,1,0,3,tac,B,27,1,1B,3B,1,0,b,1.46718910000072,1,0,1,1,1B,3B,B13,2.89037175789616,0.5,0.5,0.5,0.5,0.5,0.5048447198942,0.5,0.5,0.5,0.5,0.5,0.5,0.5,0.5,0.4951552801058,0.5,0.5048447198942,0.4951552801058,0.5048447198942,0.5,0.413314000934077,0.576715053596605,0.4951552801058,0.0047977772724938,0.5,0.00968943978840064,1.03052644067112,14.0192607989,2.28120059276238,0.5,63.0923059163121
CBC_1033,CBC_1033_MSI_TV_v3_Vset2_Tset3_2023-12-13_15h01.20.123.csv,2,4,3,2,z,0,1,0,tac,C,63,1,3C,2C,0,1,b,1.38276060000044,1,0,0,0,3C,2C,C32,2.94443897916644,0.5,0.5,0.5,0.5,0.5,0.509642497166694,0.5,0.5,0.5,0.5,0.5,0.5,0.5,0.5,0.4951552801058,0.5,0.5,0.5,0.5,0.5,0.343777039019646,0.500586715188697,-0.5,-0.00484471989420032,0.5,0.00968943978840064,1.03052644067112,14.0192607989,2.28120059276238,0.5,63.0923059163121
CBC_1033,CBC_1033_MSI_TV_v3_Vset2_Tset3_2023-12-13_15h01.20.123.csv,2,5,2,0,b,1,0,0,tac,C,27,1,2C,0C,1,0,z,1.7581097000002,0,1,0,0,0C,2C,C20,2.99573227355399,0.5,0.5,0.5,0.5,0.5,0.509642497166694,0.5,0.5,0.5,0.5,0.5,0.4951552801058,0.5,0.5,0.4951552801058,0.5,0.5,0.5,0.5,0.5,0.299310089414953,0.500227476499469,-0.5,-0.00484471989420032,0.5,0.00968943978840064,1.03052644067112,14.0192607989,2.28120059276238,0.5,63.0923059163121
CBC_1033,CBC_1033_MSI_TV_v3_Vset2_Tset3_2023-12-13_15h01.20.123.csv,2,6,3,0,z,0,1,1,tac,A,9,1,3A,0A,0,1,b,1.75543469999957,1,0,0,0,3A,0A,A30,3.04452243772342,0.5,0.5,0.5,0.5,0.5,0.509642497166694,0.5,0.5,0.4951552801058,0.5,0.5,0.4951552801058,0.5,0.5,0.4951552801058,0.5,0.5,0.5,0.5,0.5,0.2995057322268,0.499410741008362,-0.5,-0.00484471989420032,0.5,0.00968943978840064,1.03052644067112,14.0192607989,2.28120059276238,0.5,63.0923059163121
CBC_1033,CBC_1033_MSI_TV_v3_Vset2_Tset3_2023-12-13_15h01.20.123.csv,2,7,3,2,z,0,1,0,tac,C,63,1,3C,2C,0,1,b,2.71397639999941,1,0,0,0,3C,2C,C32,2.39789527279837,0.5,0.5,0.5,0.4951552801058,0.5,0.509642497166694,0.5,0.5,0.4951552801058,0.5,0.5,0.4951552801058,0.5,0.5,0.4951552801058,0.5,0.4951552801058,0.5048447198942,0.4951552801058,0.5,0.103166888435741,0.423205815464832,-0.4951552801058,-0.0047977772724938,0.5,0.00968943978840064,1.03052644067112,14.0192607989,2.28120059276238,0.5,63.0923059163121
CBC_1033,CBC_1033_MSI_TV_v3_Vset2_Tset3_2023-12-13_15h01.20.123.csv,2,8,0,1,b,1,0,1,tac,A,63,1,0A,1A,1,0,b,2.15332579999995,1,0,1,1,0A,1A,A01,3.13549421592915,0.5,0.5,0.5,0.4951552801058,0.5,0.509642497166694,0.5,0.5,0.4951552801058,0.5,0.5,0.490357502833306,0.5,0.5,0.4951552801058,0.5,0.5,0.5,0.5,0.5,0.208669179017818,0.501507877565311,0.5,0.00484471989420032,0.5,0.00968943978840064,1.03052644067112,14.0192607989,2.28120059276238,0.5,63.0923059163121
CBC_1033,CBC_1033_MSI_TV_v3_Vset2_Tset3_2023-12-13_15h01.20.123.csv,2,9,3,2,b,1,0,2,tac,D,63,1,3D,2D,1,0,z,2.75796530000025,0,1,0,0,2D,3D,D32,3.17805383034795,0.5048447198942,0.5,0.5,0.4951552801058,0.5,0.509642497166694,0.5,0.5,0.4951552801058,0.5,0.5,0.490357502833306,0.5,0.5,0.4951552801058,0.5,0.4951552801058,0.5048447198942,0.4951552801058,0.5,0.0989673438568795,0.423432322601581,-0.4951552801058,-0.0047977772724938,0.5,0.00968943978840064,1.03052644067112,14.0192607989,2.28120059276238,0.5,63.0923059163121
CBC_1033,CBC_1033_MSI_TV_v3_Vset2_Tset3_2023-12-13_15h01.20.123.csv,2,10,2,3,b,1,0,0,tac,C,63,1,2C,3C,1,0,z,2.91653880000013,0,1,0,0,3C,2C,C23,3.2188758248682,0.5048447198942,0.5,0.5,0.4951552801058,0.5,0.509642497166694,0.5,0.5,0.4951552801058,0.5,0.5,0.490357502833306,0.5,0.5,0.490357502833306,0.5,0.490357502833306,0.509642497166694,0.490357502833306,0.5,0.0692461731521634,0.35064254696542,-0.490357502833306,-0.00475128949849382,0.5,0.00968943978840064,1.03052644067112,14.0192607989,2.28120059276238,0.5,63.0923059163121
CBC_1033,CBC_1033_MSI_TV_v3_Vset2_Tset3_2023-12-13_15h01.20.123.csv,2,11,1,3,z,0,1,2,tac,D,27,1,1D,3D,0,1,z,2.53118480000012,0,1,1,1,3D,1D,D13,3.25809653802148,0.5048447198942,0.5,0.5,0.4951552801058,0.5,0.509642497166694,0.5,0.5,0.4951552801058,0.5,0.5,0.485606213334812,0.5,0.5,0.490357502833306,0.5,0.5,0.5,0.5,0.5,0.145255449709454,0.499256273148859,0.5,0.00484471989420032,0.5,0.00968943978840064,1.03052644067112,14.0192607989,2.28120059276238,0.5,63.0923059163121
CBC_1033,CBC_1033_MSI_TV_v3_Vset2_Tset3_2023-12-13_15h01.20.123.csv,2,12,1,0,z,0,1,1,tac,A,63,0,1A,0A,1,0,z,2.4203950000001,0,1,1,0,0A,1A,A10,3.29583686600433,0.5048447198942,0.5,0.5,0.4951552801058,0.5,0.509642497166694,0.5,0.5,0.4951552801058,0.5,0.5,0.485606213334812,0.5,0.5,0.490357502833306,0.5048447198942,0.5048447198942,0.4951552801058,0.5048447198942,0.5,0.186354221592912,0.577168320879064,-0.5048447198942,-0.00489166251590684,0.5,0.00968943978840064,1.03052644067112,14.0192607989,2.28120059276238,0.5,63.0923059163121
CBC_1033,CBC_1033_MSI_TV_v3_Vset2_Tset3_2023-12-13_15h01.20.123.csv,2,13,2,3,b,1,0,0,tac,C,63,1,2C,3C,1,0,b,2.83241519999956,1,0,1,1,2C,3C,C23,2.63905732961526,0.499953057378293,0.5,0.5,0.4951552801058,0.5,0.509642497166694,0.5,0.5,0.4951552801058,0.5,0.5,0.485606213334812,0.5,0.5,0.490357502833306,0.5048447198942,0.514393786665188,0.485606213334812,0.5,0.485606213334812,0.149617995491611,0.715338559945396,0.5,0.00484471989420032,0.5,0.00968943978840064,1.03052644067112,14.0192607989,2.28120059276238,0.5,63.0923059163121
CBC_1033,CBC_1033_MSI_TV_v3_Vset2_Tset3_2023-12-13_15h01.20.123.csv,2,14,0,2,b,1,0,1,tac,A,27,1,0A,2A,1,0,b,2.36901089999992,1,0,1,1,0A,2A,A02,3.36729582998647,0.499953057378293,0.5,0.5,0.4951552801058,0.5,0.509642497166694,0.5,0.5,0.4951552801058,0.5,0.5048447198942,0.485606213334812,0.5,0.5,0.490357502833306,0.5048447198942,0.499953057378293,0.500046942621706,0.499953057378293,0.5,0.168958247830017,0.49798576127454,0.500046942621706,0.00484517474190686,0.5,0.00968943978840064,1.03052644067112,14.0192607989,2.28120059276238,0.5,63.0923059163121
CBC_1033,CBC_1033_MSI_TV_v3_Vset2_Tset3_2023-12-13_15h01.20.123.csv,2,15,0,1,z,0,1,3,tac,B,63,1,0B,1B,0,1,z,1.22095440000066,0,1,1,1,1B,0B,B01,2.70805020110221,0.5047982321202,0.5,0.5,0.4951552801058,0.5,0.509642497166694,0.5,0.5,0.4951552801058,0.5,0.5048447198942,0.485606213334812,0.5,0.5,0.490357502833306,0.5048447198942,0.509642497166694,0.490357502833306,0.509642497166694,0.5,0.243059679809263,0.649339294349594,0.490357502833306,0.00475128949849382,0.5,0.00968943978840064,1.03052644067112,14.0192607989,2.28120059276238,0.5,63.0923059163121
CBC_1033,CBC_1033_MSI_TV_v3_Vset2_Tset3_2023-12-13_15h01.20.123.csv,2,16,3,2,b,1,0,2,tac,D,63,1,3D,2D,1,0,z,2.60897159999968,0,1,0,0,2D,3D,D32,2.7408400239252,0.5047982321202,0.5,0.5,0.4951552801058,0.5,0.514393786665188,0.5,0.5,0.4951552801058,0.5,0.5048447198942,0.485606213334812,0.5,0.5,0.490357502833306,0.5048447198942,0.485515489526196,0.514484510473804,0.490357502833306,0.5048447198942,0.0746555251648878,0.283657998770011,-0.490357502833306,-0.00475128949849382,0.5,0.00968943978840064,1.03052644067112,14.0192607989,2.28120059276238,0.5,63.0923059163121
CBC_1033,CBC_1033_MSI_TV_v3_Vset2_Tset3_2023-12-13_15h01.20.123.csv,2,17,1,2,b,1,0,3,tac,B,9,1,1B,2B,1,0,b,1.65494690000014,1,0,1,1,1B,2B,B12,3.46573590279973,0.5047982321202,0.5,0.5,0.4951552801058,0.5,0.514393786665188,0.5,0.5,0.4951552801058,0.5,0.5048447198942,0.485606213334812,0.5,0.5,0.485606213334812,0.5048447198942,0.514393786665188,0.485606213334812,0.514393786665188,0.5,0.488916331471395,0.71434401572834,0.485606213334812,0.0047052521649809,0.5,0.00968943978840064,1.03052644067112,14.0192607989,2.28120059276238,0.5,63.0923059163121
CBC_1033,CBC_1033_MSI_TV_v3_Vset2_Tset3_2023-12-13_15h01.20.123.csv,2,18,1,3,z,0,1,2,tac,D,27,1,1D,3D,0,1,z,1.81429920000028,0,1,1,1,3D,1D,D13,2.80336038090653,0.5047982321202,0.5,0.5,0.4951552801058,0.5,0.519099038830169,0.5,0.5,0.4951552801058,0.5,0.5048447198942,0.485606213334812,0.5,0.5,0.485606213334812,0.5048447198942,0.5048447198942,0.4951552801058,0.5048447198942,0.5,0.329579765163526,0.575862875422947,0.4951552801058,0.0047977772724938,0.5,0.00968943978840064,1.03052644067112,14.0192607989,2.28120059276238,0.5,63.0923059163121
CBC_1033,CBC_1033_MSI_TV_v3_Vset2_Tset3_2023-12-13_15h01.20.123.csv,2,19,0,1,b,1,0,1,tac,A,63,1,0A,1A,1,0,b,1.76256139999987,1,0,1,1,0A,1A,A01,2.83321334405622,0.5047982321202,0.5,0.5,0.4951552801058,0.5,0.519099038830169,0.5,0.5,0.4951552801058,0.5,0.5048447198942,0.485606213334812,0.5,0.5,0.485606213334812,0.509642497166694,0.5047982321202,0.4952017678798,0.5047982321202,0.5,0.345181503498893,0.576148429813092,0.4952017678798,0.00479822771298087,0.5,0.00968943978840064,1.03052644067112,14.0192607989,2.28120059276238,0.5,63.0923059163121
CBC_1033,CBC_1033_MSI_TV_v3_Vset2_Tset3_2023-12-13_15h01.20.123.csv,2,20,1,0,z,0,1,1,tac,A,63,1,1A,0A,0,1,b,1.55912429999989,1,0,0,0,1A,0A,A10,2.86220088092947,0.509596459833181,0.5,0.5,0.4951552801058,0.5,0.519099038830169,0.5,0.5,0.4951552801058,0.5,0.5048447198942,0.485606213334812,0.5,0.5,0.485606213334812,0.509642497166694,0.490403540166819,0.509596459833181,0.5,0.509596459833181,0.249752663103804,0.351430888626413,-0.5,-0.00484471989420032,0.5,0.00968943978840064,1.03052644067112,14.0192607989,2.28120059276238,0.5,63.0923059163121
CBC_1033,CBC_1033_MSI_TV_v3_Vset2_Tset3_2023-12-13_15h01.20.123.csv,2,21,2,0,b,1,0,0,tac,C,27,1,2C,0C,1,0,b,2.9600560000008,1,0,1,1,2C,0C,C20,2.89037175789616,0.509596459833181,0.4951552801058,0.5,0.4951552801058,0.5,0.519099038830169,0.5,0.5,0.4951552801058,0.5,0.5048447198942,0.485606213334812,0.5,0.5,0.485606213334812,0.509642497166694,0.509688530178387,0.490311469821613,0.5048447198942,0.4951552801058,0.122960654584173,0.650058660292919,0.4951552801058,0.0047977772724938,0.5,0.00968943978840064,1.03052644067112,14.0192607989,2.28120059276238,0.5,63.0923059163121
CBC_1033,CBC_1033_MSI_TV_v3_Vset2_Tset3_2023-12-13_15h01.20.123.csv,2,22,0,1,z,0,1,3,tac,B,63,1,0B,1B,0,1,z,1.18501640000068,0,1,1,1,1B,0B,B01,2.51230562397611,0.509596459833181,0.4951552801058,0.5,0.4951552801058,0.5,0.519099038830169,0.5,0.5,0.4951552801058,0.5,0.509642497166694,0.485606213334812,0.5,0.5,0.485606213334812,0.509642497166694,0.519099038830169,0.480900961169831,0.519099038830169,0.5,0.200368771071493,0.772432057808957,0.480900961169831,0.00465966090743908,0.5,0.00968943978840064,1.03052644067112,14.0192607989,2.28120059276238,0.5,63.0923059163121
CBC_1033,CBC_1033_MSI_TV_v3_Vset2_Tset3_2023-12-13_15h01.20.123.csv,2,23,2,0,b,1,0,0,tac,C,27,1,2C,0C,NaN,NaN,None,NaN,NaN,NaN,NaN,NaN,,,C20,2.53897387105828,0.509596459833181,0.4951552801058,0.5,0.4951552801058,0.5,0.523758699737608,0.5,0.5,0.4951552801058,0.5,0.509642497166694,0.485606213334812,0.5,0.5,0.485606213334812,0.509642497166694,0,0,0,0,NaN,0,0,0,0.5,0.00968943978840064,1.03052644067112,14.0192607989,2.28120059276238,0.5,63.0923059163121
CBC_1033,CBC_1033_MSI_TV_v3_Vset2_Tset3_2023-12-13_15h01.20.123.csv,2,24,3,2,b,1,0,2,tac,D,63,1,3D,2D,1,0,b,3.10958879999998,1,0,1,1,3D,2D,D32,2.56494935746154,0.509596459833181,0.4951552801058,0.5,0.4951552801058,0.5,0.523758699737608,0.5,0.5,0.4951552801058,0.5,0.509642497166694,0.485606213334812,0.5,0.5,0.485606213334812,0.509642497166694,0.524022947055881,0.475977052944119,0.509642497166694,0.485606213334812,0.113029697464127,0.823610614795399,0.490357502833306,0.00475128949849382,0.5,0.00968943978840064,1.03052644067112,14.0192607989,2.28120059276238,0.5,63.0923059163121
CBC_1033,CBC_1033_MSI_TV_v3_Vset2_Tset3_2023-12-13_15h01.20.123.csv,2,25,1,0,z,0,1,1,tac,A,63,1,1A,0A,0,1,z,1.9568818000007,0,1,1,1,0A,1A,A10,2.59026716544583,0.509596459833181,0.4951552801058,0.5,0.4951552801058,0.5,0.523758699737608,0.5,0.5,0.4951552801058,0.5,0.509642497166694,0.485606213334812,0.5,0.5,0.485606213334812,0.514393786665188,0.514438494620181,0.485561505379819,0.509596459833181,0.4951552801058,0.368192452494392,0.716242758774608,0.490403540166819,0.00475173557446491,0.5,0.00968943978840064,1.03052644067112,14.0192607989,2.28120059276238,0.5,63.0923059163121
CBC_1033,CBC_1033_MSI_TV_v3_Vset2_Tset3_2023-12-13_15h01.20.123.csv,2,26,3,2,z,0,1,0,tac,C,63,1,3C,2C,0,1,z,2.55569639999976,0,1,1,1,2C,3C,C32,2.6149597780362,0.514348195407646,0.4951552801058,0.5,0.4951552801058,0.5,0.523758699737608,0.5,0.5,0.4951552801058,0.5,0.509642497166694,0.485606213334812,0.5,0.5,0.485606213334812,0.514393786665188,0.524022947055881,0.475977052944119,0.509642497166694,0.485606213334812,0.216820981202753,0.823067697499049,0.490357502833306,0.00475128949849382,0.5,0.00968943978840064,1.03052644067112,14.0192607989,2.28120059276238,0.5,63.0923059163121
CBC_1033,CBC_1033_MSI_TV_v3_Vset2_Tset3_2023-12-13_15h01.20.123.csv,2,27,2,0,z,0,1,1,tac,A,27,1,2A,0A,0,1,b,3.7435531000001,1,0,0,0,2A,0A,A20,3.73766961828337,0.514348195407646,0.4951552801058,0.5,0.4951552801058,0.5,0.523758699737608,0.5,0.5,0.4951552801058,0.5,0.514393786665188,0.485606213334812,0.5,0.5,0.485606213334812,0.514393786665188,0.485651804592354,0.514348195407646,0.5,0.514348195407646,0.0233429288072857,0.285081178038644,-0.5,-0.00484471989420032,0.5,0.00968943978840064,1.03052644067112,14.0192607989,2.28120059276238,0.5,63.0923059163121
CBC_1033,CBC_1033_MSI_TV_v3_Vset2_Tset3_2023-12-13_15h01.20.123.csv,2,28,3,2,b,1,0,2,tac,D,63,1,3D,2D,1,0,z,3.6550369000006,0,1,0,0,2D,3D,D32,2.37490575457367,0.514348195407646,0.4951552801058,0.4951552801058,0.4951552801058,0.5,0.523758699737608,0.5,0.5,0.4951552801058,0.5,0.514393786665188,0.485606213334812,0.5,0.5,0.485606213334812,0.514393786665188,0.471236263878957,0.528763736121043,0.485606213334812,0.514393786665188,0.00852043126486714,0.137211638503627,-0.485606213334812,-0.0047052521649809,0.5,0.00968943978840064,1.03052644067112,14.0192607989,2.28120059276238,0.5,63.0923059163121
CBC_1033,CBC_1033_MSI_TV_v3_Vset2_Tset3_2023-12-13_15h01.20.123.csv,2,29,3,2,b,1,0,2,tac,D,63,1,3D,2D,1,0,b,2.33514250000007,1,0,1,1,3D,2D,D32,2.17475172148416,0.514348195407646,0.4951552801058,0.4951552801058,0.4951552801058,0.5,0.523758699737608,0.5,0.5,0.4951552801058,0.5,0.514393786665188,0.485606213334812,0.5,0.5,0.480900961169831,0.514393786665188,0.533456036235512,0.466543963764488,0.514393786665188,0.480900961169831,0.287633208668279,0.89480936101418,0.485606213334812,0.0047052521649809,0.5,0.00968943978840064,1.03052644067112,14.0192607989,2.28120059276238,0.5,63.0923059163121
CBC_1033,CBC_1033_MSI_TV_v3_Vset2_Tset3_2023-12-13_15h01.20.123.csv,2,30,3,1,z,0,1,3,tac,B,27,1,3B,1B,0,1,z,1.5501876999997,0,1,1,1,1B,3B,B31,3.80666248977032,0.514348195407646,0.4951552801058,0.4951552801058,0.4951552801058,0.5,0.523758699737608,0.5,0.5,0.4951552801058,0.5,0.514393786665188,0.485606213334812,0.5,0.5,0.480900961169831,0.519099038830169,0.523758699737608,0.476241300262392,0.523758699737608,0.5,0.661624807231255,0.820411720359388,0.476241300262392,0.00461451140364208,0.5,0.00968943978840064,1.03052644067112,14.0192607989,2.28120059276238,0.5,63.0923059163121
CBC_1033,CBC_1033_MSI_TV_v3_Vset2_Tset3_2023-12-13_15h01.20.123.csv,2,31,0,3,z,0,1,2,tac,D,9,1,0D,3D,0,1,z,2.68993129999944,0,1,1,1,3D,0D,D03,3.8286413964891,0.514348195407646,0.4951552801058,0.4951552801058,0.4951552801058,0.5,0.52837321114125,0.5,0.5,0.4951552801058,0.5,0.514393786665188,0.485606213334812,0.5,0.5,0.480900961169831,0.519099038830169,0.519099038830169,0.480900961169831,0.519099038830169,0.5,0.18167702325293,0.772177406238654,0.480900961169831,0.00465966090743908,0.5,0.00968943978840064,1.03052644067112,14.0192607989,2.28120059276238,0.5,63.0923059163121
CBC_1033,CBC_1033_MSI_TV_v3_Vset2_Tset3_2023-12-13_15h01.20.123.csv,2,32,1,0,b,1,0,3,tac,B,63,1,1B,0B,1,0,b,1.46457780000037,1,0,1,1,1B,0B,B10,3.85014760171006,0.514348195407646,0.4951552801058,0.4951552801058,0.4951552801058,0.5,0.52837321114125,0.5,0.5,0.4951552801058,0.5,0.514393786665188,0.485606213334812,0.5,0.5,0.480900961169831,0.523758699737608,0.52837321114125,0.47162678885875,0.52837321114125,0.5,0.768445449771407,0.860188643509628,0.47162678885875,0.0045697993732436,0.5,0.00968943978840064,1.03052644067112,14.0192607989,2.28120059276238,0.5,63.0923059163121
CBC_1033,CBC_1033_MSI_TV_v3_Vset2_Tset3_2023-12-13_15h01.20.123.csv,2,33,1,0,z,0,1,1,tac,A,63,1,1A,0A,0,1,z,1.90638829999989,0,1,1,1,0A,1A,A10,2.484906649788,0.514348195407646,0.4951552801058,0.4951552801058,0.4951552801058,0.5,0.532943010514494,0.5,0.5,0.4951552801058,0.5,0.514393786665188,0.485606213334812,0.5,0.5,0.480900961169831,0.523758699737608,0.51918758015775,0.48081241984225,0.514348195407646,0.4951552801058,0.426036971221688,0.772771639486013,0.485651804592354,0.00470569391872573,0.5,0.00968943978840064,1.03052644067112,14.0192607989,2.28120059276238,0.5,63.0923059163121
CBC_1033,CBC_1033_MSI_TV_v3_Vset2_Tset3_2023-12-13_15h01.20.123.csv,2,34,1,0,b,1,0,3,tac,B,63,1,1B,0B,1,0,b,1.32404270000006,1,0,1,1,1B,0B,B10,3.19867311755068,0.519053889326372,0.4951552801058,0.4951552801058,0.4951552801058,0.5,0.532943010514494,0.5,0.5,0.4951552801058,0.5,0.514393786665188,0.485606213334812,0.5,0.5,0.480900961169831,0.523758699737608,0.532943010514494,0.467056989485506,0.532943010514494,0.5,0.790673252118455,0.892001797379183,0.467056989485506,0.00452552057737149,0.5,0.00968943978840064,1.03052644067112,14.0192607989,2.28120059276238,0.5,63.0923059163121
CBC_1033,CBC_1033_MSI_TV_v3_Vset2_Tset3_2023-12-13_15h01.20.123.csv,2,35,3,2,z,0,1,0,tac,C,63,1,3C,2C,0,1,z,2.32210090000081,0,1,1,1,2C,3C,C32,2.52572864430826,0.519053889326372,0.4951552801058,0.4951552801058,0.4951552801058,0.5,0.537468531091865,0.5,0.5,0.4951552801058,0.5,0.514393786665188,0.485606213334812,0.5,0.5,0.480900961169831,0.523758699737608,0.528763736121043,0.471236263878957,0.514393786665188,0.485606213334812,0.292341315466806,0.862793511725918,0.485606213334812,0.0047052521649809,0.5,0.00968943978840064,1.03052644067112,14.0192607989,2.28120059276238,0.5,63.0923059163121
CBC_1033,CBC_1033_MSI_TV_v3_Vset2_Tset3_2023-12-13_15h01.20.123.csv,2,36,0,2,b,1,0,1,tac,A,27,1,0A,2A,1,0,b,3.43858060000002,1,0,1,1,0A,2A,A02,3.23867845216438,0.519053889326372,0.4951552801058,0.4951552801058,0.4951552801058,0.5,0.537468531091865,0.5,0.5,0.4951552801058,0.5,0.519099038830169,0.485606213334812,0.5,0.5,0.480900961169831,0.523758699737608,0.523889788082913,0.476110211917087,0.519053889326372,0.4951552801058,0.0770355959156156,0.821051062508236,0.480946110673628,0.00466009838083759,0.5,0.00968943978840064,1.03052644067112,14.0192607989,2.28120059276238,0.5,63.0923059163121
CBC_1033,CBC_1033_MSI_TV_v3_Vset2_Tset3_2023-12-13_15h01.20.123.csv,2,37,1,0,b,1,0,3,tac,B,63,1,1B,0B,1,0,b,1.37643680000019,1,0,1,1,1B,0B,B10,2.85263142991332,0.52371398770721,0.4951552801058,0.4951552801058,0.4951552801058,0.5,0.537468531091865,0.5,0.5,0.4951552801058,0.5,0.519099038830169,0.485606213334812,0.5,0.5,0.480900961169831,0.523758699737608,0.537468531091865,0.462531468908135,0.537468531091865,0.5,0.933623532573301,0.916440995957292,0.462531468908135,0.00448167081822588,0.5,0.00968943978840064,1.03052644067112,14.0192607989,2.28120059276238,0.5,63.0923059163121
CBC_1033,CBC_1033_MSI_TV_v3_Vset2_Tset3_2023-12-13_15h01.20.123.csv,2,38,3,1,z,0,1,3,tac,B,27,1,3B,1B,0,1,z,1.27238699999998,0,1,1,1,1B,3B,B31,3.27714473299218,0.52371398770721,0.4951552801058,0.4951552801058,0.4951552801058,0.5,0.541950201910091,0.5,0.5,0.4951552801058,0.5,0.519099038830169,0.485606213334812,0.5,0.5,0.480900961169831,0.523758699737608,0.541950201910091,0.458049798089909,0.541950201910091,0.5,0.841012237529126,0.936084335374,0.458049798089909,0.00443824593868125,0.5,0.00968943978840064,1.03052644067112,14.0192607989,2.28120059276238,0.5,63.0923059163121
CBC_1033,CBC_1033_MSI_TV_v3_Vset2_Tset3_2023-12-13_15h01.20.123.csv,2,39,3,2,z,0,1,0,tac,C,63,1,3C,2C,0,1,z,3.03033839999989,0,1,1,1,2C,3C,C32,2.37954613413017,0.52371398770721,0.4951552801058,0.4951552801058,0.4951552801058,0.5,0.546388447848772,0.5,0.5,0.4951552801058,0.5,0.519099038830169,0.485606213334812,0.5,0.5,0.480900961169831,0.523758699737608,0.533456036235511,0.466543963764489,0.519099038830169,0.485606213334812,0.109661918899367,0.894530381889696,0.480900961169831,0.00465966090743908,0.5,0.00968943978840064,1.03052644067112,14.0192607989,2.28120059276238,0.5,63.0923059163121
CBC_1033,CBC_1033_MSI_TV_v3_Vset2_Tset3_2023-12-13_15h01.20.123.csv,2,40,3,1,b,1,0,2,tac,D,27,1,3D,1D,1,0,b,1.46942030000082,1,0,1,1,3D,1D,D31,4.00733318523247,0.52371398770721,0.4951552801058,0.4951552801058,0.4951552801058,0.5,0.546388447848772,0.5,0.5,0.4951552801058,0.5,0.523758699737608,0.485606213334812,0.5,0.5,0.480900961169831,0.523758699737608,0.523758699737608,0.476241300262392,0.523758699737608,0.5,0.689729572290621,0.820630387112332,0.476241300262392,0.00461451140364208,0.5,0.00968943978840064,1.03052644067112,14.0192607989,2.28120059276238,0.5,63.0923059163121
CBC_1033,CBC_1033_MSI_TV_v3_Vset2_Tset3_2023-12-13_15h01.20.123.csv,2,41,1,2,z,0,1,0,tac,C,9,1,1C,2C,0,1,z,1.60371200000009,0,1,1,1,2C,1C,C12,4.02535169073515,0.52371398770721,0.4951552801058,0.4951552801058,0.4951552801058,0.5,0.546388447848772,0.5,0.5,0.4951552801058,0.5,0.523758699737608,0.485606213334812,0.5,0.5,0.480900961169831,0.52837321114125,0.523758699737608,0.476241300262392,0.523758699737608,0.5,0.634948833952192,0.820890604793784,0.476241300262392,0.00461451140364208,0.5,0.00968943978840064,1.03052644067112,14.0192607989,2.28120059276238,0.5,63.0923059163121
CBC_1033,CBC_1033_MSI_TV_v3_Vset2_Tset3_2023-12-13_15h01.20.123.csv,2,42,0,1,z,0,1,3,tac,B,63,0,0B,1B,1,0,z,1.62128290000055,0,1,1,0,1B,0B,B01,2.65675690671466,0.52371398770721,0.4951552801058,0.4951552801058,0.4951552801058,0.5,0.546388447848772,0.5,0.5,0.4951552801058,0.5,0.52837321114125,0.485606213334812,0.5,0.5,0.480900961169831,0.52837321114125,0.546388447848772,0.453611552151228,0.546388447848772,0.5,0.890532147955343,0.950960168655056,-0.546388447848772,-0.00529419796650836,0.5,0.00968943978840064,1.03052644067112,14.0192607989,2.28120059276238,0.5,63.0923059163121
CBC_1033,CBC_1033_MSI_TV_v3_Vset2_Tset3_2023-12-13_15h01.20.123.csv,2,43,3,2,b,1,0,2,tac,D,63,1,3D,2D,1,0,b,3.11238810000032,1,0,1,1,3D,2D,D32,2.26868354131836,0.52371398770721,0.4951552801058,0.4951552801058,0.4951552801058,0.5,0.541094249882264,0.5,0.5,0.4951552801058,0.5,0.52837321114125,0.485606213334812,0.5,0.5,0.480900961169831,0.52837321114125,0.547369571487165,0.452630428512835,0.52837321114125,0.480900961169831,0.0605294593197397,0.95417424455287,0.47162678885875,0.0045697993732436,0.5,0.00968943978840064,1.03052644067112,14.0192607989,2.28120059276238,0.5,63.0923059163121
CBC_1033,CBC_1033_MSI_TV_v3_Vset2_Tset3_2023-12-13_15h01.20.123.csv,2,44,0,1,b,1,0,1,tac,A,63,1,0A,1A,1,0,b,1.77307390000078,1,0,1,1,0A,1A,A01,2.97892515523761,0.52371398770721,0.4951552801058,0.4951552801058,0.4951552801058,0.5,0.541094249882264,0.5,0.5,0.4951552801058,0.5,0.52837321114125,0.485606213334812,0.5,0.5,0.480900961169831,0.532943010514494,0.528545589461156,0.471454410538844,0.52371398770721,0.4951552801058,0.580531097196572,0.861628608950172,0.47628601229279,0.00461494463816844,0.5,0.00968943978840064,1.03052644067112,14.0192607989,2.28120059276238,0.5,63.0923059163121
CBC_1033,CBC_1033_MSI_AV_v3_Vset6_Aset2_2023-12-13_15h10.11.385.csv,3,1,1,0,b,1,0,3,aud,B,63,1,1B,0B,1,0,b,2.41171019999911,1,0,1,1,1B,0B,B10,2.77258872223978,0.5,0.5,0.5,0.5,0.5,0.5,0.5,0.5,0.5,0.5,0.5,0.5,0.5,0.5,0.5,0.5,0.5,0.5,0.5,0.5,0.150212821976743,0.50116457303118,0.5,0.0288262000077446,0.5,0.0576524000154891,0.85074146859977,4.65666227280335,2.78932541690877,0.5,57.418494826897
CBC_1033,CBC_1033_MSI_AV_v3_Vset6_Aset2_2023-12-13_15h10.11.385.csv,3,2,1,0,z,0,1,1,aud,A,63,1,1A,0A,0,1,z,1.48835059999965,0,1,1,1,0A,1A,A10,2.83321334405622,0.5,0.5,0.5,0.5,0.5,0.528826200007745,0.5,0.5,0.5,0.5,0.5,0.5,0.5,0.5,0.5,0.5,0.5,0.5,0.5,0.5,0.238376440798807,0.501324120066809,0.5,0.0288262000077446,0.5,0.0576524000154891,0.85074146859977,4.65666227280335,2.78932541690877,0.5,57.418494826897
CBC_1033,CBC_1033_MSI_AV_v3_Vset6_Aset2_2023-12-13_15h10.11.385.csv,3,3,3,2,b,1,0,2,aud,D,63,1,3D,2D,1,0,z,2.33397009999953,0,1,0,0,2D,3D,D32,2.89037175789616,0.528826200007745,0.5,0.5,0.5,0.5,0.528826200007745,0.5,0.5,0.5,0.5,0.5,0.5,0.5,0.5,0.5,0.5,0.5,0.5,0.5,0.5,0.157412054786479,0.500180288273086,-0.5,-0.0288262000077446,0.5,0.0576524000154891,0.85074146859977,4.65666227280335,2.78932541690877,0.5,57.418494826897
CBC_1033,CBC_1033_MSI_AV_v3_Vset6_Aset2_2023-12-13_15h10.11.385.csv,3,4,1,2,b,1,0,3,aud,B,9,1,1B,2B,1,0,z,1.69130869999935,0,1,0,0,2B,1B,B12,2.94443897916644,0.528826200007745,0.5,0.5,0.5,0.5,0.528826200007745,0.5,0.5,0.5,0.5,0.5,0.5,0.5,0.5,0.471173799992255,0.5,0.471173799992255,0.528826200007745,0.5,0.528826200007745,0.15159474640869,0.321535575568165,-0.5,-0.0288262000077446,0.5,0.0576524000154891,0.85074146859977,4.65666227280335,2.78932541690877,0.5,57.418494826897
CBC_1033,CBC_1033_MSI_AV_v3_Vset6_Aset2_2023-12-13_15h10.11.385.csv,3,5,2,0,z,0,1,1,aud,A,27,1,2A,0A,0,1,b,2.25556699999925,1,0,0,0,2A,0A,A20,2.99573227355399,0.528826200007745,0.5,0.5,0.5,0.5,0.528826200007745,0.471173799992255,0.5,0.5,0.5,0.5,0.5,0.5,0.5,0.471173799992255,0.5,0.471173799992255,0.528826200007745,0.5,0.528826200007745,0.108021976065601,0.321052528531386,-0.5,-0.0288262000077446,0.5,0.0576524000154891,0.85074146859977,4.65666227280335,2.78932541690877,0.5,57.418494826897
CBC_1033,CBC_1033_MSI_AV_v3_Vset6_Aset2_2023-12-13_15h10.11.385.csv,3,6,3,2,z,0,1,0,aud,C,63,1,3C,2C,0,1,b,2.64793119999922,1,0,0,0,3C,2C,C32,3.04452243772342,0.528826200007745,0.5,0.471173799992255,0.5,0.5,0.528826200007745,0.471173799992255,0.5,0.5,0.5,0.5,0.5,0.5,0.5,0.471173799992255,0.5,0.5,0.5,0.5,0.5,0.129160691166492,0.500198333524178,-0.5,-0.0288262000077446,0.5,0.0576524000154891,0.85074146859977,4.65666227280335,2.78932541690877,0.5,57.418494826897
CBC_1033,CBC_1033_MSI_AV_v3_Vset6_Aset2_2023-12-13_15h10.11.385.csv,3,7,3,1,b,1,0,2,aud,D,27,1,3D,1D,1,0,b,1.61215609999908,1,0,1,1,3D,1D,D31,3.09104245335832,0.528826200007745,0.5,0.471173799992255,0.5,0.5,0.528826200007745,0.471173799992255,0.5,0.5,0.5,0.5,0.471173799992255,0.5,0.5,0.471173799992255,0.5,0.5,0.5,0.5,0.5,0.233462985692286,0.500040481871478,0.5,0.0288262000077446,0.5,0.0576524000154891,0.85074146859977,4.65666227280335,2.78932541690877,0.5,57.418494826897
CBC_1033,CBC_1033_MSI_AV_v3_Vset6_Aset2_2023-12-13_15h10.11.385.csv,3,8,0,1,b,1,0,1,aud,A,63,1,0A,1A,1,0,b,2.54776849999962,1,0,1,1,0A,1A,A01,3.13549421592915,0.528826200007745,0.5,0.471173799992255,0.5,0.5,0.528826200007745,0.471173799992255,0.5,0.5,0.5,0.5,0.471173799992255,0.5,0.5,0.471173799992255,0.528826200007745,0.528826200007745,0.471173799992255,0.528826200007745,0.5,0.18787406816535,0.677977974553253,0.471173799992255,0.0271643003939716,0.5,0.0576524000154891,0.85074146859977,4.65666227280335,2.78932541690877,0.5,57.418494826897
CBC_1033,CBC_1033_MSI_AV_v3_Vset6_Aset2_2023-12-13_15h10.11.385.csv,3,9,0,2,z,0,1,0,aud,C,27,1,0C,2C,0,1,z,1.8540538999996,0,1,1,1,2C,0C,C02,3.17805383034795,0.555990500401716,0.5,0.471173799992255,0.5,0.5,0.528826200007745,0.471173799992255,0.5,0.5,0.5,0.5,0.471173799992255,0.5,0.5,0.471173799992255,0.528826200007745,0.5,0.5,0.5,0.5,0.209421267568412,0.49922890772596,0.5,0.0288262000077446,0.5,0.0576524000154891,0.85074146859977,4.65666227280335,2.78932541690877,0.5,57.418494826897
CBC_1033,CBC_1033_MSI_AV_v3_Vset6_Aset2_2023-12-13_15h10.11.385.csv,3,10,3,2,b,1,0,2,aud,D,63,1,3D,2D,1,0,b,2.65862769999876,1,0,1,1,3D,2D,D32,2.52572864430826,0.555990500401716,0.5,0.471173799992255,0.5,0.5,0.528826200007745,0.471173799992255,0.5,0.5,0.5,0.528826200007745,0.471173799992255,0.5,0.5,0.471173799992255,0.528826200007745,0.557461409825896,0.442538590174104,0.528826200007745,0.471173799992255,0.208821630961763,0.816591254853383,0.471173799992255,0.0271643003939716,0.5,0.0576524000154891,0.85074146859977,4.65666227280335,2.78932541690877,0.5,57.418494826897
CBC_1033,CBC_1033_MSI_AV_v3_Vset6_Aset2_2023-12-13_15h10.11.385.csv,3,11,0,1,z,0,1,3,aud,B,63,0,0B,1B,1,0,z,1.8042102999998,0,1,1,0,1B,0B,B01,3.25809653802148,0.555990500401716,0.5,0.471173799992255,0.5,0.5,0.528826200007745,0.471173799992255,0.5,0.5,0.5,0.528826200007745,0.471173799992255,0.5,0.5,0.471173799992255,0.555990500401716,0.528826200007745,0.471173799992255,0.528826200007745,0.5,0.30243803141311,0.678785142506087,-0.528826200007745,-0.0304880996215175,0.5,0.0576524000154891,0.85074146859977,4.65666227280335,2.78932541690877,0.5,57.418494826897
CBC_1033,CBC_1033_MSI_AV_v3_Vset6_Aset2_2023-12-13_15h10.11.385.csv,3,12,1,0,z,0,1,1,aud,A,63,1,1A,0A,0,1,z,4.11677569999938,0,1,1,1,0A,1A,A10,2.60268968544438,0.555990500401716,0.5,0.471173799992255,0.5,0.5,0.498338100386227,0.471173799992255,0.5,0.5,0.5,0.528826200007745,0.471173799992255,0.5,0.5,0.471173799992255,0.555990500401716,0.555990500401716,0.444009499598284,0.555990500401716,0.5,0.0675198000372418,0.810887419906383,0.444009499598284,0.0255982132815174,0.5,0.0576524000154891,0.85074146859977,4.65666227280335,2.78932541690877,0.5,57.418494826897
CBC_1033,CBC_1033_MSI_AV_v3_Vset6_Aset2_2023-12-13_15h10.11.385.csv,3,13,3,2,b,1,0,2,aud,D,63,1,3D,2D,1,0,b,2.31865909999942,1,0,1,1,3D,2D,D32,2.23359222150709,0.581588713683234,0.5,0.471173799992255,0.5,0.5,0.498338100386227,0.471173799992255,0.5,0.5,0.5,0.528826200007745,0.471173799992255,0.5,0.5,0.471173799992255,0.555990500401716,0.584272638492584,0.415727361507416,0.555990500401716,0.471173799992255,0.302016523357799,0.899176587204889,0.444009499598284,0.0255982132815174,0.5,0.0576524000154891,0.85074146859977,4.65666227280335,2.78932541690877,0.5,57.418494826897
CBC_1033,CBC_1033_MSI_AV_v3_Vset6_Aset2_2023-12-13_15h10.11.385.csv,3,14,0,2,z,0,1,0,aud,C,27,1,0C,2C,0,1,z,2.37910969999939,0,1,1,1,2C,0C,C02,2.67414864942653,0.581588713683234,0.5,0.471173799992255,0.5,0.5,0.498338100386227,0.471173799992255,0.5,0.5,0.5,0.528826200007745,0.471173799992255,0.5,0.5,0.471173799992255,0.581588713683234,0.528826200007745,0.471173799992255,0.528826200007745,0.5,0.210612801040907,0.679217511953666,0.471173799992255,0.0271643003939716,0.5,0.0576524000154891,0.85074146859977,4.65666227280335,2.78932541690877,0.5,57.418494826897
CBC_1033,CBC_1033_MSI_AV_v3_Vset6_Aset2_2023-12-13_15h10.11.385.csv,3,15,1,0,z,0,1,1,aud,A,63,1,1A,0A,0,1,z,2.68663069999911,0,1,1,1,0A,1A,A10,2.30258509299405,0.581588713683234,0.5,0.471173799992255,0.5,0.5,0.498338100386227,0.471173799992255,0.5,0.5,0.5,0.555990500401716,0.471173799992255,0.5,0.5,0.471173799992255,0.581588713683234,0.581588713683234,0.418411286316766,0.581588713683234,0.5,0.213986083373468,0.893073756690341,0.418411286316766,0.0241224148497296,0.5,0.0576524000154891,0.85074146859977,4.65666227280335,2.78932541690877,0.5,57.418494826897
CBC_1033,CBC_1033_MSI_AV_v3_Vset6_Aset2_2023-12-13_15h10.11.385.csv,3,16,3,1,z,0,1,3,aud,B,27,1,3B,1B,0,1,z,2.19591219999984,0,1,1,1,1B,3B,B31,3.43398720448515,0.605711128532963,0.5,0.471173799992255,0.5,0.5,0.498338100386227,0.471173799992255,0.5,0.5,0.5,0.555990500401716,0.471173799992255,0.5,0.5,0.471173799992255,0.581588713683234,0.498338100386227,0.501661899613773,0.498338100386227,0.5,0.167349378864454,0.487931294186776,0.501661899613773,0.0289220125090634,0.5,0.0576524000154891,0.85074146859977,4.65666227280335,2.78932541690877,0.5,57.418494826897
CBC_1033,CBC_1033_MSI_AV_v3_Vset6_Aset2_2023-12-13_15h10.11.385.csv,3,17,2,3,b,1,0,0,aud,C,63,1,2C,3C,1,0,b,2.85158669999964,1,0,1,1,2C,3C,C23,3.46573590279973,0.605711128532963,0.5,0.471173799992255,0.5,0.5,0.52726011289529,0.471173799992255,0.5,0.5,0.5,0.555990500401716,0.471173799992255,0.5,0.5,0.471173799992255,0.581588713683234,0.584272638492584,0.415727361507416,0.555990500401716,0.471173799992255,0.183111369749666,0.899214211616507,0.444009499598284,0.0255982132815174,0.5,0.0576524000154891,0.85074146859977,4.65666227280335,2.78932541690877,0.5,57.418494826897
CBC_1033,CBC_1033_MSI_AV_v3_Vset6_Aset2_2023-12-13_15h10.11.385.csv,3,18,3,2,b,1,0,2,aud,D,63,0,3D,2D,0,1,b,2.01860659999966,1,0,1,0,3D,2D,D32,2.11021320034659,0.605711128532963,0.5,0.471173799992255,0.5,0.5,0.52726011289529,0.471173799992255,0.5,0.5,0.5,0.581588713683234,0.471173799992255,0.5,0.5,0.471173799992255,0.581588713683234,0.609385858535229,0.390614141464771,0.581588713683234,0.471173799992255,0.431267673509742,0.944773336038797,-0.581588713683234,-0.0335299851657595,0.5,0.0576524000154891,0.85074146859977,4.65666227280335,2.78932541690877,0.5,57.418494826897
CBC_1033,CBC_1033_MSI_AV_v3_Vset6_Aset2_2023-12-13_15h10.11.385.csv,3,19,0,1,z,0,1,3,aud,B,63,1,0B,1B,0,1,z,2.21402649999891,0,1,1,1,1B,0B,B01,2.83321334405622,0.605711128532963,0.5,0.471173799992255,0.5,0.5,0.52726011289529,0.471173799992255,0.5,0.5,0.5,0.581588713683234,0.471173799992255,0.5,0.5,0.471173799992255,0.548058728517474,0.52726011289529,0.47273988710471,0.52726011289529,0.5,0.231100058339254,0.66968972350813,0.47273988710471,0.0272545890746379,0.5,0.0576524000154891,0.85074146859977,4.65666227280335,2.78932541690877,0.5,57.418494826897
CBC_1033,CBC_1033_MSI_AV_v3_Vset6_Aset2_2023-12-13_15h10.11.385.csv,3,20,0,2,b,1,0,1,aud,A,27,1,0A,2A,1,0,z,3.07838229999925,0,1,0,0,2A,0A,A02,3.55534806148941,0.605711128532963,0.5,0.471173799992255,0.5,0.5,0.554514701969928,0.471173799992255,0.5,0.5,0.5,0.581588713683234,0.471173799992255,0.5,0.5,0.471173799992255,0.548058728517474,0.367082799290061,0.632917200709939,0.471173799992255,0.605711128532963,0.00317580950000893,0.0307002633801716,-0.471173799992255,-0.0271643003939716,0.5,0.0576524000154891,0.85074146859977,4.65666227280335,2.78932541690877,0.5,57.418494826897
CBC_1033,CBC_1033_MSI_AV_v3_Vset6_Aset2_2023-12-13_15h10.11.385.csv,3,21,3,0,b,1,0,2,aud,D,9,1,3D,0D,1,0,b,1.5450951999992,1,0,1,1,3D,0D,D30,3.58351893845611,0.605711128532963,0.5,0.444009499598284,0.5,0.5,0.554514701969928,0.471173799992255,0.5,0.5,0.5,0.581588713683234,0.471173799992255,0.5,0.5,0.471173799992255,0.548058728517474,0.548058728517474,0.451941271482526,0.548058728517474,0.5,0.411857303078946,0.776163927429625,0.451941271482526,0.0260554989670193,0.5,0.0576524000154891,0.85074146859977,4.65666227280335,2.78932541690877,0.5,57.418494826897
CBC_1033,CBC_1033_MSI_AV_v3_Vset6_Aset2_2023-12-13_15h10.11.385.csv,3,22,3,2,z,0,1,0,aud,C,63,1,3C,2C,0,1,z,1.91559779999989,0,1,1,1,2C,3C,C32,2.91777073208428,0.605711128532963,0.5,0.444009499598284,0.5,0.5,0.554514701969928,0.471173799992255,0.5,0.5,0.5,0.581588713683234,0.471173799992255,0.5,0.5,0.471173799992255,0.574114227484493,0.609385858535229,0.390614141464771,0.581588713683234,0.471173799992255,0.483165523868683,0.944997828787109,0.418411286316766,0.0241224148497296,0.5,0.0576524000154891,0.85074146859977,4.65666227280335,2.78932541690877,0.5,57.418494826897
CBC_1033,CBC_1033_MSI_AV_v3_Vset6_Aset2_2023-12-13_15h10.11.385.csv,3,23,1,3,b,1,0,3,aud,B,27,1,1B,3B,1,0,b,1.87095719999979,1,0,1,1,1B,3B,B13,3.63758615972639,0.605711128532963,0.5,0.444009499598284,0.5,0.5,0.554514701969928,0.471173799992255,0.5,0.5,0.5,0.605711128532963,0.471173799992255,0.5,0.5,0.471173799992255,0.574114227484493,0.554514701969928,0.445485298030072,0.554514701969928,0.5,0.369816156450846,0.80458626705784,0.445485298030072,0.0256832966030491,0.5,0.0576524000154891,0.85074146859977,4.65666227280335,2.78932541690877,0.5,57.418494826897
CBC_1033,CBC_1033_MSI_AV_v3_Vset6_Aset2_2023-12-13_15h10.11.385.csv,3,24,2,3,b,1,0,0,aud,C,63,1,2C,3C,1,0,b,1.35232289999931,1,0,1,1,2C,3C,C23,2.9704144655697,0.605711128532963,0.5,0.444009499598284,0.5,0.5,0.580197998572977,0.471173799992255,0.5,0.5,0.5,0.605711128532963,0.471173799992255,0.5,0.5,0.471173799992255,0.574114227484493,0.632917200709939,0.367082799290061,0.605711128532963,0.471173799992255,0.861237527352383,0.969180962206076,0.394288871467037,0.0227316997394734,0.5,0.0576524000154891,0.85074146859977,4.65666227280335,2.78932541690877,0.5,57.418494826897
CBC_1033,CBC_1033_MSI_AV_v3_Vset6_Aset2_2023-12-13_15h10.11.385.csv,3,25,3,2,b,1,0,2,aud,D,63,1,3D,2D,1,0,b,1.88301989999945,1,0,1,1,3D,2D,D32,2.07944154167984,0.605711128532963,0.5,0.444009499598284,0.5,0.5,0.580197998572977,0.471173799992255,0.5,0.5,0.5,0.628442828272437,0.471173799992255,0.5,0.5,0.471173799992255,0.574114227484493,0.602068180767752,0.397931819232248,0.574114227484493,0.471173799992255,0.48734650376643,0.933909458012257,0.425885772515507,0.0245533369179696,0.5,0.0576524000154891,0.85074146859977,4.65666227280335,2.78932541690877,0.5,57.418494826897
CBC_1033,CBC_1033_MSI_AV_v3_Vset6_Aset2_2023-12-13_15h10.11.385.csv,3,26,0,1,z,0,1,3,aud,B,63,1,0B,1B,0,1,z,1.69377339999937,0,1,1,1,1B,0B,B01,2.6149597780362,0.605711128532963,0.5,0.444009499598284,0.5,0.5,0.580197998572977,0.471173799992255,0.5,0.5,0.5,0.628442828272437,0.471173799992255,0.5,0.5,0.471173799992255,0.598667564402463,0.580197998572977,0.419802001427023,0.580197998572977,0.5,0.508084438499652,0.889433575994225,0.419802001427023,0.0242025929135736,0.5,0.0576524000154891,0.85074146859977,4.65666227280335,2.78932541690877,0.5,57.418494826897
CBC_1033,CBC_1033_MSI_AV_v3_Vset6_Aset2_2023-12-13_15h10.11.385.csv,3,27,3,0,z,0,1,1,aud,A,9,1,3A,0A,0,1,z,3.81105239999943,0,1,1,1,0A,3A,A30,3.73766961828337,0.605711128532963,0.5,0.444009499598284,0.5,0.5,0.604400591486551,0.471173799992255,0.5,0.5,0.5,0.628442828272437,0.471173799992255,0.5,0.5,0.471173799992255,0.598667564402463,0.605711128532963,0.394288871467037,0.605711128532963,0.5,0.0580574984205602,0.939717739476733,0.394288871467037,0.0227316997394734,0.5,0.0576524000154891,0.85074146859977,4.65666227280335,2.78932541690877,0.5,57.418494826897
CBC_1033,CBC_1033_MSI_AV_v3_Vset6_Aset2_2023-12-13_15h10.11.385.csv,3,28,3,2,b,1,0,2,aud,D,63,1,3D,2D,1,0,b,1.45963069999925,1,0,1,1,3D,2D,D32,1.96944064646551,0.628442828272437,0.5,0.444009499598284,0.5,0.5,0.604400591486551,0.471173799992255,0.5,0.5,0.5,0.628442828272437,0.471173799992255,0.5,0.5,0.471173799992255,0.598667564402463,0.62605960398829,0.37394039601171,0.598667564402463,0.471173799992255,0.800786478687819,0.96347297222143,0.401332435597537,0.0231377781162597,0.5,0.0576524000154891,0.85074146859977,4.65666227280335,2.78932541690877,0.5,57.418494826897
CBC_1033,CBC_1033_MSI_AV_v3_Vset6_Aset2_2023-12-13_15h10.11.385.csv,3,29,0,2,z,0,1,0,aud,C,27,1,0C,2C,0,1,z,1.53673199999866,0,1,1,1,2C,0C,C02,2.68557734525015,0.628442828272437,0.5,0.444009499598284,0.5,0.5,0.604400591486551,0.471173799992255,0.5,0.5,0.5,0.628442828272437,0.471173799992255,0.5,0.5,0.471173799992255,0.621805342518723,0.628442828272437,0.371557171727563,0.628442828272437,0.5,0.769748580307195,0.965583487435462,0.371557171727563,0.0214211626930613,0.5,0.0576524000154891,0.85074146859977,4.65666227280335,2.78932541690877,0.5,57.418494826897
CBC_1033,CBC_1033_MSI_AV_v3_Vset6_Aset2_2023-12-13_15h10.11.385.csv,3,30,0,1,b,1,0,1,aud,A,63,0,0A,1A,0,1,b,1.79645639999944,1,0,1,0,0A,1A,A01,3.11351530921037,0.628442828272437,0.5,0.444009499598284,0.5,0.5,0.604400591486551,0.471173799992255,0.5,0.5,0.5,0.649863990965498,0.471173799992255,0.5,0.5,0.471173799992255,0.621805342518723,0.628442828272437,0.371557171727563,0.628442828272437,0.5,0.582466078954593,0.965509821544337,-0.628442828272437,-0.0362312373224278,0.5,0.0576524000154891,0.85074146859977,4.65666227280335,2.78932541690877,0.5,57.418494826897
CBC_1033,CBC_1033_MSI_AV_v3_Vset6_Aset2_2023-12-13_15h10.11.385.csv,3,31,0,1,z,0,1,3,aud,B,63,1,0B,1B,0,1,z,1.29165740000008,0,1,1,1,1B,0B,B01,2.4423470353692,0.592211590950009,0.5,0.444009499598284,0.5,0.5,0.604400591486551,0.471173799992255,0.5,0.5,0.5,0.649863990965498,0.471173799992255,0.5,0.5,0.471173799992255,0.621805342518723,0.604400591486551,0.395599408513449,0.604400591486551,0.5,0.659152069732187,0.937607684064918,0.395599408513449,0.0228072553455083,0.5,0.0576524000154891,0.85074146859977,4.65666227280335,2.78932541690877,0.5,57.418494826897
CBC_1033,CBC_1033_MSI_AV_v3_Vset6_Aset2_2023-12-13_15h10.11.385.csv,3,32,1,3,z,0,1,2,aud,D,27,1,1D,3D,0,1,z,2.47823189999872,0,1,1,1,3D,1D,D13,3.85014760171006,0.592211590950009,0.5,0.444009499598284,0.5,0.5,0.627207846832059,0.471173799992255,0.5,0.5,0.5,0.649863990965498,0.471173799992255,0.5,0.5,0.471173799992255,0.621805342518723,0.621805342518723,0.378194657481277,0.621805342518723,0.5,0.245408035404814,0.959429031192036,0.378194657481277,0.0218038296768315,0.5,0.0576524000154891,0.85074146859977,4.65666227280335,2.78932541690877,0.5,57.418494826897
CBC_1033,CBC_1033_MSI_AV_v3_Vset6_Aset2_2023-12-13_15h10.11.385.csv,3,33,2,3,b,1,0,0,aud,C,63,1,2C,3C,1,0,b,1.32309269999951,1,0,1,1,2C,3C,C23,2.77258872223978,0.592211590950009,0.5,0.444009499598284,0.5,0.5,0.627207846832059,0.471173799992255,0.5,0.5,0.5,0.649863990965498,0.471173799992255,0.5,0.5,0.471173799992255,0.643609172195554,0.675654868260859,0.324345131739141,0.649863990965498,0.471173799992255,1.1384550091602,0.989694255380539,0.350136009034502,0.020186181252684,0.5,0.0576524000154891,0.85074146859977,4.65666227280335,2.78932541690877,0.5,57.418494826897
CBC_1033,CBC_1033_MSI_AV_v3_Vset6_Aset2_2023-12-13_15h10.11.385.csv,3,34,0,1,z,0,1,3,aud,B,63,1,0B,1B,0,1,z,1.61925809999957,0,1,1,1,1B,0B,B01,2.28238238567653,0.592211590950009,0.5,0.444009499598284,0.5,0.5,0.627207846832059,0.471173799992255,0.5,0.5,0.5,0.670050172218182,0.471173799992255,0.5,0.5,0.471173799992255,0.643609172195554,0.627207846832059,0.372792153167941,0.627207846832059,0.5,0.709001039409954,0.964603588992445,0.372792153167941,0.0214923623370736,0.5,0.0576524000154891,0.85074146859977,4.65666227280335,2.78932541690877,0.5,57.418494826897
CBC_1033,CBC_1033_MSI_AV_v3_Vset6_Aset2_2023-12-13_15h10.11.385.csv,3,35,1,0,z,0,1,1,aud,A,63,1,1A,0A,0,1,z,1.83421719999933,0,1,1,1,0A,1A,A10,2.52572864430826,0.592211590950009,0.5,0.444009499598284,0.5,0.5,0.648700209169133,0.471173799992255,0.5,0.5,0.5,0.670050172218182,0.471173799992255,0.5,0.5,0.471173799992255,0.643609172195554,0.592211590950009,0.407788409049991,0.592211590950009,0.5,0.488907978845097,0.916727206143209,0.407788409049991,0.02350998048023,0.5,0.0576524000154891,0.85074146859977,4.65666227280335,2.78932541690877,0.5,57.418494826897
CBC_1033,CBC_1033_MSI_AV_v3_Vset6_Aset2_2023-12-13_15h10.11.385.csv,3,36,2,1,b,1,0,0,aud,C,9,1,2C,1C,1,0,b,3.17455199999949,1,0,1,1,2C,1C,C21,3.93182563272433,0.615721571430239,0.5,0.444009499598284,0.5,0.5,0.648700209169133,0.471173799992255,0.5,0.5,0.5,0.670050172218182,0.471173799992255,0.5,0.5,0.471173799992255,0.643609172195554,0.670050172218182,0.329949827781818,0.670050172218182,0.5,0.0458581372815536,0.9880204027663,0.329949827781818,0.0190223994563191,0.5,0.0576524000154891,0.85074146859977,4.65666227280335,2.78932541690877,0.5,57.418494826897
CBC_1033,CBC_1033_MSI_AV_v3_Vset6_Aset2_2023-12-13_15h10.11.385.csv,3,37,0,1,b,1,0,1,aud,A,63,1,0A,1A,1,0,b,3.20553269999891,1,0,1,1,0A,1A,A01,2.85263142991332,0.615721571430239,0.5,0.444009499598284,0.5,0.5,0.648700209169133,0.471173799992255,0.5,0.5,0.5,0.689072571674501,0.471173799992255,0.5,0.5,0.471173799992255,0.643609172195554,0.615721571430239,0.384278428569761,0.615721571430239,0.5,0.104079999821996,0.952593566339326,0.384278428569761,0.0221545736812274,0.5,0.0576524000154891,0.85074146859977,4.65666227280335,2.78932541690877,0.5,57.418494826897
CBC_1033,CBC_1033_MSI_AV_v3_Vset6_Aset2_2023-12-13_15h10.11.385.csv,3,38,1,3,z,0,1,2,aud,D,27,1,1D,3D,0,1,z,1.8710130999998,0,1,1,1,3D,1D,D13,3.27714473299218,0.637876145111466,0.5,0.444009499598284,0.5,0.5,0.648700209169133,0.471173799992255,0.5,0.5,0.5,0.689072571674501,0.471173799992255,0.5,0.5,0.471173799992255,0.643609172195554,0.643609172195554,0.356390827804446,0.643609172195554,0.5,0.53884588439441,0.976523919254774,0.356390827804446,0.0205467865664332,0.5,0.0576524000154891,0.85074146859977,4.65666227280335,2.78932541690877,0.5,57.418494826897
CBC_1033,CBC_1033_MSI_AV_v3_Vset6_Aset2_2023-12-13_15h10.11.385.csv,3,39,1,0,b,1,0,3,aud,B,63,1,1B,0B,1,0,b,1.77498129999822,1,0,1,1,1B,0B,B10,3.29583686600433,0.637876145111466,0.5,0.444009499598284,0.5,0.5,0.648700209169133,0.471173799992255,0.5,0.5,0.5,0.689072571674501,0.471173799992255,0.5,0.5,0.471173799992255,0.664155958761987,0.648700209169133,0.351299790830867,0.648700209169133,0.5,0.621414684638376,0.979490672943734,0.351299790830867,0.0202532760663388,0.5,0.0576524000154891,0.85074146859977,4.65666227280335,2.78932541690877,0.5,57.418494826897
CBC_1033,CBC_1033_MSI_AV_v3_Vset6_Aset2_2023-12-13_15h10.11.385.csv,3,40,3,2,z,0,1,0,aud,C,63,0,3C,2C,1,0,z,0.996261499999491,0,1,1,0,2C,3C,C32,2.90872089656436,0.637876145111466,0.5,0.444009499598284,0.5,0.5,0.668953485235471,0.471173799992255,0.5,0.5,0.5,0.689072571674501,0.471173799992255,0.5,0.5,0.471173799992255,0.664155958761987,0.713249719856342,0.286750280143658,0.689072571674501,0.471173799992255,0.150402527222135,0.996097885961143,-0.689072571674501,-0.0397266875418801,0.5,0.0576524000154891,0.85074146859977,4.65666227280335,2.78932541690877,0.5,57.418494826897
CBC_1033,CBC_1033_MSI_AV_v3_Vset6_Aset2_2023-12-13_15h10.11.385.csv,3,41,0,2,b,1,0,1,aud,A,27,1,0A,2A,1,0,b,2.13562039999942,1,0,1,1,0A,2A,A02,3.3322045101752,0.637876145111466,0.5,0.444009499598284,0.5,0.5,0.668953485235471,0.471173799992255,0.5,0.5,0.5,0.649345884132621,0.471173799992255,0.5,0.5,0.471173799992255,0.664155958761987,0.688059551348645,0.311940448651355,0.637876145111466,0.444009499598284,0.285411328612652,0.992488547799497,0.362123854888534,0.0208773093371847,0.5,0.0576524000154891,0.85074146859977,4.65666227280335,2.78932541690877,0.5,57.418494826897
CBC_1033,CBC_1033_MSI_AV_v3_Vset6_Aset2_2023-12-13_15h10.11.385.csv,3,42,2,3,z,0,1,2,aud,D,63,1,2D,3D,0,1,z,1.39962649999961,0,1,1,1,3D,2D,D23,4.04305126783455,0.658753454448651,0.5,0.444009499598284,0.5,0.5,0.668953485235471,0.471173799992255,0.5,0.5,0.5,0.649345884132621,0.471173799992255,0.5,0.5,0.471173799992255,0.664155958761987,0.689397253242476,0.310602746757524,0.664155958761987,0.471173799992255,1.15854923717126,0.992723644893189,0.335844041238013,0.0193622150082723,0.5,0.0576524000154891,0.85074146859977,4.65666227280335,2.78932541690877,0.5,57.418494826897
CBC_1033,CBC_1033_MSI_AV_v3_Vset6_Aset2_2023-12-13_15h10.11.385.csv,3,43,1,3,b,1,0,3,aud,B,27,1,1B,3B,1,0,b,1.48064059999797,1,0,1,1,1B,3B,B13,3.36729582998647,0.658753454448651,0.5,0.444009499598284,0.5,0.5,0.668953485235471,0.471173799992255,0.5,0.5,0.5,0.649345884132621,0.471173799992255,0.5,0.5,0.471173799992255,0.68351817377026,0.668953485235471,0.331046514764529,0.668953485235471,0.5,0.977864439178849,0.987728099987097,0.331046514764529,0.0190856260929381,0.5,0.0576524000154891,0.85074146859977,4.65666227280335,2.78932541690877,0.5,57.418494826897
CBC_1033,CBC_1033_MSI_AV_v3_Vset6_Aset2_2023-12-13_15h10.11.385.csv,3,44,3,2,z,0,1,0,aud,C,63,1,3C,2C,0,1,z,1.31135149999955,0,1,1,1,2C,3C,C32,2.69124308278583,0.658753454448651,0.5,0.444009499598284,0.5,0.5,0.68803911132841,0.471173799992255,0.5,0.5,0.5,0.649345884132621,0.471173799992255,0.5,0.5,0.471173799992255,0.68351817377026,0.675155848356887,0.324844151643113,0.649345884132621,0.471173799992255,1.13688344915124,0.989588358896026,0.350654115867379,0.0202160513550638,0.5,0.0576524000154891,0.85074146859977,4.65666227280335,2.78932541690877,0.5,57.418494826897
