ID,filename,session,trial,visStimLeft,visStimRight,correctKey,leftCorrect,rightCorrect,secondStim,mod2Type,mod2Stim,frequency,rewardAccurate,stimPairLeft,stimPairRight,pCorrectLeft,pCorrectRight,key,reactionTime,choiceLeft,choiceRight,choiceAccurate,reward,chosenPair,otherPair,triplet,surprise,0A belief,1A belief,2A belief,3A belief,0B belief,1B belief,2B belief,3B belief,0C belief,1C belief,2C belief,3C belief,0D belief,1D belief,2D belief,3D belief,beliefPairNorm,beliefOtherPairNorm,beliefPair,beliefOtherPair,lik,corrLik,rewardPE,update2,fitCBCsimpleRW_CBCdriftDiffusionLR_startBelief,fitCBCsimpleRW_CBCdriftDiffusionLR_alpha1,fitCBCsimpleRW_CBCdriftDiffusionLR_nonDecisionTime,fitCBCsimpleRW_CBCdriftDiffusionLR_weight,fitCBCsimpleRW_CBCdriftDiffusionLR_startingBoundary,fitCBCsimpleRW_CBCdriftDiffusionLR_startingPoint,fit_CBCsimpleRW_CBCdriftDiffusionLR_NLL
CBC_1033,CBC_1033_MSI_AV_v3_Vset1_Aset1_2023-12-13_14h51.00.395.csv,1,1,0,1,b,1,0,1,aud,A,63,1,0A,1A,1,0,b,2.08949329999996,1,0,1,1,0A,1A,A01,2.77258872223978,0.5,0.5,0.5,0.5,0.5,0.5,0.5,0.5,0.5,0.5,0.5,0.5,0.5,0.5,0.5,0.5,0.5,0.5,0.5,0.5,0.15433718185976,0.500885032336676,0.5,0.161157892302979,0.5,0.322315784605957,0.57333973097547,7.02199664631247,2.80237862373168,0.5,23.8784438395453
CBC_1033,CBC_1033_MSI_AV_v3_Vset1_Aset1_2023-12-13_14h51.00.395.csv,1,2,3,2,z,0,1,0,aud,C,63,1,3C,2C,0,1,z,2.01392130000022,0,1,1,1,2C,3C,C32,2.83321334405622,0.661157892302979,0.5,0.5,0.5,0.5,0.5,0.5,0.5,0.5,0.5,0.5,0.5,0.5,0.5,0.5,0.5,0.5,0.5,0.5,0.5,0.161275534318149,0.499468403940039,0.5,0.161157892302979,0.5,0.322315784605957,0.57333973097547,7.02199664631247,2.80237862373168,0.5,23.8784438395453
CBC_1033,CBC_1033_MSI_AV_v3_Vset1_Aset1_2023-12-13_14h51.00.395.csv,1,3,0,2,b,1,0,1,aud,A,27,1,0A,2A,1,0,b,1.20797300000049,1,0,1,1,0A,2A,A02,2.89037175789616,0.661157892302979,0.5,0.5,0.5,0.5,0.5,0.5,0.5,0.5,0.5,0.661157892302979,0.5,0.5,0.5,0.5,0.5,0.569395339501739,0.430604660498261,0.661157892302979,0.5,0.682130488973919,0.938772698239552,0.338842107697021,0.109214159799902,0.5,0.322315784605957,0.57333973097547,7.02199664631247,2.80237862373168,0.5,23.8784438395453
CBC_1033,CBC_1033_MSI_AV_v3_Vset1_Aset1_2023-12-13_14h51.00.395.csv,1,4,1,0,b,1,0,3,aud,B,63,1,1B,0B,1,0,b,1.20005380000021,1,0,1,1,1B,0B,B10,2.94443897916644,0.77037205210288,0.5,0.5,0.5,0.5,0.5,0.5,0.5,0.5,0.5,0.661157892302979,0.5,0.5,0.5,0.5,0.5,0.5,0.5,0.5,0.5,0.235189012790865,0.499867158819663,0.5,0.161157892302979,0.5,0.322315784605957,0.57333973097547,7.02199664631247,2.80237862373168,0.5,23.8784438395453
CBC_1033,CBC_1033_MSI_AV_v3_Vset1_Aset1_2023-12-13_14h51.00.395.csv,1,5,0,1,z,0,1,3,aud,B,63,1,0B,1B,0,1,z,1.27970930000083,0,1,1,1,1B,0B,B01,2.99573227355399,0.77037205210288,0.5,0.5,0.5,0.5,0.661157892302979,0.5,0.5,0.5,0.5,0.661157892302979,0.5,0.5,0.5,0.5,0.5,0.569395339501739,0.430604660498261,0.661157892302979,0.5,0.656112226494471,0.938485149549832,0.338842107697021,0.109214159799902,0.5,0.322315784605957,0.57333973097547,7.02199664631247,2.80237862373168,0.5,23.8784438395453
CBC_1033,CBC_1033_MSI_AV_v3_Vset1_Aset1_2023-12-13_14h51.00.395.csv,1,6,3,2,z,0,1,0,aud,C,63,1,3C,2C,0,1,z,1.44666870000037,0,1,1,1,2C,3C,C32,2.35137525716348,0.77037205210288,0.5,0.5,0.5,0.5,0.77037205210288,0.5,0.5,0.5,0.5,0.661157892302979,0.5,0.5,0.5,0.5,0.5,0.569395339501739,0.430604660498261,0.661157892302979,0.5,0.575107903142742,0.938503939296906,0.338842107697021,0.109214159799902,0.5,0.322315784605957,0.57333973097547,7.02199664631247,2.80237862373168,0.5,23.8784438395453
CBC_1033,CBC_1033_MSI_AV_v3_Vset1_Aset1_2023-12-13_14h51.00.395.csv,1,7,3,1,b,1,0,2,aud,D,27,1,3D,1D,1,0,b,1.31131449999975,1,0,1,1,3D,1D,D31,3.09104245335832,0.77037205210288,0.5,0.5,0.5,0.5,0.77037205210288,0.5,0.5,0.5,0.5,0.77037205210288,0.5,0.5,0.5,0.5,0.5,0.5,0.5,0.5,0.5,0.233248472113281,0.500242648280451,0.5,0.161157892302979,0.5,0.322315784605957,0.57333973097547,7.02199664631247,2.80237862373168,0.5,23.8784438395453
CBC_1033,CBC_1033_MSI_AV_v3_Vset1_Aset1_2023-12-13_14h51.00.395.csv,1,8,1,2,z,0,1,0,aud,C,9,1,1C,2C,0,1,z,1.67217550000078,0,1,1,1,2C,1C,C12,3.13549421592915,0.77037205210288,0.5,0.5,0.5,0.5,0.77037205210288,0.5,0.5,0.5,0.5,0.77037205210288,0.5,0.5,0.5,0.5,0.661157892302979,0.606414515202584,0.393585484797416,0.77037205210288,0.5,0.471766474102992,0.984962765866974,0.22962794789712,0.074012712193916,0.5,0.322315784605957,0.57333973097547,7.02199664631247,2.80237862373168,0.5,23.8784438395453
CBC_1033,CBC_1033_MSI_AV_v3_Vset1_Aset1_2023-12-13_14h51.00.395.csv,1,9,3,1,z,0,1,3,aud,B,27,1,3B,1B,0,1,z,1.68694720000076,0,1,1,1,1B,3B,B31,3.17805383034795,0.77037205210288,0.5,0.5,0.5,0.5,0.77037205210288,0.5,0.5,0.5,0.5,0.844384764296796,0.5,0.5,0.5,0.5,0.661157892302979,0.606414515202584,0.393585484797416,0.77037205210288,0.5,0.460220920237399,0.984948966453293,0.22962794789712,0.074012712193916,0.5,0.322315784605957,0.57333973097547,7.02199664631247,2.80237862373168,0.5,23.8784438395453
CBC_1033,CBC_1033_MSI_AV_v3_Vset1_Aset1_2023-12-13_14h51.00.395.csv,1,10,3,2,b,1,0,2,aud,D,63,1,3D,2D,1,0,b,1.58024110000042,1,0,1,1,3D,2D,D32,3.2188758248682,0.77037205210288,0.5,0.5,0.5,0.5,0.844384764296796,0.5,0.5,0.5,0.5,0.844384764296796,0.5,0.5,0.5,0.5,0.661157892302979,0.569395339501739,0.430604660498261,0.661157892302979,0.5,0.50624248092538,0.938828546088787,0.338842107697021,0.109214159799902,0.5,0.322315784605957,0.57333973097547,7.02199664631247,2.80237862373168,0.5,23.8784438395453
CBC_1033,CBC_1033_MSI_AV_v3_Vset1_Aset1_2023-12-13_14h51.00.395.csv,1,11,1,0,b,1,0,3,aud,B,63,1,1B,0B,1,0,b,1.50970469999993,1,0,1,1,1B,0B,B10,2.56494935746154,0.77037205210288,0.5,0.5,0.5,0.5,0.844384764296796,0.5,0.5,0.5,0.5,0.844384764296796,0.5,0.5,0.5,0.5,0.77037205210288,0.628082664071596,0.371917335928404,0.844384764296796,0.5,0.590856373714071,0.993554550630245,0.155615235703204,0.050157246792319,0.5,0.322315784605957,0.57333973097547,7.02199664631247,2.80237862373168,0.5,23.8784438395453
CBC_1033,CBC_1033_MSI_AV_v3_Vset1_Aset1_2023-12-13_14h51.00.395.csv,1,12,0,2,z,0,1,0,aud,C,27,1,0C,2C,0,1,z,1.45184109999991,0,1,1,1,2C,0C,C02,3.29583686600433,0.77037205210288,0.5,0.5,0.5,0.5,0.894542011089115,0.5,0.5,0.5,0.5,0.844384764296796,0.5,0.5,0.5,0.5,0.77037205210288,0.628082664071596,0.371917335928404,0.844384764296796,0.5,0.66639528322709,0.993565775920366,0.155615235703204,0.050157246792319,0.5,0.322315784605957,0.57333973097547,7.02199664631247,2.80237862373168,0.5,23.8784438395453
CBC_1033,CBC_1033_MSI_AV_v3_Vset1_Aset1_2023-12-13_14h51.00.395.csv,1,13,3,2,b,1,0,2,aud,D,63,0,3D,2D,0,1,b,1.46097090000058,1,0,1,0,3D,2D,D32,2.63905732961526,0.77037205210288,0.5,0.5,0.5,0.5,0.894542011089115,0.5,0.5,0.5,0.5,0.894542011089115,0.5,0.5,0.5,0.5,0.77037205210288,0.606414515202584,0.393585484797416,0.77037205210288,0.5,0.666028863703897,0.985033043628758,-0.77037205210288,-0.248303072412041,0.5,0.322315784605957,0.57333973097547,7.02199664631247,2.80237862373168,0.5,23.8784438395453
CBC_1033,CBC_1033_MSI_AV_v3_Vset1_Aset1_2023-12-13_14h51.00.395.csv,1,14,1,0,z,0,1,1,aud,A,63,1,1A,0A,0,1,z,1.07982549999997,0,1,1,1,0A,1A,A10,3.36729582998647,0.77037205210288,0.5,0.5,0.5,0.5,0.894542011089115,0.5,0.5,0.5,0.5,0.894542011089115,0.5,0.5,0.5,0.5,0.522068979690839,0.606414515202584,0.393585484797416,0.77037205210288,0.5,1.02934607194398,0.985045591569289,0.22962794789712,0.074012712193916,0.5,0.322315784605957,0.57333973097547,7.02199664631247,2.80237862373168,0.5,23.8784438395453
CBC_1033,CBC_1033_MSI_AV_v3_Vset1_Aset1_2023-12-13_14h51.00.395.csv,1,15,2,3,b,1,0,0,aud,C,63,1,2C,3C,1,0,b,1.54134770000019,1,0,1,1,2C,3C,C23,3.40119738166216,0.844384764296796,0.5,0.5,0.5,0.5,0.894542011089115,0.5,0.5,0.5,0.5,0.894542011089115,0.5,0.5,0.5,0.5,0.522068979690839,0.641459349360506,0.358540650639494,0.894542011089115,0.5,0.509809346498207,0.996179259427341,0.105457988910885,0.0339907744387781,0.5,0.322315784605957,0.57333973097547,7.02199664631247,2.80237862373168,0.5,23.8784438395453
CBC_1033,CBC_1033_MSI_AV_v3_Vset1_Aset1_2023-12-13_14h51.00.395.csv,1,16,0,2,b,1,0,1,aud,A,27,1,0A,2A,1,0,b,0.998756900000444,1,0,1,1,0A,2A,A02,2.7408400239252,0.844384764296796,0.5,0.5,0.5,0.5,0.894542011089115,0.5,0.5,0.5,0.5,0.928532785527893,0.5,0.5,0.5,0.5,0.522068979690839,0.628082664071596,0.371917335928404,0.844384764296796,0.5,1.25192628951825,0.993562713974569,0.155615235703204,0.050157246792319,0.5,0.322315784605957,0.57333973097547,7.02199664631247,2.80237862373168,0.5,23.8784438395453
CBC_1033,CBC_1033_MSI_AV_v3_Vset1_Aset1_2023-12-13_14h51.00.395.csv,1,17,2,3,z,0,1,2,aud,D,63,1,2D,3D,0,1,z,1.88948849999997,0,1,1,1,3D,2D,D23,3.46573590279973,0.894542011089115,0.5,0.5,0.5,0.5,0.894542011089115,0.5,0.5,0.5,0.5,0.928532785527893,0.5,0.5,0.5,0.5,0.522068979690839,0.510796228106597,0.489203771893403,0.522068979690839,0.5,0.212259053298525,0.604650193297829,0.477931020309161,0.154044711798473,0.5,0.322315784605957,0.57333973097547,7.02199664631247,2.80237862373168,0.5,23.8784438395453
CBC_1033,CBC_1033_MSI_AV_v3_Vset1_Aset1_2023-12-13_14h51.00.395.csv,1,18,3,2,b,1,0,2,aud,D,63,1,3D,2D,1,0,b,1.36069330000009,1,0,1,1,3D,2D,D32,2.39789527279837,0.894542011089115,0.5,0.5,0.5,0.5,0.894542011089115,0.5,0.5,0.5,0.5,0.928532785527893,0.5,0.5,0.5,0.5,0.676113691489312,0.574871031926471,0.425128968073529,0.676113691489312,0.5,0.649453840783057,0.950159965815307,0.323886308510688,0.10439366965075,0.5,0.322315784605957,0.57333973097547,7.02199664631247,2.80237862373168,0.5,23.8784438395453
CBC_1033,CBC_1033_MSI_AV_v3_Vset1_Aset1_2023-12-13_14h51.00.395.csv,1,19,3,1,z,0,1,3,aud,B,27,1,3B,1B,0,1,z,1.31639020000057,0,1,1,1,1B,3B,B31,2.83321334405622,0.894542011089115,0.5,0.5,0.5,0.5,0.894542011089115,0.5,0.5,0.5,0.5,0.928532785527893,0.5,0.5,0.5,0.5,0.780507361140061,0.641459349360506,0.358540650639494,0.894542011089115,0.5,0.869315060375869,0.9962021279966,0.105457988910885,0.0339907744387781,0.5,0.322315784605957,0.57333973097547,7.02199664631247,2.80237862373168,0.5,23.8784438395453
CBC_1033,CBC_1033_MSI_AV_v3_Vset1_Aset1_2023-12-13_14h51.00.395.csv,1,20,0,3,z,0,1,2,aud,D,9,1,0D,3D,0,1,z,1.45568999999978,0,1,1,1,3D,0D,D03,3.55534806148941,0.894542011089115,0.5,0.5,0.5,0.5,0.928532785527893,0.5,0.5,0.5,0.5,0.928532785527893,0.5,0.5,0.5,0.5,0.780507361140061,0.609529772984015,0.390470227015985,0.780507361140061,0.5,0.673468624051681,0.986801567811329,0.219492638859939,0.0707459421093731,0.5,0.322315784605957,0.57333973097547,7.02199664631247,2.80237862373168,0.5,23.8784438395453
CBC_1033,CBC_1033_MSI_AV_v3_Vset1_Aset1_2023-12-13_14h51.00.395.csv,1,21,1,0,b,1,0,3,aud,B,63,1,1B,0B,1,0,b,1.20577370000046,1,0,1,1,1B,0B,B10,2.484906649788,0.894542011089115,0.5,0.5,0.5,0.5,0.928532785527893,0.5,0.5,0.5,0.5,0.928532785527893,0.5,0.5,0.5,0.5,0.851253303249434,0.649990532198229,0.350009467801771,0.928532785527893,0.5,1.10745892669629,0.997297780637257,0.0714672144721066,0.0230350113061792,0.5,0.322315784605957,0.57333973097547,7.02199664631247,2.80237862373168,0.5,23.8784438395453
CBC_1033,CBC_1033_MSI_AV_v3_Vset1_Aset1_2023-12-13_14h51.00.395.csv,1,22,1,0,z,0,1,1,aud,A,63,1,1A,0A,0,1,z,0.820714999999836,0,1,1,1,0A,1A,A10,2.91777073208428,0.894542011089115,0.5,0.5,0.5,0.5,0.951567796834073,0.5,0.5,0.5,0.5,0.928532785527893,0.5,0.5,0.5,0.5,0.851253303249434,0.641459349360506,0.358540650639494,0.894542011089115,0.5,0.851334400776632,0.996173030028671,0.105457988910885,0.0339907744387781,0.5,0.322315784605957,0.57333973097547,7.02199664631247,2.80237862373168,0.5,23.8784438395453
CBC_1033,CBC_1033_MSI_AV_v3_Vset1_Aset1_2023-12-13_14h51.00.395.csv,1,23,2,3,b,1,0,0,aud,C,63,1,2C,3C,1,0,b,1.32429730000058,1,0,1,1,2C,3C,C23,2.94443897916644,0.928532785527893,0.5,0.5,0.5,0.5,0.951567796834073,0.5,0.5,0.5,0.5,0.928532785527893,0.5,0.5,0.5,0.5,0.851253303249434,0.649990532198229,0.350009467801771,0.928532785527893,0.5,0.840557998718998,0.997270603658189,0.0714672144721066,0.0230350113061792,0.5,0.322315784605957,0.57333973097547,7.02199664631247,2.80237862373168,0.5,23.8784438395453
CBC_1033,CBC_1033_MSI_AV_v3_Vset1_Aset1_2023-12-13_14h51.00.395.csv,1,24,0,2,b,1,0,1,aud,A,27,1,0A,2A,1,0,b,0.713290200000301,1,0,1,1,0A,2A,A02,2.56494935746154,0.928532785527893,0.5,0.5,0.5,0.5,0.951567796834073,0.5,0.5,0.5,0.5,0.951567796834073,0.5,0.5,0.5,0.5,0.851253303249434,0.649990532198229,0.350009467801771,0.928532785527893,0.5,0.134583175178675,0.997274176560318,0.0714672144721066,0.0230350113061792,0.5,0.322315784605957,0.57333973097547,7.02199664631247,2.80237862373168,0.5,23.8784438395453
CBC_1033,CBC_1033_MSI_AV_v3_Vset1_Aset1_2023-12-13_14h51.00.395.csv,1,25,1,0,b,1,0,3,aud,B,63,1,1B,0B,1,0,b,1.02836300000035,1,0,1,1,1B,0B,B10,2.30258509299405,0.951567796834073,0.5,0.5,0.5,0.5,0.951567796834073,0.5,0.5,0.5,0.5,0.951567796834073,0.5,0.5,0.5,0.5,0.851253303249434,0.655544852200138,0.344455147799862,0.951567796834073,0.5,1.5171657988499,0.997803439841118,0.0484322031659273,0.015610463563621,0.5,0.322315784605957,0.57333973097547,7.02199664631247,2.80237862373168,0.5,23.8784438395453
CBC_1033,CBC_1033_MSI_AV_v3_Vset1_Aset1_2023-12-13_14h51.00.395.csv,1,26,2,3,z,0,1,2,aud,D,63,1,2D,3D,0,1,z,1.46188260000054,0,1,1,1,3D,2D,D23,3.02042488614436,0.951567796834073,0.5,0.5,0.5,0.5,0.967178260397694,0.5,0.5,0.5,0.5,0.951567796834073,0.5,0.5,0.5,0.5,0.851253303249434,0.629973152481757,0.370026847518242,0.851253303249434,0.5,0.649030662771916,0.994036996686959,0.148746696750566,0.0479434082707029,0.5,0.322315784605957,0.57333973097547,7.02199664631247,2.80237862373168,0.5,23.8784438395453
CBC_1033,CBC_1033_MSI_AV_v3_Vset1_Aset1_2023-12-13_14h51.00.395.csv,1,27,1,2,b,1,0,3,aud,B,9,1,1B,2B,1,0,b,2.26401040000019,1,0,1,1,1B,2B,B12,3.73766961828337,0.951567796834073,0.5,0.5,0.5,0.5,0.967178260397694,0.5,0.5,0.5,0.5,0.951567796834073,0.5,0.5,0.5,0.5,0.899196711520137,0.659209781458682,0.340790218541317,0.967178260397694,0.5,0.0462074897464459,0.998108612665871,0.0328217396023064,0.0105789647520498,0.5,0.322315784605957,0.57333973097547,7.02199664631247,2.80237862373168,0.5,23.8784438395453
CBC_1033,CBC_1033_MSI_AV_v3_Vset1_Aset1_2023-12-13_14h51.00.395.csv,1,28,1,3,z,0,1,2,aud,D,27,1,1D,3D,0,1,z,2.51908509999976,0,1,1,1,3D,1D,D13,3.76120011569356,0.951567796834073,0.5,0.5,0.5,0.5,0.977757225149743,0.5,0.5,0.5,0.5,0.951567796834073,0.5,0.5,0.5,0.5,0.899196711520137,0.642652104680276,0.357347895319724,0.899196711520137,0.5,0.0395054840730856,0.996346212665911,0.100803288479863,0.0324904910172476,0.5,0.322315784605957,0.57333973097547,7.02199664631247,2.80237862373168,0.5,23.8784438395453
CBC_1033,CBC_1033_MSI_AV_v3_Vset1_Aset1_2023-12-13_14h51.00.395.csv,1,29,1,0,z,0,1,1,aud,A,63,1,1A,0A,0,1,z,0.916380400000889,0,1,1,1,0A,1A,A10,2.68557734525015,0.951567796834073,0.5,0.5,0.5,0.5,0.977757225149743,0.5,0.5,0.5,0.5,0.951567796834073,0.5,0.5,0.5,0.5,0.931687202537385,0.655544852200138,0.344455147799862,0.951567796834073,0.5,1.49784961384573,0.997810783572012,0.0484322031659273,0.015610463563621,0.5,0.322315784605957,0.57333973097547,7.02199664631247,2.80237862373168,0.5,23.8784438395453
CBC_1033,CBC_1033_MSI_AV_v3_Vset1_Aset1_2023-12-13_14h51.00.395.csv,1,30,0,1,b,1,0,1,aud,A,63,1,0A,1A,1,0,b,0.985610500000803,1,0,1,1,0A,1A,A01,3.11351530921037,0.967178260397694,0.5,0.5,0.5,0.5,0.977757225149743,0.5,0.5,0.5,0.5,0.951567796834073,0.5,0.5,0.5,0.5,0.931687202537385,0.659209781458682,0.340790218541317,0.967178260397694,0.5,1.59787339439689,0.998102379564899,0.0328217396023064,0.0105789647520498,0.5,0.322315784605957,0.57333973097547,7.02199664631247,2.80237862373168,0.5,23.8784438395453
CBC_1033,CBC_1033_MSI_AV_v3_Vset1_Aset1_2023-12-13_14h51.00.395.csv,1,31,0,2,z,0,1,0,aud,C,27,1,0C,2C,0,1,z,0.972706300000027,0,1,1,1,2C,0C,C02,3.13549421592915,0.977757225149743,0.5,0.5,0.5,0.5,0.977757225149743,0.5,0.5,0.5,0.5,0.951567796834073,0.5,0.5,0.5,0.5,0.931687202537385,0.655544852200138,0.344455147799862,0.951567796834073,0.5,1.5605285313649,0.997808949550803,0.0484322031659273,0.015610463563621,0.5,0.322315784605957,0.57333973097547,7.02199664631247,2.80237862373168,0.5,23.8784438395453
CBC_1033,CBC_1033_MSI_AV_v3_Vset1_Aset1_2023-12-13_14h51.00.395.csv,1,32,1,0,z,0,1,1,aud,A,63,1,1A,0A,0,1,z,1.06937950000065,0,1,1,1,0A,1A,A10,2.46385324059017,0.977757225149743,0.5,0.5,0.5,0.5,0.977757225149743,0.5,0.5,0.5,0.5,0.967178260397694,0.5,0.5,0.5,0.5,0.931687202537385,0.661649429628514,0.338350570371486,0.977757225149743,0.5,1.48274039100415,0.99827933740486,0.0222427748502566,0.00716919742767411,0.5,0.322315784605957,0.57333973097547,7.02199664631247,2.80237862373168,0.5,23.8784438395453
CBC_1033,CBC_1033_MSI_AV_v3_Vset1_Aset1_2023-12-13_14h51.00.395.csv,1,33,1,0,b,1,0,3,aud,B,63,1,1B,0B,1,0,b,1.08269990000008,1,0,1,1,1B,0B,B10,2.26176309847379,0.984926422577417,0.5,0.5,0.5,0.5,0.977757225149743,0.5,0.5,0.5,0.5,0.967178260397694,0.5,0.5,0.5,0.5,0.931687202537385,0.661649429628514,0.338350570371486,0.977757225149743,0.5,1.45026023908055,0.998283012135384,0.0222427748502566,0.00716919742767411,0.5,0.322315784605957,0.57333973097547,7.02199664631247,2.80237862373168,0.5,23.8784438395453
CBC_1033,CBC_1033_MSI_AV_v3_Vset1_Aset1_2023-12-13_14h51.00.395.csv,1,34,3,2,b,1,0,2,aud,D,63,1,3D,2D,1,0,b,1.33382840000013,1,0,1,1,3D,2D,D32,2.50552593699074,0.984926422577417,0.5,0.5,0.5,0.5,0.984926422577417,0.5,0.5,0.5,0.5,0.967178260397694,0.5,0.5,0.5,0.5,0.931687202537385,0.650761703314908,0.349238296685092,0.931687202537385,0.5,0.81898735935201,0.997355802943402,0.0683127974626151,0.0220182929127906,0.5,0.322315784605957,0.57333973097547,7.02199664631247,2.80237862373168,0.5,23.8784438395453
CBC_1033,CBC_1033_MSI_AV_v3_Vset1_Aset1_2023-12-13_14h51.00.395.csv,1,35,3,1,z,0,1,3,aud,B,27,1,3B,1B,0,1,z,1.87008340000102,0,1,1,1,1B,3B,B31,2.81341071676004,0.984926422577417,0.5,0.5,0.5,0.5,0.984926422577417,0.5,0.5,0.5,0.5,0.967178260397694,0.5,0.5,0.5,0.5,0.953705495450176,0.663282979952542,0.336717020047458,0.984926422577417,0.5,0.145018854513439,0.998381445105997,0.0150735774225825,0.00485845193377833,0.5,0.322315784605957,0.57333973097547,7.02199664631247,2.80237862373168,0.5,23.8784438395453
CBC_1033,CBC_1033_MSI_AV_v3_Vset1_Aset1_2023-12-13_14h51.00.395.csv,1,36,3,2,z,0,1,0,aud,C,63,1,3C,2C,0,1,z,0.972023100000115,0,1,1,1,2C,3C,C32,2.83321334405622,0.984926422577417,0.5,0.5,0.5,0.5,0.989784874511196,0.5,0.5,0.5,0.5,0.967178260397694,0.5,0.5,0.5,0.5,0.953705495450176,0.659209781458682,0.340790218541317,0.967178260397694,0.5,1.60309565871639,0.998104323496387,0.0328217396023064,0.0105789647520498,0.5,0.322315784605957,0.57333973097547,7.02199664631247,2.80237862373168,0.5,23.8784438395453
CBC_1033,CBC_1033_MSI_AV_v3_Vset1_Aset1_2023-12-13_14h51.00.395.csv,1,37,2,0,b,1,0,0,aud,C,27,1,2C,0C,1,0,b,1.02005970000027,1,0,1,1,2C,0C,C20,3.95124371858143,0.984926422577417,0.5,0.5,0.5,0.5,0.989784874511196,0.5,0.5,0.5,0.5,0.977757225149743,0.5,0.5,0.5,0.5,0.953705495450176,0.661649429628514,0.338350570371486,0.977757225149743,0.5,1.58281513515648,0.998273985301534,0.0222427748502566,0.00716919742767411,0.5,0.322315784605957,0.57333973097547,7.02199664631247,2.80237862373168,0.5,23.8784438395453
CBC_1033,CBC_1033_MSI_AV_v3_Vset1_Aset1_2023-12-13_14h51.00.395.csv,1,38,1,0,b,1,0,3,aud,B,63,1,1B,0B,1,0,b,0.94277349999993,1,0,1,1,1B,0B,B10,2.17853244432407,0.984926422577417,0.5,0.5,0.5,0.5,0.989784874511196,0.5,0.5,0.5,0.5,0.984926422577417,0.5,0.5,0.5,0.5,0.953705495450176,0.664381073700958,0.335618926299042,0.989784874511196,0.5,1.65667170968757,0.998449797388259,0.0102151254888042,0.00329249618677224,0.5,0.322315784605957,0.57333973097547,7.02199664631247,2.80237862373168,0.5,23.8784438395453
CBC_1033,CBC_1033_MSI_AV_v3_Vset1_Aset1_2023-12-13_14h51.00.395.csv,1,39,3,0,z,0,1,1,aud,A,9,1,3A,0A,0,1,z,0.921386099999836,0,1,1,1,0A,3A,A30,3.98898404656427,0.984926422577417,0.5,0.5,0.5,0.5,0.993077370697968,0.5,0.5,0.5,0.5,0.984926422577417,0.5,0.5,0.5,0.5,0.953705495450176,0.663282979952542,0.336717020047458,0.984926422577417,0.5,1.61430061304368,0.998383114554914,0.0150735774225825,0.00485845193377833,0.5,0.322315784605957,0.57333973097547,7.02199664631247,2.80237862373168,0.5,23.8784438395453
CBC_1033,CBC_1033_MSI_AV_v3_Vset1_Aset1_2023-12-13_14h51.00.395.csv,1,40,3,2,z,0,1,0,aud,C,63,0,3C,2C,1,0,z,0.899935000000369,0,1,1,0,2C,3C,C32,2.62103882411258,0.989784874511196,0.5,0.5,0.5,0.5,0.993077370697968,0.5,0.5,0.5,0.5,0.984926422577417,0.5,0.5,0.5,0.5,0.953705495450176,0.663282979952542,0.336717020047458,0.984926422577417,0.5,1.560726341704,0.998380980299198,-0.984926422577417,-0.317457332672179,0.5,0.322315784605957,0.57333973097547,7.02199664631247,2.80237862373168,0.5,23.8784438395453
CBC_1033,CBC_1033_MSI_AV_v3_Vset1_Aset1_2023-12-13_14h51.00.395.csv,1,41,1,0,z,0,1,1,aud,A,63,1,1A,0A,0,1,z,0.906697499999609,0,1,1,1,0A,1A,A10,2.41591377830105,0.989784874511196,0.5,0.5,0.5,0.5,0.993077370697968,0.5,0.5,0.5,0.5,0.667469089905239,0.5,0.5,0.5,0.5,0.953705495450176,0.664381073700958,0.335618926299042,0.989784874511196,0.5,1.59689543772388,0.998453901081752,0.0102151254888042,0.00329249618677224,0.5,0.322315784605957,0.57333973097547,7.02199664631247,2.80237862373168,0.5,23.8784438395453
CBC_1033,CBC_1033_MSI_AV_v3_Vset1_Aset1_2023-12-13_14h51.00.395.csv,1,42,3,2,b,1,0,2,aud,D,63,1,3D,2D,1,0,b,1.47624590000032,1,0,1,1,3D,2D,D32,2.43361335540045,0.993077370697968,0.5,0.5,0.5,0.5,0.993077370697968,0.5,0.5,0.5,0.5,0.667469089905239,0.5,0.5,0.5,0.5,0.953705495450176,0.656051379344093,0.343948620655907,0.953705495450176,0.5,0.541873019143104,0.997843419690169,0.0462945045498244,0.0149214495569207,0.5,0.322315784605957,0.57333973097547,7.02199664631247,2.80237862373168,0.5,23.8784438395453
CBC_1033,CBC_1033_MSI_AV_v3_Vset1_Aset1_2023-12-13_14h51.00.395.csv,1,43,2,3,b,1,0,0,aud,C,63,1,2C,3C,1,0,b,1.55395700000099,1,0,1,1,2C,3C,C23,2.96183072187831,0.993077370697968,0.5,0.5,0.5,0.5,0.993077370697968,0.5,0.5,0.5,0.5,0.667469089905239,0.5,0.5,0.5,0.5,0.968626945007096,0.571723136549522,0.428276863450478,0.667469089905239,0.5,0.527222575871515,0.943993599497087,0.332530910094761,0.107179961192926,0.5,0.322315784605957,0.57333973097547,7.02199664631247,2.80237862373168,0.5,23.8784438395453
CBC_1033,CBC_1033_MSI_AV_v3_Vset1_Aset1_2023-12-13_14h51.00.395.csv,1,44,1,3,z,0,1,2,aud,D,27,1,1D,3D,0,1,z,2.05274770000051,0,1,1,1,3D,1D,D13,3.38439026334577,0.993077370697968,0.5,0.5,0.5,0.5,0.993077370697968,0.5,0.5,0.5,0.5,0.774649051098165,0.5,0.5,0.5,0.5,0.968626945007096,0.65954594412158,0.340454055878421,0.968626945007096,0.5,0.0887527452442815,0.998129033262723,0.0313730549929037,0.0101120308355236,0.5,0.322315784605957,0.57333973097547,7.02199664631247,2.80237862373168,0.5,23.8784438395453
CBC_1033,CBC_1033_MSI_TV_v3_Vset2_Tset3_2023-12-13_15h01.20.123.csv,2,1,0,1,z,0,1,3,tac,B,63,1,0B,1B,0,1,z,1.43948470000032,0,1,1,1,1B,0B,B01,2.77258872223978,0.5,0.5,0.5,0.5,0.5,0.5,0.5,0.5,0.5,0.5,0.5,0.5,0.5,0.5,0.5,0.5,0.5,0.5,0.5,0.5,0.390668406128015,0.49974460877948,0.5,0.0182340353646462,0.5,0.0364680707292924,1.05482195989047,7.50209059160986,2.17513969812029,0.5,64.0189805028913
CBC_1033,CBC_1033_MSI_TV_v3_Vset2_Tset3_2023-12-13_15h01.20.123.csv,2,2,2,3,z,0,1,2,tac,D,63,1,2D,3D,0,1,b,1.66595120000056,1,0,0,0,2D,3D,D23,2.83321334405622,0.5,0.5,0.5,0.5,0.5,0.518234035364646,0.5,0.5,0.5,0.5,0.5,0.5,0.5,0.5,0.5,0.5,0.5,0.5,0.5,0.5,0.343998889325296,0.499116859529815,-0.5,-0.0182340353646462,0.5,0.0364680707292924,1.05482195989047,7.50209059160986,2.17513969812029,0.5,64.0189805028913
CBC_1033,CBC_1033_MSI_TV_v3_Vset2_Tset3_2023-12-13_15h01.20.123.csv,2,3,1,3,b,1,0,3,tac,B,27,1,1B,3B,1,0,b,1.46718910000072,1,0,1,1,1B,3B,B13,2.89037175789616,0.5,0.5,0.5,0.5,0.5,0.518234035364646,0.5,0.5,0.5,0.5,0.5,0.5,0.5,0.5,0.481765964635354,0.5,0.508953754604223,0.491046245395777,0.518234035364646,0.5,0.451411005407826,0.573914322935575,0.481765964635354,0.0175690752732878,0.5,0.0364680707292924,1.05482195989047,7.50209059160986,2.17513969812029,0.5,64.0189805028913
CBC_1033,CBC_1033_MSI_TV_v3_Vset2_Tset3_2023-12-13_15h01.20.123.csv,2,4,3,2,z,0,1,0,tac,C,63,1,3C,2C,0,1,b,1.38276060000044,1,0,0,0,3C,2C,C32,2.94443897916644,0.5,0.5,0.5,0.5,0.5,0.535803110637934,0.5,0.5,0.5,0.5,0.5,0.5,0.5,0.5,0.481765964635354,0.5,0.5,0.5,0.5,0.5,0.380628578048956,0.500034340209865,-0.5,-0.0182340353646462,0.5,0.0364680707292924,1.05482195989047,7.50209059160986,2.17513969812029,0.5,64.0189805028913
CBC_1033,CBC_1033_MSI_TV_v3_Vset2_Tset3_2023-12-13_15h01.20.123.csv,2,5,2,0,b,1,0,0,tac,C,27,1,2C,0C,1,0,z,1.7581097000002,0,1,0,0,0C,2C,C20,2.99573227355399,0.5,0.5,0.5,0.5,0.5,0.535803110637934,0.5,0.5,0.5,0.5,0.5,0.481765964635354,0.5,0.5,0.481765964635354,0.5,0.5,0.5,0.5,0.5,0.316484503189279,0.500520760225593,-0.5,-0.0182340353646462,0.5,0.0364680707292924,1.05482195989047,7.50209059160986,2.17513969812029,0.5,64.0189805028913
CBC_1033,CBC_1033_MSI_TV_v3_Vset2_Tset3_2023-12-13_15h01.20.123.csv,2,6,3,0,z,0,1,1,tac,A,9,1,3A,0A,0,1,b,1.75543469999957,1,0,0,0,3A,0A,A30,3.04452243772342,0.5,0.5,0.5,0.5,0.5,0.535803110637934,0.5,0.5,0.481765964635354,0.5,0.5,0.481765964635354,0.5,0.5,0.481765964635354,0.5,0.5,0.5,0.5,0.5,0.317083887191316,0.500168167340389,-0.5,-0.0182340353646462,0.5,0.0364680707292924,1.05482195989047,7.50209059160986,2.17513969812029,0.5,64.0189805028913
CBC_1033,CBC_1033_MSI_TV_v3_Vset2_Tset3_2023-12-13_15h01.20.123.csv,2,7,3,2,z,0,1,0,tac,C,63,1,3C,2C,0,1,b,2.71397639999941,1,0,0,0,3C,2C,C32,2.39789527279837,0.5,0.5,0.5,0.481765964635354,0.5,0.535803110637934,0.5,0.5,0.481765964635354,0.5,0.5,0.481765964635354,0.5,0.5,0.481765964635354,0.5,0.490713654770351,0.509286345229649,0.481765964635354,0.5,0.0995839488560306,0.425164942899869,-0.481765964635354,-0.0175690752732878,0.5,0.0364680707292924,1.05482195989047,7.50209059160986,2.17513969812029,0.5,64.0189805028913
CBC_1033,CBC_1033_MSI_TV_v3_Vset2_Tset3_2023-12-13_15h01.20.123.csv,2,8,0,1,b,1,0,1,tac,A,63,1,0A,1A,1,0,b,2.15332579999995,1,0,1,1,0A,1A,A01,3.13549421592915,0.5,0.5,0.5,0.481765964635354,0.5,0.535803110637934,0.5,0.5,0.481765964635354,0.5,0.5,0.464196889362066,0.5,0.5,0.481765964635354,0.5,0.5,0.5,0.5,0.5,0.211054414743822,0.499949544748187,0.5,0.0182340353646462,0.5,0.0364680707292924,1.05482195989047,7.50209059160986,2.17513969812029,0.5,64.0189805028913
CBC_1033,CBC_1033_MSI_TV_v3_Vset2_Tset3_2023-12-13_15h01.20.123.csv,2,9,3,2,b,1,0,2,tac,D,63,1,3D,2D,1,0,z,2.75796530000025,0,1,0,0,2D,3D,D32,3.17805383034795,0.518234035364646,0.5,0.5,0.481765964635354,0.5,0.535803110637934,0.5,0.5,0.481765964635354,0.5,0.5,0.464196889362066,0.5,0.5,0.481765964635354,0.5,0.490713654770351,0.509286345229649,0.481765964635354,0.5,0.095083322773541,0.425187504559877,-0.481765964635354,-0.0175690752732878,0.5,0.0364680707292924,1.05482195989047,7.50209059160986,2.17513969812029,0.5,64.0189805028913
CBC_1033,CBC_1033_MSI_TV_v3_Vset2_Tset3_2023-12-13_15h01.20.123.csv,2,10,2,3,b,1,0,0,tac,C,63,1,2C,3C,1,0,z,2.91653880000013,0,1,0,0,3C,2C,C23,3.2188758248682,0.518234035364646,0.5,0.5,0.481765964635354,0.5,0.535803110637934,0.5,0.5,0.481765964635354,0.5,0.5,0.464196889362066,0.5,0.5,0.464196889362066,0.5,0.481433713885127,0.518566286114873,0.464196889362066,0.5,0.0654058155448852,0.352782225878261,-0.464196889362066,-0.0169283649935733,0.5,0.0364680707292924,1.05482195989047,7.50209059160986,2.17513969812029,0.5,64.0189805028913
CBC_1033,CBC_1033_MSI_TV_v3_Vset2_Tset3_2023-12-13_15h01.20.123.csv,2,11,1,3,z,0,1,2,tac,D,27,1,1D,3D,0,1,z,2.53118480000012,0,1,1,1,3D,1D,D13,3.25809653802148,0.518234035364646,0.5,0.5,0.481765964635354,0.5,0.535803110637934,0.5,0.5,0.481765964635354,0.5,0.5,0.447268524368493,0.5,0.5,0.464196889362066,0.5,0.5,0.5,0.5,0.5,0.142090252065249,0.499032350554775,0.5,0.0182340353646462,0.5,0.0364680707292924,1.05482195989047,7.50209059160986,2.17513969812029,0.5,64.0189805028913
CBC_1033,CBC_1033_MSI_TV_v3_Vset2_Tset3_2023-12-13_15h01.20.123.csv,2,12,1,0,z,0,1,1,tac,A,63,0,1A,0A,1,0,z,2.4203950000001,0,1,1,0,0A,1A,A10,3.29583686600433,0.518234035364646,0.5,0.5,0.481765964635354,0.5,0.535803110637934,0.5,0.5,0.481765964635354,0.5,0.5,0.447268524368493,0.5,0.5,0.464196889362066,0.518234035364646,0.508953754604223,0.491046245395777,0.518234035364646,0.5,0.182677675180749,0.572539677381326,-0.518234035364646,-0.0188989954560045,0.5,0.0364680707292924,1.05482195989047,7.50209059160986,2.17513969812029,0.5,64.0189805028913
CBC_1033,CBC_1033_MSI_TV_v3_Vset2_Tset3_2023-12-13_15h01.20.123.csv,2,13,2,3,b,1,0,0,tac,C,63,1,2C,3C,1,0,b,2.83241519999956,1,0,1,1,2C,3C,C23,2.63905732961526,0.499335039908642,0.5,0.5,0.481765964635354,0.5,0.535803110637934,0.5,0.5,0.481765964635354,0.5,0.5,0.447268524368493,0.5,0.5,0.464196889362066,0.518234035364646,0.527833435966144,0.472166564033857,0.5,0.447268524368493,0.140234820325401,0.712563481713836,0.5,0.0182340353646462,0.5,0.0364680707292924,1.05482195989047,7.50209059160986,2.17513969812029,0.5,64.0189805028913
CBC_1033,CBC_1033_MSI_TV_v3_Vset2_Tset3_2023-12-13_15h01.20.123.csv,2,14,0,2,b,1,0,1,tac,A,27,1,0A,2A,1,0,b,2.36901089999992,1,0,1,1,0A,2A,A02,3.36729582998647,0.499335039908642,0.5,0.5,0.481765964635354,0.5,0.535803110637934,0.5,0.5,0.481765964635354,0.5,0.518234035364646,0.447268524368493,0.5,0.5,0.464196889362066,0.518234035364646,0.499667298721248,0.500332701278752,0.499335039908642,0.5,0.167682740229547,0.4972883992146,0.500664960091358,0.01825828517629,0.5,0.0364680707292924,1.05482195989047,7.50209059160986,2.17513969812029,0.5,64.0189805028913
CBC_1033,CBC_1033_MSI_TV_v3_Vset2_Tset3_2023-12-13_15h01.20.123.csv,2,15,0,1,z,0,1,3,tac,B,63,1,0B,1B,0,1,z,1.22095440000066,0,1,1,1,1B,0B,B01,2.70805020110221,0.517593325084932,0.5,0.5,0.481765964635354,0.5,0.535803110637934,0.5,0.5,0.481765964635354,0.5,0.518234035364646,0.447268524368493,0.5,0.5,0.464196889362066,0.518234035364646,0.517282778102435,0.482717221897565,0.535803110637934,0.5,0.240248249055601,0.637317500084314,0.464196889362066,0.0169283649935733,0.5,0.0364680707292924,1.05482195989047,7.50209059160986,2.17513969812029,0.5,64.0189805028913
CBC_1033,CBC_1033_MSI_TV_v3_Vset2_Tset3_2023-12-13_15h01.20.123.csv,2,16,3,2,b,1,0,2,tac,D,63,1,3D,2D,1,0,z,2.60897159999968,0,1,0,0,2D,3D,D32,2.7408400239252,0.517593325084932,0.5,0.5,0.481765964635354,0.5,0.552731475631507,0.5,0.5,0.481765964635354,0.5,0.518234035364646,0.447268524368493,0.5,0.5,0.464196889362066,0.518234035364646,0.472498246623491,0.527501753376509,0.464196889362066,0.518234035364646,0.0735137608696401,0.289888032433113,-0.464196889362066,-0.0169283649935733,0.5,0.0364680707292924,1.05482195989047,7.50209059160986,2.17513969812029,0.5,64.0189805028913
CBC_1033,CBC_1033_MSI_TV_v3_Vset2_Tset3_2023-12-13_15h01.20.123.csv,2,17,1,2,b,1,0,3,tac,B,9,1,1B,2B,1,0,b,1.65494690000014,1,0,1,1,1B,2B,B12,3.46573590279973,0.517593325084932,0.5,0.5,0.481765964635354,0.5,0.552731475631507,0.5,0.5,0.481765964635354,0.5,0.518234035364646,0.447268524368493,0.5,0.5,0.447268524368493,0.518234035364646,0.525045074101102,0.474954925898898,0.552731475631507,0.5,0.502110412844216,0.693901574387713,0.447268524368493,0.0163110201816564,0.5,0.0364680707292924,1.05482195989047,7.50209059160986,2.17513969812029,0.5,64.0189805028913
CBC_1033,CBC_1033_MSI_TV_v3_Vset2_Tset3_2023-12-13_15h01.20.123.csv,2,18,1,3,z,0,1,2,tac,D,27,1,1D,3D,0,1,z,1.81429920000028,0,1,1,1,3D,1D,D13,2.80336038090653,0.517593325084932,0.5,0.5,0.481765964635354,0.5,0.569042495813164,0.5,0.5,0.481765964635354,0.5,0.518234035364646,0.447268524368493,0.5,0.5,0.447268524368493,0.518234035364646,0.508953754604223,0.491046245395777,0.518234035364646,0.5,0.344050076684765,0.572922203714611,0.481765964635354,0.0175690752732878,0.5,0.0364680707292924,1.05482195989047,7.50209059160986,2.17513969812029,0.5,64.0189805028913
CBC_1033,CBC_1033_MSI_TV_v3_Vset2_Tset3_2023-12-13_15h01.20.123.csv,2,19,0,1,b,1,0,1,tac,A,63,1,0A,1A,1,0,b,1.76256139999987,1,0,1,1,0A,1A,A01,2.83321334405622,0.517593325084932,0.5,0.5,0.481765964635354,0.5,0.569042495813164,0.5,0.5,0.481765964635354,0.5,0.518234035364646,0.447268524368493,0.5,0.5,0.447268524368493,0.535803110637934,0.508644575711748,0.491355424288252,0.517593325084932,0.5,0.360372884860599,0.570135800505284,0.482406674915068,0.0175924407410855,0.5,0.0364680707292924,1.05482195989047,7.50209059160986,2.17513969812029,0.5,64.0189805028913
CBC_1033,CBC_1033_MSI_TV_v3_Vset2_Tset3_2023-12-13_15h01.20.123.csv,2,20,1,0,z,0,1,1,tac,A,63,1,1A,0A,0,1,b,1.55912429999989,1,0,0,0,1A,0A,A10,2.86220088092947,0.535185765826017,0.5,0.5,0.481765964635354,0.5,0.569042495813164,0.5,0.5,0.481765964635354,0.5,0.518234035364646,0.447268524368493,0.5,0.5,0.447268524368493,0.535803110637934,0.48300509580619,0.51699490419381,0.5,0.535185765826017,0.279706094189566,0.365117307969313,-0.5,-0.0182340353646462,0.5,0.0364680707292924,1.05482195989047,7.50209059160986,2.17513969812029,0.5,64.0189805028913
CBC_1033,CBC_1033_MSI_TV_v3_Vset2_Tset3_2023-12-13_15h01.20.123.csv,2,21,2,0,b,1,0,0,tac,C,27,1,2C,0C,1,0,b,2.9600560000008,1,0,1,1,2C,0C,C20,2.89037175789616,0.535185765826017,0.481765964635354,0.5,0.481765964635354,0.5,0.569042495813164,0.5,0.5,0.481765964635354,0.5,0.518234035364646,0.447268524368493,0.5,0.5,0.447268524368493,0.535803110637934,0.518234035364646,0.481765964635354,0.518234035364646,0.481765964635354,0.114255641010886,0.645509528593812,0.481765964635354,0.0175690752732878,0.5,0.0364680707292924,1.05482195989047,7.50209059160986,2.17513969812029,0.5,64.0189805028913
CBC_1033,CBC_1033_MSI_TV_v3_Vset2_Tset3_2023-12-13_15h01.20.123.csv,2,22,0,1,z,0,1,3,tac,B,63,1,0B,1B,0,1,z,1.18501640000068,0,1,1,1,1B,0B,B01,2.51230562397611,0.535185765826017,0.481765964635354,0.5,0.481765964635354,0.5,0.569042495813164,0.5,0.5,0.481765964635354,0.5,0.535803110637934,0.447268524368493,0.5,0.5,0.447268524368493,0.535803110637934,0.532291745222273,0.467708254777727,0.569042495813164,0.5,0.163859532478693,0.741098888845283,0.430957504186836,0.0157161887440049,0.5,0.0364680707292924,1.05482195989047,7.50209059160986,2.17513969812029,0.5,64.0189805028913
CBC_1033,CBC_1033_MSI_TV_v3_Vset2_Tset3_2023-12-13_15h01.20.123.csv,2,23,2,0,b,1,0,0,tac,C,27,1,2C,0C,NaN,NaN,None,NaN,NaN,NaN,NaN,NaN,,,C20,2.53897387105828,0.535185765826017,0.481765964635354,0.5,0.481765964635354,0.5,0.584758684557169,0.5,0.5,0.481765964635354,0.5,0.535803110637934,0.447268524368493,0.5,0.5,0.447268524368493,0.535803110637934,0,0,0,0,NaN,0,0,0,0.5,0.0364680707292924,1.05482195989047,7.50209059160986,2.17513969812029,0.5,64.0189805028913
CBC_1033,CBC_1033_MSI_TV_v3_Vset2_Tset3_2023-12-13_15h01.20.123.csv,2,24,3,2,b,1,0,2,tac,D,63,1,3D,2D,1,0,b,3.10958879999998,1,0,1,1,3D,2D,D32,2.56494935746154,0.535185765826017,0.481765964635354,0.5,0.481765964635354,0.5,0.584758684557169,0.5,0.5,0.481765964635354,0.5,0.535803110637934,0.447268524368493,0.5,0.5,0.447268524368493,0.535803110637934,0.545029570133443,0.454970429866557,0.535803110637934,0.447268524368493,0.101585042680295,0.813044759880462,0.464196889362066,0.0169283649935733,0.5,0.0364680707292924,1.05482195989047,7.50209059160986,2.17513969812029,0.5,64.0189805028913
CBC_1033,CBC_1033_MSI_TV_v3_Vset2_Tset3_2023-12-13_15h01.20.123.csv,2,25,1,0,z,0,1,1,tac,A,63,1,1A,0A,0,1,z,1.9568818000007,0,1,1,1,0A,1A,A10,2.59026716544583,0.535185765826017,0.481765964635354,0.5,0.481765964635354,0.5,0.584758684557169,0.5,0.5,0.481765964635354,0.5,0.535803110637934,0.447268524368493,0.5,0.5,0.447268524368493,0.552731475631507,0.52626466900569,0.47373533099431,0.535185765826017,0.481765964635354,0.370371017736854,0.702164028453934,0.464814234173983,0.0169508783678387,0.5,0.0364680707292924,1.05482195989047,7.50209059160986,2.17513969812029,0.5,64.0189805028913
CBC_1033,CBC_1033_MSI_TV_v3_Vset2_Tset3_2023-12-13_15h01.20.123.csv,2,26,3,2,z,0,1,0,tac,C,63,1,3C,2C,0,1,z,2.55569639999976,0,1,1,1,2C,3C,C32,2.6149597780362,0.552136644193856,0.481765964635354,0.5,0.481765964635354,0.5,0.584758684557169,0.5,0.5,0.481765964635354,0.5,0.535803110637934,0.447268524368493,0.5,0.5,0.447268524368493,0.552731475631507,0.545029570133443,0.454970429866557,0.535803110637934,0.447268524368493,0.205420935104776,0.812934871062979,0.464196889362066,0.0169283649935733,0.5,0.0364680707292924,1.05482195989047,7.50209059160986,2.17513969812029,0.5,64.0189805028913
CBC_1033,CBC_1033_MSI_TV_v3_Vset2_Tset3_2023-12-13_15h01.20.123.csv,2,27,2,0,z,0,1,1,tac,A,27,1,2A,0A,0,1,b,3.7435531000001,1,0,0,0,2A,0A,A20,3.73766961828337,0.552136644193856,0.481765964635354,0.5,0.481765964635354,0.5,0.584758684557169,0.5,0.5,0.481765964635354,0.5,0.552731475631507,0.447268524368493,0.5,0.5,0.447268524368493,0.552731475631507,0.475223444368387,0.524776555631613,0.5,0.552136644193856,0.0222506960558405,0.307873014503575,-0.5,-0.0182340353646462,0.5,0.0364680707292924,1.05482195989047,7.50209059160986,2.17513969812029,0.5,64.0189805028913
CBC_1033,CBC_1033_MSI_TV_v3_Vset2_Tset3_2023-12-13_15h01.20.123.csv,2,28,3,2,b,1,0,2,tac,D,63,1,3D,2D,1,0,z,3.6550369000006,0,1,0,0,2D,3D,D32,2.37490575457367,0.552136644193856,0.481765964635354,0.481765964635354,0.481765964635354,0.5,0.584758684557169,0.5,0.5,0.481765964635354,0.5,0.552731475631507,0.447268524368493,0.5,0.5,0.447268524368493,0.552731475631507,0.447268524368493,0.552731475631507,0.447268524368493,0.552731475631507,0.00825830709486842,0.151689510708038,-0.447268524368493,-0.0163110201816564,0.5,0.0364680707292924,1.05482195989047,7.50209059160986,2.17513969812029,0.5,64.0189805028913
CBC_1033,CBC_1033_MSI_TV_v3_Vset2_Tset3_2023-12-13_15h01.20.123.csv,2,29,3,2,b,1,0,2,tac,D,63,1,3D,2D,1,0,b,2.33514250000007,1,0,1,1,3D,2D,D32,2.17475172148416,0.552136644193856,0.481765964635354,0.481765964635354,0.481765964635354,0.5,0.584758684557169,0.5,0.5,0.481765964635354,0.5,0.552731475631507,0.447268524368493,0.5,0.5,0.430957504186836,0.552731475631507,0.561896582122511,0.438103417877489,0.552731475631507,0.430957504186836,0.27610471402073,0.882753263642749,0.447268524368493,0.0163110201816564,0.5,0.0364680707292924,1.05482195989047,7.50209059160986,2.17513969812029,0.5,64.0189805028913
CBC_1033,CBC_1033_MSI_TV_v3_Vset2_Tset3_2023-12-13_15h01.20.123.csv,2,30,3,1,z,0,1,3,tac,B,27,1,3B,1B,0,1,z,1.5501876999997,0,1,1,1,1B,3B,B31,3.80666248977032,0.552136644193856,0.481765964635354,0.481765964635354,0.481765964635354,0.5,0.584758684557169,0.5,0.5,0.481765964635354,0.5,0.552731475631507,0.447268524368493,0.5,0.5,0.430957504186836,0.569042495813164,0.539067990772422,0.460932009227578,0.584758684557169,0.5,0.655470169723097,0.781872867119069,0.415241315442831,0.0151430496612936,0.5,0.0364680707292924,1.05482195989047,7.50209059160986,2.17513969812029,0.5,64.0189805028913
CBC_1033,CBC_1033_MSI_TV_v3_Vset2_Tset3_2023-12-13_15h01.20.123.csv,2,31,0,3,z,0,1,2,tac,D,9,1,0D,3D,0,1,z,2.68993129999944,0,1,1,1,3D,0D,D03,3.8286413964891,0.552136644193856,0.481765964635354,0.481765964635354,0.481765964635354,0.5,0.599901734218462,0.5,0.5,0.481765964635354,0.5,0.552731475631507,0.447268524368493,0.5,0.5,0.430957504186836,0.569042495813164,0.532291745222273,0.467708254777727,0.569042495813164,0.5,0.168619735412109,0.741230416796089,0.430957504186836,0.0157161887440049,0.5,0.0364680707292924,1.05482195989047,7.50209059160986,2.17513969812029,0.5,64.0189805028913
CBC_1033,CBC_1033_MSI_TV_v3_Vset2_Tset3_2023-12-13_15h01.20.123.csv,2,32,1,0,b,1,0,3,tac,B,63,1,1B,0B,1,0,b,1.46457780000037,1,0,1,1,1B,0B,B10,3.85014760171006,0.552136644193856,0.481765964635354,0.481765964635354,0.481765964635354,0.5,0.599901734218462,0.5,0.5,0.481765964635354,0.5,0.552731475631507,0.447268524368493,0.5,0.5,0.430957504186836,0.584758684557169,0.545413936131962,0.454586063868038,0.599901734218462,0.5,0.745619390062229,0.815121050193757,0.400098265781538,0.0145908118551883,0.5,0.0364680707292924,1.05482195989047,7.50209059160986,2.17513969812029,0.5,64.0189805028913
CBC_1033,CBC_1033_MSI_TV_v3_Vset2_Tset3_2023-12-13_15h01.20.123.csv,2,33,1,0,z,0,1,1,tac,A,63,1,1A,0A,0,1,z,1.90638829999989,0,1,1,1,0A,1A,A10,2.484906649788,0.552136644193856,0.481765964635354,0.481765964635354,0.481765964635354,0.5,0.61449254607365,0.5,0.5,0.481765964635354,0.5,0.552731475631507,0.447268524368493,0.5,0.5,0.430957504186836,0.584758684557169,0.534031580420418,0.465968419579582,0.552136644193856,0.481765964635354,0.424546685476259,0.751679076701721,0.447863355806144,0.0163327125365967,0.5,0.0364680707292924,1.05482195989047,7.50209059160986,2.17513969812029,0.5,64.0189805028913
CBC_1033,CBC_1033_MSI_TV_v3_Vset2_Tset3_2023-12-13_15h01.20.123.csv,2,34,1,0,b,1,0,3,tac,B,63,1,1B,0B,1,0,b,1.32404270000006,1,0,1,1,1B,0B,B10,3.19867311755068,0.568469356730453,0.481765964635354,0.481765964635354,0.481765964635354,0.5,0.61449254607365,0.5,0.5,0.481765964635354,0.5,0.552731475631507,0.447268524368493,0.5,0.5,0.430957504186836,0.584758684557169,0.551365326074637,0.448634673925363,0.61449254607365,0.5,0.736312876200698,0.8421122238656,0.38550745392635,0.0140587130964555,0.5,0.0364680707292924,1.05482195989047,7.50209059160986,2.17513969812029,0.5,64.0189805028913
CBC_1033,CBC_1033_MSI_TV_v3_Vset2_Tset3_2023-12-13_15h01.20.123.csv,2,35,3,2,z,0,1,0,tac,C,63,1,3C,2C,0,1,z,2.32210090000081,0,1,1,1,2C,3C,C32,2.52572864430826,0.568469356730453,0.481765964635354,0.481765964635354,0.481765964635354,0.5,0.628551259170106,0.5,0.5,0.481765964635354,0.5,0.552731475631507,0.447268524368493,0.5,0.5,0.430957504186836,0.584758684557169,0.552731475631507,0.447268524368493,0.552731475631507,0.447268524368493,0.281541159555171,0.848363555541067,0.447268524368493,0.0163110201816564,0.5,0.0364680707292924,1.05482195989047,7.50209059160986,2.17513969812029,0.5,64.0189805028913
CBC_1033,CBC_1033_MSI_TV_v3_Vset2_Tset3_2023-12-13_15h01.20.123.csv,2,36,0,2,b,1,0,1,tac,A,27,1,0A,2A,1,0,b,3.43858060000002,1,0,1,1,0A,2A,A02,3.23867845216438,0.568469356730453,0.481765964635354,0.481765964635354,0.481765964635354,0.5,0.628551259170106,0.5,0.5,0.481765964635354,0.5,0.569042495813164,0.447268524368493,0.5,0.5,0.430957504186836,0.584758684557169,0.541278078508321,0.458721921491679,0.568469356730453,0.481765964635354,0.0686099887981623,0.793598614302594,0.431530643269547,0.0157370900206109,0.5,0.0364680707292924,1.05482195989047,7.50209059160986,2.17513969812029,0.5,64.0189805028913
CBC_1033,CBC_1033_MSI_TV_v3_Vset2_Tset3_2023-12-13_15h01.20.123.csv,2,37,1,0,b,1,0,3,tac,B,63,1,1B,0B,1,0,b,1.37643680000019,1,0,1,1,1B,0B,B10,2.85263142991332,0.584206446751063,0.481765964635354,0.481765964635354,0.481765964635354,0.5,0.628551259170106,0.5,0.5,0.481765964635354,0.5,0.569042495813164,0.447268524368493,0.5,0.5,0.430957504186836,0.584758684557169,0.556954107367989,0.443045892632011,0.628551259170106,0.5,0.851369018741975,0.86496229478055,0.371448740829894,0.0135460189528912,0.5,0.0364680707292924,1.05482195989047,7.50209059160986,2.17513969812029,0.5,64.0189805028913
CBC_1033,CBC_1033_MSI_TV_v3_Vset2_Tset3_2023-12-13_15h01.20.123.csv,2,38,3,1,z,0,1,3,tac,B,27,1,3B,1B,0,1,z,1.27238699999998,0,1,1,1,1B,3B,B31,3.27714473299218,0.584206446751063,0.481765964635354,0.481765964635354,0.481765964635354,0.5,0.642097278122997,0.5,0.5,0.481765964635354,0.5,0.569042495813164,0.447268524368493,0.5,0.5,0.430957504186836,0.584758684557169,0.562208920748209,0.437791079251791,0.642097278122997,0.5,0.708052782362826,0.883887334763469,0.357902721877003,0.0130520217756168,0.5,0.0364680707292924,1.05482195989047,7.50209059160986,2.17513969812029,0.5,64.0189805028913
CBC_1033,CBC_1033_MSI_TV_v3_Vset2_Tset3_2023-12-13_15h01.20.123.csv,2,39,3,2,z,0,1,0,tac,C,63,1,3C,2C,0,1,z,3.03033839999989,0,1,1,1,2C,3C,C32,2.37954613413017,0.584206446751063,0.481765964635354,0.481765964635354,0.481765964635354,0.5,0.655149299898614,0.5,0.5,0.481765964635354,0.5,0.569042495813164,0.447268524368493,0.5,0.5,0.430957504186836,0.584758684557169,0.559909795833418,0.440090204166582,0.569042495813164,0.447268524368493,0.101161449777841,0.876205245745276,0.430957504186836,0.0157161887440049,0.5,0.0364680707292924,1.05482195989047,7.50209059160986,2.17513969812029,0.5,64.0189805028913
CBC_1033,CBC_1033_MSI_TV_v3_Vset2_Tset3_2023-12-13_15h01.20.123.csv,2,40,3,1,b,1,0,2,tac,D,27,1,3D,1D,1,0,b,1.46942030000082,1,0,1,1,3D,1D,D31,4.00733318523247,0.584206446751063,0.481765964635354,0.481765964635354,0.481765964635354,0.5,0.655149299898614,0.5,0.5,0.481765964635354,0.5,0.584758684557169,0.447268524368493,0.5,0.5,0.430957504186836,0.584758684557169,0.539067990772422,0.460932009227578,0.584758684557169,0.5,0.687813857962706,0.781728851495267,0.415241315442831,0.0151430496612936,0.5,0.0364680707292924,1.05482195989047,7.50209059160986,2.17513969812029,0.5,64.0189805028913
CBC_1033,CBC_1033_MSI_TV_v3_Vset2_Tset3_2023-12-13_15h01.20.123.csv,2,41,1,2,z,0,1,0,tac,C,9,1,1C,2C,0,1,z,1.60371200000009,0,1,1,1,2C,1C,C12,4.02535169073515,0.584206446751063,0.481765964635354,0.481765964635354,0.481765964635354,0.5,0.655149299898614,0.5,0.5,0.481765964635354,0.5,0.584758684557169,0.447268524368493,0.5,0.5,0.430957504186836,0.599901734218462,0.539067990772422,0.460932009227578,0.584758684557169,0.5,0.625743853587156,0.78217274099418,0.415241315442831,0.0151430496612936,0.5,0.0364680707292924,1.05482195989047,7.50209059160986,2.17513969812029,0.5,64.0189805028913
CBC_1033,CBC_1033_MSI_TV_v3_Vset2_Tset3_2023-12-13_15h01.20.123.csv,2,42,0,1,z,0,1,3,tac,B,63,0,0B,1B,1,0,z,1.62128290000055,0,1,1,0,1B,0B,B01,2.65675690671466,0.584206446751063,0.481765964635354,0.481765964635354,0.481765964635354,0.5,0.655149299898614,0.5,0.5,0.481765964635354,0.5,0.599901734218462,0.447268524368493,0.5,0.5,0.430957504186836,0.599901734218462,0.567155518300635,0.432844481699365,0.655149299898614,0.5,0.803441257578136,0.899528943653009,-0.655149299898614,-0.023892031006949,0.5,0.0364680707292924,1.05482195989047,7.50209059160986,2.17513969812029,0.5,64.0189805028913
CBC_1033,CBC_1033_MSI_TV_v3_Vset2_Tset3_2023-12-13_15h01.20.123.csv,2,43,3,2,b,1,0,2,tac,D,63,1,3D,2D,1,0,b,3.11238810000032,1,0,1,1,3D,2D,D32,2.26868354131836,0.584206446751063,0.481765964635354,0.481765964635354,0.481765964635354,0.5,0.631257268891665,0.5,0.5,0.481765964635354,0.5,0.599901734218462,0.447268524368493,0.5,0.5,0.430957504186836,0.599901734218462,0.581943403976753,0.418056596023247,0.599901734218462,0.430957504186836,0.0622981457504007,0.935699996134915,0.400098265781538,0.0145908118551883,0.5,0.0364680707292924,1.05482195989047,7.50209059160986,2.17513969812029,0.5,64.0189805028913
CBC_1033,CBC_1033_MSI_TV_v3_Vset2_Tset3_2023-12-13_15h01.20.123.csv,2,44,0,1,b,1,0,1,tac,A,63,1,0A,1A,1,0,b,1.77307390000078,1,0,1,1,0A,1A,A01,2.97892515523761,0.584206446751063,0.481765964635354,0.481765964635354,0.481765964635354,0.5,0.631257268891665,0.5,0.5,0.481765964635354,0.5,0.599901734218462,0.447268524368493,0.5,0.5,0.430957504186836,0.61449254607365,0.548050250185403,0.451949749814597,0.584206446751063,0.481765964635354,0.566130068883226,0.827399096177771,0.415793553248937,0.015163188708666,0.5,0.0364680707292924,1.05482195989047,7.50209059160986,2.17513969812029,0.5,64.0189805028913
CBC_1033,CBC_1033_MSI_AV_v3_Vset6_Aset2_2023-12-13_15h10.11.385.csv,3,1,1,0,b,1,0,3,aud,B,63,1,1B,0B,1,0,b,2.41171019999911,1,0,1,1,1B,0B,B10,2.77258872223978,0.5,0.5,0.5,0.5,0.5,0.5,0.5,0.5,0.5,0.5,0.5,0.5,0.5,0.5,0.5,0.5,0.5,0.5,0.5,0.5,0.149415784620067,0.499598151275476,0.5,0.0189299297228544,0.5,0.0378598594457088,0.850266539802061,14.8967856427814,2.85313559665628,0.5,57.3865508211294
CBC_1033,CBC_1033_MSI_AV_v3_Vset6_Aset2_2023-12-13_15h10.11.385.csv,3,2,1,0,z,0,1,1,aud,A,63,1,1A,0A,0,1,z,1.48835059999965,0,1,1,1,0A,1A,A10,2.83321334405622,0.5,0.5,0.5,0.5,0.5,0.518929929722854,0.5,0.5,0.5,0.5,0.5,0.5,0.5,0.5,0.5,0.5,0.5,0.5,0.5,0.5,0.226572162810845,0.499874285771293,0.5,0.0189299297228544,0.5,0.0378598594457088,0.850266539802061,14.8967856427814,2.85313559665628,0.5,57.3865508211294
CBC_1033,CBC_1033_MSI_AV_v3_Vset6_Aset2_2023-12-13_15h10.11.385.csv,3,3,3,2,b,1,0,2,aud,D,63,1,3D,2D,1,0,z,2.33397009999953,0,1,0,0,2D,3D,D32,2.89037175789616,0.518929929722854,0.5,0.5,0.5,0.5,0.518929929722854,0.5,0.5,0.5,0.5,0.5,0.5,0.5,0.5,0.5,0.5,0.5,0.5,0.5,0.5,0.156760939311318,0.500383143544123,-0.5,-0.0189299297228544,0.5,0.0378598594457088,0.850266539802061,14.8967856427814,2.85313559665628,0.5,57.3865508211294
CBC_1033,CBC_1033_MSI_AV_v3_Vset6_Aset2_2023-12-13_15h10.11.385.csv,3,4,1,2,b,1,0,3,aud,B,9,1,1B,2B,1,0,z,1.69130869999935,0,1,0,0,2B,1B,B12,2.94443897916644,0.518929929722854,0.5,0.5,0.5,0.5,0.518929929722854,0.5,0.5,0.5,0.5,0.5,0.5,0.5,0.5,0.481070070277146,0.5,0.490710877573297,0.509289122426703,0.5,0.518929929722854,0.143249495501005,0.311476279282293,-0.5,-0.0189299297228544,0.5,0.0378598594457088,0.850266539802061,14.8967856427814,2.85313559665628,0.5,57.3865508211294
CBC_1033,CBC_1033_MSI_AV_v3_Vset6_Aset2_2023-12-13_15h10.11.385.csv,3,5,2,0,z,0,1,1,aud,A,27,1,2A,0A,0,1,b,2.25556699999925,1,0,0,0,2A,0A,A20,2.99573227355399,0.518929929722854,0.5,0.5,0.5,0.5,0.518929929722854,0.481070070277146,0.5,0.5,0.5,0.5,0.5,0.5,0.5,0.481070070277146,0.5,0.490710877573297,0.509289122426703,0.5,0.518929929722854,0.104596636706856,0.311676575931994,-0.5,-0.0189299297228544,0.5,0.0378598594457088,0.850266539802061,14.8967856427814,2.85313559665628,0.5,57.3865508211294
CBC_1033,CBC_1033_MSI_AV_v3_Vset6_Aset2_2023-12-13_15h10.11.385.csv,3,6,3,2,z,0,1,0,aud,C,63,1,3C,2C,0,1,b,2.64793119999922,1,0,0,0,3C,2C,C32,3.04452243772342,0.518929929722854,0.5,0.481070070277146,0.5,0.5,0.518929929722854,0.481070070277146,0.5,0.5,0.5,0.5,0.5,0.5,0.5,0.481070070277146,0.5,0.5,0.5,0.5,0.5,0.129533354554269,0.499274577777746,-0.5,-0.0189299297228544,0.5,0.0378598594457088,0.850266539802061,14.8967856427814,2.85313559665628,0.5,57.3865508211294
CBC_1033,CBC_1033_MSI_AV_v3_Vset6_Aset2_2023-12-13_15h10.11.385.csv,3,7,3,1,b,1,0,2,aud,D,27,1,3D,1D,1,0,b,1.61215609999908,1,0,1,1,3D,1D,D31,3.09104245335832,0.518929929722854,0.5,0.481070070277146,0.5,0.5,0.518929929722854,0.481070070277146,0.5,0.5,0.5,0.5,0.481070070277146,0.5,0.5,0.481070070277146,0.5,0.5,0.5,0.5,0.5,0.225105079754804,0.500087769838755,0.5,0.0189299297228544,0.5,0.0378598594457088,0.850266539802061,14.8967856427814,2.85313559665628,0.5,57.3865508211294
CBC_1033,CBC_1033_MSI_AV_v3_Vset6_Aset2_2023-12-13_15h10.11.385.csv,3,8,0,1,b,1,0,1,aud,A,63,1,0A,1A,1,0,b,2.54776849999962,1,0,1,1,0A,1A,A01,3.13549421592915,0.518929929722854,0.5,0.481070070277146,0.5,0.5,0.518929929722854,0.481070070277146,0.5,0.5,0.5,0.5,0.481070070277146,0.5,0.5,0.481070070277146,0.518929929722854,0.509289122426703,0.490710877573297,0.518929929722854,0.5,0.191525252236488,0.687375480111969,0.481070070277146,0.01821324524423,0.5,0.0378598594457088,0.850266539802061,14.8967856427814,2.85313559665628,0.5,57.3865508211294
CBC_1033,CBC_1033_MSI_AV_v3_Vset6_Aset2_2023-12-13_15h10.11.385.csv,3,9,0,2,z,0,1,0,aud,C,27,1,0C,2C,0,1,z,1.8540538999996,0,1,1,1,2C,0C,C02,3.17805383034795,0.537143174967084,0.5,0.481070070277146,0.5,0.5,0.518929929722854,0.481070070277146,0.5,0.5,0.5,0.5,0.481070070277146,0.5,0.5,0.481070070277146,0.518929929722854,0.5,0.5,0.5,0.5,0.205219085403468,0.500135552798122,0.5,0.0189299297228544,0.5,0.0378598594457088,0.850266539802061,14.8967856427814,2.85313559665628,0.5,57.3865508211294
CBC_1033,CBC_1033_MSI_AV_v3_Vset6_Aset2_2023-12-13_15h10.11.385.csv,3,10,3,2,b,1,0,2,aud,D,63,1,3D,2D,1,0,b,2.65862769999876,1,0,1,1,3D,2D,D32,2.52572864430826,0.537143174967084,0.5,0.481070070277146,0.5,0.5,0.518929929722854,0.481070070277146,0.5,0.5,0.5,0.518929929722854,0.481070070277146,0.5,0.5,0.481070070277146,0.518929929722854,0.518929929722854,0.481070070277146,0.518929929722854,0.481070070277146,0.216157896044531,0.833403616175611,0.481070070277146,0.01821324524423,0.5,0.0378598594457088,0.850266539802061,14.8967856427814,2.85313559665628,0.5,57.3865508211294
CBC_1033,CBC_1033_MSI_AV_v3_Vset6_Aset2_2023-12-13_15h10.11.385.csv,3,11,0,1,z,0,1,3,aud,B,63,0,0B,1B,1,0,z,1.8042102999998,0,1,1,0,1B,0B,B01,3.25809653802148,0.537143174967084,0.5,0.481070070277146,0.5,0.5,0.518929929722854,0.481070070277146,0.5,0.5,0.5,0.518929929722854,0.481070070277146,0.5,0.5,0.481070070277146,0.537143174967084,0.509289122426703,0.490710877573297,0.518929929722854,0.5,0.300368365472379,0.687319585816295,-0.518929929722854,-0.0196466142014788,0.5,0.0378598594457088,0.850266539802061,14.8967856427814,2.85313559665628,0.5,57.3865508211294
CBC_1033,CBC_1033_MSI_AV_v3_Vset6_Aset2_2023-12-13_15h10.11.385.csv,3,12,1,0,z,0,1,1,aud,A,63,1,1A,0A,0,1,z,4.11677569999938,0,1,1,1,0A,1A,A10,2.60268968544438,0.537143174967084,0.5,0.481070070277146,0.5,0.5,0.499283315521376,0.481070070277146,0.5,0.5,0.5,0.518929929722854,0.481070070277146,0.5,0.5,0.481070070277146,0.537143174967084,0.5179064838219,0.4820935161781,0.537143174967084,0.5,0.0716510650996822,0.820660247420152,0.462856825032916,0.0175236943392332,0.5,0.0378598594457088,0.850266539802061,14.8967856427814,2.85313559665628,0.5,57.3865508211294
CBC_1033,CBC_1033_MSI_AV_v3_Vset6_Aset2_2023-12-13_15h10.11.385.csv,3,13,3,2,b,1,0,2,aud,D,63,1,3D,2D,1,0,b,2.31865909999942,1,0,1,1,3D,2D,D32,2.23359222150709,0.554666869306318,0.5,0.481070070277146,0.5,0.5,0.499283315521376,0.481070070277146,0.5,0.5,0.5,0.518929929722854,0.481070070277146,0.5,0.5,0.481070070277146,0.537143174967084,0.527535049731399,0.472464950268601,0.537143174967084,0.481070070277146,0.310932241108729,0.912513729789212,0.462856825032916,0.0175236943392332,0.5,0.0378598594457088,0.850266539802061,14.8967856427814,2.85313559665628,0.5,57.3865508211294
CBC_1033,CBC_1033_MSI_AV_v3_Vset6_Aset2_2023-12-13_15h10.11.385.csv,3,14,0,2,z,0,1,0,aud,C,27,1,0C,2C,0,1,z,2.37910969999939,0,1,1,1,2C,0C,C02,2.67414864942653,0.554666869306318,0.5,0.481070070277146,0.5,0.5,0.499283315521376,0.481070070277146,0.5,0.5,0.5,0.518929929722854,0.481070070277146,0.5,0.5,0.481070070277146,0.554666869306318,0.509289122426703,0.490710877573297,0.518929929722854,0.5,0.213404146490005,0.687684092650071,0.481070070277146,0.01821324524423,0.5,0.0378598594457088,0.850266539802061,14.8967856427814,2.85313559665628,0.5,57.3865508211294
CBC_1033,CBC_1033_MSI_AV_v3_Vset6_Aset2_2023-12-13_15h10.11.385.csv,3,15,1,0,z,0,1,1,aud,A,63,1,1A,0A,0,1,z,2.68663069999911,0,1,1,1,0A,1A,A10,2.30258509299405,0.554666869306318,0.5,0.481070070277146,0.5,0.5,0.499283315521376,0.481070070277146,0.5,0.5,0.5,0.537143174967084,0.481070070277146,0.5,0.5,0.481070070277146,0.554666869306318,0.525916652403367,0.474083347596633,0.554666869306318,0.5,0.22054874230933,0.901100509497155,0.445333130693682,0.0168602497345803,0.5,0.0378598594457088,0.850266539802061,14.8967856427814,2.85313559665628,0.5,57.3865508211294
CBC_1033,CBC_1033_MSI_AV_v3_Vset6_Aset2_2023-12-13_15h10.11.385.csv,3,16,3,1,z,0,1,3,aud,B,27,1,3B,1B,0,1,z,2.19591219999984,0,1,1,1,1B,3B,B31,3.43398720448515,0.571527119040898,0.5,0.481070070277146,0.5,0.5,0.499283315521376,0.481070070277146,0.5,0.5,0.5,0.537143174967084,0.481070070277146,0.5,0.5,0.481070070277146,0.554666869306318,0.499641400758177,0.500358599241823,0.499283315521376,0.5,0.167558873375337,0.492952522666926,0.500716684478624,0.018957063296482,0.5,0.0378598594457088,0.850266539802061,14.8967856427814,2.85313559665628,0.5,57.3865508211294
CBC_1033,CBC_1033_MSI_AV_v3_Vset6_Aset2_2023-12-13_15h10.11.385.csv,3,17,2,3,b,1,0,0,aud,C,63,1,2C,3C,1,0,b,2.85158669999964,1,0,1,1,2C,3C,C23,3.46573590279973,0.571527119040898,0.5,0.481070070277146,0.5,0.5,0.518240378817858,0.481070070277146,0.5,0.5,0.5,0.537143174967084,0.481070070277146,0.5,0.5,0.481070070277146,0.554666869306318,0.527535049731399,0.472464950268601,0.537143174967084,0.481070070277146,0.188524834630576,0.912050215620433,0.462856825032916,0.0175236943392332,0.5,0.0378598594457088,0.850266539802061,14.8967856427814,2.85313559665628,0.5,57.3865508211294
CBC_1033,CBC_1033_MSI_AV_v3_Vset6_Aset2_2023-12-13_15h10.11.385.csv,3,18,3,2,b,1,0,2,aud,D,63,0,3D,2D,0,1,b,2.01860659999966,1,0,1,0,3D,2D,D32,2.11021320034659,0.571527119040898,0.5,0.481070070277146,0.5,0.5,0.518240378817858,0.481070070277146,0.5,0.5,0.5,0.554666869306318,0.481070070277146,0.5,0.5,0.481070070277146,0.554666869306318,0.535528712077591,0.464471287922409,0.554666869306318,0.481070070277146,0.442609872619084,0.953629393993517,-0.554666869306318,-0.0209996097111285,0.5,0.0378598594457088,0.850266539802061,14.8967856427814,2.85313559665628,0.5,57.3865508211294
CBC_1033,CBC_1033_MSI_AV_v3_Vset6_Aset2_2023-12-13_15h10.11.385.csv,3,19,0,1,z,0,1,3,aud,B,63,1,0B,1B,0,1,z,2.21402649999891,0,1,1,1,1B,0B,B01,2.83321334405622,0.571527119040898,0.5,0.481070070277146,0.5,0.5,0.518240378817858,0.481070070277146,0.5,0.5,0.5,0.554666869306318,0.481070070277146,0.5,0.5,0.481070070277146,0.533667259595189,0.50895681373343,0.49104318626657,0.518240378817858,0.5,0.234318842422492,0.68145807271501,0.481759621182142,0.0182393515445738,0.5,0.0378598594457088,0.850266539802061,14.8967856427814,2.85313559665628,0.5,57.3865508211294
CBC_1033,CBC_1033_MSI_AV_v3_Vset6_Aset2_2023-12-13_15h10.11.385.csv,3,20,0,2,b,1,0,1,aud,A,27,1,0A,2A,1,0,z,3.07838229999925,0,1,0,0,2A,0A,A02,3.55534806148941,0.571527119040898,0.5,0.481070070277146,0.5,0.5,0.536479730362431,0.481070070277146,0.5,0.5,0.5,0.554666869306318,0.481070070277146,0.5,0.5,0.481070070277146,0.533667259595189,0.457031498049906,0.542968501950094,0.481070070277146,0.571527119040898,0.00260254421693862,0.0253306341059817,-0.481070070277146,-0.01821324524423,0.5,0.0378598594457088,0.850266539802061,14.8967856427814,2.85313559665628,0.5,57.3865508211294
CBC_1033,CBC_1033_MSI_AV_v3_Vset6_Aset2_2023-12-13_15h10.11.385.csv,3,21,3,0,b,1,0,2,aud,D,9,1,3D,0D,1,0,b,1.5450951999992,1,0,1,1,3D,0D,D30,3.58351893845611,0.571527119040898,0.5,0.462856825032916,0.5,0.5,0.536479730362431,0.481070070277146,0.5,0.5,0.5,0.554666869306318,0.481070070277146,0.5,0.5,0.481070070277146,0.533667259595189,0.516285346799305,0.483714653200695,0.533667259595189,0.5,0.417853605626383,0.799271139958729,0.466332740404811,0.0176552920066583,0.5,0.0378598594457088,0.850266539802061,14.8967856427814,2.85313559665628,0.5,57.3865508211294
CBC_1033,CBC_1033_MSI_AV_v3_Vset6_Aset2_2023-12-13_15h10.11.385.csv,3,22,3,2,z,0,1,0,aud,C,63,1,3C,2C,0,1,z,1.91559779999989,0,1,1,1,2C,3C,C32,2.91777073208428,0.571527119040898,0.5,0.462856825032916,0.5,0.5,0.536479730362431,0.481070070277146,0.5,0.5,0.5,0.554666869306318,0.481070070277146,0.5,0.5,0.481070070277146,0.551322551601848,0.535528712077591,0.464471287922409,0.554666869306318,0.481070070277146,0.495278269865773,0.953191210079011,0.445333130693682,0.0168602497345803,0.5,0.0378598594457088,0.850266539802061,14.8967856427814,2.85313559665628,0.5,57.3865508211294
CBC_1033,CBC_1033_MSI_AV_v3_Vset6_Aset2_2023-12-13_15h10.11.385.csv,3,23,1,3,b,1,0,3,aud,B,27,1,1B,3B,1,0,b,1.87095719999979,1,0,1,1,1B,3B,B13,3.63758615972639,0.571527119040898,0.5,0.462856825032916,0.5,0.5,0.536479730362431,0.481070070277146,0.5,0.5,0.5,0.571527119040898,0.481070070277146,0.5,0.5,0.481070070277146,0.551322551601848,0.517597898585858,0.482402101414142,0.536479730362431,0.5,0.3735640047707,0.816968228823445,0.463520269637569,0.0175488122587154,0.5,0.0378598594457088,0.850266539802061,14.8967856427814,2.85313559665628,0.5,57.3865508211294
CBC_1033,CBC_1033_MSI_AV_v3_Vset6_Aset2_2023-12-13_15h10.11.385.csv,3,24,2,3,b,1,0,0,aud,C,63,1,2C,3C,1,0,b,1.35232289999931,1,0,1,1,2C,3C,C23,2.9704144655697,0.571527119040898,0.5,0.462856825032916,0.5,0.5,0.554028542621147,0.481070070277146,0.5,0.5,0.5,0.571527119040898,0.481070070277146,0.5,0.5,0.481070070277146,0.551322551601848,0.542968501950094,0.457031498049906,0.571527119040898,0.481070070277146,0.868072183204796,0.974776165576346,0.428472880959102,0.0162219230494095,0.5,0.0378598594457088,0.850266539802061,14.8967856427814,2.85313559665628,0.5,57.3865508211294
CBC_1033,CBC_1033_MSI_AV_v3_Vset6_Aset2_2023-12-13_15h10.11.385.csv,3,25,3,2,b,1,0,2,aud,D,63,1,3D,2D,1,0,b,1.88301989999945,1,0,1,1,3D,2D,D32,2.07944154167984,0.571527119040898,0.5,0.462856825032916,0.5,0.5,0.554028542621147,0.481070070277146,0.5,0.5,0.5,0.587749042090307,0.481070070277146,0.5,0.5,0.481070070277146,0.551322551601848,0.534024110515648,0.465975889484351,0.551322551601848,0.481070070277146,0.505417122433379,0.947669667353956,0.448677448398152,0.0169868651328133,0.5,0.0378598594457088,0.850266539802061,14.8967856427814,2.85313559665628,0.5,57.3865508211294
CBC_1033,CBC_1033_MSI_AV_v3_Vset6_Aset2_2023-12-13_15h10.11.385.csv,3,26,0,1,z,0,1,3,aud,B,63,1,0B,1B,0,1,z,1.69377339999937,0,1,1,1,1B,0B,B01,2.6149597780362,0.571527119040898,0.5,0.462856825032916,0.5,0.5,0.554028542621147,0.481070070277146,0.5,0.5,0.5,0.587749042090307,0.481070070277146,0.5,0.5,0.481070070277146,0.568309416734661,0.525629544379695,0.474370455620305,0.554028542621147,0.5,0.510222055672508,0.897846529246414,0.445971457378853,0.0168844166931613,0.5,0.0378598594457088,0.850266539802061,14.8967856427814,2.85313559665628,0.5,57.3865508211294
CBC_1033,CBC_1033_MSI_AV_v3_Vset6_Aset2_2023-12-13_15h10.11.385.csv,3,27,3,0,z,0,1,1,aud,A,9,1,3A,0A,0,1,z,3.81105239999943,0,1,1,1,0A,3A,A30,3.73766961828337,0.571527119040898,0.5,0.462856825032916,0.5,0.5,0.570912959314308,0.481070070277146,0.5,0.5,0.5,0.587749042090307,0.481070070277146,0.5,0.5,0.481070070277146,0.568309416734661,0.533376252345774,0.466623747654226,0.571527119040898,0.5,0.061307279090322,0.944611926780028,0.428472880959102,0.0162219230494095,0.5,0.0378598594457088,0.850266539802061,14.8967856427814,2.85313559665628,0.5,57.3865508211294
CBC_1033,CBC_1033_MSI_AV_v3_Vset6_Aset2_2023-12-13_15h10.11.385.csv,3,28,3,2,b,1,0,2,aud,D,63,1,3D,2D,1,0,b,1.45963069999925,1,0,1,1,3D,2D,D32,1.96944064646551,0.587749042090307,0.5,0.462856825032916,0.5,0.5,0.570912959314308,0.481070070277146,0.5,0.5,0.5,0.587749042090307,0.481070070277146,0.5,0.5,0.481070070277146,0.568309416734661,0.541567110629319,0.458432889370681,0.568309416734661,0.481070070277146,0.825108052187362,0.971490246222933,0.431690583265339,0.0163437448064618,0.5,0.0378598594457088,0.850266539802061,14.8967856427814,2.85313559665628,0.5,57.3865508211294
CBC_1033,CBC_1033_MSI_AV_v3_Vset6_Aset2_2023-12-13_15h10.11.385.csv,3,29,0,2,z,0,1,0,aud,C,27,1,0C,2C,0,1,z,1.53673199999866,0,1,1,1,2C,0C,C02,2.68557734525015,0.587749042090307,0.5,0.462856825032916,0.5,0.5,0.570912959314308,0.481070070277146,0.5,0.5,0.5,0.587749042090307,0.481070070277146,0.5,0.5,0.481070070277146,0.584653161541123,0.540335150248297,0.459664849751703,0.587749042090307,0.5,0.768588037783432,0.968563696881145,0.412250957909693,0.0156077633228198,0.5,0.0378598594457088,0.850266539802061,14.8967856427814,2.85313559665628,0.5,57.3865508211294
CBC_1033,CBC_1033_MSI_AV_v3_Vset6_Aset2_2023-12-13_15h10.11.385.csv,3,30,0,1,b,1,0,1,aud,A,63,0,0A,1A,0,1,b,1.79645639999944,1,0,1,0,0A,1A,A01,3.11351530921037,0.587749042090307,0.5,0.462856825032916,0.5,0.5,0.570912959314308,0.481070070277146,0.5,0.5,0.5,0.603356805413127,0.481070070277146,0.5,0.5,0.481070070277146,0.584653161541123,0.540335150248297,0.459664849751703,0.587749042090307,0.5,0.591267384819374,0.96860508671574,-0.587749042090307,-0.022252096122889,0.5,0.0378598594457088,0.850266539802061,14.8967856427814,2.85313559665628,0.5,57.3865508211294
CBC_1033,CBC_1033_MSI_AV_v3_Vset6_Aset2_2023-12-13_15h10.11.385.csv,3,31,0,1,z,0,1,3,aud,B,63,1,0B,1B,0,1,z,1.29165740000008,0,1,1,1,1B,0B,B01,2.4423470353692,0.565496945967418,0.5,0.462856825032916,0.5,0.5,0.570912959314308,0.481070070277146,0.5,0.5,0.5,0.603356805413127,0.481070070277146,0.5,0.5,0.481070070277146,0.584653161541123,0.533108647485092,0.466891352514908,0.570912959314308,0.5,0.6377933990303,0.943457416051753,0.429087040685692,0.0162451750503354,0.5,0.0378598594457088,0.850266539802061,14.8967856427814,2.85313559665628,0.5,57.3865508211294
CBC_1033,CBC_1033_MSI_AV_v3_Vset6_Aset2_2023-12-13_15h10.11.385.csv,3,32,1,3,z,0,1,2,aud,D,27,1,1D,3D,0,1,z,2.47823189999872,0,1,1,1,3D,1D,D13,3.85014760171006,0.565496945967418,0.5,0.462856825032916,0.5,0.5,0.587158134364644,0.481070070277146,0.5,0.5,0.5,0.603356805413127,0.481070070277146,0.5,0.5,0.481070070277146,0.584653161541123,0.53902314792539,0.46097685207461,0.584653161541123,0.5,0.251299130098041,0.964866001498326,0.415346838458877,0.0157249729252726,0.5,0.0378598594457088,0.850266539802061,14.8967856427814,2.85313559665628,0.5,57.3865508211294
CBC_1033,CBC_1033_MSI_AV_v3_Vset6_Aset2_2023-12-13_15h10.11.385.csv,3,33,2,3,b,1,0,0,aud,C,63,1,2C,3C,1,0,b,1.32309269999951,1,0,1,1,2C,3C,C23,2.77258872223978,0.565496945967418,0.5,0.462856825032916,0.5,0.5,0.587158134364644,0.481070070277146,0.5,0.5,0.5,0.603356805413127,0.481070070277146,0.5,0.5,0.481070070277146,0.600378134466395,0.556383117145701,0.443616882854299,0.603356805413127,0.481070070277146,1.14678806809924,0.991774071934416,0.396643194586873,0.0150168555971559,0.5,0.0378598594457088,0.850266539802061,14.8967856427814,2.85313559665628,0.5,57.3865508211294
CBC_1033,CBC_1033_MSI_AV_v3_Vset6_Aset2_2023-12-13_15h10.11.385.csv,3,34,0,1,z,0,1,3,aud,B,63,1,0B,1B,0,1,z,1.61925809999957,0,1,1,1,1B,0B,B01,2.28238238567653,0.565496945967418,0.5,0.462856825032916,0.5,0.5,0.587158134364644,0.481070070277146,0.5,0.5,0.5,0.618373661010283,0.481070070277146,0.5,0.5,0.481070070277146,0.600378134466395,0.540085306640133,0.459914693359867,0.587158134364644,0.5,0.713324791851536,0.967905311814004,0.412841865635356,0.0156301350062588,0.5,0.0378598594457088,0.850266539802061,14.8967856427814,2.85313559665628,0.5,57.3865508211294
CBC_1033,CBC_1033_MSI_AV_v3_Vset6_Aset2_2023-12-13_15h10.11.385.csv,3,35,1,0,z,0,1,1,aud,A,63,1,1A,0A,0,1,z,1.83421719999933,0,1,1,1,0A,1A,A10,2.52572864430826,0.565496945967418,0.5,0.462856825032916,0.5,0.5,0.602788269370902,0.481070070277146,0.5,0.5,0.5,0.618373661010283,0.481070070277146,0.5,0.5,0.481070070277146,0.600378134466395,0.530735398264305,0.469264601735695,0.565496945967418,0.5,0.50656119893315,0.931812662599393,0.434503054032582,0.0164502245544048,0.5,0.0378598594457088,0.850266539802061,14.8967856427814,2.85313559665628,0.5,57.3865508211294
CBC_1033,CBC_1033_MSI_AV_v3_Vset6_Aset2_2023-12-13_15h10.11.385.csv,3,36,2,1,b,1,0,0,aud,C,9,1,2C,1C,1,0,b,3.17455199999949,1,0,1,1,2C,1C,C21,3.93182563272433,0.581947170521823,0.5,0.462856825032916,0.5,0.5,0.602788269370902,0.481070070277146,0.5,0.5,0.5,0.618373661010283,0.481070070277146,0.5,0.5,0.481070070277146,0.600378134466395,0.552922232138117,0.447077767861883,0.618373661010283,0.5,0.0495272053729654,0.989056312789107,0.381626338989717,0.0144483195549311,0.5,0.0378598594457088,0.850266539802061,14.8967856427814,2.85313559665628,0.5,57.3865508211294
CBC_1033,CBC_1033_MSI_AV_v3_Vset6_Aset2_2023-12-13_15h10.11.385.csv,3,37,0,1,b,1,0,1,aud,A,63,1,0A,1A,1,0,b,3.20553269999891,1,0,1,1,0A,1A,A01,2.85263142991332,0.581947170521823,0.5,0.462856825032916,0.5,0.5,0.602788269370902,0.481070070277146,0.5,0.5,0.5,0.632821980565214,0.481070070277146,0.5,0.5,0.481070070277146,0.600378134466395,0.537870227287669,0.462129772712331,0.581947170521823,0.5,0.103409073013801,0.961509729455013,0.418052829478177,0.0158274213649246,0.5,0.0378598594457088,0.850266539802061,14.8967856427814,2.85313559665628,0.5,57.3865508211294
CBC_1033,CBC_1033_MSI_AV_v3_Vset6_Aset2_2023-12-13_15h10.11.385.csv,3,38,1,3,z,0,1,2,aud,D,27,1,1D,3D,0,1,z,1.8710130999998,0,1,1,1,3D,1D,D13,3.27714473299218,0.597774591886748,0.5,0.462856825032916,0.5,0.5,0.602788269370902,0.481070070277146,0.5,0.5,0.5,0.632821980565214,0.481070070277146,0.5,0.5,0.481070070277146,0.600378134466395,0.54561074567111,0.45438925432889,0.600378134466395,0.5,0.550857898370118,0.979689802035396,0.399621865533605,0.0151296276605342,0.5,0.0378598594457088,0.850266539802061,14.8967856427814,2.85313559665628,0.5,57.3865508211294
CBC_1033,CBC_1033_MSI_AV_v3_Vset6_Aset2_2023-12-13_15h10.11.385.csv,3,39,1,0,b,1,0,3,aud,B,63,1,1B,0B,1,0,b,1.77498129999822,1,0,1,1,1B,0B,B10,3.29583686600433,0.597774591886748,0.5,0.462856825032916,0.5,0.5,0.602788269370902,0.481070070277146,0.5,0.5,0.5,0.632821980565214,0.481070070277146,0.5,0.5,0.481070070277146,0.615507762126929,0.546603809736541,0.453396190263459,0.602788269370902,0.5,0.63259113899808,0.981241073375933,0.397211730629098,0.0150383802918044,0.5,0.0378598594457088,0.850266539802061,14.8967856427814,2.85313559665628,0.5,57.3865508211294
CBC_1033,CBC_1033_MSI_AV_v3_Vset6_Aset2_2023-12-13_15h10.11.385.csv,3,40,3,2,z,0,1,0,aud,C,63,0,3C,2C,1,0,z,0.996261499999491,0,1,1,0,2C,3C,C32,2.90872089656436,0.597774591886748,0.5,0.462856825032916,0.5,0.5,0.617826649662707,0.481070070277146,0.5,0.5,0.5,0.632821980565214,0.481070070277146,0.5,0.5,0.481070070277146,0.615507762126929,0.568117871104884,0.431882128895116,0.632821980565214,0.481070070277146,0.128486846401894,0.996957713985004,-0.632821980565214,-0.0239585512383541,0.5,0.0378598594457088,0.850266539802061,14.8967856427814,2.85313559665628,0.5,57.3865508211294
CBC_1033,CBC_1033_MSI_AV_v3_Vset6_Aset2_2023-12-13_15h10.11.385.csv,3,41,0,2,b,1,0,1,aud,A,27,1,0A,2A,1,0,b,2.13562039999942,1,0,1,1,0A,2A,A02,3.3322045101752,0.597774591886748,0.5,0.462856825032916,0.5,0.5,0.617826649662707,0.481070070277146,0.5,0.5,0.5,0.60886342932686,0.481070070277146,0.5,0.5,0.481070070277146,0.615507762126929,0.563602569517348,0.436397430482652,0.597774591886748,0.462856825032916,0.261167226326551,0.995544396884668,0.402225408113252,0.0152281974166606,0.5,0.0378598594457088,0.850266539802061,14.8967856427814,2.85313559665628,0.5,57.3865508211294
CBC_1033,CBC_1033_MSI_AV_v3_Vset6_Aset2_2023-12-13_15h10.11.385.csv,3,42,2,3,z,0,1,2,aud,D,63,1,2D,3D,0,1,z,1.39962649999961,0,1,1,1,3D,2D,D23,4.04305126783455,0.613002789303408,0.5,0.462856825032916,0.5,0.5,0.617826649662707,0.481070070277146,0.5,0.5,0.5,0.60886342932686,0.481070070277146,0.5,0.5,0.481070070277146,0.615507762126929,0.561298745915304,0.438701254084696,0.615507762126929,0.481070070277146,1.18764789092819,0.994579039393389,0.384492237873071,0.0145568220838405,0.5,0.0378598594457088,0.850266539802061,14.8967856427814,2.85313559665628,0.5,57.3865508211294
CBC_1033,CBC_1033_MSI_AV_v3_Vset6_Aset2_2023-12-13_15h10.11.385.csv,3,43,1,3,b,1,0,3,aud,B,27,1,1B,3B,1,0,b,1.48064059999797,1,0,1,1,1B,3B,B13,3.36729582998647,0.613002789303408,0.5,0.462856825032916,0.5,0.5,0.617826649662707,0.481070070277146,0.5,0.5,0.5,0.60886342932686,0.481070070277146,0.5,0.5,0.481070070277146,0.63006458421077,0.552703453481924,0.447296546518076,0.617826649662707,0.5,0.97735568090063,0.988786978503907,0.382173350337293,0.0144690293276656,0.5,0.0378598594457088,0.850266539802061,14.8967856427814,2.85313559665628,0.5,57.3865508211294
CBC_1033,CBC_1033_MSI_AV_v3_Vset6_Aset2_2023-12-13_15h10.11.385.csv,3,44,3,2,z,0,1,0,aud,C,63,1,3C,2C,0,1,z,1.31135149999955,0,1,1,1,2C,3C,C32,2.69124308278583,0.613002789303408,0.5,0.462856825032916,0.5,0.5,0.632295678990372,0.481070070277146,0.5,0.5,0.5,0.60886342932686,0.481070070277146,0.5,0.5,0.481070070277146,0.63006458421077,0.558624383550072,0.441375616449928,0.60886342932686,0.481070070277146,1.19692910591369,0.993216032433687,0.39113657067314,0.0148083755897616,0.5,0.0378598594457088,0.850266539802061,14.8967856427814,2.85313559665628,0.5,57.3865508211294
