ID,filename,session,trial,visStimLeft,visStimRight,correctKey,leftCorrect,rightCorrect,secondStim,mod2Type,mod2Stim,frequency,rewardAccurate,stimPairLeft,stimPairRight,pCorrectLeft,pCorrectRight,key,reactionTime,choiceLeft,choiceRight,choiceAccurate,reward,chosenPair,otherPair,triplet,surprise,0A belief,1A belief,2A belief,3A belief,0B belief,1B belief,2B belief,3B belief,0C belief,1C belief,2C belief,3C belief,0D belief,1D belief,2D belief,3D belief,beliefPairNorm,beliefOtherPairNorm,beliefPair,beliefOtherPair,lik,corrLik,rewardPE,update2,fitCBCsimpleRW_CBCdriftDiffusionLR_startBelief,fitCBCsimpleRW_CBCdriftDiffusionLR_alpha1,fitCBCsimpleRW_CBCdriftDiffusionLR_nonDecisionTime,fitCBCsimpleRW_CBCdriftDiffusionLR_weight,fitCBCsimpleRW_CBCdriftDiffusionLR_startingBoundary,fitCBCsimpleRW_CBCdriftDiffusionLR_startingPoint,fit_CBCsimpleRW_CBCdriftDiffusionLR_NLL
CBC_1114,CBC_1114_MSI_TV_v3_Vset6_Tset1_2024-08-09_16h21.37.903.csv,1,1,0,1,z,0,1,0,tac,B,63,1,0B,1B,0,1,z,3.38582169999427,0,1,1,1,1B,0B,B01,2.77258872223978,0.5,0.5,0.5,0.5,0.5,0.5,0.5,0.5,0.5,0.5,0.5,0.5,0.5,0.5,0.5,0.5,0.5,0.5,0.5,0.5,0.087389602967157,0.500830832263484,0.5,0.00384440056408492,0.5,0.00768880112816983,1.08897782050277,7.83206788705817,2.60766663418912,0.5,75.9832157574058
CBC_1114,CBC_1114_MSI_TV_v3_Vset6_Tset1_2024-08-09_16h21.37.903.csv,1,2,2,3,z,0,1,1,tac,D,63,1,2D,3D,0,1,z,2.88114050000149,0,1,1,1,3D,2D,D23,2.83321334405622,0.5,0.5,0.5,0.5,0.5,0.503844400564085,0.5,0.5,0.5,0.5,0.5,0.5,0.5,0.5,0.5,0.5,0.5,0.5,0.5,0.5,0.125874512797541,0.500200380122383,0.5,0.00384440056408492,0.5,0.00768880112816983,1.08897782050277,7.83206788705817,2.60766663418912,0.5,75.9832157574058
CBC_1114,CBC_1114_MSI_TV_v3_Vset6_Tset1_2024-08-09_16h21.37.903.csv,1,3,1,3,b,1,0,0,tac,B,27,1,1B,3B,1,0,b,2.207822700002,1,0,1,1,1B,3B,B13,2.89037175789616,0.5,0.5,0.5,0.5,0.5,0.503844400564085,0.5,0.5,0.5,0.5,0.5,0.5,0.5,0.5,0.5,0.503844400564085,0.501914838874394,0.498085161125606,0.503844400564085,0.5,0.21218323404892,0.519428045615667,0.496155599435915,0.00381484173269064,0.5,0.00768880112816983,1.08897782050277,7.83206788705817,2.60766663418912,0.5,75.9832157574058
CBC_1114,CBC_1114_MSI_TV_v3_Vset6_Tset1_2024-08-09_16h21.37.903.csv,1,4,3,2,z,0,1,2,tac,C,63,1,3C,2C,0,1,z,2.85494249999465,0,1,1,1,2C,3C,C32,2.94443897916644,0.5,0.5,0.5,0.5,0.5,0.507659242296776,0.5,0.5,0.5,0.5,0.5,0.5,0.5,0.5,0.5,0.503844400564085,0.5,0.5,0.5,0.5,0.128336934312545,0.50038864059249,0.5,0.00384440056408492,0.5,0.00768880112816983,1.08897782050277,7.83206788705817,2.60766663418912,0.5,75.9832157574058
CBC_1114,CBC_1114_MSI_TV_v3_Vset6_Tset1_2024-08-09_16h21.37.903.csv,1,5,2,0,b,1,0,2,tac,C,27,1,2C,0C,1,0,b,2.5524996999884,1,0,1,1,2C,0C,C20,2.99573227355399,0.5,0.5,0.5,0.5,0.5,0.507659242296776,0.5,0.5,0.5,0.5,0.503844400564085,0.5,0.5,0.5,0.5,0.503844400564085,0.501914838874394,0.498085161125606,0.503844400564085,0.5,0.165795018794648,0.51925486694825,0.496155599435915,0.00381484173269064,0.5,0.00768880112816983,1.08897782050277,7.83206788705817,2.60766663418912,0.5,75.9832157574058
CBC_1114,CBC_1114_MSI_TV_v3_Vset6_Tset1_2024-08-09_16h21.37.903.csv,1,6,3,0,z,0,1,3,tac,A,9,1,3A,0A,0,1,b,3.08514919999288,1,0,0,0,3A,0A,A30,3.04452243772342,0.5,0.5,0.5,0.5,0.5,0.507659242296776,0.5,0.5,0.5,0.5,0.507659242296776,0.5,0.5,0.5,0.5,0.503844400564085,0.5,0.5,0.5,0.5,0.10861411900097,0.500453011491658,-0.5,-0.00384440056408492,0.5,0.00768880112816983,1.08897782050277,7.83206788705817,2.60766663418912,0.5,75.9832157574058
CBC_1114,CBC_1114_MSI_TV_v3_Vset6_Tset1_2024-08-09_16h21.37.903.csv,1,7,3,2,z,0,1,2,tac,C,63,1,3C,2C,0,1,z,2.48087769999984,0,1,1,1,2C,3C,C32,2.39789527279837,0.5,0.5,0.5,0.496155599435915,0.5,0.507659242296776,0.5,0.5,0.5,0.5,0.507659242296776,0.5,0.5,0.5,0.5,0.503844400564085,0.503800512105321,0.496199487894679,0.507659242296776,0.5,0.181497781540384,0.539564086117384,0.492340757703224,0.00378551017327254,0.5,0.00768880112816983,1.08897782050277,7.83206788705817,2.60766663418912,0.5,75.9832157574058
CBC_1114,CBC_1114_MSI_TV_v3_Vset6_Tset1_2024-08-09_16h21.37.903.csv,1,8,0,1,b,1,0,3,tac,A,63,1,0A,1A,1,0,z,3.0914039999916,0,1,0,0,1A,0A,A01,3.13549421592915,0.5,0.5,0.5,0.496155599435915,0.5,0.507659242296776,0.5,0.5,0.5,0.5,0.511444752470048,0.5,0.5,0.5,0.5,0.503844400564085,0.5,0.5,0.5,0.5,0.108282913098699,0.501196537398544,-0.5,-0.00384440056408492,0.5,0.00768880112816983,1.08897782050277,7.83206788705817,2.60766663418912,0.5,75.9832157574058
CBC_1114,CBC_1114_MSI_TV_v3_Vset6_Tset1_2024-08-09_16h21.37.903.csv,1,9,3,2,b,1,0,1,tac,D,63,1,3D,2D,NaN,NaN,None,NaN,NaN,NaN,NaN,NaN,,,D32,3.17805383034795,0.5,0.496155599435915,0.5,0.496155599435915,0.5,0.507659242296776,0.5,0.5,0.5,0.5,0.511444752470048,0.5,0.5,0.5,0.5,0.503844400564085,0,0,0,0,NaN,0,0,0,0.5,0.00768880112816983,1.08897782050277,7.83206788705817,2.60766663418912,0.5,75.9832157574058
CBC_1114,CBC_1114_MSI_TV_v3_Vset6_Tset1_2024-08-09_16h21.37.903.csv,1,10,2,3,b,1,0,2,tac,C,63,1,2C,3C,1,0,b,2.55100110000058,1,0,1,1,2C,3C,C23,3.2188758248682,0.5,0.496155599435915,0.5,0.496155599435915,0.5,0.507659242296776,0.5,0.5,0.5,0.5,0.511444752470048,0.5,0.5,0.5,0.5,0.503844400564085,0.505657626104688,0.494342373895312,0.511444752470048,0.5,0.178138379051572,0.556866257526263,0.488555247529952,0.00375640413838158,0.5,0.00768880112816983,1.08897782050277,7.83206788705817,2.60766663418912,0.5,75.9832157574058
CBC_1114,CBC_1114_MSI_TV_v3_Vset6_Tset1_2024-08-09_16h21.37.903.csv,1,11,1,3,z,0,1,1,tac,D,27,1,1D,3D,0,1,b,2.67622129998927,1,0,0,0,1D,3D,D13,3.25809653802148,0.5,0.496155599435915,0.5,0.496155599435915,0.5,0.507659242296776,0.5,0.5,0.5,0.5,0.51520115660843,0.5,0.5,0.5,0.5,0.503844400564085,0.498085161125606,0.501914838874394,0.5,0.503844400564085,0.140491058394244,0.481215623454829,-0.5,-0.00384440056408492,0.5,0.00768880112816983,1.08897782050277,7.83206788705817,2.60766663418912,0.5,75.9832157574058
CBC_1114,CBC_1114_MSI_TV_v3_Vset6_Tset1_2024-08-09_16h21.37.903.csv,1,12,1,0,z,0,1,3,tac,A,63,0,1A,0A,1,0,z,2.37368839999544,0,1,1,0,0A,1A,A10,3.29583686600433,0.5,0.496155599435915,0.5,0.496155599435915,0.5,0.507659242296776,0.5,0.5,0.5,0.5,0.51520115660843,0.5,0.5,0.496155599435915,0.5,0.503844400564085,0.501929618508525,0.498070381491475,0.5,0.496155599435915,0.188918764086033,0.520201247961917,-0.5,-0.00384440056408492,0.5,0.00768880112816983,1.08897782050277,7.83206788705817,2.60766663418912,0.5,75.9832157574058
CBC_1114,CBC_1114_MSI_TV_v3_Vset6_Tset1_2024-08-09_16h21.37.903.csv,1,13,2,3,b,1,0,2,tac,C,63,1,2C,3C,1,0,z,2.69036659999983,0,1,0,0,3C,2C,C23,2.63905732961526,0.496155599435915,0.496155599435915,0.5,0.496155599435915,0.5,0.507659242296776,0.5,0.5,0.5,0.5,0.51520115660843,0.5,0.5,0.496155599435915,0.5,0.503844400564085,0.492513229270141,0.507486770729859,0.5,0.51520115660843,0.122594535990792,0.4239890327273,-0.5,-0.00384440056408492,0.5,0.00768880112816983,1.08897782050277,7.83206788705817,2.60766663418912,0.5,75.9832157574058
CBC_1114,CBC_1114_MSI_TV_v3_Vset6_Tset1_2024-08-09_16h21.37.903.csv,1,14,0,2,b,1,0,3,tac,A,27,1,0A,2A,1,0,b,1.67122430000745,1,0,1,1,0A,2A,A02,3.36729582998647,0.496155599435915,0.496155599435915,0.5,0.496155599435915,0.5,0.507659242296776,0.5,0.5,0.5,0.5,0.51520115660843,0.496155599435915,0.5,0.496155599435915,0.5,0.503844400564085,0.498070381491475,0.501929618508525,0.496155599435915,0.5,0.261152520656275,0.479928581022375,0.503844400564085,0.00387395939547919,0.5,0.00768880112816983,1.08897782050277,7.83206788705817,2.60766663418912,0.5,75.9832157574058
CBC_1114,CBC_1114_MSI_TV_v3_Vset6_Tset1_2024-08-09_16h21.37.903.csv,1,15,0,1,z,0,1,0,tac,B,63,1,0B,1B,0,1,z,2.83193569998548,0,1,1,1,1B,0B,B01,2.70805020110221,0.500029558831394,0.496155599435915,0.5,0.496155599435915,0.5,0.507659242296776,0.5,0.5,0.5,0.5,0.51520115660843,0.496155599435915,0.5,0.496155599435915,0.5,0.503844400564085,0.503800512105321,0.496199487894679,0.507659242296776,0.5,0.140376962817288,0.538320197662514,0.492340757703224,0.00378551017327254,0.5,0.00768880112816983,1.08897782050277,7.83206788705817,2.60766663418912,0.5,75.9832157574058
CBC_1114,CBC_1114_MSI_TV_v3_Vset6_Tset1_2024-08-09_16h21.37.903.csv,1,16,3,2,b,1,0,1,tac,D,63,1,3D,2D,1,0,b,3.34368309999991,1,0,1,1,3D,2D,D32,2.7408400239252,0.500029558831394,0.496155599435915,0.5,0.496155599435915,0.5,0.511444752470048,0.5,0.5,0.5,0.5,0.51520115660843,0.496155599435915,0.5,0.496155599435915,0.5,0.503844400564085,0.501914838874394,0.498085161125606,0.503844400564085,0.5,0.0933081304962868,0.518764367132774,0.496155599435915,0.00381484173269064,0.5,0.00768880112816983,1.08897782050277,7.83206788705817,2.60766663418912,0.5,75.9832157574058
CBC_1114,CBC_1114_MSI_TV_v3_Vset6_Tset1_2024-08-09_16h21.37.903.csv,1,17,1,2,b,1,0,0,tac,B,9,1,1B,2B,1,0,b,3.2535108000011,1,0,1,1,1B,2B,B12,3.46573590279973,0.500029558831394,0.496155599435915,0.5,0.496155599435915,0.5,0.511444752470048,0.5,0.5,0.5,0.5,0.51520115660843,0.496155599435915,0.5,0.496155599435915,0.5,0.507659242296776,0.505657626104688,0.494342373895312,0.511444752470048,0.5,0.106745662995903,0.556749687232556,0.488555247529952,0.00375640413838158,0.5,0.00768880112816983,1.08897782050277,7.83206788705817,2.60766663418912,0.5,75.9832157574058
CBC_1114,CBC_1114_MSI_TV_v3_Vset6_Tset1_2024-08-09_16h21.37.903.csv,1,18,1,3,z,0,1,1,tac,D,27,1,1D,3D,0,1,b,2.52567810000619,1,0,0,0,1D,3D,D13,2.80336038090653,0.500029558831394,0.496155599435915,0.5,0.496155599435915,0.5,0.51520115660843,0.5,0.5,0.5,0.5,0.51520115660843,0.496155599435915,0.5,0.496155599435915,0.5,0.507659242296776,0.494270037469757,0.505729962530243,0.496155599435915,0.507659242296776,0.144079261858265,0.442180418410401,-0.496155599435915,-0.00381484173269064,0.5,0.00768880112816983,1.08897782050277,7.83206788705817,2.60766663418912,0.5,75.9832157574058
CBC_1114,CBC_1114_MSI_TV_v3_Vset6_Tset1_2024-08-09_16h21.37.903.csv,1,19,0,1,b,1,0,3,tac,A,63,1,0A,1A,1,0,b,3.41918149999401,1,0,1,1,0A,1A,A01,2.83321334405622,0.500029558831394,0.496155599435915,0.5,0.496155599435915,0.5,0.51520115660843,0.5,0.5,0.5,0.5,0.51520115660843,0.496155599435915,0.5,0.492340757703224,0.5,0.507659242296776,0.501944397265573,0.498055602734427,0.500029558831394,0.496155599435915,0.0884244694514687,0.519323213718467,0.499970441168606,0.00384417329210874,0.5,0.00768880112816983,1.08897782050277,7.83206788705817,2.60766663418912,0.5,75.9832157574058
CBC_1114,CBC_1114_MSI_TV_v3_Vset6_Tset1_2024-08-09_16h21.37.903.csv,1,20,1,0,z,0,1,3,tac,A,63,1,1A,0A,NaN,NaN,None,NaN,NaN,NaN,NaN,NaN,,,A10,2.86220088092947,0.503873732123503,0.496155599435915,0.5,0.496155599435915,0.5,0.51520115660843,0.5,0.5,0.5,0.5,0.51520115660843,0.496155599435915,0.5,0.492340757703224,0.5,0.507659242296776,0,0,0,0,NaN,0,0,0,0.5,0.00768880112816983,1.08897782050277,7.83206788705817,2.60766663418912,0.5,75.9832157574058
CBC_1114,CBC_1114_MSI_TV_v3_Vset6_Tset1_2024-08-09_16h21.37.903.csv,1,21,2,0,b,1,0,2,tac,C,27,1,2C,0C,1,0,z,2.65867089999665,0,1,0,0,0C,2C,C20,2.89037175789616,0.503873732123503,0.496155599435915,0.5,0.496155599435915,0.5,0.51520115660843,0.5,0.5,0.5,0.5,0.51520115660843,0.496155599435915,0.5,0.492340757703224,0.5,0.507659242296776,0.492513229270141,0.507486770729859,0.5,0.51520115660843,0.125739175525152,0.424915153386972,-0.5,-0.00384440056408492,0.5,0.00768880112816983,1.08897782050277,7.83206788705817,2.60766663418912,0.5,75.9832157574058
CBC_1114,CBC_1114_MSI_TV_v3_Vset6_Tset1_2024-08-09_16h21.37.903.csv,1,22,0,1,z,0,1,0,tac,B,63,1,0B,1B,0,1,b,3.47557059999963,1,0,0,0,0B,1B,B01,2.51230562397611,0.503873732123503,0.496155599435915,0.5,0.496155599435915,0.5,0.51520115660843,0.5,0.5,0.496155599435915,0.5,0.51520115660843,0.496155599435915,0.5,0.492340757703224,0.5,0.507659242296776,0.492513229270141,0.507486770729859,0.5,0.51520115660843,0.0689033556747533,0.423508974010747,-0.5,-0.00384440056408492,0.5,0.00768880112816983,1.08897782050277,7.83206788705817,2.60766663418912,0.5,75.9832157574058
CBC_1114,CBC_1114_MSI_TV_v3_Vset6_Tset1_2024-08-09_16h21.37.903.csv,1,23,2,0,b,1,0,2,tac,C,27,1,2C,0C,NaN,NaN,None,NaN,NaN,NaN,NaN,NaN,,,C20,2.53897387105828,0.503873732123503,0.496155599435915,0.5,0.496155599435915,0.496155599435915,0.51520115660843,0.5,0.5,0.496155599435915,0.5,0.51520115660843,0.496155599435915,0.5,0.492340757703224,0.5,0.507659242296776,0,0,0,0,NaN,0,0,0,0.5,0.00768880112816983,1.08897782050277,7.83206788705817,2.60766663418912,0.5,75.9832157574058
CBC_1114,CBC_1114_MSI_TV_v3_Vset6_Tset1_2024-08-09_16h21.37.903.csv,1,24,3,2,b,1,0,1,tac,D,63,1,3D,2D,1,0,z,2.52351299999282,0,1,0,0,2D,3D,D32,2.56494935746154,0.503873732123503,0.496155599435915,0.5,0.496155599435915,0.496155599435915,0.51520115660843,0.5,0.5,0.496155599435915,0.5,0.51520115660843,0.496155599435915,0.5,0.492340757703224,0.5,0.507659242296776,0.496199487894679,0.503800512105321,0.5,0.507659242296776,0.150417490541012,0.461170087108301,-0.5,-0.00384440056408492,0.5,0.00768880112816983,1.08897782050277,7.83206788705817,2.60766663418912,0.5,75.9832157574058
CBC_1114,CBC_1114_MSI_TV_v3_Vset6_Tset1_2024-08-09_16h21.37.903.csv,1,25,1,0,z,0,1,3,tac,A,63,1,1A,0A,0,1,b,1.36302760000399,1,0,0,0,1A,0A,A10,2.59026716544583,0.503873732123503,0.496155599435915,0.5,0.496155599435915,0.496155599435915,0.51520115660843,0.5,0.5,0.496155599435915,0.5,0.51520115660843,0.496155599435915,0.5,0.492340757703224,0.496155599435915,0.507659242296776,0.49614104684532,0.50385895315468,0.496155599435915,0.503873732123503,0.15053098337051,0.460322213254633,-0.496155599435915,-0.00381484173269064,0.5,0.00768880112816983,1.08897782050277,7.83206788705817,2.60766663418912,0.5,75.9832157574058
CBC_1114,CBC_1114_MSI_TV_v3_Vset6_Tset1_2024-08-09_16h21.37.903.csv,1,26,3,2,z,0,1,2,tac,C,63,1,3C,2C,0,1,z,3.00057589999051,0,1,1,1,2C,3C,C32,2.6149597780362,0.503873732123503,0.492340757703224,0.5,0.496155599435915,0.496155599435915,0.51520115660843,0.5,0.5,0.496155599435915,0.5,0.51520115660843,0.496155599435915,0.5,0.492340757703224,0.496155599435915,0.507659242296776,0.509415845130163,0.490584154869837,0.51520115660843,0.496155599435915,0.136801602213555,0.594225552265069,0.48479884339157,0.00372752189400453,0.5,0.00768880112816983,1.08897782050277,7.83206788705817,2.60766663418912,0.5,75.9832157574058
CBC_1114,CBC_1114_MSI_TV_v3_Vset6_Tset1_2024-08-09_16h21.37.903.csv,1,27,2,0,z,0,1,3,tac,A,27,1,2A,0A,0,1,b,2.66679239999212,1,0,0,0,2A,0A,A20,3.73766961828337,0.503873732123503,0.492340757703224,0.5,0.496155599435915,0.496155599435915,0.51520115660843,0.5,0.5,0.496155599435915,0.5,0.518928678502434,0.496155599435915,0.5,0.492340757703224,0.496155599435915,0.507659242296776,0.498070607886457,0.501929392113542,0.5,0.503873732123503,0.140676123945628,0.478562494319929,-0.5,-0.00384440056408492,0.5,0.00768880112816983,1.08897782050277,7.83206788705817,2.60766663418912,0.5,75.9832157574058
CBC_1114,CBC_1114_MSI_TV_v3_Vset6_Tset1_2024-08-09_16h21.37.903.csv,1,28,3,2,b,1,0,1,tac,D,63,1,3D,2D,1,0,z,2.7413821999944,0,1,0,0,2D,3D,D32,2.37490575457367,0.503873732123503,0.492340757703224,0.496155599435915,0.496155599435915,0.496155599435915,0.51520115660843,0.5,0.5,0.496155599435915,0.5,0.518928678502434,0.496155599435915,0.5,0.492340757703224,0.496155599435915,0.507659242296776,0.494270037469757,0.505729962530243,0.496155599435915,0.507659242296776,0.122838479391387,0.441025452852586,-0.496155599435915,-0.00381484173269064,0.5,0.00768880112816983,1.08897782050277,7.83206788705817,2.60766663418912,0.5,75.9832157574058
CBC_1114,CBC_1114_MSI_TV_v3_Vset6_Tset1_2024-08-09_16h21.37.903.csv,1,29,3,2,b,1,0,1,tac,D,63,1,3D,2D,1,0,z,2.07641769999464,0,1,0,0,2D,3D,D32,2.17475172148416,0.503873732123503,0.492340757703224,0.496155599435915,0.496155599435915,0.496155599435915,0.51520115660843,0.5,0.5,0.496155599435915,0.5,0.518928678502434,0.496155599435915,0.5,0.492340757703224,0.492340757703224,0.507659242296776,0.492340757703224,0.507659242296776,0.492340757703224,0.507659242296776,0.190043512788461,0.423122587024036,-0.492340757703224,-0.00378551017327254,0.5,0.00768880112816983,1.08897782050277,7.83206788705817,2.60766663418912,0.5,75.9832157574058
CBC_1114,CBC_1114_MSI_TV_v3_Vset6_Tset1_2024-08-09_16h21.37.903.csv,1,30,3,1,z,0,1,0,tac,B,27,1,3B,1B,0,1,z,1.96021970000584,0,1,1,1,1B,3B,B31,3.80666248977032,0.503873732123503,0.492340757703224,0.496155599435915,0.496155599435915,0.496155599435915,0.51520115660843,0.5,0.5,0.496155599435915,0.5,0.518928678502434,0.496155599435915,0.5,0.492340757703224,0.488555247529952,0.507659242296776,0.507486770729859,0.492513229270141,0.51520115660843,0.5,0.27861319754945,0.575260099376186,0.48479884339157,0.00372752189400453,0.5,0.00768880112816983,1.08897782050277,7.83206788705817,2.60766663418912,0.5,75.9832157574058
CBC_1114,CBC_1114_MSI_TV_v3_Vset6_Tset1_2024-08-09_16h21.37.903.csv,1,31,0,3,z,0,1,1,tac,D,9,1,0D,3D,0,1,b,2.83616180000536,1,0,0,0,0D,3D,D03,3.8286413964891,0.503873732123503,0.492340757703224,0.496155599435915,0.496155599435915,0.496155599435915,0.518928678502434,0.5,0.5,0.496155599435915,0.5,0.518928678502434,0.496155599435915,0.5,0.492340757703224,0.488555247529952,0.507659242296776,0.496199487894679,0.503800512105321,0.5,0.507659242296776,0.119861546271285,0.461062517641736,-0.5,-0.00384440056408492,0.5,0.00768880112816983,1.08897782050277,7.83206788705817,2.60766663418912,0.5,75.9832157574058
CBC_1114,CBC_1114_MSI_TV_v3_Vset6_Tset1_2024-08-09_16h21.37.903.csv,1,32,1,0,b,1,0,0,tac,B,63,1,1B,0B,1,0,b,1.25874679999833,1,0,1,1,1B,0B,B10,3.85014760171006,0.503873732123503,0.492340757703224,0.496155599435915,0.496155599435915,0.496155599435915,0.518928678502434,0.5,0.5,0.496155599435915,0.5,0.518928678502434,0.496155599435915,0.496155599435915,0.492340757703224,0.488555247529952,0.507659242296776,0.511217334147255,0.488782665852745,0.518928678502434,0.496155599435915,0.0624559809456175,0.612893712181797,0.481071321497566,0.00369886171946063,0.5,0.00768880112816983,1.08897782050277,7.83206788705817,2.60766663418912,0.5,75.9832157574058
CBC_1114,CBC_1114_MSI_TV_v3_Vset6_Tset1_2024-08-09_16h21.37.903.csv,1,33,1,0,z,0,1,3,tac,A,63,1,1A,0A,0,1,z,2.87700969999423,0,1,1,1,0A,1A,A10,2.484906649788,0.503873732123503,0.492340757703224,0.496155599435915,0.496155599435915,0.496155599435915,0.522627540221895,0.5,0.5,0.496155599435915,0.5,0.518928678502434,0.496155599435915,0.496155599435915,0.492340757703224,0.488555247529952,0.507659242296776,0.505788399254404,0.494211600745596,0.503873732123503,0.492340757703224,0.140954608909449,0.55866020065924,0.496126267876497,0.0038146162081635,0.5,0.00768880112816983,1.08897782050277,7.83206788705817,2.60766663418912,0.5,75.9832157574058
CBC_1114,CBC_1114_MSI_TV_v3_Vset6_Tset1_2024-08-09_16h21.37.903.csv,1,34,1,0,b,1,0,0,tac,B,63,1,1B,0B,NaN,NaN,None,NaN,NaN,NaN,NaN,NaN,,,B10,3.19867311755068,0.507688348331667,0.492340757703224,0.496155599435915,0.496155599435915,0.496155599435915,0.522627540221895,0.5,0.5,0.496155599435915,0.5,0.518928678502434,0.496155599435915,0.496155599435915,0.492340757703224,0.488555247529952,0.507659242296776,0,0,0,0,NaN,0,0,0,0.5,0.00768880112816983,1.08897782050277,7.83206788705817,2.60766663418912,0.5,75.9832157574058
CBC_1114,CBC_1114_MSI_TV_v3_Vset6_Tset1_2024-08-09_16h21.37.903.csv,1,35,3,2,z,0,1,2,tac,C,63,1,3C,2C,0,1,z,2.23840289999498,0,1,1,1,2C,3C,C32,2.52572864430826,0.507688348331667,0.492340757703224,0.496155599435915,0.496155599435915,0.496155599435915,0.522627540221895,0.5,0.5,0.496155599435915,0.5,0.518928678502434,0.496155599435915,0.496155599435915,0.492340757703224,0.488555247529952,0.507659242296776,0.511217334147255,0.488782665852745,0.518928678502434,0.496155599435915,0.246900698652317,0.612593309293566,0.481071321497566,0.00369886171946063,0.5,0.00768880112816983,1.08897782050277,7.83206788705817,2.60766663418912,0.5,75.9832157574058
CBC_1114,CBC_1114_MSI_TV_v3_Vset6_Tset1_2024-08-09_16h21.37.903.csv,1,36,0,2,b,1,0,3,tac,A,27,1,0A,2A,1,0,z,3.78572970000096,0,1,0,0,2A,0A,A02,3.23867845216438,0.507688348331667,0.492340757703224,0.496155599435915,0.496155599435915,0.496155599435915,0.522627540221895,0.5,0.5,0.496155599435915,0.5,0.522627540221895,0.496155599435915,0.496155599435915,0.492340757703224,0.488555247529952,0.507659242296776,0.494255706317003,0.505744293682997,0.496155599435915,0.507688348331667,0.0574406387838039,0.441810321908407,-0.496155599435915,-0.00381484173269064,0.5,0.00768880112816983,1.08897782050277,7.83206788705817,2.60766663418912,0.5,75.9832157574058
CBC_1114,CBC_1114_MSI_TV_v3_Vset6_Tset1_2024-08-09_16h21.37.903.csv,1,37,1,0,b,1,0,0,tac,B,63,1,1B,0B,NaN,NaN,None,NaN,NaN,NaN,NaN,NaN,,,B10,2.85263142991332,0.507688348331667,0.492340757703224,0.492340757703224,0.496155599435915,0.496155599435915,0.522627540221895,0.5,0.5,0.496155599435915,0.5,0.522627540221895,0.496155599435915,0.496155599435915,0.492340757703224,0.488555247529952,0.507659242296776,0,0,0,0,NaN,0,0,0,0.5,0.00768880112816983,1.08897782050277,7.83206788705817,2.60766663418912,0.5,75.9832157574058
CBC_1114,CBC_1114_MSI_TV_v3_Vset6_Tset1_2024-08-09_16h21.37.903.csv,1,38,3,1,z,0,1,0,tac,B,27,1,3B,1B,0,1,z,2.34814399998868,0,1,1,1,1B,3B,B31,3.27714473299218,0.507688348331667,0.492340757703224,0.492340757703224,0.496155599435915,0.496155599435915,0.522627540221895,0.5,0.5,0.496155599435915,0.5,0.522627540221895,0.496155599435915,0.496155599435915,0.492340757703224,0.488555247529952,0.507659242296776,0.511063431861509,0.488936568138491,0.522627540221895,0.5,0.227451222160405,0.611160665419197,0.477372459778105,0.0036704219072991,0.5,0.00768880112816983,1.08897782050277,7.83206788705817,2.60766663418912,0.5,75.9832157574058
CBC_1114,CBC_1114_MSI_TV_v3_Vset6_Tset1_2024-08-09_16h21.37.903.csv,1,39,3,2,z,0,1,2,tac,C,63,1,3C,2C,0,1,z,2.6545203999849,0,1,1,1,2C,3C,C32,2.37954613413017,0.507688348331667,0.492340757703224,0.492340757703224,0.496155599435915,0.496155599435915,0.526297962129194,0.5,0.5,0.496155599435915,0.5,0.522627540221895,0.496155599435915,0.496155599435915,0.492340757703224,0.488555247529952,0.507659242296776,0.512991940951669,0.487008059048331,0.522627540221895,0.496155599435915,0.187430679828529,0.630499824364553,0.477372459778105,0.0036704219072991,0.5,0.00768880112816983,1.08897782050277,7.83206788705817,2.60766663418912,0.5,75.9832157574058
CBC_1114,CBC_1114_MSI_TV_v3_Vset6_Tset1_2024-08-09_16h21.37.903.csv,1,40,3,1,b,1,0,1,tac,D,27,1,3D,1D,1,0,b,3.10822579999513,1,0,1,1,3D,1D,D31,4.00733318523247,0.507688348331667,0.492340757703224,0.492340757703224,0.496155599435915,0.496155599435915,0.526297962129194,0.5,0.5,0.496155599435915,0.5,0.526297962129194,0.496155599435915,0.496155599435915,0.492340757703224,0.488555247529952,0.507659242296776,0.507659242296776,0.492340757703224,0.507659242296776,0.492340757703224,0.123002966263451,0.577678590579122,0.492340757703224,0.00378551017327254,0.5,0.00768880112816983,1.08897782050277,7.83206788705817,2.60766663418912,0.5,75.9832157574058
CBC_1114,CBC_1114_MSI_TV_v3_Vset6_Tset1_2024-08-09_16h21.37.903.csv,1,41,1,2,z,0,1,2,tac,C,9,1,1C,2C,0,1,b,2.75903699999617,1,0,0,0,1C,2C,C12,4.02535169073515,0.507688348331667,0.492340757703224,0.492340757703224,0.496155599435915,0.496155599435915,0.526297962129194,0.5,0.5,0.496155599435915,0.5,0.526297962129194,0.496155599435915,0.496155599435915,0.492340757703224,0.488555247529952,0.511444752470048,0.487187949747734,0.512812050252266,0.5,0.526297962129194,0.102000901561221,0.370914178727446,-0.5,-0.00384440056408492,0.5,0.00768880112816983,1.08897782050277,7.83206788705817,2.60766663418912,0.5,75.9832157574058
CBC_1114,CBC_1114_MSI_TV_v3_Vset6_Tset1_2024-08-09_16h21.37.903.csv,1,42,0,1,z,0,1,0,tac,B,63,0,0B,1B,1,0,z,2.40209819999291,0,1,1,0,1B,0B,B01,2.65675690671466,0.507688348331667,0.492340757703224,0.492340757703224,0.496155599435915,0.496155599435915,0.526297962129194,0.5,0.5,0.496155599435915,0.496155599435915,0.526297962129194,0.496155599435915,0.496155599435915,0.492340757703224,0.488555247529952,0.511444752470048,0.51474021110902,0.48525978889098,0.526297962129194,0.496155599435915,0.232209213628229,0.646396361777424,-0.526297962129194,-0.00404660036497243,0.5,0.00768880112816983,1.08897782050277,7.83206788705817,2.60766663418912,0.5,75.9832157574058
CBC_1114,CBC_1114_MSI_TV_v3_Vset6_Tset1_2024-08-09_16h21.37.903.csv,1,43,3,2,b,1,0,1,tac,D,63,1,3D,2D,1,0,z,3.22436529998959,0,1,0,0,2D,3D,D32,2.26868354131836,0.507688348331667,0.492340757703224,0.492340757703224,0.496155599435915,0.496155599435915,0.522251361764222,0.5,0.5,0.496155599435915,0.496155599435915,0.526297962129194,0.496155599435915,0.496155599435915,0.492340757703224,0.488555247529952,0.511444752470048,0.488555247529952,0.511444752470048,0.488555247529952,0.511444752470048,0.0750186583010227,0.385180086206967,-0.488555247529952,-0.00375640413838158,0.5,0.00768880112816983,1.08897782050277,7.83206788705817,2.60766663418912,0.5,75.9832157574058
CBC_1114,CBC_1114_MSI_TV_v3_Vset6_Tset1_2024-08-09_16h21.37.903.csv,1,44,0,1,b,1,0,3,tac,A,63,1,0A,1A,NaN,NaN,None,NaN,NaN,NaN,NaN,NaN,,,A01,2.97892515523761,0.507688348331667,0.492340757703224,0.492340757703224,0.496155599435915,0.496155599435915,0.522251361764222,0.5,0.5,0.496155599435915,0.496155599435915,0.526297962129194,0.496155599435915,0.496155599435915,0.492340757703224,0.48479884339157,0.511444752470048,0,0,0,0,NaN,0,0,0,0.5,0.00768880112816983,1.08897782050277,7.83206788705817,2.60766663418912,0.5,75.9832157574058
CBC_1114,CBC_1114_MSI_AV_v3_Vset5_Aset2_2024-08-09_17h20.03.010.csv,2,1,0,1,b,1,0,3,aud,A,63,1,0A,1A,1,0,z,1.47631659999024,0,1,0,0,1A,0A,A01,2.77258872223978,0.5,0.5,0.5,0.5,0.5,0.5,0.5,0.5,0.5,0.5,0.5,0.5,0.5,0.5,0.5,0.5,0.5,0.5,0.5,0.5,0.383656356324983,0.500188991312346,-0.5,-0.0337934836913775,0.5,0.067586967382755,0.922286689946033,0.478718065192872,2.05059587067383,0.5,60.4439019829305
CBC_1114,CBC_1114_MSI_AV_v3_Vset5_Aset2_2024-08-09_17h20.03.010.csv,2,2,3,2,z,0,1,2,aud,C,63,1,3C,2C,0,1,z,2.30504530000326,0,1,1,1,2C,3C,C32,2.83321334405622,0.5,0.466206516308622,0.5,0.5,0.5,0.5,0.5,0.5,0.5,0.5,0.5,0.5,0.5,0.5,0.5,0.5,0.5,0.5,0.5,0.5,0.147427696740946,0.499943345083405,0.5,0.0337934836913775,0.5,0.067586967382755,0.922286689946033,0.478718065192872,2.05059587067383,0.5,60.4439019829305
CBC_1114,CBC_1114_MSI_AV_v3_Vset5_Aset2_2024-08-09_17h20.03.010.csv,2,3,0,2,b,1,0,3,aud,A,27,1,0A,2A,1,0,z,1.64655289999791,0,1,0,0,2A,0A,A02,2.89037175789616,0.5,0.466206516308622,0.5,0.5,0.5,0.5,0.5,0.5,0.5,0.5,0.533793483691378,0.5,0.5,0.5,0.5,0.5,0.5,0.5,0.5,0.5,0.318414880006771,0.500228343491623,-0.5,-0.0337934836913775,0.5,0.067586967382755,0.922286689946033,0.478718065192872,2.05059587067383,0.5,60.4439019829305
CBC_1114,CBC_1114_MSI_AV_v3_Vset5_Aset2_2024-08-09_17h20.03.010.csv,2,4,1,0,b,1,0,0,aud,B,63,1,1B,0B,1,0,b,2.00201179999567,1,0,1,1,1B,0B,B10,2.94443897916644,0.5,0.466206516308622,0.466206516308622,0.5,0.5,0.5,0.5,0.5,0.5,0.5,0.533793483691378,0.5,0.5,0.5,0.5,0.5,0.5,0.5,0.5,0.5,0.210730654931042,0.500805648363336,0.5,0.0337934836913775,0.5,0.067586967382755,0.922286689946033,0.478718065192872,2.05059587067383,0.5,60.4439019829305
CBC_1114,CBC_1114_MSI_AV_v3_Vset5_Aset2_2024-08-09_17h20.03.010.csv,2,5,0,1,z,0,1,0,aud,B,63,1,0B,1B,0,1,z,1.41657640000631,0,1,1,1,1B,0B,B01,2.99573227355399,0.5,0.466206516308622,0.466206516308622,0.5,0.5,0.533793483691378,0.5,0.5,0.5,0.5,0.533793483691378,0.5,0.5,0.5,0.5,0.5,0.5163444073814,0.4836555926186,0.533793483691378,0.5,0.411764719028327,0.506865986143678,0.466206516308622,0.0315094846113787,0.5,0.067586967382755,0.922286689946033,0.478718065192872,2.05059587067383,0.5,60.4439019829305
CBC_1114,CBC_1114_MSI_AV_v3_Vset5_Aset2_2024-08-09_17h20.03.010.csv,2,6,3,2,z,0,1,2,aud,C,63,1,3C,2C,NaN,NaN,[],NaN,NaN,NaN,NaN,NaN,,,C32,2.35137525716348,0.5,0.466206516308622,0.466206516308622,0.5,0.5,0.565302968302756,0.5,0.5,0.5,0.5,0.533793483691378,0.5,0.5,0.5,0.5,0.5,0,0,0,0,NaN,0,0,0,0.5,0.067586967382755,0.922286689946033,0.478718065192872,2.05059587067383,0.5,60.4439019829305
CBC_1114,CBC_1114_MSI_AV_v3_Vset5_Aset2_2024-08-09_17h20.03.010.csv,2,7,3,1,b,1,0,1,aud,D,27,1,3D,1D,1,0,b,1.49866080000356,1,0,1,1,3D,1D,D31,3.09104245335832,0.5,0.466206516308622,0.466206516308622,0.5,0.5,0.565302968302756,0.5,0.5,0.5,0.5,0.533793483691378,0.5,0.5,0.5,0.5,0.5,0.5,0.5,0.5,0.5,0.374942435732427,0.500225857163271,0.5,0.0337934836913775,0.5,0.067586967382755,0.922286689946033,0.478718065192872,2.05059587067383,0.5,60.4439019829305
CBC_1114,CBC_1114_MSI_AV_v3_Vset5_Aset2_2024-08-09_17h20.03.010.csv,2,8,1,2,z,0,1,2,aud,C,9,1,1C,2C,0,1,b,1.45603180000035,1,0,0,0,1C,2C,C12,3.13549421592915,0.5,0.466206516308622,0.466206516308622,0.5,0.5,0.565302968302756,0.5,0.5,0.5,0.5,0.533793483691378,0.5,0.5,0.5,0.5,0.533793483691378,0.4836555926186,0.5163444073814,0.5,0.533793483691378,0.384954758855158,0.491775697850803,-0.5,-0.0337934836913775,0.5,0.067586967382755,0.922286689946033,0.478718065192872,2.05059587067383,0.5,60.4439019829305
CBC_1114,CBC_1114_MSI_AV_v3_Vset5_Aset2_2024-08-09_17h20.03.010.csv,2,9,3,1,z,0,1,0,aud,B,27,1,3B,1B,0,1,z,4.72455500000797,0,1,1,1,1B,3B,B31,3.17805383034795,0.5,0.466206516308622,0.466206516308622,0.5,0.5,0.565302968302756,0.5,0.5,0.5,0.466206516308622,0.533793483691378,0.5,0.5,0.5,0.5,0.533793483691378,0.530649951349895,0.469350048650105,0.565302968302756,0.5,0.00889114549345108,0.516513931456214,0.434697031697244,0.029379854102702,0.5,0.067586967382755,0.922286689946033,0.478718065192872,2.05059587067383,0.5,60.4439019829305
CBC_1114,CBC_1114_MSI_AV_v3_Vset5_Aset2_2024-08-09_17h20.03.010.csv,2,10,3,2,b,1,0,1,aud,D,63,1,3D,2D,1,0,z,1.7445652000024,0,1,0,0,2D,3D,D32,3.2188758248682,0.5,0.466206516308622,0.466206516308622,0.5,0.5,0.594682822405458,0.5,0.5,0.5,0.466206516308622,0.533793483691378,0.5,0.5,0.5,0.5,0.533793483691378,0.4836555926186,0.5163444073814,0.5,0.533793483691378,0.279722418432727,0.492004975127829,-0.5,-0.0337934836913775,0.5,0.067586967382755,0.922286689946033,0.478718065192872,2.05059587067383,0.5,60.4439019829305
CBC_1114,CBC_1114_MSI_AV_v3_Vset5_Aset2_2024-08-09_17h20.03.010.csv,2,11,1,0,b,1,0,0,aud,B,63,1,1B,0B,1,0,b,2.98011709999992,1,0,1,1,1B,0B,B10,2.56494935746154,0.5,0.466206516308622,0.466206516308622,0.5,0.5,0.594682822405458,0.5,0.5,0.5,0.466206516308622,0.533793483691378,0.5,0.5,0.5,0.466206516308622,0.533793483691378,0.543246692314675,0.456753307685325,0.594682822405458,0.5,0.0695304268642881,0.521138903874193,0.405317177594542,0.0273941588617526,0.5,0.067586967382755,0.922286689946033,0.478718065192872,2.05059587067383,0.5,60.4439019829305
CBC_1114,CBC_1114_MSI_AV_v3_Vset5_Aset2_2024-08-09_17h20.03.010.csv,2,12,0,2,z,0,1,2,aud,C,27,1,0C,2C,0,1,z,2.03560980000475,0,1,1,1,2C,0C,C02,3.29583686600433,0.5,0.466206516308622,0.466206516308622,0.5,0.5,0.622076981267211,0.5,0.5,0.5,0.466206516308622,0.533793483691378,0.5,0.5,0.5,0.466206516308622,0.533793483691378,0.5163444073814,0.4836555926186,0.533793483691378,0.5,0.205408285564221,0.507776594485034,0.466206516308622,0.0315094846113787,0.5,0.067586967382755,0.922286689946033,0.478718065192872,2.05059587067383,0.5,60.4439019829305
CBC_1114,CBC_1114_MSI_AV_v3_Vset5_Aset2_2024-08-09_17h20.03.010.csv,2,13,3,2,b,1,0,1,aud,D,63,0,3D,2D,0,1,b,1.83333789999597,1,0,1,0,3D,2D,D32,2.63905732961526,0.5,0.466206516308622,0.466206516308622,0.5,0.5,0.622076981267211,0.5,0.5,0.5,0.466206516308622,0.565302968302756,0.5,0.5,0.5,0.466206516308622,0.533793483691378,0.533793483691378,0.466206516308622,0.533793483691378,0.466206516308622,0.264929550299289,0.516737840068742,-0.533793483691378,-0.0360774827713763,0.5,0.067586967382755,0.922286689946033,0.478718065192872,2.05059587067383,0.5,60.4439019829305
CBC_1114,CBC_1114_MSI_AV_v3_Vset5_Aset2_2024-08-09_17h20.03.010.csv,2,14,1,0,z,0,1,3,aud,A,63,1,1A,0A,0,1,z,2.06505819999438,0,1,1,1,0A,1A,A10,3.36729582998647,0.5,0.466206516308622,0.466206516308622,0.5,0.5,0.622076981267211,0.5,0.5,0.5,0.466206516308622,0.565302968302756,0.5,0.5,0.5,0.466206516308622,0.497716000920001,0.517487712575405,0.482512287424595,0.5,0.466206516308622,0.198834270026036,0.508801946509657,0.5,0.0337934836913775,0.5,0.067586967382755,0.922286689946033,0.478718065192872,2.05059587067383,0.5,60.4439019829305
CBC_1114,CBC_1114_MSI_AV_v3_Vset5_Aset2_2024-08-09_17h20.03.010.csv,2,15,2,3,b,1,0,2,aud,C,63,1,2C,3C,1,0,z,1.52359089998936,0,1,0,0,3C,2C,C23,3.40119738166216,0.533793483691378,0.466206516308622,0.466206516308622,0.5,0.5,0.622076981267211,0.5,0.5,0.5,0.466206516308622,0.565302968302756,0.5,0.5,0.5,0.466206516308622,0.497716000920001,0.469350048650105,0.530649951349895,0.5,0.565302968302756,0.354061220167327,0.484923052047006,-0.5,-0.0337934836913775,0.5,0.067586967382755,0.922286689946033,0.478718065192872,2.05059587067383,0.5,60.4439019829305
CBC_1114,CBC_1114_MSI_AV_v3_Vset5_Aset2_2024-08-09_17h20.03.010.csv,2,16,0,2,b,1,0,3,aud,A,27,1,0A,2A,1,0,b,2.84236110000347,1,0,1,1,0A,2A,A02,2.7408400239252,0.533793483691378,0.466206516308622,0.466206516308622,0.5,0.5,0.622076981267211,0.5,0.5,0.5,0.466206516308622,0.565302968302756,0.466206516308622,0.5,0.5,0.466206516308622,0.497716000920001,0.533793483691378,0.466206516308622,0.533793483691378,0.466206516308622,0.0810908618422399,0.516858507772085,0.466206516308622,0.0315094846113787,0.5,0.067586967382755,0.922286689946033,0.478718065192872,2.05059587067383,0.5,60.4439019829305
CBC_1114,CBC_1114_MSI_AV_v3_Vset5_Aset2_2024-08-09_17h20.03.010.csv,2,17,2,3,z,0,1,1,aud,D,63,1,2D,3D,0,1,z,2.57139040000038,0,1,1,1,3D,2D,D23,3.46573590279973,0.565302968302756,0.466206516308622,0.466206516308622,0.5,0.5,0.622076981267211,0.5,0.5,0.5,0.466206516308622,0.565302968302756,0.466206516308622,0.5,0.5,0.466206516308622,0.497716000920001,0.5163444073814,0.4836555926186,0.497716000920001,0.466206516308622,0.109590336305449,0.508033940894595,0.502283999079999,0.0339478522626996,0.5,0.067586967382755,0.922286689946033,0.478718065192872,2.05059587067383,0.5,60.4439019829305
CBC_1114,CBC_1114_MSI_AV_v3_Vset5_Aset2_2024-08-09_17h20.03.010.csv,2,18,3,2,b,1,0,1,aud,D,63,1,3D,2D,1,0,z,2.54916870000307,0,1,0,0,2D,3D,D32,2.39789527279837,0.565302968302756,0.466206516308622,0.466206516308622,0.5,0.5,0.622076981267211,0.5,0.5,0.5,0.466206516308622,0.565302968302756,0.466206516308622,0.5,0.5,0.466206516308622,0.531663853182701,0.467201482840178,0.532798517159822,0.466206516308622,0.531663853182701,0.107073280266397,0.483693753364891,-0.466206516308622,-0.0315094846113787,0.5,0.067586967382755,0.922286689946033,0.478718065192872,2.05059587067383,0.5,60.4439019829305
CBC_1114,CBC_1114_MSI_AV_v3_Vset5_Aset2_2024-08-09_17h20.03.010.csv,2,19,3,1,z,0,1,0,aud,B,27,1,3B,1B,NaN,NaN,[],NaN,NaN,NaN,NaN,NaN,,,B31,2.83321334405622,0.565302968302756,0.466206516308622,0.466206516308622,0.5,0.5,0.622076981267211,0.5,0.5,0.5,0.466206516308622,0.565302968302756,0.466206516308622,0.5,0.5,0.434697031697244,0.531663853182701,0,0,0,0,NaN,0,0,0,0.5,0.067586967382755,0.922286689946033,0.478718065192872,2.05059587067383,0.5,60.4439019829305
CBC_1114,CBC_1114_MSI_AV_v3_Vset5_Aset2_2024-08-09_17h20.03.010.csv,2,20,0,3,z,0,1,1,aud,D,9,1,0D,3D,0,1,z,1.02804049999395,0,1,1,1,3D,0D,D03,3.55534806148941,0.565302968302756,0.466206516308622,0.466206516308622,0.5,0.5,0.622076981267211,0.5,0.5,0.5,0.466206516308622,0.565302968302756,0.466206516308622,0.5,0.5,0.434697031697244,0.531663853182701,0.515346012698331,0.484653987301669,0.531663853182701,0.5,0.0837938954868317,0.507405602791905,0.468336146817299,0.031653419879106,0.5,0.067586967382755,0.922286689946033,0.478718065192872,2.05059587067383,0.5,60.4439019829305
CBC_1114,CBC_1114_MSI_AV_v3_Vset5_Aset2_2024-08-09_17h20.03.010.csv,2,21,1,0,b,1,0,0,aud,B,63,1,1B,0B,1,0,b,1.51915989999543,1,0,1,1,1B,0B,B10,2.484906649788,0.565302968302756,0.466206516308622,0.466206516308622,0.5,0.5,0.622076981267211,0.5,0.5,0.5,0.466206516308622,0.565302968302756,0.466206516308622,0.5,0.5,0.434697031697244,0.563317273061807,0.554397774531184,0.445602225468816,0.622076981267211,0.5,0.386482575876093,0.526601829033191,0.377923018732789,0.0255426707402853,0.5,0.067586967382755,0.922286689946033,0.478718065192872,2.05059587067383,0.5,60.4439019829305
CBC_1114,CBC_1114_MSI_AV_v3_Vset5_Aset2_2024-08-09_17h20.03.010.csv,2,22,1,0,z,0,1,3,aud,A,63,1,1A,0A,0,1,b,1.93704879999859,1,0,0,0,1A,0A,A10,2.91777073208428,0.565302968302756,0.466206516308622,0.466206516308622,0.5,0.5,0.647619652007496,0.5,0.5,0.5,0.466206516308622,0.565302968302756,0.466206516308622,0.5,0.5,0.434697031697244,0.563317273061807,0.451965321951708,0.548034678048292,0.466206516308622,0.565302968302756,0.216678755577845,0.477172638756342,-0.466206516308622,-0.0315094846113787,0.5,0.067586967382755,0.922286689946033,0.478718065192872,2.05059587067383,0.5,60.4439019829305
CBC_1114,CBC_1114_MSI_AV_v3_Vset5_Aset2_2024-08-09_17h20.03.010.csv,2,23,2,3,b,1,0,2,aud,C,63,1,2C,3C,1,0,z,1.36234479999985,0,1,0,0,3C,2C,C23,2.94443897916644,0.565302968302756,0.434697031697244,0.466206516308622,0.5,0.5,0.647619652007496,0.5,0.5,0.5,0.466206516308622,0.565302968302756,0.466206516308622,0.5,0.5,0.434697031697244,0.563317273061807,0.451965321951708,0.548034678048292,0.466206516308622,0.565302968302756,0.404328141782268,0.476153991580497,-0.466206516308622,-0.0315094846113787,0.5,0.067586967382755,0.922286689946033,0.478718065192872,2.05059587067383,0.5,60.4439019829305
CBC_1114,CBC_1114_MSI_AV_v3_Vset5_Aset2_2024-08-09_17h20.03.010.csv,2,24,0,2,b,1,0,3,aud,A,27,1,0A,2A,1,0,z,2.2162387999997,0,1,0,0,2A,0A,A02,2.56494935746154,0.565302968302756,0.434697031697244,0.466206516308622,0.5,0.5,0.647619652007496,0.5,0.5,0.5,0.466206516308622,0.565302968302756,0.434697031697244,0.5,0.5,0.434697031697244,0.563317273061807,0.451965321951708,0.548034678048292,0.466206516308622,0.565302968302756,0.156010452818912,0.476809581254696,-0.466206516308622,-0.0315094846113787,0.5,0.067586967382755,0.922286689946033,0.478718065192872,2.05059587067383,0.5,60.4439019829305
CBC_1114,CBC_1114_MSI_AV_v3_Vset5_Aset2_2024-08-09_17h20.03.010.csv,2,25,1,0,b,1,0,0,aud,B,63,1,1B,0B,1,0,b,1.58442939999804,1,0,1,1,1B,0B,B10,2.30258509299405,0.565302968302756,0.434697031697244,0.434697031697244,0.5,0.5,0.647619652007496,0.5,0.5,0.5,0.466206516308622,0.565302968302756,0.434697031697244,0.5,0.5,0.434697031697244,0.563317273061807,0.564315582148349,0.435684417851651,0.647619652007496,0.5,0.363335275050802,0.53168127944291,0.352380347992504,0.0238163190860932,0.5,0.067586967382755,0.922286689946033,0.478718065192872,2.05059587067383,0.5,60.4439019829305
CBC_1114,CBC_1114_MSI_AV_v3_Vset5_Aset2_2024-08-09_17h20.03.010.csv,2,26,2,3,z,0,1,1,aud,D,63,1,2D,3D,0,1,b,2.17988419999892,1,0,0,0,2D,3D,D23,3.02042488614436,0.565302968302756,0.434697031697244,0.434697031697244,0.5,0.5,0.67143597109359,0.5,0.5,0.5,0.466206516308622,0.565302968302756,0.434697031697244,0.5,0.5,0.434697031697244,0.563317273061807,0.435561924938733,0.564438075061267,0.434697031697244,0.563317273061807,0.159971032522796,0.468562715316462,-0.434697031697244,-0.029379854102702,0.5,0.067586967382755,0.922286689946033,0.478718065192872,2.05059587067383,0.5,60.4439019829305
CBC_1114,CBC_1114_MSI_AV_v3_Vset5_Aset2_2024-08-09_17h20.03.010.csv,2,27,1,2,b,1,0,0,aud,B,9,1,1B,2B,1,0,b,1.5195146999904,1,0,1,1,1B,2B,B12,3.73766961828337,0.565302968302756,0.434697031697244,0.434697031697244,0.5,0.5,0.67143597109359,0.5,0.5,0.5,0.466206516308622,0.565302968302756,0.434697031697244,0.5,0.5,0.405317177594542,0.563317273061807,0.573173427879949,0.426826572120051,0.67143597109359,0.5,0.392967807861897,0.535389102260461,0.32856402890641,0.0222066463048441,0.5,0.067586967382755,0.922286689946033,0.478718065192872,2.05059587067383,0.5,60.4439019829305
CBC_1114,CBC_1114_MSI_AV_v3_Vset5_Aset2_2024-08-09_17h20.03.010.csv,2,28,1,3,z,0,1,1,aud,D,27,1,1D,3D,0,1,b,1.71055649999471,1,0,0,0,1D,3D,D13,3.76120011569356,0.565302968302756,0.434697031697244,0.434697031697244,0.5,0.5,0.693642617398434,0.5,0.5,0.5,0.466206516308622,0.565302968302756,0.434697031697244,0.5,0.5,0.405317177594542,0.563317273061807,0.470226537898944,0.529773462101055,0.5,0.563317273061807,0.286684321739852,0.484721178514352,-0.5,-0.0337934836913775,0.5,0.067586967382755,0.922286689946033,0.478718065192872,2.05059587067383,0.5,60.4439019829305
CBC_1114,CBC_1114_MSI_AV_v3_Vset5_Aset2_2024-08-09_17h20.03.010.csv,2,29,1,0,z,0,1,3,aud,A,63,1,1A,0A,0,1,b,1.87085619999561,1,0,0,0,1A,0A,A10,2.68557734525015,0.565302968302756,0.434697031697244,0.434697031697244,0.5,0.5,0.693642617398434,0.5,0.5,0.5,0.466206516308622,0.565302968302756,0.434697031697244,0.5,0.466206516308622,0.405317177594542,0.563317273061807,0.434697031697244,0.565302968302756,0.434697031697244,0.565302968302756,0.229548280775413,0.467741569543918,-0.434697031697244,-0.029379854102702,0.5,0.067586967382755,0.922286689946033,0.478718065192872,2.05059587067383,0.5,60.4439019829305
CBC_1114,CBC_1114_MSI_AV_v3_Vset5_Aset2_2024-08-09_17h20.03.010.csv,2,30,0,1,b,1,0,3,aud,A,63,1,0A,1A,1,0,z,1.81218359999184,0,1,0,0,1A,0A,A01,3.11351530921037,0.565302968302756,0.405317177594542,0.434697031697244,0.5,0.5,0.693642617398434,0.5,0.5,0.5,0.466206516308622,0.565302968302756,0.434697031697244,0.5,0.466206516308622,0.405317177594542,0.563317273061807,0.417585787094747,0.582414212905253,0.405317177594542,0.565302968302756,0.241451669452253,0.459256430097818,-0.405317177594542,-0.0273941588617526,0.5,0.067586967382755,0.922286689946033,0.478718065192872,2.05059587067383,0.5,60.4439019829305
CBC_1114,CBC_1114_MSI_AV_v3_Vset5_Aset2_2024-08-09_17h20.03.010.csv,2,31,0,2,z,0,1,2,aud,C,27,1,0C,2C,0,1,z,1.46189509998658,0,1,1,1,2C,0C,C02,3.13549421592915,0.565302968302756,0.377923018732789,0.434697031697244,0.5,0.5,0.693642617398434,0.5,0.5,0.5,0.466206516308622,0.565302968302756,0.434697031697244,0.5,0.466206516308622,0.405317177594542,0.563317273061807,0.530649951349895,0.469350048650105,0.565302968302756,0.5,0.400865215357545,0.514995969057774,0.434697031697244,0.029379854102702,0.5,0.067586967382755,0.922286689946033,0.478718065192872,2.05059587067383,0.5,60.4439019829305
CBC_1114,CBC_1114_MSI_AV_v3_Vset5_Aset2_2024-08-09_17h20.03.010.csv,2,32,1,0,z,0,1,3,aud,A,63,1,1A,0A,0,1,b,1.31153099999938,1,0,0,0,1A,0A,A10,2.46385324059017,0.565302968302756,0.377923018732789,0.434697031697244,0.5,0.5,0.693642617398434,0.5,0.5,0.5,0.466206516308622,0.594682822405458,0.434697031697244,0.5,0.466206516308622,0.405317177594542,0.563317273061807,0.40067070238444,0.59932929761556,0.377923018732789,0.565302968302756,0.394570632684615,0.450616389418544,-0.377923018732789,-0.0255426707402853,0.5,0.067586967382755,0.922286689946033,0.478718065192872,2.05059587067383,0.5,60.4439019829305
CBC_1114,CBC_1114_MSI_AV_v3_Vset5_Aset2_2024-08-09_17h20.03.010.csv,2,33,1,0,b,1,0,0,aud,B,63,1,1B,0B,1,0,b,1.62772360000235,1,0,1,1,1B,0B,B10,2.26176309847379,0.565302968302756,0.352380347992504,0.434697031697244,0.5,0.5,0.693642617398434,0.5,0.5,0.5,0.466206516308622,0.594682822405458,0.434697031697244,0.5,0.466206516308622,0.405317177594542,0.563317273061807,0.581114151998226,0.418885848001774,0.693642617398434,0.5,0.351128200608097,0.539364469156393,0.306357382601566,0.0207057664253583,0.5,0.067586967382755,0.922286689946033,0.478718065192872,2.05059587067383,0.5,60.4439019829305
CBC_1114,CBC_1114_MSI_AV_v3_Vset5_Aset2_2024-08-09_17h20.03.010.csv,2,34,3,2,b,1,0,1,aud,D,63,1,3D,2D,1,0,b,3.39000929999747,1,0,1,1,3D,2D,D32,2.50552593699074,0.565302968302756,0.352380347992504,0.434697031697244,0.5,0.5,0.714348383823792,0.5,0.5,0.5,0.466206516308622,0.594682822405458,0.434697031697244,0.5,0.466206516308622,0.405317177594542,0.563317273061807,0.581558164362316,0.418441835637684,0.563317273061807,0.405317177594542,0.0443882928953507,0.540106109130356,0.436682726938193,0.0295140612221842,0.5,0.067586967382755,0.922286689946033,0.478718065192872,2.05059587067383,0.5,60.4439019829305
CBC_1114,CBC_1114_MSI_AV_v3_Vset5_Aset2_2024-08-09_17h20.03.010.csv,2,35,3,1,z,0,1,0,aud,B,27,1,3B,1B,0,1,z,1.17107169999508,0,1,1,1,1B,3B,B31,2.81341071676004,0.565302968302756,0.352380347992504,0.434697031697244,0.5,0.5,0.714348383823792,0.5,0.5,0.5,0.466206516308622,0.594682822405458,0.434697031697244,0.5,0.466206516308622,0.405317177594542,0.592831334283991,0.588256544282969,0.411743455717031,0.714348383823792,0.5,0.434904598739605,0.544005077461417,0.285651616176208,0.0193063264653326,0.5,0.067586967382755,0.922286689946033,0.478718065192872,2.05059587067383,0.5,60.4439019829305
CBC_1114,CBC_1114_MSI_AV_v3_Vset5_Aset2_2024-08-09_17h20.03.010.csv,2,36,3,2,z,0,1,2,aud,C,63,1,3C,2C,0,1,z,2.70953219999501,0,1,1,1,2C,3C,C32,2.83321334405622,0.565302968302756,0.352380347992504,0.434697031697244,0.5,0.5,0.733654710289125,0.5,0.5,0.5,0.466206516308622,0.594682822405458,0.434697031697244,0.5,0.466206516308622,0.405317177594542,0.592831334283991,0.577709792974175,0.422290207025825,0.594682822405458,0.434697031697244,0.0987019966120262,0.539215411235095,0.405317177594542,0.0273941588617526,0.5,0.067586967382755,0.922286689946033,0.478718065192872,2.05059587067383,0.5,60.4439019829305
CBC_1114,CBC_1114_MSI_AV_v3_Vset5_Aset2_2024-08-09_17h20.03.010.csv,2,37,2,0,b,1,0,2,aud,C,27,1,2C,0C,1,0,z,4.63253170000098,0,1,0,0,0C,2C,C20,3.95124371858143,0.565302968302756,0.352380347992504,0.434697031697244,0.5,0.5,0.733654710289125,0.5,0.5,0.5,0.466206516308622,0.622076981267211,0.434697031697244,0.5,0.466206516308622,0.405317177594542,0.592831334283991,0.445602225468816,0.554397774531184,0.5,0.622076981267211,0.00907129015025678,0.47398133543422,-0.5,-0.0337934836913775,0.5,0.067586967382755,0.922286689946033,0.478718065192872,2.05059587067383,0.5,60.4439019829305
CBC_1114,CBC_1114_MSI_AV_v3_Vset5_Aset2_2024-08-09_17h20.03.010.csv,2,38,1,0,b,1,0,0,aud,B,63,1,1B,0B,1,0,b,2.13199249999889,1,0,1,1,1B,0B,B10,2.17853244432407,0.565302968302756,0.352380347992504,0.434697031697244,0.5,0.5,0.733654710289125,0.5,0.5,0.466206516308622,0.466206516308622,0.622076981267211,0.434697031697244,0.5,0.466206516308622,0.405317177594542,0.592831334283991,0.594700205957291,0.405299794042709,0.733654710289125,0.5,0.197230249020461,0.546275005863446,0.266345289710875,0.0180014704082394,0.5,0.067586967382755,0.922286689946033,0.478718065192872,2.05059587067383,0.5,60.4439019829305
CBC_1114,CBC_1114_MSI_AV_v3_Vset5_Aset2_2024-08-09_17h20.03.010.csv,2,39,3,0,z,0,1,3,aud,A,9,1,3A,0A,0,1,b,2.95948029999272,1,0,0,0,3A,0A,A30,3.98898404656427,0.565302968302756,0.352380347992504,0.434697031697244,0.5,0.5,0.751656180697364,0.5,0.5,0.466206516308622,0.466206516308622,0.622076981267211,0.434697031697244,0.5,0.466206516308622,0.405317177594542,0.592831334283991,0.469350048650105,0.530649951349895,0.5,0.565302968302756,0.0661358674259101,0.483663141207111,-0.5,-0.0337934836913775,0.5,0.067586967382755,0.922286689946033,0.478718065192872,2.05059587067383,0.5,60.4439019829305
CBC_1114,CBC_1114_MSI_AV_v3_Vset5_Aset2_2024-08-09_17h20.03.010.csv,2,40,3,2,z,0,1,2,aud,C,63,0,3C,2C,1,0,z,1.81295229999523,0,1,1,0,2C,3C,C32,2.62103882411258,0.565302968302756,0.352380347992504,0.434697031697244,0.466206516308622,0.5,0.751656180697364,0.5,0.5,0.466206516308622,0.466206516308622,0.622076981267211,0.434697031697244,0.5,0.466206516308622,0.405317177594542,0.592831334283991,0.588656584696065,0.411343415303935,0.622076981267211,0.434697031697244,0.285908561086986,0.54425630397799,-0.622076981267211,-0.0420442966424697,0.5,0.067586967382755,0.922286689946033,0.478718065192872,2.05059587067383,0.5,60.4439019829305
CBC_1114,CBC_1114_MSI_AV_v3_Vset5_Aset2_2024-08-09_17h20.03.010.csv,2,41,1,0,z,0,1,3,aud,A,63,1,1A,0A,0,1,b,1.79926879999402,1,0,0,0,1A,0A,A10,2.41591377830105,0.565302968302756,0.352380347992504,0.434697031697244,0.466206516308622,0.5,0.751656180697364,0.5,0.5,0.466206516308622,0.466206516308622,0.580032684624741,0.434697031697244,0.5,0.466206516308622,0.405317177594542,0.592831334283991,0.383989053451558,0.616010946548442,0.352380347992504,0.565302968302756,0.236410227865023,0.442688653803825,-0.352380347992504,-0.0238163190860932,0.5,0.067586967382755,0.922286689946033,0.478718065192872,2.05059587067383,0.5,60.4439019829305
CBC_1114,CBC_1114_MSI_AV_v3_Vset5_Aset2_2024-08-09_17h20.03.010.csv,2,42,3,2,b,1,0,1,aud,D,63,1,3D,2D,1,0,z,1.38672239999869,0,1,0,0,2D,3D,D32,2.43361335540045,0.565302968302756,0.328564028906411,0.434697031697244,0.466206516308622,0.5,0.751656180697364,0.5,0.5,0.466206516308622,0.466206516308622,0.580032684624741,0.434697031697244,0.5,0.466206516308622,0.405317177594542,0.592831334283991,0.406069009542205,0.593930990457795,0.405317177594542,0.592831334283991,0.378752085775886,0.453481073685207,-0.405317177594542,-0.0273941588617526,0.5,0.067586967382755,0.922286689946033,0.478718065192872,2.05059587067383,0.5,60.4439019829305
CBC_1114,CBC_1114_MSI_AV_v3_Vset5_Aset2_2024-08-09_17h20.03.010.csv,2,43,2,3,b,1,0,2,aud,C,63,1,2C,3C,1,0,b,2.30264299998817,1,0,1,1,2C,3C,C23,2.96183072187831,0.565302968302756,0.328564028906411,0.434697031697244,0.466206516308622,0.5,0.751656180697364,0.5,0.5,0.466206516308622,0.466206516308622,0.580032684624741,0.434697031697244,0.5,0.466206516308622,0.377923018732789,0.592831334283991,0.571612987473297,0.428387012526703,0.580032684624741,0.434697031697244,0.158333052859651,0.535846711593759,0.419967315375259,0.0283843172460908,0.5,0.067586967382755,0.922286689946033,0.478718065192872,2.05059587067383,0.5,60.4439019829305
CBC_1114,CBC_1114_MSI_AV_v3_Vset5_Aset2_2024-08-09_17h20.03.010.csv,2,44,1,3,z,0,1,1,aud,D,27,1,1D,3D,0,1,b,1.41149809998751,1,0,0,0,1D,3D,D13,3.38439026334577,0.565302968302756,0.328564028906411,0.434697031697244,0.466206516308622,0.5,0.751656180697364,0.5,0.5,0.466206516308622,0.466206516308622,0.608417001870832,0.434697031697244,0.5,0.466206516308622,0.377923018732789,0.592831334283991,0.440217048000451,0.55978295199955,0.466206516308622,0.592831334283991,0.384519803077457,0.470795259718339,-0.466206516308622,-0.0315094846113787,0.5,0.067586967382755,0.922286689946033,0.478718065192872,2.05059587067383,0.5,60.4439019829305
