ID,session,trialNr,mod2Stim,visStimLeft,visStimRight,correctKey,frequency,rewardAccurate,probFB,stimPairLeft,stimPairRight,leftCorrect,rightCorrect,pCorrectLeft,pCorrectRight,triplet,rt,surprise,0A belief,1A belief,2A belief,3A belief,0B belief,1B belief,2B belief,3B belief,0C belief,1C belief,2C belief,3C belief,0D belief,1D belief,2D belief,3D belief,reactionTime,choice,choiceLeft,choiceRight,chosenPair,otherPair,beliefPair,beliefOtherPair,beliefPairNorm,beliefOtherPairNorm,choiceAccurate,reward,rewardPE,update2,sim_CBCsimpleRW_CBCdriftDiffusionLR_startBelief,sim_CBCsimpleRW_CBCdriftDiffusionLR_alpha1,sim_CBCsimpleRW_CBCdriftDiffusionLR_nonDecisionTime,sim_CBCsimpleRW_CBCdriftDiffusionLR_weight,sim_CBCsimpleRW_CBCdriftDiffusionLR_startingBoundary,sim_CBCsimpleRW_CBCdriftDiffusionLR_startingPoint,lik,corrLik,fitCBCsimpleRW_CBCdriftDiffusionLR_startBelief,fitCBCsimpleRW_CBCdriftDiffusionLR_alpha1,fitCBCsimpleRW_CBCdriftDiffusionLR_nonDecisionTime,fitCBCsimpleRW_CBCdriftDiffusionLR_weight,fitCBCsimpleRW_CBCdriftDiffusionLR_startingBoundary,fitCBCsimpleRW_CBCdriftDiffusionLR_startingPoint,fit_CBCsimpleRW_CBCdriftDiffusionLR_NLL
151,1,1,B,1,0,a,63,1,0.95,1B,0B,1,0,1,0,B10,2.97611882822263,2.77258872223978,0.5,0.5,0.5,0.5,0.5,0.5,0.5,0.5,0.5,0.5,0.5,0.5,0.5,0.5,0.5,0.5,0.726611000837335,1,1,0,1B,0B,0.5,0.5,0.5,0.5,1,1,0.5,0.246015391927178,0.5,0.452880739897992,0.510611000837335,7.6242768443461,2.23533605131642,0.5,0.14293840857948,0.499698628087549,0.5,0.492030783854357,0.456009993203074,7.84978899094532,2.66152641805499,0.5,2.83318287936715
151,1,2,D,3,2,a,63,1,0.95,3D,2D,1,0,1,0,D32,3.39150495857998,2.83321334405622,0.5,0.5,0.5,0.5,0.5,0.746015391927178,0.5,0.5,0.5,0.5,0.5,0.5,0.5,0.5,0.5,0.5,2.91961100083734,0,0,1,2D,3D,0.5,0.5,0.5,0.5,0,0,-0.5,-0.246015391927178,0.5,0.452880739897992,0.510611000837335,7.6242768443461,2.23533605131642,0.5,0.0798142618462018,0.500631577772068,0.5,0.492030783854357,0.456009993203074,7.84978899094532,2.66152641805499,0.5,2.83318287936715
151,1,3,B,3,1,l,27,1,0.95,3B,1B,0,1,0,1,B31,1.83114825842267,2.89037175789616,0.5,0.5,0.5,0.5,0.5,0.746015391927178,0.5,0.5,0.5,0.5,0.5,0.5,0.5,0.5,0.253984608072822,0.5,1.89961100083734,0,0,1,1B,3B,0.746015391927178,0.5,0.598720847880809,0.401279152119191,1,1,0.253984608072822,0.124968245797012,0.5,0.452880739897992,0.510611000837335,7.6242768443461,2.23533605131642,0.5,0.225115188412849,0.984099275458854,0.5,0.492030783854357,0.456009993203074,7.84978899094532,2.66152641805499,0.5,2.83318287936715
151,1,4,C,2,3,a,63,1,0.95,2C,3C,1,0,1,0,C23,1.29198548287638,2.94443897916644,0.5,0.5,0.5,0.5,0.5,0.87098363772419,0.5,0.5,0.5,0.5,0.5,0.5,0.5,0.5,0.253984608072822,0.5,1.45861100083734,0,0,1,3C,2C,0.5,0.5,0.5,0.5,0,0,-0.5,-0.246015391927178,0.5,0.452880739897992,0.510611000837335,7.6242768443461,2.23533605131642,0.5,0.217300798823607,0.498173776825991,0.5,0.492030783854357,0.456009993203074,7.84978899094532,2.66152641805499,0.5,2.83318287936715
151,1,5,C,0,2,l,27,1,0.95,0C,2C,0,1,0,1,C02,1.35559498289829,2.99573227355399,0.5,0.5,0.5,0.5,0.5,0.87098363772419,0.5,0.5,0.5,0.5,0.5,0.253984608072822,0.5,0.5,0.253984608072822,0.5,1.15961100083734,0,0,1,2C,0C,0.5,0.5,0.5,0.5,1,1,0.5,0.246015391927178,0.5,0.452880739897992,0.510611000837335,7.6242768443461,2.23533605131642,0.5,0.255609020976665,0.500183870469564,0.5,0.492030783854357,0.456009993203074,7.84978899094532,2.66152641805499,0.5,2.83318287936715
151,1,6,A,0,3,a,9,1,0.95,0A,3A,1,0,1,0,A03,2.46414962106283,3.04452243772342,0.5,0.5,0.5,0.5,0.5,0.87098363772419,0.5,0.5,0.5,0.5,0.746015391927178,0.253984608072822,0.5,0.5,0.253984608072822,0.5,0.711611000837335,0,0,1,3A,0A,0.5,0.5,0.5,0.5,0,0,-0.5,-0.246015391927178,0.5,0.452880739897992,0.510611000837335,7.6242768443461,2.23533605131642,0.5,0.128663880589234,0.500337992917221,0.5,0.492030783854357,0.456009993203074,7.84978899094532,2.66152641805499,0.5,2.83318287936715
151,1,7,C,2,3,a,63,1,0.95,2C,3C,1,0,1,0,C23,0.723586079870386,2.39789527279837,0.5,0.5,0.5,0.253984608072822,0.5,0.87098363772419,0.5,0.5,0.5,0.5,0.746015391927178,0.253984608072822,0.5,0.5,0.253984608072822,0.5,0.870611000837335,1,1,0,2C,3C,0.746015391927178,0.253984608072822,0.746015391927178,0.253984608072822,1,1,0.253984608072822,0.124968245797012,0.5,0.452880739897992,0.510611000837335,7.6242768443461,2.23533605131642,0.5,1.82046701049745,0.999965710578752,0.5,0.492030783854357,0.456009993203074,7.84978899094532,2.66152641805499,0.5,2.83318287936715
151,1,8,A,1,0,l,63,1,0.95,1A,0A,0,1,0,1,A10,1.8333375112288,3.13549421592915,0.5,0.5,0.5,0.253984608072822,0.5,0.87098363772419,0.5,0.5,0.5,0.5,0.87098363772419,0.253984608072822,0.5,0.5,0.253984608072822,0.5,2.96561100083734,0,0,1,0A,1A,0.5,0.5,0.5,0.5,1,1,0.5,0.246015391927178,0.5,0.452880739897992,0.510611000837335,7.6242768443461,2.23533605131642,0.5,0.0771611254274712,0.499750236579547,0.5,0.492030783854357,0.456009993203074,7.84978899094532,2.66152641805499,0.5,2.83318287936715
151,1,9,D,2,3,l,63,1,0.95,2D,3D,0,1,0,1,D23,0.0213603038147411,3.17805383034795,0.746015391927178,0.5,0.5,0.253984608072822,0.5,0.87098363772419,0.5,0.5,0.5,0.5,0.87098363772419,0.253984608072822,0.5,0.5,0.253984608072822,0.5,0.742611000837335,0,0,1,3D,2D,0.5,0.253984608072822,0.663143510685179,0.336856489314821,1,1,0.5,0.246015391927178,0.5,0.452880739897992,0.510611000837335,7.6242768443461,2.23533605131642,0.5,1.85918689079049,0.998906032123057,0.5,0.492030783854357,0.456009993203074,7.84978899094532,2.66152641805499,0.5,2.83318287936715
151,1,10,C,3,2,l,63,1,0.95,3C,2C,0,1,0,1,C32,1.65923813944361,3.2188758248682,0.746015391927178,0.5,0.5,0.253984608072822,0.5,0.87098363772419,0.5,0.5,0.5,0.5,0.87098363772419,0.253984608072822,0.5,0.5,0.253984608072822,0.746015391927178,0.933611000837335,0,0,1,2C,3C,0.87098363772419,0.253984608072822,0.774229531347456,0.225770468652544,1,1,0.12901636227581,0.0634800218606043,0.5,0.452880739897992,0.510611000837335,7.6242768443461,2.23533605131642,0.5,0.927458571775862,0.999989428079534,0.5,0.492030783854357,0.456009993203074,7.84978899094532,2.66152641805499,0.5,2.83318287936715
151,1,11,D,3,1,a,27,1,0.95,3D,1D,1,0,1,0,D31,1.39320545240212,3.25809653802148,0.746015391927178,0.5,0.5,0.253984608072822,0.5,0.87098363772419,0.5,0.5,0.5,0.5,0.934463659584795,0.253984608072822,0.5,0.5,0.253984608072822,0.746015391927178,1.11261100083734,1,1,0,3D,1D,0.746015391927178,0.5,0.598720847880809,0.401279152119191,1,1,0.253984608072822,0.124968245797012,0.5,0.452880739897992,0.510611000837335,7.6242768443461,2.23533605131642,0.5,0.926017068818846,0.984097384489856,0.5,0.492030783854357,0.456009993203074,7.84978899094532,2.66152641805499,0.5,2.83318287936715
151,1,12,A,0,1,a,63,0,0.95,0A,1A,1,0,0,1,A01,0.79704660639256,3.29583686600433,0.746015391927178,0.5,0.5,0.253984608072822,0.5,0.87098363772419,0.5,0.5,0.5,0.5,0.934463659584795,0.253984608072822,0.5,0.5,0.253984608072822,0.87098363772419,0.948611000837335,1,1,0,0A,1A,0.746015391927178,0.5,0.598720847880809,0.401279152119191,1,0,-0.746015391927178,-0.367062538057345,0.5,0.452880739897992,0.510611000837335,7.6242768443461,2.23533605131642,0.5,1.10812779741774,0.984125786452557,0.5,0.492030783854357,0.456009993203074,7.84978899094532,2.66152641805499,0.5,2.83318287936715
151,1,13,C,3,2,l,63,1,0.95,3C,2C,0,1,0,1,C32,0.168107647276671,2.63905732961526,0.378952853869834,0.5,0.5,0.253984608072822,0.5,0.87098363772419,0.5,0.5,0.5,0.5,0.934463659584795,0.253984608072822,0.5,0.5,0.253984608072822,0.87098363772419,0.673611000837335,0,0,1,2C,3C,0.934463659584795,0.253984608072822,0.786288881910346,0.213711118089654,1,1,0.0655363404152053,0.0322458969454394,0.5,0.452880739897992,0.510611000837335,7.6242768443461,2.23533605131642,0.5,3.93195730785943,0.999993648786102,0.5,0.492030783854357,0.456009993203074,7.84978899094532,2.66152641805499,0.5,2.83318287936715
151,1,14,A,2,0,l,27,1,0.95,2A,0A,0,1,0,1,A20,1.82656142847832,3.36729582998647,0.378952853869834,0.5,0.5,0.253984608072822,0.5,0.87098363772419,0.5,0.5,0.5,0.5,0.966709556530234,0.253984608072822,0.5,0.5,0.253984608072822,0.87098363772419,1.93961100083734,1,1,0,2A,0A,0.5,0.378952853869834,0.568858725241759,0.431141274758241,0,0,-0.5,-0.246015391927178,0.5,0.452880739897992,0.510611000837335,7.6242768443461,2.23533605131642,0.5,0.279265575163761,0.946670292247231,0.5,0.492030783854357,0.456009993203074,7.84978899094532,2.66152641805499,0.5,2.83318287936715
151,1,15,B,1,0,a,63,1,0.95,1B,0B,1,0,1,0,B10,2.74695807547664,2.70805020110221,0.378952853869834,0.5,0.253984608072822,0.253984608072822,0.5,0.87098363772419,0.5,0.5,0.5,0.5,0.966709556530234,0.253984608072822,0.5,0.5,0.253984608072822,0.87098363772419,1.84861100083734,1,1,0,1B,0B,0.87098363772419,0.5,0.635298346207843,0.364701653792157,1,1,0.12901636227581,0.0634800218606043,0.5,0.452880739897992,0.510611000837335,7.6242768443461,2.23533605131642,0.5,0.122587626515069,0.996503894266996,0.5,0.492030783854357,0.456009993203074,7.84978899094532,2.66152641805499,0.5,2.83318287936715
151,1,16,D,2,3,l,63,1,0.95,2D,3D,0,1,0,1,D23,2.813601594107,2.7408400239252,0.378952853869834,0.5,0.253984608072822,0.253984608072822,0.5,0.934463659584795,0.5,0.5,0.5,0.5,0.966709556530234,0.253984608072822,0.5,0.5,0.253984608072822,0.87098363772419,0.729611000837335,0,0,1,3D,2D,0.87098363772419,0.253984608072822,0.774229531347456,0.225770468652544,1,1,0.12901636227581,0.0634800218606043,0.5,0.452880739897992,0.510611000837335,7.6242768443461,2.23533605131642,0.5,3.55452969225742,0.999989436280222,0.5,0.492030783854357,0.456009993203074,7.84978899094532,2.66152641805499,0.5,2.83318287936715
151,1,17,B,2,1,l,9,1,0.95,2B,1B,0,1,0,1,B21,1.0446235987133,3.46573590279973,0.378952853869834,0.5,0.253984608072822,0.253984608072822,0.5,0.934463659584795,0.5,0.5,0.5,0.5,0.966709556530234,0.253984608072822,0.5,0.5,0.253984608072822,0.934463659584795,1.08761100083734,0,0,1,1B,2B,0.934463659584795,0.5,0.651437666852623,0.348562333147376,1,1,0.0655363404152053,0.0322458969454394,0.5,0.452880739897992,0.510611000837335,7.6242768443461,2.23533605131642,0.5,1.03394667733465,0.998203873689542,0.5,0.492030783854357,0.456009993203074,7.84978899094532,2.66152641805499,0.5,2.83318287936715
151,1,18,D,3,1,a,27,1,0.95,3D,1D,1,0,1,0,D31,2.92317566064922,2.80336038090653,0.378952853869834,0.5,0.253984608072822,0.253984608072822,0.5,0.966709556530234,0.5,0.5,0.5,0.5,0.966709556530234,0.253984608072822,0.5,0.5,0.253984608072822,0.934463659584795,1.25461100083734,1,1,0,3D,1D,0.934463659584795,0.5,0.651437666852623,0.348562333147376,1,1,0.0655363404152053,0.0322458969454394,0.5,0.452880739897992,0.510611000837335,7.6242768443461,2.23533605131642,0.5,0.607764247941649,0.998215282324247,0.5,0.492030783854357,0.456009993203074,7.84978899094532,2.66152641805499,0.5,2.83318287936715
151,1,19,A,1,0,l,63,1,0.95,1A,0A,0,1,0,1,A10,0.676642236778723,2.83321334405622,0.378952853869834,0.5,0.253984608072822,0.253984608072822,0.5,0.966709556530234,0.5,0.5,0.5,0.5,0.966709556530234,0.253984608072822,0.5,0.5,0.253984608072822,0.966709556530234,2.57461100083734,1,1,0,1A,0A,0.5,0.378952853869834,0.568858725241759,0.431141274758241,0,0,-0.5,-0.246015391927178,0.5,0.452880739897992,0.510611000837335,7.6242768443461,2.23533605131642,0.5,0.124017917433271,0.946567641717073,0.5,0.492030783854357,0.456009993203074,7.84978899094532,2.66152641805499,0.5,2.83318287936715
151,1,20,A,0,1,a,63,1,0.95,0A,1A,1,0,1,0,A01,2.74601598075649,2.86220088092947,0.378952853869834,0.253984608072822,0.253984608072822,0.253984608072822,0.5,0.966709556530234,0.5,0.5,0.5,0.5,0.966709556530234,0.253984608072822,0.5,0.5,0.253984608072822,0.966709556530234,0.885611000837335,1,1,0,0A,1A,0.378952853869834,0.253984608072822,0.598720847880809,0.401279152119191,1,1,0.621047146130166,0.305574314120937,0.5,0.452880739897992,0.510611000837335,7.6242768443461,2.23533605131642,0.5,1.12803535314085,0.984150983915754,0.5,0.492030783854357,0.456009993203074,7.84978899094532,2.66152641805499,0.5,2.83318287936715
151,1,21,C,0,2,l,27,1,0.95,0C,2C,0,1,0,1,C02,2.62317185133908,2.89037175789616,0.684527167990771,0.253984608072822,0.253984608072822,0.253984608072822,0.5,0.966709556530234,0.5,0.5,0.5,0.5,0.966709556530234,0.253984608072822,0.5,0.5,0.253984608072822,0.966709556530234,0.606611000837335,0,0,1,2C,0C,0.966709556530234,0.5,0.659100878034203,0.340899121965797,1,1,0.0332904434697658,0.016379922995288,0.5,0.452880739897992,0.510611000837335,7.6242768443461,2.23533605131642,0.5,0.441911215189539,0.998713005615063,0.5,0.492030783854357,0.456009993203074,7.84978899094532,2.66152641805499,0.5,2.83318287936715
151,1,22,B,1,0,a,63,1,0.95,1B,0B,1,0,1,0,B10,1.63855235525547,2.51230562397611,0.684527167990771,0.253984608072822,0.253984608072822,0.253984608072822,0.5,0.966709556530234,0.5,0.5,0.5,0.5,0.983089479525522,0.253984608072822,0.5,0.5,0.253984608072822,0.966709556530234,0.667611000837335,1,1,0,1B,0B,0.966709556530234,0.5,0.659100878034203,0.340899121965797,1,1,0.0332904434697658,0.016379922995288,0.5,0.452880739897992,0.510611000837335,7.6242768443461,2.23533605131642,0.5,1.19182015298876,0.998704143521144,0.5,0.492030783854357,0.456009993203074,7.84978899094532,2.66152641805499,0.5,2.83318287936715
151,1,23,C,0,2,l,27,1,0.95,0C,2C,0,1,0,1,C02,3.27228490733353,2.53897387105828,0.684527167990771,0.253984608072822,0.253984608072822,0.253984608072822,0.5,0.983089479525522,0.5,0.5,0.5,0.5,0.983089479525522,0.253984608072822,0.5,0.5,0.253984608072822,0.966709556530234,0.848611000837335,0,0,1,2C,0C,0.983089479525522,0.5,0.662865924880026,0.337134075119974,1,1,0.0169105204744778,0.00832049664444248,0.5,0.452880739897992,0.510611000837335,7.6242768443461,2.23533605131642,0.5,1.88326933216293,0.998892103318001,0.5,0.492030783854357,0.456009993203074,7.84978899094532,2.66152641805499,0.5,2.83318287936715
151,1,24,D,2,3,l,63,1,0.95,2D,3D,0,1,0,1,D23,2.18318020784352,2.56494935746154,0.684527167990771,0.253984608072822,0.253984608072822,0.253984608072822,0.5,0.983089479525522,0.5,0.5,0.5,0.5,0.991409976169965,0.253984608072822,0.5,0.5,0.253984608072822,0.966709556530234,0.845611000837335,0,0,1,3D,2D,0.966709556530234,0.253984608072822,0.791934281790057,0.208065718209943,1,1,0.0332904434697658,0.016379922995288,0.5,0.452880739897992,0.510611000837335,7.6242768443461,2.23533605131642,0.5,1.67270104531023,0.999994984624795,0.5,0.492030783854357,0.456009993203074,7.84978899094532,2.66152641805499,0.5,2.83318287936715
151,1,25,A,0,1,a,63,1,0.95,0A,1A,1,0,1,0,A01,1.44782633177555,2.59026716544583,0.684527167990771,0.253984608072822,0.253984608072822,0.253984608072822,0.5,0.983089479525522,0.5,0.5,0.5,0.5,0.991409976169965,0.253984608072822,0.5,0.5,0.253984608072822,0.983089479525522,0.736611000837335,1,1,0,0A,1A,0.684527167990771,0.253984608072822,0.7293751505835,0.2706248494165,1,1,0.315472832009229,0.155222344818255,0.5,0.452880739897992,0.510611000837335,7.6242768443461,2.23533605131642,0.5,2.97233474314857,0.999930696318968,0.5,0.492030783854357,0.456009993203074,7.84978899094532,2.66152641805499,0.5,2.83318287936715
151,1,26,C,2,3,a,63,1,0.95,2C,3C,1,0,1,0,C23,2.47792502312798,2.6149597780362,0.839749512809026,0.253984608072822,0.253984608072822,0.253984608072822,0.5,0.983089479525522,0.5,0.5,0.5,0.5,0.991409976169965,0.253984608072822,0.5,0.5,0.253984608072822,0.983089479525522,0.669611000837335,1,1,0,2C,3C,0.991409976169965,0.253984608072822,0.796060934191996,0.203939065808004,1,1,0.00859002383003538,0.00422655615841991,0.5,0.452880739897992,0.510611000837335,7.6242768443461,2.23533605131642,0.5,4.11593914920132,0.999995756704997,0.5,0.492030783854357,0.456009993203074,7.84978899094532,2.66152641805499,0.5,2.83318287936715
151,1,27,A,0,2,a,27,1,0.95,0A,2A,1,0,1,0,A02,3.3297732098218,3.73766961828337,0.839749512809026,0.253984608072822,0.253984608072822,0.253984608072822,0.5,0.983089479525522,0.5,0.5,0.5,0.5,0.995636532328385,0.253984608072822,0.5,0.5,0.253984608072822,0.983089479525522,0.795611000837335,1,1,0,0A,2A,0.839749512809026,0.253984608072822,0.767782129839708,0.232217870160292,1,1,0.160250487190974,0.0788481728256177,0.5,0.452880739897992,0.510611000837335,7.6242768443461,2.23533605131642,0.5,2.64593204351238,0.999986151370526,0.5,0.492030783854357,0.456009993203074,7.84978899094532,2.66152641805499,0.5,2.83318287936715
151,1,28,D,2,3,l,63,1,0.95,2D,3D,0,1,0,1,D23,1.13712218289179,2.37490575457367,0.918597685634643,0.253984608072822,0.253984608072822,0.253984608072822,0.5,0.983089479525522,0.5,0.5,0.5,0.5,0.995636532328385,0.253984608072822,0.5,0.5,0.253984608072822,0.983089479525522,0.953611000837335,0,0,1,3D,2D,0.983089479525522,0.253984608072822,0.794689250531545,0.205310749468455,1,1,0.0169105204744778,0.00832049664444248,0.5,0.452880739897992,0.510611000837335,7.6242768443461,2.23533605131642,0.5,0.586585048244131,0.999995497730388,0.5,0.492030783854357,0.456009993203074,7.84978899094532,2.66152641805499,0.5,2.83318287936715
151,1,29,D,2,3,l,63,1,0.95,2D,3D,0,1,0,1,D23,0.186265355914638,2.17475172148416,0.918597685634643,0.253984608072822,0.253984608072822,0.253984608072822,0.5,0.983089479525522,0.5,0.5,0.5,0.5,0.995636532328385,0.253984608072822,0.5,0.5,0.253984608072822,0.991409976169965,0.648611000837335,0,0,1,3D,2D,0.991409976169965,0.253984608072822,0.796060934191996,0.203939065808004,1,1,0.00859002383003538,0.00422655615841991,0.5,0.452880739897992,0.510611000837335,7.6242768443461,2.23533605131642,0.5,3.84125507476898,0.999995779211446,0.5,0.492030783854357,0.456009993203074,7.84978899094532,2.66152641805499,0.5,2.83318287936715
151,1,30,B,1,3,a,27,1,0.95,1B,3B,1,0,1,0,B13,1.58084638290421,3.80666248977032,0.918597685634643,0.253984608072822,0.253984608072822,0.253984608072822,0.5,0.983089479525522,0.5,0.5,0.5,0.5,0.995636532328385,0.253984608072822,0.5,0.5,0.253984608072822,0.995636532328385,1.52961100083734,1,1,0,1B,3B,0.983089479525522,0.5,0.662865924880026,0.337134075119974,1,1,0.0169105204744778,0.00832049664444248,0.5,0.452880739897992,0.510611000837335,7.6242768443461,2.23533605131642,0.5,0.186763916280451,0.998898485560166,0.5,0.492030783854357,0.456009993203074,7.84978899094532,2.66152641805499,0.5,2.83318287936715
151,1,31,D,3,0,a,9,1,0.95,3D,0D,1,0,1,0,D30,1.72755622227157,3.8286413964891,0.918597685634643,0.253984608072822,0.253984608072822,0.253984608072822,0.5,0.991409976169965,0.5,0.5,0.5,0.5,0.995636532328385,0.253984608072822,0.5,0.5,0.253984608072822,0.995636532328385,0.985611000837335,1,1,0,3D,0D,0.995636532328385,0.5,0.6656941782362,0.334305821763799,1,1,0.00436346767161544,0.00214696041878809,0.5,0.452880739897992,0.510611000837335,7.6242768443461,2.23533605131642,0.5,1.37464294337685,0.999015785723712,0.5,0.492030783854357,0.456009993203074,7.84978899094532,2.66152641805499,0.5,2.83318287936715
151,1,32,B,0,1,l,63,1,0.95,0B,1B,0,1,0,1,B01,2.26966470741728,3.85014760171006,0.918597685634643,0.253984608072822,0.253984608072822,0.253984608072822,0.5,0.991409976169965,0.5,0.5,0.5,0.5,0.995636532328385,0.253984608072822,0.5,0.5,0.253984608072822,0.997783492747173,1.00661100083734,0,0,1,1B,0B,0.991409976169965,0.5,0.664746777888645,0.335253222111355,1,1,0.00859002383003538,0.00422655615841991,0.5,0.452880739897992,0.510611000837335,7.6242768443461,2.23533605131642,0.5,1.28923947308979,0.998975732845933,0.5,0.492030783854357,0.456009993203074,7.84978899094532,2.66152641805499,0.5,2.83318287936715
151,1,33,A,0,1,a,63,1,0.95,0A,1A,1,0,1,0,A01,1.81430669036762,2.484906649788,0.918597685634643,0.253984608072822,0.253984608072822,0.253984608072822,0.5,0.995636532328385,0.5,0.5,0.5,0.5,0.995636532328385,0.253984608072822,0.5,0.5,0.253984608072822,0.997783492747173,0.680611000837335,1,1,0,0A,1A,0.918597685634643,0.253984608072822,0.783397199978371,0.216602800021629,1,1,0.0814023143653566,0.0400524445447452,0.5,0.452880739897992,0.510611000837335,7.6242768443461,2.23533605131642,0.5,3.90510281065778,0.999992796970617,0.5,0.492030783854357,0.456009993203074,7.84978899094532,2.66152641805499,0.5,2.83318287936715
151,1,34,B,0,1,l,63,1,0.95,0B,1B,0,1,0,1,B01,3.05375298238238,3.19867311755068,0.958650130179389,0.253984608072822,0.253984608072822,0.253984608072822,0.5,0.995636532328385,0.5,0.5,0.5,0.5,0.995636532328385,0.253984608072822,0.5,0.5,0.253984608072822,0.997783492747173,1.03861100083734,0,0,1,1B,0B,0.995636532328385,0.5,0.6656941782362,0.334305821763799,1,1,0.00436346767161544,0.00214696041878809,0.5,0.452880739897992,0.510611000837335,7.6242768443461,2.23533605131642,0.5,1.15975295863569,0.999011895650766,0.5,0.492030783854357,0.456009993203074,7.84978899094532,2.66152641805499,0.5,2.83318287936715
151,1,35,C,2,3,a,63,1,0.95,2C,3C,1,0,1,0,C23,0.910853099424226,2.52572864430826,0.958650130179389,0.253984608072822,0.253984608072822,0.253984608072822,0.5,0.997783492747173,0.5,0.5,0.5,0.5,0.995636532328385,0.253984608072822,0.5,0.5,0.253984608072822,0.997783492747173,0.737611000837335,1,1,0,2C,3C,0.995636532328385,0.253984608072822,0.796750711186531,0.203249288813469,1,1,0.00436346767161544,0.00214696041878809,0.5,0.452880739897992,0.510611000837335,7.6242768443461,2.23533605131642,0.5,3.55050415760528,0.999995885092347,0.5,0.492030783854357,0.456009993203074,7.84978899094532,2.66152641805499,0.5,2.83318287936715
151,1,36,A,2,0,l,27,1,0.95,2A,0A,0,1,0,1,A20,2.19209624674002,3.23867845216438,0.958650130179389,0.253984608072822,0.253984608072822,0.253984608072822,0.5,0.997783492747173,0.5,0.5,0.5,0.5,0.997783492747173,0.253984608072822,0.5,0.5,0.253984608072822,0.997783492747173,0.673611000837335,0,0,1,0A,2A,0.958650130179389,0.253984608072822,0.79055143312248,0.20944856687752,1,1,0.0413498698206114,0.020345408860111,0.5,0.452880739897992,0.510611000837335,7.6242768443461,2.23533605131642,0.5,4.02049886027168,0.999994650335204,0.5,0.492030783854357,0.456009993203074,7.84978899094532,2.66152641805499,0.5,2.83318287936715
151,1,37,B,0,1,l,63,1,0.95,0B,1B,0,1,0,1,B01,0.819586950301741,2.85263142991332,0.9789955390395,0.253984608072822,0.253984608072822,0.253984608072822,0.5,0.997783492747173,0.5,0.5,0.5,0.5,0.997783492747173,0.253984608072822,0.5,0.5,0.253984608072822,0.997783492747173,0.887611000837335,0,0,1,1B,0B,0.997783492747173,0.5,0.666173380584586,0.333826619415414,1,1,0.0022165072528274,0.00109058980102753,0.5,0.452880739897992,0.510611000837335,7.6242768443461,2.23533605131642,0.5,1.78378633224666,0.9990376281056,0.5,0.492030783854357,0.456009993203074,7.84978899094532,2.66152641805499,0.5,2.83318287936715
151,1,38,B,1,3,a,27,1,0.95,1B,3B,1,0,1,0,B13,0.113135900823276,3.27714473299218,0.9789955390395,0.253984608072822,0.253984608072822,0.253984608072822,0.5,0.9988740825482,0.5,0.5,0.5,0.5,0.997783492747173,0.253984608072822,0.5,0.5,0.253984608072822,0.997783492747173,0.765611000837335,1,1,0,1B,3B,0.9988740825482,0.5,0.666416274841472,0.333583725158528,1,1,0.00112591745179991,0.000553986046364408,0.5,0.452880739897992,0.510611000837335,7.6242768443461,2.23533605131642,0.5,1.98453716882632,0.999044427014117,0.5,0.492030783854357,0.456009993203074,7.84978899094532,2.66152641805499,0.5,2.83318287936715
151,1,39,C,2,3,a,63,1,0.95,2C,3C,1,0,1,0,C23,3.42459828198762,2.37954613413017,0.9789955390395,0.253984608072822,0.253984608072822,0.253984608072822,0.5,0.999428068594564,0.5,0.5,0.5,0.5,0.997783492747173,0.253984608072822,0.5,0.5,0.253984608072822,0.997783492747173,0.602611000837335,1,1,0,2C,3C,0.997783492747173,0.253984608072822,0.797099312639103,0.202900687360897,1,1,0.0022165072528274,0.00109058980102753,0.5,0.452880739897992,0.510611000837335,7.6242768443461,2.23533605131642,0.5,2.26800871596314,0.999995932965967,0.5,0.492030783854357,0.456009993203074,7.84978899094532,2.66152641805499,0.5,2.83318287936715
151,1,40,D,1,3,l,27,1,0.95,1D,3D,0,1,0,1,D13,2.54358774750132,4.00733318523247,0.9789955390395,0.253984608072822,0.253984608072822,0.253984608072822,0.5,0.999428068594564,0.5,0.5,0.5,0.5,0.9988740825482,0.253984608072822,0.5,0.5,0.253984608072822,0.997783492747173,1.14161100083734,0,0,1,3D,1D,0.997783492747173,0.5,0.666173380584586,0.333826619415414,1,1,0.0022165072528274,0.00109058980102753,0.5,0.452880739897992,0.510611000837335,7.6242768443461,2.23533605131642,0.5,0.80279111023994,0.999034254730045,0.5,0.492030783854357,0.456009993203074,7.84978899094532,2.66152641805499,0.5,2.83318287936715
151,1,41,C,2,1,a,9,1,0.95,2C,1C,1,0,1,0,C21,2.09207929345884,4.02535169073515,0.9789955390395,0.253984608072822,0.253984608072822,0.253984608072822,0.5,0.999428068594564,0.5,0.5,0.5,0.5,0.9988740825482,0.253984608072822,0.5,0.5,0.253984608072822,0.9988740825482,1.05961100083734,1,1,0,2C,1C,0.9988740825482,0.5,0.666416274841472,0.333583725158528,1,1,0.00112591745179991,0.000553986046364408,0.5,0.452880739897992,0.510611000837335,7.6242768443461,2.23533605131642,0.5,1.07663658812035,0.999045612685921,0.5,0.492030783854357,0.456009993203074,7.84978899094532,2.66152641805499,0.5,2.83318287936715
151,1,42,B,1,0,a,63,0,0.95,1B,0B,1,0,0,1,B10,0.808661875902185,2.65675690671466,0.9789955390395,0.253984608072822,0.253984608072822,0.253984608072822,0.5,0.999428068594564,0.5,0.5,0.5,0.5,0.999428068594564,0.253984608072822,0.5,0.5,0.253984608072822,0.9988740825482,0.967611000837335,1,1,0,1B,0B,0.999428068594564,0.5,0.666539522320229,0.333460477679771,1,0,-0.999428068594564,-0.491749375996629,0.5,0.452880739897992,0.510611000837335,7.6242768443461,2.23533605131642,0.5,1.45074843113318,0.999050999829333,0.5,0.492030783854357,0.456009993203074,7.84978899094532,2.66152641805499,0.5,2.83318287936715
151,1,43,D,2,3,l,63,1,0.95,2D,3D,0,1,0,1,D23,2.9367694310238,2.26868354131836,0.9789955390395,0.253984608072822,0.253984608072822,0.253984608072822,0.5,0.507678692597935,0.5,0.5,0.5,0.5,0.999428068594564,0.253984608072822,0.5,0.5,0.253984608072822,0.9988740825482,0.757611000837335,0,0,1,3D,2D,0.9988740825482,0.253984608072822,0.797275933850987,0.202724066149013,1,1,0.00112591745179991,0.000553986046364408,0.5,0.452880739897992,0.510611000837335,7.6242768443461,2.23533605131642,0.5,3.1742903309014,0.99999595789362,0.5,0.492030783854357,0.456009993203074,7.84978899094532,2.66152641805499,0.5,2.83318287936715
151,1,44,A,1,0,l,63,1,0.95,1A,0A,0,1,0,1,A10,2.84050980202064,2.97892515523761,0.9789955390395,0.253984608072822,0.253984608072822,0.253984608072822,0.5,0.507678692597935,0.5,0.5,0.5,0.5,0.999428068594564,0.253984608072822,0.5,0.5,0.253984608072822,0.999428068594564,0.643611000837335,0,0,1,0A,1A,0.9789955390395,0.253984608072822,0.794007544511028,0.205992455488972,1,1,0.0210044609605003,0.0103348413908332,0.5,0.452880739897992,0.510611000837335,7.6242768443461,2.23533605131642,0.5,3.67242022243944,0.999995373456779,0.5,0.492030783854357,0.456009993203074,7.84978899094532,2.66152641805499,0.5,2.83318287936715
