ID,filename,session,trial,visStimLeft,visStimRight,correctKey,leftCorrect,rightCorrect,secondStim,mod2Type,mod2Stim,frequency,rewardAccurate,stimPairLeft,stimPairRight,pCorrectLeft,pCorrectRight,key,reactionTime,choiceLeft,choiceRight,choiceAccurate,reward,chosenPair,otherPair,triplet,surprise,0A belief,1A belief,2A belief,3A belief,0B belief,1B belief,2B belief,3B belief,0C belief,1C belief,2C belief,3C belief,0D belief,1D belief,2D belief,3D belief,beliefPairNorm,beliefOtherPairNorm,beliefPair,beliefOtherPair,lik,corrLik,rewardPE,update2,fitCBCsimpleRW_CBCdriftDiffusionLR_startBelief,fitCBCsimpleRW_CBCdriftDiffusionLR_alpha1,fitCBCsimpleRW_CBCdriftDiffusionLR_nonDecisionTime,fitCBCsimpleRW_CBCdriftDiffusionLR_weight,fitCBCsimpleRW_CBCdriftDiffusionLR_startingBoundary,fitCBCsimpleRW_CBCdriftDiffusionLR_startingPoint,fit_CBCsimpleRW_CBCdriftDiffusionLR_NLL
CBC_1014,CBC_1014_MSI_TV_v3_Vset4_Tset3_2023-06-25_10h42.28.156.csv,1,1,1,0,b,1,0,0,tac,B,63,1,1B,0B,NaN,NaN,None,NaN,NaN,NaN,NaN,NaN,,,B10,2.77258872223978,0.5,0.5,0.5,0.5,0.5,0.5,0.5,0.5,0.5,0.5,0.5,0.5,0.5,0.5,0.5,0.5,0,0,0,0,NaN,0,0,0,0.5,0.054532931632446,1.09790379585494,0.876071080248738,2.83226850169195,0.5,86.0952277541161
CBC_1014,CBC_1014_MSI_TV_v3_Vset4_Tset3_2023-06-25_10h42.28.156.csv,1,2,1,0,z,0,1,2,tac,A,63,1,1A,0A,NaN,NaN,None,NaN,NaN,NaN,NaN,NaN,,,A10,2.83321334405622,0.5,0.5,0.5,0.5,0.5,0.5,0.5,0.5,0.5,0.5,0.5,0.5,0.5,0.5,0.5,0.5,0,0,0,0,NaN,0,0,0,0.5,0.054532931632446,1.09790379585494,0.876071080248738,2.83226850169195,0.5,86.0952277541161
CBC_1014,CBC_1014_MSI_TV_v3_Vset4_Tset3_2023-06-25_10h42.28.156.csv,1,3,3,2,b,1,0,1,tac,D,63,1,3D,2D,1,0,b,1.32539670000006,1,0,1,1,3D,2D,D32,2.89037175789616,0.5,0.5,0.5,0.5,0.5,0.5,0.5,0.5,0.5,0.5,0.5,0.5,0.5,0.5,0.5,0.5,0.5,0.5,0.5,0.5,0.0634581854241996,0.500184453922954,0.5,0.027266465816223,0.5,0.054532931632446,1.09790379585494,0.876071080248738,2.83226850169195,0.5,86.0952277541161
CBC_1014,CBC_1014_MSI_TV_v3_Vset4_Tset3_2023-06-25_10h42.28.156.csv,1,4,1,2,b,1,0,0,tac,B,9,1,1B,2B,1,0,z,2.58033430000023,0,1,0,0,2B,1B,B12,2.94443897916644,0.5,0.5,0.5,0.5,0.5,0.5,0.5,0.5,0.5,0.5,0.5,0.5,0.5,0.5,0.5,0.527266465816223,0.5,0.5,0.5,0.5,0.157129076289204,0.500367474800023,-0.5,-0.027266465816223,0.5,0.054532931632446,1.09790379585494,0.876071080248738,2.83226850169195,0.5,86.0952277541161
CBC_1014,CBC_1014_MSI_TV_v3_Vset4_Tset3_2023-06-25_10h42.28.156.csv,1,5,2,0,z,0,1,2,tac,A,27,1,2A,0A,0,1,b,2.73704310000039,1,0,0,0,2A,0A,A20,2.99573227355399,0.5,0.5,0.5,0.5,0.5,0.5,0.472733534183777,0.5,0.5,0.5,0.5,0.5,0.5,0.5,0.5,0.527266465816223,0.5,0.5,0.5,0.5,0.142460896536058,0.499022155827044,-0.5,-0.027266465816223,0.5,0.054532931632446,1.09790379585494,0.876071080248738,2.83226850169195,0.5,86.0952277541161
CBC_1014,CBC_1014_MSI_TV_v3_Vset4_Tset3_2023-06-25_10h42.28.156.csv,1,6,3,2,z,0,1,3,tac,C,63,1,3C,2C,0,1,b,2.6618911000005,1,0,0,0,3C,2C,C32,3.04452243772342,0.5,0.5,0.472733534183777,0.5,0.5,0.5,0.472733534183777,0.5,0.5,0.5,0.5,0.5,0.5,0.5,0.5,0.527266465816223,0.5,0.5,0.5,0.5,0.149607970698604,0.500591969597022,-0.5,-0.027266465816223,0.5,0.054532931632446,1.09790379585494,0.876071080248738,2.83226850169195,0.5,86.0952277541161
CBC_1014,CBC_1014_MSI_TV_v3_Vset4_Tset3_2023-06-25_10h42.28.156.csv,1,7,3,1,b,1,0,1,tac,D,27,1,3D,1D,1,0,z,3.22827830000006,0,1,0,0,1D,3D,D31,3.09104245335832,0.5,0.5,0.472733534183777,0.5,0.5,0.5,0.472733534183777,0.5,0.5,0.5,0.5,0.472733534183777,0.5,0.5,0.5,0.527266465816223,0.486728630436428,0.513271369563572,0.5,0.527266465816223,0.102239567067338,0.484091072290015,-0.5,-0.027266465816223,0.5,0.054532931632446,1.09790379585494,0.876071080248738,2.83226850169195,0.5,86.0952277541161
CBC_1014,CBC_1014_MSI_TV_v3_Vset4_Tset3_2023-06-25_10h42.28.156.csv,1,8,0,1,b,1,0,2,tac,A,63,1,0A,1A,1,0,b,2.46239510000032,1,0,1,1,0A,1A,A01,3.13549421592915,0.5,0.5,0.472733534183777,0.5,0.5,0.5,0.472733534183777,0.5,0.5,0.5,0.5,0.472733534183777,0.5,0.472733534183777,0.5,0.527266465816223,0.5,0.5,0.5,0.5,0.168493663049917,0.499808864556899,0.5,0.027266465816223,0.5,0.054532931632446,1.09790379585494,0.876071080248738,2.83226850169195,0.5,86.0952277541161
CBC_1014,CBC_1014_MSI_TV_v3_Vset4_Tset3_2023-06-25_10h42.28.156.csv,1,9,0,2,z,0,1,3,tac,C,27,1,0C,2C,0,1,z,2.77261130000034,0,1,1,1,2C,0C,C02,3.17805383034795,0.527266465816223,0.5,0.472733534183777,0.5,0.5,0.5,0.472733534183777,0.5,0.5,0.5,0.5,0.472733534183777,0.5,0.472733534183777,0.5,0.527266465816223,0.5,0.5,0.5,0.5,0.139900395334774,0.500818258920908,0.5,0.027266465816223,0.5,0.054532931632446,1.09790379585494,0.876071080248738,2.83226850169195,0.5,86.0952277541161
CBC_1014,CBC_1014_MSI_TV_v3_Vset4_Tset3_2023-06-25_10h42.28.156.csv,1,10,3,2,b,1,0,1,tac,D,63,1,3D,2D,1,0,b,2.65895420000015,1,0,1,1,3D,2D,D32,2.52572864430826,0.527266465816223,0.5,0.472733534183777,0.5,0.5,0.5,0.472733534183777,0.5,0.5,0.5,0.527266465816223,0.472733534183777,0.5,0.472733534183777,0.5,0.527266465816223,0.513271369563572,0.486728630436428,0.527266465816223,0.5,0.154708327365935,0.516670186213106,0.472733534183777,0.0257795455000085,0.5,0.054532931632446,1.09790379585494,0.876071080248738,2.83226850169195,0.5,86.0952277541161
CBC_1014,CBC_1014_MSI_TV_v3_Vset4_Tset3_2023-06-25_10h42.28.156.csv,1,11,0,1,z,0,1,0,tac,B,63,1,0B,1B,0,1,z,2.79256040000018,0,1,1,1,1B,0B,B01,3.25809653802148,0.527266465816223,0.5,0.472733534183777,0.5,0.5,0.5,0.472733534183777,0.5,0.5,0.5,0.527266465816223,0.472733534183777,0.5,0.472733534183777,0.5,0.553046011316231,0.5,0.5,0.5,0.5,0.137998761625702,0.500073861823378,0.5,0.027266465816223,0.5,0.054532931632446,1.09790379585494,0.876071080248738,2.83226850169195,0.5,86.0952277541161
CBC_1014,CBC_1014_MSI_TV_v3_Vset4_Tset3_2023-06-25_10h42.28.156.csv,1,12,1,0,z,0,1,2,tac,A,63,1,1A,0A,0,1,z,2.57692290000023,0,1,1,1,0A,1A,A10,2.60268968544438,0.527266465816223,0.5,0.472733534183777,0.5,0.5,0.527266465816223,0.472733534183777,0.5,0.5,0.5,0.527266465816223,0.472733534183777,0.5,0.472733534183777,0.5,0.553046011316231,0.513271369563572,0.486728630436428,0.527266465816223,0.5,0.162380225437375,0.515954288152735,0.472733534183777,0.0257795455000085,0.5,0.054532931632446,1.09790379585494,0.876071080248738,2.83226850169195,0.5,86.0952277541161
CBC_1014,CBC_1014_MSI_TV_v3_Vset4_Tset3_2023-06-25_10h42.28.156.csv,1,13,3,2,b,1,0,1,tac,D,63,1,3D,2D,1,0,b,2.35402250000016,1,0,1,1,3D,2D,D32,2.23359222150709,0.553046011316231,0.5,0.472733534183777,0.5,0.5,0.527266465816223,0.472733534183777,0.5,0.5,0.5,0.527266465816223,0.472733534183777,0.5,0.472733534183777,0.5,0.553046011316231,0.525186939006553,0.474813060993447,0.553046011316231,0.5,0.191482597605022,0.532322729294888,0.446953988683769,0.024373711307741,0.5,0.054532931632446,1.09790379585494,0.876071080248738,2.83226850169195,0.5,86.0952277541161
CBC_1014,CBC_1014_MSI_TV_v3_Vset4_Tset3_2023-06-25_10h42.28.156.csv,1,14,0,2,z,0,1,3,tac,C,27,1,0C,2C,0,1,z,2.66863920000014,0,1,1,1,2C,0C,C02,2.67414864942653,0.553046011316231,0.5,0.472733534183777,0.5,0.5,0.527266465816223,0.472733534183777,0.5,0.5,0.5,0.527266465816223,0.472733534183777,0.5,0.472733534183777,0.5,0.577419722623972,0.513271369563572,0.486728630436428,0.527266465816223,0.5,0.153773313349085,0.516585161962512,0.472733534183777,0.0257795455000085,0.5,0.054532931632446,1.09790379585494,0.876071080248738,2.83226850169195,0.5,86.0952277541161
CBC_1014,CBC_1014_MSI_TV_v3_Vset4_Tset3_2023-06-25_10h42.28.156.csv,1,15,1,0,z,0,1,2,tac,A,63,1,1A,0A,0,1,z,2.91875919999984,0,1,1,1,0A,1A,A10,2.30258509299405,0.553046011316231,0.5,0.472733534183777,0.5,0.5,0.527266465816223,0.472733534183777,0.5,0.5,0.5,0.553046011316231,0.472733534183777,0.5,0.472733534183777,0.5,0.577419722623972,0.525186939006553,0.474813060993447,0.553046011316231,0.5,0.135835683169266,0.531698260983651,0.446953988683769,0.024373711307741,0.5,0.054532931632446,1.09790379585494,0.876071080248738,2.83226850169195,0.5,86.0952277541161
CBC_1014,CBC_1014_MSI_TV_v3_Vset4_Tset3_2023-06-25_10h42.28.156.csv,1,16,3,1,z,0,1,0,tac,B,27,1,3B,1B,0,1,z,3.03856950000045,0,1,1,1,1B,3B,B31,3.43398720448515,0.577419722623972,0.5,0.472733534183777,0.5,0.5,0.527266465816223,0.472733534183777,0.5,0.5,0.5,0.553046011316231,0.472733534183777,0.5,0.472733534183777,0.5,0.577419722623972,0.513271369563572,0.486728630436428,0.527266465816223,0.5,0.122514040811368,0.516231956591452,0.472733534183777,0.0257795455000085,0.5,0.054532931632446,1.09790379585494,0.876071080248738,2.83226850169195,0.5,86.0952277541161
CBC_1014,CBC_1014_MSI_TV_v3_Vset4_Tset3_2023-06-25_10h42.28.156.csv,1,17,2,3,b,1,0,3,tac,C,63,1,2C,3C,1,0,z,2.75766909999993,0,1,0,0,3C,2C,C23,3.46573590279973,0.577419722623972,0.5,0.472733534183777,0.5,0.5,0.553046011316231,0.472733534183777,0.5,0.5,0.5,0.553046011316231,0.472733534183777,0.5,0.472733534183777,0.5,0.577419722623972,0.460852954475074,0.539147045524926,0.472733534183777,0.553046011316231,0.127062796094836,0.450345486006599,-0.472733534183777,-0.0257795455000085,0.5,0.054532931632446,1.09790379585494,0.876071080248738,2.83226850169195,0.5,86.0952277541161
CBC_1014,CBC_1014_MSI_TV_v3_Vset4_Tset3_2023-06-25_10h42.28.156.csv,1,18,3,2,b,1,0,1,tac,D,63,0,3D,2D,0,1,z,2.64483120000023,0,1,0,1,2D,3D,D32,2.11021320034659,0.577419722623972,0.5,0.472733534183777,0.5,0.5,0.553046011316231,0.472733534183777,0.5,0.5,0.5,0.553046011316231,0.446953988683769,0.5,0.472733534183777,0.5,0.577419722623972,0.464071697873034,0.535928302126966,0.5,0.577419722623972,0.13743306697805,0.454681033123632,0.5,0.027266465816223,0.5,0.054532931632446,1.09790379585494,0.876071080248738,2.83226850169195,0.5,86.0952277541161
CBC_1014,CBC_1014_MSI_TV_v3_Vset4_Tset3_2023-06-25_10h42.28.156.csv,1,19,0,1,z,0,1,0,tac,B,63,1,0B,1B,0,1,b,3.00174190000007,1,0,0,0,0B,1B,B01,2.83321334405622,0.577419722623972,0.5,0.472733534183777,0.5,0.5,0.553046011316231,0.472733534183777,0.5,0.5,0.5,0.553046011316231,0.446953988683769,0.5,0.472733534183777,0.527266465816223,0.577419722623972,0.474813060993447,0.525186939006553,0.5,0.553046011316231,0.114012527781021,0.4696323605623,-0.5,-0.027266465816223,0.5,0.054532931632446,1.09790379585494,0.876071080248738,2.83226850169195,0.5,86.0952277541161
CBC_1014,CBC_1014_MSI_TV_v3_Vset4_Tset3_2023-06-25_10h42.28.156.csv,1,20,0,2,b,1,0,2,tac,A,27,1,0A,2A,1,0,z,2.65592520000018,0,1,0,0,2A,0A,A02,3.55534806148941,0.577419722623972,0.5,0.472733534183777,0.5,0.472733534183777,0.553046011316231,0.472733534183777,0.5,0.5,0.5,0.553046011316231,0.446953988683769,0.5,0.472733534183777,0.527266465816223,0.577419722623972,0.450156709146235,0.549843290853765,0.472733534183777,0.577419722623972,0.131706565251298,0.43835394595131,-0.472733534183777,-0.0257795455000085,0.5,0.054532931632446,1.09790379585494,0.876071080248738,2.83226850169195,0.5,86.0952277541161
CBC_1014,CBC_1014_MSI_TV_v3_Vset4_Tset3_2023-06-25_10h42.28.156.csv,1,21,3,0,b,1,0,1,tac,D,9,1,3D,0D,1,0,b,2.89501040000005,1,0,1,1,3D,0D,D30,3.58351893845611,0.577419722623972,0.5,0.446953988683769,0.5,0.472733534183777,0.553046011316231,0.472733534183777,0.5,0.5,0.5,0.553046011316231,0.446953988683769,0.5,0.472733534183777,0.527266465816223,0.577419722623972,0.535928302126966,0.464071697873034,0.577419722623972,0.5,0.141145904564326,0.544376095552201,0.422580277376028,0.023044541375367,0.5,0.054532931632446,1.09790379585494,0.876071080248738,2.83226850169195,0.5,86.0952277541161
CBC_1014,CBC_1014_MSI_TV_v3_Vset4_Tset3_2023-06-25_10h42.28.156.csv,1,22,3,2,z,0,1,3,tac,C,63,1,3C,2C,0,1,z,2.60577240000021,0,1,1,1,2C,3C,C32,2.91777073208428,0.577419722623972,0.5,0.446953988683769,0.5,0.472733534183777,0.553046011316231,0.472733534183777,0.5,0.5,0.5,0.553046011316231,0.446953988683769,0.5,0.472733534183777,0.527266465816223,0.600464263999339,0.553046011316231,0.446953988683769,0.553046011316231,0.446953988683769,0.175187058548134,0.565336193259485,0.446953988683769,0.024373711307741,0.5,0.054532931632446,1.09790379585494,0.876071080248738,2.83226850169195,0.5,86.0952277541161
CBC_1014,CBC_1014_MSI_TV_v3_Vset4_Tset3_2023-06-25_10h42.28.156.csv,1,23,1,3,b,1,0,0,tac,B,27,1,1B,3B,1,0,b,2.76605449999988,1,0,1,1,1B,3B,B13,3.63758615972639,0.577419722623972,0.5,0.446953988683769,0.5,0.472733534183777,0.553046011316231,0.472733534183777,0.5,0.5,0.5,0.577419722623972,0.446953988683769,0.5,0.472733534183777,0.527266465816223,0.600464263999339,0.525186939006553,0.474813060993447,0.553046011316231,0.5,0.149012690012098,0.531132219482685,0.446953988683769,0.024373711307741,0.5,0.054532931632446,1.09790379585494,0.876071080248738,2.83226850169195,0.5,86.0952277541161
CBC_1014,CBC_1014_MSI_TV_v3_Vset4_Tset3_2023-06-25_10h42.28.156.csv,1,24,2,3,b,1,0,3,tac,C,63,1,2C,3C,1,0,z,2.85987220000015,0,1,0,0,3C,2C,C23,2.9704144655697,0.577419722623972,0.5,0.446953988683769,0.5,0.472733534183777,0.577419722623972,0.472733534183777,0.5,0.5,0.5,0.577419722623972,0.446953988683769,0.5,0.472733534183777,0.527266465816223,0.600464263999339,0.436319268788317,0.563680731211683,0.446953988683769,0.577419722623972,0.111958529461333,0.422167174901441,-0.446953988683769,-0.024373711307741,0.5,0.054532931632446,1.09790379585494,0.876071080248738,2.83226850169195,0.5,86.0952277541161
CBC_1014,CBC_1014_MSI_TV_v3_Vset4_Tset3_2023-06-25_10h42.28.156.csv,1,25,3,2,b,1,0,1,tac,D,63,1,3D,2D,1,0,b,3.67556860000013,1,0,1,1,3D,2D,D32,2.07944154167984,0.577419722623972,0.5,0.446953988683769,0.5,0.472733534183777,0.577419722623972,0.472733534183777,0.5,0.5,0.5,0.577419722623972,0.422580277376028,0.5,0.472733534183777,0.527266465816223,0.600464263999339,0.532453579674595,0.467546420325405,0.600464263999339,0.527266465816223,0.086430539598236,0.53928263458036,0.399535736000661,0.021787854976043,0.5,0.054532931632446,1.09790379585494,0.876071080248738,2.83226850169195,0.5,86.0952277541161
CBC_1014,CBC_1014_MSI_TV_v3_Vset4_Tset3_2023-06-25_10h42.28.156.csv,1,26,0,1,z,0,1,0,tac,B,63,1,0B,1B,0,1,z,1.99848299999985,0,1,1,1,1B,0B,B01,2.6149597780362,0.577419722623972,0.5,0.446953988683769,0.5,0.472733534183777,0.577419722623972,0.472733534183777,0.5,0.5,0.5,0.577419722623972,0.422580277376028,0.5,0.472733534183777,0.527266465816223,0.622252118975382,0.549843290853765,0.450156709146235,0.577419722623972,0.472733534183777,0.244665870442394,0.561341927901992,0.422580277376028,0.023044541375367,0.5,0.054532931632446,1.09790379585494,0.876071080248738,2.83226850169195,0.5,86.0952277541161
CBC_1014,CBC_1014_MSI_TV_v3_Vset4_Tset3_2023-06-25_10h42.28.156.csv,1,27,3,0,z,0,1,2,tac,A,9,1,3A,0A,0,1,z,2.87447150000025,0,1,1,1,0A,3A,A30,3.73766961828337,0.577419722623972,0.5,0.446953988683769,0.5,0.472733534183777,0.600464263999339,0.472733534183777,0.5,0.5,0.5,0.577419722623972,0.422580277376028,0.5,0.472733534183777,0.527266465816223,0.622252118975382,0.535928302126966,0.464071697873034,0.577419722623972,0.5,0.142872598742217,0.544122817832488,0.422580277376028,0.023044541375367,0.5,0.054532931632446,1.09790379585494,0.876071080248738,2.83226850169195,0.5,86.0952277541161
CBC_1014,CBC_1014_MSI_TV_v3_Vset4_Tset3_2023-06-25_10h42.28.156.csv,1,28,3,2,b,1,0,1,tac,D,63,1,3D,2D,1,0,b,2.87275610000006,1,0,1,1,3D,2D,D32,1.96944064646551,0.600464263999339,0.5,0.446953988683769,0.5,0.472733534183777,0.600464263999339,0.472733534183777,0.5,0.5,0.5,0.577419722623972,0.422580277376028,0.5,0.472733534183777,0.527266465816223,0.622252118975382,0.541315405603633,0.458684594396367,0.622252118975382,0.527266465816223,0.145417541648208,0.553121748925879,0.377747881024618,0.0205996993702168,0.5,0.054532931632446,1.09790379585494,0.876071080248738,2.83226850169195,0.5,86.0952277541161
CBC_1014,CBC_1014_MSI_TV_v3_Vset4_Tset3_2023-06-25_10h42.28.156.csv,1,29,0,2,z,0,1,3,tac,C,27,1,0C,2C,0,1,z,2.62369580000041,0,1,1,1,2C,0C,C02,2.68557734525015,0.600464263999339,0.5,0.446953988683769,0.5,0.472733534183777,0.600464263999339,0.472733534183777,0.5,0.5,0.5,0.577419722623972,0.422580277376028,0.5,0.472733534183777,0.527266465816223,0.642851818345599,0.535928302126966,0.464071697873034,0.577419722623972,0.5,0.166689680772637,0.544434742301258,0.422580277376028,0.023044541375367,0.5,0.054532931632446,1.09790379585494,0.876071080248738,2.83226850169195,0.5,86.0952277541161
CBC_1014,CBC_1014_MSI_TV_v3_Vset4_Tset3_2023-06-25_10h42.28.156.csv,1,30,0,1,b,1,0,2,tac,A,63,1,0A,1A,1,0,z,3.50192930000003,0,1,0,0,1A,0A,A01,3.11351530921037,0.600464263999339,0.5,0.446953988683769,0.5,0.472733534183777,0.600464263999339,0.472733534183777,0.5,0.5,0.5,0.600464263999339,0.422580277376028,0.5,0.472733534183777,0.527266465816223,0.642851818345599,0.454353690853064,0.545646309146936,0.5,0.600464263999339,0.0792224930087785,0.444396461694391,-0.5,-0.027266465816223,0.5,0.054532931632446,1.09790379585494,0.876071080248738,2.83226850169195,0.5,86.0952277541161
CBC_1014,CBC_1014_MSI_TV_v3_Vset4_Tset3_2023-06-25_10h42.28.156.csv,1,31,0,1,z,0,1,0,tac,B,63,1,0B,1B,0,1,b,2.99973150000005,1,0,0,0,0B,1B,B01,2.4423470353692,0.600464263999339,0.472733534183777,0.446953988683769,0.5,0.472733534183777,0.600464263999339,0.472733534183777,0.5,0.5,0.5,0.600464263999339,0.422580277376028,0.5,0.472733534183777,0.527266465816223,0.642851818345599,0.440490592679278,0.559509407320722,0.472733534183777,0.600464263999339,0.103852801560664,0.427073370533977,-0.472733534183777,-0.0257795455000085,0.5,0.054532931632446,1.09790379585494,0.876071080248738,2.83226850169195,0.5,86.0952277541161
CBC_1014,CBC_1014_MSI_TV_v3_Vset4_Tset3_2023-06-25_10h42.28.156.csv,1,32,1,3,z,0,1,1,tac,D,27,1,1D,3D,0,1,z,2.85292870000012,0,1,1,1,3D,1D,D13,3.85014760171006,0.600464263999339,0.472733534183777,0.446953988683769,0.5,0.446953988683769,0.600464263999339,0.472733534183777,0.5,0.5,0.5,0.600464263999339,0.422580277376028,0.5,0.472733534183777,0.527266465816223,0.642851818345599,0.576246198363985,0.423753801636015,0.642851818345599,0.472733534183777,0.157978039626344,0.592779415073846,0.357148181654401,0.0194763373728118,0.5,0.054532931632446,1.09790379585494,0.876071080248738,2.83226850169195,0.5,86.0952277541161
CBC_1014,CBC_1014_MSI_TV_v3_Vset4_Tset3_2023-06-25_10h42.28.156.csv,1,33,2,3,b,1,0,3,tac,C,63,1,2C,3C,1,0,b,2.73068590000048,1,0,1,1,2C,3C,C23,2.77258872223978,0.600464263999339,0.472733534183777,0.446953988683769,0.5,0.446953988683769,0.600464263999339,0.472733534183777,0.5,0.5,0.5,0.600464263999339,0.422580277376028,0.5,0.472733534183777,0.527266465816223,0.662328155718411,0.586938534652737,0.413061465347263,0.600464263999339,0.422580277376028,0.174464909799478,0.606241737894527,0.399535736000661,0.021787854976043,0.5,0.054532931632446,1.09790379585494,0.876071080248738,2.83226850169195,0.5,86.0952277541161
CBC_1014,CBC_1014_MSI_TV_v3_Vset4_Tset3_2023-06-25_10h42.28.156.csv,1,34,0,1,z,0,1,0,tac,B,63,1,0B,1B,0,1,z,3.68176300000005,0,1,1,1,1B,0B,B01,2.28238238567653,0.600464263999339,0.472733534183777,0.446953988683769,0.5,0.446953988683769,0.600464263999339,0.472733534183777,0.5,0.5,0.5,0.622252118975382,0.422580277376028,0.5,0.472733534183777,0.527266465816223,0.662328155718411,0.573280313247517,0.426719686752483,0.600464263999339,0.446953988683769,0.0937406874502979,0.589430430430741,0.399535736000661,0.021787854976043,0.5,0.054532931632446,1.09790379585494,0.876071080248738,2.83226850169195,0.5,86.0952277541161
CBC_1014,CBC_1014_MSI_TV_v3_Vset4_Tset3_2023-06-25_10h42.28.156.csv,1,35,1,0,z,0,1,2,tac,A,63,1,1A,0A,0,1,b,2.83317850000003,1,0,0,0,1A,0A,A10,2.52572864430826,0.600464263999339,0.472733534183777,0.446953988683769,0.5,0.446953988683769,0.622252118975382,0.472733534183777,0.5,0.5,0.5,0.622252118975382,0.422580277376028,0.5,0.472733534183777,0.527266465816223,0.662328155718411,0.440490592679278,0.559509407320722,0.472733534183777,0.600464263999339,0.115077101716862,0.426899804605186,-0.472733534183777,-0.0257795455000085,0.5,0.054532931632446,1.09790379585494,0.876071080248738,2.83226850169195,0.5,86.0952277541161
CBC_1014,CBC_1014_MSI_TV_v3_Vset4_Tset3_2023-06-25_10h42.28.156.csv,1,36,2,1,b,1,0,3,tac,C,9,1,2C,1C,1,0,z,3.02963980000004,0,1,0,0,1C,2C,C21,3.93182563272433,0.600464263999339,0.446953988683769,0.446953988683769,0.5,0.446953988683769,0.622252118975382,0.472733534183777,0.5,0.5,0.5,0.622252118975382,0.422580277376028,0.5,0.472733534183777,0.527266465816223,0.662328155718411,0.445532685165701,0.554467314834299,0.5,0.622252118975382,0.103389710890369,0.433141215134579,-0.5,-0.027266465816223,0.5,0.054532931632446,1.09790379585494,0.876071080248738,2.83226850169195,0.5,86.0952277541161
CBC_1014,CBC_1014_MSI_TV_v3_Vset4_Tset3_2023-06-25_10h42.28.156.csv,1,37,0,1,b,1,0,2,tac,A,63,1,0A,1A,1,0,b,3.44183470000053,1,0,1,1,0A,1A,A01,2.85263142991332,0.600464263999339,0.446953988683769,0.446953988683769,0.5,0.446953988683769,0.622252118975382,0.472733534183777,0.5,0.5,0.472733534183777,0.622252118975382,0.422580277376028,0.5,0.472733534183777,0.527266465816223,0.662328155718411,0.573280313247517,0.426719686752483,0.600464263999339,0.446953988683769,0.108930682681303,0.589826783152629,0.399535736000661,0.021787854976043,0.5,0.054532931632446,1.09790379585494,0.876071080248738,2.83226850169195,0.5,86.0952277541161
CBC_1014,CBC_1014_MSI_TV_v3_Vset4_Tset3_2023-06-25_10h42.28.156.csv,1,38,1,3,z,0,1,1,tac,D,27,1,1D,3D,0,1,z,2.57036100000005,0,1,1,1,3D,1D,D13,3.27714473299218,0.622252118975382,0.446953988683769,0.446953988683769,0.5,0.446953988683769,0.622252118975382,0.472733534183777,0.5,0.5,0.472733534183777,0.622252118975382,0.422580277376028,0.5,0.472733534183777,0.527266465816223,0.662328155718411,0.583517320345369,0.416482679654631,0.662328155718411,0.472733534183777,0.191272853889105,0.602083869202384,0.337671844281589,0.0184142355984098,0.5,0.054532931632446,1.09790379585494,0.876071080248738,2.83226850169195,0.5,86.0952277541161
CBC_1014,CBC_1014_MSI_TV_v3_Vset4_Tset3_2023-06-25_10h42.28.156.csv,1,39,1,0,b,1,0,0,tac,B,63,1,1B,0B,1,0,z,2.34583010000006,0,1,0,0,0B,1B,B10,3.29583686600433,0.622252118975382,0.446953988683769,0.446953988683769,0.5,0.446953988683769,0.622252118975382,0.472733534183777,0.5,0.5,0.472733534183777,0.622252118975382,0.422580277376028,0.5,0.472733534183777,0.527266465816223,0.680742391316821,0.418024163425609,0.581975836574391,0.446953988683769,0.622252118975382,0.145668146578339,0.400296195131004,-0.446953988683769,-0.024373711307741,0.5,0.054532931632446,1.09790379585494,0.876071080248738,2.83226850169195,0.5,86.0952277541161
CBC_1014,CBC_1014_MSI_TV_v3_Vset4_Tset3_2023-06-25_10h42.28.156.csv,1,40,3,2,z,0,1,3,tac,C,63,0,3C,2C,1,0,z,2.58538159999989,0,1,1,0,2C,3C,C32,2.90872089656436,0.622252118975382,0.446953988683769,0.446953988683769,0.5,0.422580277376028,0.622252118975382,0.472733534183777,0.5,0.5,0.472733534183777,0.622252118975382,0.422580277376028,0.5,0.472733534183777,0.527266465816223,0.680742391316821,0.595552091558711,0.404447908441289,0.622252118975382,0.422580277376028,0.194275418029447,0.616232430620261,-0.622252118975382,-0.0339332322622292,0.5,0.054532931632446,1.09790379585494,0.876071080248738,2.83226850169195,0.5,86.0952277541161
CBC_1014,CBC_1014_MSI_TV_v3_Vset4_Tset3_2023-06-25_10h42.28.156.csv,1,41,0,2,b,1,0,2,tac,A,27,1,0A,2A,1,0,b,2.84234259999994,1,0,1,1,0A,2A,A02,3.3322045101752,0.622252118975382,0.446953988683769,0.446953988683769,0.5,0.422580277376028,0.622252118975382,0.472733534183777,0.5,0.5,0.472733534183777,0.588318886713153,0.422580277376028,0.5,0.472733534183777,0.527266465816223,0.680742391316821,0.581975836574391,0.418024163425609,0.622252118975382,0.446953988683769,0.161221888895667,0.600756232380673,0.377747881024618,0.0205996993702168,0.5,0.054532931632446,1.09790379585494,0.876071080248738,2.83226850169195,0.5,86.0952277541161
CBC_1014,CBC_1014_MSI_TV_v3_Vset4_Tset3_2023-06-25_10h42.28.156.csv,1,42,2,3,z,0,1,1,tac,D,63,1,2D,3D,0,1,b,2.91898179999998,1,0,0,0,2D,3D,D23,4.04305126783455,0.642851818345599,0.446953988683769,0.446953988683769,0.5,0.422580277376028,0.622252118975382,0.472733534183777,0.5,0.5,0.472733534183777,0.588318886713153,0.422580277376028,0.5,0.472733534183777,0.527266465816223,0.680742391316821,0.436475662163256,0.563524337836744,0.527266465816223,0.680742391316821,0.107955142582644,0.422245466942467,-0.527266465816223,-0.0287533861324375,0.5,0.054532931632446,1.09790379585494,0.876071080248738,2.83226850169195,0.5,86.0952277541161
CBC_1014,CBC_1014_MSI_TV_v3_Vset4_Tset3_2023-06-25_10h42.28.156.csv,1,43,1,3,b,1,0,0,tac,B,27,1,1B,3B,1,0,z,4.08647700000029,0,1,0,0,3B,1B,B13,3.36729582998647,0.642851818345599,0.446953988683769,0.446953988683769,0.5,0.422580277376028,0.622252118975382,0.472733534183777,0.5,0.5,0.472733534183777,0.588318886713153,0.422580277376028,0.5,0.472733534183777,0.498513079683785,0.680742391316821,0.445532685165701,0.554467314834299,0.5,0.622252118975382,0.0535544548048296,0.431868755269882,-0.5,-0.027266465816223,0.5,0.054532931632446,1.09790379585494,0.876071080248738,2.83226850169195,0.5,86.0952277541161
CBC_1014,CBC_1014_MSI_TV_v3_Vset4_Tset3_2023-06-25_10h42.28.156.csv,1,44,3,2,z,0,1,3,tac,C,63,1,3C,2C,0,1,b,4.35108949999994,1,0,0,0,3C,2C,C32,2.69124308278583,0.642851818345599,0.446953988683769,0.446953988683769,0.5,0.422580277376028,0.622252118975382,0.472733534183777,0.472733534183777,0.5,0.472733534183777,0.588318886713153,0.422580277376028,0.5,0.472733534183777,0.498513079683785,0.680742391316821,0.418024163425609,0.581975836574391,0.422580277376028,0.588318886713153,0.0417681798580935,0.399698014692945,-0.422580277376028,-0.023044541375367,0.5,0.054532931632446,1.09790379585494,0.876071080248738,2.83226850169195,0.5,86.0952277541161
CBC_1014,CBC_1014_MSI_TV_v3_Vset3_Tset1_2023-06-25_12h29.13.889.csv,2,1,0,1,b,1,0,2,tac,A,63,1,0A,1A,1,0,z,2.34106189999875,0,1,0,0,1A,0A,A01,2.77258872223978,0.5,0.5,0.5,0.5,0.5,0.5,0.5,0.5,0.5,0.5,0.5,0.5,0.5,0.5,0.5,0.5,0.5,0.5,0.5,0.5,0.182763813595173,0.499724302856728,-0.5,-0.00583717703123382,0.5,0.0116743540624676,1.09952005141321,0.057942730026207,2.78448408510482,0.5,81.0158221252027
CBC_1014,CBC_1014_MSI_TV_v3_Vset3_Tset1_2023-06-25_12h29.13.889.csv,2,2,3,2,z,0,1,3,tac,C,63,1,3C,2C,0,1,b,3.1392212999981,1,0,0,0,3C,2C,C32,2.83321334405622,0.5,0.494162822968766,0.5,0.5,0.5,0.5,0.5,0.5,0.5,0.5,0.5,0.5,0.5,0.5,0.5,0.5,0.5,0.5,0.5,0.5,0.111007940034633,0.501778330816791,-0.5,-0.00583717703123382,0.5,0.0116743540624676,1.09952005141321,0.057942730026207,2.78448408510482,0.5,81.0158221252027
CBC_1014,CBC_1014_MSI_TV_v3_Vset3_Tset1_2023-06-25_12h29.13.889.csv,2,3,0,2,b,1,0,2,tac,A,27,1,0A,2A,1,0,z,2.37169449999783,0,1,0,0,2A,0A,A02,2.89037175789616,0.5,0.494162822968766,0.5,0.5,0.5,0.5,0.5,0.5,0.5,0.5,0.5,0.494162822968766,0.5,0.5,0.5,0.5,0.5,0.5,0.5,0.5,0.179487314170366,0.500036376075119,-0.5,-0.00583717703123382,0.5,0.0116743540624676,1.09952005141321,0.057942730026207,2.78448408510482,0.5,81.0158221252027
CBC_1014,CBC_1014_MSI_TV_v3_Vset3_Tset1_2023-06-25_12h29.13.889.csv,2,4,1,0,b,1,0,0,tac,B,63,1,1B,0B,1,0,b,2.74888729999839,1,0,1,1,1B,0B,B10,2.94443897916644,0.5,0.494162822968766,0.494162822968766,0.5,0.5,0.5,0.5,0.5,0.5,0.5,0.5,0.494162822968766,0.5,0.5,0.5,0.5,0.5,0.5,0.5,0.5,0.141778424416889,0.500179995521164,0.5,0.00583717703123382,0.5,0.0116743540624676,1.09952005141321,0.057942730026207,2.78448408510482,0.5,81.0158221252027
CBC_1014,CBC_1014_MSI_TV_v3_Vset3_Tset1_2023-06-25_12h29.13.889.csv,2,5,0,1,z,0,1,0,tac,B,63,1,0B,1B,0,1,z,2.63891459999832,0,1,1,1,1B,0B,B01,2.99573227355399,0.5,0.494162822968766,0.494162822968766,0.5,0.5,0.505837177031234,0.5,0.5,0.5,0.5,0.5,0.494162822968766,0.5,0.5,0.5,0.5,0.50290165106467,0.49709834893533,0.505837177031234,0.5,0.152277535108048,0.501157190531728,0.494162822968766,0.00576903175984589,0.5,0.0116743540624676,1.09952005141321,0.057942730026207,2.78448408510482,0.5,81.0158221252027
CBC_1014,CBC_1014_MSI_TV_v3_Vset3_Tset1_2023-06-25_12h29.13.889.csv,2,6,3,2,z,0,1,3,tac,C,63,1,3C,2C,0,1,b,2.38882509999894,1,0,0,0,3C,2C,C32,2.35137525716348,0.5,0.494162822968766,0.494162822968766,0.5,0.5,0.51160620879108,0.5,0.5,0.5,0.5,0.5,0.494162822968766,0.5,0.5,0.5,0.5,0.497064275138652,0.502935724861348,0.494162822968766,0.5,0.17779234872117,0.500550556383717,-0.494162822968766,-0.00576903175984589,0.5,0.0116743540624676,1.09952005141321,0.057942730026207,2.78448408510482,0.5,81.0158221252027
CBC_1014,CBC_1014_MSI_TV_v3_Vset3_Tset1_2023-06-25_12h29.13.889.csv,2,7,3,1,b,1,0,1,tac,D,27,1,3D,1D,1,0,z,2.54039669999838,0,1,0,0,1D,3D,D31,3.09104245335832,0.5,0.494162822968766,0.494162822968766,0.5,0.5,0.51160620879108,0.5,0.5,0.5,0.5,0.5,0.48839379120892,0.5,0.5,0.5,0.5,0.5,0.5,0.5,0.5,0.161384679931381,0.499233531029897,-0.5,-0.00583717703123382,0.5,0.0116743540624676,1.09952005141321,0.057942730026207,2.78448408510482,0.5,81.0158221252027
CBC_1014,CBC_1014_MSI_TV_v3_Vset3_Tset1_2023-06-25_12h29.13.889.csv,2,8,1,2,z,0,1,3,tac,C,9,1,1C,2C,0,1,z,2.54759269999886,0,1,1,1,2C,1C,C12,3.13549421592915,0.5,0.494162822968766,0.494162822968766,0.5,0.5,0.51160620879108,0.5,0.5,0.5,0.5,0.5,0.48839379120892,0.5,0.494162822968766,0.5,0.5,0.5,0.5,0.5,0.5,0.160739581782158,0.499485470643215,0.5,0.00583717703123382,0.5,0.0116743540624676,1.09952005141321,0.057942730026207,2.78448408510482,0.5,81.0158221252027
CBC_1014,CBC_1014_MSI_TV_v3_Vset3_Tset1_2023-06-25_12h29.13.889.csv,2,9,3,1,z,0,1,0,tac,B,27,1,3B,1B,0,1,z,2.71359299999858,0,1,1,1,1B,3B,B31,3.17805383034795,0.5,0.494162822968766,0.494162822968766,0.5,0.5,0.51160620879108,0.5,0.5,0.5,0.5,0.505837177031234,0.48839379120892,0.5,0.494162822968766,0.5,0.5,0.505736525087637,0.494263474912363,0.51160620879108,0.5,0.145086757281621,0.500548069218821,0.48839379120892,0.00570168204048383,0.5,0.0116743540624676,1.09952005141321,0.057942730026207,2.78448408510482,0.5,81.0158221252027
CBC_1014,CBC_1014_MSI_TV_v3_Vset3_Tset1_2023-06-25_12h29.13.889.csv,2,10,3,2,b,1,0,1,tac,D,63,1,3D,2D,1,0,b,2.47679779999817,1,0,1,1,3D,2D,D32,3.2188758248682,0.5,0.494162822968766,0.494162822968766,0.5,0.5,0.517307890831563,0.5,0.5,0.5,0.5,0.505837177031234,0.48839379120892,0.5,0.494162822968766,0.5,0.5,0.5,0.5,0.5,0.5,0.168387682959593,0.500607348402999,0.5,0.00583717703123382,0.5,0.0116743540624676,1.09952005141321,0.057942730026207,2.78448408510482,0.5,81.0158221252027
CBC_1014,CBC_1014_MSI_TV_v3_Vset3_Tset1_2023-06-25_12h29.13.889.csv,2,11,1,0,b,1,0,0,tac,B,63,1,1B,0B,1,0,b,2.51902539999901,1,0,1,1,1B,0B,B10,2.56494935746154,0.5,0.494162822968766,0.494162822968766,0.5,0.5,0.517307890831563,0.5,0.5,0.5,0.5,0.505837177031234,0.48839379120892,0.5,0.494162822968766,0.5,0.505837177031234,0.508506712170204,0.491493287829796,0.517307890831563,0.5,0.163871035816607,0.500188978744727,0.482692109168437,0.00563511858559161,0.5,0.0116743540624676,1.09952005141321,0.057942730026207,2.78448408510482,0.5,81.0158221252027
CBC_1014,CBC_1014_MSI_TV_v3_Vset3_Tset1_2023-06-25_12h29.13.889.csv,2,12,0,2,z,0,1,3,tac,C,27,1,0C,2C,0,1,b,2.7021156999981,1,0,0,0,0C,2C,C02,3.29583686600433,0.5,0.494162822968766,0.494162822968766,0.5,0.5,0.522943009417155,0.5,0.5,0.5,0.5,0.505837177031234,0.48839379120892,0.5,0.494162822968766,0.5,0.505837177031234,0.49709834893533,0.50290165106467,0.5,0.505837177031234,0.145688273920484,0.498989195922816,-0.5,-0.00583717703123382,0.5,0.0116743540624676,1.09952005141321,0.057942730026207,2.78448408510482,0.5,81.0158221252027
CBC_1014,CBC_1014_MSI_TV_v3_Vset3_Tset1_2023-06-25_12h29.13.889.csv,2,13,3,2,b,1,0,1,tac,D,63,0,3D,2D,0,1,z,3.36673079999855,0,1,0,1,2D,3D,D32,2.63905732961526,0.5,0.494162822968766,0.494162822968766,0.5,0.5,0.522943009417155,0.5,0.5,0.494162822968766,0.5,0.505837177031234,0.48839379120892,0.5,0.494162822968766,0.5,0.505837177031234,0.49709834893533,0.50290165106467,0.5,0.505837177031234,0.0956749393610598,0.499822487056564,0.5,0.00583717703123382,0.5,0.0116743540624676,1.09952005141321,0.057942730026207,2.78448408510482,0.5,81.0158221252027
CBC_1014,CBC_1014_MSI_TV_v3_Vset3_Tset1_2023-06-25_12h29.13.889.csv,2,14,1,0,z,0,1,2,tac,A,63,1,1A,0A,0,1,b,2.82574779999959,1,0,0,0,1A,0A,A10,3.36729582998647,0.5,0.494162822968766,0.494162822968766,0.5,0.5,0.522943009417155,0.5,0.5,0.494162822968766,0.5,0.505837177031234,0.48839379120892,0.5,0.494162822968766,0.505837177031234,0.505837177031234,0.497064275138652,0.502935724861348,0.494162822968766,0.5,0.134812139081875,0.49933909500357,-0.494162822968766,-0.00576903175984589,0.5,0.0116743540624676,1.09952005141321,0.057942730026207,2.78448408510482,0.5,81.0158221252027
CBC_1014,CBC_1014_MSI_TV_v3_Vset3_Tset1_2023-06-25_12h29.13.889.csv,2,15,2,3,b,1,0,3,tac,C,63,1,2C,3C,1,0,b,2.69261669999833,1,0,1,1,2C,3C,C23,3.40119738166216,0.5,0.48839379120892,0.494162822968766,0.5,0.5,0.522943009417155,0.5,0.5,0.494162822968766,0.5,0.505837177031234,0.48839379120892,0.5,0.494162822968766,0.505837177031234,0.505837177031234,0.508772300591878,0.491227699408122,0.505837177031234,0.48839379120892,0.146937758255221,0.500256667079364,0.494162822968766,0.00576903175984589,0.5,0.0116743540624676,1.09952005141321,0.057942730026207,2.78448408510482,0.5,81.0158221252027
CBC_1014,CBC_1014_MSI_TV_v3_Vset3_Tset1_2023-06-25_12h29.13.889.csv,2,16,0,2,b,1,0,2,tac,A,27,1,0A,2A,1,0,z,2.29849899999863,0,1,0,0,2A,0A,A02,2.7408400239252,0.5,0.48839379120892,0.494162822968766,0.5,0.5,0.522943009417155,0.5,0.5,0.494162822968766,0.5,0.51160620879108,0.48839379120892,0.5,0.494162822968766,0.505837177031234,0.505837177031234,0.497064275138652,0.502935724861348,0.494162822968766,0.5,0.187363383939952,0.499263389772736,-0.494162822968766,-0.00576903175984589,0.5,0.0116743540624676,1.09952005141321,0.057942730026207,2.78448408510482,0.5,81.0158221252027
CBC_1014,CBC_1014_MSI_TV_v3_Vset3_Tset1_2023-06-25_12h29.13.889.csv,2,17,2,3,z,0,1,1,tac,D,63,1,2D,3D,0,1,z,2.77297889999863,0,1,1,1,3D,2D,D23,3.46573590279973,0.5,0.48839379120892,0.48839379120892,0.5,0.5,0.522943009417155,0.5,0.5,0.494162822968766,0.5,0.51160620879108,0.48839379120892,0.5,0.494162822968766,0.505837177031234,0.505837177031234,0.5,0.5,0.505837177031234,0.505837177031234,0.139606880866743,0.500090288968279,0.494162822968766,0.00576903175984589,0.5,0.0116743540624676,1.09952005141321,0.057942730026207,2.78448408510482,0.5,81.0158221252027
CBC_1014,CBC_1014_MSI_TV_v3_Vset3_Tset1_2023-06-25_12h29.13.889.csv,2,18,3,2,b,1,0,1,tac,D,63,1,3D,2D,1,0,z,2.36102599999867,0,1,0,0,2D,3D,D32,2.39789527279837,0.5,0.48839379120892,0.48839379120892,0.5,0.5,0.522943009417155,0.5,0.5,0.494162822968766,0.5,0.51160620879108,0.48839379120892,0.5,0.494162822968766,0.505837177031234,0.51160620879108,0.497164937214082,0.502835062785918,0.505837177031234,0.51160620879108,0.180946421058158,0.500819273049598,-0.505837177031234,-0.00590532230262175,0.5,0.0116743540624676,1.09952005141321,0.057942730026207,2.78448408510482,0.5,81.0158221252027
CBC_1014,CBC_1014_MSI_TV_v3_Vset3_Tset1_2023-06-25_12h29.13.889.csv,2,19,3,1,z,0,1,0,tac,B,27,1,3B,1B,0,1,b,3.00195799999892,1,0,0,0,3B,1B,B31,2.83321334405622,0.5,0.48839379120892,0.48839379120892,0.5,0.5,0.522943009417155,0.5,0.5,0.494162822968766,0.5,0.51160620879108,0.48839379120892,0.5,0.494162822968766,0.499931854728612,0.51160620879108,0.488785783173675,0.511214216826325,0.5,0.522943009417155,0.120645839688504,0.499768478786771,-0.5,-0.00583717703123382,0.5,0.0116743540624676,1.09952005141321,0.057942730026207,2.78448408510482,0.5,81.0158221252027
CBC_1014,CBC_1014_MSI_TV_v3_Vset3_Tset1_2023-06-25_12h29.13.889.csv,2,20,0,3,z,0,1,1,tac,D,9,1,0D,3D,0,1,z,2.34731149999789,0,1,1,1,3D,0D,D03,3.55534806148941,0.5,0.48839379120892,0.48839379120892,0.5,0.5,0.522943009417155,0.5,0.494162822968766,0.494162822968766,0.5,0.51160620879108,0.48839379120892,0.5,0.494162822968766,0.499931854728612,0.51160620879108,0.505736525087637,0.494263474912363,0.51160620879108,0.5,0.182414714634167,0.50067255754319,0.48839379120892,0.00570168204048383,0.5,0.0116743540624676,1.09952005141321,0.057942730026207,2.78448408510482,0.5,81.0158221252027
CBC_1014,CBC_1014_MSI_TV_v3_Vset3_Tset1_2023-06-25_12h29.13.889.csv,2,21,1,0,b,1,0,0,tac,B,63,1,1B,0B,1,0,z,2.97866819999763,0,1,0,0,0B,1B,B10,2.484906649788,0.5,0.48839379120892,0.48839379120892,0.5,0.5,0.522943009417155,0.5,0.494162822968766,0.494162822968766,0.5,0.51160620879108,0.48839379120892,0.5,0.494162822968766,0.499931854728612,0.517307890831563,0.488785783173675,0.511214216826325,0.5,0.522943009417155,0.12249044604662,0.499955351843409,-0.5,-0.00583717703123382,0.5,0.0116743540624676,1.09952005141321,0.057942730026207,2.78448408510482,0.5,81.0158221252027
CBC_1014,CBC_1014_MSI_TV_v3_Vset3_Tset1_2023-06-25_12h29.13.889.csv,2,22,1,0,z,0,1,2,tac,A,63,1,1A,0A,0,1,z,2.34039209999901,0,1,1,1,0A,1A,A10,2.91777073208428,0.5,0.48839379120892,0.48839379120892,0.5,0.494162822968766,0.522943009417155,0.5,0.494162822968766,0.494162822968766,0.5,0.51160620879108,0.48839379120892,0.5,0.494162822968766,0.499931854728612,0.517307890831563,0.505871247317774,0.494128752682226,0.5,0.48839379120892,0.18332687009722,0.50105909977807,0.5,0.00583717703123382,0.5,0.0116743540624676,1.09952005141321,0.057942730026207,2.78448408510482,0.5,81.0158221252027
CBC_1014,CBC_1014_MSI_TV_v3_Vset3_Tset1_2023-06-25_12h29.13.889.csv,2,23,2,3,b,1,0,3,tac,C,63,1,2C,3C,1,0,b,2.72382209999887,1,0,1,1,2C,3C,C23,2.94443897916644,0.505837177031234,0.48839379120892,0.48839379120892,0.5,0.494162822968766,0.522943009417155,0.5,0.494162822968766,0.494162822968766,0.5,0.51160620879108,0.48839379120892,0.5,0.494162822968766,0.499931854728612,0.517307890831563,0.51160620879108,0.48839379120892,0.51160620879108,0.48839379120892,0.144389704686476,0.501376155397702,0.48839379120892,0.00570168204048383,0.5,0.0116743540624676,1.09952005141321,0.057942730026207,2.78448408510482,0.5,81.0158221252027
CBC_1014,CBC_1014_MSI_TV_v3_Vset3_Tset1_2023-06-25_12h29.13.889.csv,2,24,0,2,b,1,0,2,tac,A,27,1,0A,2A,1,0,z,2.64998919999925,0,1,0,0,2A,0A,A02,2.56494935746154,0.505837177031234,0.48839379120892,0.48839379120892,0.5,0.494162822968766,0.522943009417155,0.5,0.494162822968766,0.494162822968766,0.5,0.517307890831563,0.48839379120892,0.5,0.494162822968766,0.499931854728612,0.517307890831563,0.491227699408122,0.508772300591878,0.48839379120892,0.505837177031234,0.150796336992058,0.499760758971798,-0.48839379120892,-0.00570168204048383,0.5,0.0116743540624676,1.09952005141321,0.057942730026207,2.78448408510482,0.5,81.0158221252027
CBC_1014,CBC_1014_MSI_TV_v3_Vset3_Tset1_2023-06-25_12h29.13.889.csv,2,25,1,0,b,1,0,0,tac,B,63,1,1B,0B,1,0,b,2.59291549999944,1,0,1,1,1B,0B,B10,2.30258509299405,0.505837177031234,0.48839379120892,0.482692109168436,0.5,0.494162822968766,0.522943009417155,0.5,0.494162822968766,0.494162822968766,0.5,0.517307890831563,0.48839379120892,0.5,0.494162822968766,0.499931854728612,0.517307890831563,0.514148078563701,0.485851921436299,0.522943009417155,0.494162822968766,0.156783841386689,0.501256718315892,0.477056990582845,0.00556933221603942,0.5,0.0116743540624676,1.09952005141321,0.057942730026207,2.78448408510482,0.5,81.0158221252027
CBC_1014,CBC_1014_MSI_TV_v3_Vset3_Tset1_2023-06-25_12h29.13.889.csv,2,26,2,3,z,0,1,1,tac,D,63,1,2D,3D,0,1,b,2.46072829999866,1,0,0,0,2D,3D,D23,3.02042488614436,0.505837177031234,0.48839379120892,0.482692109168436,0.5,0.494162822968766,0.528512341633194,0.5,0.494162822968766,0.494162822968766,0.5,0.517307890831563,0.48839379120892,0.5,0.494162822968766,0.499931854728612,0.517307890831563,0.491459222774773,0.508540777225227,0.499931854728612,0.517307890831563,0.169789191359079,0.499753019853267,-0.499931854728612,-0.00583638147920795,0.5,0.0116743540624676,1.09952005141321,0.057942730026207,2.78448408510482,0.5,81.0158221252027
CBC_1014,CBC_1014_MSI_TV_v3_Vset3_Tset1_2023-06-25_12h29.13.889.csv,2,27,1,2,b,1,0,0,tac,B,9,1,1B,2B,1,0,z,2.82888219999768,0,1,0,0,2B,1B,B12,3.73766961828337,0.505837177031234,0.48839379120892,0.482692109168436,0.5,0.494162822968766,0.528512341633194,0.5,0.494162822968766,0.494162822968766,0.5,0.517307890831563,0.48839379120892,0.5,0.494162822968766,0.494095473249404,0.517307890831563,0.486139037676534,0.513860962323466,0.5,0.528512341633194,0.134636400571264,0.49968044337096,-0.5,-0.00583717703123382,0.5,0.0116743540624676,1.09952005141321,0.057942730026207,2.78448408510482,0.5,81.0158221252027
CBC_1014,CBC_1014_MSI_TV_v3_Vset3_Tset1_2023-06-25_12h29.13.889.csv,2,28,1,3,z,0,1,1,tac,D,27,1,1D,3D,0,1,z,3.01482399999986,0,1,1,1,3D,1D,D13,3.76120011569356,0.505837177031234,0.48839379120892,0.482692109168436,0.5,0.494162822968766,0.528512341633194,0.494162822968766,0.494162822968766,0.494162822968766,0.5,0.517307890831563,0.48839379120892,0.5,0.494162822968766,0.494095473249404,0.517307890831563,0.511441294121031,0.488558705878969,0.517307890831563,0.494162822968766,0.119945610056014,0.500947378582828,0.482692109168437,0.00563511858559161,0.5,0.0116743540624676,1.09952005141321,0.057942730026207,2.78448408510482,0.5,81.0158221252027
CBC_1014,CBC_1014_MSI_TV_v3_Vset3_Tset1_2023-06-25_12h29.13.889.csv,2,29,1,0,z,0,1,2,tac,A,63,1,1A,0A,0,1,b,2.84063449999849,1,0,0,0,1A,0A,A10,2.68557734525015,0.505837177031234,0.48839379120892,0.482692109168436,0.5,0.494162822968766,0.528512341633194,0.494162822968766,0.494162822968766,0.494162822968766,0.5,0.517307890831563,0.48839379120892,0.5,0.494162822968766,0.494095473249404,0.522943009417155,0.491227699408122,0.508772300591878,0.48839379120892,0.505837177031234,0.133443518873605,0.498958521690025,-0.48839379120892,-0.00570168204048383,0.5,0.0116743540624676,1.09952005141321,0.057942730026207,2.78448408510482,0.5,81.0158221252027
CBC_1014,CBC_1014_MSI_TV_v3_Vset3_Tset1_2023-06-25_12h29.13.889.csv,2,30,0,1,b,1,0,2,tac,A,63,1,0A,1A,1,0,z,2.25386509999953,0,1,0,0,1A,0A,A01,3.11351530921037,0.505837177031234,0.482692109168436,0.482692109168436,0.5,0.494162822968766,0.528512341633194,0.494162822968766,0.494162822968766,0.494162822968766,0.5,0.517307890831563,0.48839379120892,0.5,0.494162822968766,0.494095473249404,0.522943009417155,0.488293180492519,0.511706819507481,0.482692109168436,0.505837177031234,0.192590092015481,0.499676701974084,-0.482692109168436,-0.00563511858559161,0.5,0.0116743540624676,1.09952005141321,0.057942730026207,2.78448408510482,0.5,81.0158221252027
CBC_1014,CBC_1014_MSI_TV_v3_Vset3_Tset1_2023-06-25_12h29.13.889.csv,2,31,0,2,z,0,1,3,tac,C,27,1,0C,2C,0,1,z,3.30921750000016,0,1,1,1,2C,0C,C02,3.13549421592915,0.505837177031234,0.477056990582845,0.482692109168436,0.5,0.494162822968766,0.528512341633194,0.494162822968766,0.494162822968766,0.494162822968766,0.5,0.517307890831563,0.48839379120892,0.5,0.494162822968766,0.494095473249404,0.522943009417155,0.511441294121031,0.488558705878969,0.517307890831563,0.494162822968766,0.0991660089259757,0.499444358926211,0.482692109168437,0.00563511858559161,0.5,0.0116743540624676,1.09952005141321,0.057942730026207,2.78448408510482,0.5,81.0158221252027
CBC_1014,CBC_1014_MSI_TV_v3_Vset3_Tset1_2023-06-25_12h29.13.889.csv,2,32,1,0,z,0,1,2,tac,A,63,1,1A,0A,0,1,b,2.8937821999989,1,0,0,0,1A,0A,A10,2.46385324059017,0.505837177031234,0.477056990582845,0.482692109168436,0.5,0.494162822968766,0.528512341633194,0.494162822968766,0.494162822968766,0.494162822968766,0.5,0.522943009417155,0.48839379120892,0.5,0.494162822968766,0.494095473249404,0.522943009417155,0.485359468294409,0.514640531705591,0.477056990582845,0.505837177031234,0.128941147095205,0.498661408477508,-0.477056990582845,-0.00556933221603942,0.5,0.0116743540624676,1.09952005141321,0.057942730026207,2.78448408510482,0.5,81.0158221252027
CBC_1014,CBC_1014_MSI_TV_v3_Vset3_Tset1_2023-06-25_12h29.13.889.csv,2,33,1,0,b,1,0,0,tac,B,63,1,1B,0B,1,0,z,2.8694818999993,0,1,0,0,0B,1B,B10,2.26176309847379,0.505837177031234,0.471487658366805,0.482692109168436,0.5,0.494162822968766,0.528512341633194,0.494162822968766,0.494162822968766,0.494162822968766,0.5,0.522943009417155,0.48839379120892,0.5,0.494162822968766,0.494095473249404,0.522943009417155,0.483206046331536,0.516793953668464,0.494162822968766,0.528512341633194,0.130747345915685,0.497907163595286,-0.494162822968766,-0.00576903175984589,0.5,0.0116743540624676,1.09952005141321,0.057942730026207,2.78448408510482,0.5,81.0158221252027
CBC_1014,CBC_1014_MSI_TV_v3_Vset3_Tset1_2023-06-25_12h29.13.889.csv,2,34,3,2,b,1,0,1,tac,D,63,1,3D,2D,1,0,b,4.21180119999735,1,0,1,1,3D,2D,D32,2.50552593699074,0.505837177031234,0.471487658366805,0.482692109168436,0.5,0.48839379120892,0.528512341633194,0.494162822968766,0.494162822968766,0.494162822968766,0.5,0.522943009417155,0.48839379120892,0.5,0.494162822968766,0.494095473249404,0.522943009417155,0.514182126172904,0.485817873827097,0.522943009417155,0.494095473249404,0.0559707320628511,0.500677524588273,0.477056990582845,0.00556933221603942,0.5,0.0116743540624676,1.09952005141321,0.057942730026207,2.78448408510482,0.5,81.0158221252027
CBC_1014,CBC_1014_MSI_TV_v3_Vset3_Tset1_2023-06-25_12h29.13.889.csv,2,35,3,1,z,0,1,0,tac,B,27,1,3B,1B,0,1,z,3.12324949999856,0,1,1,1,1B,3B,B31,2.81341071676004,0.505837177031234,0.471487658366805,0.482692109168436,0.5,0.48839379120892,0.528512341633194,0.494162822968766,0.494162822968766,0.494162822968766,0.5,0.522943009417155,0.48839379120892,0.5,0.494162822968766,0.494095473249404,0.528512341633194,0.516793953668464,0.483206046331536,0.528512341633194,0.494162822968766,0.111931798384796,0.500840864406712,0.471487658366806,0.00550431385985787,0.5,0.0116743540624676,1.09952005141321,0.057942730026207,2.78448408510482,0.5,81.0158221252027
CBC_1014,CBC_1014_MSI_TV_v3_Vset3_Tset1_2023-06-25_12h29.13.889.csv,2,36,3,2,z,0,1,3,tac,C,63,1,3C,2C,0,1,z,2.56357639999987,0,1,1,1,2C,3C,C32,2.83321334405622,0.505837177031234,0.471487658366805,0.482692109168436,0.5,0.48839379120892,0.534016655493052,0.494162822968766,0.494162822968766,0.494162822968766,0.5,0.522943009417155,0.48839379120892,0.5,0.494162822968766,0.494095473249404,0.528512341633194,0.51708096560258,0.48291903439742,0.522943009417155,0.48839379120892,0.159538150165697,0.500747319241355,0.477056990582845,0.00556933221603942,0.5,0.0116743540624676,1.09952005141321,0.057942730026207,2.78448408510482,0.5,81.0158221252027
CBC_1014,CBC_1014_MSI_TV_v3_Vset3_Tset1_2023-06-25_12h29.13.889.csv,2,37,2,0,b,1,0,3,tac,C,27,1,2C,0C,1,0,z,2.62486329999956,0,1,0,0,0C,2C,C20,3.95124371858143,0.505837177031234,0.471487658366805,0.482692109168436,0.5,0.48839379120892,0.534016655493052,0.494162822968766,0.494162822968766,0.494162822968766,0.5,0.528512341633194,0.48839379120892,0.5,0.494162822968766,0.494095473249404,0.528512341633194,0.483206046331536,0.516793953668464,0.494162822968766,0.528512341633194,0.152874742857428,0.498686859252386,-0.494162822968766,-0.00576903175984589,0.5,0.0116743540624676,1.09952005141321,0.057942730026207,2.78448408510482,0.5,81.0158221252027
CBC_1014,CBC_1014_MSI_TV_v3_Vset3_Tset1_2023-06-25_12h29.13.889.csv,2,38,1,0,b,1,0,0,tac,B,63,1,1B,0B,1,0,b,2.3602377999996,1,0,1,1,1B,0B,B10,2.17853244432407,0.505837177031234,0.471487658366805,0.482692109168436,0.5,0.48839379120892,0.534016655493052,0.494162822968766,0.494162822968766,0.48839379120892,0.5,0.528512341633194,0.48839379120892,0.5,0.494162822968766,0.494095473249404,0.528512341633194,0.522311423182001,0.477688576817999,0.534016655493052,0.48839379120892,0.18119126849047,0.501254981150507,0.465983344506948,0.00544005455098694,0.5,0.0116743540624676,1.09952005141321,0.057942730026207,2.78448408510482,0.5,81.0158221252027
CBC_1014,CBC_1014_MSI_TV_v3_Vset3_Tset1_2023-06-25_12h29.13.889.csv,2,39,3,0,z,0,1,2,tac,A,9,1,3A,0A,0,1,b,2.61856809999881,1,0,0,0,3A,0A,A30,3.98898404656427,0.505837177031234,0.471487658366805,0.482692109168436,0.5,0.48839379120892,0.539456710044039,0.494162822968766,0.494162822968766,0.48839379120892,0.5,0.528512341633194,0.48839379120892,0.5,0.494162822968766,0.494095473249404,0.528512341633194,0.49709834893533,0.50290165106467,0.5,0.505837177031234,0.153808190566999,0.499746608702261,-0.5,-0.00583717703123382,0.5,0.0116743540624676,1.09952005141321,0.057942730026207,2.78448408510482,0.5,81.0158221252027
CBC_1014,CBC_1014_MSI_TV_v3_Vset3_Tset1_2023-06-25_12h29.13.889.csv,2,40,3,2,z,0,1,3,tac,C,63,0,3C,2C,1,0,b,2.8007781999986,1,0,0,1,3C,2C,C32,2.62103882411258,0.505837177031234,0.471487658366805,0.482692109168436,0.494162822968766,0.48839379120892,0.539456710044039,0.494162822968766,0.494162822968766,0.48839379120892,0.5,0.528512341633194,0.48839379120892,0.5,0.494162822968766,0.494095473249404,0.528512341633194,0.480274211587185,0.519725788412815,0.48839379120892,0.528512341633194,0.136810170287685,0.49878080888588,0.51160620879108,0.00597267202198381,0.5,0.0116743540624676,1.09952005141321,0.057942730026207,2.78448408510482,0.5,81.0158221252027
CBC_1014,CBC_1014_MSI_TV_v3_Vset3_Tset1_2023-06-25_12h29.13.889.csv,2,41,1,0,z,0,1,2,tac,A,63,1,1A,0A,0,1,z,3.02600309999798,0,1,1,1,0A,1A,A10,2.41591377830105,0.505837177031234,0.471487658366805,0.482692109168436,0.494162822968766,0.48839379120892,0.539456710044039,0.494162822968766,0.494162822968766,0.48839379120892,0.5,0.528512341633194,0.494366463230904,0.5,0.494162822968766,0.494095473249404,0.528512341633194,0.517573235336048,0.482426764663952,0.505837177031234,0.471487658366805,0.119360601511924,0.502058859004004,0.494162822968766,0.00576903175984589,0.5,0.0116743540624676,1.09952005141321,0.057942730026207,2.78448408510482,0.5,81.0158221252027
CBC_1014,CBC_1014_MSI_TV_v3_Vset3_Tset1_2023-06-25_12h29.13.889.csv,2,42,3,2,b,1,0,1,tac,D,63,1,3D,2D,1,0,b,3.12709349999932,1,0,1,1,3D,2D,D32,2.43361335540045,0.51160620879108,0.471487658366805,0.482692109168436,0.494162822968766,0.48839379120892,0.539456710044039,0.494162822968766,0.494162822968766,0.48839379120892,0.5,0.528512341633194,0.494366463230904,0.5,0.494162822968766,0.494095473249404,0.528512341633194,0.516827990106716,0.483172009893284,0.528512341633194,0.494095473249404,0.111893593358564,0.501895513387233,0.471487658366806,0.00550431385985787,0.5,0.0116743540624676,1.09952005141321,0.057942730026207,2.78448408510482,0.5,81.0158221252027
CBC_1014,CBC_1014_MSI_TV_v3_Vset3_Tset1_2023-06-25_12h29.13.889.csv,2,43,2,3,b,1,0,3,tac,C,63,1,2C,3C,1,0,z,2.96980959999746,0,1,0,0,3C,2C,C23,2.96183072187831,0.51160620879108,0.471487658366805,0.482692109168436,0.494162822968766,0.48839379120892,0.539456710044039,0.494162822968766,0.494162822968766,0.48839379120892,0.5,0.528512341633194,0.494366463230904,0.5,0.494162822968766,0.494095473249404,0.534016655493052,0.483308932475716,0.516691067524284,0.494366463230904,0.528512341633194,0.122953922233341,0.499030283387246,-0.494366463230904,-0.00577140912836747,0.5,0.0116743540624676,1.09952005141321,0.057942730026207,2.78448408510482,0.5,81.0158221252027
CBC_1014,CBC_1014_MSI_TV_v3_Vset3_Tset1_2023-06-25_12h29.13.889.csv,2,44,1,3,z,0,1,1,tac,D,27,1,1D,3D,NaN,NaN,None,NaN,NaN,NaN,NaN,NaN,,,D13,3.38439026334577,0.51160620879108,0.471487658366805,0.482692109168436,0.494162822968766,0.48839379120892,0.539456710044039,0.494162822968766,0.494162822968766,0.48839379120892,0.5,0.528512341633194,0.488595054102537,0.5,0.494162822968766,0.494095473249404,0.534016655493052,0,0,0,0,NaN,0,0,0,0.5,0.0116743540624676,1.09952005141321,0.057942730026207,2.78448408510482,0.5,81.0158221252027
CBC_1014,CBC_1014_MSI_AV_v3_Vset6_Aset3_2023-06-25_12h37.50.287.csv,3,1,0,1,z,0,1,0,aud,B,63,1,0B,1B,0,1,z,2.421016100001,0,1,1,1,1B,0B,B01,2.77258872223978,0.5,0.5,0.5,0.5,0.5,0.5,0.5,0.5,0.5,0.5,0.5,0.5,0.5,0.5,0.5,0.5,0.5,0.5,0.5,0.5,0.109579912088854,0.499442161991947,0.5,0.054114505563357,0.5,0.108229011126714,0.3,2.54435542248436,3.06441109132404,0.5,142.962327433534
CBC_1014,CBC_1014_MSI_AV_v3_Vset6_Aset3_2023-06-25_12h37.50.287.csv,3,2,2,3,z,0,1,1,aud,D,63,1,2D,3D,0,1,b,2.71301070000118,1,0,0,0,2D,3D,D23,2.83321334405622,0.5,0.5,0.5,0.5,0.5,0.554114505563357,0.5,0.5,0.5,0.5,0.5,0.5,0.5,0.5,0.5,0.5,0.5,0.5,0.5,0.5,0.0939770979897339,0.499220868377287,-0.5,-0.054114505563357,0.5,0.108229011126714,0.3,2.54435542248436,3.06441109132404,0.5,142.962327433534
CBC_1014,CBC_1014_MSI_AV_v3_Vset6_Aset3_2023-06-25_12h37.50.287.csv,3,3,1,3,b,1,0,0,aud,B,27,1,1B,3B,1,0,z,2.55061150000074,0,1,0,0,3B,1B,B13,2.89037175789616,0.5,0.5,0.5,0.5,0.5,0.554114505563357,0.5,0.5,0.5,0.5,0.5,0.5,0.5,0.5,0.445885494436643,0.5,0.474331770752725,0.525668229247275,0.5,0.554114505563357,0.0824690668525408,0.402022636340201,-0.5,-0.054114505563357,0.5,0.108229011126714,0.3,2.54435542248436,3.06441109132404,0.5,142.962327433534
CBC_1014,CBC_1014_MSI_AV_v3_Vset6_Aset3_2023-06-25_12h37.50.287.csv,3,4,3,2,z,0,1,3,aud,C,63,1,3C,2C,0,1,b,2.53104869999879,1,0,0,0,3C,2C,C32,2.94443897916644,0.5,0.5,0.5,0.5,0.5,0.554114505563357,0.5,0.445885494436643,0.5,0.5,0.5,0.5,0.5,0.5,0.445885494436643,0.5,0.5,0.5,0.5,0.5,0.103581058179516,0.500128834592631,-0.5,-0.054114505563357,0.5,0.108229011126714,0.3,2.54435542248436,3.06441109132404,0.5,142.962327433534
CBC_1014,CBC_1014_MSI_AV_v3_Vset6_Aset3_2023-06-25_12h37.50.287.csv,3,5,2,0,b,1,0,3,aud,C,27,1,2C,0C,1,0,b,1.64527930000077,1,0,1,1,2C,0C,C20,2.99573227355399,0.5,0.5,0.5,0.5,0.5,0.554114505563357,0.5,0.445885494436643,0.5,0.5,0.5,0.445885494436643,0.5,0.5,0.445885494436643,0.5,0.5,0.5,0.5,0.5,0.163004426016462,0.499250850775267,0.5,0.054114505563357,0.5,0.108229011126714,0.3,2.54435542248436,3.06441109132404,0.5,142.962327433534
CBC_1014,CBC_1014_MSI_AV_v3_Vset6_Aset3_2023-06-25_12h37.50.287.csv,3,6,3,0,z,0,1,2,aud,A,9,1,3A,0A,0,1,b,3.08501300000171,1,0,0,0,3A,0A,A30,3.04452243772342,0.5,0.5,0.5,0.5,0.5,0.554114505563357,0.5,0.445885494436643,0.5,0.5,0.554114505563357,0.445885494436643,0.5,0.5,0.445885494436643,0.5,0.5,0.5,0.5,0.5,0.0772602532351834,0.498983395851895,-0.5,-0.054114505563357,0.5,0.108229011126714,0.3,2.54435542248436,3.06441109132404,0.5,142.962327433534
CBC_1014,CBC_1014_MSI_AV_v3_Vset6_Aset3_2023-06-25_12h37.50.287.csv,3,7,3,2,z,0,1,3,aud,C,63,1,3C,2C,0,1,b,2.50117150000005,1,0,0,0,3C,2C,C32,2.39789527279837,0.5,0.5,0.5,0.445885494436643,0.5,0.554114505563357,0.5,0.445885494436643,0.5,0.5,0.554114505563357,0.445885494436643,0.5,0.5,0.445885494436643,0.5,0.445885494436643,0.554114505563357,0.445885494436643,0.554114505563357,0.0633919594001027,0.300409819775427,-0.445885494436643,-0.0482577461386238,0.5,0.108229011126714,0.3,2.54435542248436,3.06441109132404,0.5,142.962327433534
CBC_1014,CBC_1014_MSI_AV_v3_Vset6_Aset3_2023-06-25_12h37.50.287.csv,3,8,0,1,b,1,0,2,aud,A,63,1,0A,1A,1,0,z,0.376901499999803,0,1,0,0,1A,0A,A01,3.13549421592915,0.5,0.5,0.5,0.445885494436643,0.5,0.554114505563357,0.5,0.445885494436643,0.5,0.5,0.554114505563357,0.397627748298019,0.5,0.5,0.445885494436643,0.5,0.5,0.5,0.5,0.5,6.73845851146466e-06,0.500368791228202,-0.5,-0.054114505563357,0.5,0.108229011126714,0.3,2.54435542248436,3.06441109132404,0.5,142.962327433534
CBC_1014,CBC_1014_MSI_AV_v3_Vset6_Aset3_2023-06-25_12h37.50.287.csv,3,9,3,2,b,1,0,1,aud,D,63,1,3D,2D,1,0,z,2.52940699999999,0,1,0,0,2D,3D,D32,3.17805383034795,0.5,0.445885494436643,0.5,0.445885494436643,0.5,0.554114505563357,0.5,0.445885494436643,0.5,0.5,0.554114505563357,0.397627748298019,0.5,0.5,0.445885494436643,0.5,0.471394790446815,0.528605209553185,0.445885494436643,0.5,0.0810513922049601,0.390602087903162,-0.445885494436643,-0.0482577461386238,0.5,0.108229011126714,0.3,2.54435542248436,3.06441109132404,0.5,142.962327433534
CBC_1014,CBC_1014_MSI_AV_v3_Vset6_Aset3_2023-06-25_12h37.50.287.csv,3,10,2,3,b,1,0,3,aud,C,63,1,2C,3C,1,0,b,2.68645969999852,1,0,1,1,2C,3C,C23,3.2188758248682,0.5,0.445885494436643,0.5,0.445885494436643,0.5,0.554114505563357,0.5,0.445885494436643,0.5,0.5,0.554114505563357,0.397627748298019,0.5,0.5,0.397627748298019,0.5,0.582210680796426,0.417789319203574,0.554114505563357,0.397627748298019,0.147149134411097,0.78350741215051,0.445885494436643,0.0482577461386238,0.5,0.108229011126714,0.3,2.54435542248436,3.06441109132404,0.5,142.962327433534
CBC_1014,CBC_1014_MSI_AV_v3_Vset6_Aset3_2023-06-25_12h37.50.287.csv,3,11,1,3,z,0,1,1,aud,D,27,1,1D,3D,0,1,z,1.81295639999917,0,1,1,1,3D,1D,D13,3.25809653802148,0.5,0.445885494436643,0.5,0.445885494436643,0.5,0.554114505563357,0.5,0.445885494436643,0.5,0.5,0.602372251701981,0.397627748298019,0.5,0.5,0.397627748298019,0.5,0.5,0.5,0.5,0.5,0.149866705925617,0.498618671973822,0.5,0.054114505563357,0.5,0.108229011126714,0.3,2.54435542248436,3.06441109132404,0.5,142.962327433534
CBC_1014,CBC_1014_MSI_AV_v3_Vset6_Aset3_2023-06-25_12h37.50.287.csv,3,12,1,0,z,0,1,2,aud,A,63,0,1A,0A,1,0,z,2.78926750000028,0,1,1,0,0A,1A,A10,3.29583686600433,0.5,0.445885494436643,0.5,0.445885494436643,0.5,0.554114505563357,0.5,0.445885494436643,0.5,0.5,0.602372251701981,0.397627748298019,0.5,0.5,0.397627748298019,0.554114505563357,0.528605209553185,0.471394790446815,0.5,0.445885494436643,0.109884110506823,0.608580042508375,-0.5,-0.054114505563357,0.5,0.108229011126714,0.3,2.54435542248436,3.06441109132404,0.5,142.962327433534
CBC_1014,CBC_1014_MSI_AV_v3_Vset6_Aset3_2023-06-25_12h37.50.287.csv,3,13,2,3,b,1,0,3,aud,C,63,1,2C,3C,1,0,b,3.00522190000083,1,0,1,1,2C,3C,C23,2.63905732961526,0.445885494436643,0.445885494436643,0.5,0.445885494436643,0.5,0.554114505563357,0.5,0.445885494436643,0.5,0.5,0.602372251701981,0.397627748298019,0.5,0.5,0.397627748298019,0.554114505563357,0.602372251701981,0.397627748298019,0.602372251701981,0.397627748298019,0.124247239019431,0.831580363815594,0.397627748298019,0.0430348579948366,0.5,0.108229011126714,0.3,2.54435542248436,3.06441109132404,0.5,142.962327433534
CBC_1014,CBC_1014_MSI_AV_v3_Vset6_Aset3_2023-06-25_12h37.50.287.csv,3,14,0,2,b,1,0,2,aud,A,27,1,0A,2A,1,0,z,2.06356369999958,0,1,0,0,2A,0A,A02,3.36729582998647,0.445885494436643,0.445885494436643,0.5,0.445885494436643,0.5,0.554114505563357,0.5,0.445885494436643,0.5,0.5,0.645407109696817,0.397627748298019,0.5,0.5,0.397627748298019,0.554114505563357,0.528605209553185,0.471394790446815,0.5,0.445885494436643,0.162357532599154,0.610416209334768,-0.5,-0.054114505563357,0.5,0.108229011126714,0.3,2.54435542248436,3.06441109132404,0.5,142.962327433534
CBC_1014,CBC_1014_MSI_AV_v3_Vset6_Aset3_2023-06-25_12h37.50.287.csv,3,15,0,1,z,0,1,0,aud,B,63,1,0B,1B,0,1,z,3.77902279999944,0,1,1,1,1B,0B,B01,2.70805020110221,0.445885494436643,0.445885494436643,0.445885494436643,0.445885494436643,0.5,0.554114505563357,0.5,0.445885494436643,0.5,0.5,0.645407109696817,0.397627748298019,0.5,0.5,0.397627748298019,0.554114505563357,0.525668229247275,0.474331770752725,0.554114505563357,0.5,0.0636474452348428,0.597640284832729,0.445885494436643,0.0482577461386238,0.5,0.108229011126714,0.3,2.54435542248436,3.06441109132404,0.5,142.962327433534
CBC_1014,CBC_1014_MSI_AV_v3_Vset6_Aset3_2023-06-25_12h37.50.287.csv,3,16,3,2,b,1,0,1,aud,D,63,1,3D,2D,1,0,b,2.10101199999917,1,0,1,1,3D,2D,D32,2.7408400239252,0.445885494436643,0.445885494436643,0.445885494436643,0.445885494436643,0.5,0.602372251701981,0.5,0.445885494436643,0.5,0.5,0.645407109696817,0.397627748298019,0.5,0.5,0.397627748298019,0.554114505563357,0.582210680796426,0.417789319203574,0.554114505563357,0.397627748298019,0.210242177368519,0.782839866707834,0.445885494436643,0.0482577461386238,0.5,0.108229011126714,0.3,2.54435542248436,3.06441109132404,0.5,142.962327433534
CBC_1014,CBC_1014_MSI_AV_v3_Vset6_Aset3_2023-06-25_12h37.50.287.csv,3,17,1,2,b,1,0,0,aud,B,9,1,1B,2B,1,0,b,2.86789260000114,1,0,1,1,1B,2B,B12,3.46573590279973,0.445885494436643,0.445885494436643,0.445885494436643,0.445885494436643,0.5,0.602372251701981,0.5,0.445885494436643,0.5,0.5,0.645407109696817,0.397627748298019,0.5,0.5,0.397627748298019,0.602372251701981,0.546432705260825,0.453567294739175,0.602372251701981,0.5,0.115971337455105,0.673294907943634,0.397627748298019,0.0430348579948366,0.5,0.108229011126714,0.3,2.54435542248436,3.06441109132404,0.5,142.962327433534
CBC_1014,CBC_1014_MSI_AV_v3_Vset6_Aset3_2023-06-25_12h37.50.287.csv,3,18,1,3,z,0,1,1,aud,D,27,1,1D,3D,0,1,z,1.58478279999872,0,1,1,1,3D,1D,D13,2.80336038090653,0.445885494436643,0.445885494436643,0.445885494436643,0.445885494436643,0.5,0.645407109696817,0.5,0.445885494436643,0.5,0.5,0.645407109696817,0.397627748298019,0.5,0.5,0.397627748298019,0.602372251701981,0.546432705260825,0.453567294739175,0.602372251701981,0.5,0.233072022237632,0.674152760452855,0.397627748298019,0.0430348579948366,0.5,0.108229011126714,0.3,2.54435542248436,3.06441109132404,0.5,142.962327433534
CBC_1014,CBC_1014_MSI_AV_v3_Vset6_Aset3_2023-06-25_12h37.50.287.csv,3,19,0,1,b,1,0,2,aud,A,63,1,0A,1A,1,0,b,2.39049079999859,1,0,1,1,0A,1A,A01,2.83321334405622,0.445885494436643,0.445885494436643,0.445885494436643,0.445885494436643,0.5,0.645407109696817,0.5,0.445885494436643,0.5,0.5,0.645407109696817,0.397627748298019,0.5,0.5,0.397627748298019,0.645407109696817,0.5,0.5,0.445885494436643,0.445885494436643,0.1117775487505,0.501378875686204,0.554114505563357,0.0599712649880902,0.5,0.108229011126714,0.3,2.54435542248436,3.06441109132404,0.5,142.962327433534
CBC_1014,CBC_1014_MSI_AV_v3_Vset6_Aset3_2023-06-25_12h37.50.287.csv,3,20,1,0,z,0,1,2,aud,A,63,1,1A,0A,0,1,z,2.08880840000165,0,1,1,1,0A,1A,A10,2.86220088092947,0.505856759424733,0.445885494436643,0.445885494436643,0.445885494436643,0.5,0.645407109696817,0.5,0.445885494436643,0.5,0.5,0.645407109696817,0.397627748298019,0.5,0.5,0.397627748298019,0.645407109696817,0.531506043125004,0.468493956874996,0.505856759424733,0.445885494436643,0.163222560610669,0.621185158238695,0.494143240575267,0.0534806342824111,0.5,0.108229011126714,0.3,2.54435542248436,3.06441109132404,0.5,142.962327433534
CBC_1014,CBC_1014_MSI_AV_v3_Vset6_Aset3_2023-06-25_12h37.50.287.csv,3,21,2,0,b,1,0,3,aud,C,27,1,2C,0C,1,0,z,3.78955270000006,0,1,0,0,0C,2C,C20,2.89037175789616,0.559337393707144,0.445885494436643,0.445885494436643,0.445885494436643,0.5,0.645407109696817,0.5,0.445885494436643,0.5,0.5,0.645407109696817,0.397627748298019,0.5,0.5,0.397627748298019,0.645407109696817,0.436526013997195,0.563473986002805,0.5,0.645407109696817,0.0270425782484228,0.269893601725919,-0.5,-0.054114505563357,0.5,0.108229011126714,0.3,2.54435542248436,3.06441109132404,0.5,142.962327433534
CBC_1014,CBC_1014_MSI_AV_v3_Vset6_Aset3_2023-06-25_12h37.50.287.csv,3,22,0,1,z,0,1,0,aud,B,63,1,0B,1B,0,1,b,3.31988679999995,1,0,0,0,0B,1B,B01,2.51230562397611,0.559337393707144,0.445885494436643,0.445885494436643,0.445885494436643,0.5,0.645407109696817,0.5,0.445885494436643,0.445885494436643,0.5,0.645407109696817,0.397627748298019,0.5,0.5,0.397627748298019,0.645407109696817,0.436526013997195,0.563473986002805,0.5,0.645407109696817,0.0355460237202216,0.270337776328853,-0.5,-0.054114505563357,0.5,0.108229011126714,0.3,2.54435542248436,3.06441109132404,0.5,142.962327433534
CBC_1014,CBC_1014_MSI_AV_v3_Vset6_Aset3_2023-06-25_12h37.50.287.csv,3,23,2,0,b,1,0,3,aud,C,27,1,2C,0C,1,0,z,0.276835700000447,0,1,0,0,0C,2C,C20,2.53897387105828,0.559337393707144,0.445885494436643,0.445885494436643,0.445885494436643,0.445885494436643,0.645407109696817,0.5,0.445885494436643,0.445885494436643,0.5,0.645407109696817,0.397627748298019,0.5,0.5,0.397627748298019,0.645407109696817,0.408584730390158,0.591415269609842,0.445885494436643,0.645407109696817,1e-20,0.5,-0.445885494436643,-0.0482577461386238,0.5,0.108229011126714,0.3,2.54435542248436,3.06441109132404,0.5,142.962327433534
CBC_1014,CBC_1014_MSI_AV_v3_Vset6_Aset3_2023-06-25_12h37.50.287.csv,3,24,3,2,b,1,0,1,aud,D,63,1,3D,2D,1,0,z,3.16309120000005,0,1,0,0,2D,3D,D32,2.56494935746154,0.559337393707144,0.445885494436643,0.445885494436643,0.445885494436643,0.445885494436643,0.645407109696817,0.5,0.445885494436643,0.397627748298019,0.5,0.645407109696817,0.397627748298019,0.5,0.5,0.397627748298019,0.645407109696817,0.381221917225692,0.618778082774308,0.397627748298019,0.645407109696817,0.0174805989897173,0.135833219479372,-0.397627748298019,-0.0430348579948366,0.5,0.108229011126714,0.3,2.54435542248436,3.06441109132404,0.5,142.962327433534
CBC_1014,CBC_1014_MSI_AV_v3_Vset6_Aset3_2023-06-25_12h37.50.287.csv,3,25,1,0,z,0,1,2,aud,A,63,1,1A,0A,0,1,z,1.51565110000047,0,1,1,1,0A,1A,A10,2.59026716544583,0.559337393707144,0.445885494436643,0.445885494436643,0.445885494436643,0.445885494436643,0.645407109696817,0.5,0.445885494436643,0.397627748298019,0.5,0.645407109696817,0.397627748298019,0.5,0.5,0.354592890303183,0.645407109696817,0.556431215707791,0.443568784292209,0.559337393707144,0.445885494436643,0.256085263127631,0.706795972611948,0.440662606292856,0.0476924781195963,0.5,0.108229011126714,0.3,2.54435542248436,3.06441109132404,0.5,142.962327433534
CBC_1014,CBC_1014_MSI_AV_v3_Vset6_Aset3_2023-06-25_12h37.50.287.csv,3,26,3,2,z,0,1,3,aud,C,63,1,3C,2C,0,1,z,2.60684719999881,0,1,1,1,2C,3C,C32,2.6149597780362,0.607029871826741,0.445885494436643,0.445885494436643,0.445885494436643,0.445885494436643,0.645407109696817,0.5,0.445885494436643,0.397627748298019,0.5,0.645407109696817,0.397627748298019,0.5,0.5,0.354592890303183,0.645407109696817,0.618778082774308,0.381221917225692,0.645407109696817,0.397627748298019,0.164869672278815,0.864642932771879,0.354592890303183,0.0383772378700768,0.5,0.108229011126714,0.3,2.54435542248436,3.06441109132404,0.5,142.962327433534
CBC_1014,CBC_1014_MSI_AV_v3_Vset6_Aset3_2023-06-25_12h37.50.287.csv,3,27,2,0,z,0,1,2,aud,A,27,1,2A,0A,0,1,z,2.51956000000064,0,1,1,1,0A,2A,A20,3.73766961828337,0.607029871826741,0.445885494436643,0.445885494436643,0.445885494436643,0.445885494436643,0.645407109696817,0.5,0.445885494436643,0.397627748298019,0.5,0.683784347566894,0.397627748298019,0.5,0.5,0.354592890303183,0.645407109696817,0.576522948830147,0.423477051169853,0.607029871826741,0.445885494436643,0.160003853040776,0.767912837933206,0.392970128173259,0.0425307683745299,0.5,0.108229011126714,0.3,2.54435542248436,3.06441109132404,0.5,142.962327433534
CBC_1014,CBC_1014_MSI_AV_v3_Vset6_Aset3_2023-06-25_12h37.50.287.csv,3,28,3,2,b,1,0,1,aud,D,63,1,3D,2D,1,0,b,1.70578019999994,1,0,1,1,3D,2D,D32,2.37490575457367,0.649560640201271,0.445885494436643,0.445885494436643,0.445885494436643,0.445885494436643,0.645407109696817,0.5,0.445885494436643,0.397627748298019,0.5,0.683784347566894,0.397627748298019,0.5,0.5,0.354592890303183,0.645407109696817,0.645407109696817,0.354592890303183,0.645407109696817,0.354592890303183,0.335017895180618,0.905841863297595,0.354592890303183,0.0383772378700768,0.5,0.108229011126714,0.3,2.54435542248436,3.06441109132404,0.5,142.962327433534
CBC_1014,CBC_1014_MSI_AV_v3_Vset6_Aset3_2023-06-25_12h37.50.287.csv,3,29,3,2,b,1,0,1,aud,D,63,1,3D,2D,1,0,b,3.40650110000024,1,0,1,1,3D,2D,D32,2.17475172148416,0.649560640201271,0.445885494436643,0.445885494436643,0.445885494436643,0.445885494436643,0.645407109696817,0.5,0.445885494436643,0.397627748298019,0.5,0.683784347566894,0.397627748298019,0.5,0.5,0.354592890303183,0.683784347566894,0.658512458313777,0.341487541686223,0.683784347566894,0.354592890303183,0.0818785734575689,0.922223525809874,0.316215652433106,0.0342237073656238,0.5,0.108229011126714,0.3,2.54435542248436,3.06441109132404,0.5,142.962327433534
CBC_1014,CBC_1014_MSI_AV_v3_Vset6_Aset3_2023-06-25_12h37.50.287.csv,3,30,3,1,z,0,1,0,aud,B,27,1,3B,1B,0,1,z,3.0995524000009,0,1,1,1,1B,3B,B31,3.80666248977032,0.649560640201271,0.445885494436643,0.445885494436643,0.445885494436643,0.445885494436643,0.645407109696817,0.5,0.445885494436643,0.397627748298019,0.5,0.683784347566894,0.397627748298019,0.5,0.5,0.354592890303183,0.718008054932518,0.591415269609842,0.408584730390158,0.645407109696817,0.445885494436643,0.115729924147583,0.80585227427292,0.354592890303183,0.0383772378700768,0.5,0.108229011126714,0.3,2.54435542248436,3.06441109132404,0.5,142.962327433534
CBC_1014,CBC_1014_MSI_AV_v3_Vset6_Aset3_2023-06-25_12h37.50.287.csv,3,31,0,3,z,0,1,1,aud,D,9,1,0D,3D,0,1,z,2.74768899999981,0,1,1,1,3D,0D,D03,3.8286413964891,0.649560640201271,0.445885494436643,0.445885494436643,0.445885494436643,0.445885494436643,0.683784347566894,0.5,0.445885494436643,0.397627748298019,0.5,0.683784347566894,0.397627748298019,0.5,0.5,0.354592890303183,0.718008054932518,0.589493683580194,0.410506316419806,0.718008054932518,0.5,0.144078997040337,0.801479156394891,0.281991945067482,0.0305197093603523,0.5,0.108229011126714,0.3,2.54435542248436,3.06441109132404,0.5,142.962327433534
CBC_1014,CBC_1014_MSI_AV_v3_Vset6_Aset3_2023-06-25_12h37.50.287.csv,3,32,1,0,b,1,0,0,aud,B,63,1,1B,0B,1,0,b,2.53471200000058,1,0,1,1,1B,0B,B10,3.85014760171006,0.649560640201271,0.445885494436643,0.445885494436643,0.445885494436643,0.445885494436643,0.683784347566894,0.5,0.445885494436643,0.397627748298019,0.5,0.683784347566894,0.397627748298019,0.5,0.5,0.354592890303183,0.74852776429287,0.605295744068162,0.394704255931838,0.683784347566894,0.445885494436643,0.170471566571126,0.838055842951549,0.316215652433106,0.0342237073656238,0.5,0.108229011126714,0.3,2.54435542248436,3.06441109132404,0.5,142.962327433534
CBC_1014,CBC_1014_MSI_AV_v3_Vset6_Aset3_2023-06-25_12h37.50.287.csv,3,33,1,0,z,0,1,2,aud,A,63,1,1A,0A,0,1,z,3.93049980000069,0,1,1,1,0A,1A,A10,2.484906649788,0.649560640201271,0.445885494436643,0.445885494436643,0.445885494436643,0.445885494436643,0.718008054932518,0.5,0.445885494436643,0.397627748298019,0.5,0.683784347566894,0.397627748298019,0.5,0.5,0.354592890303183,0.74852776429287,0.592964473251781,0.407035526748218,0.649560640201271,0.445885494436643,0.0682844784440031,0.809555346941188,0.350439359798729,0.0379277053708952,0.5,0.108229011126714,0.3,2.54435542248436,3.06441109132404,0.5,142.962327433534
CBC_1014,CBC_1014_MSI_AV_v3_Vset6_Aset3_2023-06-25_12h37.50.287.csv,3,34,1,0,b,1,0,0,aud,B,63,1,1B,0B,1,0,b,1.40042450000146,1,0,1,1,1B,0B,B10,3.19867311755068,0.687488345572166,0.445885494436643,0.445885494436643,0.445885494436643,0.445885494436643,0.718008054932518,0.5,0.445885494436643,0.397627748298019,0.5,0.683784347566894,0.397627748298019,0.5,0.5,0.354592890303183,0.74852776429287,0.616901825189841,0.383098174810159,0.718008054932518,0.445885494436643,0.372793518962582,0.860740622346063,0.281991945067482,0.0305197093603523,0.5,0.108229011126714,0.3,2.54435542248436,3.06441109132404,0.5,142.962327433534
CBC_1014,CBC_1014_MSI_AV_v3_Vset6_Aset3_2023-06-25_12h37.50.287.csv,3,35,3,2,z,0,1,3,aud,C,63,1,3C,2C,0,1,z,1.78679779999948,0,1,1,1,2C,3C,C32,2.52572864430826,0.687488345572166,0.445885494436643,0.445885494436643,0.445885494436643,0.445885494436643,0.74852776429287,0.5,0.445885494436643,0.397627748298019,0.5,0.683784347566894,0.397627748298019,0.5,0.5,0.354592890303183,0.74852776429287,0.632306916282459,0.367693083717541,0.683784347566894,0.397627748298019,0.304879973732467,0.887073508302383,0.316215652433106,0.0342237073656238,0.5,0.108229011126714,0.3,2.54435542248436,3.06441109132404,0.5,142.962327433534
CBC_1014,CBC_1014_MSI_AV_v3_Vset6_Aset3_2023-06-25_12h37.50.287.csv,3,36,0,2,b,1,0,2,aud,A,27,1,0A,2A,1,0,b,2.2608782999996,1,0,1,1,0A,2A,A02,3.23867845216438,0.687488345572166,0.445885494436643,0.445885494436643,0.445885494436643,0.445885494436643,0.74852776429287,0.5,0.445885494436643,0.397627748298019,0.5,0.718008054932518,0.397627748298019,0.5,0.5,0.354592890303183,0.74852776429287,0.606585683649468,0.393414316350532,0.687488345572166,0.445885494436643,0.205255507184239,0.840606745007484,0.312511654427834,0.0338228273242979,0.5,0.108229011126714,0.3,2.54435542248436,3.06441109132404,0.5,142.962327433534
CBC_1014,CBC_1014_MSI_AV_v3_Vset6_Aset3_2023-06-25_12h37.50.287.csv,3,37,1,0,b,1,0,0,aud,B,63,1,1B,0B,1,0,b,2.35918649999985,1,0,1,1,1B,0B,B10,2.85263142991332,0.721311172896464,0.445885494436643,0.445885494436643,0.445885494436643,0.445885494436643,0.74852776429287,0.5,0.445885494436643,0.397627748298019,0.5,0.718008054932518,0.397627748298019,0.5,0.5,0.354592890303183,0.74852776429287,0.626690769565864,0.373309230434136,0.74852776429287,0.445885494436643,0.198352829457852,0.878262441426086,0.25147223570713,0.0272165913964066,0.5,0.108229011126714,0.3,2.54435542248436,3.06441109132404,0.5,142.962327433534
CBC_1014,CBC_1014_MSI_AV_v3_Vset6_Aset3_2023-06-25_12h37.50.287.csv,3,38,3,1,z,0,1,0,aud,B,27,1,3B,1B,0,1,z,1.14697569999953,0,1,1,1,1B,3B,B31,3.27714473299218,0.721311172896464,0.445885494436643,0.445885494436643,0.445885494436643,0.445885494436643,0.775744355689277,0.5,0.445885494436643,0.397627748298019,0.5,0.718008054932518,0.397627748298019,0.5,0.5,0.354592890303183,0.74852776429287,0.635007695341856,0.364992304658144,0.775744355689277,0.445885494436643,0.460070587330716,0.891389901853906,0.224255644310723,0.0242709666233337,0.5,0.108229011126714,0.3,2.54435542248436,3.06441109132404,0.5,142.962327433534
CBC_1014,CBC_1014_MSI_AV_v3_Vset6_Aset3_2023-06-25_12h37.50.287.csv,3,39,3,2,z,0,1,3,aud,C,63,1,3C,2C,0,1,z,1.91794280000067,0,1,1,1,2C,3C,C32,2.37954613413017,0.721311172896464,0.445885494436643,0.445885494436643,0.445885494436643,0.445885494436643,0.80001532231261,0.5,0.445885494436643,0.397627748298019,0.5,0.718008054932518,0.397627748298019,0.5,0.5,0.354592890303183,0.74852776429287,0.643586422068374,0.356413577931626,0.718008054932518,0.397627748298019,0.283397631945046,0.903709900899738,0.281991945067482,0.0305197093603523,0.5,0.108229011126714,0.3,2.54435542248436,3.06441109132404,0.5,142.962327433534
CBC_1014,CBC_1014_MSI_AV_v3_Vset6_Aset3_2023-06-25_12h37.50.287.csv,3,40,3,1,b,1,0,1,aud,D,27,1,3D,1D,1,0,b,2.42223650000051,1,0,1,1,3D,1D,D31,4.00733318523247,0.721311172896464,0.445885494436643,0.445885494436643,0.445885494436643,0.445885494436643,0.80001532231261,0.5,0.445885494436643,0.397627748298019,0.5,0.74852776429287,0.397627748298019,0.5,0.5,0.354592890303183,0.74852776429287,0.599528329045061,0.400471670954939,0.74852776429287,0.5,0.181453805752127,0.825248948511644,0.25147223570713,0.0272165913964066,0.5,0.108229011126714,0.3,2.54435542248436,3.06441109132404,0.5,142.962327433534
CBC_1014,CBC_1014_MSI_AV_v3_Vset6_Aset3_2023-06-25_12h37.50.287.csv,3,41,1,2,z,0,1,3,aud,C,9,1,1C,2C,0,1,z,2.1822927000012,0,1,1,1,2C,1C,C12,4.02535169073515,0.721311172896464,0.445885494436643,0.445885494436643,0.445885494436643,0.445885494436643,0.80001532231261,0.5,0.445885494436643,0.397627748298019,0.5,0.74852776429287,0.397627748298019,0.5,0.5,0.354592890303183,0.775744355689277,0.599528329045061,0.400471670954939,0.74852776429287,0.5,0.212088009150619,0.825112297648797,0.25147223570713,0.0272165913964066,0.5,0.108229011126714,0.3,2.54435542248436,3.06441109132404,0.5,142.962327433534
CBC_1014,CBC_1014_MSI_AV_v3_Vset6_Aset3_2023-06-25_12h37.50.287.csv,3,42,0,1,z,0,1,0,aud,B,63,0,0B,1B,1,0,z,3.10723909999979,0,1,1,0,1B,0B,B01,2.65675690671466,0.721311172896464,0.445885494436643,0.445885494436643,0.445885494436643,0.445885494436643,0.80001532231261,0.5,0.445885494436643,0.397627748298019,0.5,0.775744355689277,0.397627748298019,0.5,0.5,0.354592890303183,0.775744355689277,0.642117985282306,0.357882014717694,0.80001532231261,0.445885494436643,0.111252018053807,0.901535804476806,-0.80001532231261,-0.0865848672201132,0.5,0.108229011126714,0.3,2.54435542248436,3.06441109132404,0.5,142.962327433534
CBC_1014,CBC_1014_MSI_AV_v3_Vset6_Aset3_2023-06-25_12h37.50.287.csv,3,43,3,2,b,1,0,1,aud,D,63,1,3D,2D,1,0,b,2.08986419999928,1,0,1,1,3D,2D,D32,2.26868354131836,0.721311172896464,0.445885494436643,0.445885494436643,0.445885494436643,0.445885494436643,0.713430455092497,0.5,0.445885494436643,0.397627748298019,0.5,0.775744355689277,0.397627748298019,0.5,0.5,0.354592890303183,0.775744355689277,0.686294606711077,0.313705393288923,0.775744355689277,0.354592890303183,0.249292800232836,0.948275825847399,0.224255644310723,0.0242709666233337,0.5,0.108229011126714,0.3,2.54435542248436,3.06441109132404,0.5,142.962327433534
CBC_1014,CBC_1014_MSI_AV_v3_Vset6_Aset3_2023-06-25_12h37.50.287.csv,3,44,0,1,b,1,0,2,aud,A,63,1,0A,1A,1,0,b,2.60076090000075,1,0,1,1,0A,1A,A01,2.97892515523761,0.721311172896464,0.445885494436643,0.445885494436643,0.445885494436643,0.445885494436643,0.713430455092497,0.5,0.445885494436643,0.397627748298019,0.5,0.775744355689277,0.397627748298019,0.5,0.5,0.354592890303183,0.80001532231261,0.617985977071513,0.382014022928487,0.721311172896464,0.445885494436643,0.165477920582459,0.863087112262685,0.278688827103536,0.0301622161694795,0.5,0.108229011126714,0.3,2.54435542248436,3.06441109132404,0.5,142.962327433534
CBC_1014,CBC_1014_MSI_AV_v3_Vset5_Aset2_2023-06-25_12h52.52.235.csv,4,1,1,0,z,0,1,2,aud,A,63,1,1A,0A,0,1,z,2.46510510000007,0,1,1,1,0A,1A,A10,2.77258872223978,0.5,0.5,0.5,0.5,0.5,0.5,0.5,0.5,0.5,0.5,0.5,0.5,0.5,0.5,0.5,0.5,0.5,0.5,0.5,0.5,0.109561665198672,0.499550718586282,0.5,0.00480608664690407,0.5,0.00961217329380815,0.35384935934102,5.64967657425361,3.00035471550304,0.5,90.5458662892358
CBC_1014,CBC_1014_MSI_AV_v3_Vset5_Aset2_2023-06-25_12h52.52.235.csv,4,2,3,2,z,0,1,3,aud,C,63,1,3C,2C,0,1,b,3.06062900000143,1,0,0,0,3C,2C,C32,2.83321334405622,0.504806086646904,0.5,0.5,0.5,0.5,0.5,0.5,0.5,0.5,0.5,0.5,0.5,0.5,0.5,0.5,0.5,0.5,0.5,0.5,0.5,0.0791753629397277,0.500234636862095,-0.5,-0.00480608664690407,0.5,0.00961217329380815,0.35384935934102,5.64967657425361,3.00035471550304,0.5,90.5458662892358
CBC_1014,CBC_1014_MSI_AV_v3_Vset5_Aset2_2023-06-25_12h52.52.235.csv,4,3,0,2,b,1,0,2,aud,A,27,1,0A,2A,1,0,z,1.51623630000176,0,1,0,0,2A,0A,A02,2.89037175789616,0.504806086646904,0.5,0.5,0.5,0.5,0.5,0.5,0.5,0.5,0.5,0.5,0.495193913353096,0.5,0.5,0.5,0.5,0.497608450669849,0.502391549330151,0.5,0.504806086646904,0.174046160529285,0.480212280719765,-0.5,-0.00480608664690407,0.5,0.00961217329380815,0.35384935934102,5.64967657425361,3.00035471550304,0.5,90.5458662892358
CBC_1014,CBC_1014_MSI_AV_v3_Vset5_Aset2_2023-06-25_12h52.52.235.csv,4,4,1,0,b,1,0,0,aud,B,63,1,1B,0B,1,0,b,2.23414590000175,1,0,1,1,1B,0B,B10,2.94443897916644,0.504806086646904,0.5,0.495193913353096,0.5,0.5,0.5,0.5,0.5,0.5,0.5,0.5,0.495193913353096,0.5,0.5,0.5,0.5,0.5,0.5,0.5,0.5,0.124205971702164,0.499224788744394,0.5,0.00480608664690407,0.5,0.00961217329380815,0.35384935934102,5.64967657425361,3.00035471550304,0.5,90.5458662892358
CBC_1014,CBC_1014_MSI_AV_v3_Vset5_Aset2_2023-06-25_12h52.52.235.csv,4,5,2,3,z,0,1,1,aud,D,63,1,2D,3D,0,1,z,2.75224910000179,0,1,1,1,3D,2D,D23,2.99573227355399,0.504806086646904,0.5,0.495193913353096,0.5,0.5,0.504806086646904,0.5,0.5,0.5,0.5,0.5,0.495193913353096,0.5,0.5,0.5,0.5,0.5,0.5,0.5,0.5,0.0935966922866334,0.499405845127863,0.5,0.00480608664690407,0.5,0.00961217329380815,0.35384935934102,5.64967657425361,3.00035471550304,0.5,90.5458662892358
CBC_1014,CBC_1014_MSI_AV_v3_Vset5_Aset2_2023-06-25_12h52.52.235.csv,4,6,1,2,b,1,0,0,aud,B,9,1,1B,2B,1,0,z,2.32650920000196,0,1,0,0,2B,1B,B12,3.04452243772342,0.504806086646904,0.5,0.495193913353096,0.5,0.5,0.504806086646904,0.5,0.5,0.5,0.5,0.5,0.495193913353096,0.5,0.5,0.5,0.504806086646904,0.497608450669849,0.502391549330151,0.5,0.504806086646904,0.11336006380344,0.479117861257648,-0.5,-0.00480608664690407,0.5,0.00961217329380815,0.35384935934102,5.64967657425361,3.00035471550304,0.5,90.5458662892358
CBC_1014,CBC_1014_MSI_AV_v3_Vset5_Aset2_2023-06-25_12h52.52.235.csv,4,7,1,3,z,0,1,1,aud,D,27,1,1D,3D,0,1,z,2.61931150000237,0,1,1,1,3D,1D,D13,3.09104245335832,0.504806086646904,0.5,0.495193913353096,0.5,0.5,0.504806086646904,0.495193913353096,0.5,0.5,0.5,0.5,0.495193913353096,0.5,0.5,0.5,0.504806086646904,0.502391549330151,0.497608450669849,0.504806086646904,0.5,0.104769709046042,0.519768921781787,0.495193913353096,0.00475988970918897,0.5,0.00961217329380815,0.35384935934102,5.64967657425361,3.00035471550304,0.5,90.5458662892358
CBC_1014,CBC_1014_MSI_AV_v3_Vset5_Aset2_2023-06-25_12h52.52.235.csv,4,8,1,0,z,0,1,2,aud,A,63,1,1A,0A,0,1,z,3.06044400000064,0,1,1,1,0A,1A,A10,2.4423470353692,0.504806086646904,0.5,0.495193913353096,0.5,0.5,0.504806086646904,0.495193913353096,0.5,0.5,0.5,0.5,0.495193913353096,0.5,0.5,0.5,0.509565976356093,0.502391549330151,0.497608450669849,0.504806086646904,0.5,0.0822380920235274,0.519613642407653,0.495193913353096,0.00475988970918897,0.5,0.00961217329380815,0.35384935934102,5.64967657425361,3.00035471550304,0.5,90.5458662892358
CBC_1014,CBC_1014_MSI_AV_v3_Vset5_Aset2_2023-06-25_12h52.52.235.csv,4,9,0,1,b,1,0,2,aud,A,63,1,0A,1A,1,0,z,2.24324370000068,0,1,0,0,1A,0A,A01,3.17805383034795,0.509565976356093,0.5,0.495193913353096,0.5,0.5,0.504806086646904,0.495193913353096,0.5,0.5,0.5,0.5,0.495193913353096,0.5,0.5,0.5,0.509565976356093,0.495262332239731,0.504737667760269,0.5,0.509565976356093,0.113902270752111,0.459848241396049,-0.5,-0.00480608664690407,0.5,0.00961217329380815,0.35384935934102,5.64967657425361,3.00035471550304,0.5,90.5458662892358
CBC_1014,CBC_1014_MSI_AV_v3_Vset5_Aset2_2023-06-25_12h52.52.235.csv,4,10,2,0,b,1,0,3,aud,C,27,1,2C,0C,1,0,b,3.07936910000171,1,0,1,1,2C,0C,C20,3.2188758248682,0.509565976356093,0.495193913353096,0.495193913353096,0.5,0.5,0.504806086646904,0.495193913353096,0.5,0.5,0.5,0.5,0.495193913353096,0.5,0.5,0.5,0.509565976356093,0.5,0.5,0.5,0.5,0.078550095717614,0.50140833473406,0.5,0.00480608664690407,0.5,0.00961217329380815,0.35384935934102,5.64967657425361,3.00035471550304,0.5,90.5458662892358
CBC_1014,CBC_1014_MSI_AV_v3_Vset5_Aset2_2023-06-25_12h52.52.235.csv,4,11,0,1,z,0,1,0,aud,B,63,1,0B,1B,0,1,z,2.50509590000001,0,1,1,1,1B,0B,B01,3.25809653802148,0.509565976356093,0.495193913353096,0.495193913353096,0.5,0.5,0.504806086646904,0.495193913353096,0.5,0.5,0.5,0.504806086646904,0.495193913353096,0.5,0.5,0.5,0.509565976356093,0.502391549330151,0.497608450669849,0.504806086646904,0.5,0.111424206326007,0.51926266869011,0.495193913353096,0.00475988970918897,0.5,0.00961217329380815,0.35384935934102,5.64967657425361,3.00035471550304,0.5,90.5458662892358
CBC_1014,CBC_1014_MSI_AV_v3_Vset5_Aset2_2023-06-25_12h52.52.235.csv,4,12,0,1,b,1,0,2,aud,A,63,1,0A,1A,1,0,z,2.56417030000193,0,1,0,0,1A,0A,A01,2.60268968544438,0.509565976356093,0.495193913353096,0.495193913353096,0.5,0.5,0.509565976356093,0.495193913353096,0.5,0.5,0.5,0.504806086646904,0.495193913353096,0.5,0.5,0.5,0.509565976356093,0.492848011176503,0.507151988823497,0.495193913353096,0.509565976356093,0.0915757836920652,0.440752516008178,-0.495193913353096,-0.00475988970918897,0.5,0.00961217329380815,0.35384935934102,5.64967657425361,3.00035471550304,0.5,90.5458662892358
CBC_1014,CBC_1014_MSI_AV_v3_Vset5_Aset2_2023-06-25_12h52.52.235.csv,4,13,3,2,z,0,1,3,aud,C,63,1,3C,2C,0,1,b,2.67195240000183,1,0,0,0,3C,2C,C32,2.63905732961526,0.509565976356093,0.490434023643907,0.495193913353096,0.5,0.5,0.509565976356093,0.495193913353096,0.5,0.5,0.5,0.504806086646904,0.495193913353096,0.5,0.5,0.5,0.509565976356093,0.495193913353096,0.504806086646904,0.495193913353096,0.504806086646904,0.0903455515802169,0.461358708601646,-0.495193913353096,-0.00475988970918897,0.5,0.00961217329380815,0.35384935934102,5.64967657425361,3.00035471550304,0.5,90.5458662892358
CBC_1014,CBC_1014_MSI_AV_v3_Vset5_Aset2_2023-06-25_12h52.52.235.csv,4,14,0,2,b,1,0,2,aud,A,27,1,0A,2A,1,0,z,2.29628270000285,0,1,0,0,2A,0A,A02,2.67414864942653,0.509565976356093,0.490434023643907,0.495193913353096,0.5,0.5,0.509565976356093,0.495193913353096,0.5,0.5,0.5,0.504806086646904,0.490434023643907,0.5,0.5,0.5,0.509565976356093,0.492848011176503,0.507151988823497,0.495193913353096,0.509565976356093,0.105894442890539,0.439857273617462,-0.495193913353096,-0.00475988970918897,0.5,0.00961217329380815,0.35384935934102,5.64967657425361,3.00035471550304,0.5,90.5458662892358
CBC_1014,CBC_1014_MSI_AV_v3_Vset5_Aset2_2023-06-25_12h52.52.235.csv,4,15,1,0,b,1,0,0,aud,B,63,1,1B,0B,1,0,z,2.72765520000212,0,1,0,0,0B,1B,B10,2.70805020110221,0.509565976356093,0.490434023643907,0.490434023643907,0.5,0.5,0.509565976356093,0.495193913353096,0.5,0.5,0.5,0.504806086646904,0.490434023643907,0.5,0.5,0.5,0.509565976356093,0.495262332239731,0.504737667760269,0.5,0.509565976356093,0.0874547891138488,0.460470340871266,-0.5,-0.00480608664690407,0.5,0.00961217329380815,0.35384935934102,5.64967657425361,3.00035471550304,0.5,90.5458662892358
CBC_1014,CBC_1014_MSI_AV_v3_Vset5_Aset2_2023-06-25_12h52.52.235.csv,4,16,0,1,z,0,1,0,aud,B,63,1,0B,1B,0,1,z,1.8819132000026,0,1,1,1,1B,0B,B01,2.7408400239252,0.509565976356093,0.490434023643907,0.490434023643907,0.5,0.495193913353096,0.509565976356093,0.495193913353096,0.5,0.5,0.5,0.504806086646904,0.490434023643907,0.5,0.5,0.5,0.509565976356093,0.507151988823497,0.492848011176503,0.509565976356093,0.495193913353096,0.169365724627918,0.561473362462739,0.490434023643907,0.00471413682444484,0.5,0.00961217329380815,0.35384935934102,5.64967657425361,3.00035471550304,0.5,90.5458662892358
CBC_1014,CBC_1014_MSI_AV_v3_Vset5_Aset2_2023-06-25_12h52.52.235.csv,4,17,3,2,z,0,1,3,aud,C,63,1,3C,2C,0,1,z,2.62228010000217,0,1,1,1,2C,3C,C32,2.36712361413162,0.509565976356093,0.490434023643907,0.490434023643907,0.5,0.495193913353096,0.514280113180538,0.495193913353096,0.5,0.5,0.5,0.504806086646904,0.490434023643907,0.5,0.5,0.5,0.509565976356093,0.507220399808242,0.492779600191758,0.504806086646904,0.490434023643907,0.112601705435376,0.559571096782226,0.495193913353096,0.00475988970918897,0.5,0.00961217329380815,0.35384935934102,5.64967657425361,3.00035471550304,0.5,90.5458662892358
CBC_1014,CBC_1014_MSI_AV_v3_Vset5_Aset2_2023-06-25_12h52.52.235.csv,4,18,3,1,b,1,0,1,aud,D,27,1,3D,1D,1,0,z,2.90110380000078,0,1,0,0,1D,3D,D31,3.49650756146648,0.509565976356093,0.490434023643907,0.490434023643907,0.5,0.495193913353096,0.514280113180538,0.495193913353096,0.5,0.5,0.5,0.509565976356093,0.490434023643907,0.5,0.5,0.5,0.509565976356093,0.495262332239731,0.504737667760269,0.5,0.509565976356093,0.0795618249973581,0.460783954022397,-0.5,-0.00480608664690407,0.5,0.00961217329380815,0.35384935934102,5.64967657425361,3.00035471550304,0.5,90.5458662892358
CBC_1014,CBC_1014_MSI_AV_v3_Vset5_Aset2_2023-06-25_12h52.52.235.csv,4,19,1,2,z,0,1,3,aud,C,9,1,1C,2C,0,1,z,2.72130260000267,0,1,1,1,2C,1C,C12,3.52636052461616,0.509565976356093,0.490434023643907,0.490434023643907,0.5,0.495193913353096,0.514280113180538,0.495193913353096,0.5,0.5,0.5,0.509565976356093,0.490434023643907,0.5,0.495193913353096,0.5,0.509565976356093,0.504737667760269,0.495262332239731,0.509565976356093,0.5,0.102830192908225,0.539539988389253,0.490434023643907,0.00471413682444484,0.5,0.00961217329380815,0.35384935934102,5.64967657425361,3.00035471550304,0.5,90.5458662892358
CBC_1014,CBC_1014_MSI_AV_v3_Vset5_Aset2_2023-06-25_12h52.52.235.csv,4,20,3,1,z,0,1,0,aud,B,27,1,3B,1B,0,1,z,2.44204060000084,0,1,1,1,1B,3B,B31,3.55534806148941,0.509565976356093,0.490434023643907,0.490434023643907,0.5,0.495193913353096,0.514280113180538,0.495193913353096,0.5,0.5,0.5,0.514280113180538,0.490434023643907,0.5,0.495193913353096,0.5,0.509565976356093,0.507039531286756,0.492960468713244,0.514280113180538,0.5,0.124358366893617,0.559629626014412,0.485719886819462,0.00466882372435755,0.5,0.00961217329380815,0.35384935934102,5.64967657425361,3.00035471550304,0.5,90.5458662892358
CBC_1014,CBC_1014_MSI_AV_v3_Vset5_Aset2_2023-06-25_12h52.52.235.csv,4,21,3,2,b,1,0,1,aud,D,63,1,3D,2D,NaN,NaN,[],NaN,NaN,NaN,NaN,NaN,,,D32,3.58351893845611,0.509565976356093,0.490434023643907,0.490434023643907,0.5,0.495193913353096,0.518948936904895,0.495193913353096,0.5,0.5,0.5,0.514280113180538,0.490434023643907,0.5,0.495193913353096,0.5,0.509565976356093,0,0,0,0,NaN,0,0,0,0.5,0.00961217329380815,0.35384935934102,5.64967657425361,3.00035471550304,0.5,90.5458662892358
CBC_1014,CBC_1014_MSI_AV_v3_Vset5_Aset2_2023-06-25_12h52.52.235.csv,4,22,1,0,b,1,0,0,aud,B,63,0,1B,0B,0,1,z,2.33586850000029,0,1,0,1,0B,1B,B10,2.51230562397611,0.509565976356093,0.490434023643907,0.490434023643907,0.5,0.495193913353096,0.518948936904895,0.495193913353096,0.5,0.5,0.5,0.514280113180538,0.490434023643907,0.5,0.495193913353096,0.5,0.509565976356093,0.488288127483344,0.511711872516656,0.495193913353096,0.518948936904895,0.0945398649898979,0.400749632985858,0.504806086646904,0.00485228358461917,0.5,0.00961217329380815,0.35384935934102,5.64967657425361,3.00035471550304,0.5,90.5458662892358
CBC_1014,CBC_1014_MSI_AV_v3_Vset5_Aset2_2023-06-25_12h52.52.235.csv,4,23,3,0,z,0,1,2,aud,A,9,1,3A,0A,0,1,b,2.52424160000191,1,0,0,0,3A,0A,A30,3.63758615972639,0.509565976356093,0.490434023643907,0.490434023643907,0.5,0.500046196937715,0.518948936904895,0.495193913353096,0.5,0.5,0.5,0.514280113180538,0.490434023643907,0.5,0.495193913353096,0.5,0.509565976356093,0.495262332239731,0.504737667760269,0.5,0.509565976356093,0.0973883325804099,0.458592284661444,-0.5,-0.00480608664690407,0.5,0.00961217329380815,0.35384935934102,5.64967657425361,3.00035471550304,0.5,90.5458662892358
CBC_1014,CBC_1014_MSI_AV_v3_Vset5_Aset2_2023-06-25_12h52.52.235.csv,4,24,2,3,z,0,1,1,aud,D,63,1,2D,3D,0,1,z,2.37839390000045,0,1,1,1,3D,2D,D23,2.9704144655697,0.509565976356093,0.490434023643907,0.490434023643907,0.495193913353096,0.500046196937715,0.518948936904895,0.495193913353096,0.5,0.5,0.5,0.514280113180538,0.490434023643907,0.5,0.495193913353096,0.5,0.509565976356093,0.504737667760269,0.495262332239731,0.509565976356093,0.5,0.124054113642151,0.539277542219463,0.490434023643907,0.00471413682444484,0.5,0.00961217329380815,0.35384935934102,5.64967657425361,3.00035471550304,0.5,90.5458662892358
CBC_1014,CBC_1014_MSI_AV_v3_Vset5_Aset2_2023-06-25_12h52.52.235.csv,4,25,1,3,b,1,0,0,aud,B,27,1,1B,3B,1,0,b,2.51400360000116,1,0,1,1,1B,3B,B13,3.68887945411394,0.509565976356093,0.490434023643907,0.490434023643907,0.495193913353096,0.500046196937715,0.518948936904895,0.495193913353096,0.5,0.5,0.5,0.514280113180538,0.490434023643907,0.5,0.495193913353096,0.5,0.514280113180538,0.509298276007066,0.490701723992934,0.518948936904895,0.5,0.123610795499465,0.578626415650302,0.481051063095105,0.00462394618164078,0.5,0.00961217329380815,0.35384935934102,5.64967657425361,3.00035471550304,0.5,90.5458662892358
CBC_1014,CBC_1014_MSI_AV_v3_Vset5_Aset2_2023-06-25_12h52.52.235.csv,4,26,2,3,b,1,0,3,aud,C,63,1,2C,3C,1,0,z,1.63751310000043,0,1,0,0,3C,2C,C23,3.71357206670431,0.509565976356093,0.490434023643907,0.490434023643907,0.495193913353096,0.500046196937715,0.523572883086536,0.495193913353096,0.5,0.5,0.5,0.514280113180538,0.490434023643907,0.5,0.495193913353096,0.5,0.514280113180538,0.488132898372466,0.511867101627534,0.490434023643907,0.514280113180538,0.137612391560562,0.399304217597573,-0.490434023643907,-0.00471413682444484,0.5,0.00961217329380815,0.35384935934102,5.64967657425361,3.00035471550304,0.5,90.5458662892358
CBC_1014,CBC_1014_MSI_AV_v3_Vset5_Aset2_2023-06-25_12h52.52.235.csv,4,27,2,0,b,1,0,3,aud,C,27,1,2C,0C,1,0,z,2.42639900000177,0,1,0,0,0C,2C,C20,3.04452243772342,0.509565976356093,0.490434023643907,0.490434023643907,0.495193913353096,0.500046196937715,0.523572883086536,0.495193913353096,0.5,0.5,0.5,0.514280113180538,0.485719886819462,0.5,0.495193913353096,0.5,0.514280113180538,0.492960468713244,0.507039531286756,0.5,0.514280113180538,0.0983277029290802,0.438684645716894,-0.5,-0.00480608664690407,0.5,0.00961217329380815,0.35384935934102,5.64967657425361,3.00035471550304,0.5,90.5458662892358
CBC_1014,CBC_1014_MSI_AV_v3_Vset5_Aset2_2023-06-25_12h52.52.235.csv,4,28,0,1,z,0,1,0,aud,B,63,1,0B,1B,0,1,z,2.48048230000131,0,1,1,1,1B,0B,B01,2.66258782702545,0.509565976356093,0.490434023643907,0.490434023643907,0.495193913353096,0.500046196937715,0.523572883086536,0.495193913353096,0.5,0.495193913353096,0.5,0.514280113180538,0.485719886819462,0.5,0.495193913353096,0.5,0.514280113180538,0.511491914623291,0.488508085376709,0.523572883086536,0.500046196937715,0.129406812973929,0.594485849644578,0.476427116913464,0.00457950000964161,0.5,0.00961217329380815,0.35384935934102,5.64967657425361,3.00035471550304,0.5,90.5458662892358
CBC_1014,CBC_1014_MSI_AV_v3_Vset5_Aset2_2023-06-25_12h52.52.235.csv,4,29,2,3,b,1,0,3,aud,C,63,1,2C,3C,NaN,NaN,[],NaN,NaN,NaN,NaN,NaN,,,C23,3.09104245335832,0.509565976356093,0.490434023643907,0.490434023643907,0.495193913353096,0.500046196937715,0.528152383096178,0.495193913353096,0.5,0.495193913353096,0.5,0.514280113180538,0.485719886819462,0.5,0.495193913353096,0.5,0.514280113180538,0,0,0,0,NaN,0,0,0,0.5,0.00961217329380815,0.35384935934102,5.64967657425361,3.00035471550304,0.5,90.5458662892358
CBC_1014,CBC_1014_MSI_AV_v3_Vset5_Aset2_2023-06-25_12h52.52.235.csv,4,30,1,0,z,0,1,2,aud,A,63,1,1A,0A,NaN,NaN,[],NaN,NaN,NaN,NaN,NaN,,,A10,2.70805020110221,0.509565976356093,0.490434023643907,0.490434023643907,0.495193913353096,0.500046196937715,0.528152383096178,0.495193913353096,0.5,0.495193913353096,0.5,0.514280113180538,0.485719886819462,0.5,0.495193913353096,0.5,0.514280113180538,0,0,0,0,NaN,0,0,0,0.5,0.00961217329380815,0.35384935934102,5.64967657425361,3.00035471550304,0.5,90.5458662892358
CBC_1014,CBC_1014_MSI_AV_v3_Vset5_Aset2_2023-06-25_12h52.52.235.csv,4,31,2,3,z,0,1,1,aud,D,63,1,2D,3D,0,1,z,1.63822960000107,0,1,1,1,3D,2D,D23,2.73002910782099,0.509565976356093,0.490434023643907,0.490434023643907,0.495193913353096,0.500046196937715,0.528152383096178,0.495193913353096,0.5,0.495193913353096,0.5,0.514280113180538,0.485719886819462,0.5,0.495193913353096,0.5,0.514280113180538,0.507039531286756,0.492960468713244,0.514280113180538,0.5,0.191495119650101,0.559087720611217,0.485719886819462,0.00466882372435755,0.5,0.00961217329380815,0.35384935934102,5.64967657425361,3.00035471550304,0.5,90.5458662892358
CBC_1014,CBC_1014_MSI_AV_v3_Vset5_Aset2_2023-06-25_12h52.52.235.csv,4,32,2,3,b,1,0,3,aud,C,63,1,2C,3C,1,0,b,2.37066000000232,1,0,1,1,2C,3C,C23,2.75153531304195,0.509565976356093,0.490434023643907,0.490434023643907,0.495193913353096,0.500046196937715,0.528152383096178,0.495193913353096,0.5,0.495193913353096,0.5,0.514280113180538,0.485719886819462,0.5,0.495193913353096,0.5,0.518948936904895,0.514280113180538,0.485719886819462,0.514280113180538,0.485719886819462,0.143377363795291,0.619118794347805,0.485719886819462,0.00466882372435755,0.5,0.00961217329380815,0.35384935934102,5.64967657425361,3.00035471550304,0.5,90.5458662892358
CBC_1014,CBC_1014_MSI_AV_v3_Vset5_Aset2_2023-06-25_12h52.52.235.csv,4,33,3,1,b,1,0,1,aud,D,27,1,3D,1D,1,0,z,2.32476930000121,0,1,0,0,1D,3D,D31,3.17805383034795,0.509565976356093,0.490434023643907,0.490434023643907,0.495193913353096,0.500046196937715,0.528152383096178,0.495193913353096,0.5,0.495193913353096,0.5,0.518948936904895,0.485719886819462,0.5,0.495193913353096,0.5,0.518948936904895,0.488288127483344,0.511711872516656,0.495193913353096,0.518948936904895,0.0955302081255098,0.402493599284274,-0.495193913353096,-0.00475988970918897,0.5,0.00961217329380815,0.35384935934102,5.64967657425361,3.00035471550304,0.5,90.5458662892358
CBC_1014,CBC_1014_MSI_AV_v3_Vset5_Aset2_2023-06-25_12h52.52.235.csv,4,34,0,2,z,0,1,3,aud,C,27,1,0C,2C,0,1,z,2.53470540000126,0,1,1,1,2C,0C,C02,3.89182029811063,0.509565976356093,0.490434023643907,0.490434023643907,0.495193913353096,0.500046196937715,0.528152383096178,0.495193913353096,0.5,0.495193913353096,0.5,0.518948936904895,0.485719886819462,0.5,0.490434023643907,0.5,0.518948936904895,0.511711872516656,0.488288127483344,0.518948936904895,0.495193913353096,0.126281961447081,0.59784779586607,0.481051063095105,0.00462394618164078,0.5,0.00961217329380815,0.35384935934102,5.64967657425361,3.00035471550304,0.5,90.5458662892358
CBC_1014,CBC_1014_MSI_AV_v3_Vset5_Aset2_2023-06-25_12h52.52.235.csv,4,35,2,3,z,0,1,1,aud,D,63,0,2D,3D,1,0,z,3.12190960000225,0,1,1,0,3D,2D,D23,2.52572864430826,0.509565976356093,0.490434023643907,0.490434023643907,0.495193913353096,0.500046196937715,0.528152383096178,0.495193913353096,0.5,0.495193913353096,0.5,0.523572883086536,0.485719886819462,0.5,0.490434023643907,0.5,0.518948936904895,0.509298276007066,0.490701723992934,0.518948936904895,0.5,0.088078750977401,0.577125458641607,-0.518948936904895,-0.00498822711216736,0.5,0.00961217329380815,0.35384935934102,5.64967657425361,3.00035471550304,0.5,90.5458662892358
CBC_1014,CBC_1014_MSI_AV_v3_Vset5_Aset2_2023-06-25_12h52.52.235.csv,4,36,1,0,z,0,1,2,aud,A,63,1,1A,0A,0,1,z,2.1782112000019,0,1,1,1,0A,1A,A10,2.54553127160444,0.509565976356093,0.490434023643907,0.490434023643907,0.495193913353096,0.500046196937715,0.528152383096178,0.495193913353096,0.5,0.495193913353096,0.5,0.523572883086536,0.485719886819462,0.5,0.490434023643907,0.5,0.513960709792728,0.509565976356093,0.490434023643907,0.509565976356093,0.490434023643907,0.149294894632164,0.580649081232163,0.490434023643907,0.00471413682444484,0.5,0.00961217329380815,0.35384935934102,5.64967657425361,3.00035471550304,0.5,90.5458662892358
CBC_1014,CBC_1014_MSI_AV_v3_Vset5_Aset2_2023-06-25_12h52.52.235.csv,4,37,2,3,b,1,0,3,aud,C,63,1,2C,3C,1,0,z,1.65080430000307,0,1,0,0,3C,2C,C23,2.56494935746154,0.514280113180538,0.490434023643907,0.490434023643907,0.495193913353096,0.500046196937715,0.528152383096178,0.495193913353096,0.5,0.495193913353096,0.5,0.523572883086536,0.485719886819462,0.5,0.490434023643907,0.5,0.513960709792728,0.481247762098504,0.518752237901496,0.485719886819462,0.523572883086536,0.119754537819321,0.345669116189603,-0.485719886819462,-0.00466882372435755,0.5,0.00961217329380815,0.35384935934102,5.64967657425361,3.00035471550304,0.5,90.5458662892358
CBC_1014,CBC_1014_MSI_AV_v3_Vset5_Aset2_2023-06-25_12h52.52.235.csv,4,38,0,2,b,1,0,2,aud,A,27,1,0A,2A,1,0,z,1.7897406000011,0,1,0,0,2A,0A,A02,2.87167962488401,0.514280113180538,0.490434023643907,0.490434023643907,0.495193913353096,0.500046196937715,0.528152383096178,0.495193913353096,0.5,0.495193913353096,0.5,0.523572883086536,0.481051063095105,0.5,0.490434023643907,0.5,0.513960709792728,0.488132898372466,0.511867101627534,0.490434023643907,0.514280113180538,0.127550098248487,0.400850374322851,-0.490434023643907,-0.00471413682444484,0.5,0.00961217329380815,0.35384935934102,5.64967657425361,3.00035471550304,0.5,90.5458662892358
CBC_1014,CBC_1014_MSI_AV_v3_Vset5_Aset2_2023-06-25_12h52.52.235.csv,4,39,2,3,z,0,1,1,aud,D,63,1,2D,3D,0,1,z,2.71271480000178,0,1,1,1,3D,2D,D23,2.37954613413017,0.514280113180538,0.490434023643907,0.485719886819462,0.495193913353096,0.500046196937715,0.528152383096178,0.495193913353096,0.5,0.495193913353096,0.5,0.523572883086536,0.481051063095105,0.5,0.490434023643907,0.5,0.513960709792728,0.5068842459367,0.4931157540633,0.513960709792728,0.5,0.106874703227538,0.558229118974537,0.486039290207272,0.00467189388507181,0.5,0.00961217329380815,0.35384935934102,5.64967657425361,3.00035471550304,0.5,90.5458662892358
CBC_1014,CBC_1014_MSI_AV_v3_Vset5_Aset2_2023-06-25_12h52.52.235.csv,4,40,3,2,b,1,0,1,aud,D,63,1,3D,2D,1,0,b,1.30784770000173,1,0,1,1,3D,2D,D32,3.31418600467253,0.514280113180538,0.490434023643907,0.485719886819462,0.495193913353096,0.500046196937715,0.528152383096178,0.495193913353096,0.5,0.495193913353096,0.5,0.523572883086536,0.481051063095105,0.5,0.490434023643907,0.5,0.5186326036778,0.509145890093507,0.490854109906493,0.5186326036778,0.5,0.229135389666144,0.576431034906842,0.4813673963222,0.00462698683143821,0.5,0.00961217329380815,0.35384935934102,5.64967657425361,3.00035471550304,0.5,90.5458662892358
CBC_1014,CBC_1014_MSI_AV_v3_Vset5_Aset2_2023-06-25_12h52.52.235.csv,4,41,3,1,z,0,1,0,aud,B,27,1,3B,1B,0,1,z,2.02705700000115,0,1,1,1,1B,3B,B31,3.3322045101752,0.514280113180538,0.490434023643907,0.485719886819462,0.495193913353096,0.500046196937715,0.528152383096178,0.495193913353096,0.5,0.495193913353096,0.5,0.523572883086536,0.481051063095105,0.5,0.490434023643907,0.5,0.523259590509238,0.513690763917407,0.486309236082593,0.528152383096178,0.5,0.171652833116588,0.612607885043821,0.471847616903822,0.00453548106194994,0.5,0.00961217329380815,0.35384935934102,5.64967657425361,3.00035471550304,0.5,90.5458662892358
CBC_1014,CBC_1014_MSI_AV_v3_Vset5_Aset2_2023-06-25_12h52.52.235.csv,4,42,3,0,b,1,0,1,aud,D,9,1,3D,0D,1,0,b,2.20298390000062,1,0,1,1,3D,0D,D30,4.04305126783455,0.514280113180538,0.490434023643907,0.485719886819462,0.495193913353096,0.500046196937715,0.532687864158128,0.495193913353096,0.5,0.495193913353096,0.5,0.523572883086536,0.481051063095105,0.5,0.490434023643907,0.5,0.523259590509238,0.511365439779393,0.488634560220607,0.523259590509238,0.5,0.151029436731966,0.594928784139907,0.476740409490762,0.00458251143218626,0.5,0.00961217329380815,0.35384935934102,5.64967657425361,3.00035471550304,0.5,90.5458662892358
