ID,filename,session,trial,visStimLeft,visStimRight,correctKey,leftCorrect,rightCorrect,secondStim,mod2Type,mod2Stim,frequency,rewardAccurate,stimPairLeft,stimPairRight,pCorrectLeft,pCorrectRight,key,reactionTime,choiceLeft,choiceRight,choiceAccurate,reward,chosenPair,otherPair,triplet,surprise,0A belief,1A belief,2A belief,3A belief,0B belief,1B belief,2B belief,3B belief,0C belief,1C belief,2C belief,3C belief,0D belief,1D belief,2D belief,3D belief,beliefPairNorm,beliefOtherPairNorm,beliefPair,beliefOtherPair,lik,corrLik,rewardPE,update2,fitCBCsimpleRW_CBCdriftDiffusionLR_pwBelief_startBelief,fitCBCsimpleRW_CBCdriftDiffusionLR_pwBelief_alpha1,fitCBCsimpleRW_CBCdriftDiffusionLR_pwBelief_nonDecisionTime,fitCBCsimpleRW_CBCdriftDiffusionLR_pwBelief_weight,fitCBCsimpleRW_CBCdriftDiffusionLR_pwBelief_startingBoundary,fitCBCsimpleRW_CBCdriftDiffusionLR_pwBelief_startingPoint,fit_CBCsimpleRW_CBCdriftDiffusionLR_pwBelief_NLL
CBC_1014,CBC_1014_MSI_TV_v3_Vset4_Tset3_2023-06-25_10h42.28.156.csv,1,1,1,0,b,1,0,0,tac,B,63,1,1B,0B,NaN,NaN,None,NaN,NaN,NaN,NaN,NaN,,,B10,2.77258872223978,0.5,0.5,0.5,0.5,0.5,0.5,0.5,0.5,0.5,0.5,0.5,0.5,0.5,0.5,0.5,0.5,0,0,0,0,NaN,0,0,0,0.5,0.992477806377973,1.09001492380869,0.153496745779204,2.84526813073426,0.5,85.7656364786629
CBC_1014,CBC_1014_MSI_TV_v3_Vset4_Tset3_2023-06-25_10h42.28.156.csv,1,2,1,0,z,0,1,2,tac,A,63,1,1A,0A,NaN,NaN,None,NaN,NaN,NaN,NaN,NaN,,,A10,2.83321334405622,0.5,0.5,0.5,0.5,0.5,0.5,0.5,0.5,0.5,0.5,0.5,0.5,0.5,0.5,0.5,0.5,0,0,0,0,NaN,0,0,0,0.5,0.992477806377973,1.09001492380869,0.153496745779204,2.84526813073426,0.5,85.7656364786629
CBC_1014,CBC_1014_MSI_TV_v3_Vset4_Tset3_2023-06-25_10h42.28.156.csv,1,3,3,2,b,1,0,1,tac,D,63,1,3D,2D,1,0,b,1.32539670000006,1,0,1,1,3D,2D,D32,2.89037175789616,0.5,0.5,0.5,0.5,0.5,0.5,0.5,0.5,0.5,0.5,0.5,0.5,0.5,0.5,0.5,0.5,0.5,0.5,0.5,0.5,0.0674343073777339,0.49958349606409,0.5,0.496238903188987,0.5,0.992477806377973,1.09001492380869,0.153496745779204,2.84526813073426,0.5,85.7656364786629
CBC_1014,CBC_1014_MSI_TV_v3_Vset4_Tset3_2023-06-25_10h42.28.156.csv,1,4,1,2,b,1,0,0,tac,B,9,1,1B,2B,1,0,z,2.58033430000023,0,1,0,0,2B,1B,B12,2.94443897916644,0.5,0.5,0.5,0.5,0.5,0.5,0.5,0.5,0.5,0.5,0.5,0.5,0.5,0.5,0.5,0.996238903188987,0.5,0.5,0.5,0.5,0.156339654767784,0.500705039890187,-0.5,-0.496238903188987,0.5,0.992477806377973,1.09001492380869,0.153496745779204,2.84526813073426,0.5,85.7656364786629
CBC_1014,CBC_1014_MSI_TV_v3_Vset4_Tset3_2023-06-25_10h42.28.156.csv,1,5,2,0,z,0,1,2,tac,A,27,1,2A,0A,0,1,b,2.73704310000039,1,0,0,0,2A,0A,A20,2.99573227355399,0.5,0.5,0.5,0.5,0.5,0.5,0.00376109681101328,0.5,0.5,0.5,0.5,0.5,0.5,0.5,0.5,0.996238903188987,0.5,0.5,0.5,0.5,0.142166787212189,0.500392195586079,-0.5,-0.496238903188987,0.5,0.992477806377973,1.09001492380869,0.153496745779204,2.84526813073426,0.5,85.7656364786629
CBC_1014,CBC_1014_MSI_TV_v3_Vset4_Tset3_2023-06-25_10h42.28.156.csv,1,6,3,2,z,0,1,3,tac,C,63,1,3C,2C,0,1,b,2.6618911000005,1,0,0,0,3C,2C,C32,3.04452243772342,0.5,0.5,0.00376109681101328,0.5,0.5,0.5,0.00376109681101328,0.5,0.5,0.5,0.5,0.5,0.5,0.5,0.5,0.996238903188987,0.5,0.5,0.5,0.5,0.148231081242527,0.498590191969495,-0.5,-0.496238903188987,0.5,0.992477806377973,1.09001492380869,0.153496745779204,2.84526813073426,0.5,85.7656364786629
CBC_1014,CBC_1014_MSI_TV_v3_Vset4_Tset3_2023-06-25_10h42.28.156.csv,1,7,3,1,b,1,0,1,tac,D,27,1,3D,1D,1,0,z,3.22827830000006,0,1,0,0,1D,3D,D31,3.09104245335832,0.5,0.5,0.00376109681101328,0.5,0.5,0.5,0.00376109681101328,0.5,0.5,0.5,0.5,0.00376109681101328,0.5,0.5,0.5,0.996238903188987,0.00376109681101333,0.996238903188987,0.5,0.996238903188987,0.0827291050630047,0.393088255616676,-0.5,-0.496238903188987,0.5,0.992477806377973,1.09001492380869,0.153496745779204,2.84526813073426,0.5,85.7656364786629
CBC_1014,CBC_1014_MSI_TV_v3_Vset4_Tset3_2023-06-25_10h42.28.156.csv,1,8,0,1,b,1,0,2,tac,A,63,1,0A,1A,1,0,b,2.46239510000032,1,0,1,1,0A,1A,A01,3.13549421592915,0.5,0.5,0.00376109681101328,0.5,0.5,0.5,0.00376109681101328,0.5,0.5,0.5,0.5,0.00376109681101328,0.5,0.00376109681101328,0.5,0.996238903188987,0.5,0.5,0.5,0.5,0.167884242096143,0.501197466391102,0.5,0.496238903188987,0.5,0.992477806377973,1.09001492380869,0.153496745779204,2.84526813073426,0.5,85.7656364786629
CBC_1014,CBC_1014_MSI_TV_v3_Vset4_Tset3_2023-06-25_10h42.28.156.csv,1,9,0,2,z,0,1,3,tac,C,27,1,0C,2C,0,1,z,2.77261130000034,0,1,1,1,2C,0C,C02,3.17805383034795,0.996238903188987,0.5,0.00376109681101328,0.5,0.5,0.5,0.00376109681101328,0.5,0.5,0.5,0.5,0.00376109681101328,0.5,0.00376109681101328,0.5,0.996238903188987,0.5,0.5,0.5,0.5,0.13901593589534,0.499948855516384,0.5,0.496238903188987,0.5,0.992477806377973,1.09001492380869,0.153496745779204,2.84526813073426,0.5,85.7656364786629
CBC_1014,CBC_1014_MSI_TV_v3_Vset4_Tset3_2023-06-25_10h42.28.156.csv,1,10,3,2,b,1,0,1,tac,D,63,1,3D,2D,1,0,b,2.65895420000015,1,0,1,1,3D,2D,D32,2.52572864430826,0.996238903188987,0.5,0.00376109681101328,0.5,0.5,0.5,0.00376109681101328,0.5,0.5,0.5,0.996238903188987,0.00376109681101328,0.5,0.00376109681101328,0.5,0.996238903188987,0.996238903188987,0.00376109681101333,0.996238903188987,0.5,0.181647356342248,0.606802092035794,0.00376109681101333,0.0037328051125697,0.5,0.992477806377973,1.09001492380869,0.153496745779204,2.84526813073426,0.5,85.7656364786629
CBC_1014,CBC_1014_MSI_TV_v3_Vset4_Tset3_2023-06-25_10h42.28.156.csv,1,11,0,1,z,0,1,0,tac,B,63,1,0B,1B,0,1,z,2.79256040000018,0,1,1,1,1B,0B,B01,3.25809653802148,0.996238903188987,0.5,0.00376109681101328,0.5,0.5,0.5,0.00376109681101328,0.5,0.5,0.5,0.996238903188987,0.00376109681101328,0.5,0.00376109681101328,0.5,0.999971708301556,0.5,0.5,0.5,0.5,0.137308912647498,0.499813371787009,0.5,0.496238903188987,0.5,0.992477806377973,1.09001492380869,0.153496745779204,2.84526813073426,0.5,85.7656364786629
CBC_1014,CBC_1014_MSI_TV_v3_Vset4_Tset3_2023-06-25_10h42.28.156.csv,1,12,1,0,z,0,1,2,tac,A,63,1,1A,0A,0,1,z,2.57692290000023,0,1,1,1,0A,1A,A10,2.60268968544438,0.996238903188987,0.5,0.00376109681101328,0.5,0.5,0.996238903188987,0.00376109681101328,0.5,0.5,0.5,0.996238903188987,0.00376109681101328,0.5,0.00376109681101328,0.5,0.999971708301556,0.996238903188987,0.00376109681101333,0.996238903188987,0.5,0.190860727463816,0.606360634850655,0.00376109681101333,0.0037328051125697,0.5,0.992477806377973,1.09001492380869,0.153496745779204,2.84526813073426,0.5,85.7656364786629
CBC_1014,CBC_1014_MSI_TV_v3_Vset4_Tset3_2023-06-25_10h42.28.156.csv,1,13,3,2,b,1,0,1,tac,D,63,1,3D,2D,1,0,b,2.35402250000016,1,0,1,1,3D,2D,D32,2.23359222150709,0.999971708301556,0.5,0.00376109681101328,0.5,0.5,0.996238903188987,0.00376109681101328,0.5,0.5,0.5,0.996238903188987,0.00376109681101328,0.5,0.00376109681101328,0.5,0.999971708301556,0.999971708301556,2.82916984436499e-05,0.999971708301556,0.5,0.218468719245963,0.606833364479002,2.82916984436499e-05,2.80788828100607e-05,0.5,0.992477806377973,1.09001492380869,0.153496745779204,2.84526813073426,0.5,85.7656364786629
CBC_1014,CBC_1014_MSI_TV_v3_Vset4_Tset3_2023-06-25_10h42.28.156.csv,1,14,0,2,z,0,1,3,tac,C,27,1,0C,2C,0,1,z,2.66863920000014,0,1,1,1,2C,0C,C02,2.67414864942653,0.999971708301556,0.5,0.00376109681101328,0.5,0.5,0.996238903188987,0.00376109681101328,0.5,0.5,0.5,0.996238903188987,0.00376109681101328,0.5,0.00376109681101328,0.5,0.999999787184366,0.996238903188987,0.00376109681101333,0.996238903188987,0.5,0.180940913461969,0.607982453005272,0.00376109681101333,0.0037328051125697,0.5,0.992477806377973,1.09001492380869,0.153496745779204,2.84526813073426,0.5,85.7656364786629
CBC_1014,CBC_1014_MSI_TV_v3_Vset4_Tset3_2023-06-25_10h42.28.156.csv,1,15,1,0,z,0,1,2,tac,A,63,1,1A,0A,0,1,z,2.91875919999984,0,1,1,1,0A,1A,A10,2.30258509299405,0.999971708301556,0.5,0.00376109681101328,0.5,0.5,0.996238903188987,0.00376109681101328,0.5,0.5,0.5,0.999971708301556,0.00376109681101328,0.5,0.00376109681101328,0.5,0.999999787184366,0.999971708301556,2.82916984436499e-05,0.999971708301556,0.5,0.155137384540097,0.608351926443916,2.82916984436499e-05,2.80788828100607e-05,0.5,0.992477806377973,1.09001492380869,0.153496745779204,2.84526813073426,0.5,85.7656364786629
CBC_1014,CBC_1014_MSI_TV_v3_Vset4_Tset3_2023-06-25_10h42.28.156.csv,1,16,3,1,z,0,1,0,tac,B,27,1,3B,1B,0,1,z,3.03856950000045,0,1,1,1,1B,3B,B31,3.43398720448515,0.999999787184366,0.5,0.00376109681101328,0.5,0.5,0.996238903188987,0.00376109681101328,0.5,0.5,0.5,0.999971708301556,0.00376109681101328,0.5,0.00376109681101328,0.5,0.999999787184366,0.996238903188987,0.00376109681101333,0.996238903188987,0.5,0.143915598229122,0.607871914013732,0.00376109681101333,0.0037328051125697,0.5,0.992477806377973,1.09001492380869,0.153496745779204,2.84526813073426,0.5,85.7656364786629
CBC_1014,CBC_1014_MSI_TV_v3_Vset4_Tset3_2023-06-25_10h42.28.156.csv,1,17,2,3,b,1,0,3,tac,C,63,1,2C,3C,1,0,z,2.75766909999993,0,1,0,0,3C,2C,C23,3.46573590279973,0.999999787184366,0.5,0.00376109681101328,0.5,0.5,0.999971708301556,0.00376109681101328,0.5,0.5,0.5,0.999971708301556,0.00376109681101328,0.5,0.00376109681101328,0.5,0.999999787184366,1.06812548250623e-07,0.999999893187452,0.00376109681101328,0.999971708301556,0.110705232073159,0.392983085019906,-0.00376109681101328,-0.00373280511256965,0.5,0.992477806377973,1.09001492380869,0.153496745779204,2.84526813073426,0.5,85.7656364786629
CBC_1014,CBC_1014_MSI_TV_v3_Vset4_Tset3_2023-06-25_10h42.28.156.csv,1,18,3,2,b,1,0,1,tac,D,63,0,3D,2D,0,1,z,2.64483120000023,0,1,0,1,2D,3D,D32,2.11021320034659,0.999999787184366,0.5,0.00376109681101328,0.5,0.5,0.999971708301556,0.00376109681101328,0.5,0.5,0.5,0.999971708301556,2.82916984436286e-05,0.5,0.00376109681101328,0.5,0.999999787184366,2.12815633560126e-07,0.999999787184366,0.5,0.999999787184366,0.118706561830455,0.393118446022949,0.5,0.496238903188987,0.5,0.992477806377973,1.09001492380869,0.153496745779204,2.84526813073426,0.5,85.7656364786629
CBC_1014,CBC_1014_MSI_TV_v3_Vset4_Tset3_2023-06-25_10h42.28.156.csv,1,19,0,1,z,0,1,0,tac,B,63,1,0B,1B,0,1,b,3.00174190000007,1,0,0,0,0B,1B,B01,2.83321334405622,0.999999787184366,0.5,0.00376109681101328,0.5,0.5,0.999971708301556,0.00376109681101328,0.5,0.5,0.5,0.999971708301556,2.82916984436286e-05,0.5,0.00376109681101328,0.996238903188987,0.999999787184366,2.82916984436499e-05,0.999971708301556,0.5,0.999971708301556,0.0951761064276522,0.392932868907383,-0.5,-0.496238903188987,0.5,0.992477806377973,1.09001492380869,0.153496745779204,2.84526813073426,0.5,85.7656364786629
CBC_1014,CBC_1014_MSI_TV_v3_Vset4_Tset3_2023-06-25_10h42.28.156.csv,1,20,0,2,b,1,0,2,tac,A,27,1,0A,2A,1,0,z,2.65592520000018,0,1,0,0,2A,0A,A02,3.55534806148941,0.999999787184366,0.5,0.00376109681101328,0.5,0.00376109681101328,0.999971708301556,0.00376109681101328,0.5,0.5,0.5,0.999971708301556,2.82916984436286e-05,0.5,0.00376109681101328,0.996238903188987,0.999999787184366,8.03442201657845e-10,0.999999999196558,0.00376109681101328,0.999999787184366,0.117573902397689,0.391985703950386,-0.00376109681101328,-0.00373280511256965,0.5,0.992477806377973,1.09001492380869,0.153496745779204,2.84526813073426,0.5,85.7656364786629
CBC_1014,CBC_1014_MSI_TV_v3_Vset4_Tset3_2023-06-25_10h42.28.156.csv,1,21,3,0,b,1,0,1,tac,D,9,1,3D,0D,1,0,b,2.89501040000005,1,0,1,1,3D,0D,D30,3.58351893845611,0.999999787184366,0.5,2.82916984436286e-05,0.5,0.00376109681101328,0.999971708301556,0.00376109681101328,0.5,0.5,0.5,0.999971708301556,2.82916984436286e-05,0.5,0.00376109681101328,0.996238903188987,0.999999787184366,0.999999787184366,2.12815633560126e-07,0.999999787184366,0.5,0.15713961693313,0.607233270506628,2.12815633560126e-07,2.11214793158693e-07,0.5,0.992477806377973,1.09001492380869,0.153496745779204,2.84526813073426,0.5,85.7656364786629
CBC_1014,CBC_1014_MSI_TV_v3_Vset4_Tset3_2023-06-25_10h42.28.156.csv,1,22,3,2,z,0,1,3,tac,C,63,1,3C,2C,0,1,z,2.60577240000021,0,1,1,1,2C,3C,C32,2.91777073208428,0.999999787184366,0.5,2.82916984436286e-05,0.5,0.00376109681101328,0.999971708301556,0.00376109681101328,0.5,0.5,0.5,0.999971708301556,2.82916984436286e-05,0.5,0.00376109681101328,0.996238903188987,0.99999999839916,0.999999999199535,8.00465492601064e-10,0.999971708301556,2.82916984436286e-05,0.187901662497412,0.607507853273327,2.82916984436499e-05,2.80788828100607e-05,0.5,0.992477806377973,1.09001492380869,0.153496745779204,2.84526813073426,0.5,85.7656364786629
CBC_1014,CBC_1014_MSI_TV_v3_Vset4_Tset3_2023-06-25_10h42.28.156.csv,1,23,1,3,b,1,0,0,tac,B,27,1,1B,3B,1,0,b,2.76605449999988,1,0,1,1,1B,3B,B13,3.63758615972639,0.999999787184366,0.5,2.82916984436286e-05,0.5,0.00376109681101328,0.999971708301556,0.00376109681101328,0.5,0.5,0.5,0.999999787184366,2.82916984436286e-05,0.5,0.00376109681101328,0.996238903188987,0.99999999839916,0.999971708301556,2.82916984436499e-05,0.999971708301556,0.5,0.170373087639523,0.607892194096949,2.82916984436499e-05,2.80788828100607e-05,0.5,0.992477806377973,1.09001492380869,0.153496745779204,2.84526813073426,0.5,85.7656364786629
CBC_1014,CBC_1014_MSI_TV_v3_Vset4_Tset3_2023-06-25_10h42.28.156.csv,1,24,2,3,b,1,0,3,tac,C,63,1,2C,3C,1,0,z,2.85987220000015,0,1,0,0,3C,2C,C23,2.9704144655697,0.999999787184366,0.5,2.82916984436286e-05,0.5,0.00376109681101328,0.999999787184366,0.00376109681101328,0.5,0.5,0.5,0.999999787184366,2.82916984436286e-05,0.5,0.00376109681101328,0.996238903188987,0.99999999839916,6.02118355175207e-12,0.999999999993979,2.82916984436286e-05,0.999999787184366,0.103740235665064,0.3922484750042,-2.82916984436286e-05,-2.80788828100397e-05,0.5,0.992477806377973,1.09001492380869,0.153496745779204,2.84526813073426,0.5,85.7656364786629
CBC_1014,CBC_1014_MSI_TV_v3_Vset4_Tset3_2023-06-25_10h42.28.156.csv,1,25,3,2,b,1,0,1,tac,D,63,1,3D,2D,1,0,b,3.67556860000013,1,0,1,1,3D,2D,D32,2.07944154167984,0.999999787184366,0.5,2.82916984436286e-05,0.5,0.00376109681101328,0.999999787184366,0.00376109681101328,0.5,0.5,0.5,0.999999787184366,2.12815633588963e-07,0.5,0.00376109681101328,0.996238903188987,0.99999999839916,0.999999575969766,4.24030233703299e-07,0.99999999839916,0.996238903188987,0.0965656898519896,0.605652985805658,1.60084034916963e-09,1.58879851810522e-09,0.5,0.992477806377973,1.09001492380869,0.153496745779204,2.84526813073426,0.5,85.7656364786629
CBC_1014,CBC_1014_MSI_TV_v3_Vset4_Tset3_2023-06-25_10h42.28.156.csv,1,26,0,1,z,0,1,0,tac,B,63,1,0B,1B,0,1,z,1.99848299999985,0,1,1,1,1B,0B,B01,2.6149597780362,0.999999787184366,0.5,2.82916984436286e-05,0.5,0.00376109681101328,0.999999787184366,0.00376109681101328,0.5,0.5,0.5,0.999999787184366,2.12815633588963e-07,0.5,0.00376109681101328,0.996238903188987,0.999999999987958,0.999999999196558,8.03442194290416e-10,0.999999787184366,0.00376109681101328,0.264369355949076,0.606776394407696,2.12815633560126e-07,2.11214793158693e-07,0.5,0.992477806377973,1.09001492380869,0.153496745779204,2.84526813073426,0.5,85.7656364786629
CBC_1014,CBC_1014_MSI_TV_v3_Vset4_Tset3_2023-06-25_10h42.28.156.csv,1,27,3,0,z,0,1,2,tac,A,9,1,3A,0A,0,1,z,2.87447150000025,0,1,1,1,0A,3A,A30,3.73766961828337,0.999999787184366,0.5,2.82916984436286e-05,0.5,0.00376109681101328,0.99999999839916,0.00376109681101328,0.5,0.5,0.5,0.999999787184366,2.12815633588963e-07,0.5,0.00376109681101328,0.996238903188987,0.999999999987958,0.999999787184366,2.12815633560126e-07,0.999999787184366,0.5,0.159381753427979,0.6080925023625,2.12815633560126e-07,2.11214793158693e-07,0.5,0.992477806377973,1.09001492380869,0.153496745779204,2.84526813073426,0.5,85.7656364786629
CBC_1014,CBC_1014_MSI_TV_v3_Vset4_Tset3_2023-06-25_10h42.28.156.csv,1,28,3,2,b,1,0,1,tac,D,63,1,3D,2D,1,0,b,2.87275610000006,1,0,1,1,3D,2D,D32,1.96944064646551,0.99999999839916,0.5,2.82916984436286e-05,0.5,0.00376109681101328,0.99999999839916,0.00376109681101328,0.5,0.5,0.5,0.999999787184366,2.12815633588963e-07,0.5,0.00376109681101328,0.996238903188987,0.999999999987958,0.999999996810366,3.18963377932135e-09,0.999999999987958,0.996238903188987,0.15938599660722,0.607480934206806,1.20418119919918e-11,1.1951231150628e-11,0.5,0.992477806377973,1.09001492380869,0.153496745779204,2.84526813073426,0.5,85.7656364786629
CBC_1014,CBC_1014_MSI_TV_v3_Vset4_Tset3_2023-06-25_10h42.28.156.csv,1,29,0,2,z,0,1,3,tac,C,27,1,0C,2C,0,1,z,2.62369580000041,0,1,1,1,2C,0C,C02,2.68557734525015,0.99999999839916,0.5,2.82916984436286e-05,0.5,0.00376109681101328,0.99999999839916,0.00376109681101328,0.5,0.5,0.5,0.999999787184366,2.12815633588963e-07,0.5,0.00376109681101328,0.996238903188987,0.999999999999909,0.999999787184366,2.12815633560126e-07,0.999999787184366,0.5,0.185532869127409,0.606534016467681,2.12815633560126e-07,2.11214793158693e-07,0.5,0.992477806377973,1.09001492380869,0.153496745779204,2.84526813073426,0.5,85.7656364786629
CBC_1014,CBC_1014_MSI_TV_v3_Vset4_Tset3_2023-06-25_10h42.28.156.csv,1,30,0,1,b,1,0,2,tac,A,63,1,0A,1A,1,0,z,3.50192930000003,0,1,0,0,1A,0A,A01,3.11351530921037,0.99999999839916,0.5,2.82916984436286e-05,0.5,0.00376109681101328,0.99999999839916,0.00376109681101328,0.5,0.5,0.5,0.99999999839916,2.12815633588963e-07,0.5,0.00376109681101328,0.996238903188987,0.999999999999909,1.60084034916963e-09,0.99999999839916,0.5,0.99999999839916,0.0696594792624725,0.392323366098433,-0.5,-0.496238903188987,0.5,0.992477806377973,1.09001492380869,0.153496745779204,2.84526813073426,0.5,85.7656364786629
CBC_1014,CBC_1014_MSI_TV_v3_Vset4_Tset3_2023-06-25_10h42.28.156.csv,1,31,0,1,z,0,1,0,tac,B,63,1,0B,1B,0,1,b,2.99973150000005,1,0,0,0,0B,1B,B01,2.4423470353692,0.99999999839916,0.00376109681101328,2.82916984436286e-05,0.5,0.00376109681101328,0.99999999839916,0.00376109681101328,0.5,0.5,0.5,0.99999999839916,2.12815633588963e-07,0.5,0.00376109681101328,0.996238903188987,0.999999999999909,6.04364628055811e-12,0.999999999993956,0.00376109681101328,0.99999999839916,0.0951685923709622,0.392408623431155,-0.00376109681101328,-0.00373280511256965,0.5,0.992477806377973,1.09001492380869,0.153496745779204,2.84526813073426,0.5,85.7656364786629
CBC_1014,CBC_1014_MSI_TV_v3_Vset4_Tset3_2023-06-25_10h42.28.156.csv,1,32,1,3,z,0,1,1,tac,D,27,1,1D,3D,0,1,z,2.85292870000012,0,1,1,1,3D,1D,D13,3.85014760171006,0.99999999839916,0.00376109681101328,2.82916984436286e-05,0.5,2.82916984436286e-05,0.99999999839916,0.00376109681101328,0.5,0.5,0.5,0.99999999839916,2.12815633588963e-07,0.5,0.00376109681101328,0.996238903188987,0.999999999999909,1,3.42019922277396e-16,0.999999999999909,0.00376109681101328,0.161418871216175,0.607719533951114,9.05941988094128e-14,8.9912731704936e-14,0.5,0.992477806377973,1.09001492380869,0.153496745779204,2.84526813073426,0.5,85.7656364786629
CBC_1014,CBC_1014_MSI_TV_v3_Vset4_Tset3_2023-06-25_10h42.28.156.csv,1,33,2,3,b,1,0,3,tac,C,63,1,2C,3C,1,0,b,2.73068590000048,1,0,1,1,2C,3C,C23,2.77258872223978,0.99999999839916,0.00376109681101328,2.82916984436286e-05,0.5,2.82916984436286e-05,0.99999999839916,0.00376109681101328,0.5,0.5,0.5,0.99999999839916,2.12815633588963e-07,0.5,0.00376109681101328,0.996238903188987,0.999999999999999,1,3.33066907387547e-16,0.99999999839916,2.12815633588963e-07,0.173882156573886,0.607061818034629,1.60084034916963e-09,1.58879851810522e-09,0.5,0.992477806377973,1.09001492380869,0.153496745779204,2.84526813073426,0.5,85.7656364786629
CBC_1014,CBC_1014_MSI_TV_v3_Vset4_Tset3_2023-06-25_10h42.28.156.csv,1,34,0,1,z,0,1,0,tac,B,63,1,0B,1B,0,1,z,3.68176300000005,0,1,1,1,1B,0B,B01,2.28238238567653,0.99999999839916,0.00376109681101328,2.82916984436286e-05,0.5,2.82916984436286e-05,0.99999999839916,0.00376109681101328,0.5,0.5,0.5,0.999999999987958,2.12815633588963e-07,0.5,0.00376109681101328,0.996238903188987,0.999999999999999,0.999999999999955,4.52917738688094e-14,0.99999999839916,2.82916984436286e-05,0.0964381978221717,0.607319853084507,1.60084034916963e-09,1.58879851810522e-09,0.5,0.992477806377973,1.09001492380869,0.153496745779204,2.84526813073426,0.5,85.7656364786629
CBC_1014,CBC_1014_MSI_TV_v3_Vset4_Tset3_2023-06-25_10h42.28.156.csv,1,35,1,0,z,0,1,2,tac,A,63,1,1A,0A,0,1,b,2.83317850000003,1,0,0,0,1A,0A,A10,2.52572864430826,0.99999999839916,0.00376109681101328,2.82916984436286e-05,0.5,2.82916984436286e-05,0.999999999987958,0.00376109681101328,0.5,0.5,0.5,0.999999999987958,2.12815633588963e-07,0.5,0.00376109681101328,0.996238903188987,0.999999999999999,6.04364628055811e-12,0.999999999993956,0.00376109681101328,0.99999999839916,0.105569714357664,0.39263704864837,-0.00376109681101328,-0.00373280511256965,0.5,0.992477806377973,1.09001492380869,0.153496745779204,2.84526813073426,0.5,85.7656364786629
CBC_1014,CBC_1014_MSI_TV_v3_Vset4_Tset3_2023-06-25_10h42.28.156.csv,1,36,2,1,b,1,0,3,tac,C,9,1,2C,1C,1,0,z,3.02963980000004,0,1,0,0,1C,2C,C21,3.93182563272433,0.99999999839916,2.82916984436286e-05,2.82916984436286e-05,0.5,2.82916984436286e-05,0.999999999987958,0.00376109681101328,0.5,0.5,0.5,0.999999999987958,2.12815633588963e-07,0.5,0.00376109681101328,0.996238903188987,0.999999999999999,1.20418119919918e-11,0.999999999987958,0.5,0.999999999987958,0.093533526225013,0.392888914861453,-0.5,-0.496238903188987,0.5,0.992477806377973,1.09001492380869,0.153496745779204,2.84526813073426,0.5,85.7656364786629
CBC_1014,CBC_1014_MSI_TV_v3_Vset4_Tset3_2023-06-25_10h42.28.156.csv,1,37,0,1,b,1,0,2,tac,A,63,1,0A,1A,1,0,b,3.44183470000053,1,0,1,1,0A,1A,A01,2.85263142991332,0.99999999839916,2.82916984436286e-05,2.82916984436286e-05,0.5,2.82916984436286e-05,0.999999999987958,0.00376109681101328,0.5,0.5,0.00376109681101328,0.999999999987958,2.12815633588963e-07,0.5,0.00376109681101328,0.996238903188987,0.999999999999999,0.999999999999955,4.52970994047064e-14,0.99999999839916,2.82916984436286e-05,0.11191169724384,0.607165712798569,1.60084034916963e-09,1.58879851810522e-09,0.5,0.992477806377973,1.09001492380869,0.153496745779204,2.84526813073426,0.5,85.7656364786629
CBC_1014,CBC_1014_MSI_TV_v3_Vset4_Tset3_2023-06-25_10h42.28.156.csv,1,38,1,3,z,0,1,1,tac,D,27,1,1D,3D,0,1,z,2.57036100000005,0,1,1,1,3D,1D,D13,3.27714473299218,0.999999999987958,2.82916984436286e-05,2.82916984436286e-05,0.5,2.82916984436286e-05,0.999999999987958,0.00376109681101328,0.5,0.5,0.00376109681101328,0.999999999987958,2.12815633588963e-07,0.5,0.00376109681101328,0.996238903188987,0.999999999999999,1,2.51485236968651e-18,0.999999999999999,0.00376109681101328,0.191908525515803,0.607193599375525,6.66133814775094e-16,6.61123027242177e-16,0.5,0.992477806377973,1.09001492380869,0.153496745779204,2.84526813073426,0.5,85.7656364786629
CBC_1014,CBC_1014_MSI_TV_v3_Vset4_Tset3_2023-06-25_10h42.28.156.csv,1,39,1,0,b,1,0,0,tac,B,63,1,1B,0B,1,0,z,2.34583010000006,0,1,0,0,0B,1B,B10,3.29583686600433,0.999999999987958,2.82916984436286e-05,2.82916984436286e-05,0.5,2.82916984436286e-05,0.999999999987958,0.00376109681101328,0.5,0.5,0.00376109681101328,0.999999999987958,2.12815633588963e-07,0.5,0.00376109681101328,0.996238903188987,1,3.33066907387547e-16,1,2.82916984436286e-05,0.999999999987958,0.141743223956455,0.391724090650575,-2.82916984436286e-05,-2.80788828100397e-05,0.5,0.992477806377973,1.09001492380869,0.153496745779204,2.84526813073426,0.5,85.7656364786629
CBC_1014,CBC_1014_MSI_TV_v3_Vset4_Tset3_2023-06-25_10h42.28.156.csv,1,40,3,2,z,0,1,3,tac,C,63,0,3C,2C,1,0,z,2.58538159999989,0,1,1,0,2C,3C,C32,2.90872089656436,0.999999999987958,2.82916984436286e-05,2.82916984436286e-05,0.5,2.12815633588963e-07,0.999999999987958,0.00376109681101328,0.5,0.5,0.00376109681101328,0.999999999987958,2.12815633588963e-07,0.5,0.00376109681101328,0.996238903188987,1,1,2.5626863940455e-18,0.999999999987958,2.12815633588963e-07,0.190462655131967,0.608111444548999,-0.999999999987958,-0.992477806366022,0.5,0.992477806377973,1.09001492380869,0.153496745779204,2.84526813073426,0.5,85.7656364786629
CBC_1014,CBC_1014_MSI_TV_v3_Vset4_Tset3_2023-06-25_10h42.28.156.csv,1,41,0,2,b,1,0,2,tac,A,27,1,0A,2A,1,0,b,2.84234259999994,1,0,1,1,0A,2A,A02,3.3322045101752,0.999999999987958,2.82916984436286e-05,2.82916984436286e-05,0.5,2.12815633588963e-07,0.999999999987958,0.00376109681101328,0.5,0.5,0.00376109681101328,0.00752219362193596,2.12815633588963e-07,0.5,0.00376109681101328,0.996238903188987,1,1,3.33066907387547e-16,0.999999999987958,2.82916984436286e-05,0.162515958289576,0.60785170181245,1.20418119919918e-11,1.1951231150628e-11,0.5,0.992477806377973,1.09001492380869,0.153496745779204,2.84526813073426,0.5,85.7656364786629
CBC_1014,CBC_1014_MSI_TV_v3_Vset4_Tset3_2023-06-25_10h42.28.156.csv,1,42,2,3,z,0,1,1,tac,D,63,1,2D,3D,0,1,b,2.91898179999998,1,0,0,0,2D,3D,D23,4.04305126783455,0.999999999999909,2.82916984436286e-05,2.82916984436286e-05,0.5,2.12815633588963e-07,0.999999999987958,0.00376109681101328,0.5,0.5,0.00376109681101328,0.00752219362193596,2.12815633588963e-07,0.5,0.00376109681101328,0.996238903188987,1,0,1,0.996238903188987,1,0.100108416208076,0.39263113050527,-0.996238903188987,-0.988745001265404,0.5,0.992477806377973,1.09001492380869,0.153496745779204,2.84526813073426,0.5,85.7656364786629
CBC_1014,CBC_1014_MSI_TV_v3_Vset4_Tset3_2023-06-25_10h42.28.156.csv,1,43,1,3,b,1,0,0,tac,B,27,1,1B,3B,1,0,z,4.08647700000029,0,1,0,0,3B,1B,B13,3.36729582998647,0.999999999999909,2.82916984436286e-05,2.82916984436286e-05,0.5,2.12815633588963e-07,0.999999999987958,0.00376109681101328,0.5,0.5,0.00376109681101328,0.00752219362193596,2.12815633588963e-07,0.5,0.00376109681101328,0.0074939019235829,1,1.20418119919918e-11,0.999999999987958,0.5,0.999999999987958,0.0484892553708911,0.392660685263204,-0.5,-0.496238903188987,0.5,0.992477806377973,1.09001492380869,0.153496745779204,2.84526813073426,0.5,85.7656364786629
CBC_1014,CBC_1014_MSI_TV_v3_Vset4_Tset3_2023-06-25_10h42.28.156.csv,1,44,3,2,z,0,1,3,tac,C,63,1,3C,2C,0,1,b,4.35108949999994,1,0,0,0,3C,2C,C32,2.69124308278583,0.999999999999909,2.82916984436286e-05,2.82916984436286e-05,0.5,2.12815633588963e-07,0.999999999987958,0.00376109681101328,0.00376109681101328,0.5,0.00376109681101328,0.00752219362193596,2.12815633588963e-07,0.5,0.00376109681101328,0.0074939019235829,1,2.8078100384149e-05,0.999971921899616,2.12815633588963e-07,0.00752219362193596,0.0412283012663971,0.393434736008607,-2.12815633588963e-07,-2.11214793187312e-07,0.5,0.992477806377973,1.09001492380869,0.153496745779204,2.84526813073426,0.5,85.7656364786629
CBC_1014,CBC_1014_MSI_TV_v3_Vset3_Tset1_2023-06-25_12h29.13.889.csv,2,1,0,1,b,1,0,2,tac,A,63,1,0A,1A,1,0,z,2.34106189999875,0,1,0,0,1A,0A,A01,2.77258872223978,0.5,0.5,0.5,0.5,0.5,0.5,0.5,0.5,0.5,0.5,0.5,0.5,0.5,0.5,0.5,0.5,0.5,0.5,0.5,0.5,0.182675515611075,0.500856143892531,-0.5,-0.00730170812267861,0.5,0.0146034162453572,1.09982718025784,0.0253185376731849,2.80086590838264,0.5,80.997337309866
CBC_1014,CBC_1014_MSI_TV_v3_Vset3_Tset1_2023-06-25_12h29.13.889.csv,2,2,3,2,z,0,1,3,tac,C,63,1,3C,2C,0,1,b,3.1392212999981,1,0,0,0,3C,2C,C32,2.83321334405622,0.5,0.492698291877321,0.5,0.5,0.5,0.5,0.5,0.5,0.5,0.5,0.5,0.5,0.5,0.5,0.5,0.5,0.5,0.5,0.5,0.5,0.11078051846523,0.498955353133704,-0.5,-0.00730170812267861,0.5,0.0146034162453572,1.09982718025784,0.0253185376731849,2.80086590838264,0.5,80.997337309866
CBC_1014,CBC_1014_MSI_TV_v3_Vset3_Tset1_2023-06-25_12h29.13.889.csv,2,3,0,2,b,1,0,2,tac,A,27,1,0A,2A,1,0,z,2.37169449999783,0,1,0,0,2A,0A,A02,2.89037175789616,0.5,0.492698291877321,0.5,0.5,0.5,0.5,0.5,0.5,0.5,0.5,0.5,0.492698291877321,0.5,0.5,0.5,0.5,0.5,0.5,0.5,0.5,0.178970047213939,0.499826503141923,-0.5,-0.00730170812267861,0.5,0.0146034162453572,1.09982718025784,0.0253185376731849,2.80086590838264,0.5,80.997337309866
CBC_1014,CBC_1014_MSI_TV_v3_Vset3_Tset1_2023-06-25_12h29.13.889.csv,2,4,1,0,b,1,0,0,tac,B,63,1,1B,0B,1,0,b,2.74888729999839,1,0,1,1,1B,0B,B10,2.94443897916644,0.5,0.492698291877321,0.492698291877321,0.5,0.5,0.5,0.5,0.5,0.5,0.5,0.5,0.492698291877321,0.5,0.5,0.5,0.5,0.5,0.5,0.5,0.5,0.141921660143793,0.50036772255503,0.5,0.00730170812267861,0.5,0.0146034162453572,1.09982718025784,0.0253185376731849,2.80086590838264,0.5,80.997337309866
CBC_1014,CBC_1014_MSI_TV_v3_Vset3_Tset1_2023-06-25_12h29.13.889.csv,2,5,0,1,z,0,1,0,tac,B,63,1,0B,1B,0,1,z,2.63891459999832,0,1,1,1,1B,0B,B01,2.99573227355399,0.5,0.492698291877321,0.492698291877321,0.5,0.5,0.507301708122679,0.5,0.5,0.5,0.5,0.5,0.492698291877321,0.5,0.5,0.5,0.5,0.507301708122679,0.492698291877321,0.507301708122679,0.5,0.152048058688086,0.500515562045204,0.492698291877321,0.00719507823966103,0.5,0.0146034162453572,1.09982718025784,0.0253185376731849,2.80086590838264,0.5,80.997337309866
CBC_1014,CBC_1014_MSI_TV_v3_Vset3_Tset1_2023-06-25_12h29.13.889.csv,2,6,3,2,z,0,1,3,tac,C,63,1,3C,2C,0,1,b,2.38882509999894,1,0,0,0,3C,2C,C32,2.35137525716348,0.5,0.492698291877321,0.492698291877321,0.5,0.5,0.51449678636234,0.5,0.5,0.5,0.5,0.5,0.492698291877321,0.5,0.5,0.5,0.5,0.492698291877321,0.507301708122679,0.492698291877321,0.5,0.17695972024801,0.499359863119105,-0.492698291877321,-0.00719507823966103,0.5,0.0146034162453572,1.09982718025784,0.0253185376731849,2.80086590838264,0.5,80.997337309866
CBC_1014,CBC_1014_MSI_TV_v3_Vset3_Tset1_2023-06-25_12h29.13.889.csv,2,7,3,1,b,1,0,1,tac,D,27,1,3D,1D,1,0,z,2.54039669999838,0,1,0,0,1D,3D,D31,3.09104245335832,0.5,0.492698291877321,0.492698291877321,0.5,0.5,0.51449678636234,0.5,0.5,0.5,0.5,0.5,0.48550321363766,0.5,0.5,0.5,0.5,0.5,0.5,0.5,0.5,0.161448490259794,0.499941097962138,-0.5,-0.00730170812267861,0.5,0.0146034162453572,1.09982718025784,0.0253185376731849,2.80086590838264,0.5,80.997337309866
CBC_1014,CBC_1014_MSI_TV_v3_Vset3_Tset1_2023-06-25_12h29.13.889.csv,2,8,1,2,z,0,1,3,tac,C,9,1,1C,2C,0,1,z,2.54759269999886,0,1,1,1,2C,1C,C12,3.13549421592915,0.5,0.492698291877321,0.492698291877321,0.5,0.5,0.51449678636234,0.5,0.5,0.5,0.5,0.5,0.48550321363766,0.5,0.492698291877321,0.5,0.5,0.5,0.5,0.5,0.5,0.16081297412413,0.500194407171072,0.5,0.00730170812267861,0.5,0.0146034162453572,1.09982718025784,0.0253185376731849,2.80086590838264,0.5,80.997337309866
CBC_1014,CBC_1014_MSI_TV_v3_Vset3_Tset1_2023-06-25_12h29.13.889.csv,2,9,3,1,z,0,1,0,tac,B,27,1,3B,1B,0,1,z,2.71359299999858,0,1,1,1,1B,3B,B31,3.17805383034795,0.5,0.492698291877321,0.492698291877321,0.5,0.5,0.51449678636234,0.5,0.5,0.5,0.5,0.507301708122679,0.48550321363766,0.5,0.492698291877321,0.5,0.5,0.51449678636234,0.48550321363766,0.51449678636234,0.5,0.14514490878933,0.500568241237585,0.48550321363766,0.00709000551720934,0.5,0.0146034162453572,1.09982718025784,0.0253185376731849,2.80086590838264,0.5,80.997337309866
CBC_1014,CBC_1014_MSI_TV_v3_Vset3_Tset1_2023-06-25_12h29.13.889.csv,2,10,3,2,b,1,0,1,tac,D,63,1,3D,2D,1,0,b,2.47679779999817,1,0,1,1,3D,2D,D32,3.2188758248682,0.5,0.492698291877321,0.492698291877321,0.5,0.5,0.521586791879549,0.5,0.5,0.5,0.5,0.507301708122679,0.48550321363766,0.5,0.492698291877321,0.5,0.5,0.5,0.5,0.5,0.5,0.16808993994835,0.50049738341532,0.5,0.00730170812267861,0.5,0.0146034162453572,1.09982718025784,0.0253185376731849,2.80086590838264,0.5,80.997337309866
CBC_1014,CBC_1014_MSI_TV_v3_Vset3_Tset1_2023-06-25_12h29.13.889.csv,2,11,1,0,b,1,0,0,tac,B,63,1,1B,0B,1,0,b,2.51902539999901,1,0,1,1,1B,0B,B10,2.56494935746154,0.5,0.492698291877321,0.492698291877321,0.5,0.5,0.521586791879549,0.5,0.5,0.5,0.5,0.507301708122679,0.48550321363766,0.5,0.492698291877321,0.5,0.507301708122679,0.521586791879549,0.478413208120451,0.521586791879549,0.5,0.163811931566858,0.50060727343176,0.478413208120451,0.00698646721545966,0.5,0.0146034162453572,1.09982718025784,0.0253185376731849,2.80086590838264,0.5,80.997337309866
CBC_1014,CBC_1014_MSI_TV_v3_Vset3_Tset1_2023-06-25_12h29.13.889.csv,2,12,0,2,z,0,1,3,tac,C,27,1,0C,2C,0,1,b,2.7021156999981,1,0,0,0,0C,2C,C02,3.29583686600433,0.5,0.492698291877321,0.492698291877321,0.5,0.5,0.528573259095009,0.5,0.5,0.5,0.5,0.507301708122679,0.48550321363766,0.5,0.492698291877321,0.5,0.507301708122679,0.492698291877321,0.507301708122679,0.5,0.507301708122679,0.145740240460325,0.4990320000101,-0.5,-0.00730170812267861,0.5,0.0146034162453572,1.09982718025784,0.0253185376731849,2.80086590838264,0.5,80.997337309866
CBC_1014,CBC_1014_MSI_TV_v3_Vset3_Tset1_2023-06-25_12h29.13.889.csv,2,13,3,2,b,1,0,1,tac,D,63,0,3D,2D,0,1,z,3.36673079999855,0,1,0,1,2D,3D,D32,2.63905732961526,0.5,0.492698291877321,0.492698291877321,0.5,0.5,0.528573259095009,0.5,0.5,0.492698291877321,0.5,0.507301708122679,0.48550321363766,0.5,0.492698291877321,0.5,0.507301708122679,0.492698291877321,0.507301708122679,0.5,0.507301708122679,0.0959469699014935,0.498600564431598,0.5,0.00730170812267861,0.5,0.0146034162453572,1.09982718025784,0.0253185376731849,2.80086590838264,0.5,80.997337309866
CBC_1014,CBC_1014_MSI_TV_v3_Vset3_Tset1_2023-06-25_12h29.13.889.csv,2,14,1,0,z,0,1,2,tac,A,63,1,1A,0A,0,1,b,2.82574779999959,1,0,0,0,1A,0A,A10,3.36729582998647,0.5,0.492698291877321,0.492698291877321,0.5,0.5,0.528573259095009,0.5,0.5,0.492698291877321,0.5,0.507301708122679,0.48550321363766,0.5,0.492698291877321,0.507301708122679,0.507301708122679,0.492698291877321,0.507301708122679,0.492698291877321,0.5,0.135507179611185,0.501298538621837,-0.492698291877321,-0.00719507823966103,0.5,0.0146034162453572,1.09982718025784,0.0253185376731849,2.80086590838264,0.5,80.997337309866
CBC_1014,CBC_1014_MSI_TV_v3_Vset3_Tset1_2023-06-25_12h29.13.889.csv,2,15,2,3,b,1,0,3,tac,C,63,1,2C,3C,1,0,b,2.69261669999833,1,0,1,1,2C,3C,C23,3.40119738166216,0.5,0.48550321363766,0.492698291877321,0.5,0.5,0.528573259095009,0.5,0.5,0.492698291877321,0.5,0.507301708122679,0.48550321363766,0.5,0.492698291877321,0.507301708122679,0.507301708122679,0.521789268795068,0.478210731204932,0.507301708122679,0.48550321363766,0.147344754013904,0.501543260176784,0.492698291877321,0.00719507823966103,0.5,0.0146034162453572,1.09982718025784,0.0253185376731849,2.80086590838264,0.5,80.997337309866
CBC_1014,CBC_1014_MSI_TV_v3_Vset3_Tset1_2023-06-25_12h29.13.889.csv,2,16,0,2,b,1,0,2,tac,A,27,1,0A,2A,1,0,z,2.29849899999863,0,1,0,0,2A,0A,A02,2.7408400239252,0.5,0.48550321363766,0.492698291877321,0.5,0.5,0.528573259095009,0.5,0.5,0.492698291877321,0.5,0.51449678636234,0.48550321363766,0.5,0.492698291877321,0.507301708122679,0.507301708122679,0.492698291877321,0.507301708122679,0.492698291877321,0.5,0.187015134029984,0.499906344937008,-0.492698291877321,-0.00719507823966103,0.5,0.0146034162453572,1.09982718025784,0.0253185376731849,2.80086590838264,0.5,80.997337309866
CBC_1014,CBC_1014_MSI_TV_v3_Vset3_Tset1_2023-06-25_12h29.13.889.csv,2,17,2,3,z,0,1,1,tac,D,63,1,2D,3D,0,1,z,2.77297889999863,0,1,1,1,3D,2D,D23,3.46573590279973,0.5,0.48550321363766,0.48550321363766,0.5,0.5,0.528573259095009,0.5,0.5,0.492698291877321,0.5,0.51449678636234,0.48550321363766,0.5,0.492698291877321,0.507301708122679,0.507301708122679,0.5,0.5,0.507301708122679,0.507301708122679,0.139772380933703,0.500272451561676,0.492698291877321,0.00719507823966103,0.5,0.0146034162453572,1.09982718025784,0.0253185376731849,2.80086590838264,0.5,80.997337309866
CBC_1014,CBC_1014_MSI_TV_v3_Vset3_Tset1_2023-06-25_12h29.13.889.csv,2,18,3,2,b,1,0,1,tac,D,63,1,3D,2D,1,0,z,2.36102599999867,0,1,0,0,2D,3D,D32,2.39789527279837,0.5,0.48550321363766,0.48550321363766,0.5,0.5,0.528573259095009,0.5,0.5,0.492698291877321,0.5,0.51449678636234,0.48550321363766,0.5,0.492698291877321,0.507301708122679,0.51449678636234,0.492801874036297,0.507198125963703,0.507301708122679,0.51449678636234,0.180109889956286,0.499783453680631,-0.507301708122679,-0.00740833800569619,0.5,0.0146034162453572,1.09982718025784,0.0253185376731849,2.80086590838264,0.5,80.997337309866
CBC_1014,CBC_1014_MSI_TV_v3_Vset3_Tset1_2023-06-25_12h29.13.889.csv,2,19,3,1,z,0,1,0,tac,B,27,1,3B,1B,0,1,b,3.00195799999892,1,0,0,0,3B,1B,B31,2.83321334405622,0.5,0.48550321363766,0.48550321363766,0.5,0.5,0.528573259095009,0.5,0.5,0.492698291877321,0.5,0.51449678636234,0.48550321363766,0.5,0.492698291877321,0.499893370116982,0.51449678636234,0.471426740904991,0.528573259095009,0.5,0.528573259095009,0.120530481818182,0.498013303553841,-0.5,-0.00730170812267861,0.5,0.0146034162453572,1.09982718025784,0.0253185376731849,2.80086590838264,0.5,80.997337309866
CBC_1014,CBC_1014_MSI_TV_v3_Vset3_Tset1_2023-06-25_12h29.13.889.csv,2,20,0,3,z,0,1,1,tac,D,9,1,0D,3D,0,1,z,2.34731149999789,0,1,1,1,3D,0D,D03,3.55534806148941,0.5,0.48550321363766,0.48550321363766,0.5,0.5,0.528573259095009,0.5,0.492698291877321,0.492698291877321,0.5,0.51449678636234,0.48550321363766,0.5,0.492698291877321,0.499893370116982,0.51449678636234,0.51449678636234,0.48550321363766,0.51449678636234,0.5,0.181681055525215,0.500001475816653,0.48550321363766,0.00709000551720934,0.5,0.0146034162453572,1.09982718025784,0.0253185376731849,2.80086590838264,0.5,80.997337309866
CBC_1014,CBC_1014_MSI_TV_v3_Vset3_Tset1_2023-06-25_12h29.13.889.csv,2,21,1,0,b,1,0,0,tac,B,63,1,1B,0B,1,0,z,2.97866819999763,0,1,0,0,0B,1B,B10,2.484906649788,0.5,0.48550321363766,0.48550321363766,0.5,0.5,0.528573259095009,0.5,0.492698291877321,0.492698291877321,0.5,0.51449678636234,0.48550321363766,0.5,0.492698291877321,0.499893370116982,0.521586791879549,0.471426740904991,0.528573259095009,0.5,0.528573259095009,0.122426151645883,0.498502047712339,-0.5,-0.00730170812267861,0.5,0.0146034162453572,1.09982718025784,0.0253185376731849,2.80086590838264,0.5,80.997337309866
CBC_1014,CBC_1014_MSI_TV_v3_Vset3_Tset1_2023-06-25_12h29.13.889.csv,2,22,1,0,z,0,1,2,tac,A,63,1,1A,0A,0,1,z,2.34039209999901,0,1,1,1,0A,1A,A10,2.91777073208428,0.5,0.48550321363766,0.48550321363766,0.5,0.492698291877321,0.528573259095009,0.5,0.492698291877321,0.492698291877321,0.5,0.51449678636234,0.48550321363766,0.5,0.492698291877321,0.499893370116982,0.521586791879549,0.51449678636234,0.48550321363766,0.5,0.48550321363766,0.182690455769545,0.500696078579577,0.5,0.00730170812267861,0.5,0.0146034162453572,1.09982718025784,0.0253185376731849,2.80086590838264,0.5,80.997337309866
CBC_1014,CBC_1014_MSI_TV_v3_Vset3_Tset1_2023-06-25_12h29.13.889.csv,2,23,2,3,b,1,0,3,tac,C,63,1,2C,3C,1,0,b,2.72382209999887,1,0,1,1,2C,3C,C23,2.94443897916644,0.507301708122679,0.48550321363766,0.48550321363766,0.5,0.492698291877321,0.528573259095009,0.5,0.492698291877321,0.492698291877321,0.5,0.51449678636234,0.48550321363766,0.5,0.492698291877321,0.499893370116982,0.521586791879549,0.528969220408322,0.471030779591678,0.51449678636234,0.48550321363766,0.144638300484135,0.502018023474365,0.48550321363766,0.00709000551720934,0.5,0.0146034162453572,1.09982718025784,0.0253185376731849,2.80086590838264,0.5,80.997337309866
CBC_1014,CBC_1014_MSI_TV_v3_Vset3_Tset1_2023-06-25_12h29.13.889.csv,2,24,0,2,b,1,0,2,tac,A,27,1,0A,2A,1,0,z,2.64998919999925,0,1,0,0,2A,0A,A02,2.56494935746154,0.507301708122679,0.48550321363766,0.48550321363766,0.5,0.492698291877321,0.528573259095009,0.5,0.492698291877321,0.492698291877321,0.5,0.521586791879549,0.48550321363766,0.5,0.492698291877321,0.499893370116982,0.521586791879549,0.478210731204932,0.521789268795068,0.48550321363766,0.507301708122679,0.150626367707717,0.499266652942895,-0.48550321363766,-0.00709000551720934,0.5,0.0146034162453572,1.09982718025784,0.0253185376731849,2.80086590838264,0.5,80.997337309866
CBC_1014,CBC_1014_MSI_TV_v3_Vset3_Tset1_2023-06-25_12h29.13.889.csv,2,25,1,0,b,1,0,0,tac,B,63,1,1B,0B,1,0,b,2.59291549999944,1,0,1,1,1B,0B,B10,2.30258509299405,0.507301708122679,0.48550321363766,0.478413208120451,0.5,0.492698291877321,0.528573259095009,0.5,0.492698291877321,0.492698291877321,0.5,0.521586791879549,0.48550321363766,0.5,0.492698291877321,0.499893370116982,0.521586791879549,0.535845053287932,0.464154946712068,0.528573259095009,0.492698291877321,0.156506387781536,0.500667251493462,0.471426740904991,0.00688444092662776,0.5,0.0146034162453572,1.09982718025784,0.0253185376731849,2.80086590838264,0.5,80.997337309866
CBC_1014,CBC_1014_MSI_TV_v3_Vset3_Tset1_2023-06-25_12h29.13.889.csv,2,26,2,3,z,0,1,1,tac,D,63,1,2D,3D,0,1,b,2.46072829999866,1,0,0,0,2D,3D,D23,3.02042488614436,0.507301708122679,0.48550321363766,0.478413208120451,0.5,0.492698291877321,0.535457700021637,0.5,0.492698291877321,0.492698291877321,0.5,0.521586791879549,0.48550321363766,0.5,0.492698291877321,0.499893370116982,0.521586791879549,0.478306777971015,0.521693222028985,0.499893370116982,0.521586791879549,0.169528932431186,0.499829184471936,-0.499893370116982,-0.00730015096211271,0.5,0.0146034162453572,1.09982718025784,0.0253185376731849,2.80086590838264,0.5,80.997337309866
CBC_1014,CBC_1014_MSI_TV_v3_Vset3_Tset1_2023-06-25_12h29.13.889.csv,2,27,1,2,b,1,0,0,tac,B,9,1,1B,2B,1,0,z,2.82888219999768,0,1,0,0,2B,1B,B12,3.73766961828337,0.507301708122679,0.48550321363766,0.478413208120451,0.5,0.492698291877321,0.535457700021637,0.5,0.492698291877321,0.492698291877321,0.5,0.521586791879549,0.48550321363766,0.5,0.492698291877321,0.49259321915487,0.521586791879549,0.464542299978363,0.535457700021637,0.5,0.535457700021637,0.134406696916834,0.49820459978206,-0.5,-0.00730170812267861,0.5,0.0146034162453572,1.09982718025784,0.0253185376731849,2.80086590838264,0.5,80.997337309866
CBC_1014,CBC_1014_MSI_TV_v3_Vset3_Tset1_2023-06-25_12h29.13.889.csv,2,28,1,3,z,0,1,1,tac,D,27,1,1D,3D,0,1,z,3.01482399999986,0,1,1,1,3D,1D,D13,3.76120011569356,0.507301708122679,0.48550321363766,0.478413208120451,0.5,0.492698291877321,0.535457700021637,0.492698291877321,0.492698291877321,0.492698291877321,0.5,0.521586791879549,0.48550321363766,0.5,0.492698291877321,0.49259321915487,0.521586791879549,0.528870297804484,0.471129702195516,0.521586791879549,0.492698291877321,0.12037461730116,0.501404520322969,0.478413208120451,0.00698646721545966,0.5,0.0146034162453572,1.09982718025784,0.0253185376731849,2.80086590838264,0.5,80.997337309866
CBC_1014,CBC_1014_MSI_TV_v3_Vset3_Tset1_2023-06-25_12h29.13.889.csv,2,29,1,0,z,0,1,2,tac,A,63,1,1A,0A,0,1,b,2.84063449999849,1,0,0,0,1A,0A,A10,2.68557734525015,0.507301708122679,0.48550321363766,0.478413208120451,0.5,0.492698291877321,0.535457700021637,0.492698291877321,0.492698291877321,0.492698291877321,0.5,0.521586791879549,0.48550321363766,0.5,0.492698291877321,0.49259321915487,0.528573259095009,0.478210731204932,0.521789268795068,0.48550321363766,0.507301708122679,0.133478299670019,0.498420353877914,-0.48550321363766,-0.00709000551720934,0.5,0.0146034162453572,1.09982718025784,0.0253185376731849,2.80086590838264,0.5,80.997337309866
CBC_1014,CBC_1014_MSI_TV_v3_Vset3_Tset1_2023-06-25_12h29.13.889.csv,2,30,0,1,b,1,0,2,tac,A,63,1,0A,1A,1,0,z,2.25386509999953,0,1,0,0,1A,0A,A01,3.11351530921037,0.507301708122679,0.478413208120451,0.478413208120451,0.5,0.492698291877321,0.535457700021637,0.492698291877321,0.492698291877321,0.492698291877321,0.5,0.521586791879549,0.48550321363766,0.5,0.492698291877321,0.49259321915487,0.528573259095009,0.471129702195516,0.528870297804484,0.478413208120451,0.507301708122679,0.191384039028209,0.498329871343237,-0.478413208120451,-0.00698646721545966,0.5,0.0146034162453572,1.09982718025784,0.0253185376731849,2.80086590838264,0.5,80.997337309866
CBC_1014,CBC_1014_MSI_TV_v3_Vset3_Tset1_2023-06-25_12h29.13.889.csv,2,31,0,2,z,0,1,3,tac,C,27,1,0C,2C,0,1,z,3.30921750000016,0,1,1,1,2C,0C,C02,3.13549421592915,0.507301708122679,0.471426740904991,0.478413208120451,0.5,0.492698291877321,0.535457700021637,0.492698291877321,0.492698291877321,0.492698291877321,0.5,0.521586791879549,0.48550321363766,0.5,0.492698291877321,0.49259321915487,0.528573259095009,0.528870297804484,0.471129702195516,0.521586791879549,0.492698291877321,0.0998731239286834,0.500567372252558,0.478413208120451,0.00698646721545966,0.5,0.0146034162453572,1.09982718025784,0.0253185376731849,2.80086590838264,0.5,80.997337309866
CBC_1014,CBC_1014_MSI_TV_v3_Vset3_Tset1_2023-06-25_12h29.13.889.csv,2,32,1,0,z,0,1,2,tac,A,63,1,1A,0A,0,1,b,2.8937821999989,1,0,0,0,1A,0A,A10,2.46385324059017,0.507301708122679,0.471426740904991,0.478413208120451,0.5,0.492698291877321,0.535457700021637,0.492698291877321,0.492698291877321,0.492698291877321,0.5,0.528573259095009,0.48550321363766,0.5,0.492698291877321,0.49259321915487,0.528573259095009,0.464154946712068,0.535845053287932,0.471426740904991,0.507301708122679,0.129396295773046,0.49954979255313,-0.471426740904991,-0.00688444092662776,0.5,0.0146034162453572,1.09982718025784,0.0253185376731849,2.80086590838264,0.5,80.997337309866
CBC_1014,CBC_1014_MSI_TV_v3_Vset3_Tset1_2023-06-25_12h29.13.889.csv,2,33,1,0,b,1,0,0,tac,B,63,1,1B,0B,1,0,z,2.8694818999993,0,1,0,0,0B,1B,B10,2.26176309847379,0.507301708122679,0.464542299978364,0.478413208120451,0.5,0.492698291877321,0.535457700021637,0.492698291877321,0.492698291877321,0.492698291877321,0.5,0.528573259095009,0.48550321363766,0.5,0.492698291877321,0.49259321915487,0.528573259095009,0.45728482799131,0.54271517200869,0.492698291877321,0.535457700021637,0.131136315593795,0.49861052988604,-0.492698291877321,-0.00719507823966103,0.5,0.0146034162453572,1.09982718025784,0.0253185376731849,2.80086590838264,0.5,80.997337309866
CBC_1014,CBC_1014_MSI_TV_v3_Vset3_Tset1_2023-06-25_12h29.13.889.csv,2,34,3,2,b,1,0,1,tac,D,63,1,3D,2D,1,0,b,4.21180119999735,1,0,1,1,3D,2D,D32,2.50552593699074,0.507301708122679,0.464542299978364,0.478413208120451,0.5,0.48550321363766,0.535457700021637,0.492698291877321,0.492698291877321,0.492698291877321,0.5,0.528573259095009,0.48550321363766,0.5,0.492698291877321,0.49259321915487,0.528573259095009,0.535949607034961,0.464050392965039,0.528573259095009,0.49259321915487,0.056691771300533,0.50129699157097,0.471426740904991,0.00688444092662776,0.5,0.0146034162453572,1.09982718025784,0.0253185376731849,2.80086590838264,0.5,80.997337309866
CBC_1014,CBC_1014_MSI_TV_v3_Vset3_Tset1_2023-06-25_12h29.13.889.csv,2,35,3,1,z,0,1,0,tac,B,27,1,3B,1B,0,1,z,3.12324949999856,0,1,1,1,1B,3B,B31,2.81341071676004,0.507301708122679,0.464542299978364,0.478413208120451,0.5,0.48550321363766,0.535457700021637,0.492698291877321,0.492698291877321,0.492698291877321,0.5,0.528573259095009,0.48550321363766,0.5,0.492698291877321,0.49259321915487,0.535457700021637,0.54271517200869,0.45728482799131,0.535457700021637,0.492698291877321,0.112442229048362,0.501381352721075,0.464542299978363,0.00678390457015964,0.5,0.0146034162453572,1.09982718025784,0.0253185376731849,2.80086590838264,0.5,80.997337309866
CBC_1014,CBC_1014_MSI_TV_v3_Vset3_Tset1_2023-06-25_12h29.13.889.csv,2,36,3,2,z,0,1,3,tac,C,63,1,3C,2C,0,1,z,2.56357639999987,0,1,1,1,2C,3C,C32,2.83321334405622,0.507301708122679,0.464542299978364,0.478413208120451,0.5,0.48550321363766,0.542241604591796,0.492698291877321,0.492698291877321,0.492698291877321,0.5,0.528573259095009,0.48550321363766,0.5,0.492698291877321,0.49259321915487,0.535457700021637,0.542998801528636,0.457001198471364,0.528573259095009,0.48550321363766,0.160157849973973,0.503108151430466,0.471426740904991,0.00688444092662776,0.5,0.0146034162453572,1.09982718025784,0.0253185376731849,2.80086590838264,0.5,80.997337309866
CBC_1014,CBC_1014_MSI_TV_v3_Vset3_Tset1_2023-06-25_12h29.13.889.csv,2,37,2,0,b,1,0,3,tac,C,27,1,2C,0C,1,0,z,2.62486329999956,0,1,0,0,0C,2C,C20,3.95124371858143,0.507301708122679,0.464542299978364,0.478413208120451,0.5,0.48550321363766,0.542241604591796,0.492698291877321,0.492698291877321,0.492698291877321,0.5,0.535457700021637,0.48550321363766,0.5,0.492698291877321,0.49259321915487,0.535457700021637,0.45728482799131,0.54271517200869,0.492698291877321,0.535457700021637,0.152593847266302,0.497938390733234,-0.492698291877321,-0.00719507823966103,0.5,0.0146034162453572,1.09982718025784,0.0253185376731849,2.80086590838264,0.5,80.997337309866
CBC_1014,CBC_1014_MSI_TV_v3_Vset3_Tset1_2023-06-25_12h29.13.889.csv,2,38,1,0,b,1,0,0,tac,B,63,1,1B,0B,1,0,b,2.3602377999996,1,0,1,1,1B,0B,B10,2.17853244432407,0.507301708122679,0.464542299978364,0.478413208120451,0.5,0.48550321363766,0.542241604591796,0.492698291877321,0.492698291877321,0.48550321363766,0.5,0.535457700021637,0.48550321363766,0.5,0.492698291877321,0.49259321915487,0.535457700021637,0.556599751556758,0.443400248443242,0.542241604591796,0.48550321363766,0.181064307195921,0.50219163532313,0.457758395408204,0.00668483638795282,0.5,0.0146034162453572,1.09982718025784,0.0253185376731849,2.80086590838264,0.5,80.997337309866
CBC_1014,CBC_1014_MSI_TV_v3_Vset3_Tset1_2023-06-25_12h29.13.889.csv,2,39,3,0,z,0,1,2,tac,A,9,1,3A,0A,0,1,b,2.61856809999881,1,0,0,0,3A,0A,A30,3.98898404656427,0.507301708122679,0.464542299978364,0.478413208120451,0.5,0.48550321363766,0.548926440979749,0.492698291877321,0.492698291877321,0.48550321363766,0.5,0.535457700021637,0.48550321363766,0.5,0.492698291877321,0.49259321915487,0.535457700021637,0.492698291877321,0.507301708122679,0.5,0.507301708122679,0.153888844374944,0.500202942250801,-0.5,-0.00730170812267861,0.5,0.0146034162453572,1.09982718025784,0.0253185376731849,2.80086590838264,0.5,80.997337309866
CBC_1014,CBC_1014_MSI_TV_v3_Vset3_Tset1_2023-06-25_12h29.13.889.csv,2,40,3,2,z,0,1,3,tac,C,63,0,3C,2C,1,0,b,2.8007781999986,1,0,0,1,3C,2C,C32,2.62103882411258,0.507301708122679,0.464542299978364,0.478413208120451,0.492698291877321,0.48550321363766,0.548926440979749,0.492698291877321,0.492698291877321,0.48550321363766,0.5,0.535457700021637,0.48550321363766,0.5,0.492698291877321,0.49259321915487,0.535457700021637,0.450148013826578,0.549851986173422,0.48550321363766,0.535457700021637,0.136863648152103,0.49845978893645,0.51449678636234,0.00751341072814787,0.5,0.0146034162453572,1.09982718025784,0.0253185376731849,2.80086590838264,0.5,80.997337309866
CBC_1014,CBC_1014_MSI_TV_v3_Vset3_Tset1_2023-06-25_12h29.13.889.csv,2,41,1,0,z,0,1,2,tac,A,63,1,1A,0A,0,1,z,3.02600309999798,0,1,1,1,0A,1A,A10,2.41591377830105,0.507301708122679,0.464542299978364,0.478413208120451,0.492698291877321,0.48550321363766,0.548926440979749,0.492698291877321,0.492698291877321,0.48550321363766,0.5,0.535457700021637,0.493016624365808,0.5,0.492698291877321,0.49259321915487,0.535457700021637,0.54271517200869,0.45728482799131,0.507301708122679,0.464542299978364,0.119673301683351,0.501995674849681,0.492698291877321,0.00719507823966103,0.5,0.0146034162453572,1.09982718025784,0.0253185376731849,2.80086590838264,0.5,80.997337309866
CBC_1014,CBC_1014_MSI_TV_v3_Vset3_Tset1_2023-06-25_12h29.13.889.csv,2,42,3,2,b,1,0,1,tac,D,63,1,3D,2D,1,0,b,3.12709349999932,1,0,1,1,3D,2D,D32,2.43361335540045,0.51449678636234,0.464542299978364,0.478413208120451,0.492698291877321,0.48550321363766,0.548926440979749,0.492698291877321,0.492698291877321,0.48550321363766,0.5,0.535457700021637,0.493016624365808,0.5,0.492698291877321,0.49259321915487,0.535457700021637,0.542819498570168,0.457180501429832,0.535457700021637,0.49259321915487,0.112396612979872,0.50239033916235,0.464542299978363,0.00678390457015964,0.5,0.0146034162453572,1.09982718025784,0.0253185376731849,2.80086590838264,0.5,80.997337309866
CBC_1014,CBC_1014_MSI_TV_v3_Vset3_Tset1_2023-06-25_12h29.13.889.csv,2,43,2,3,b,1,0,3,tac,C,63,1,2C,3C,1,0,z,2.96980959999746,0,1,0,0,3C,2C,C23,2.96183072187831,0.51449678636234,0.464542299978364,0.478413208120451,0.492698291877321,0.48550321363766,0.548926440979749,0.492698291877321,0.492698291877321,0.48550321363766,0.5,0.535457700021637,0.493016624365808,0.5,0.492698291877321,0.49259321915487,0.542241604591796,0.457600918842845,0.542399081157155,0.493016624365808,0.535457700021637,0.123203584925677,0.498885256821173,-0.493016624365808,-0.00719972698149482,0.5,0.0146034162453572,1.09982718025784,0.0253185376731849,2.80086590838264,0.5,80.997337309866
CBC_1014,CBC_1014_MSI_TV_v3_Vset3_Tset1_2023-06-25_12h29.13.889.csv,2,44,1,3,z,0,1,1,tac,D,27,1,1D,3D,NaN,NaN,None,NaN,NaN,NaN,NaN,NaN,,,D13,3.38439026334577,0.51449678636234,0.464542299978364,0.478413208120451,0.492698291877321,0.48550321363766,0.548926440979749,0.492698291877321,0.492698291877321,0.48550321363766,0.5,0.535457700021637,0.485816897384313,0.5,0.492698291877321,0.49259321915487,0.542241604591796,0,0,0,0,NaN,0,0,0,0.5,0.0146034162453572,1.09982718025784,0.0253185376731849,2.80086590838264,0.5,80.997337309866
CBC_1014,CBC_1014_MSI_AV_v3_Vset6_Aset3_2023-06-25_12h37.50.287.csv,3,1,0,1,z,0,1,0,aud,B,63,1,0B,1B,0,1,z,2.421016100001,0,1,1,1,1B,0B,B01,2.77258872223978,0.5,0.5,0.5,0.5,0.5,0.5,0.5,0.5,0.5,0.5,0.5,0.5,0.5,0.5,0.5,0.5,0.5,0.5,0.5,0.5,0.110009506539541,0.499638161034519,0.5,0.0482223625437381,0.5,0.0964447250874763,0.301348522891999,1.32182332240192,3.11103920353775,0.5,143.121210639128
CBC_1014,CBC_1014_MSI_AV_v3_Vset6_Aset3_2023-06-25_12h37.50.287.csv,3,2,2,3,z,0,1,1,aud,D,63,1,2D,3D,0,1,b,2.71301070000118,1,0,0,0,2D,3D,D23,2.83321334405622,0.5,0.5,0.5,0.5,0.5,0.548222362543738,0.5,0.5,0.5,0.5,0.5,0.5,0.5,0.5,0.5,0.5,0.5,0.5,0.5,0.5,0.0947561375113253,0.499264381590912,-0.5,-0.0482223625437381,0.5,0.0964447250874763,0.301348522891999,1.32182332240192,3.11103920353775,0.5,143.121210639128
CBC_1014,CBC_1014_MSI_AV_v3_Vset6_Aset3_2023-06-25_12h37.50.287.csv,3,3,1,3,b,1,0,0,aud,B,27,1,1B,3B,1,0,z,2.55061150000074,0,1,0,0,3B,1B,B13,2.89037175789616,0.5,0.5,0.5,0.5,0.5,0.548222362543738,0.5,0.5,0.5,0.5,0.5,0.5,0.5,0.5,0.451777637456262,0.5,0.451777637456262,0.548222362543738,0.5,0.548222362543738,0.0832333277264827,0.403265518245794,-0.5,-0.0482223625437381,0.5,0.0964447250874763,0.301348522891999,1.32182332240192,3.11103920353775,0.5,143.121210639128
CBC_1014,CBC_1014_MSI_AV_v3_Vset6_Aset3_2023-06-25_12h37.50.287.csv,3,4,3,2,z,0,1,3,aud,C,63,1,3C,2C,0,1,b,2.53104869999879,1,0,0,0,3C,2C,C32,2.94443897916644,0.5,0.5,0.5,0.5,0.5,0.548222362543738,0.5,0.451777637456262,0.5,0.5,0.5,0.5,0.5,0.5,0.451777637456262,0.5,0.5,0.5,0.5,0.5,0.104206906299815,0.500499791103423,-0.5,-0.0482223625437381,0.5,0.0964447250874763,0.301348522891999,1.32182332240192,3.11103920353775,0.5,143.121210639128
CBC_1014,CBC_1014_MSI_AV_v3_Vset6_Aset3_2023-06-25_12h37.50.287.csv,3,5,2,0,b,1,0,3,aud,C,27,1,2C,0C,1,0,b,1.64527930000077,1,0,1,1,2C,0C,C20,2.99573227355399,0.5,0.5,0.5,0.5,0.5,0.548222362543738,0.5,0.451777637456262,0.5,0.5,0.5,0.451777637456262,0.5,0.5,0.451777637456262,0.5,0.5,0.5,0.5,0.5,0.161511073883163,0.499897221983566,0.5,0.0482223625437381,0.5,0.0964447250874763,0.301348522891999,1.32182332240192,3.11103920353775,0.5,143.121210639128
CBC_1014,CBC_1014_MSI_AV_v3_Vset6_Aset3_2023-06-25_12h37.50.287.csv,3,6,3,0,z,0,1,2,aud,A,9,1,3A,0A,0,1,b,3.08501300000171,1,0,0,0,3A,0A,A30,3.04452243772342,0.5,0.5,0.5,0.5,0.5,0.548222362543738,0.5,0.451777637456262,0.5,0.5,0.548222362543738,0.451777637456262,0.5,0.5,0.451777637456262,0.5,0.5,0.5,0.5,0.5,0.0783767087578951,0.499148445378619,-0.5,-0.0482223625437381,0.5,0.0964447250874763,0.301348522891999,1.32182332240192,3.11103920353775,0.5,143.121210639128
CBC_1014,CBC_1014_MSI_AV_v3_Vset6_Aset3_2023-06-25_12h37.50.287.csv,3,7,3,2,z,0,1,3,aud,C,63,1,3C,2C,0,1,b,2.50117150000005,1,0,0,0,3C,2C,C32,2.39789527279837,0.5,0.5,0.5,0.451777637456262,0.5,0.548222362543738,0.5,0.451777637456262,0.5,0.5,0.548222362543738,0.451777637456262,0.5,0.5,0.451777637456262,0.5,0.404444096273024,0.595555903726976,0.451777637456262,0.548222362543738,0.0664425753196675,0.312704464257888,-0.451777637456262,-0.0435715700451387,0.5,0.0964447250874763,0.301348522891999,1.32182332240192,3.11103920353775,0.5,143.121210639128
CBC_1014,CBC_1014_MSI_AV_v3_Vset6_Aset3_2023-06-25_12h37.50.287.csv,3,8,0,1,b,1,0,2,aud,A,63,1,0A,1A,1,0,z,0.376901499999803,0,1,0,0,1A,0A,A01,3.13549421592915,0.5,0.5,0.5,0.451777637456262,0.5,0.548222362543738,0.5,0.451777637456262,0.5,0.5,0.548222362543738,0.408206067411123,0.5,0.5,0.451777637456262,0.5,0.5,0.5,0.5,0.5,3.31840704979945e-06,0.499799783608929,-0.5,-0.0482223625437381,0.5,0.0964447250874763,0.301348522891999,1.32182332240192,3.11103920353775,0.5,143.121210639128
CBC_1014,CBC_1014_MSI_AV_v3_Vset6_Aset3_2023-06-25_12h37.50.287.csv,3,9,3,2,b,1,0,1,aud,D,63,1,3D,2D,1,0,z,2.52940699999999,0,1,0,0,2D,3D,D32,3.17805383034795,0.5,0.451777637456262,0.5,0.451777637456262,0.5,0.548222362543738,0.5,0.451777637456262,0.5,0.5,0.548222362543738,0.408206067411123,0.5,0.5,0.451777637456262,0.5,0.451777637456262,0.548222362543738,0.451777637456262,0.5,0.0836454610679946,0.400821437430823,-0.451777637456262,-0.0435715700451387,0.5,0.0964447250874763,0.301348522891999,1.32182332240192,3.11103920353775,0.5,143.121210639128
CBC_1014,CBC_1014_MSI_AV_v3_Vset6_Aset3_2023-06-25_12h37.50.287.csv,3,10,2,3,b,1,0,3,aud,C,63,1,2C,3C,1,0,b,2.68645969999852,1,0,1,1,2C,3C,C23,3.2188758248682,0.5,0.451777637456262,0.5,0.451777637456262,0.5,0.548222362543738,0.5,0.451777637456262,0.5,0.5,0.548222362543738,0.408206067411123,0.5,0.5,0.408206067411123,0.5,0.637580287394353,0.362419712605647,0.548222362543738,0.408206067411123,0.144645762389544,0.756109188483581,0.451777637456262,0.0435715700451387,0.5,0.0964447250874763,0.301348522891999,1.32182332240192,3.11103920353775,0.5,143.121210639128
CBC_1014,CBC_1014_MSI_AV_v3_Vset6_Aset3_2023-06-25_12h37.50.287.csv,3,11,1,3,z,0,1,1,aud,D,27,1,1D,3D,0,1,z,1.81295639999917,0,1,1,1,3D,1D,D13,3.25809653802148,0.5,0.451777637456262,0.5,0.451777637456262,0.5,0.548222362543738,0.5,0.451777637456262,0.5,0.5,0.591793932588877,0.408206067411123,0.5,0.5,0.408206067411123,0.5,0.5,0.5,0.5,0.5,0.148951754557554,0.499047253772073,0.5,0.0482223625437381,0.5,0.0964447250874763,0.301348522891999,1.32182332240192,3.11103920353775,0.5,143.121210639128
CBC_1014,CBC_1014_MSI_AV_v3_Vset6_Aset3_2023-06-25_12h37.50.287.csv,3,12,1,0,z,0,1,2,aud,A,63,0,1A,0A,1,0,z,2.78926750000028,0,1,1,0,0A,1A,A10,3.29583686600433,0.5,0.451777637456262,0.5,0.451777637456262,0.5,0.548222362543738,0.5,0.451777637456262,0.5,0.5,0.591793932588877,0.408206067411123,0.5,0.5,0.408206067411123,0.548222362543738,0.548222362543738,0.451777637456262,0.5,0.451777637456262,0.109285469043433,0.599042868635432,-0.5,-0.0482223625437381,0.5,0.0964447250874763,0.301348522891999,1.32182332240192,3.11103920353775,0.5,143.121210639128
CBC_1014,CBC_1014_MSI_AV_v3_Vset6_Aset3_2023-06-25_12h37.50.287.csv,3,13,2,3,b,1,0,3,aud,C,63,1,2C,3C,1,0,b,3.00522190000083,1,0,1,1,2C,3C,C23,2.63905732961526,0.451777637456262,0.451777637456262,0.5,0.451777637456262,0.5,0.548222362543738,0.5,0.451777637456262,0.5,0.5,0.591793932588877,0.408206067411123,0.5,0.5,0.408206067411123,0.548222362543738,0.677601881799517,0.322398118200483,0.591793932588877,0.408206067411123,0.125958888324315,0.811208142182053,0.408206067411123,0.0393693219505056,0.5,0.0964447250874763,0.301348522891999,1.32182332240192,3.11103920353775,0.5,143.121210639128
CBC_1014,CBC_1014_MSI_AV_v3_Vset6_Aset3_2023-06-25_12h37.50.287.csv,3,14,0,2,b,1,0,2,aud,A,27,1,0A,2A,1,0,z,2.06356369999958,0,1,0,0,2A,0A,A02,3.36729582998647,0.451777637456262,0.451777637456262,0.5,0.451777637456262,0.5,0.548222362543738,0.5,0.451777637456262,0.5,0.5,0.631163254539382,0.408206067411123,0.5,0.5,0.408206067411123,0.548222362543738,0.548222362543738,0.451777637456262,0.5,0.451777637456262,0.158310090732517,0.597180675667276,-0.5,-0.0482223625437381,0.5,0.0964447250874763,0.301348522891999,1.32182332240192,3.11103920353775,0.5,143.121210639128
CBC_1014,CBC_1014_MSI_AV_v3_Vset6_Aset3_2023-06-25_12h37.50.287.csv,3,15,0,1,z,0,1,0,aud,B,63,1,0B,1B,0,1,z,3.77902279999944,0,1,1,1,1B,0B,B01,2.70805020110221,0.451777637456262,0.451777637456262,0.451777637456262,0.451777637456262,0.5,0.548222362543738,0.5,0.451777637456262,0.5,0.5,0.631163254539382,0.408206067411123,0.5,0.5,0.408206067411123,0.548222362543738,0.548222362543738,0.451777637456262,0.548222362543738,0.5,0.0653971775454423,0.598562277862631,0.451777637456262,0.0435715700451387,0.5,0.0964447250874763,0.301348522891999,1.32182332240192,3.11103920353775,0.5,143.121210639128
CBC_1014,CBC_1014_MSI_AV_v3_Vset6_Aset3_2023-06-25_12h37.50.287.csv,3,16,3,2,b,1,0,1,aud,D,63,1,3D,2D,1,0,b,2.10101199999917,1,0,1,1,3D,2D,D32,2.7408400239252,0.451777637456262,0.451777637456262,0.451777637456262,0.451777637456262,0.5,0.591793932588877,0.5,0.451777637456262,0.5,0.5,0.631163254539382,0.408206067411123,0.5,0.5,0.408206067411123,0.548222362543738,0.637580287394353,0.362419712605647,0.548222362543738,0.408206067411123,0.201737626383193,0.754345198447299,0.451777637456262,0.0435715700451387,0.5,0.0964447250874763,0.301348522891999,1.32182332240192,3.11103920353775,0.5,143.121210639128
CBC_1014,CBC_1014_MSI_AV_v3_Vset6_Aset3_2023-06-25_12h37.50.287.csv,3,17,1,2,b,1,0,0,aud,B,9,1,1B,2B,1,0,b,2.86789260000114,1,0,1,1,1B,2B,B12,3.46573590279973,0.451777637456262,0.451777637456262,0.451777637456262,0.451777637456262,0.5,0.591793932588877,0.5,0.451777637456262,0.5,0.5,0.631163254539382,0.408206067411123,0.5,0.5,0.408206067411123,0.591793932588877,0.591793932588877,0.408206067411123,0.591793932588877,0.5,0.118514354761355,0.679707960716261,0.408206067411123,0.0393693219505056,0.5,0.0964447250874763,0.301348522891999,1.32182332240192,3.11103920353775,0.5,143.121210639128
CBC_1014,CBC_1014_MSI_AV_v3_Vset6_Aset3_2023-06-25_12h37.50.287.csv,3,18,1,3,z,0,1,1,aud,D,27,1,1D,3D,0,1,z,1.58478279999872,0,1,1,1,3D,1D,D13,2.80336038090653,0.451777637456262,0.451777637456262,0.451777637456262,0.451777637456262,0.5,0.631163254539382,0.5,0.451777637456262,0.5,0.5,0.631163254539382,0.408206067411123,0.5,0.5,0.408206067411123,0.591793932588877,0.591793932588877,0.408206067411123,0.591793932588877,0.5,0.23308431357105,0.680057410425655,0.408206067411123,0.0393693219505056,0.5,0.0964447250874763,0.301348522891999,1.32182332240192,3.11103920353775,0.5,143.121210639128
CBC_1014,CBC_1014_MSI_AV_v3_Vset6_Aset3_2023-06-25_12h37.50.287.csv,3,19,0,1,b,1,0,2,aud,A,63,1,0A,1A,1,0,b,2.39049079999859,1,0,1,1,0A,1A,A01,2.83321334405622,0.451777637456262,0.451777637456262,0.451777637456262,0.451777637456262,0.5,0.631163254539382,0.5,0.451777637456262,0.5,0.5,0.631163254539382,0.408206067411123,0.5,0.5,0.408206067411123,0.631163254539382,0.5,0.5,0.451777637456262,0.451777637456262,0.111676231986914,0.499409938653687,0.548222362543738,0.0528731550423376,0.5,0.0964447250874763,0.301348522891999,1.32182332240192,3.11103920353775,0.5,143.121210639128
CBC_1014,CBC_1014_MSI_AV_v3_Vset6_Aset3_2023-06-25_12h37.50.287.csv,3,20,1,0,z,0,1,2,aud,A,63,1,1A,0A,0,1,z,2.08880840000165,0,1,1,1,0A,1A,A10,2.86220088092947,0.504650792498599,0.451777637456262,0.451777637456262,0.451777637456262,0.5,0.631163254539382,0.5,0.451777637456262,0.5,0.5,0.631163254539382,0.408206067411123,0.5,0.5,0.408206067411123,0.631163254539382,0.552825765639212,0.447174234360788,0.504650792498599,0.451777637456262,0.158858495711049,0.606404111098083,0.495349207501401,0.0477738181397718,0.5,0.0964447250874763,0.301348522891999,1.32182332240192,3.11103920353775,0.5,143.121210639128
CBC_1014,CBC_1014_MSI_AV_v3_Vset6_Aset3_2023-06-25_12h37.50.287.csv,3,21,2,0,b,1,0,3,aud,C,27,1,2C,0C,1,0,z,3.78955270000006,0,1,0,0,0C,2C,C20,2.89037175789616,0.552424610638371,0.451777637456262,0.451777637456262,0.451777637456262,0.5,0.631163254539382,0.5,0.451777637456262,0.5,0.5,0.631163254539382,0.408206067411123,0.5,0.5,0.408206067411123,0.631163254539382,0.368836745460618,0.631163254539382,0.5,0.631163254539382,0.0259367105581715,0.25389069922327,-0.5,-0.0482223625437381,0.5,0.0964447250874763,0.301348522891999,1.32182332240192,3.11103920353775,0.5,143.121210639128
CBC_1014,CBC_1014_MSI_AV_v3_Vset6_Aset3_2023-06-25_12h37.50.287.csv,3,22,0,1,z,0,1,0,aud,B,63,1,0B,1B,0,1,b,3.31988679999995,1,0,0,0,0B,1B,B01,2.51230562397611,0.552424610638371,0.451777637456262,0.451777637456262,0.451777637456262,0.5,0.631163254539382,0.5,0.451777637456262,0.451777637456262,0.5,0.631163254539382,0.408206067411123,0.5,0.5,0.408206067411123,0.631163254539382,0.368836745460618,0.631163254539382,0.5,0.631163254539382,0.0339896197080581,0.254513412694499,-0.5,-0.0482223625437381,0.5,0.0964447250874763,0.301348522891999,1.32182332240192,3.11103920353775,0.5,143.121210639128
CBC_1014,CBC_1014_MSI_AV_v3_Vset6_Aset3_2023-06-25_12h37.50.287.csv,3,23,2,0,b,1,0,3,aud,C,27,1,2C,0C,1,0,z,0.276835700000447,0,1,0,0,0C,2C,C20,2.53897387105828,0.552424610638371,0.451777637456262,0.451777637456262,0.451777637456262,0.451777637456262,0.631163254539382,0.5,0.451777637456262,0.451777637456262,0.5,0.631163254539382,0.408206067411123,0.5,0.5,0.408206067411123,0.631163254539382,0.325040850800274,0.674959149199726,0.451777637456262,0.631163254539382,1e-20,0.5,-0.451777637456262,-0.0435715700451387,0.5,0.0964447250874763,0.301348522891999,1.32182332240192,3.11103920353775,0.5,143.121210639128
CBC_1014,CBC_1014_MSI_AV_v3_Vset6_Aset3_2023-06-25_12h37.50.287.csv,3,24,3,2,b,1,0,1,aud,D,63,1,3D,2D,1,0,z,3.16309120000005,0,1,0,0,2D,3D,D32,2.56494935746154,0.552424610638371,0.451777637456262,0.451777637456262,0.451777637456262,0.451777637456262,0.631163254539382,0.5,0.451777637456262,0.408206067411123,0.5,0.631163254539382,0.408206067411123,0.5,0.5,0.408206067411123,0.631163254539382,0.287287060341508,0.712712939658492,0.408206067411123,0.631163254539382,0.0199730096440036,0.147887121787523,-0.408206067411123,-0.0393693219505056,0.5,0.0964447250874763,0.301348522891999,1.32182332240192,3.11103920353775,0.5,143.121210639128
CBC_1014,CBC_1014_MSI_AV_v3_Vset6_Aset3_2023-06-25_12h37.50.287.csv,3,25,1,0,z,0,1,2,aud,A,63,1,1A,0A,0,1,z,1.51565110000047,0,1,1,1,0A,1A,A10,2.59026716544583,0.552424610638371,0.451777637456262,0.451777637456262,0.451777637456262,0.451777637456262,0.631163254539382,0.5,0.451777637456262,0.408206067411123,0.5,0.631163254539382,0.408206067411123,0.5,0.5,0.368836745460618,0.631163254539382,0.599639404150817,0.400360595849183,0.552424610638371,0.451777637456262,0.248152949425396,0.696480780574077,0.447575389361629,0.0431662853829024,0.5,0.0964447250874763,0.301348522891999,1.32182332240192,3.11103920353775,0.5,143.121210639128
CBC_1014,CBC_1014_MSI_AV_v3_Vset6_Aset3_2023-06-25_12h37.50.287.csv,3,26,3,2,z,0,1,3,aud,C,63,1,3C,2C,0,1,z,2.60684719999881,0,1,1,1,2C,3C,C32,2.6149597780362,0.595590896021274,0.451777637456262,0.451777637456262,0.451777637456262,0.451777637456262,0.631163254539382,0.5,0.451777637456262,0.408206067411123,0.5,0.631163254539382,0.408206067411123,0.5,0.5,0.368836745460618,0.631163254539382,0.712712939658492,0.287287060341508,0.631163254539382,0.408206067411123,0.166870015107527,0.852177112798023,0.368836745460618,0.0355723585181087,0.5,0.0964447250874763,0.301348522891999,1.32182332240192,3.11103920353775,0.5,143.121210639128
CBC_1014,CBC_1014_MSI_AV_v3_Vset6_Aset3_2023-06-25_12h37.50.287.csv,3,27,2,0,z,0,1,2,aud,A,27,1,2A,0A,0,1,z,2.51956000000064,0,1,1,1,0A,2A,A20,3.73766961828337,0.595590896021274,0.451777637456262,0.451777637456262,0.451777637456262,0.451777637456262,0.631163254539382,0.5,0.451777637456262,0.408206067411123,0.5,0.666735613057491,0.408206067411123,0.5,0.5,0.368836745460618,0.631163254539382,0.641209569396933,0.358790430603067,0.595590896021274,0.451777637456262,0.160455960631311,0.762106708535013,0.404409103978726,0.0390031248561009,0.5,0.0964447250874763,0.301348522891999,1.32182332240192,3.11103920353775,0.5,143.121210639128
CBC_1014,CBC_1014_MSI_AV_v3_Vset6_Aset3_2023-06-25_12h37.50.287.csv,3,28,3,2,b,1,0,1,aud,D,63,1,3D,2D,1,0,b,1.70578019999994,1,0,1,1,3D,2D,D32,2.37490575457367,0.634594020877375,0.451777637456262,0.451777637456262,0.451777637456262,0.451777637456262,0.631163254539382,0.5,0.451777637456262,0.408206067411123,0.5,0.666735613057491,0.408206067411123,0.5,0.5,0.368836745460618,0.631163254539382,0.745436731930253,0.254563268069747,0.631163254539382,0.368836745460618,0.319896352079285,0.881557278252661,0.368836745460618,0.0355723585181087,0.5,0.0964447250874763,0.301348522891999,1.32182332240192,3.11103920353775,0.5,143.121210639128
CBC_1014,CBC_1014_MSI_AV_v3_Vset6_Aset3_2023-06-25_12h37.50.287.csv,3,29,3,2,b,1,0,1,aud,D,63,1,3D,2D,1,0,b,3.40650110000024,1,0,1,1,3D,2D,D32,2.17475172148416,0.634594020877375,0.451777637456262,0.451777637456262,0.451777637456262,0.451777637456262,0.631163254539382,0.5,0.451777637456262,0.408206067411123,0.5,0.666735613057491,0.408206067411123,0.5,0.5,0.368836745460618,0.666735613057491,0.773935448569766,0.226064551430234,0.666735613057491,0.368836745460618,0.0910163647988177,0.905116456621998,0.333264386942509,0.0321415921801166,0.5,0.0964447250874763,0.301348522891999,1.32182332240192,3.11103920353775,0.5,143.121210639128
CBC_1014,CBC_1014_MSI_AV_v3_Vset6_Aset3_2023-06-25_12h37.50.287.csv,3,30,3,1,z,0,1,0,aud,B,27,1,3B,1B,0,1,z,3.0995524000009,0,1,1,1,1B,3B,B31,3.80666248977032,0.634594020877375,0.451777637456262,0.451777637456262,0.451777637456262,0.451777637456262,0.631163254539382,0.5,0.451777637456262,0.408206067411123,0.5,0.666735613057491,0.408206067411123,0.5,0.5,0.368836745460618,0.698877205237608,0.674959149199726,0.325040850800274,0.631163254539382,0.451777637456262,0.1186123082573,0.808072415098848,0.368836745460618,0.0355723585181087,0.5,0.0964447250874763,0.301348522891999,1.32182332240192,3.11103920353775,0.5,143.121210639128
CBC_1014,CBC_1014_MSI_AV_v3_Vset6_Aset3_2023-06-25_12h37.50.287.csv,3,31,0,3,z,0,1,1,aud,D,9,1,0D,3D,0,1,z,2.74768899999981,0,1,1,1,3D,0D,D03,3.8286413964891,0.634594020877375,0.451777637456262,0.451777637456262,0.451777637456262,0.451777637456262,0.666735613057491,0.5,0.451777637456262,0.408206067411123,0.5,0.666735613057491,0.408206067411123,0.5,0.5,0.368836745460618,0.698877205237608,0.698877205237608,0.301122794762392,0.698877205237608,0.5,0.15071510258058,0.837826000164986,0.301122794762392,0.0290417051584315,0.5,0.0964447250874763,0.301348522891999,1.32182332240192,3.11103920353775,0.5,143.121210639128
CBC_1014,CBC_1014_MSI_AV_v3_Vset6_Aset3_2023-06-25_12h37.50.287.csv,3,32,1,0,b,1,0,0,aud,B,63,1,1B,0B,1,0,b,2.53471200000058,1,0,1,1,1B,0B,B10,3.85014760171006,0.634594020877375,0.451777637456262,0.451777637456262,0.451777637456262,0.451777637456262,0.666735613057491,0.5,0.451777637456262,0.408206067411123,0.5,0.666735613057491,0.408206067411123,0.5,0.5,0.368836745460618,0.727918910396039,0.70826001272027,0.29173998727973,0.666735613057491,0.451777637456262,0.174420684473227,0.847239460134988,0.333264386942509,0.0321415921801166,0.5,0.0964447250874763,0.301348522891999,1.32182332240192,3.11103920353775,0.5,143.121210639128
CBC_1014,CBC_1014_MSI_AV_v3_Vset6_Aset3_2023-06-25_12h37.50.287.csv,3,33,1,0,z,0,1,2,aud,A,63,1,1A,0A,0,1,z,3.93049980000069,0,1,1,1,0A,1A,A10,2.484906649788,0.634594020877375,0.451777637456262,0.451777637456262,0.451777637456262,0.451777637456262,0.698877205237608,0.5,0.451777637456262,0.408206067411123,0.5,0.666735613057491,0.408206067411123,0.5,0.5,0.368836745460618,0.727918910396039,0.678190249732224,0.321809750267776,0.634594020877375,0.451777637456262,0.0709731099491655,0.812278001023801,0.365405979122625,0.0352414792018017,0.5,0.0964447250874763,0.301348522891999,1.32182332240192,3.11103920353775,0.5,143.121210639128
CBC_1014,CBC_1014_MSI_AV_v3_Vset6_Aset3_2023-06-25_12h37.50.287.csv,3,34,1,0,b,1,0,0,aud,B,63,1,1B,0B,1,0,b,1.40042450000146,1,0,1,1,1B,0B,B10,3.19867311755068,0.669835500079176,0.451777637456262,0.451777637456262,0.451777637456262,0.451777637456262,0.698877205237608,0.5,0.451777637456262,0.408206067411123,0.5,0.666735613057491,0.408206067411123,0.5,0.5,0.368836745460618,0.727918910396039,0.737970698894857,0.262029301105143,0.698877205237608,0.451777637456262,0.38290817048045,0.875832488858703,0.301122794762392,0.0290417051584315,0.5,0.0964447250874763,0.301348522891999,1.32182332240192,3.11103920353775,0.5,143.121210639128
CBC_1014,CBC_1014_MSI_AV_v3_Vset6_Aset3_2023-06-25_12h37.50.287.csv,3,35,3,2,z,0,1,3,aud,C,63,1,3C,2C,0,1,z,1.78679779999948,0,1,1,1,2C,3C,C32,2.52572864430826,0.669835500079176,0.451777637456262,0.451777637456262,0.451777637456262,0.451777637456262,0.727918910396039,0.5,0.451777637456262,0.408206067411123,0.5,0.666735613057491,0.408206067411123,0.5,0.5,0.368836745460618,0.727918910396039,0.743615118574094,0.256384881425906,0.666735613057491,0.408206067411123,0.302251369551268,0.880831411930894,0.333264386942509,0.0321415921801166,0.5,0.0964447250874763,0.301348522891999,1.32182332240192,3.11103920353775,0.5,143.121210639128
CBC_1014,CBC_1014_MSI_AV_v3_Vset6_Aset3_2023-06-25_12h37.50.287.csv,3,36,0,2,b,1,0,2,aud,A,27,1,0A,2A,1,0,b,2.2608782999996,1,0,1,1,0A,2A,A02,3.23867845216438,0.669835500079176,0.451777637456262,0.451777637456262,0.451777637456262,0.451777637456262,0.727918910396039,0.5,0.451777637456262,0.408206067411123,0.5,0.698877205237608,0.408206067411123,0.5,0.5,0.368836745460618,0.727918910396039,0.711140994240807,0.288859005759193,0.669835500079176,0.451777637456262,0.209674060891882,0.850331294545217,0.330164499920824,0.0318426244285079,0.5,0.0964447250874763,0.301348522891999,1.32182332240192,3.11103920353775,0.5,143.121210639128
CBC_1014,CBC_1014_MSI_AV_v3_Vset6_Aset3_2023-06-25_12h37.50.287.csv,3,37,1,0,b,1,0,0,aud,B,63,1,1B,0B,1,0,b,2.35918649999985,1,0,1,1,1B,0B,B10,2.85263142991332,0.701678124507684,0.451777637456262,0.451777637456262,0.451777637456262,0.451777637456262,0.727918910396039,0.5,0.451777637456262,0.408206067411123,0.5,0.698877205237608,0.408206067411123,0.5,0.5,0.368836745460618,0.727918910396039,0.764512470640404,0.235487529359596,0.727918910396039,0.451777637456262,0.203827179824578,0.89802197192559,0.272081089603961,0.026240785888355,0.5,0.0964447250874763,0.301348522891999,1.32182332240192,3.11103920353775,0.5,143.121210639128
CBC_1014,CBC_1014_MSI_AV_v3_Vset6_Aset3_2023-06-25_12h37.50.287.csv,3,38,3,1,z,0,1,0,aud,B,27,1,3B,1B,0,1,z,1.14697569999953,0,1,1,1,1B,3B,B31,3.27714473299218,0.701678124507684,0.451777637456262,0.451777637456262,0.451777637456262,0.451777637456262,0.754159696284394,0.5,0.451777637456262,0.408206067411123,0.5,0.698877205237608,0.408206067411123,0.5,0.5,0.368836745460618,0.727918910396039,0.788250650236448,0.211749349763552,0.754159696284394,0.451777637456262,0.48752747137768,0.914054636496731,0.245840303715606,0.0237100005072733,0.5,0.0964447250874763,0.301348522891999,1.32182332240192,3.11103920353775,0.5,143.121210639128
CBC_1014,CBC_1014_MSI_AV_v3_Vset6_Aset3_2023-06-25_12h37.50.287.csv,3,39,3,2,z,0,1,3,aud,C,63,1,3C,2C,0,1,z,1.91794280000067,0,1,1,1,2C,3C,C32,2.37954613413017,0.701678124507684,0.451777637456262,0.451777637456262,0.451777637456262,0.451777637456262,0.777869696791667,0.5,0.451777637456262,0.408206067411123,0.5,0.698877205237608,0.408206067411123,0.5,0.5,0.368836745460618,0.727918910396039,0.770889971135574,0.229110028864426,0.698877205237608,0.408206067411123,0.285260492896874,0.902571053489991,0.301122794762392,0.0290417051584315,0.5,0.0964447250874763,0.301348522891999,1.32182332240192,3.11103920353775,0.5,143.121210639128
CBC_1014,CBC_1014_MSI_AV_v3_Vset6_Aset3_2023-06-25_12h37.50.287.csv,3,40,3,1,b,1,0,1,aud,D,27,1,3D,1D,1,0,b,2.42223650000051,1,0,1,1,3D,1D,D31,4.00733318523247,0.701678124507684,0.451777637456262,0.451777637456262,0.451777637456262,0.451777637456262,0.777869696791667,0.5,0.451777637456262,0.408206067411123,0.5,0.727918910396039,0.408206067411123,0.5,0.5,0.368836745460618,0.727918910396039,0.727918910396039,0.272081089603961,0.727918910396039,0.5,0.191160753138216,0.867213807244012,0.272081089603961,0.026240785888355,0.5,0.0964447250874763,0.301348522891999,1.32182332240192,3.11103920353775,0.5,143.121210639128
CBC_1014,CBC_1014_MSI_AV_v3_Vset6_Aset3_2023-06-25_12h37.50.287.csv,3,41,1,2,z,0,1,3,aud,C,9,1,1C,2C,0,1,z,2.1822927000012,0,1,1,1,2C,1C,C12,4.02535169073515,0.701678124507684,0.451777637456262,0.451777637456262,0.451777637456262,0.451777637456262,0.777869696791667,0.5,0.451777637456262,0.408206067411123,0.5,0.727918910396039,0.408206067411123,0.5,0.5,0.368836745460618,0.754159696284394,0.727918910396039,0.272081089603961,0.727918910396039,0.5,0.225205609513148,0.866180078965382,0.272081089603961,0.026240785888355,0.5,0.0964447250874763,0.301348522891999,1.32182332240192,3.11103920353775,0.5,143.121210639128
CBC_1014,CBC_1014_MSI_AV_v3_Vset6_Aset3_2023-06-25_12h37.50.287.csv,3,42,0,1,z,0,1,0,aud,B,63,0,0B,1B,1,0,z,3.10723909999979,0,1,1,0,1B,0B,B01,2.65675690671466,0.701678124507684,0.451777637456262,0.451777637456262,0.451777637456262,0.451777637456262,0.777869696791667,0.5,0.451777637456262,0.408206067411123,0.5,0.754159696284394,0.408206067411123,0.5,0.5,0.368836745460618,0.754159696284394,0.809503262307651,0.190496737692349,0.777869696791667,0.451777637456262,0.108395060619812,0.927165878200502,-0.777869696791667,-0.0750214290609509,0.5,0.0964447250874763,0.301348522891999,1.32182332240192,3.11103920353775,0.5,143.121210639128
CBC_1014,CBC_1014_MSI_AV_v3_Vset6_Aset3_2023-06-25_12h37.50.287.csv,3,43,3,2,b,1,0,1,aud,D,63,1,3D,2D,1,0,b,2.08986419999928,1,0,1,1,3D,2D,D32,2.26868354131836,0.701678124507684,0.451777637456262,0.451777637456262,0.451777637456262,0.451777637456262,0.702848267730716,0.5,0.451777637456262,0.408206067411123,0.5,0.754159696284394,0.408206067411123,0.5,0.5,0.368836745460618,0.754159696284394,0.839987143577012,0.160012856422988,0.754159696284394,0.368836745460618,0.255764749202044,0.942625156369247,0.245840303715606,0.0237100005072733,0.5,0.0964447250874763,0.301348522891999,1.32182332240192,3.11103920353775,0.5,143.121210639128
CBC_1014,CBC_1014_MSI_AV_v3_Vset6_Aset3_2023-06-25_12h37.50.287.csv,3,44,0,1,b,1,0,2,aud,A,63,1,0A,1A,1,0,b,2.60076090000075,1,0,1,1,0A,1A,A01,2.97892515523761,0.701678124507684,0.451777637456262,0.451777637456262,0.451777637456262,0.451777637456262,0.702848267730716,0.5,0.451777637456262,0.408206067411123,0.5,0.754159696284394,0.408206067411123,0.5,0.5,0.368836745460618,0.777869696791667,0.740542984291519,0.259457015708481,0.701678124507684,0.451777637456262,0.169727252563665,0.878588719787045,0.298321875492316,0.0287715712694367,0.5,0.0964447250874763,0.301348522891999,1.32182332240192,3.11103920353775,0.5,143.121210639128
CBC_1014,CBC_1014_MSI_AV_v3_Vset5_Aset2_2023-06-25_12h52.52.235.csv,4,1,1,0,z,0,1,2,aud,A,63,1,1A,0A,0,1,z,2.46510510000007,0,1,1,1,0A,1A,A10,2.77258872223978,0.5,0.5,0.5,0.5,0.5,0.5,0.5,0.5,0.5,0.5,0.5,0.5,0.5,0.5,0.5,0.5,0.5,0.5,0.5,0.5,0.108278330855705,0.500117862822899,0.5,0.00197729074078012,0.5,0.00395458148156025,0.332914906380586,6.6612223192737,2.98755449449717,0.5,90.4524288349155
CBC_1014,CBC_1014_MSI_AV_v3_Vset5_Aset2_2023-06-25_12h52.52.235.csv,4,2,3,2,z,0,1,3,aud,C,63,1,3C,2C,0,1,b,3.06062900000143,1,0,0,0,3C,2C,C32,2.83321334405622,0.50197729074078,0.5,0.5,0.5,0.5,0.5,0.5,0.5,0.5,0.5,0.5,0.5,0.5,0.5,0.5,0.5,0.5,0.5,0.5,0.5,0.0778550827989947,0.499707691500398,-0.5,-0.00197729074078012,0.5,0.00395458148156025,0.332914906380586,6.6612223192737,2.98755449449717,0.5,90.4524288349155
CBC_1014,CBC_1014_MSI_AV_v3_Vset5_Aset2_2023-06-25_12h52.52.235.csv,4,3,0,2,b,1,0,2,aud,A,27,1,0A,2A,1,0,z,1.51623630000176,0,1,0,0,2A,0A,A02,2.89037175789616,0.50197729074078,0.5,0.5,0.5,0.5,0.5,0.5,0.5,0.5,0.5,0.5,0.49802270925922,0.5,0.5,0.5,0.5,0.49802270925922,0.50197729074078,0.5,0.50197729074078,0.173442138873291,0.481510086180065,-0.5,-0.00197729074078012,0.5,0.00395458148156025,0.332914906380586,6.6612223192737,2.98755449449717,0.5,90.4524288349155
CBC_1014,CBC_1014_MSI_AV_v3_Vset5_Aset2_2023-06-25_12h52.52.235.csv,4,4,1,0,b,1,0,0,aud,B,63,1,1B,0B,1,0,b,2.23414590000175,1,0,1,1,1B,0B,B10,2.94443897916644,0.50197729074078,0.5,0.49802270925922,0.5,0.5,0.5,0.5,0.5,0.5,0.5,0.5,0.49802270925922,0.5,0.5,0.5,0.5,0.5,0.5,0.5,0.5,0.123060229264367,0.500468992283631,0.5,0.00197729074078012,0.5,0.00395458148156025,0.332914906380586,6.6612223192737,2.98755449449717,0.5,90.4524288349155
CBC_1014,CBC_1014_MSI_AV_v3_Vset5_Aset2_2023-06-25_12h52.52.235.csv,4,5,2,3,z,0,1,1,aud,D,63,1,2D,3D,0,1,z,2.75224910000179,0,1,1,1,3D,2D,D23,2.99573227355399,0.50197729074078,0.5,0.49802270925922,0.5,0.5,0.50197729074078,0.5,0.5,0.5,0.5,0.5,0.49802270925922,0.5,0.5,0.5,0.5,0.5,0.5,0.5,0.5,0.092407282957368,0.500161116077653,0.5,0.00197729074078012,0.5,0.00395458148156025,0.332914906380586,6.6612223192737,2.98755449449717,0.5,90.4524288349155
CBC_1014,CBC_1014_MSI_AV_v3_Vset5_Aset2_2023-06-25_12h52.52.235.csv,4,6,1,2,b,1,0,0,aud,B,9,1,1B,2B,1,0,z,2.32650920000196,0,1,0,0,2B,1B,B12,3.04452243772342,0.50197729074078,0.5,0.49802270925922,0.5,0.5,0.50197729074078,0.5,0.5,0.5,0.5,0.5,0.49802270925922,0.5,0.5,0.5,0.50197729074078,0.49802270925922,0.50197729074078,0.5,0.50197729074078,0.112615603554492,0.481845891386961,-0.5,-0.00197729074078012,0.5,0.00395458148156025,0.332914906380586,6.6612223192737,2.98755449449717,0.5,90.4524288349155
CBC_1014,CBC_1014_MSI_AV_v3_Vset5_Aset2_2023-06-25_12h52.52.235.csv,4,7,1,3,z,0,1,1,aud,D,27,1,1D,3D,0,1,z,2.61931150000237,0,1,1,1,3D,1D,D13,3.09104245335832,0.50197729074078,0.5,0.49802270925922,0.5,0.5,0.50197729074078,0.49802270925922,0.5,0.5,0.5,0.5,0.49802270925922,0.5,0.5,0.5,0.50197729074078,0.50197729074078,0.49802270925922,0.50197729074078,0.5,0.103381015810462,0.519943421115988,0.49802270925922,0.00196947138343297,0.5,0.00395458148156025,0.332914906380586,6.6612223192737,2.98755449449717,0.5,90.4524288349155
CBC_1014,CBC_1014_MSI_AV_v3_Vset5_Aset2_2023-06-25_12h52.52.235.csv,4,8,1,0,z,0,1,2,aud,A,63,1,1A,0A,0,1,z,3.06044400000064,0,1,1,1,0A,1A,A10,2.4423470353692,0.50197729074078,0.5,0.49802270925922,0.5,0.5,0.50197729074078,0.49802270925922,0.5,0.5,0.5,0.5,0.49802270925922,0.5,0.5,0.5,0.503946762124213,0.50197729074078,0.49802270925922,0.50197729074078,0.5,0.0810455897757044,0.520227400510089,0.49802270925922,0.00196947138343297,0.5,0.00395458148156025,0.332914906380586,6.6612223192737,2.98755449449717,0.5,90.4524288349155
CBC_1014,CBC_1014_MSI_AV_v3_Vset5_Aset2_2023-06-25_12h52.52.235.csv,4,9,0,1,b,1,0,2,aud,A,63,1,0A,1A,1,0,z,2.24324370000068,0,1,0,0,1A,0A,A01,3.17805383034795,0.503946762124213,0.5,0.49802270925922,0.5,0.5,0.50197729074078,0.49802270925922,0.5,0.5,0.5,0.5,0.49802270925922,0.5,0.5,0.5,0.503946762124213,0.496053237875787,0.503946762124213,0.5,0.503946762124213,0.112715111146167,0.460490025841787,-0.5,-0.00197729074078012,0.5,0.00395458148156025,0.332914906380586,6.6612223192737,2.98755449449717,0.5,90.4524288349155
CBC_1014,CBC_1014_MSI_AV_v3_Vset5_Aset2_2023-06-25_12h52.52.235.csv,4,10,2,0,b,1,0,3,aud,C,27,1,2C,0C,1,0,b,3.07936910000171,1,0,1,1,2C,0C,C20,3.2188758248682,0.503946762124213,0.49802270925922,0.49802270925922,0.5,0.5,0.50197729074078,0.49802270925922,0.5,0.5,0.5,0.5,0.49802270925922,0.5,0.5,0.5,0.503946762124213,0.5,0.5,0.5,0.5,0.0771846232311381,0.500563424826151,0.5,0.00197729074078012,0.5,0.00395458148156025,0.332914906380586,6.6612223192737,2.98755449449717,0.5,90.4524288349155
CBC_1014,CBC_1014_MSI_AV_v3_Vset5_Aset2_2023-06-25_12h52.52.235.csv,4,11,0,1,z,0,1,0,aud,B,63,1,0B,1B,0,1,z,2.50509590000001,0,1,1,1,1B,0B,B01,3.25809653802148,0.503946762124213,0.49802270925922,0.49802270925922,0.5,0.5,0.50197729074078,0.49802270925922,0.5,0.5,0.5,0.50197729074078,0.49802270925922,0.5,0.5,0.5,0.503946762124213,0.50197729074078,0.49802270925922,0.50197729074078,0.5,0.110125937840345,0.51999219232483,0.49802270925922,0.00196947138343297,0.5,0.00395458148156025,0.332914906380586,6.6612223192737,2.98755449449717,0.5,90.4524288349155
CBC_1014,CBC_1014_MSI_AV_v3_Vset5_Aset2_2023-06-25_12h52.52.235.csv,4,12,0,1,b,1,0,2,aud,A,63,1,0A,1A,1,0,z,2.56417030000193,0,1,0,0,1A,0A,A01,2.60268968544438,0.503946762124213,0.49802270925922,0.49802270925922,0.5,0.5,0.503946762124213,0.49802270925922,0.5,0.5,0.5,0.50197729074078,0.49802270925922,0.5,0.5,0.5,0.503946762124213,0.494076132052009,0.505923867947991,0.49802270925922,0.503946762124213,0.090490739787137,0.441460476331651,-0.49802270925922,-0.00196947138343297,0.5,0.00395458148156025,0.332914906380586,6.6612223192737,2.98755449449717,0.5,90.4524288349155
CBC_1014,CBC_1014_MSI_AV_v3_Vset5_Aset2_2023-06-25_12h52.52.235.csv,4,13,3,2,z,0,1,3,aud,C,63,1,3C,2C,0,1,b,2.67195240000183,1,0,0,0,3C,2C,C32,2.63905732961526,0.503946762124213,0.496053237875787,0.49802270925922,0.5,0.5,0.503946762124213,0.49802270925922,0.5,0.5,0.5,0.50197729074078,0.49802270925922,0.5,0.5,0.5,0.503946762124213,0.496045480362044,0.503954519637956,0.49802270925922,0.50197729074078,0.0889495947143727,0.46062370473785,-0.49802270925922,-0.00196947138343297,0.5,0.00395458148156025,0.332914906380586,6.6612223192737,2.98755449449717,0.5,90.4524288349155
CBC_1014,CBC_1014_MSI_AV_v3_Vset5_Aset2_2023-06-25_12h52.52.235.csv,4,14,0,2,b,1,0,2,aud,A,27,1,0A,2A,1,0,z,2.29628270000285,0,1,0,0,2A,0A,A02,2.67414864942653,0.503946762124213,0.496053237875787,0.49802270925922,0.5,0.5,0.503946762124213,0.49802270925922,0.5,0.5,0.5,0.50197729074078,0.496053237875787,0.5,0.5,0.5,0.503946762124213,0.494076132052009,0.505923867947991,0.49802270925922,0.503946762124213,0.104777928447486,0.440570029286785,-0.49802270925922,-0.00196947138343297,0.5,0.00395458148156025,0.332914906380586,6.6612223192737,2.98755449449717,0.5,90.4524288349155
CBC_1014,CBC_1014_MSI_AV_v3_Vset5_Aset2_2023-06-25_12h52.52.235.csv,4,15,1,0,b,1,0,0,aud,B,63,1,1B,0B,1,0,z,2.72765520000212,0,1,0,0,0B,1B,B10,2.70805020110221,0.503946762124213,0.496053237875787,0.496053237875787,0.5,0.5,0.503946762124213,0.49802270925922,0.5,0.5,0.5,0.50197729074078,0.496053237875787,0.5,0.5,0.5,0.503946762124213,0.496053237875787,0.503946762124213,0.5,0.503946762124213,0.086400838777816,0.461440665198068,-0.5,-0.00197729074078012,0.5,0.00395458148156025,0.332914906380586,6.6612223192737,2.98755449449717,0.5,90.4524288349155
CBC_1014,CBC_1014_MSI_AV_v3_Vset5_Aset2_2023-06-25_12h52.52.235.csv,4,16,0,1,z,0,1,0,aud,B,63,1,0B,1B,0,1,z,1.8819132000026,0,1,1,1,1B,0B,B01,2.7408400239252,0.503946762124213,0.496053237875787,0.496053237875787,0.5,0.49802270925922,0.503946762124213,0.49802270925922,0.5,0.5,0.5,0.50197729074078,0.496053237875787,0.5,0.5,0.5,0.503946762124213,0.505923867947991,0.494076132052009,0.503946762124213,0.49802270925922,0.166843694924511,0.558684107857768,0.496053237875787,0.00196168294837159,0.5,0.00395458148156025,0.332914906380586,6.6612223192737,2.98755449449717,0.5,90.4524288349155
CBC_1014,CBC_1014_MSI_AV_v3_Vset5_Aset2_2023-06-25_12h52.52.235.csv,4,17,3,2,z,0,1,3,aud,C,63,1,3C,2C,0,1,z,2.62228010000217,0,1,1,1,2C,3C,C32,2.36712361413162,0.503946762124213,0.496053237875787,0.496053237875787,0.5,0.49802270925922,0.505908445072585,0.49802270925922,0.5,0.5,0.5,0.50197729074078,0.496053237875787,0.5,0.5,0.5,0.503946762124213,0.505923867947991,0.494076132052009,0.50197729074078,0.496053237875787,0.110760045759232,0.558065795796386,0.49802270925922,0.00196947138343297,0.5,0.00395458148156025,0.332914906380586,6.6612223192737,2.98755449449717,0.5,90.4524288349155
CBC_1014,CBC_1014_MSI_AV_v3_Vset5_Aset2_2023-06-25_12h52.52.235.csv,4,18,3,1,b,1,0,1,aud,D,27,1,3D,1D,1,0,z,2.90110380000078,0,1,0,0,1D,3D,D31,3.49650756146648,0.503946762124213,0.496053237875787,0.496053237875787,0.5,0.49802270925922,0.505908445072585,0.49802270925922,0.5,0.5,0.5,0.503946762124213,0.496053237875787,0.5,0.5,0.5,0.503946762124213,0.496053237875787,0.503946762124213,0.5,0.503946762124213,0.0783397480162517,0.460595897927139,-0.5,-0.00197729074078012,0.5,0.00395458148156025,0.332914906380586,6.6612223192737,2.98755449449717,0.5,90.4524288349155
CBC_1014,CBC_1014_MSI_AV_v3_Vset5_Aset2_2023-06-25_12h52.52.235.csv,4,19,1,2,z,0,1,3,aud,C,9,1,1C,2C,0,1,z,2.72130260000267,0,1,1,1,2C,1C,C12,3.52636052461616,0.503946762124213,0.496053237875787,0.496053237875787,0.5,0.49802270925922,0.505908445072585,0.49802270925922,0.5,0.5,0.5,0.503946762124213,0.496053237875787,0.5,0.49802270925922,0.5,0.503946762124213,0.503946762124213,0.496053237875787,0.503946762124213,0.5,0.101177700113111,0.538460815161366,0.496053237875787,0.00196168294837159,0.5,0.00395458148156025,0.332914906380586,6.6612223192737,2.98755449449717,0.5,90.4524288349155
CBC_1014,CBC_1014_MSI_AV_v3_Vset5_Aset2_2023-06-25_12h52.52.235.csv,4,20,3,1,z,0,1,0,aud,B,27,1,3B,1B,0,1,z,2.44204060000084,0,1,1,1,1B,3B,B31,3.55534806148941,0.503946762124213,0.496053237875787,0.496053237875787,0.5,0.49802270925922,0.505908445072585,0.49802270925922,0.5,0.5,0.5,0.505908445072585,0.496053237875787,0.5,0.49802270925922,0.5,0.503946762124213,0.505908445072585,0.494091554927415,0.505908445072585,0.5,0.122716260812425,0.559427308635109,0.494091554927415,0.00195392531331126,0.5,0.00395458148156025,0.332914906380586,6.6612223192737,2.98755449449717,0.5,90.4524288349155
CBC_1014,CBC_1014_MSI_AV_v3_Vset5_Aset2_2023-06-25_12h52.52.235.csv,4,21,3,2,b,1,0,1,aud,D,63,1,3D,2D,NaN,NaN,[],NaN,NaN,NaN,NaN,NaN,,,D32,3.58351893845611,0.503946762124213,0.496053237875787,0.496053237875787,0.5,0.49802270925922,0.507862370385896,0.49802270925922,0.5,0.5,0.5,0.505908445072585,0.496053237875787,0.5,0.49802270925922,0.5,0.503946762124213,0,0,0,0,NaN,0,0,0,0.5,0.00395458148156025,0.332914906380586,6.6612223192737,2.98755449449717,0.5,90.4524288349155
CBC_1014,CBC_1014_MSI_AV_v3_Vset5_Aset2_2023-06-25_12h52.52.235.csv,4,22,1,0,b,1,0,0,aud,B,63,0,1B,0B,0,1,z,2.33586850000029,0,1,0,1,0B,1B,B10,2.51230562397611,0.503946762124213,0.496053237875787,0.496053237875787,0.5,0.49802270925922,0.507862370385896,0.49802270925922,0.5,0.5,0.5,0.505908445072585,0.496053237875787,0.5,0.49802270925922,0.5,0.503946762124213,0.490160950712328,0.509839049287672,0.49802270925922,0.507862370385896,0.0938943717878302,0.403102919953398,0.50197729074078,0.00198511009812727,0.5,0.00395458148156025,0.332914906380586,6.6612223192737,2.98755449449717,0.5,90.4524288349155
CBC_1014,CBC_1014_MSI_AV_v3_Vset5_Aset2_2023-06-25_12h52.52.235.csv,4,23,3,0,z,0,1,2,aud,A,9,1,3A,0A,0,1,b,2.52424160000191,1,0,0,0,3A,0A,A30,3.63758615972639,0.503946762124213,0.496053237875787,0.496053237875787,0.5,0.500007819357347,0.507862370385896,0.49802270925922,0.5,0.5,0.5,0.505908445072585,0.496053237875787,0.5,0.49802270925922,0.5,0.503946762124213,0.496053237875787,0.503946762124213,0.5,0.503946762124213,0.0966318121092105,0.461109645301983,-0.5,-0.00197729074078012,0.5,0.00395458148156025,0.332914906380586,6.6612223192737,2.98755449449717,0.5,90.4524288349155
CBC_1014,CBC_1014_MSI_AV_v3_Vset5_Aset2_2023-06-25_12h52.52.235.csv,4,24,2,3,z,0,1,1,aud,D,63,1,2D,3D,0,1,z,2.37839390000045,0,1,1,1,3D,2D,D23,2.9704144655697,0.503946762124213,0.496053237875787,0.496053237875787,0.49802270925922,0.500007819357347,0.507862370385896,0.49802270925922,0.5,0.5,0.5,0.505908445072585,0.496053237875787,0.5,0.49802270925922,0.5,0.503946762124213,0.503946762124213,0.496053237875787,0.503946762124213,0.5,0.122615373101595,0.53974726014963,0.496053237875787,0.00196168294837159,0.5,0.00395458148156025,0.332914906380586,6.6612223192737,2.98755449449717,0.5,90.4524288349155
CBC_1014,CBC_1014_MSI_AV_v3_Vset5_Aset2_2023-06-25_12h52.52.235.csv,4,25,1,3,b,1,0,0,aud,B,27,1,1B,3B,1,0,b,2.51400360000116,1,0,1,1,1B,3B,B13,3.68887945411394,0.503946762124213,0.496053237875787,0.496053237875787,0.49802270925922,0.500007819357347,0.507862370385896,0.49802270925922,0.5,0.5,0.5,0.505908445072585,0.496053237875787,0.5,0.49802270925922,0.5,0.505908445072585,0.507862370385896,0.492137629614104,0.507862370385896,0.5,0.121774027292089,0.577707551766135,0.492137629614104,0.00194619835645089,0.5,0.00395458148156025,0.332914906380586,6.6612223192737,2.98755449449717,0.5,90.4524288349155
CBC_1014,CBC_1014_MSI_AV_v3_Vset5_Aset2_2023-06-25_12h52.52.235.csv,4,26,2,3,b,1,0,3,aud,C,63,1,2C,3C,1,0,z,1.63751310000043,0,1,0,0,3C,2C,C23,3.71357206670431,0.503946762124213,0.496053237875787,0.496053237875787,0.49802270925922,0.500007819357347,0.509808568742347,0.49802270925922,0.5,0.5,0.5,0.505908445072585,0.496053237875787,0.5,0.49802270925922,0.5,0.505908445072585,0.490145711980728,0.509854288019272,0.496053237875787,0.505908445072585,0.137992929340015,0.403908034847495,-0.496053237875787,-0.00196168294837159,0.5,0.00395458148156025,0.332914906380586,6.6612223192737,2.98755449449717,0.5,90.4524288349155
CBC_1014,CBC_1014_MSI_AV_v3_Vset5_Aset2_2023-06-25_12h52.52.235.csv,4,27,2,0,b,1,0,3,aud,C,27,1,2C,0C,1,0,z,2.42639900000177,0,1,0,0,0C,2C,C20,3.04452243772342,0.503946762124213,0.496053237875787,0.496053237875787,0.49802270925922,0.500007819357347,0.509808568742347,0.49802270925922,0.5,0.5,0.5,0.505908445072585,0.494091554927415,0.5,0.49802270925922,0.5,0.505908445072585,0.494091554927415,0.505908445072585,0.5,0.505908445072585,0.0977455205344201,0.441749628479951,-0.5,-0.00197729074078012,0.5,0.00395458148156025,0.332914906380586,6.6612223192737,2.98755449449717,0.5,90.4524288349155
CBC_1014,CBC_1014_MSI_AV_v3_Vset5_Aset2_2023-06-25_12h52.52.235.csv,4,28,0,1,z,0,1,0,aud,B,63,1,0B,1B,0,1,z,2.48048230000131,0,1,1,1,1B,0B,B01,2.66258782702545,0.503946762124213,0.496053237875787,0.496053237875787,0.49802270925922,0.500007819357347,0.509808568742347,0.49802270925922,0.5,0.49802270925922,0.5,0.505908445072585,0.494091554927415,0.5,0.49802270925922,0.5,0.505908445072585,0.509800752391741,0.490199247608259,0.509808568742347,0.500007819357347,0.127952093528226,0.595673178115057,0.490191431257653,0.00193850195647103,0.5,0.00395458148156025,0.332914906380586,6.6612223192737,2.98755449449717,0.5,90.4524288349155
CBC_1014,CBC_1014_MSI_AV_v3_Vset5_Aset2_2023-06-25_12h52.52.235.csv,4,29,2,3,b,1,0,3,aud,C,63,1,2C,3C,NaN,NaN,[],NaN,NaN,NaN,NaN,NaN,,,C23,3.09104245335832,0.503946762124213,0.496053237875787,0.496053237875787,0.49802270925922,0.500007819357347,0.511747070698818,0.49802270925922,0.5,0.49802270925922,0.5,0.505908445072585,0.494091554927415,0.5,0.49802270925922,0.5,0.505908445072585,0,0,0,0,NaN,0,0,0,0.5,0.00395458148156025,0.332914906380586,6.6612223192737,2.98755449449717,0.5,90.4524288349155
CBC_1014,CBC_1014_MSI_AV_v3_Vset5_Aset2_2023-06-25_12h52.52.235.csv,4,30,1,0,z,0,1,2,aud,A,63,1,1A,0A,NaN,NaN,[],NaN,NaN,NaN,NaN,NaN,,,A10,2.70805020110221,0.503946762124213,0.496053237875787,0.496053237875787,0.49802270925922,0.500007819357347,0.511747070698818,0.49802270925922,0.5,0.49802270925922,0.5,0.505908445072585,0.494091554927415,0.5,0.49802270925922,0.5,0.505908445072585,0,0,0,0,NaN,0,0,0,0.5,0.00395458148156025,0.332914906380586,6.6612223192737,2.98755449449717,0.5,90.4524288349155
CBC_1014,CBC_1014_MSI_AV_v3_Vset5_Aset2_2023-06-25_12h52.52.235.csv,4,31,2,3,z,0,1,1,aud,D,63,1,2D,3D,0,1,z,1.63822960000107,0,1,1,1,3D,2D,D23,2.73002910782099,0.503946762124213,0.496053237875787,0.496053237875787,0.49802270925922,0.500007819357347,0.511747070698818,0.49802270925922,0.5,0.49802270925922,0.5,0.505908445072585,0.494091554927415,0.5,0.49802270925922,0.5,0.505908445072585,0.505908445072585,0.494091554927415,0.505908445072585,0.5,0.189433647187845,0.557457470419048,0.494091554927415,0.00195392531331126,0.5,0.00395458148156025,0.332914906380586,6.6612223192737,2.98755449449717,0.5,90.4524288349155
CBC_1014,CBC_1014_MSI_AV_v3_Vset5_Aset2_2023-06-25_12h52.52.235.csv,4,32,2,3,b,1,0,3,aud,C,63,1,2C,3C,1,0,b,2.37066000000232,1,0,1,1,2C,3C,C23,2.75153531304195,0.503946762124213,0.496053237875787,0.496053237875787,0.49802270925922,0.500007819357347,0.511747070698818,0.49802270925922,0.5,0.49802270925922,0.5,0.505908445072585,0.494091554927415,0.5,0.49802270925922,0.5,0.507862370385896,0.5118152402781,0.4881847597219,0.505908445072585,0.494091554927415,0.140812415735583,0.616036729030058,0.494091554927415,0.00195392531331126,0.5,0.00395458148156025,0.332914906380586,6.6612223192737,2.98755449449717,0.5,90.4524288349155
CBC_1014,CBC_1014_MSI_AV_v3_Vset5_Aset2_2023-06-25_12h52.52.235.csv,4,33,3,1,b,1,0,1,aud,D,27,1,3D,1D,1,0,z,2.32476930000121,0,1,0,0,1D,3D,D31,3.17805383034795,0.503946762124213,0.496053237875787,0.496053237875787,0.49802270925922,0.500007819357347,0.511747070698818,0.49802270925922,0.5,0.49802270925922,0.5,0.507862370385896,0.494091554927415,0.5,0.49802270925922,0.5,0.507862370385896,0.490160950712328,0.509839049287672,0.49802270925922,0.507862370385896,0.0945222485747771,0.403288785491909,-0.49802270925922,-0.00196947138343297,0.5,0.00395458148156025,0.332914906380586,6.6612223192737,2.98755449449717,0.5,90.4524288349155
CBC_1014,CBC_1014_MSI_AV_v3_Vset5_Aset2_2023-06-25_12h52.52.235.csv,4,34,0,2,z,0,1,3,aud,C,27,1,0C,2C,0,1,z,2.53470540000126,0,1,1,1,2C,0C,C02,3.89182029811063,0.503946762124213,0.496053237875787,0.496053237875787,0.49802270925922,0.500007819357347,0.511747070698818,0.49802270925922,0.5,0.49802270925922,0.5,0.507862370385896,0.494091554927415,0.5,0.496053237875787,0.5,0.507862370385896,0.509839049287672,0.490160950712328,0.507862370385896,0.49802270925922,0.124110437850112,0.59561560652671,0.492137629614104,0.00194619835645089,0.5,0.00395458148156025,0.332914906380586,6.6612223192737,2.98755449449717,0.5,90.4524288349155
CBC_1014,CBC_1014_MSI_AV_v3_Vset5_Aset2_2023-06-25_12h52.52.235.csv,4,35,2,3,z,0,1,1,aud,D,63,0,2D,3D,1,0,z,3.12190960000225,0,1,1,0,3D,2D,D23,2.52572864430826,0.503946762124213,0.496053237875787,0.496053237875787,0.49802270925922,0.500007819357347,0.511747070698818,0.49802270925922,0.5,0.49802270925922,0.5,0.509808568742347,0.494091554927415,0.5,0.496053237875787,0.5,0.507862370385896,0.507862370385896,0.492137629614104,0.507862370385896,0.5,0.086659820017288,0.57715664353376,-0.507862370385896,-0.00200838312510936,0.5,0.00395458148156025,0.332914906380586,6.6612223192737,2.98755449449717,0.5,90.4524288349155
CBC_1014,CBC_1014_MSI_AV_v3_Vset5_Aset2_2023-06-25_12h52.52.235.csv,4,36,1,0,z,0,1,2,aud,A,63,1,1A,0A,0,1,z,2.1782112000019,0,1,1,1,0A,1A,A10,2.54553127160444,0.503946762124213,0.496053237875787,0.496053237875787,0.49802270925922,0.500007819357347,0.511747070698818,0.49802270925922,0.5,0.49802270925922,0.5,0.509808568742347,0.494091554927415,0.5,0.496053237875787,0.5,0.505853987260787,0.50789303245153,0.49210696754847,0.503946762124213,0.496053237875787,0.146741087183249,0.577518024875389,0.496053237875787,0.00196168294837159,0.5,0.00395458148156025,0.332914906380586,6.6612223192737,2.98755449449717,0.5,90.4524288349155
CBC_1014,CBC_1014_MSI_AV_v3_Vset5_Aset2_2023-06-25_12h52.52.235.csv,4,37,2,3,b,1,0,3,aud,C,63,1,2C,3C,1,0,z,1.65080430000307,0,1,0,0,3C,2C,C23,2.56494935746154,0.505908445072585,0.496053237875787,0.496053237875787,0.49802270925922,0.500007819357347,0.511747070698818,0.49802270925922,0.5,0.49802270925922,0.5,0.509808568742347,0.494091554927415,0.5,0.496053237875787,0.5,0.505853987260787,0.484286628757574,0.515713371242426,0.494091554927415,0.509808568742347,0.119771020550973,0.348972323089276,-0.494091554927415,-0.00195392531331127,0.5,0.00395458148156025,0.332914906380586,6.6612223192737,2.98755449449717,0.5,90.4524288349155
CBC_1014,CBC_1014_MSI_AV_v3_Vset5_Aset2_2023-06-25_12h52.52.235.csv,4,38,0,2,b,1,0,2,aud,A,27,1,0A,2A,1,0,z,1.7897406000011,0,1,0,0,2A,0A,A02,2.87167962488401,0.505908445072585,0.496053237875787,0.496053237875787,0.49802270925922,0.500007819357347,0.511747070698818,0.49802270925922,0.5,0.49802270925922,0.5,0.509808568742347,0.492137629614104,0.5,0.496053237875787,0.5,0.505853987260787,0.490145711980728,0.509854288019272,0.496053237875787,0.505908445072585,0.127268521387433,0.403881050264425,-0.496053237875787,-0.00196168294837159,0.5,0.00395458148156025,0.332914906380586,6.6612223192737,2.98755449449717,0.5,90.4524288349155
CBC_1014,CBC_1014_MSI_AV_v3_Vset5_Aset2_2023-06-25_12h52.52.235.csv,4,39,2,3,z,0,1,1,aud,D,63,1,2D,3D,0,1,z,2.71271480000178,0,1,1,1,3D,2D,D23,2.37954613413017,0.505908445072585,0.496053237875787,0.494091554927415,0.49802270925922,0.500007819357347,0.511747070698818,0.49802270925922,0.5,0.49802270925922,0.5,0.509808568742347,0.492137629614104,0.5,0.496053237875787,0.5,0.505853987260787,0.505853987260787,0.494146012739213,0.505853987260787,0.5,0.105463965347394,0.558764711185213,0.494146012739213,0.00195414067116533,0.5,0.00395458148156025,0.332914906380586,6.6612223192737,2.98755449449717,0.5,90.4524288349155
CBC_1014,CBC_1014_MSI_AV_v3_Vset5_Aset2_2023-06-25_12h52.52.235.csv,4,40,3,2,b,1,0,1,aud,D,63,1,3D,2D,1,0,b,1.30784770000173,1,0,1,1,3D,2D,D32,3.31418600467253,0.505908445072585,0.496053237875787,0.494091554927415,0.49802270925922,0.500007819357347,0.511747070698818,0.49802270925922,0.5,0.49802270925922,0.5,0.509808568742347,0.492137629614104,0.5,0.496053237875787,0.5,0.507808127931952,0.507808127931952,0.492191872068048,0.507808127931952,0.5,0.229049984294518,0.577237423696052,0.492191872068048,0.00194641286265477,0.5,0.00395458148156025,0.332914906380586,6.6612223192737,2.98755449449717,0.5,90.4524288349155
CBC_1014,CBC_1014_MSI_AV_v3_Vset5_Aset2_2023-06-25_12h52.52.235.csv,4,41,3,1,z,0,1,0,aud,B,27,1,3B,1B,0,1,z,2.02705700000115,0,1,1,1,1B,3B,B31,3.3322045101752,0.505908445072585,0.496053237875787,0.494091554927415,0.49802270925922,0.500007819357347,0.511747070698818,0.49802270925922,0.5,0.49802270925922,0.5,0.509808568742347,0.492137629614104,0.5,0.496053237875787,0.5,0.509754540794607,0.511747070698818,0.488252929301182,0.511747070698818,0.5,0.170818135194826,0.61615239997275,0.488252929301182,0.001930835992532,0.5,0.00395458148156025,0.332914906380586,6.6612223192737,2.98755449449717,0.5,90.4524288349155
