ID,session,trialNr,mod2Stim,visStimLeft,visStimRight,correctKey,frequency,rewardAccurate,probFB,stimPairLeft,stimPairRight,leftCorrect,rightCorrect,pCorrectLeft,pCorrectRight,triplet,rt,surprise,0A belief,1A belief,2A belief,3A belief,0B belief,1B belief,2B belief,3B belief,0C belief,1C belief,2C belief,3C belief,0D belief,1D belief,2D belief,3D belief,reactionTime,choice,choiceLeft,choiceRight,chosenPair,otherPair,beliefPair,beliefOtherPair,beliefPairNorm,beliefOtherPairNorm,choiceAccurate,reward,rewardPE,update2,sim_CBCsimpleRW_CBCdriftDiffusionLR_startBelief,sim_CBCsimpleRW_CBCdriftDiffusionLR_alpha1,sim_CBCsimpleRW_CBCdriftDiffusionLR_nonDecisionTime,sim_CBCsimpleRW_CBCdriftDiffusionLR_weight,sim_CBCsimpleRW_CBCdriftDiffusionLR_startingBoundary,sim_CBCsimpleRW_CBCdriftDiffusionLR_startingPoint,lik,corrLik,fitCBCsimpleRW_CBCdriftDiffusionLR_startBelief,fitCBCsimpleRW_CBCdriftDiffusionLR_alpha1,fitCBCsimpleRW_CBCdriftDiffusionLR_nonDecisionTime,fitCBCsimpleRW_CBCdriftDiffusionLR_weight,fitCBCsimpleRW_CBCdriftDiffusionLR_startingBoundary,fitCBCsimpleRW_CBCdriftDiffusionLR_startingPoint,fit_CBCsimpleRW_CBCdriftDiffusionLR_NLL
106,1,1,A,1,0,l,63,1,0.95,1A,0A,0,1,0,1,A10,1.38990684586471,2.77258872223978,0.5,0.5,0.5,0.5,0.5,0.5,0.5,0.5,0.5,0.5,0.5,0.5,0.5,0.5,0.5,0.5,4.2191874196321,0,0,1,0A,1A,0.5,0.5,0.5,0.5,1,1,0.5,0.120890706465608,0.5,0.217505336095561,0.355187419632098,12.0260901942981,4.29346122772474,0.5,0.0605550160867159,0.499760696863076,0.5,0.241781412931216,0.371552039150135,12.552603307708,4.52771424320934,0.5,19.0443355998225
106,1,2,C,3,2,l,63,1,0.95,3C,2C,0,1,0,1,C32,2.38768146771309,2.83321334405622,0.620890706465608,0.5,0.5,0.5,0.5,0.5,0.5,0.5,0.5,0.5,0.5,0.5,0.5,0.5,0.5,0.5,7.4581874196321,0,0,1,2C,3C,0.5,0.5,0.5,0.5,1,1,0.5,0.120890706465608,0.5,0.217505336095561,0.355187419632098,12.0260901942981,4.29346122772474,0.5,0.0279074135473755,0.501371769689509,0.5,0.241781412931216,0.371552039150135,12.552603307708,4.52771424320934,0.5,19.0443355998225
106,1,3,A,0,2,a,27,1,0.95,0A,2A,1,0,1,0,A02,2.03048721262972,2.89037175789616,0.620890706465608,0.5,0.5,0.5,0.5,0.5,0.5,0.5,0.5,0.5,0.620890706465608,0.5,0.5,0.5,0.5,0.5,2.2701874196321,1,1,0,0A,2A,0.620890706465608,0.5,0.553926179318053,0.446073820681947,1,1,0.379109293534392,0.0916615806461003,0.5,0.217505336095561,0.355187419632098,12.0260901942981,4.29346122772474,0.5,0.336752908209148,0.99782831254975,0.5,0.241781412931216,0.371552039150135,12.552603307708,4.52771424320934,0.5,19.0443355998225
106,1,4,B,1,0,a,63,1,0.95,1B,0B,1,0,1,0,B10,0.663251222763727,2.94443897916644,0.712552287111708,0.5,0.5,0.5,0.5,0.5,0.5,0.5,0.5,0.5,0.620890706465608,0.5,0.5,0.5,0.5,0.5,4.1281874196321,1,1,0,1B,0B,0.5,0.5,0.5,0.5,1,1,0.5,0.120890706465608,0.5,0.217505336095561,0.355187419632098,12.0260901942981,4.29346122772474,0.5,0.0621324946393568,0.501843072167737,0.5,0.241781412931216,0.371552039150135,12.552603307708,4.52771424320934,0.5,19.0443355998225
106,1,5,D,2,3,l,63,1,0.95,2D,3D,0,1,0,1,D23,2.92640881434615,2.99573227355399,0.712552287111708,0.5,0.5,0.5,0.5,0.620890706465608,0.5,0.5,0.5,0.5,0.620890706465608,0.5,0.5,0.5,0.5,0.5,7.6971874196321,0,0,1,3D,2D,0.5,0.5,0.5,0.5,1,1,0.5,0.120890706465608,0.5,0.217505336095561,0.355187419632098,12.0260901942981,4.29346122772474,0.5,0.0262621383414998,0.499752576017066,0.5,0.241781412931216,0.371552039150135,12.552603307708,4.52771424320934,0.5,19.0443355998225
106,1,6,B,1,2,a,9,1,0.95,1B,2B,1,0,1,0,B12,0.221302571257688,3.04452243772342,0.712552287111708,0.5,0.5,0.5,0.5,0.620890706465608,0.5,0.5,0.5,0.5,0.620890706465608,0.5,0.5,0.5,0.5,0.620890706465608,1.9181874196321,1,1,0,1B,2B,0.620890706465608,0.5,0.553926179318053,0.446073820681947,1,1,0.379109293534392,0.0916615806461003,0.5,0.217505336095561,0.355187419632098,12.0260901942981,4.29346122772474,0.5,0.465142741774793,0.997823333660966,0.5,0.241781412931216,0.371552039150135,12.552603307708,4.52771424320934,0.5,19.0443355998225
106,1,7,D,1,3,l,27,1,0.95,1D,3D,0,1,0,1,D13,0.794728521878535,3.09104245335832,0.712552287111708,0.5,0.5,0.5,0.5,0.712552287111708,0.5,0.5,0.5,0.5,0.620890706465608,0.5,0.5,0.5,0.5,0.620890706465608,3.2101874196321,0,0,1,3D,1D,0.620890706465608,0.5,0.553926179318053,0.446073820681947,1,1,0.379109293534392,0.0916615806461003,0.5,0.217505336095561,0.355187419632098,12.0260901942981,4.29346122772474,0.5,0.121308894108897,0.997834498390476,0.5,0.241781412931216,0.371552039150135,12.552603307708,4.52771424320934,0.5,19.0443355998225
106,1,8,A,1,0,l,63,1,0.95,1A,0A,0,1,0,1,A10,0.173940583590689,2.4423470353692,0.712552287111708,0.5,0.5,0.5,0.5,0.712552287111708,0.5,0.5,0.5,0.5,0.620890706465608,0.5,0.5,0.5,0.5,0.712552287111708,1.2271874196321,0,0,1,0A,1A,0.712552287111708,0.5,0.587646648054249,0.412353351945751,1,1,0.287447712888292,0.0694995141659776,0.5,0.217505336095561,0.355187419632098,12.0260901942981,4.29346122772474,0.5,1.04856348488455,0.99995304952161,0.5,0.241781412931216,0.371552039150135,12.552603307708,4.52771424320934,0.5,19.0443355998225
106,1,9,A,0,1,a,63,1,0.95,0A,1A,1,0,1,0,A01,0.821196361217103,3.17805383034795,0.782051801277686,0.5,0.5,0.5,0.5,0.712552287111708,0.5,0.5,0.5,0.5,0.620890706465608,0.5,0.5,0.5,0.5,0.712552287111708,0.832187419632098,1,1,0,0A,1A,0.782051801277686,0.5,0.610000157948608,0.389999842051392,1,1,0.217948198722314,0.0526958234328945,0.5,0.217505336095561,0.355187419632098,12.0260901942981,4.29346122772474,0.5,0.993018275463604,0.999996283797538,0.5,0.241781412931216,0.371552039150135,12.552603307708,4.52771424320934,0.5,19.0443355998225
106,1,10,C,2,0,a,27,1,0.95,2C,0C,1,0,1,0,C20,1.64113210268002,3.2188758248682,0.83474762471058,0.5,0.5,0.5,0.5,0.712552287111708,0.5,0.5,0.5,0.5,0.620890706465608,0.5,0.5,0.5,0.5,0.712552287111708,1.1391874196321,1,1,0,2C,0C,0.620890706465608,0.5,0.553926179318053,0.446073820681947,1,1,0.379109293534392,0.0916615806461003,0.5,0.217505336095561,0.355187419632098,12.0260901942981,4.29346122772474,0.5,0.505647295089191,0.997828433731284,0.5,0.241781412931216,0.371552039150135,12.552603307708,4.52771424320934,0.5,19.0443355998225
106,1,11,B,0,1,l,63,1,0.95,0B,1B,0,1,0,1,B01,2.87934518842142,3.25809653802148,0.83474762471058,0.5,0.5,0.5,0.5,0.712552287111708,0.5,0.5,0.5,0.5,0.712552287111708,0.5,0.5,0.5,0.5,0.712552287111708,1.2931874196321,0,0,1,1B,0B,0.712552287111708,0.5,0.587646648054249,0.412353351945751,1,1,0.287447712888292,0.0694995141659776,0.5,0.217505336095561,0.355187419632098,12.0260901942981,4.29346122772474,0.5,0.990258880264319,0.999952753297268,0.5,0.241781412931216,0.371552039150135,12.552603307708,4.52771424320934,0.5,19.0443355998225
106,1,12,A,0,1,a,63,1,0.95,0A,1A,1,0,1,0,A01,2.60536541928486,2.60268968544438,0.83474762471058,0.5,0.5,0.5,0.5,0.782051801277686,0.5,0.5,0.5,0.5,0.712552287111708,0.5,0.5,0.5,0.5,0.712552287111708,1.6621874196321,1,1,0,0A,1A,0.83474762471058,0.5,0.625397347975489,0.374602652024511,1,1,0.16525237528942,0.0399549527877154,0.5,0.217505336095561,0.355187419632098,12.0260901942981,4.29346122772474,0.5,0.17549936823804,0.999999357192554,0.5,0.241781412931216,0.371552039150135,12.552603307708,4.52771424320934,0.5,19.0443355998225
106,1,13,C,3,2,l,63,1,0.95,3C,2C,0,1,0,1,C32,1.35991654132934,2.63905732961526,0.874702577498296,0.5,0.5,0.5,0.5,0.782051801277686,0.5,0.5,0.5,0.5,0.712552287111708,0.5,0.5,0.5,0.5,0.712552287111708,2.7431874196321,0,0,1,2C,3C,0.712552287111708,0.5,0.587646648054249,0.412353351945751,1,1,0.287447712888292,0.0694995141659776,0.5,0.217505336095561,0.355187419632098,12.0260901942981,4.29346122772474,0.5,0.0393248716679886,0.999952706337022,0.5,0.241781412931216,0.371552039150135,12.552603307708,4.52771424320934,0.5,19.0443355998225
106,1,14,A,0,2,a,27,1,0.95,0A,2A,1,0,1,0,A02,3.1203540550807,2.67414864942653,0.874702577498296,0.5,0.5,0.5,0.5,0.782051801277686,0.5,0.5,0.5,0.5,0.782051801277686,0.5,0.5,0.5,0.5,0.712552287111708,0.749187419632098,1,1,0,0A,2A,0.874702577498296,0.5,0.6362849621553,0.363715037844701,1,1,0.125297422501704,0.0302945878491016,0.5,0.217505336095561,0.355187419632098,12.0260901942981,4.29346122772474,0.5,1.11442862302256,0.99999981273385,0.5,0.241781412931216,0.371552039150135,12.552603307708,4.52771424320934,0.5,19.0443355998225
106,1,15,B,1,0,a,63,1,0.95,1B,0B,1,0,1,0,B10,1.85853722842923,2.70805020110221,0.904997165347397,0.5,0.5,0.5,0.5,0.782051801277686,0.5,0.5,0.5,0.5,0.782051801277686,0.5,0.5,0.5,0.5,0.712552287111708,0.912187419632098,1,1,0,1B,0B,0.782051801277686,0.5,0.610000157948608,0.389999842051392,1,1,0.217948198722314,0.0526958234328945,0.5,0.217505336095561,0.355187419632098,12.0260901942981,4.29346122772474,0.5,1.31091931337792,0.999996278807399,0.5,0.241781412931216,0.371552039150135,12.552603307708,4.52771424320934,0.5,19.0443355998225
106,1,16,B,0,1,l,63,1,0.95,0B,1B,0,1,0,1,B01,0.917566953885081,2.7408400239252,0.904997165347397,0.5,0.5,0.5,0.5,0.83474762471058,0.5,0.5,0.5,0.5,0.782051801277686,0.5,0.5,0.5,0.5,0.712552287111708,0.844187419632098,0,0,1,1B,0B,0.83474762471058,0.5,0.625397347975489,0.374602652024511,1,1,0.16525237528942,0.0399549527877154,0.5,0.217505336095561,0.355187419632098,12.0260901942981,4.29346122772474,0.5,1.46864969731297,0.999999351134333,0.5,0.241781412931216,0.371552039150135,12.552603307708,4.52771424320934,0.5,19.0443355998225
106,1,17,C,3,2,l,63,1,0.95,3C,2C,0,1,0,1,C32,2.25116676390991,2.36712361413162,0.904997165347397,0.5,0.5,0.5,0.5,0.874702577498296,0.5,0.5,0.5,0.5,0.782051801277686,0.5,0.5,0.5,0.5,0.712552287111708,1.4211874196321,0,0,1,2C,3C,0.782051801277686,0.5,0.610000157948608,0.389999842051392,1,1,0.217948198722314,0.0526958234328945,0.5,0.217505336095561,0.355187419632098,12.0260901942981,4.29346122772474,0.5,0.692877524700935,0.99999629788018,0.5,0.241781412931216,0.371552039150135,12.552603307708,4.52771424320934,0.5,19.0443355998225
106,1,18,D,3,1,a,27,1,0.95,3D,1D,1,0,1,0,D31,0.932017028185692,3.49650756146648,0.904997165347397,0.5,0.5,0.5,0.5,0.874702577498296,0.5,0.5,0.5,0.5,0.83474762471058,0.5,0.5,0.5,0.5,0.712552287111708,1.0941874196321,1,1,0,3D,1D,0.712552287111708,0.5,0.587646648054249,0.412353351945751,1,1,0.287447712888292,0.0694995141659776,0.5,0.217505336095561,0.355187419632098,12.0260901942981,4.29346122772474,0.5,1.07473276425833,0.999953123929815,0.5,0.241781412931216,0.371552039150135,12.552603307708,4.52771424320934,0.5,19.0443355998225
106,1,19,C,1,2,l,9,1,0.95,1C,2C,0,1,0,1,C12,2.76940884741715,3.52636052461616,0.904997165347397,0.5,0.5,0.5,0.5,0.874702577498296,0.5,0.5,0.5,0.5,0.83474762471058,0.5,0.5,0.5,0.5,0.782051801277686,1.1001874196321,0,0,1,2C,1C,0.83474762471058,0.5,0.625397347975489,0.374602652024511,1,1,0.16525237528942,0.0399549527877154,0.5,0.217505336095561,0.355187419632098,12.0260901942981,4.29346122772474,0.5,1.45113521884378,0.999999358825946,0.5,0.241781412931216,0.371552039150135,12.552603307708,4.52771424320934,0.5,19.0443355998225
106,1,20,B,3,1,l,27,1,0.95,3B,1B,0,1,0,1,B31,2.03768273061574,3.55534806148941,0.904997165347397,0.5,0.5,0.5,0.5,0.874702577498296,0.5,0.5,0.5,0.5,0.874702577498296,0.5,0.5,0.5,0.5,0.782051801277686,0.783187419632098,0,0,1,1B,3B,0.874702577498296,0.5,0.6362849621553,0.363715037844701,1,1,0.125297422501704,0.0302945878491016,0.5,0.217505336095561,0.355187419632098,12.0260901942981,4.29346122772474,0.5,1.40588259074365,0.999999812879003,0.5,0.241781412931216,0.371552039150135,12.552603307708,4.52771424320934,0.5,19.0443355998225
106,1,21,D,3,2,a,63,1,0.95,3D,2D,1,0,1,0,D32,0.912508151013717,3.58351893845611,0.904997165347397,0.5,0.5,0.5,0.5,0.904997165347397,0.5,0.5,0.5,0.5,0.874702577498296,0.5,0.5,0.5,0.5,0.782051801277686,0.974187419632098,1,1,0,3D,2D,0.782051801277686,0.5,0.610000157948608,0.389999842051392,1,1,0.217948198722314,0.0526958234328945,0.5,0.217505336095561,0.355187419632098,12.0260901942981,4.29346122772474,0.5,1.43341658112361,0.999996303320882,0.5,0.241781412931216,0.371552039150135,12.552603307708,4.52771424320934,0.5,19.0443355998225
106,1,22,B,1,0,a,63,0,0.95,1B,0B,1,0,0,1,B10,3.30449331527544,2.51230562397611,0.904997165347397,0.5,0.5,0.5,0.5,0.904997165347397,0.5,0.5,0.5,0.5,0.874702577498296,0.5,0.5,0.5,0.5,0.83474762471058,0.940187419632098,1,1,0,1B,0B,0.904997165347397,0.5,0.644127395889535,0.355872604110465,1,0,-0.904997165347397,-0.218811493336439,0.5,0.217505336095561,0.355187419632098,12.0260901942981,4.29346122772474,0.5,2.02940897678702,0.999999923723066,0.5,0.241781412931216,0.371552039150135,12.552603307708,4.52771424320934,0.5,19.0443355998225
106,1,23,A,3,0,l,9,1,0.95,3A,0A,0,1,0,1,A30,0.875179588456207,3.63758615972639,0.904997165347397,0.5,0.5,0.5,0.5,0.686185672010958,0.5,0.5,0.5,0.5,0.874702577498296,0.5,0.5,0.5,0.5,0.83474762471058,0.970187419632098,0,0,1,0A,3A,0.904997165347397,0.5,0.644127395889535,0.355872604110465,1,1,0.0950028346526028,0.022969919594777,0.5,0.217505336095561,0.355187419632098,12.0260901942981,4.29346122772474,0.5,1.93428229745029,0.999999923038439,0.5,0.241781412931216,0.371552039150135,12.552603307708,4.52771424320934,0.5,19.0443355998225
106,1,24,D,2,3,l,63,1,0.95,2D,3D,0,1,0,1,D23,2.55788183670596,2.9704144655697,0.927967084942174,0.5,0.5,0.5,0.5,0.686185672010958,0.5,0.5,0.5,0.5,0.874702577498296,0.5,0.5,0.5,0.5,0.83474762471058,1.0501874196321,0,0,1,3D,2D,0.83474762471058,0.5,0.625397347975489,0.374602652024511,1,1,0.16525237528942,0.0399549527877154,0.5,0.217505336095561,0.355187419632098,12.0260901942981,4.29346122772474,0.5,1.596132825541,0.999999352781054,0.5,0.241781412931216,0.371552039150135,12.552603307708,4.52771424320934,0.5,19.0443355998225
106,1,25,B,1,3,a,27,1,0.95,1B,3B,1,0,1,0,B13,2.73875436792298,3.68887945411394,0.927967084942174,0.5,0.5,0.5,0.5,0.686185672010958,0.5,0.5,0.5,0.5,0.874702577498296,0.5,0.5,0.5,0.5,0.874702577498296,1.2811874196321,1,1,0,1B,3B,0.686185672010958,0.5,0.578480829942633,0.421519170057368,1,1,0.313814327989042,0.0758744716192504,0.5,0.217505336095561,0.355187419632098,12.0260901942981,4.29346122772474,0.5,0.921424379560315,0.999866737132674,0.5,0.241781412931216,0.371552039150135,12.552603307708,4.52771424320934,0.5,19.0443355998225
106,1,26,C,2,3,a,63,1,0.95,2C,3C,1,0,1,0,C23,2.29914274206825,3.71357206670431,0.927967084942174,0.5,0.5,0.5,0.5,0.762060143630209,0.5,0.5,0.5,0.5,0.874702577498296,0.5,0.5,0.5,0.5,0.874702577498296,1.2361874196321,1,1,0,2C,3C,0.874702577498296,0.5,0.6362849621553,0.363715037844701,1,1,0.125297422501704,0.0302945878491016,0.5,0.217505336095561,0.355187419632098,12.0260901942981,4.29346122772474,0.5,0.849500737772894,0.999999813491923,0.5,0.241781412931216,0.371552039150135,12.552603307708,4.52771424320934,0.5,19.0443355998225
106,1,27,C,2,0,a,27,1,0.95,2C,0C,1,0,1,0,C20,2.51848931664328,3.04452243772342,0.927967084942174,0.5,0.5,0.5,0.5,0.762060143630209,0.5,0.5,0.5,0.5,0.904997165347397,0.5,0.5,0.5,0.5,0.874702577498296,0.796187419632098,1,1,0,2C,0C,0.904997165347397,0.5,0.644127395889535,0.355872604110465,1,1,0.0950028346526028,0.022969919594777,0.5,0.217505336095561,0.355187419632098,12.0260901942981,4.29346122772474,0.5,1.75144239928847,0.999999923499968,0.5,0.241781412931216,0.371552039150135,12.552603307708,4.52771424320934,0.5,19.0443355998225
106,1,28,B,0,1,l,63,1,0.95,0B,1B,0,1,0,1,B01,0.974018308907494,2.66258782702545,0.927967084942174,0.5,0.5,0.5,0.5,0.762060143630209,0.5,0.5,0.5,0.5,0.927967084942174,0.5,0.5,0.5,0.5,0.874702577498296,1.1451874196321,0,0,1,1B,0B,0.762060143630209,0.5,0.603822367322533,0.396177632677467,1,1,0.237939856369791,0.0575294346657386,0.5,0.217505336095561,0.355187419632098,12.0260901942981,4.29346122772474,0.5,1.27623789823482,0.999992555092897,0.5,0.241781412931216,0.371552039150135,12.552603307708,4.52771424320934,0.5,19.0443355998225
106,1,29,C,2,3,a,63,1,0.95,2C,3C,1,0,1,0,C23,0.555239908673766,3.09104245335832,0.927967084942174,0.5,0.5,0.5,0.5,0.819589578295947,0.5,0.5,0.5,0.5,0.927967084942174,0.5,0.5,0.5,0.5,0.874702577498296,0.741187419632098,1,1,0,2C,3C,0.927967084942174,0.5,0.649851873147169,0.350148126852831,1,1,0.0720329150578258,0.0174162199802354,0.5,0.217505336095561,0.355187419632098,12.0260901942981,4.29346122772474,0.5,1.43250124697428,0.999999959962314,0.5,0.241781412931216,0.371552039150135,12.552603307708,4.52771424320934,0.5,19.0443355998225
106,1,30,A,1,0,l,63,1,0.95,1A,0A,0,1,0,1,A10,2.67824756510249,2.70805020110221,0.927967084942174,0.5,0.5,0.5,0.5,0.819589578295947,0.5,0.5,0.5,0.5,0.94538330492241,0.5,0.5,0.5,0.5,0.874702577498296,0.741187419632098,0,0,1,0A,1A,0.927967084942174,0.5,0.649851873147169,0.350148126852831,1,1,0.0720329150578258,0.0174162199802354,0.5,0.217505336095561,0.355187419632098,12.0260901942981,4.29346122772474,0.5,1.43257835807236,0.999999959973487,0.5,0.241781412931216,0.371552039150135,12.552603307708,4.52771424320934,0.5,19.0443355998225
106,1,31,D,2,3,l,63,1,0.95,2D,3D,0,1,0,1,D23,2.47931003128526,2.73002910782099,0.94538330492241,0.5,0.5,0.5,0.5,0.819589578295947,0.5,0.5,0.5,0.5,0.94538330492241,0.5,0.5,0.5,0.5,0.874702577498296,1.0401874196321,0,0,1,3D,2D,0.874702577498296,0.5,0.6362849621553,0.363715037844701,1,1,0.125297422501704,0.0302945878491016,0.5,0.217505336095561,0.355187419632098,12.0260901942981,4.29346122772474,0.5,1.65124770605202,0.999999810996419,0.5,0.241781412931216,0.371552039150135,12.552603307708,4.52771424320934,0.5,19.0443355998225
106,1,32,C,2,3,a,63,1,0.95,2C,3C,1,0,1,0,C23,1.10770037428472,2.75153531304195,0.94538330492241,0.5,0.5,0.5,0.5,0.819589578295947,0.5,0.5,0.5,0.5,0.94538330492241,0.5,0.5,0.5,0.5,0.904997165347397,1.8561874196321,1,1,0,2C,3C,0.94538330492241,0.5,0.654071000891462,0.345928999108538,1,1,0.0546166950775905,0.0132053017054932,0.5,0.217505336095561,0.355187419632098,12.0260901942981,4.29346122772474,0.5,0.00847230004130026,0.999999975244009,0.5,0.241781412931216,0.371552039150135,12.552603307708,4.52771424320934,0.5,19.0443355998225
106,1,33,D,3,1,a,27,1,0.95,3D,1D,1,0,1,0,D31,2.37745578389019,3.17805383034795,0.94538330492241,0.5,0.5,0.5,0.5,0.819589578295947,0.5,0.5,0.5,0.5,0.958588606627903,0.5,0.5,0.5,0.5,0.904997165347397,1.0551874196321,1,1,0,3D,1D,0.904997165347397,0.5,0.644127395889535,0.355872604110465,1,1,0.0950028346526028,0.022969919594777,0.5,0.217505336095561,0.355187419632098,12.0260901942981,4.29346122772474,0.5,1.5471872451281,0.999999923267276,0.5,0.241781412931216,0.371552039150135,12.552603307708,4.52771424320934,0.5,19.0443355998225
106,1,34,C,0,2,l,27,1,0.95,0C,2C,0,1,0,1,C02,3.16297394898406,3.89182029811063,0.94538330492241,0.5,0.5,0.5,0.5,0.819589578295947,0.5,0.5,0.5,0.5,0.958588606627903,0.5,0.5,0.5,0.5,0.927967084942174,1.0841874196321,0,0,1,2C,0C,0.958588606627903,0.5,0.657202861911869,0.342797138088131,1,1,0.0414113933720973,0.0100125052009561,0.5,0.217505336095561,0.355187419632098,12.0260901942981,4.29346122772474,0.5,1.21555257189198,0.999999982629149,0.5,0.241781412931216,0.371552039150135,12.552603307708,4.52771424320934,0.5,19.0443355998225
106,1,35,D,2,3,l,63,0,0.95,2D,3D,0,1,1,0,D23,2.0078324717754,2.52572864430826,0.94538330492241,0.5,0.5,0.5,0.5,0.819589578295947,0.5,0.5,0.5,0.5,0.968601111828859,0.5,0.5,0.5,0.5,0.927967084942174,0.702187419632098,0,0,1,3D,2D,0.927967084942174,0.5,0.649851873147169,0.350148126852831,1,0,-0.927967084942174,-0.22436519295098,0.5,0.217505336095561,0.355187419632098,12.0260901942981,4.29346122772474,0.5,0.984637893977666,0.999999959889839,0.5,0.241781412931216,0.371552039150135,12.552603307708,4.52771424320934,0.5,19.0443355998225
106,1,36,A,1,0,l,63,1,0.95,1A,0A,0,1,0,1,A10,3.3401783647446,2.54553127160444,0.94538330492241,0.5,0.5,0.5,0.5,0.819589578295947,0.5,0.5,0.5,0.5,0.968601111828859,0.5,0.5,0.5,0.5,0.703601891991194,1.0321874196321,0,0,1,0A,1A,0.94538330492241,0.5,0.654071000891462,0.345928999108538,1,1,0.0546166950775905,0.0132053017054932,0.5,0.217505336095561,0.355187419632098,12.0260901942981,4.29346122772474,0.5,1.57586613941624,0.999999975544691,0.5,0.241781412931216,0.371552039150135,12.552603307708,4.52771424320934,0.5,19.0443355998225
106,1,37,C,2,3,a,63,1,0.95,2C,3C,1,0,1,0,C23,0.249169117447482,2.56494935746154,0.958588606627903,0.5,0.5,0.5,0.5,0.819589578295947,0.5,0.5,0.5,0.5,0.968601111828859,0.5,0.5,0.5,0.5,0.703601891991194,0.961187419632098,1,1,0,2C,3C,0.968601111828859,0.5,0.659539955422377,0.340460044577623,1,1,0.0313988881711412,0.00759166754648776,0.5,0.217505336095561,0.355187419632098,12.0260901942981,4.29346122772474,0.5,1.97868525177257,0.999999986668493,0.5,0.241781412931216,0.371552039150135,12.552603307708,4.52771424320934,0.5,19.0443355998225
106,1,38,A,0,2,a,27,1,0.95,0A,2A,1,0,1,0,A02,2.71490262353722,2.87167962488401,0.958588606627903,0.5,0.5,0.5,0.5,0.819589578295947,0.5,0.5,0.5,0.5,0.976192779375347,0.5,0.5,0.5,0.5,0.703601891991194,1.0571874196321,1,1,0,0A,2A,0.958588606627903,0.5,0.657202861911869,0.342797138088131,1,1,0.0414113933720973,0.0100125052009561,0.5,0.217505336095561,0.355187419632098,12.0260901942981,4.29346122772474,0.5,1.37939020683964,0.99999998265539,0.5,0.241781412931216,0.371552039150135,12.552603307708,4.52771424320934,0.5,19.0443355998225
106,1,39,D,2,3,l,63,1,0.95,2D,3D,0,1,0,1,D23,0.366967882777552,2.37954613413017,0.968601111828859,0.5,0.5,0.5,0.5,0.819589578295947,0.5,0.5,0.5,0.5,0.976192779375347,0.5,0.5,0.5,0.5,0.703601891991194,1.9901874196321,0,0,1,3D,2D,0.703601891991194,0.5,0.584580247566063,0.415419752433937,1,1,0.296398108008806,0.0716635533445082,0.5,0.217505336095561,0.355187419632098,12.0260901942981,4.29346122772474,0.5,0.286779666925618,0.999933136810322,0.5,0.241781412931216,0.371552039150135,12.552603307708,4.52771424320934,0.5,19.0443355998225
106,1,40,D,3,2,a,63,1,0.95,3D,2D,1,0,1,0,D32,1.15467163315429,3.31418600467253,0.968601111828859,0.5,0.5,0.5,0.5,0.819589578295947,0.5,0.5,0.5,0.5,0.976192779375347,0.5,0.5,0.5,0.5,0.775265445335702,0.880187419632098,1,1,0,3D,2D,0.775265445335702,0.5,0.607924764347097,0.392075235652903,1,1,0.224734554664298,0.0543366381612015,0.5,0.217505336095561,0.355187419632098,12.0260901942981,4.29346122772474,0.5,1.14986604413634,0.999995266768214,0.5,0.241781412931216,0.371552039150135,12.552603307708,4.52771424320934,0.5,19.0443355998225
106,1,41,B,3,1,l,27,1,0.95,3B,1B,0,1,0,1,B31,1.93972918758146,3.3322045101752,0.968601111828859,0.5,0.5,0.5,0.5,0.819589578295947,0.5,0.5,0.5,0.5,0.976192779375347,0.5,0.5,0.5,0.5,0.829602083496904,1.1031874196321,0,0,1,1B,3B,0.819589578295947,0.5,0.621094309758285,0.378905690241715,1,1,0.180410421704053,0.0436198866671223,0.5,0.217505336095561,0.355187419632098,12.0260901942981,4.29346122772474,0.5,1.44164042224984,0.999998949446227,0.5,0.241781412931216,0.371552039150135,12.552603307708,4.52771424320934,0.5,19.0443355998225
106,1,42,D,3,0,a,9,1,0.95,3D,0D,1,0,1,0,D30,3.44453905015668,4.04305126783455,0.968601111828859,0.5,0.5,0.5,0.5,0.86320946496307,0.5,0.5,0.5,0.5,0.976192779375347,0.5,0.5,0.5,0.5,0.829602083496904,0.942187419632098,1,1,0,3D,0D,0.829602083496904,0.5,0.623947641022808,0.376052358977192,1,1,0.170397916503096,0.041199049012654,0.5,0.217505336095561,0.355187419632098,12.0260901942981,4.29346122772474,0.5,1.7007971676457,0.999999241341045,0.5,0.241781412931216,0.371552039150135,12.552603307708,4.52771424320934,0.5,19.0443355998225
106,1,43,B,0,1,l,63,1,0.95,0B,1B,0,1,0,1,B01,2.44770323508237,2.67414864942653,0.968601111828859,0.5,0.5,0.5,0.5,0.86320946496307,0.5,0.5,0.5,0.5,0.976192779375347,0.5,0.5,0.5,0.5,0.870801132509557,1.1201874196321,0,0,1,1B,0B,0.86320946496307,0.5,0.633218509076633,0.366781490923367,1,1,0.13679053503693,0.033073408836846,0.5,0.217505336095561,0.355187419632098,12.0260901942981,4.29346122772474,0.5,1.34210779548631,0.999999733282268,0.5,0.241781412931216,0.371552039150135,12.552603307708,4.52771424320934,0.5,19.0443355998225
106,1,44,A,0,1,a,63,1,0.95,0A,1A,1,0,1,0,A01,1.40953451228742,2.97892515523761,0.968601111828859,0.5,0.5,0.5,0.5,0.896282873799916,0.5,0.5,0.5,0.5,0.976192779375347,0.5,0.5,0.5,0.5,0.870801132509557,0.789187419632098,1,1,0,0A,1A,0.968601111828859,0.5,0.659539955422377,0.340460044577623,1,1,0.0313988881711412,0.00759166754648776,0.5,0.217505336095561,0.355187419632098,12.0260901942981,4.29346122772474,0.5,2.20407690393489,0.999999986769378,0.5,0.241781412931216,0.371552039150135,12.552603307708,4.52771424320934,0.5,19.0443355998225
