ID,filename,session,trial,visStimLeft,visStimRight,correctKey,leftCorrect,rightCorrect,secondStim,mod2Type,mod2Stim,frequency,rewardAccurate,stimPairLeft,stimPairRight,pCorrectLeft,pCorrectRight,key,reactionTime,choiceLeft,choiceRight,choiceAccurate,reward,chosenPair,otherPair,triplet,surprise,0A belief,1A belief,2A belief,3A belief,0B belief,1B belief,2B belief,3B belief,0C belief,1C belief,2C belief,3C belief,0D belief,1D belief,2D belief,3D belief,beliefPairNorm,beliefOtherPairNorm,beliefPair,beliefOtherPair,lik,corrLik,rewardPE,update2,fitCBCsimpleRW_CBCdriftDiffusionLR_startBelief,fitCBCsimpleRW_CBCdriftDiffusionLR_alpha1,fitCBCsimpleRW_CBCdriftDiffusionLR_nonDecisionTime,fitCBCsimpleRW_CBCdriftDiffusionLR_weight,fitCBCsimpleRW_CBCdriftDiffusionLR_startingBoundary,fitCBCsimpleRW_CBCdriftDiffusionLR_startingPoint,fit_CBCsimpleRW_CBCdriftDiffusionLR_NLL
CBC_1010,CBC_1010_MSI_TV_v3_Vset6_Tset3_2024-03-20_15h09.46.455.csv,1,1,3,1,z,0,1,0,tac,B,27,1,3B,1B,0,1,b,2.81618469999921,1,0,0,0,3B,1B,B31,2.77258872223978,0.5,0.5,0.5,0.5,0.5,0.5,0.5,0.5,0.5,0.5,0.5,0.5,0.5,0.5,0.5,0.5,0.5,0.5,0.5,0.5,0.125778213783754,0.501750145056745,-0.5,-0.0535445157300256,0.5,0.107089031460051,0.964261889233997,5.70802776626451,2.83530266964613,0.5,66.5199480054644
CBC_1010,CBC_1010_MSI_TV_v3_Vset6_Tset3_2024-03-20_15h09.46.455.csv,1,2,2,3,b,1,0,3,tac,C,63,1,2C,3C,1,0,b,2.6072793000003,1,0,1,1,2C,3C,C23,2.83321334405622,0.5,0.5,0.5,0.5,0.5,0.5,0.5,0.446455484269974,0.5,0.5,0.5,0.5,0.5,0.5,0.5,0.5,0.5,0.5,0.5,0.5,0.14224613292794,0.499448960205418,0.5,0.0535445157300256,0.5,0.107089031460051,0.964261889233997,5.70802776626451,2.83530266964613,0.5,66.5199480054644
CBC_1010,CBC_1010_MSI_TV_v3_Vset6_Tset3_2024-03-20_15h09.46.455.csv,1,3,2,3,z,0,1,1,tac,D,63,1,2D,3D,0,1,z,3.52911209999911,0,1,1,1,3D,2D,D23,2.89037175789616,0.5,0.5,0.5,0.5,0.5,0.5,0.5,0.446455484269974,0.5,0.5,0.553544515730026,0.5,0.5,0.5,0.5,0.5,0.5,0.5,0.5,0.5,0.0809276192789382,0.499921086445809,0.5,0.0535445157300256,0.5,0.107089031460051,0.964261889233997,5.70802776626451,2.83530266964613,0.5,66.5199480054644
CBC_1010,CBC_1010_MSI_TV_v3_Vset6_Tset3_2024-03-20_15h09.46.455.csv,1,4,1,0,b,1,0,0,tac,B,63,0,1B,0B,0,1,b,2.82849539999916,1,0,1,0,1B,0B,B10,2.94443897916644,0.5,0.5,0.5,0.5,0.5,0.5,0.5,0.446455484269974,0.5,0.5,0.553544515730026,0.5,0.5,0.5,0.5,0.553544515730026,0.5,0.5,0.5,0.5,0.124805282804835,0.50163577853464,-0.5,-0.0535445157300256,0.5,0.107089031460051,0.964261889233997,5.70802776626451,2.83530266964613,0.5,66.5199480054644
CBC_1010,CBC_1010_MSI_TV_v3_Vset6_Tset3_2024-03-20_15h09.46.455.csv,1,5,3,0,z,0,1,2,tac,A,9,1,3A,0A,0,1,z,2.40197279999848,0,1,1,1,0A,3A,A30,2.99573227355399,0.5,0.5,0.5,0.5,0.5,0.446455484269974,0.5,0.446455484269974,0.5,0.5,0.553544515730026,0.5,0.5,0.5,0.5,0.553544515730026,0.5,0.5,0.5,0.5,0.161381764131973,0.500360026741269,0.5,0.0535445157300256,0.5,0.107089031460051,0.964261889233997,5.70802776626451,2.83530266964613,0.5,66.5199480054644
CBC_1010,CBC_1010_MSI_TV_v3_Vset6_Tset3_2024-03-20_15h09.46.455.csv,1,6,2,3,z,0,1,1,tac,D,63,1,2D,3D,0,1,z,2.60978659999819,0,1,1,1,3D,2D,D23,2.35137525716348,0.553544515730026,0.5,0.5,0.5,0.5,0.446455484269974,0.5,0.446455484269974,0.5,0.5,0.553544515730026,0.5,0.5,0.5,0.5,0.553544515730026,0.525411605741654,0.474588394258346,0.553544515730026,0.5,0.199908547522359,0.693945190841668,0.446455484269974,0.0478104854004997,0.5,0.107089031460051,0.964261889233997,5.70802776626451,2.83530266964613,0.5,66.5199480054644
CBC_1010,CBC_1010_MSI_TV_v3_Vset6_Tset3_2024-03-20_15h09.46.455.csv,1,7,2,0,b,1,0,3,tac,C,27,1,2C,0C,1,0,z,2.58728809999957,0,1,0,0,0C,2C,C20,3.09104245335832,0.553544515730026,0.5,0.5,0.5,0.5,0.446455484269974,0.5,0.446455484269974,0.5,0.5,0.553544515730026,0.5,0.5,0.5,0.5,0.601355001130525,0.474588394258346,0.525411605741654,0.5,0.553544515730026,0.0894227052586518,0.305896243264647,-0.5,-0.0535445157300256,0.5,0.107089031460051,0.964261889233997,5.70802776626451,2.83530266964613,0.5,66.5199480054644
CBC_1010,CBC_1010_MSI_TV_v3_Vset6_Tset3_2024-03-20_15h09.46.455.csv,1,8,1,0,z,0,1,2,tac,A,63,1,1A,0A,0,1,b,2.54484809999849,1,0,0,0,1A,0A,A10,3.13549421592915,0.553544515730026,0.5,0.5,0.5,0.5,0.446455484269974,0.5,0.446455484269974,0.446455484269974,0.5,0.553544515730026,0.5,0.5,0.5,0.5,0.601355001130525,0.474588394258346,0.525411605741654,0.5,0.553544515730026,0.0917370705288945,0.305244284702224,-0.5,-0.0535445157300256,0.5,0.107089031460051,0.964261889233997,5.70802776626451,2.83530266964613,0.5,66.5199480054644
CBC_1010,CBC_1010_MSI_TV_v3_Vset6_Tset3_2024-03-20_15h09.46.455.csv,1,9,0,1,z,0,1,0,tac,B,63,1,0B,1B,0,1,b,2.64941749999889,1,0,0,0,0B,1B,B01,3.17805383034795,0.553544515730026,0.446455484269974,0.5,0.5,0.5,0.446455484269974,0.5,0.446455484269974,0.446455484269974,0.5,0.553544515730026,0.5,0.5,0.5,0.5,0.601355001130525,0.528286864316353,0.471713135683647,0.5,0.446455484269974,0.200975031417667,0.714328208995836,-0.5,-0.0535445157300256,0.5,0.107089031460051,0.964261889233997,5.70802776626451,2.83530266964613,0.5,66.5199480054644
CBC_1010,CBC_1010_MSI_TV_v3_Vset6_Tset3_2024-03-20_15h09.46.455.csv,1,10,3,1,b,1,0,1,tac,D,27,1,3D,1D,1,0,z,2.84590190000017,0,1,0,0,1D,3D,D31,3.2188758248682,0.553544515730026,0.446455484269974,0.5,0.5,0.446455484269974,0.446455484269974,0.5,0.446455484269974,0.446455484269974,0.5,0.553544515730026,0.5,0.5,0.5,0.5,0.601355001130525,0.453986225591891,0.546013774408109,0.5,0.601355001130525,0.0449782041843043,0.183599066090594,-0.5,-0.0535445157300256,0.5,0.107089031460051,0.964261889233997,5.70802776626451,2.83530266964613,0.5,66.5199480054644
CBC_1010,CBC_1010_MSI_TV_v3_Vset6_Tset3_2024-03-20_15h09.46.455.csv,1,11,2,3,b,1,0,3,tac,C,63,1,2C,3C,1,0,b,2.33860569999888,1,0,1,1,2C,3C,C23,2.56494935746154,0.553544515730026,0.446455484269974,0.5,0.5,0.446455484269974,0.446455484269974,0.5,0.446455484269974,0.446455484269974,0.5,0.553544515730026,0.5,0.5,0.446455484269974,0.5,0.601355001130525,0.525411605741654,0.474588394258346,0.553544515730026,0.5,0.238708356813309,0.695245913672575,0.446455484269974,0.0478104854004997,0.5,0.107089031460051,0.964261889233997,5.70802776626451,2.83530266964613,0.5,66.5199480054644
CBC_1010,CBC_1010_MSI_TV_v3_Vset6_Tset3_2024-03-20_15h09.46.455.csv,1,12,0,1,z,0,1,0,tac,B,63,1,0B,1B,0,1,b,2.56440169999769,1,0,0,0,0B,1B,B01,2.60268968544438,0.553544515730026,0.446455484269974,0.5,0.5,0.446455484269974,0.446455484269974,0.5,0.446455484269974,0.446455484269974,0.5,0.601355001130525,0.5,0.5,0.446455484269974,0.5,0.601355001130525,0.5,0.5,0.446455484269974,0.446455484269974,0.145964292332856,0.499300422560026,-0.446455484269974,-0.0478104854004997,0.5,0.107089031460051,0.964261889233997,5.70802776626451,2.83530266964613,0.5,66.5199480054644
CBC_1010,CBC_1010_MSI_TV_v3_Vset6_Tset3_2024-03-20_15h09.46.455.csv,1,13,1,0,z,0,1,2,tac,A,63,1,1A,0A,0,1,z,2.36703099999977,0,1,1,1,0A,1A,A10,2.63905732961526,0.553544515730026,0.446455484269974,0.5,0.5,0.398644998869475,0.446455484269974,0.5,0.446455484269974,0.446455484269974,0.5,0.601355001130525,0.5,0.5,0.446455484269974,0.5,0.601355001130525,0.553544515730026,0.446455484269974,0.553544515730026,0.446455484269974,0.301474563556685,0.849924188769488,0.446455484269974,0.0478104854004997,0.5,0.107089031460051,0.964261889233997,5.70802776626451,2.83530266964613,0.5,66.5199480054644
CBC_1010,CBC_1010_MSI_TV_v3_Vset6_Tset3_2024-03-20_15h09.46.455.csv,1,14,2,1,b,1,0,3,tac,C,9,1,2C,1C,1,0,b,2.27629619999789,1,0,1,1,2C,1C,C21,3.36729582998647,0.601355001130525,0.446455484269974,0.5,0.5,0.398644998869475,0.446455484269974,0.5,0.446455484269974,0.446455484269974,0.5,0.601355001130525,0.5,0.5,0.446455484269974,0.5,0.601355001130525,0.546013774408109,0.453986225591891,0.601355001130525,0.5,0.305546876196802,0.81624180055333,0.398644998869475,0.0426905068253253,0.5,0.107089031460051,0.964261889233997,5.70802776626451,2.83530266964613,0.5,66.5199480054644
CBC_1010,CBC_1010_MSI_TV_v3_Vset6_Tset3_2024-03-20_15h09.46.455.csv,1,15,0,1,b,1,0,2,tac,A,63,1,0A,1A,1,0,b,2.29894719999902,1,0,1,1,0A,1A,A01,3.40119738166216,0.601355001130525,0.446455484269974,0.5,0.5,0.398644998869475,0.446455484269974,0.5,0.446455484269974,0.446455484269974,0.5,0.644045507955851,0.5,0.5,0.446455484269974,0.5,0.601355001130525,0.573915807781473,0.426084192218527,0.601355001130525,0.446455484269974,0.352622554162822,0.916051411257316,0.398644998869475,0.0426905068253253,0.5,0.107089031460051,0.964261889233997,5.70802776626451,2.83530266964613,0.5,66.5199480054644
CBC_1010,CBC_1010_MSI_TV_v3_Vset6_Tset3_2024-03-20_15h09.46.455.csv,1,16,1,3,z,0,1,1,tac,D,27,1,1D,3D,0,1,z,2.69146359999831,0,1,1,1,3D,1D,D13,3.43398720448515,0.644045507955851,0.446455484269974,0.5,0.5,0.398644998869475,0.446455484269974,0.5,0.446455484269974,0.446455484269974,0.5,0.644045507955851,0.5,0.5,0.446455484269974,0.5,0.601355001130525,0.573915807781473,0.426084192218527,0.601355001130525,0.446455484269974,0.241905669296998,0.916698298430293,0.398644998869475,0.0426905068253253,0.5,0.107089031460051,0.964261889233997,5.70802776626451,2.83530266964613,0.5,66.5199480054644
CBC_1010,CBC_1010_MSI_TV_v3_Vset6_Tset3_2024-03-20_15h09.46.455.csv,1,17,1,0,b,1,0,0,tac,B,63,1,1B,0B,1,0,z,2.30893819999983,0,1,0,0,0B,1B,B10,2.77258872223978,0.644045507955851,0.446455484269974,0.5,0.5,0.398644998869475,0.446455484269974,0.5,0.446455484269974,0.446455484269974,0.5,0.644045507955851,0.5,0.5,0.446455484269974,0.5,0.644045507955851,0.471713135683647,0.528286864316353,0.398644998869475,0.446455484269974,0.100701595716278,0.286295663475485,-0.398644998869475,-0.0426905068253253,0.5,0.107089031460051,0.964261889233997,5.70802776626451,2.83530266964613,0.5,66.5199480054644
CBC_1010,CBC_1010_MSI_TV_v3_Vset6_Tset3_2024-03-20_15h09.46.455.csv,1,18,3,2,z,0,1,3,tac,C,63,0,3C,2C,1,0,z,2.31938739999896,0,1,1,0,2C,3C,C32,3.49650756146648,0.644045507955851,0.446455484269974,0.5,0.5,0.355954492044149,0.446455484269974,0.5,0.446455484269974,0.446455484269974,0.5,0.644045507955851,0.5,0.5,0.446455484269974,0.5,0.644045507955851,0.562954448469986,0.437045551530014,0.644045507955851,0.5,0.331096599762402,0.885399384061108,-0.644045507955851,-0.0689702096631888,0.5,0.107089031460051,0.964261889233997,5.70802776626451,2.83530266964613,0.5,66.5199480054644
CBC_1010,CBC_1010_MSI_TV_v3_Vset6_Tset3_2024-03-20_15h09.46.455.csv,1,19,0,2,b,1,0,2,tac,A,27,1,0A,2A,1,0,z,2.4273265999982,0,1,0,0,2A,0A,A02,3.52636052461616,0.644045507955851,0.446455484269974,0.5,0.5,0.355954492044149,0.446455484269974,0.5,0.446455484269974,0.446455484269974,0.5,0.575075298292662,0.5,0.5,0.446455484269974,0.5,0.644045507955851,0.437045551530014,0.562954448469986,0.5,0.644045507955851,0.0394241993901022,0.115686608424818,-0.5,-0.0535445157300256,0.5,0.107089031460051,0.964261889233997,5.70802776626451,2.83530266964613,0.5,66.5199480054644
CBC_1010,CBC_1010_MSI_TV_v3_Vset6_Tset3_2024-03-20_15h09.46.455.csv,1,20,2,3,z,0,1,1,tac,D,63,1,2D,3D,0,1,z,2.38246999999865,0,1,1,1,3D,2D,D23,2.4567357728213,0.644045507955851,0.446455484269974,0.446455484269974,0.5,0.355954492044149,0.446455484269974,0.5,0.446455484269974,0.446455484269974,0.5,0.575075298292662,0.5,0.5,0.446455484269974,0.5,0.644045507955851,0.562954448469986,0.437045551530014,0.644045507955851,0.5,0.313247105712277,0.884436772400135,0.355954492044149,0.0381188217968625,0.5,0.107089031460051,0.964261889233997,5.70802776626451,2.83530266964613,0.5,66.5199480054644
CBC_1010,CBC_1010_MSI_TV_v3_Vset6_Tset3_2024-03-20_15h09.46.455.csv,1,21,1,3,b,1,0,0,tac,B,27,1,1B,3B,1,0,b,2.70630019999953,1,0,1,1,1B,3B,B13,3.58351893845611,0.644045507955851,0.446455484269974,0.446455484269974,0.5,0.355954492044149,0.446455484269974,0.5,0.446455484269974,0.446455484269974,0.5,0.575075298292662,0.5,0.5,0.446455484269974,0.5,0.682164329752713,0.5,0.5,0.446455484269974,0.446455484269974,0.13418038843629,0.50047354550719,0.553544515730026,0.0592785460595515,0.5,0.107089031460051,0.964261889233997,5.70802776626451,2.83530266964613,0.5,66.5199480054644
CBC_1010,CBC_1010_MSI_TV_v3_Vset6_Tset3_2024-03-20_15h09.46.455.csv,1,22,2,3,b,1,0,3,tac,C,63,1,2C,3C,1,0,b,2.24022859999968,1,0,1,1,2C,3C,C23,2.51230562397611,0.644045507955851,0.446455484269974,0.446455484269974,0.5,0.355954492044149,0.505734030329526,0.5,0.446455484269974,0.446455484269974,0.5,0.575075298292662,0.5,0.5,0.446455484269974,0.5,0.682164329752713,0.534916297682539,0.465083702317461,0.575075298292662,0.5,0.282633434978133,0.756577005928746,0.424924701707338,0.04550477474929,0.5,0.107089031460051,0.964261889233997,5.70802776626451,2.83530266964613,0.5,66.5199480054644
CBC_1010,CBC_1010_MSI_TV_v3_Vset6_Tset3_2024-03-20_15h09.46.455.csv,1,23,1,0,z,0,1,2,tac,A,63,0,1A,0A,1,0,z,2.41854939999757,0,1,1,0,0A,1A,A10,2.53897387105828,0.644045507955851,0.446455484269974,0.446455484269974,0.5,0.355954492044149,0.505734030329526,0.5,0.446455484269974,0.446455484269974,0.5,0.620580073041952,0.5,0.5,0.446455484269974,0.5,0.682164329752713,0.590595985283138,0.409404014716862,0.644045507955851,0.446455484269974,0.317798702728701,0.949520416619955,-0.644045507955851,-0.0689702096631888,0.5,0.107089031460051,0.964261889233997,5.70802776626451,2.83530266964613,0.5,66.5199480054644
CBC_1010,CBC_1010_MSI_TV_v3_Vset6_Tset3_2024-03-20_15h09.46.455.csv,1,24,1,2,b,1,0,0,tac,B,9,1,1B,2B,1,0,b,2.42809259999922,1,0,1,1,1B,2B,B12,3.66356164612965,0.575075298292662,0.446455484269974,0.446455484269974,0.5,0.355954492044149,0.505734030329526,0.5,0.446455484269974,0.446455484269974,0.5,0.620580073041952,0.5,0.5,0.446455484269974,0.5,0.682164329752713,0.502850669340306,0.497149330659694,0.505734030329526,0.5,0.166009112951006,0.522717250251203,0.494265969670474,0.0529304639756741,0.5,0.107089031460051,0.964261889233997,5.70802776626451,2.83530266964613,0.5,66.5199480054644
CBC_1010,CBC_1010_MSI_TV_v3_Vset6_Tset3_2024-03-20_15h09.46.455.csv,1,25,3,2,z,0,1,3,tac,C,63,1,3C,2C,0,1,z,2.27550809999775,0,1,1,1,2C,3C,C32,2.99573227355399,0.575075298292662,0.446455484269974,0.446455484269974,0.5,0.355954492044149,0.5586644943052,0.5,0.446455484269974,0.446455484269974,0.5,0.620580073041952,0.5,0.5,0.446455484269974,0.5,0.682164329752713,0.553802524220613,0.446197475779387,0.620580073041952,0.5,0.324416128394881,0.850972637902523,0.379419926958048,0.0406317124945808,0.5,0.107089031460051,0.964261889233997,5.70802776626451,2.83530266964613,0.5,66.5199480054644
CBC_1010,CBC_1010_MSI_TV_v3_Vset6_Tset3_2024-03-20_15h09.46.455.csv,1,26,3,2,b,1,0,1,tac,D,63,1,3D,2D,1,0,b,2.41920919999939,1,0,1,1,3D,2D,D32,3.71357206670431,0.575075298292662,0.446455484269974,0.446455484269974,0.5,0.355954492044149,0.5586644943052,0.5,0.446455484269974,0.446455484269974,0.5,0.661211785536533,0.5,0.5,0.446455484269974,0.5,0.682164329752713,0.577046957503285,0.422953042496715,0.682164329752713,0.5,0.316345535591824,0.923760161367683,0.317835670247287,0.0340367140902382,0.5,0.107089031460051,0.964261889233997,5.70802776626451,2.83530266964613,0.5,66.5199480054644
CBC_1010,CBC_1010_MSI_TV_v3_Vset6_Tset3_2024-03-20_15h09.46.455.csv,1,27,1,0,b,1,0,0,tac,B,63,1,1B,0B,1,0,b,1.49050929999976,1,0,1,1,1B,0B,B10,2.63905732961526,0.575075298292662,0.446455484269974,0.446455484269974,0.5,0.355954492044149,0.5586644943052,0.5,0.446455484269974,0.446455484269974,0.5,0.661211785536533,0.5,0.5,0.446455484269974,0.5,0.716201043842951,0.610816638013473,0.389183361986527,0.5586644943052,0.355954492044149,0.86482350248083,0.972952138475021,0.4413355056948,0.047262191853788,0.5,0.107089031460051,0.964261889233997,5.70802776626451,2.83530266964613,0.5,66.5199480054644
CBC_1010,CBC_1010_MSI_TV_v3_Vset6_Tset3_2024-03-20_15h09.46.455.csv,1,28,2,0,z,0,1,2,tac,A,27,1,2A,0A,0,1,z,2.19067229999746,0,1,1,1,0A,2A,A20,3.76120011569356,0.575075298292662,0.446455484269974,0.446455484269974,0.5,0.355954492044149,0.605926686158988,0.5,0.446455484269974,0.446455484269974,0.5,0.661211785536533,0.5,0.5,0.446455484269974,0.5,0.716201043842951,0.562954448469986,0.437045551530014,0.575075298292662,0.446455484269974,0.36869207631656,0.884588324470744,0.424924701707338,0.04550477474929,0.5,0.107089031460051,0.964261889233997,5.70802776626451,2.83530266964613,0.5,66.5199480054644
CBC_1010,CBC_1010_MSI_TV_v3_Vset6_Tset3_2024-03-20_15h09.46.455.csv,1,29,3,1,b,1,0,1,tac,D,27,1,3D,1D,1,0,z,1.08372399999826,0,1,0,0,1D,3D,D31,3.09104245335832,0.620580073041952,0.446455484269974,0.446455484269974,0.5,0.355954492044149,0.605926686158988,0.5,0.446455484269974,0.446455484269974,0.5,0.661211785536533,0.5,0.5,0.446455484269974,0.5,0.716201043842951,0.383996024169411,0.616003975830589,0.446455484269974,0.716201043842951,0.000420776672296724,0.0229969059476638,-0.446455484269974,-0.0478104854004997,0.5,0.107089031460051,0.964261889233997,5.70802776626451,2.83530266964613,0.5,66.5199480054644
CBC_1010,CBC_1010_MSI_TV_v3_Vset6_Tset3_2024-03-20_15h09.46.455.csv,1,30,0,1,b,1,0,2,tac,A,63,1,0A,1A,1,0,b,2.3366563999989,1,0,1,1,0A,1A,A01,3.11351530921037,0.620580073041952,0.446455484269974,0.446455484269974,0.5,0.355954492044149,0.605926686158988,0.5,0.446455484269974,0.446455484269974,0.5,0.661211785536533,0.5,0.5,0.398644998869475,0.5,0.716201043842951,0.581592683382844,0.418407316617156,0.620580073041952,0.446455484269974,0.346269132243761,0.93334685564019,0.379419926958048,0.0406317124945808,0.5,0.107089031460051,0.964261889233997,5.70802776626451,2.83530266964613,0.5,66.5199480054644
CBC_1010,CBC_1010_MSI_TV_v3_Vset6_Tset3_2024-03-20_15h09.46.455.csv,1,31,0,2,z,0,1,3,tac,C,27,1,0C,2C,0,1,z,1.82179899999755,0,1,1,1,2C,0C,C02,3.8286413964891,0.661211785536533,0.446455484269974,0.446455484269974,0.5,0.355954492044149,0.605926686158988,0.5,0.446455484269974,0.446455484269974,0.5,0.661211785536533,0.5,0.5,0.398644998869475,0.5,0.716201043842951,0.5969407994262,0.4030592005738,0.661211785536533,0.446455484269974,0.626931352797155,0.958613994882652,0.338788214463467,0.0362805017569728,0.5,0.107089031460051,0.964261889233997,5.70802776626451,2.83530266964613,0.5,66.5199480054644
CBC_1010,CBC_1010_MSI_TV_v3_Vset6_Tset3_2024-03-20_15h09.46.455.csv,1,32,3,2,b,1,0,1,tac,D,63,1,3D,2D,1,0,b,2.38219799999933,1,0,1,1,3D,2D,D32,3.15700042115011,0.661211785536533,0.446455484269974,0.446455484269974,0.5,0.355954492044149,0.605926686158988,0.5,0.446455484269974,0.446455484269974,0.5,0.697492287293505,0.5,0.5,0.398644998869475,0.5,0.716201043842951,0.588883760188118,0.411116239811882,0.716201043842951,0.5,0.331438158923117,0.946784338893889,0.283798956157049,0.0303917553442319,0.5,0.107089031460051,0.964261889233997,5.70802776626451,2.83530266964613,0.5,66.5199480054644
CBC_1010,CBC_1010_MSI_TV_v3_Vset6_Tset3_2024-03-20_15h09.46.455.csv,1,33,0,1,z,0,1,0,tac,B,63,1,0B,1B,0,1,z,1.66380559999743,0,1,1,1,1B,0B,B01,2.77258872223978,0.661211785536533,0.446455484269974,0.446455484269974,0.5,0.355954492044149,0.605926686158988,0.5,0.446455484269974,0.446455484269974,0.5,0.697492287293505,0.5,0.5,0.398644998869475,0.5,0.746592799187183,0.629939227307579,0.370060772692421,0.605926686158988,0.355954492044149,0.871835275720744,0.985311901484383,0.394073313841012,0.0422009295034868,0.5,0.107089031460051,0.964261889233997,5.70802776626451,2.83530266964613,0.5,66.5199480054644
CBC_1010,CBC_1010_MSI_TV_v3_Vset6_Tset3_2024-03-20_15h09.46.455.csv,1,34,1,0,z,0,1,2,tac,A,63,1,1A,0A,0,1,z,2.31247139999869,0,1,1,1,0A,1A,A10,2.50552593699074,0.661211785536533,0.446455484269974,0.446455484269974,0.5,0.355954492044149,0.648127615662475,0.5,0.446455484269974,0.446455484269974,0.5,0.697492287293505,0.5,0.5,0.398644998869475,0.5,0.746592799187183,0.5969407994262,0.4030592005738,0.661211785536533,0.446455484269974,0.357714299165381,0.958598490849536,0.338788214463467,0.0362805017569728,0.5,0.107089031460051,0.964261889233997,5.70802776626451,2.83530266964613,0.5,66.5199480054644
CBC_1010,CBC_1010_MSI_TV_v3_Vset6_Tset3_2024-03-20_15h09.46.455.csv,1,35,3,2,b,1,0,1,tac,D,63,0,3D,2D,0,1,b,2.22548709999865,1,0,1,0,3D,2D,D32,2.81341071676004,0.697492287293505,0.446455484269974,0.446455484269974,0.5,0.355954492044149,0.648127615662475,0.5,0.446455484269974,0.446455484269974,0.5,0.697492287293505,0.5,0.5,0.398644998869475,0.5,0.746592799187183,0.598906715708598,0.401093284291402,0.746592799187183,0.5,0.397241002158732,0.960946064669179,-0.746592799187183,-0.079951899760004,0.5,0.107089031460051,0.964261889233997,5.70802776626451,2.83530266964613,0.5,66.5199480054644
CBC_1010,CBC_1010_MSI_TV_v3_Vset6_Tset3_2024-03-20_15h09.46.455.csv,1,36,0,2,z,0,1,3,tac,C,27,1,0C,2C,0,1,z,2.35540059999948,0,1,1,1,2C,0C,C02,3.23867845216438,0.697492287293505,0.446455484269974,0.446455484269974,0.5,0.355954492044149,0.648127615662475,0.5,0.446455484269974,0.446455484269974,0.5,0.697492287293505,0.5,0.5,0.398644998869475,0.5,0.666640899427179,0.609723891799898,0.390276108200102,0.697492287293505,0.446455484269974,0.328861461479378,0.972056106606384,0.302507712706495,0.0323952579629339,0.5,0.107089031460051,0.964261889233997,5.70802776626451,2.83530266964613,0.5,66.5199480054644
CBC_1010,CBC_1010_MSI_TV_v3_Vset6_Tset3_2024-03-20_15h09.46.455.csv,1,37,1,0,z,0,1,2,tac,A,63,1,1A,0A,0,1,z,2.36372579999806,0,1,1,1,0A,1A,A10,2.34180580614733,0.697492287293505,0.446455484269974,0.446455484269974,0.5,0.355954492044149,0.648127615662475,0.5,0.446455484269974,0.446455484269974,0.5,0.729887545256439,0.5,0.5,0.398644998869475,0.5,0.666640899427179,0.609723891799898,0.390276108200102,0.697492287293505,0.446455484269974,0.32502823411315,0.972106997897429,0.302507712706495,0.0323952579629339,0.5,0.107089031460051,0.964261889233997,5.70802776626451,2.83530266964613,0.5,66.5199480054644
CBC_1010,CBC_1010_MSI_TV_v3_Vset6_Tset3_2024-03-20_15h09.46.455.csv,1,38,3,1,z,0,1,0,tac,B,27,1,3B,1B,0,1,z,2.20439579999947,0,1,1,1,1B,3B,B31,3.27714473299218,0.729887545256439,0.446455484269974,0.446455484269974,0.5,0.355954492044149,0.648127615662475,0.5,0.446455484269974,0.446455484269974,0.5,0.729887545256439,0.5,0.5,0.398644998869475,0.5,0.666640899427179,0.592122805205446,0.407877194794554,0.648127615662475,0.446455484269974,0.405516981161318,0.951703108815461,0.351872384337525,0.0376816728362445,0.5,0.107089031460051,0.964261889233997,5.70802776626451,2.83530266964613,0.5,66.5199480054644
CBC_1010,CBC_1010_MSI_TV_v3_Vset6_Tset3_2024-03-20_15h09.46.455.csv,1,39,2,3,b,1,0,3,tac,C,63,1,2C,3C,1,0,b,2.28615069999796,1,0,1,1,2C,3C,C23,2.60268968544438,0.729887545256439,0.446455484269974,0.446455484269974,0.5,0.355954492044149,0.685809288498719,0.5,0.446455484269974,0.446455484269974,0.5,0.729887545256439,0.5,0.5,0.398644998869475,0.5,0.666640899427179,0.593458766268141,0.406541233731859,0.729887545256439,0.5,0.369568400146442,0.953860848453518,0.270112454743561,0.0289260811637848,0.5,0.107089031460051,0.964261889233997,5.70802776626451,2.83530266964613,0.5,66.5199480054644
CBC_1010,CBC_1010_MSI_TV_v3_Vset6_Tset3_2024-03-20_15h09.46.455.csv,1,40,2,3,z,0,1,1,tac,D,63,1,2D,3D,0,1,z,2.18528189999961,0,1,1,1,3D,2D,D23,2.62103882411258,0.729887545256439,0.446455484269974,0.446455484269974,0.5,0.355954492044149,0.685809288498719,0.5,0.446455484269974,0.446455484269974,0.5,0.758813626420224,0.5,0.5,0.398644998869475,0.5,0.666640899427179,0.571419105702963,0.428580894297037,0.666640899427179,0.5,0.387802891367847,0.909472995221762,0.333359100572821,0.0356991032087372,0.5,0.107089031460051,0.964261889233997,5.70802776626451,2.83530266964613,0.5,66.5199480054644
CBC_1010,CBC_1010_MSI_TV_v3_Vset6_Tset3_2024-03-20_15h09.46.455.csv,1,41,1,0,b,1,0,0,tac,B,63,1,1B,0B,1,0,b,1.67741039999964,1,0,1,1,1B,0B,B10,2.63905732961526,0.729887545256439,0.446455484269974,0.446455484269974,0.5,0.355954492044149,0.685809288498719,0.5,0.446455484269974,0.446455484269974,0.5,0.758813626420224,0.5,0.5,0.398644998869475,0.5,0.702340002635916,0.658315542647624,0.341684457352376,0.685809288498719,0.355954492044149,0.928304204883459,0.99409849773201,0.314190711501281,0.0336463789884165,0.5,0.107089031460051,0.964261889233997,5.70802776626451,2.83530266964613,0.5,66.5199480054644
CBC_1010,CBC_1010_MSI_TV_v3_Vset6_Tset3_2024-03-20_15h09.46.455.csv,1,42,0,2,b,1,0,2,tac,A,27,1,0A,2A,1,0,b,1.97217069999715,1,0,1,1,0A,2A,A02,3.3499040872746,0.729887545256439,0.446455484269974,0.446455484269974,0.5,0.355954492044149,0.719455667487136,0.5,0.446455484269974,0.446455484269974,0.5,0.758813626420224,0.5,0.5,0.398644998869475,0.5,0.702340002635916,0.620471688050284,0.379528311949716,0.729887545256439,0.446455484269974,0.558067953803454,0.980151311512425,0.270112454743561,0.0289260811637848,0.5,0.107089031460051,0.964261889233997,5.70802776626451,2.83530266964613,0.5,66.5199480054644
CBC_1010,CBC_1010_MSI_TV_v3_Vset6_Tset3_2024-03-20_15h09.46.455.csv,1,43,0,3,z,0,1,1,tac,D,9,1,0D,3D,0,1,z,2.12753739999971,0,1,1,1,3D,0D,D03,4.06044301054642,0.758813626420224,0.446455484269974,0.446455484269974,0.5,0.355954492044149,0.719455667487136,0.5,0.446455484269974,0.446455484269974,0.5,0.758813626420224,0.5,0.5,0.398644998869475,0.5,0.702340002635916,0.584144252953541,0.415855747046459,0.702340002635916,0.5,0.432283170078286,0.938325833391077,0.297659997364084,0.0318761208221211,0.5,0.107089031460051,0.964261889233997,5.70802776626451,2.83530266964613,0.5,66.5199480054644
CBC_1010,CBC_1010_MSI_TV_v3_Vset6_Tset3_2024-03-20_15h09.46.455.csv,1,44,2,3,b,1,0,3,tac,C,63,1,2C,3C,1,0,b,1.62228179999875,1,0,1,1,2C,3C,C23,2.46809953147162,0.758813626420224,0.446455484269974,0.446455484269974,0.5,0.355954492044149,0.719455667487136,0.5,0.446455484269974,0.446455484269974,0.5,0.758813626420224,0.5,0.5,0.398644998869475,0.5,0.734216123458037,0.602800613604824,0.397199386395177,0.758813626420224,0.5,0.772275562357559,0.965400017329712,0.241186373579776,0.0258284151480203,0.5,0.107089031460051,0.964261889233997,5.70802776626451,2.83530266964613,0.5,66.5199480054644
CBC_1010,CBC_1010_MSI_AV_v3_Vset4_Aset1_2024-03-20_16h28.37.956.csv,2,1,0,1,z,0,1,0,aud,B,63,1,0B,1B,0,1,z,2.37604719999945,0,1,1,1,1B,0B,B01,2.77258872223978,0.5,0.5,0.5,0.5,0.5,0.5,0.5,0.5,0.5,0.5,0.5,0.5,0.5,0.5,0.5,0.5,0.5,0.5,0.5,0.5,0.0791414387493506,0.500294800369697,0.5,0.0211671029272065,0.5,0.0423342058544129,0.767361298052646,10.1465345955153,1.76658167539716,0.5,46.9703836113496
CBC_1010,CBC_1010_MSI_AV_v3_Vset4_Aset1_2024-03-20_16h28.37.956.csv,2,2,1,0,z,0,1,2,aud,A,63,1,1A,0A,0,1,b,2.10877020000044,1,0,0,0,1A,0A,A10,2.83321334405622,0.5,0.5,0.5,0.5,0.5,0.521167102927206,0.5,0.5,0.5,0.5,0.5,0.5,0.5,0.5,0.5,0.5,0.5,0.5,0.5,0.5,0.120754439911651,0.500239265607785,-0.5,-0.0211671029272065,0.5,0.0423342058544129,0.767361298052646,10.1465345955153,1.76658167539716,0.5,46.9703836113496
CBC_1010,CBC_1010_MSI_AV_v3_Vset4_Aset1_2024-03-20_16h28.37.956.csv,2,3,2,1,b,1,0,3,aud,C,9,1,2C,1C,1,0,b,2.48329569999987,1,0,1,1,2C,1C,C21,2.89037175789616,0.5,0.478832897072794,0.5,0.5,0.5,0.521167102927206,0.5,0.5,0.5,0.5,0.5,0.5,0.5,0.5,0.5,0.5,0.5,0.5,0.5,0.5,0.0666397995147946,0.499122690812591,0.5,0.0211671029272065,0.5,0.0423342058544129,0.767361298052646,10.1465345955153,1.76658167539716,0.5,46.9703836113496
CBC_1010,CBC_1010_MSI_AV_v3_Vset4_Aset1_2024-03-20_16h28.37.956.csv,2,4,0,1,b,1,0,2,aud,A,63,1,0A,1A,1,0,b,1.48639019999973,1,0,1,1,0A,1A,A01,2.94443897916644,0.5,0.478832897072794,0.5,0.5,0.5,0.521167102927206,0.5,0.5,0.5,0.5,0.521167102927206,0.5,0.5,0.5,0.5,0.5,0.510812419050538,0.489187580949462,0.5,0.478832897072794,0.38549002216797,0.596253545291061,0.5,0.0211671029272065,0.5,0.0423342058544129,0.767361298052646,10.1465345955153,1.76658167539716,0.5,46.9703836113496
CBC_1010,CBC_1010_MSI_AV_v3_Vset4_Aset1_2024-03-20_16h28.37.956.csv,2,5,1,3,z,0,1,1,aud,D,27,1,1D,3D,0,1,b,1.52748389999942,1,0,0,0,1D,3D,D13,2.99573227355399,0.521167102927206,0.478832897072794,0.5,0.5,0.5,0.521167102927206,0.5,0.5,0.5,0.5,0.521167102927206,0.5,0.5,0.5,0.5,0.5,0.5,0.5,0.5,0.5,0.302013083238171,0.499114185961596,-0.5,-0.0211671029272065,0.5,0.0423342058544129,0.767361298052646,10.1465345955153,1.76658167539716,0.5,46.9703836113496
CBC_1010,CBC_1010_MSI_AV_v3_Vset4_Aset1_2024-03-20_16h28.37.956.csv,2,6,1,0,b,1,0,0,aud,B,63,1,1B,0B,1,0,z,1.56958610000038,0,1,0,0,0B,1B,B10,3.04452243772342,0.521167102927206,0.478832897072794,0.5,0.5,0.5,0.521167102927206,0.5,0.5,0.5,0.5,0.521167102927206,0.5,0.5,0.478832897072794,0.5,0.5,0.489635828031215,0.510364171968785,0.5,0.521167102927206,0.230855480681814,0.40798744835416,-0.5,-0.0211671029272065,0.5,0.0423342058544129,0.767361298052646,10.1465345955153,1.76658167539716,0.5,46.9703836113496
CBC_1010,CBC_1010_MSI_AV_v3_Vset4_Aset1_2024-03-20_16h28.37.956.csv,2,7,3,2,z,0,1,3,aud,C,63,1,3C,2C,0,1,z,2.45954560000064,0,1,1,1,2C,3C,C32,3.09104245335832,0.521167102927206,0.478832897072794,0.5,0.5,0.478832897072794,0.521167102927206,0.5,0.5,0.5,0.5,0.521167102927206,0.5,0.5,0.478832897072794,0.5,0.5,0.510364171968785,0.489635828031215,0.521167102927206,0.5,0.0803861641229535,0.591735629096945,0.478832897072794,0.0202710104345446,0.5,0.0423342058544129,0.767361298052646,10.1465345955153,1.76658167539716,0.5,46.9703836113496
CBC_1010,CBC_1010_MSI_AV_v3_Vset4_Aset1_2024-03-20_16h28.37.956.csv,2,8,0,2,b,1,0,2,aud,A,27,1,0A,2A,1,0,b,1.29264799999874,1,0,1,1,0A,2A,A02,3.13549421592915,0.521167102927206,0.478832897072794,0.5,0.5,0.478832897072794,0.521167102927206,0.5,0.5,0.5,0.5,0.541438113361751,0.5,0.5,0.478832897072794,0.5,0.5,0.510364171968785,0.489635828031215,0.521167102927206,0.5,0.520796586481119,0.592569644570443,0.478832897072794,0.0202710104345446,0.5,0.0423342058544129,0.767361298052646,10.1465345955153,1.76658167539716,0.5,46.9703836113496
CBC_1010,CBC_1010_MSI_AV_v3_Vset4_Aset1_2024-03-20_16h28.37.956.csv,2,9,2,3,z,0,1,1,aud,D,63,1,2D,3D,0,1,z,1.60464519999914,0,1,1,1,3D,2D,D23,3.17805383034795,0.541438113361751,0.478832897072794,0.5,0.5,0.478832897072794,0.521167102927206,0.5,0.5,0.5,0.5,0.541438113361751,0.5,0.5,0.478832897072794,0.5,0.5,0.5,0.5,0.5,0.5,0.268148640188471,0.500592912744167,0.5,0.0211671029272065,0.5,0.0423342058544129,0.767361298052646,10.1465345955153,1.76658167539716,0.5,46.9703836113496
CBC_1010,CBC_1010_MSI_AV_v3_Vset4_Aset1_2024-03-20_16h28.37.956.csv,2,10,1,3,b,1,0,0,aud,B,27,1,1B,3B,1,0,z,2.17506380000123,0,1,0,0,3B,1B,B13,3.2188758248682,0.541438113361751,0.478832897072794,0.5,0.5,0.478832897072794,0.521167102927206,0.5,0.5,0.5,0.5,0.541438113361751,0.5,0.5,0.478832897072794,0.5,0.521167102927206,0.489635828031215,0.510364171968785,0.5,0.521167102927206,0.0876347772526682,0.408758505483919,-0.5,-0.0211671029272065,0.5,0.0423342058544129,0.767361298052646,10.1465345955153,1.76658167539716,0.5,46.9703836113496
CBC_1010,CBC_1010_MSI_AV_v3_Vset4_Aset1_2024-03-20_16h28.37.956.csv,2,11,2,3,b,1,0,3,aud,C,63,0,2C,3C,0,1,b,2.24531790000037,1,0,1,0,2C,3C,C23,3.25809653802148,0.541438113361751,0.478832897072794,0.5,0.5,0.478832897072794,0.521167102927206,0.5,0.478832897072794,0.5,0.5,0.541438113361751,0.5,0.5,0.478832897072794,0.5,0.521167102927206,0.519894659524218,0.480105340475782,0.541438113361751,0.5,0.123146732589892,0.670913768141614,-0.541438113361751,-0.0229213525484813,0.5,0.0423342058544129,0.767361298052646,10.1465345955153,1.76658167539716,0.5,46.9703836113496
CBC_1010,CBC_1010_MSI_AV_v3_Vset4_Aset1_2024-03-20_16h28.37.956.csv,2,12,3,1,z,0,1,0,aud,B,27,1,3B,1B,0,1,z,2.35820249999961,0,1,1,1,1B,3B,B31,3.29583686600433,0.541438113361751,0.478832897072794,0.5,0.5,0.478832897072794,0.521167102927206,0.5,0.478832897072794,0.5,0.5,0.51851676081327,0.5,0.5,0.478832897072794,0.5,0.521167102927206,0.521167102927206,0.478832897072794,0.521167102927206,0.478832897072794,0.102685894274343,0.681405574351819,0.478832897072794,0.0202710104345446,0.5,0.0423342058544129,0.767361298052646,10.1465345955153,1.76658167539716,0.5,46.9703836113496
CBC_1010,CBC_1010_MSI_AV_v3_Vset4_Aset1_2024-03-20_16h28.37.956.csv,2,13,2,3,b,1,0,3,aud,C,63,1,2C,3C,1,0,z,2.1355683999991,0,1,0,0,3C,2C,C23,2.63905732961526,0.541438113361751,0.478832897072794,0.5,0.5,0.478832897072794,0.541438113361751,0.5,0.478832897072794,0.5,0.5,0.51851676081327,0.5,0.5,0.478832897072794,0.5,0.521167102927206,0.49090993809543,0.50909006190457,0.5,0.51851676081327,0.096010584873814,0.41915700495146,-0.5,-0.0211671029272065,0.5,0.0423342058544129,0.767361298052646,10.1465345955153,1.76658167539716,0.5,46.9703836113496
CBC_1010,CBC_1010_MSI_AV_v3_Vset4_Aset1_2024-03-20_16h28.37.956.csv,2,14,2,3,z,0,1,1,aud,D,63,1,2D,3D,0,1,b,1.12642499999856,1,0,0,0,2D,3D,D23,2.67414864942653,0.541438113361751,0.478832897072794,0.5,0.5,0.478832897072794,0.541438113361751,0.5,0.478832897072794,0.5,0.5,0.51851676081327,0.478832897072794,0.5,0.478832897072794,0.5,0.521167102927206,0.489635828031215,0.510364171968785,0.5,0.521167102927206,0.45555359243251,0.408645386317515,-0.5,-0.0211671029272065,0.5,0.0423342058544129,0.767361298052646,10.1465345955153,1.76658167539716,0.5,46.9703836113496
CBC_1010,CBC_1010_MSI_AV_v3_Vset4_Aset1_2024-03-20_16h28.37.956.csv,2,15,3,0,z,0,1,2,aud,A,9,1,3A,0A,0,1,z,0.990492999999333,0,1,1,1,0A,3A,A30,3.40119738166216,0.541438113361751,0.478832897072794,0.5,0.5,0.478832897072794,0.541438113361751,0.5,0.478832897072794,0.5,0.5,0.51851676081327,0.478832897072794,0.5,0.478832897072794,0.478832897072794,0.521167102927206,0.519894659524218,0.480105340475782,0.541438113361751,0.5,0.817034166253994,0.671531808211359,0.458561886638249,0.0194128533059316,0.5,0.0423342058544129,0.767361298052646,10.1465345955153,1.76658167539716,0.5,46.9703836113496
CBC_1010,CBC_1010_MSI_AV_v3_Vset4_Aset1_2024-03-20_16h28.37.956.csv,2,16,1,0,b,1,0,0,aud,B,63,0,1B,0B,0,1,b,1.45120700000007,1,0,1,0,1B,0B,B10,2.7408400239252,0.560850966667683,0.478832897072794,0.5,0.5,0.478832897072794,0.541438113361751,0.5,0.478832897072794,0.5,0.5,0.51851676081327,0.478832897072794,0.5,0.478832897072794,0.478832897072794,0.521167102927206,0.530680679764827,0.469319320235173,0.541438113361751,0.478832897072794,0.517982637791926,0.750245799357671,-0.541438113361751,-0.0229213525484813,0.5,0.0423342058544129,0.767361298052646,10.1465345955153,1.76658167539716,0.5,46.9703836113496
CBC_1010,CBC_1010_MSI_AV_v3_Vset4_Aset1_2024-03-20_16h28.37.956.csv,2,17,3,2,b,1,0,1,aud,D,63,1,3D,2D,1,0,z,1.02419449999979,0,1,0,0,2D,3D,D32,3.46573590279973,0.560850966667683,0.478832897072794,0.5,0.5,0.478832897072794,0.51851676081327,0.5,0.478832897072794,0.5,0.5,0.51851676081327,0.478832897072794,0.5,0.478832897072794,0.478832897072794,0.521167102927206,0.478832897072794,0.521167102927206,0.478832897072794,0.521167102927206,0.396475034014835,0.319255540860982,-0.478832897072794,-0.0202710104345446,0.5,0.0423342058544129,0.767361298052646,10.1465345955153,1.76658167539716,0.5,46.9703836113496
CBC_1010,CBC_1010_MSI_AV_v3_Vset4_Aset1_2024-03-20_16h28.37.956.csv,2,18,2,0,b,1,0,3,aud,C,27,1,2C,0C,1,0,b,1.32556320000003,1,0,1,1,2C,0C,C20,3.49650756146648,0.560850966667683,0.478832897072794,0.5,0.5,0.478832897072794,0.51851676081327,0.5,0.478832897072794,0.5,0.5,0.51851676081327,0.478832897072794,0.5,0.478832897072794,0.458561886638249,0.521167102927206,0.50909006190457,0.49090993809543,0.51851676081327,0.5,0.484851670475834,0.581443017050998,0.48148323918673,0.0203832105631806,0.5,0.0423342058544129,0.767361298052646,10.1465345955153,1.76658167539716,0.5,46.9703836113496
CBC_1010,CBC_1010_MSI_AV_v3_Vset4_Aset1_2024-03-20_16h28.37.956.csv,2,19,1,0,z,0,1,2,aud,A,63,1,1A,0A,0,1,z,0.951825199999803,0,1,1,1,0A,1A,A10,2.83321334405622,0.560850966667683,0.478832897072794,0.5,0.5,0.478832897072794,0.51851676081327,0.5,0.478832897072794,0.5,0.5,0.53889997137645,0.478832897072794,0.5,0.478832897072794,0.458561886638249,0.521167102927206,0.5394437542292,0.4605562457708,0.560850966667683,0.478832897072794,1.02646780003066,0.804616993576846,0.439149033332317,0.0185910255778568,0.5,0.0423342058544129,0.767361298052646,10.1465345955153,1.76658167539716,0.5,46.9703836113496
CBC_1010,CBC_1010_MSI_AV_v3_Vset4_Aset1_2024-03-20_16h28.37.956.csv,2,20,0,1,z,0,1,0,aud,B,63,1,0B,1B,0,1,z,1.00888630000009,0,1,1,1,1B,0B,B01,2.86220088092947,0.579441992245539,0.478832897072794,0.5,0.5,0.478832897072794,0.51851676081327,0.5,0.478832897072794,0.5,0.5,0.53889997137645,0.478832897072794,0.5,0.478832897072794,0.458561886638249,0.521167102927206,0.519894659524218,0.480105340475782,0.51851676081327,0.478832897072794,0.82674559539615,0.671036926506158,0.48148323918673,0.0203832105631806,0.5,0.0423342058544129,0.767361298052646,10.1465345955153,1.76658167539716,0.5,46.9703836113496
CBC_1010,CBC_1010_MSI_AV_v3_Vset4_Aset1_2024-03-20_16h28.37.956.csv,2,21,3,1,b,1,0,1,aud,D,27,1,3D,1D,1,0,b,1.71461099999942,1,0,1,1,3D,1D,D31,3.58351893845611,0.579441992245539,0.478832897072794,0.5,0.5,0.478832897072794,0.53889997137645,0.5,0.478832897072794,0.5,0.5,0.53889997137645,0.478832897072794,0.5,0.478832897072794,0.458561886638249,0.521167102927206,0.521167102927206,0.478832897072794,0.521167102927206,0.478832897072794,0.301076759330811,0.680142988936901,0.478832897072794,0.0202710104345446,0.5,0.0423342058544129,0.767361298052646,10.1465345955153,1.76658167539716,0.5,46.9703836113496
CBC_1010,CBC_1010_MSI_AV_v3_Vset4_Aset1_2024-03-20_16h28.37.956.csv,2,22,2,3,b,1,0,3,aud,C,63,1,2C,3C,1,0,z,1.50435389999984,0,1,0,0,3C,2C,C23,2.51230562397611,0.579441992245539,0.478832897072794,0.5,0.5,0.478832897072794,0.53889997137645,0.5,0.478832897072794,0.5,0.5,0.53889997137645,0.478832897072794,0.5,0.478832897072794,0.458561886638249,0.541438113361751,0.470489763981396,0.529510236018604,0.478832897072794,0.53889997137645,0.162205936328503,0.258020649714036,-0.478832897072794,-0.0202710104345446,0.5,0.0423342058544129,0.767361298052646,10.1465345955153,1.76658167539716,0.5,46.9703836113496
CBC_1010,CBC_1010_MSI_AV_v3_Vset4_Aset1_2024-03-20_16h28.37.956.csv,2,23,1,0,z,0,1,2,aud,A,63,1,1A,0A,0,1,z,1.03362379999817,0,1,1,1,0A,1A,A10,2.53897387105828,0.579441992245539,0.478832897072794,0.5,0.5,0.478832897072794,0.53889997137645,0.5,0.478832897072794,0.5,0.5,0.53889997137645,0.458561886638249,0.5,0.478832897072794,0.458561886638249,0.541438113361751,0.547534480969095,0.452465519030905,0.579441992245539,0.478832897072794,1.2278945085945,0.846211450205573,0.420558007754461,0.0178039892739991,0.5,0.0423342058544129,0.767361298052646,10.1465345955153,1.76658167539716,0.5,46.9703836113496
CBC_1010,CBC_1010_MSI_AV_v3_Vset4_Aset1_2024-03-20_16h28.37.956.csv,2,24,3,2,b,1,0,1,aud,D,63,1,3D,2D,1,0,b,1.30359399999907,1,0,1,1,3D,2D,D32,2.9704144655697,0.597245981519539,0.478832897072794,0.5,0.5,0.478832897072794,0.53889997137645,0.5,0.478832897072794,0.5,0.5,0.53889997137645,0.458561886638249,0.5,0.478832897072794,0.458561886638249,0.541438113361751,0.541438113361751,0.458561886638249,0.541438113361751,0.458561886638249,0.746653928493895,0.815013121261853,0.458561886638249,0.0194128533059316,0.5,0.0423342058544129,0.767361298052646,10.1465345955153,1.76658167539716,0.5,46.9703836113496
CBC_1010,CBC_1010_MSI_AV_v3_Vset4_Aset1_2024-03-20_16h28.37.956.csv,2,25,0,2,z,0,1,3,aud,C,27,1,0C,2C,0,1,z,1.33145069999955,0,1,1,1,2C,0C,C02,3.68887945411394,0.597245981519539,0.478832897072794,0.5,0.5,0.478832897072794,0.53889997137645,0.5,0.478832897072794,0.5,0.5,0.53889997137645,0.458561886638249,0.5,0.478832897072794,0.458561886638249,0.560850966667683,0.518721711641262,0.481278288358738,0.53889997137645,0.5,0.552677835772702,0.661688554727103,0.46110002862355,0.0195203035312251,0.5,0.0423342058544129,0.767361298052646,10.1465345955153,1.76658167539716,0.5,46.9703836113496
CBC_1010,CBC_1010_MSI_AV_v3_Vset4_Aset1_2024-03-20_16h28.37.956.csv,2,26,1,0,z,0,1,2,aud,A,63,1,1A,0A,0,1,z,1.02131290000034,0,1,1,1,0A,1A,A10,2.32727770558442,0.597245981519539,0.478832897072794,0.5,0.5,0.478832897072794,0.53889997137645,0.5,0.478832897072794,0.5,0.5,0.558420274907675,0.458561886638249,0.5,0.478832897072794,0.458561886638249,0.560850966667683,0.555020634082906,0.444979365917094,0.597245981519539,0.478832897072794,1.35689712643527,0.878041482985169,0.402754018480461,0.0170502715270439,0.5,0.0423342058544129,0.767361298052646,10.1465345955153,1.76658167539716,0.5,46.9703836113496
CBC_1010,CBC_1010_MSI_AV_v3_Vset4_Aset1_2024-03-20_16h28.37.956.csv,2,27,3,1,z,0,1,0,aud,B,27,1,3B,1B,0,1,z,1.4952572000002,0,1,1,1,1B,3B,B31,3.04452243772342,0.614296253046582,0.478832897072794,0.5,0.5,0.478832897072794,0.53889997137645,0.5,0.478832897072794,0.5,0.5,0.558420274907675,0.458561886638249,0.5,0.478832897072794,0.458561886638249,0.560850966667683,0.529510236018604,0.470489763981396,0.53889997137645,0.478832897072794,0.473959915644361,0.741976788334071,0.46110002862355,0.0195203035312251,0.5,0.0423342058544129,0.767361298052646,10.1465345955153,1.76658167539716,0.5,46.9703836113496
CBC_1010,CBC_1010_MSI_AV_v3_Vset4_Aset1_2024-03-20_16h28.37.956.csv,2,28,2,3,b,1,0,3,aud,C,63,1,2C,3C,1,0,b,1.23769150000044,1,0,1,1,2C,3C,C23,2.37490575457367,0.614296253046582,0.478832897072794,0.5,0.5,0.478832897072794,0.558420274907675,0.5,0.478832897072794,0.5,0.5,0.558420274907675,0.458561886638249,0.5,0.478832897072794,0.458561886638249,0.560850966667683,0.549095447317203,0.450904552682797,0.558420274907675,0.458561886638249,0.906418820071603,0.8532568182961,0.441579725092325,0.0186939269831936,0.5,0.0423342058544129,0.767361298052646,10.1465345955153,1.76658167539716,0.5,46.9703836113496
CBC_1010,CBC_1010_MSI_AV_v3_Vset4_Aset1_2024-03-20_16h28.37.956.csv,2,29,2,3,z,0,1,1,aud,D,63,0,2D,3D,1,0,b,1.06256579999899,1,0,0,1,2D,3D,D23,2.68557734525015,0.614296253046582,0.478832897072794,0.5,0.5,0.478832897072794,0.558420274907675,0.5,0.478832897072794,0.5,0.5,0.577114201890869,0.458561886638249,0.5,0.478832897072794,0.458561886638249,0.560850966667683,0.449829414207545,0.550170585792455,0.458561886638249,0.560850966667683,0.204300093917704,0.141764152464033,0.541438113361751,0.0229213525484813,0.5,0.0423342058544129,0.767361298052646,10.1465345955153,1.76658167539716,0.5,46.9703836113496
CBC_1010,CBC_1010_MSI_AV_v3_Vset4_Aset1_2024-03-20_16h28.37.956.csv,2,30,1,0,b,1,0,0,aud,B,63,1,1B,0B,1,0,b,1.17186039999979,1,0,1,1,1B,0B,B10,2.70805020110221,0.614296253046582,0.478832897072794,0.5,0.5,0.478832897072794,0.558420274907675,0.5,0.478832897072794,0.5,0.5,0.577114201890869,0.458561886638249,0.5,0.478832897072794,0.48148323918673,0.560850966667683,0.538364489974479,0.461635510025521,0.558420274907675,0.478832897072794,0.917627996118416,0.798280620471847,0.441579725092325,0.0186939269831936,0.5,0.0423342058544129,0.767361298052646,10.1465345955153,1.76658167539716,0.5,46.9703836113496
CBC_1010,CBC_1010_MSI_AV_v3_Vset4_Aset1_2024-03-20_16h28.37.956.csv,2,31,0,2,b,1,0,2,aud,A,27,1,0A,2A,1,0,b,0.979007699999784,1,0,1,1,0A,2A,A02,3.13549421592915,0.614296253046582,0.478832897072794,0.5,0.5,0.478832897072794,0.577114201890869,0.5,0.478832897072794,0.5,0.5,0.577114201890869,0.458561886638249,0.5,0.478832897072794,0.48148323918673,0.560850966667683,0.551286295154492,0.448713704845508,0.614296253046582,0.5,1.27954755464266,0.862401596911121,0.385703746953418,0.0163284618223444,0.5,0.0423342058544129,0.767361298052646,10.1465345955153,1.76658167539716,0.5,46.9703836113496
CBC_1010,CBC_1010_MSI_AV_v3_Vset4_Aset1_2024-03-20_16h28.37.956.csv,2,32,0,3,z,0,1,1,aud,D,9,1,0D,3D,0,1,b,0.843183599999975,1,0,0,0,0D,3D,D03,3.85014760171006,0.630624714868927,0.478832897072794,0.5,0.5,0.478832897072794,0.577114201890869,0.5,0.478832897072794,0.5,0.5,0.577114201890869,0.458561886638249,0.5,0.478832897072794,0.48148323918673,0.560850966667683,0.471319738314032,0.528680261685968,0.5,0.560850966667683,0.058181379121983,0.264058336328796,-0.5,-0.0211671029272065,0.5,0.0423342058544129,0.767361298052646,10.1465345955153,1.76658167539716,0.5,46.9703836113496
CBC_1010,CBC_1010_MSI_AV_v3_Vset4_Aset1_2024-03-20_16h28.37.956.csv,2,33,2,3,b,1,0,3,aud,C,63,1,2C,3C,1,0,z,1.37135609999859,0,1,0,0,3C,2C,C23,2.26176309847379,0.630624714868927,0.478832897072794,0.5,0.5,0.478832897072794,0.577114201890869,0.5,0.478832897072794,0.5,0.5,0.577114201890869,0.458561886638249,0.478832897072794,0.478832897072794,0.48148323918673,0.560850966667683,0.442765737007123,0.557234262992877,0.458561886638249,0.577114201890869,0.0924898600854873,0.114152865327192,-0.458561886638249,-0.0194128533059316,0.5,0.0423342058544129,0.767361298052646,10.1465345955153,1.76658167539716,0.5,46.9703836113496
CBC_1010,CBC_1010_MSI_AV_v3_Vset4_Aset1_2024-03-20_16h28.37.956.csv,2,34,1,0,b,1,0,0,aud,B,63,1,1B,0B,1,0,b,1.30852070000037,1,0,1,1,1B,0B,B10,2.50552593699074,0.630624714868927,0.478832897072794,0.5,0.5,0.478832897072794,0.577114201890869,0.5,0.478832897072794,0.5,0.5,0.577114201890869,0.439149033332317,0.478832897072794,0.478832897072794,0.48148323918673,0.560850966667683,0.546537040025268,0.453462959974732,0.577114201890869,0.478832897072794,0.771769902675308,0.841579344961176,0.422885798109131,0.0179025344300597,0.5,0.0423342058544129,0.767361298052646,10.1465345955153,1.76658167539716,0.5,46.9703836113496
CBC_1010,CBC_1010_MSI_AV_v3_Vset4_Aset1_2024-03-20_16h28.37.956.csv,2,35,1,0,z,0,1,2,aud,A,63,0,1A,0A,1,0,z,0.917133900000408,0,1,1,0,0A,1A,A10,2.30258509299405,0.630624714868927,0.478832897072794,0.5,0.5,0.478832897072794,0.595016736320928,0.5,0.478832897072794,0.5,0.5,0.577114201890869,0.439149033332317,0.478832897072794,0.478832897072794,0.48148323918673,0.560850966667683,0.568408119500156,0.431591880499844,0.630624714868927,0.478832897072794,1.32755253014136,0.920958347777661,-0.630624714868927,-0.0266969964961416,0.5,0.0423342058544129,0.767361298052646,10.1465345955153,1.76658167539716,0.5,46.9703836113496
CBC_1010,CBC_1010_MSI_AV_v3_Vset4_Aset1_2024-03-20_16h28.37.956.csv,2,36,3,2,b,1,0,1,aud,D,63,1,3D,2D,1,0,b,1.6655752000006,1,0,1,1,3D,2D,D32,2.83321334405622,0.603927718372785,0.478832897072794,0.5,0.5,0.478832897072794,0.595016736320928,0.5,0.478832897072794,0.5,0.5,0.577114201890869,0.439149033332317,0.478832897072794,0.478832897072794,0.48148323918673,0.560850966667683,0.538072111149751,0.461927888850249,0.560850966667683,0.48148323918673,0.368142256401474,0.796646602839429,0.439149033332317,0.0185910255778568,0.5,0.0423342058544129,0.767361298052646,10.1465345955153,1.76658167539716,0.5,46.9703836113496
CBC_1010,CBC_1010_MSI_AV_v3_Vset4_Aset1_2024-03-20_16h28.37.956.csv,2,37,2,1,z,0,1,0,aud,B,9,1,2B,1B,0,1,z,1.37054049999824,0,1,1,1,1B,2B,B21,3.95124371858143,0.603927718372785,0.478832897072794,0.5,0.5,0.478832897072794,0.595016736320928,0.5,0.478832897072794,0.5,0.5,0.577114201890869,0.439149033332317,0.478832897072794,0.478832897072794,0.48148323918673,0.579441992245539,0.543385974464723,0.456614025535277,0.595016736320928,0.5,0.667025020749812,0.825524692065896,0.404983263679072,0.0171446448521818,0.5,0.0423342058544129,0.767361298052646,10.1465345955153,1.76658167539716,0.5,46.9703836113496
CBC_1010,CBC_1010_MSI_AV_v3_Vset4_Aset1_2024-03-20_16h28.37.956.csv,2,38,0,2,b,1,0,2,aud,A,27,1,0A,2A,1,0,b,1.39310370000021,1,0,1,1,0A,2A,A02,2.87167962488401,0.603927718372785,0.478832897072794,0.5,0.5,0.478832897072794,0.61216138117311,0.5,0.478832897072794,0.5,0.5,0.577114201890869,0.439149033332317,0.478832897072794,0.478832897072794,0.48148323918673,0.579441992245539,0.547071794938702,0.452928205061298,0.603927718372785,0.5,0.653073772235056,0.843560467176004,0.396072281627215,0.0167674055036335,0.5,0.0423342058544129,0.767361298052646,10.1465345955153,1.76658167539716,0.5,46.9703836113496
CBC_1010,CBC_1010_MSI_AV_v3_Vset4_Aset1_2024-03-20_16h28.37.956.csv,2,39,3,2,z,0,1,3,aud,C,63,1,3C,2C,0,1,b,1.1285855999995,1,0,0,0,3C,2C,C32,3.29583686600433,0.620695123876419,0.478832897072794,0.5,0.5,0.478832897072794,0.61216138117311,0.5,0.478832897072794,0.5,0.5,0.577114201890869,0.439149033332317,0.478832897072794,0.478832897072794,0.48148323918673,0.579441992245539,0.432121342297573,0.567878657702427,0.439149033332317,0.577114201890869,0.115723783823706,0.0805636285662125,-0.439149033332317,-0.0185910255778568,0.5,0.0423342058544129,0.767361298052646,10.1465345955153,1.76658167539716,0.5,46.9703836113496
CBC_1010,CBC_1010_MSI_AV_v3_Vset4_Aset1_2024-03-20_16h28.37.956.csv,2,40,3,1,b,1,0,1,aud,D,27,1,3D,1D,1,0,b,2.19259759999841,1,0,1,1,3D,1D,D31,3.31418600467253,0.620695123876419,0.478832897072794,0.5,0.5,0.478832897072794,0.61216138117311,0.5,0.478832897072794,0.5,0.5,0.577114201890869,0.420558007754461,0.478832897072794,0.478832897072794,0.48148323918673,0.579441992245539,0.547534480969095,0.452465519030905,0.579441992245539,0.478832897072794,0.127713564789226,0.846016709512876,0.420558007754461,0.0178039892739991,0.5,0.0423342058544129,0.767361298052646,10.1465345955153,1.76658167539716,0.5,46.9703836113496
CBC_1010,CBC_1010_MSI_AV_v3_Vset4_Aset1_2024-03-20_16h28.37.956.csv,2,41,1,0,z,0,1,2,aud,A,63,1,1A,0A,0,1,z,1.01278359999924,0,1,1,1,0A,1A,A10,2.23359222150709,0.620695123876419,0.478832897072794,0.5,0.5,0.478832897072794,0.61216138117311,0.5,0.478832897072794,0.5,0.5,0.577114201890869,0.420558007754461,0.478832897072794,0.478832897072794,0.48148323918673,0.597245981519539,0.564510510010085,0.435489489989915,0.620695123876419,0.478832897072794,1.52160748186438,0.909696918316322,0.379304876123581,0.0160575707073983,0.5,0.0423342058544129,0.767361298052646,10.1465345955153,1.76658167539716,0.5,46.9703836113496
CBC_1010,CBC_1010_MSI_AV_v3_Vset4_Aset1_2024-03-20_16h28.37.956.csv,2,42,2,0,b,1,0,3,aud,C,27,1,2C,0C,1,0,b,1.18873309999981,1,0,1,1,2C,0C,C20,3.3499040872746,0.636752694583817,0.478832897072794,0.5,0.5,0.478832897072794,0.61216138117311,0.5,0.478832897072794,0.5,0.5,0.577114201890869,0.420558007754461,0.478832897072794,0.478832897072794,0.48148323918673,0.597245981519539,0.535796669357574,0.464203330642426,0.577114201890869,0.5,0.865565844593543,0.782725022654717,0.422885798109131,0.0179025344300597,0.5,0.0423342058544129,0.767361298052646,10.1465345955153,1.76658167539716,0.5,46.9703836113496
CBC_1010,CBC_1010_MSI_AV_v3_Vset4_Aset1_2024-03-20_16h28.37.956.csv,2,43,2,3,z,0,1,1,aud,D,63,1,2D,3D,0,1,b,1.28001049999875,1,0,0,0,2D,3D,D23,2.67414864942653,0.636752694583817,0.478832897072794,0.5,0.5,0.478832897072794,0.61216138117311,0.5,0.478832897072794,0.5,0.5,0.595016736320928,0.420558007754461,0.478832897072794,0.478832897072794,0.48148323918673,0.597245981519539,0.446343002437157,0.553656997562843,0.48148323918673,0.597245981519539,0.125838599230997,0.127670961234493,-0.48148323918673,-0.0203832105631806,0.5,0.0423342058544129,0.767361298052646,10.1465345955153,1.76658167539716,0.5,46.9703836113496
CBC_1010,CBC_1010_MSI_AV_v3_Vset4_Aset1_2024-03-20_16h28.37.956.csv,2,44,0,1,z,0,1,0,aud,B,63,1,0B,1B,0,1,z,1.31796849999955,0,1,1,1,1B,0B,B01,2.97892515523761,0.636752694583817,0.478832897072794,0.5,0.5,0.478832897072794,0.61216138117311,0.5,0.478832897072794,0.5,0.5,0.595016736320928,0.420558007754461,0.478832897072794,0.478832897072794,0.46110002862355,0.597245981519539,0.561104117023731,0.438895882976269,0.61216138117311,0.478832897072794,0.822948744851887,0.899411036036736,0.38783861882689,0.0164188399277087,0.5,0.0423342058544129,0.767361298052646,10.1465345955153,1.76658167539716,0.5,46.9703836113496
