ID,session,trialNr,mod2Stim,visStimLeft,visStimRight,correctKey,frequency,rewardAccurate,probFB,stimPairLeft,stimPairRight,leftCorrect,rightCorrect,pCorrectLeft,pCorrectRight,triplet,rt,surprise,0A belief,1A belief,2A belief,3A belief,0B belief,1B belief,2B belief,3B belief,0C belief,1C belief,2C belief,3C belief,0D belief,1D belief,2D belief,3D belief,reactionTime,choice,choiceLeft,choiceRight,chosenPair,otherPair,beliefPair,beliefOtherPair,beliefPairNorm,beliefOtherPairNorm,choiceAccurate,reward,rewardPE,update2,sim_CBCsimpleRW_CBCdriftDiffusionLR_startBelief,sim_CBCsimpleRW_CBCdriftDiffusionLR_alpha1,sim_CBCsimpleRW_CBCdriftDiffusionLR_nonDecisionTime,sim_CBCsimpleRW_CBCdriftDiffusionLR_weight,sim_CBCsimpleRW_CBCdriftDiffusionLR_startingBoundary,sim_CBCsimpleRW_CBCdriftDiffusionLR_startingPoint,lik,corrLik,fitCBCsimpleRW_CBCdriftDiffusionLR_startBelief,fitCBCsimpleRW_CBCdriftDiffusionLR_alpha1,fitCBCsimpleRW_CBCdriftDiffusionLR_nonDecisionTime,fitCBCsimpleRW_CBCdriftDiffusionLR_weight,fitCBCsimpleRW_CBCdriftDiffusionLR_startingBoundary,fitCBCsimpleRW_CBCdriftDiffusionLR_startingPoint,fit_CBCsimpleRW_CBCdriftDiffusionLR_NLL
179,1,1,C,2,0,a,27,1,0.95,2C,0C,1,0,1,0,C20,1.9957480816045,2.77258872223978,0.5,0.5,0.5,0.5,0.5,0.5,0.5,0.5,0.5,0.5,0.5,0.5,0.5,0.5,0.5,0.5,3.23394116908904,0,0,1,0C,2C,0.5,0.5,0.5,0.5,0,0,-0.5,-0.265064844989298,0.5,0.135651716811885,0.85194116908904,6.97820322168438,2.486454367413,0.5,0.0861628639940668,0.49954220639413,0.5,0.530129689978595,0.889561785190889,3.81114423541877,2.65250661205847,0.5,30.6331229366929
179,1,2,D,3,2,a,63,1,0.95,3D,2D,1,0,1,0,D32,2.04209081986451,2.83321334405622,0.5,0.5,0.5,0.5,0.5,0.5,0.5,0.5,0.234935155010702,0.5,0.5,0.5,0.5,0.5,0.5,0.5,3.06194116908904,0,0,1,2D,3D,0.5,0.5,0.5,0.5,0,0,-0.5,-0.265064844989298,0.5,0.135651716811885,0.85194116908904,6.97820322168438,2.486454367413,0.5,0.0971521902047807,0.499247915587542,0.5,0.530129689978595,0.889561785190889,3.81114423541877,2.65250661205847,0.5,30.6331229366929
179,1,3,A,1,0,l,63,1,0.95,1A,0A,0,1,0,1,A10,0.811125658760626,2.89037175789616,0.5,0.5,0.5,0.5,0.5,0.5,0.5,0.5,0.234935155010702,0.5,0.5,0.5,0.5,0.5,0.234935155010702,0.5,2.62094116908904,1,1,0,1A,0A,0.5,0.5,0.5,0.5,0,0,-0.5,-0.265064844989298,0.5,0.135651716811885,0.85194116908904,6.97820322168438,2.486454367413,0.5,0.132606143952771,0.500227050587599,0.5,0.530129689978595,0.889561785190889,3.81114423541877,2.65250661205847,0.5,30.6331229366929
179,1,4,C,2,3,a,63,1,0.95,2C,3C,1,0,1,0,C23,1.24966623133818,2.94443897916644,0.5,0.234935155010702,0.5,0.5,0.5,0.5,0.5,0.5,0.234935155010702,0.5,0.5,0.5,0.5,0.5,0.234935155010702,0.5,1.63994116908904,1,1,0,2C,3C,0.5,0.5,0.5,0.5,1,1,0.5,0.265064844989298,0.5,0.135651716811885,0.85194116908904,6.97820322168438,2.486454367413,0.5,0.252326593294143,0.500539244946345,0.5,0.530129689978595,0.889561785190889,3.81114423541877,2.65250661205847,0.5,30.6331229366929
179,1,5,A,0,2,a,27,1,0.95,0A,2A,1,0,1,0,A02,0.361156927232337,2.99573227355399,0.5,0.234935155010702,0.5,0.5,0.5,0.5,0.5,0.5,0.234935155010702,0.5,0.765064844989298,0.5,0.5,0.5,0.234935155010702,0.5,3.43494116908904,0,0,1,2A,0A,0.5,0.5,0.5,0.5,0,0,-0.5,-0.265064844989298,0.5,0.135651716811885,0.85194116908904,6.97820322168438,2.486454367413,0.5,0.0748138279088117,0.499411439372336,0.5,0.530129689978595,0.889561785190889,3.81114423541877,2.65250661205847,0.5,30.6331229366929
179,1,6,D,2,3,l,63,1,0.95,2D,3D,0,1,0,1,D23,0.271570611569461,3.04452243772342,0.5,0.234935155010702,0.234935155010702,0.5,0.5,0.5,0.5,0.5,0.234935155010702,0.5,0.765064844989298,0.5,0.5,0.5,0.234935155010702,0.5,1.85694116908904,0,0,1,3D,2D,0.5,0.234935155010702,0.680332130788762,0.319667869211238,1,1,0.5,0.265064844989298,0.5,0.135651716811885,0.85194116908904,6.97820322168438,2.486454367413,0.5,0.554925553060377,0.974505504565605,0.5,0.530129689978595,0.889561785190889,3.81114423541877,2.65250661205847,0.5,30.6331229366929
179,1,7,D,3,2,a,63,1,0.95,3D,2D,1,0,1,0,D32,3.06951529654088,2.39789527279837,0.5,0.234935155010702,0.234935155010702,0.5,0.5,0.5,0.5,0.5,0.234935155010702,0.5,0.765064844989298,0.5,0.5,0.5,0.234935155010702,0.765064844989298,1.51794116908904,1,1,0,3D,2D,0.765064844989298,0.234935155010702,0.765064844989298,0.234935155010702,1,1,0.234935155010702,0.124546100890897,0.5,0.135651716811885,0.85194116908904,6.97820322168438,2.486454367413,0.5,1.05947545155824,0.99532462605832,0.5,0.530129689978595,0.889561785190889,3.81114423541877,2.65250661205847,0.5,30.6331229366929
179,1,8,B,3,1,l,27,1,0.95,3B,1B,0,1,0,1,B31,0.89760695466734,3.13549421592915,0.5,0.234935155010702,0.234935155010702,0.5,0.5,0.5,0.5,0.5,0.234935155010702,0.5,0.765064844989298,0.5,0.5,0.5,0.234935155010702,0.889610945880195,1.08394116908904,1,1,0,3B,1B,0.5,0.5,0.5,0.5,0,0,-0.5,-0.265064844989298,0.5,0.135651716811885,0.85194116908904,6.97820322168438,2.486454367413,0.5,0.0670258768521469,0.500755840372156,0.5,0.530129689978595,0.889561785190889,3.81114423541877,2.65250661205847,0.5,30.6331229366929
179,1,9,D,0,3,l,9,1,0.95,0D,3D,0,1,0,1,D03,1.66913182202995,3.17805383034795,0.5,0.234935155010702,0.234935155010702,0.5,0.5,0.5,0.5,0.234935155010702,0.234935155010702,0.5,0.765064844989298,0.5,0.5,0.5,0.234935155010702,0.889610945880195,1.53294116908904,0,0,1,3D,0D,0.889610945880195,0.5,0.64018705992324,0.35981294007676,1,1,0.110389054119805,0.0585205150375628,0.5,0.135651716811885,0.85194116908904,6.97820322168438,2.486454367413,0.5,0.746053867986865,0.944338330806197,0.5,0.530129689978595,0.889561785190889,3.81114423541877,2.65250661205847,0.5,30.6331229366929
179,1,10,B,1,0,a,63,1,0.95,1B,0B,1,0,1,0,B10,3.08876508293025,3.2188758248682,0.5,0.234935155010702,0.234935155010702,0.5,0.5,0.5,0.5,0.234935155010702,0.234935155010702,0.5,0.765064844989298,0.5,0.5,0.5,0.234935155010702,0.948131460917757,2.64594116908904,0,0,1,0B,1B,0.5,0.5,0.5,0.5,0,0,-0.5,-0.265064844989298,0.5,0.135651716811885,0.85194116908904,6.97820322168438,2.486454367413,0.5,0.130396225149261,0.500579944050593,0.5,0.530129689978595,0.889561785190889,3.81114423541877,2.65250661205847,0.5,30.6331229366929
179,1,11,A,1,0,l,63,1,0.95,1A,0A,0,1,0,1,A10,1.69182069367707,2.56494935746154,0.5,0.234935155010702,0.234935155010702,0.5,0.234935155010702,0.5,0.5,0.234935155010702,0.234935155010702,0.5,0.765064844989298,0.5,0.5,0.5,0.234935155010702,0.948131460917757,1.98894116908904,0,0,1,0A,1A,0.5,0.234935155010702,0.680332130788762,0.319667869211238,1,1,0.5,0.265064844989298,0.5,0.135651716811885,0.85194116908904,6.97820322168438,2.486454367413,0.5,0.449706727676813,0.97453760935021,0.5,0.530129689978595,0.889561785190889,3.81114423541877,2.65250661205847,0.5,30.6331229366929
179,1,12,B,0,1,l,63,1,0.95,0B,1B,0,1,0,1,B01,1.44212510249567,3.29583686600433,0.765064844989298,0.234935155010702,0.234935155010702,0.5,0.234935155010702,0.5,0.5,0.234935155010702,0.234935155010702,0.5,0.765064844989298,0.5,0.5,0.5,0.234935155010702,0.948131460917757,1.63794116908904,0,0,1,1B,0B,0.5,0.234935155010702,0.680332130788762,0.319667869211238,1,1,0.5,0.265064844989298,0.5,0.135651716811885,0.85194116908904,6.97820322168438,2.486454367413,0.5,0.770120918861311,0.974571080758618,0.5,0.530129689978595,0.889561785190889,3.81114423541877,2.65250661205847,0.5,30.6331229366929
179,1,13,D,2,3,l,63,1,0.95,2D,3D,0,1,0,1,D23,1.33334999245279,2.63905732961526,0.765064844989298,0.234935155010702,0.234935155010702,0.5,0.234935155010702,0.765064844989298,0.5,0.234935155010702,0.234935155010702,0.5,0.765064844989298,0.5,0.5,0.5,0.234935155010702,0.948131460917757,1.22294116908904,0,0,1,3D,2D,0.948131460917757,0.234935155010702,0.801418490009265,0.198581509990735,1,1,0.0518685390822425,0.0274970525433119,0.5,0.135651716811885,0.85194116908904,6.97820322168438,2.486454367413,0.5,1.716291349009,0.997747931445677,0.5,0.530129689978595,0.889561785190889,3.81114423541877,2.65250661205847,0.5,30.6331229366929
179,1,14,B,1,3,a,27,1,0.95,1B,3B,1,0,1,0,B13,3.3234934676862,3.36729582998647,0.765064844989298,0.234935155010702,0.234935155010702,0.5,0.234935155010702,0.765064844989298,0.5,0.234935155010702,0.234935155010702,0.5,0.765064844989298,0.5,0.5,0.5,0.234935155010702,0.975628513461069,1.35794116908904,1,1,0,1B,3B,0.765064844989298,0.234935155010702,0.765064844989298,0.234935155010702,1,1,0.234935155010702,0.124546100890897,0.5,0.135651716811885,0.85194116908904,6.97820322168438,2.486454367413,0.5,1.41604835515746,0.995344178869024,0.5,0.530129689978595,0.889561785190889,3.81114423541877,2.65250661205847,0.5,30.6331229366929
179,1,15,C,3,2,l,63,1,0.95,3C,2C,0,1,0,1,C32,1.63646057636385,3.40119738166216,0.765064844989298,0.234935155010702,0.234935155010702,0.5,0.234935155010702,0.889610945880195,0.5,0.234935155010702,0.234935155010702,0.5,0.765064844989298,0.5,0.5,0.5,0.234935155010702,0.975628513461069,1.73194116908904,0,0,1,2C,3C,0.765064844989298,0.5,0.604763343175322,0.395236656824678,1,1,0.234935155010702,0.124546100890897,0.5,0.135651716811885,0.85194116908904,6.97820322168438,2.486454367413,0.5,0.530121110960816,0.892224659813767,0.5,0.530129689978595,0.889561785190889,3.81114423541877,2.65250661205847,0.5,30.6331229366929
179,1,16,C,2,0,a,27,1,0.95,2C,0C,1,0,1,0,C20,0.413217099106402,2.7408400239252,0.765064844989298,0.234935155010702,0.234935155010702,0.5,0.234935155010702,0.889610945880195,0.5,0.234935155010702,0.234935155010702,0.5,0.889610945880195,0.5,0.5,0.5,0.234935155010702,0.975628513461069,1.37694116908904,1,1,0,2C,0C,0.889610945880195,0.234935155010702,0.791084460810828,0.208915539189172,1,1,0.110389054119805,0.0585205150375628,0.5,0.135651716811885,0.85194116908904,6.97820322168438,2.486454367413,0.5,1.46188864319784,0.997220423090881,0.5,0.530129689978595,0.889561785190889,3.81114423541877,2.65250661205847,0.5,30.6331229366929
179,1,17,A,0,3,a,9,1,0.95,0A,3A,1,0,1,0,A03,3.06236633763523,3.46573590279973,0.765064844989298,0.234935155010702,0.234935155010702,0.5,0.234935155010702,0.889610945880195,0.5,0.234935155010702,0.234935155010702,0.5,0.948131460917757,0.5,0.5,0.5,0.234935155010702,0.975628513461069,1.15994116908904,1,1,0,0A,3A,0.765064844989298,0.5,0.604763343175322,0.395236656824678,1,1,0.234935155010702,0.124546100890897,0.5,0.135651716811885,0.85194116908904,6.97820322168438,2.486454367413,0.5,0.384799393363389,0.892546313051617,0.5,0.530129689978595,0.889561785190889,3.81114423541877,2.65250661205847,0.5,30.6331229366929
179,1,18,C,2,3,a,63,0,0.95,2C,3C,1,0,0,1,C23,2.09508695943067,2.80336038090653,0.889610945880195,0.234935155010702,0.234935155010702,0.5,0.234935155010702,0.889610945880195,0.5,0.234935155010702,0.234935155010702,0.5,0.948131460917757,0.5,0.5,0.5,0.234935155010702,0.975628513461069,1.69494116908904,1,1,0,2C,3C,0.948131460917757,0.5,0.654727479172973,0.345272520827027,1,0,-0.948131460917757,-0.502632637435284,0.5,0.135651716811885,0.85194116908904,6.97820322168438,2.486454367413,0.5,0.670209481406163,0.958100626175361,0.5,0.530129689978595,0.889561785190889,3.81114423541877,2.65250661205847,0.5,30.6331229366929
179,1,19,A,1,0,l,63,1,0.95,1A,0A,0,1,0,1,A10,3.04463554357746,2.42774823594805,0.889610945880195,0.234935155010702,0.234935155010702,0.5,0.234935155010702,0.889610945880195,0.5,0.234935155010702,0.234935155010702,0.5,0.445498823482474,0.5,0.5,0.5,0.234935155010702,0.975628513461069,1.64294116908904,0,0,1,0A,1A,0.889610945880195,0.234935155010702,0.791084460810828,0.208915539189172,1,1,0.110389054119805,0.0585205150375628,0.5,0.135651716811885,0.85194116908904,6.97820322168438,2.486454367413,0.5,0.747743147767059,0.99721681263255,0.5,0.530129689978595,0.889561785190889,3.81114423541877,2.65250661205847,0.5,30.6331229366929
179,1,20,D,3,2,a,63,1,0.95,3D,2D,1,0,1,0,D32,0.147054071287388,2.4567357728213,0.948131460917757,0.234935155010702,0.234935155010702,0.5,0.234935155010702,0.889610945880195,0.5,0.234935155010702,0.234935155010702,0.5,0.445498823482474,0.5,0.5,0.5,0.234935155010702,0.975628513461069,1.89494116908904,1,1,0,3D,2D,0.975628513461069,0.234935155010702,0.805929121177668,0.194070878822331,1,1,0.0243714865389306,0.0129200486032008,0.5,0.135651716811885,0.85194116908904,6.97820322168438,2.486454367413,0.5,0.313166705148569,0.997934535559982,0.5,0.530129689978595,0.889561785190889,3.81114423541877,2.65250661205847,0.5,30.6331229366929
179,1,21,C,3,2,l,63,1,0.95,3C,2C,0,1,0,1,C32,1.32489684691222,2.89037175789616,0.948131460917757,0.234935155010702,0.234935155010702,0.5,0.234935155010702,0.889610945880195,0.5,0.234935155010702,0.234935155010702,0.5,0.445498823482474,0.5,0.5,0.5,0.234935155010702,0.98854856206427,1.46394116908904,1,1,0,3C,2C,0.5,0.445498823482474,0.528821387802888,0.471178612197112,0,0,-0.5,-0.265064844989298,0.5,0.135651716811885,0.85194116908904,6.97820322168438,2.486454367413,0.5,0.347370973610509,0.642306946645244,0.5,0.530129689978595,0.889561785190889,3.81114423541877,2.65250661205847,0.5,30.6331229366929
179,1,22,D,3,1,a,27,1,0.95,3D,1D,1,0,1,0,D31,1.07693276974102,3.61091791264422,0.948131460917757,0.234935155010702,0.234935155010702,0.5,0.234935155010702,0.889610945880195,0.5,0.234935155010702,0.234935155010702,0.5,0.445498823482474,0.234935155010702,0.5,0.5,0.234935155010702,0.98854856206427,1.28294116908904,1,1,0,3D,1D,0.98854856206427,0.5,0.664102325753742,0.335897674246258,1,1,0.0114514379357298,0.00607074724267756,0.5,0.135651716811885,0.85194116908904,6.97820322168438,2.486454367413,0.5,0.884630370001463,0.964931579126879,0.5,0.530129689978595,0.889561785190889,3.81114423541877,2.65250661205847,0.5,30.6331229366929
179,1,23,A,0,1,a,63,1,0.95,0A,1A,1,0,1,0,A01,0.741685774799016,3.63758615972639,0.948131460917757,0.234935155010702,0.234935155010702,0.5,0.234935155010702,0.889610945880195,0.5,0.234935155010702,0.234935155010702,0.5,0.445498823482474,0.234935155010702,0.5,0.5,0.234935155010702,0.994619309306948,1.74994116908904,1,1,0,0A,1A,0.948131460917757,0.234935155010702,0.801418490009265,0.198581509990735,1,1,0.0518685390822425,0.0274970525433119,0.5,0.135651716811885,0.85194116908904,6.97820322168438,2.486454367413,0.5,0.517958936882594,0.997750143632821,0.5,0.530129689978595,0.889561785190889,3.81114423541877,2.65250661205847,0.5,30.6331229366929
179,1,24,C,3,2,l,63,1,0.95,3C,2C,0,1,0,1,C32,1.51288653932632,2.56494935746154,0.975628513461069,0.234935155010702,0.234935155010702,0.5,0.234935155010702,0.889610945880195,0.5,0.234935155010702,0.234935155010702,0.5,0.445498823482474,0.234935155010702,0.5,0.5,0.234935155010702,0.994619309306948,1.20494116908904,0,0,1,2C,3C,0.445498823482474,0.234935155010702,0.654727479172973,0.345272520827027,1,1,0.554501176517526,0.293957536800003,0.5,0.135651716811885,0.85194116908904,6.97820322168438,2.486454367413,0.5,0.705659000344831,0.958133934418733,0.5,0.530129689978595,0.889561785190889,3.81114423541877,2.65250661205847,0.5,30.6331229366929
179,1,25,A,0,2,a,27,1,0.95,0A,2A,1,0,1,0,A02,3.25404431663986,2.99573227355399,0.975628513461069,0.234935155010702,0.234935155010702,0.5,0.234935155010702,0.889610945880195,0.5,0.234935155010702,0.234935155010702,0.5,0.739456360282476,0.234935155010702,0.5,0.5,0.234935155010702,0.994619309306948,1.59994116908904,1,1,0,0A,2A,0.975628513461069,0.234935155010702,0.805929121177668,0.194070878822331,1,1,0.0243714865389306,0.0129200486032008,0.5,0.135651716811885,0.85194116908904,6.97820322168438,2.486454367413,0.5,0.818322317488366,0.997943646945081,0.5,0.530129689978595,0.889561785190889,3.81114423541877,2.65250661205847,0.5,30.6331229366929
179,1,26,B,1,0,a,63,1,0.95,1B,0B,1,0,1,0,B10,3.44023317578974,3.02042488614436,0.98854856206427,0.234935155010702,0.234935155010702,0.5,0.234935155010702,0.889610945880195,0.5,0.234935155010702,0.234935155010702,0.5,0.739456360282476,0.234935155010702,0.5,0.5,0.234935155010702,0.994619309306948,1.47394116908904,1,1,0,1B,0B,0.889610945880195,0.234935155010702,0.791084460810828,0.208915539189172,1,1,0.110389054119805,0.0585205150375628,0.5,0.135651716811885,0.85194116908904,6.97820322168438,2.486454367413,0.5,1.18351958057813,0.997236673782173,0.5,0.530129689978595,0.889561785190889,3.81114423541877,2.65250661205847,0.5,30.6331229366929
179,1,27,B,0,1,l,63,1,0.95,0B,1B,0,1,0,1,B01,2.69678885450978,3.04452243772342,0.98854856206427,0.234935155010702,0.234935155010702,0.5,0.234935155010702,0.948131460917757,0.5,0.234935155010702,0.234935155010702,0.5,0.739456360282476,0.234935155010702,0.5,0.5,0.234935155010702,0.994619309306948,1.49694116908904,0,0,1,1B,0B,0.948131460917757,0.234935155010702,0.801418490009265,0.198581509990735,1,1,0.0518685390822425,0.0274970525433119,0.5,0.135651716811885,0.85194116908904,6.97820322168438,2.486454367413,0.5,1.11328324714226,0.997752297909592,0.5,0.530129689978595,0.889561785190889,3.81114423541877,2.65250661205847,0.5,30.6331229366929
179,1,28,C,3,2,l,63,1,0.95,3C,2C,0,1,0,1,C32,0.902039601693729,2.37490575457367,0.98854856206427,0.234935155010702,0.234935155010702,0.5,0.234935155010702,0.975628513461069,0.5,0.234935155010702,0.234935155010702,0.5,0.739456360282476,0.234935155010702,0.5,0.5,0.234935155010702,0.994619309306948,2.80194116908904,0,0,1,2C,3C,0.739456360282476,0.234935155010702,0.758890393313807,0.241109606686193,1,1,0.260543639717524,0.138121918949346,0.5,0.135651716811885,0.85194116908904,6.97820322168438,2.486454367413,0.5,0.0385241615379112,0.99471188642403,0.5,0.530129689978595,0.889561785190889,3.81114423541877,2.65250661205847,0.5,30.6331229366929
179,1,29,D,3,1,a,27,1,0.95,3D,1D,1,0,1,0,D31,0.070398249083781,3.09104245335832,0.98854856206427,0.234935155010702,0.234935155010702,0.5,0.234935155010702,0.975628513461069,0.5,0.234935155010702,0.234935155010702,0.5,0.877578279231822,0.234935155010702,0.5,0.5,0.234935155010702,0.994619309306948,1.43194116908904,1,1,0,3D,1D,0.994619309306948,0.5,0.665466653022267,0.334533346977732,1,1,0.00538069069305225,0.0028524638889785,0.5,0.135651716811885,0.85194116908904,6.97820322168438,2.486454367413,0.5,0.90526768538974,0.965894843025566,0.5,0.530129689978595,0.889561785190889,3.81114423541877,2.65250661205847,0.5,30.6331229366929
179,1,30,C,1,2,l,9,1,0.95,1C,2C,0,1,0,1,C12,1.97847357323356,3.80666248977032,0.98854856206427,0.234935155010702,0.234935155010702,0.5,0.234935155010702,0.975628513461069,0.5,0.234935155010702,0.234935155010702,0.5,0.877578279231822,0.234935155010702,0.5,0.5,0.234935155010702,0.997471773195926,3.48094116908904,0,0,1,2C,1C,0.877578279231822,0.5,0.637044219164943,0.362955780835057,1,1,0.122421720768178,0.0648993888774803,0.5,0.135651716811885,0.85194116908904,6.97820322168438,2.486454367413,0.5,0.0704461879084647,0.941144885355733,0.5,0.530129689978595,0.889561785190889,3.81114423541877,2.65250661205847,0.5,30.6331229366929
179,1,31,B,3,1,l,27,1,0.95,3B,1B,0,1,0,1,B31,3.39523828504566,3.13549421592915,0.98854856206427,0.234935155010702,0.234935155010702,0.5,0.234935155010702,0.975628513461069,0.5,0.234935155010702,0.234935155010702,0.5,0.942477668109302,0.234935155010702,0.5,0.5,0.234935155010702,0.997471773195926,1.10294116908904,0,0,1,1B,3B,0.975628513461069,0.234935155010702,0.805929121177668,0.194070878822331,1,1,0.0243714865389306,0.0129200486032008,0.5,0.135651716811885,0.85194116908904,6.97820322168438,2.486454367413,0.5,1.0734623344016,0.997941966943022,0.5,0.530129689978595,0.889561785190889,3.81114423541877,2.65250661205847,0.5,30.6331229366929
179,1,32,D,3,2,a,63,1,0.95,3D,2D,1,0,1,0,D32,2.27963877620491,2.46385324059017,0.98854856206427,0.234935155010702,0.234935155010702,0.5,0.234935155010702,0.98854856206427,0.5,0.234935155010702,0.234935155010702,0.5,0.942477668109302,0.234935155010702,0.5,0.5,0.234935155010702,0.997471773195926,1.27494116908904,1,1,0,3D,2D,0.997471773195926,0.234935155010702,0.809368845927721,0.190631154072279,1,1,0.00252822680407372,0.00134028809183918,0.5,0.135651716811885,0.85194116908904,6.97820322168438,2.486454367413,0.5,1.76503233415337,0.998089873779028,0.5,0.530129689978595,0.889561785190889,3.81114423541877,2.65250661205847,0.5,30.6331229366929
179,1,33,B,0,1,l,63,1,0.95,0B,1B,0,1,0,1,B01,2.3673160625433,2.77258872223978,0.98854856206427,0.234935155010702,0.234935155010702,0.5,0.234935155010702,0.98854856206427,0.5,0.234935155010702,0.234935155010702,0.5,0.942477668109302,0.234935155010702,0.5,0.5,0.234935155010702,0.998812061287765,1.95094116908904,0,0,1,1B,0B,0.98854856206427,0.234935155010702,0.807978519262708,0.192021480737292,1,1,0.0114514379357298,0.00607074724267756,0.5,0.135651716811885,0.85194116908904,6.97820322168438,2.486454367413,0.5,0.254395926396021,0.998024553801245,0.5,0.530129689978595,0.889561785190889,3.81114423541877,2.65250661205847,0.5,30.6331229366929
179,1,34,A,1,0,l,63,0,0.95,1A,0A,0,1,1,0,A10,1.59193558430301,2.50552593699074,0.98854856206427,0.234935155010702,0.234935155010702,0.5,0.234935155010702,0.994619309306948,0.5,0.234935155010702,0.234935155010702,0.5,0.942477668109302,0.234935155010702,0.5,0.5,0.234935155010702,0.998812061287765,1.80094116908904,0,0,1,0A,1A,0.98854856206427,0.234935155010702,0.807978519262708,0.192021480737292,1,0,-0.98854856206427,-0.524058942735918,0.5,0.135651716811885,0.85194116908904,6.97820322168438,2.486454367413,0.5,0.422757969284261,0.998024381221033,0.5,0.530129689978595,0.889561785190889,3.81114423541877,2.65250661205847,0.5,30.6331229366929
179,1,35,C,2,3,a,63,1,0.95,2C,3C,1,0,1,0,C23,0.544729047316103,2.81341071676004,0.464489619328352,0.234935155010702,0.234935155010702,0.5,0.234935155010702,0.994619309306948,0.5,0.234935155010702,0.234935155010702,0.5,0.942477668109302,0.234935155010702,0.5,0.5,0.234935155010702,0.998812061287765,1.07994116908904,1,1,0,2C,3C,0.942477668109302,0.234935155010702,0.800464925812382,0.199535074187617,1,1,0.0575223318906976,0.0304942959720614,0.5,0.135651716811885,0.85194116908904,6.97820322168438,2.486454367413,0.5,0.795506953816711,0.997713089697914,0.5,0.530129689978595,0.889561785190889,3.81114423541877,2.65250661205847,0.5,30.6331229366929
179,1,36,A,0,2,a,27,1,0.95,0A,2A,1,0,1,0,A02,3.38909787519241,2.83321334405622,0.464489619328352,0.234935155010702,0.234935155010702,0.5,0.234935155010702,0.994619309306948,0.5,0.234935155010702,0.234935155010702,0.5,0.972971964081364,0.234935155010702,0.5,0.5,0.234935155010702,0.998812061287765,2.24794116908904,1,1,0,0A,2A,0.464489619328352,0.234935155010702,0.664102325753742,0.335897674246258,1,1,0.535510380671648,0.28388995208578,0.5,0.135651716811885,0.85194116908904,6.97820322168438,2.486454367413,0.5,0.312114147498786,0.965074523441296,0.5,0.530129689978595,0.889561785190889,3.81114423541877,2.65250661205847,0.5,30.6331229366929
179,1,37,B,0,1,l,63,1,0.95,0B,1B,0,1,0,1,B01,0.897062901312509,2.56494935746154,0.748379571414133,0.234935155010702,0.234935155010702,0.5,0.234935155010702,0.994619309306948,0.5,0.234935155010702,0.234935155010702,0.5,0.972971964081364,0.234935155010702,0.5,0.5,0.234935155010702,0.998812061287765,1.12694116908904,0,0,1,1B,0B,0.994619309306948,0.234935155010702,0.808926597537035,0.191073402462966,1,1,0.00538069069305225,0.0028524638889785,0.5,0.135651716811885,0.85194116908904,6.97820322168438,2.486454367413,0.5,1.32238217051805,0.998058337394166,0.5,0.530129689978595,0.889561785190889,3.81114423541877,2.65250661205847,0.5,30.6331229366929
179,1,38,D,2,3,l,63,1,0.95,2D,3D,0,1,0,1,D23,0.140207931212852,2.87167962488401,0.748379571414133,0.234935155010702,0.234935155010702,0.5,0.234935155010702,0.997471773195926,0.5,0.234935155010702,0.234935155010702,0.5,0.972971964081364,0.234935155010702,0.5,0.5,0.234935155010702,0.998812061287765,1.41094116908904,0,0,1,3D,2D,0.998812061287765,0.234935155010702,0.809575939133169,0.190424060866831,1,1,0.00118793871223455,0.000629761581230473,0.5,0.135651716811885,0.85194116908904,6.97820322168438,2.486454367413,0.5,1.39309449086318,0.998092094148117,0.5,0.530129689978595,0.889561785190889,3.81114423541877,2.65250661205847,0.5,30.6331229366929
179,1,39,B,1,2,a,9,1,0.95,1B,2B,1,0,1,0,B12,3.29282110636522,3.98898404656427,0.748379571414133,0.234935155010702,0.234935155010702,0.5,0.234935155010702,0.997471773195926,0.5,0.234935155010702,0.234935155010702,0.5,0.972971964081364,0.234935155010702,0.5,0.5,0.234935155010702,0.999441822868996,1.29994116908904,1,1,0,1B,2B,0.997471773195926,0.5,0.666103889936508,0.333896110063492,1,1,0.00252822680407372,0.00134028809183918,0.5,0.135651716811885,0.85194116908904,6.97820322168438,2.486454367413,0.5,0.911054137951551,0.966402993013437,0.5,0.530129689978595,0.889561785190889,3.81114423541877,2.65250661205847,0.5,30.6331229366929
179,1,40,D,1,3,l,27,1,0.95,1D,3D,0,1,0,1,D13,0.96857601131401,4.00733318523247,0.748379571414133,0.234935155010702,0.234935155010702,0.5,0.234935155010702,0.998812061287765,0.5,0.234935155010702,0.234935155010702,0.5,0.972971964081364,0.234935155010702,0.5,0.5,0.234935155010702,0.999441822868996,1.67694116908904,0,0,1,3D,1D,0.999441822868996,0.5,0.666542581129749,0.333457418870251,1,1,0.000558177131004034,0.00029590626941231,0.5,0.135651716811885,0.85194116908904,6.97820322168438,2.486454367413,0.5,0.707422439113225,0.966681098315233,0.5,0.530129689978595,0.889561785190889,3.81114423541877,2.65250661205847,0.5,30.6331229366929
179,1,41,A,1,0,l,63,1,0.95,1A,0A,0,1,0,1,A10,2.87840117858309,2.41591377830105,0.748379571414133,0.234935155010702,0.234935155010702,0.5,0.234935155010702,0.998812061287765,0.5,0.234935155010702,0.234935155010702,0.5,0.972971964081364,0.234935155010702,0.5,0.5,0.234935155010702,0.999737729138408,1.64594116908904,0,0,1,0A,1A,0.748379571414133,0.234935155010702,0.761078372267558,0.238921627732442,1,1,0.251620428585867,0.133391459798507,0.5,0.135651716811885,0.85194116908904,6.97820322168438,2.486454367413,0.5,0.787205113572707,0.994930498973015,0.5,0.530129689978595,0.889561785190889,3.81114423541877,2.65250661205847,0.5,30.6331229366929
179,1,42,A,0,1,a,63,1,0.95,0A,1A,1,0,1,0,A01,0.77351891106726,3.3499040872746,0.88177103121264,0.234935155010702,0.234935155010702,0.5,0.234935155010702,0.998812061287765,0.5,0.234935155010702,0.234935155010702,0.5,0.972971964081364,0.234935155010702,0.5,0.5,0.234935155010702,0.999737729138408,1.73094116908904,1,1,0,0A,1A,0.88177103121264,0.234935155010702,0.789617754509587,0.210382245490413,1,1,0.11822896878736,0.0626766865697323,0.5,0.135651716811885,0.85194116908904,6.97820322168438,2.486454367413,0.5,0.578930095943275,0.997154372150504,0.5,0.530129689978595,0.889561785190889,3.81114423541877,2.65250661205847,0.5,30.6331229366929
179,1,43,C,2,0,a,27,1,0.95,2C,0C,1,0,1,0,C20,0.182923251684074,2.96183072187831,0.944447717782372,0.234935155010702,0.234935155010702,0.5,0.234935155010702,0.998812061287765,0.5,0.234935155010702,0.234935155010702,0.5,0.972971964081364,0.234935155010702,0.5,0.5,0.234935155010702,0.999737729138408,1.26794116908904,1,1,0,2C,0C,0.972971964081364,0.234935155010702,0.805502301213943,0.194497698786057,1,1,0.0270280359186362,0.014328364302277,0.5,0.135651716811885,0.85194116908904,6.97820322168438,2.486454367413,0.5,1.74982596965762,0.997929007977141,0.5,0.530129689978595,0.889561785190889,3.81114423541877,2.65250661205847,0.5,30.6331229366929
179,1,44,B,0,1,l,63,1,0.95,0B,1B,0,1,0,1,B01,3.14241377155795,2.46809953147162,0.944447717782372,0.234935155010702,0.234935155010702,0.5,0.234935155010702,0.998812061287765,0.5,0.234935155010702,0.234935155010702,0.5,0.987300328383641,0.234935155010702,0.5,0.5,0.234935155010702,0.999737729138408,1.50494116908904,0,0,1,1B,0B,0.998812061287765,0.234935155010702,0.809575939133169,0.190424060866831,1,1,0.00118793871223455,0.000629761581230473,0.5,0.135651716811885,0.85194116908904,6.97820322168438,2.486454367413,0.5,1.08226880624886,0.998079856114298,0.5,0.530129689978595,0.889561785190889,3.81114423541877,2.65250661205847,0.5,30.6331229366929
