ID,session,trialNr,mod2Stim,visStimLeft,visStimRight,correctKey,frequency,rewardAccurate,probFB,stimPairLeft,stimPairRight,leftCorrect,rightCorrect,pCorrectLeft,pCorrectRight,triplet,rt,surprise,0A belief,1A belief,2A belief,3A belief,0B belief,1B belief,2B belief,3B belief,0C belief,1C belief,2C belief,3C belief,0D belief,1D belief,2D belief,3D belief,reactionTime,choice,choiceLeft,choiceRight,chosenPair,otherPair,beliefPair,beliefOtherPair,beliefPairNorm,beliefOtherPairNorm,choiceAccurate,reward,rewardPE,update2,sim_CBCsimpleRW_CBCdriftDiffusionLR_startBelief,sim_CBCsimpleRW_CBCdriftDiffusionLR_alpha1,sim_CBCsimpleRW_CBCdriftDiffusionLR_nonDecisionTime,sim_CBCsimpleRW_CBCdriftDiffusionLR_weight,sim_CBCsimpleRW_CBCdriftDiffusionLR_startingBoundary,sim_CBCsimpleRW_CBCdriftDiffusionLR_startingPoint,lik,corrLik,fitCBCsimpleRW_CBCdriftDiffusionLR_startBelief,fitCBCsimpleRW_CBCdriftDiffusionLR_alpha1,fitCBCsimpleRW_CBCdriftDiffusionLR_nonDecisionTime,fitCBCsimpleRW_CBCdriftDiffusionLR_weight,fitCBCsimpleRW_CBCdriftDiffusionLR_startingBoundary,fitCBCsimpleRW_CBCdriftDiffusionLR_startingPoint,fit_CBCsimpleRW_CBCdriftDiffusionLR_NLL
110,1,1,B,0,1,l,63,1,0.95,0B,1B,0,1,0,1,B01,1.45791410118127,2.77258872223978,0.5,0.5,0.5,0.5,0.5,0.5,0.5,0.5,0.5,0.5,0.5,0.5,0.5,0.5,0.5,0.5,1.07895711599612,1,1,0,0B,1B,0.5,0.5,0.5,0.5,0,0,-0.5,-0.499862243147455,0.5,0.984803445392719,0.628957115996124,13.4618522475509,3.1409699999461,0.5,0.0574910266864003,0.498932349995482,0.5,0.99972448629491,0.624675495682126,14.9947729476963,3.68116996557924,0.5,-47.1171262192232
110,1,2,D,2,3,l,63,1,0.95,2D,3D,0,1,0,1,D23,3.28445534142345,2.83321334405622,0.5,0.5,0.5,0.5,0.000137756852545023,0.5,0.5,0.5,0.5,0.5,0.5,0.5,0.5,0.5,0.5,0.5,1.64895711599612,1,1,0,2D,3D,0.5,0.5,0.5,0.5,0,0,-0.5,-0.499862243147455,0.5,0.984803445392719,0.628957115996124,13.4618522475509,3.1409699999461,0.5,0.135489705922012,0.499854820293647,0.5,0.99972448629491,0.624675495682126,14.9947729476963,3.68116996557924,0.5,-47.1171262192232
110,1,3,B,1,3,a,27,1,0.95,1B,3B,1,0,1,0,B13,2.03122050833706,2.89037175789616,0.5,0.5,0.5,0.5,0.000137756852545023,0.5,0.5,0.5,0.5,0.5,0.5,0.5,0.5,0.5,0.000137756852545023,0.5,2.42595711599612,1,1,0,1B,3B,0.5,0.5,0.5,0.5,1,1,0.5,0.499862243147455,0.5,0.984803445392719,0.628957115996124,13.4618522475509,3.1409699999461,0.5,0.118262014700401,0.499373160090838,0.5,0.99972448629491,0.624675495682126,14.9947729476963,3.68116996557924,0.5,-47.1171262192232
110,1,4,C,3,2,l,63,1,0.95,3C,2C,0,1,0,1,C32,3.4998070869736,2.94443897916644,0.5,0.5,0.5,0.5,0.000137756852545023,0.999862243147455,0.5,0.5,0.5,0.5,0.5,0.5,0.5,0.5,0.000137756852545023,0.5,5.35595711599612,0,0,1,2C,3C,0.5,0.5,0.5,0.5,1,1,0.5,0.499862243147455,0.5,0.984803445392719,0.628957115996124,13.4618522475509,3.1409699999461,0.5,0.0414230087890884,0.500391255653593,0.5,0.99972448629491,0.624675495682126,14.9947729476963,3.68116996557924,0.5,-47.1171262192232
110,1,5,C,2,0,a,27,1,0.95,2C,0C,1,0,1,0,C20,0.66251542115103,2.99573227355399,0.5,0.5,0.5,0.5,0.000137756852545023,0.999862243147455,0.5,0.5,0.5,0.5,0.999862243147455,0.5,0.5,0.5,0.000137756852545023,0.5,1.21195711599612,1,1,0,2C,0C,0.999862243147455,0.5,0.66663605122111,0.333363948778891,1,1,0.000137756852545023,0.000137718898644177,0.5,0.984803445392719,0.628957115996124,13.4618522475509,3.1409699999461,0.5,0.58927826438074,0.999999989713717,0.5,0.99972448629491,0.624675495682126,14.9947729476963,3.68116996557924,0.5,-47.1171262192232
110,1,6,A,3,0,l,9,1,0.95,3A,0A,0,1,0,1,A30,1.56794078303589,3.04452243772342,0.5,0.5,0.5,0.5,0.000137756852545023,0.999862243147455,0.5,0.5,0.5,0.5,0.999999962046099,0.5,0.5,0.5,0.000137756852545023,0.5,3.83295711599612,1,1,0,3A,0A,0.5,0.5,0.5,0.5,0,0,-0.5,-0.499862243147455,0.5,0.984803445392719,0.628957115996124,13.4618522475509,3.1409699999461,0.5,0.0721172186110125,0.50043720940997,0.5,0.99972448629491,0.624675495682126,14.9947729476963,3.68116996557924,0.5,-47.1171262192232
110,1,7,C,3,2,l,63,1,0.95,3C,2C,0,1,0,1,C32,0.561182310149669,2.39789527279837,0.5,0.5,0.5,0.000137756852545023,0.000137756852545023,0.999862243147455,0.5,0.5,0.5,0.5,0.999999962046099,0.5,0.5,0.5,0.000137756852545023,0.5,0.966957115996124,0,0,1,2C,3C,0.999999962046099,0.5,0.666666658232466,0.333333341767534,1,1,3.79539007999696e-08,3.79434439801376e-08,0.5,0.984803445392719,0.628957115996124,13.4618522475509,3.1409699999461,0.5,3.57781006384167,0.999999989792543,0.5,0.99972448629491,0.624675495682126,14.9947729476963,3.68116996557924,0.5,-47.1171262192232
110,1,8,A,0,1,a,63,1,0.95,0A,1A,1,0,1,0,A01,2.49750554378828,3.13549421592915,0.5,0.5,0.5,0.000137756852545023,0.000137756852545023,0.999862243147455,0.5,0.5,0.5,0.5,0.999999999989543,0.5,0.5,0.5,0.000137756852545023,0.5,1.88495711599612,0,0,1,1A,0A,0.5,0.5,0.5,0.5,0,0,-0.5,-0.499862243147455,0.5,0.984803445392719,0.628957115996124,13.4618522475509,3.1409699999461,0.5,0.135335158428256,0.499983605795541,0.5,0.99972448629491,0.624675495682126,14.9947729476963,3.68116996557924,0.5,-47.1171262192232
110,1,9,D,3,2,a,63,1,0.95,3D,2D,1,0,1,0,D32,2.08022002637498,3.17805383034795,0.5,0.000137756852545023,0.5,0.000137756852545023,0.000137756852545023,0.999862243147455,0.5,0.5,0.5,0.5,0.999999999989543,0.5,0.5,0.5,0.000137756852545023,0.5,0.747957115996124,1,1,0,3D,2D,0.5,0.000137756852545023,0.999724562181804,0.000275437818196234,1,1,0.5,0.499862243147455,0.5,0.984803445392719,0.628957115996124,13.4618522475509,3.1409699999461,0.5,16.9602427770208,1,0.5,0.99972448629491,0.624675495682126,14.9947729476963,3.68116996557924,0.5,-47.1171262192232
110,1,10,C,2,3,a,63,1,0.95,2C,3C,1,0,1,0,C23,0.886702750990872,3.2188758248682,0.5,0.000137756852545023,0.5,0.000137756852545023,0.000137756852545023,0.999862243147455,0.5,0.5,0.5,0.5,0.999999999989543,0.5,0.5,0.5,0.000137756852545023,0.999862243147455,0.956957115996124,1,1,0,2C,3C,0.999999999989543,0.5,0.666666666664343,0.333333333335657,1,1,1.0456857602037e-11,1.04539765944554e-11,0.5,0.984803445392719,0.628957115996124,13.4618522475509,3.1409699999461,0.5,3.65173396285335,0.999999989789509,0.5,0.99972448629491,0.624675495682126,14.9947729476963,3.68116996557924,0.5,-47.1171262192232
110,1,11,D,1,3,l,27,1,0.95,1D,3D,0,1,0,1,D13,2.37448921105257,3.25809653802148,0.5,0.000137756852545023,0.5,0.000137756852545023,0.000137756852545023,0.999862243147455,0.5,0.5,0.5,0.5,0.999999999999997,0.5,0.5,0.5,0.000137756852545023,0.999862243147455,1.02295711599612,0,0,1,3D,1D,0.999862243147455,0.5,0.66663605122111,0.333363948778891,1,1,0.000137756852545023,0.000137718898644177,0.5,0.984803445392719,0.628957115996124,13.4618522475509,3.1409699999461,0.5,2.84032370430929,0.999999989741481,0.5,0.99972448629491,0.624675495682126,14.9947729476963,3.68116996557924,0.5,-47.1171262192232
110,1,12,A,1,0,l,63,0,0.95,1A,0A,0,1,1,0,A10,2.29757560438077,3.29583686600433,0.5,0.000137756852545023,0.5,0.000137756852545023,0.000137756852545023,0.999862243147455,0.5,0.5,0.5,0.5,0.999999999999997,0.5,0.5,0.5,0.000137756852545023,0.999999962046099,0.780957115996124,0,0,1,0A,1A,0.5,0.000137756852545023,0.999724562181804,0.000275437818196234,1,0,-0.5,-0.499862243147455,0.5,0.984803445392719,0.628957115996124,13.4618522475509,3.1409699999461,0.5,5.31279243929958,1,0.5,0.99972448629491,0.624675495682126,14.9947729476963,3.68116996557924,0.5,-47.1171262192232
110,1,13,C,2,3,a,63,1,0.95,2C,3C,1,0,1,0,C23,0.0834936576214154,2.63905732961526,0.000137756852545023,0.000137756852545023,0.5,0.000137756852545023,0.000137756852545023,0.999862243147455,0.5,0.5,0.5,0.5,0.999999999999997,0.5,0.5,0.5,0.000137756852545023,0.999999962046099,1.03695711599612,1,1,0,2C,3C,0.999999999999997,0.5,0.666666666666666,0.333333333333334,1,1,2.88657986402541e-15,2.88578457171203e-15,0.5,0.984803445392719,0.628957115996124,13.4618522475509,3.1409699999461,0.5,2.6157217962603,0.999999989772299,0.5,0.99972448629491,0.624675495682126,14.9947729476963,3.68116996557924,0.5,-47.1171262192232
110,1,14,A,0,2,a,27,1,0.95,0A,2A,1,0,1,0,A02,0.713929930627782,3.36729582998647,0.000137756852545023,0.000137756852545023,0.5,0.000137756852545023,0.000137756852545023,0.999862243147455,0.5,0.5,0.5,0.5,1,0.5,0.5,0.5,0.000137756852545023,0.999999962046099,0.718957115996124,0,0,1,2A,0A,0.5,0.000137756852545023,0.999724562181804,0.000275437818196234,0,0,-0.5,-0.499862243147455,0.5,0.984803445392719,0.628957115996124,13.4618522475509,3.1409699999461,0.5,9.61942099876464,1,0.5,0.99972448629491,0.624675495682126,14.9947729476963,3.68116996557924,0.5,-47.1171262192232
110,1,15,B,0,1,l,63,1,0.95,0B,1B,0,1,0,1,B01,0.659762529139032,2.70805020110221,0.000137756852545023,0.000137756852545023,0.000137756852545023,0.000137756852545023,0.000137756852545023,0.999862243147455,0.5,0.5,0.5,0.5,1,0.5,0.5,0.5,0.000137756852545023,0.999999962046099,0.735957115996124,0,0,1,1B,0B,0.999862243147455,0.000137756852545023,0.999862243147455,0.000137756852545023,1,1,0.000137756852545023,0.000137718898644177,0.5,0.984803445392719,0.628957115996124,13.4618522475509,3.1409699999461,0.5,17.3103004136211,1,0.5,0.99972448629491,0.624675495682126,14.9947729476963,3.68116996557924,0.5,-47.1171262192232
110,1,16,D,3,2,a,63,1,0.95,3D,2D,1,0,1,0,D32,1.1565629579683,2.7408400239252,0.000137756852545023,0.000137756852545023,0.000137756852545023,0.000137756852545023,0.000137756852545023,0.999999962046099,0.5,0.5,0.5,0.5,1,0.5,0.5,0.5,0.000137756852545023,0.999999962046099,0.730957115996124,1,1,0,3D,2D,0.999999962046099,0.000137756852545023,0.999862262116565,0.000137737883435415,1,1,3.79539007999696e-08,3.79434439801376e-08,0.5,0.984803445392719,0.628957115996124,13.4618522475509,3.1409699999461,0.5,15.8887479591605,1,0.5,0.99972448629491,0.624675495682126,14.9947729476963,3.68116996557924,0.5,-47.1171262192232
110,1,17,B,1,2,a,9,1,0.95,1B,2B,1,0,1,0,B12,2.68836332247459,3.46573590279973,0.000137756852545023,0.000137756852545023,0.000137756852545023,0.000137756852545023,0.000137756852545023,0.999999962046099,0.5,0.5,0.5,0.5,1,0.5,0.5,0.5,0.000137756852545023,0.999999999989543,0.936957115996124,1,1,0,1B,2B,0.999999962046099,0.5,0.666666658232466,0.333333341767534,1,1,3.79539007999696e-08,3.79434439801376e-08,0.5,0.984803445392719,0.628957115996124,13.4618522475509,3.1409699999461,0.5,3.71237085137724,0.999999989789133,0.5,0.99972448629491,0.624675495682126,14.9947729476963,3.68116996557924,0.5,-47.1171262192232
110,1,18,D,1,3,l,27,1,0.95,1D,3D,0,1,0,1,D13,1.53807999194544,2.80336038090653,0.000137756852545023,0.000137756852545023,0.000137756852545023,0.000137756852545023,0.000137756852545023,0.999999999989543,0.5,0.5,0.5,0.5,1,0.5,0.5,0.5,0.000137756852545023,0.999999999989543,1.08295711599612,0,0,1,3D,1D,0.999999999989543,0.5,0.666666666664343,0.333333333335657,1,1,1.0456857602037e-11,1.04539765944554e-11,0.5,0.984803445392719,0.628957115996124,13.4618522475509,3.1409699999461,0.5,1.896623264901,0.999999989828504,0.5,0.99972448629491,0.624675495682126,14.9947729476963,3.68116996557924,0.5,-47.1171262192232
110,1,19,A,0,1,a,63,1,0.95,0A,1A,1,0,1,0,A01,0.223599917006837,2.83321334405622,0.000137756852545023,0.000137756852545023,0.000137756852545023,0.000137756852545023,0.000137756852545023,0.999999999989543,0.5,0.5,0.5,0.5,1,0.5,0.5,0.5,0.000137756852545023,0.999999999999997,5.13895711599612,1,1,0,0A,1A,0.000137756852545023,0.000137756852545023,0.5,0.5,1,1,0.999862243147455,0.999586767396266,0.5,0.984803445392719,0.628957115996124,13.4618522475509,3.1409699999461,0.5,0.0447715797118668,0.499749137426675,0.5,0.99972448629491,0.624675495682126,14.9947729476963,3.68116996557924,0.5,-47.1171262192232
110,1,20,A,1,0,l,63,1,0.95,1A,0A,0,1,0,1,A10,1.67691810243148,2.86220088092947,0.999724524248811,0.000137756852545023,0.000137756852545023,0.000137756852545023,0.000137756852545023,0.999999999989543,0.5,0.5,0.5,0.5,1,0.5,0.5,0.5,0.000137756852545023,0.999999999999997,0.762957115996124,0,0,1,0A,1A,0.999724524248811,0.000137756852545023,0.99986222417312,0.000137775826880161,1,1,0.000275475751189247,0.000275399853844374,0.5,0.984803445392719,0.628957115996124,13.4618522475509,3.1409699999461,0.5,11.7461046110071,1,0.5,0.99972448629491,0.624675495682126,14.9947729476963,3.68116996557924,0.5,-47.1171262192232
110,1,21,C,2,0,a,27,1,0.95,2C,0C,1,0,1,0,C20,0.910132766527656,2.89037175789616,0.999999924102655,0.000137756852545023,0.000137756852545023,0.000137756852545023,0.000137756852545023,0.999999999989543,0.5,0.5,0.5,0.5,1,0.5,0.5,0.5,0.000137756852545023,0.999999999999997,0.912957115996124,1,1,0,2C,0C,1,0.5,0.666666666666667,0.333333333333333,1,1,0,0,0.5,0.984803445392719,0.628957115996124,13.4618522475509,3.1409699999461,0.5,3.59654638952648,0.999999989800739,0.5,0.99972448629491,0.624675495682126,14.9947729476963,3.68116996557924,0.5,-47.1171262192232
110,1,22,B,0,1,l,63,1,0.95,0B,1B,0,1,0,1,B01,2.31657803348547,2.51230562397611,0.999999924102655,0.000137756852545023,0.000137756852545023,0.000137756852545023,0.000137756852545023,0.999999999989543,0.5,0.5,0.5,0.5,1,0.5,0.5,0.5,0.000137756852545023,0.999999999999997,0.735957115996124,0,0,1,1B,0B,0.999999999989543,0.000137756852545023,0.99986226212179,0.000137737878209885,1,1,1.0456857602037e-11,1.04539765944554e-11,0.5,0.984803445392719,0.628957115996124,13.4618522475509,3.1409699999461,0.5,17.3035359283984,1,0.5,0.99972448629491,0.624675495682126,14.9947729476963,3.68116996557924,0.5,-47.1171262192232
110,1,23,C,2,0,a,27,1,0.95,2C,0C,1,0,1,0,C20,2.45207232293955,2.53897387105828,0.999999924102655,0.000137756852545023,0.000137756852545023,0.000137756852545023,0.000137756852545023,0.999999999999997,0.5,0.5,0.5,0.5,1,0.5,0.5,0.5,0.000137756852545023,0.999999999999997,1.04195711599612,1,1,0,2C,0C,1,0.5,0.666666666666667,0.333333333333333,1,1,0,0,0.5,0.984803445392719,0.628957115996124,13.4618522475509,3.1409699999461,0.5,2.53523349428504,0.999999989765278,0.5,0.99972448629491,0.624675495682126,14.9947729476963,3.68116996557924,0.5,-47.1171262192232
110,1,24,D,3,2,a,63,1,0.95,3D,2D,1,0,1,0,D32,0.96163485723004,2.56494935746154,0.999999924102655,0.000137756852545023,0.000137756852545023,0.000137756852545023,0.000137756852545023,0.999999999999997,0.5,0.5,0.5,0.5,1,0.5,0.5,0.5,0.000137756852545023,0.999999999999997,0.740957115996124,1,1,0,3D,2D,0.999999999999997,0.000137756852545023,0.999862262121792,0.000137737878208446,1,1,2.88657986402541e-15,2.88578457171203e-15,0.5,0.984803445392719,0.628957115996124,13.4618522475509,3.1409699999461,0.5,17.775797662776,1,0.5,0.99972448629491,0.624675495682126,14.9947729476963,3.68116996557924,0.5,-47.1171262192232
110,1,25,A,1,0,l,63,1,0.95,1A,0A,0,1,0,1,A10,2.0094160523838,2.59026716544583,0.999999924102655,0.000137756852545023,0.000137756852545023,0.000137756852545023,0.000137756852545023,0.999999999999997,0.5,0.5,0.5,0.5,1,0.5,0.5,0.5,0.000137756852545023,1,0.775957115996124,0,0,1,0A,1A,0.999999924102655,0.000137756852545023,0.999862262111339,0.000137737888660945,1,1,7.58973448533595e-08,7.58764340946725e-08,0.5,0.984803445392719,0.628957115996124,13.4618522475509,3.1409699999461,0.5,6.82215374699964,1,0.5,0.99972448629491,0.624675495682126,14.9947729476963,3.68116996557924,0.5,-47.1171262192232
110,1,26,C,3,2,l,63,1,0.95,3C,2C,0,1,0,1,C32,3.29930665977102,2.6149597780362,0.999999999979089,0.000137756852545023,0.000137756852545023,0.000137756852545023,0.000137756852545023,0.999999999999997,0.5,0.5,0.5,0.5,1,0.5,0.5,0.5,0.000137756852545023,1,0.984957115996124,0,0,1,2C,3C,1,0.5,0.666666666666667,0.333333333333333,1,1,0,0,0.5,0.984803445392719,0.628957115996124,13.4618522475509,3.1409699999461,0.5,3.38788658904139,0.999999989744139,0.5,0.99972448629491,0.624675495682126,14.9947729476963,3.68116996557924,0.5,-47.1171262192232
110,1,27,A,2,0,l,27,1,0.95,2A,0A,0,1,0,1,A20,0.20191904549173,3.73766961828337,0.999999999979089,0.000137756852545023,0.000137756852545023,0.000137756852545023,0.000137756852545023,0.999999999999997,0.5,0.5,0.5,0.5,1,0.5,0.5,0.5,0.000137756852545023,1,0.724957115996124,0,0,1,0A,2A,0.999999999979089,0.000137756852545023,0.999862262121789,0.000137737878211325,1,1,2.09107176019074e-11,2.09049564126248e-11,0.5,0.984803445392719,0.628957115996124,13.4618522475509,3.1409699999461,0.5,13.1059001656068,1,0.5,0.99972448629491,0.624675495682126,14.9947729476963,3.68116996557924,0.5,-47.1171262192232
110,1,28,D,3,2,a,63,1,0.95,3D,2D,1,0,1,0,D32,1.64771066293512,2.37490575457367,0.999999999999994,0.000137756852545023,0.000137756852545023,0.000137756852545023,0.000137756852545023,0.999999999999997,0.5,0.5,0.5,0.5,1,0.5,0.5,0.5,0.000137756852545023,1,0.729957115996124,1,1,0,3D,2D,1,0.000137756852545023,0.999862262121791,0.000137737878208445,1,1,0,0,0.5,0.984803445392719,0.628957115996124,13.4618522475509,3.1409699999461,0.5,15.4923694318708,1,0.5,0.99972448629491,0.624675495682126,14.9947729476963,3.68116996557924,0.5,-47.1171262192232
110,1,29,D,3,2,a,63,1,0.95,3D,2D,1,0,1,0,D32,0.878341296212691,2.17475172148416,0.999999999999994,0.000137756852545023,0.000137756852545023,0.000137756852545023,0.000137756852545023,0.999999999999997,0.5,0.5,0.5,0.5,1,0.5,0.5,0.5,0.000137756852545023,1,0.737957115996124,1,1,0,3D,2D,1,0.000137756852545023,0.999862262121791,0.000137737878208445,1,1,0,0,0.5,0.984803445392719,0.628957115996124,13.4618522475509,3.1409699999461,0.5,17.6124331947918,1,0.5,0.99972448629491,0.624675495682126,14.9947729476963,3.68116996557924,0.5,-47.1171262192232
110,1,30,B,3,1,l,27,1,0.95,3B,1B,0,1,0,1,B31,3.41740436340953,3.80666248977032,0.999999999999994,0.000137756852545023,0.000137756852545023,0.000137756852545023,0.000137756852545023,0.999999999999997,0.5,0.5,0.5,0.5,1,0.5,0.5,0.5,0.000137756852545023,1,1.03795711599612,0,0,1,1B,3B,0.999999999999997,0.5,0.666666666666666,0.333333333333334,1,1,2.88657986402541e-15,2.88578457171203e-15,0.5,0.984803445392719,0.628957115996124,13.4618522475509,3.1409699999461,0.5,2.59954852746362,0.999999989775664,0.5,0.99972448629491,0.624675495682126,14.9947729476963,3.68116996557924,0.5,-47.1171262192232
110,1,31,D,0,3,l,9,1,0.95,0D,3D,0,1,0,1,D03,2.68135981464018,3.8286413964891,0.999999999999994,0.000137756852545023,0.000137756852545023,0.000137756852545023,0.000137756852545023,1,0.5,0.5,0.5,0.5,1,0.5,0.5,0.5,0.000137756852545023,1,0.998957115996124,0,0,1,3D,0D,1,0.5,0.666666666666667,0.333333333333333,1,1,0,0,0.5,0.984803445392719,0.628957115996124,13.4618522475509,3.1409699999461,0.5,3.20296235326253,0.999999989751261,0.5,0.99972448629491,0.624675495682126,14.9947729476963,3.68116996557924,0.5,-47.1171262192232
110,1,32,B,1,0,a,63,1,0.95,1B,0B,1,0,1,0,B10,2.05844392324057,3.85014760171006,0.999999999999994,0.000137756852545023,0.000137756852545023,0.000137756852545023,0.000137756852545023,1,0.5,0.5,0.5,0.5,1,0.5,0.5,0.5,0.000137756852545023,1,0.733957115996124,1,1,0,1B,0B,1,0.000137756852545023,0.999862262121791,0.000137737878208445,1,1,0,0,0.5,0.984803445392719,0.628957115996124,13.4618522475509,3.1409699999461,0.5,16.8515680714644,1,0.5,0.99972448629491,0.624675495682126,14.9947729476963,3.68116996557924,0.5,-47.1171262192232
110,1,33,A,1,0,l,63,1,0.95,1A,0A,0,1,0,1,A10,2.34076959818029,2.484906649788,0.999999999999994,0.000137756852545023,0.000137756852545023,0.000137756852545023,0.000137756852545023,1,0.5,0.5,0.5,0.5,1,0.5,0.5,0.5,0.000137756852545023,1,0.746957115996124,0,0,1,0A,1A,0.999999999999994,0.000137756852545023,0.999862262121791,0.000137737878208446,1,1,5.77315972805081e-15,5.77156914342406e-15,0.5,0.984803445392719,0.628957115996124,13.4618522475509,3.1409699999461,0.5,17.1681776874563,1,0.5,0.99972448629491,0.624675495682126,14.9947729476963,3.68116996557924,0.5,-47.1171262192232
110,1,34,B,1,0,a,63,1,0.95,1B,0B,1,0,1,0,B10,0.403481379077755,3.19867311755068,1,0.000137756852545023,0.000137756852545023,0.000137756852545023,0.000137756852545023,1,0.5,0.5,0.5,0.5,1,0.5,0.5,0.5,0.000137756852545023,1,0.770957115996124,1,1,0,1B,0B,1,0.000137756852545023,0.999862262121791,0.000137737878208445,1,1,0,0,0.5,0.984803445392719,0.628957115996124,13.4618522475509,3.1409699999461,0.5,8.59083065076467,1,0.5,0.99972448629491,0.624675495682126,14.9947729476963,3.68116996557924,0.5,-47.1171262192232
110,1,35,C,3,2,l,63,1,0.95,3C,2C,0,1,0,1,C32,2.88311133264777,2.52572864430826,1,0.000137756852545023,0.000137756852545023,0.000137756852545023,0.000137756852545023,1,0.5,0.5,0.5,0.5,1,0.5,0.5,0.5,0.000137756852545023,1,0.863957115996124,0,0,1,2C,3C,1,0.5,0.666666666666667,0.333333333333333,1,1,0,0,0.5,0.984803445392719,0.628957115996124,13.4618522475509,3.1409699999461,0.5,2.63425189773373,0.999999989814957,0.5,0.99972448629491,0.624675495682126,14.9947729476963,3.68116996557924,0.5,-47.1171262192232
110,1,36,A,0,2,a,27,1,0.95,0A,2A,1,0,1,0,A02,3.28890171579662,3.23867845216438,1,0.000137756852545023,0.000137756852545023,0.000137756852545023,0.000137756852545023,1,0.5,0.5,0.5,0.5,1,0.5,0.5,0.5,0.000137756852545023,1,0.722957115996124,1,1,0,0A,2A,1,0.000137756852545023,0.999862262121791,0.000137737878208445,1,1,0,0,0.5,0.984803445392719,0.628957115996124,13.4618522475509,3.1409699999461,0.5,11.9952583888082,1,0.5,0.99972448629491,0.624675495682126,14.9947729476963,3.68116996557924,0.5,-47.1171262192232
110,1,37,B,1,0,a,63,1,0.95,1B,0B,1,0,1,0,B10,2.34533945984062,2.85263142991332,1,0.000137756852545023,0.000137756852545023,0.000137756852545023,0.000137756852545023,1,0.5,0.5,0.5,0.5,1,0.5,0.5,0.5,0.000137756852545023,1,0.726957115996124,1,1,0,1B,0B,1,0.000137756852545023,0.999862262121791,0.000137737878208445,1,1,0,0,0.5,0.984803445392719,0.628957115996124,13.4618522475509,3.1409699999461,0.5,14.1412236188691,1,0.5,0.99972448629491,0.624675495682126,14.9947729476963,3.68116996557924,0.5,-47.1171262192232
110,1,38,B,3,1,l,27,1,0.95,3B,1B,0,1,0,1,B31,0.0790963084342086,3.27714473299218,1,0.000137756852545023,0.000137756852545023,0.000137756852545023,0.000137756852545023,1,0.5,0.5,0.5,0.5,1,0.5,0.5,0.5,0.000137756852545023,1,1.00895711599612,0,0,1,1B,3B,1,0.5,0.666666666666667,0.333333333333333,1,1,0,0,0.5,0.984803445392719,0.628957115996124,13.4618522475509,3.1409699999461,0.5,3.05658309360417,0.999999989812146,0.5,0.99972448629491,0.624675495682126,14.9947729476963,3.68116996557924,0.5,-47.1171262192232
110,1,39,C,3,2,l,63,1,0.95,3C,2C,0,1,0,1,C32,2.7960931200055,2.37954613413017,1,0.000137756852545023,0.000137756852545023,0.000137756852545023,0.000137756852545023,1,0.5,0.5,0.5,0.5,1,0.5,0.5,0.5,0.000137756852545023,1,0.904957115996124,0,0,1,2C,3C,1,0.5,0.666666666666667,0.333333333333333,1,1,0,0,0.5,0.984803445392719,0.628957115996124,13.4618522475509,3.1409699999461,0.5,3.50370542210359,0.999999989749065,0.5,0.99972448629491,0.624675495682126,14.9947729476963,3.68116996557924,0.5,-47.1171262192232
110,1,40,D,3,1,a,27,1,0.95,3D,1D,1,0,1,0,D31,1.94192168277851,4.00733318523247,1,0.000137756852545023,0.000137756852545023,0.000137756852545023,0.000137756852545023,1,0.5,0.5,0.5,0.5,1,0.5,0.5,0.5,0.000137756852545023,1,1.04095711599612,1,1,0,3D,1D,1,0.5,0.666666666666667,0.333333333333333,1,1,0,0,0.5,0.984803445392719,0.628957115996124,13.4618522475509,3.1409699999461,0.5,2.5495847823904,0.999999989873046,0.5,0.99972448629491,0.624675495682126,14.9947729476963,3.68116996557924,0.5,-47.1171262192232
110,1,41,C,1,2,l,9,1,0.95,1C,2C,0,1,0,1,C12,0.725005454518787,4.02535169073515,1,0.000137756852545023,0.000137756852545023,0.000137756852545023,0.000137756852545023,1,0.5,0.5,0.5,0.5,1,0.5,0.5,0.5,0.000137756852545023,1,0.888957115996124,0,0,1,2C,1C,1,0.5,0.666666666666667,0.333333333333333,1,1,0,0,0.5,0.984803445392719,0.628957115996124,13.4618522475509,3.1409699999461,0.5,3.24608144839754,0.999999989861437,0.5,0.99972448629491,0.624675495682126,14.9947729476963,3.68116996557924,0.5,-47.1171262192232
110,1,42,B,0,1,l,63,0,0.95,0B,1B,0,1,1,0,B01,2.66287593195609,2.65675690671466,1,0.000137756852545023,0.000137756852545023,0.000137756852545023,0.000137756852545023,1,0.5,0.5,0.5,0.5,1,0.5,0.5,0.5,0.000137756852545023,1,0.766957115996124,0,0,1,1B,0B,1,0.000137756852545023,0.999862262121791,0.000137737878208445,1,0,-1,-0.99972448629491,0.5,0.984803445392719,0.628957115996124,13.4618522475509,3.1409699999461,0.5,10.1376483075013,1,0.5,0.99972448629491,0.624675495682126,14.9947729476963,3.68116996557924,0.5,-47.1171262192232
110,1,43,D,3,2,a,63,1,0.95,3D,2D,1,0,1,0,D32,2.8082015861626,2.26868354131836,1,0.000137756852545023,0.000137756852545023,0.000137756852545023,0.000137756852545023,0.000275513705090047,0.5,0.5,0.5,0.5,1,0.5,0.5,0.5,0.000137756852545023,1,0.726957115996124,1,1,0,3D,2D,1,0.000137756852545023,0.999862262121791,0.000137737878208445,1,1,0,0,0.5,0.984803445392719,0.628957115996124,13.4618522475509,3.1409699999461,0.5,14.1427193952463,1,0.5,0.99972448629491,0.624675495682126,14.9947729476963,3.68116996557924,0.5,-47.1171262192232
110,1,44,A,0,1,a,63,1,0.95,0A,1A,1,0,1,0,A01,1.34636297909501,2.97892515523761,1,0.000137756852545023,0.000137756852545023,0.000137756852545023,0.000137756852545023,0.000275513705090047,0.5,0.5,0.5,0.5,1,0.5,0.5,0.5,0.000137756852545023,1,0.815957115996124,1,1,0,0A,1A,1,0.000137756852545023,0.999862262121791,0.000137737878208445,1,1,0,0,0.5,0.984803445392719,0.628957115996124,13.4618522475509,3.1409699999461,0.5,0.557607763009934,1,0.5,0.99972448629491,0.624675495682126,14.9947729476963,3.68116996557924,0.5,-47.1171262192232
