ID,filename,session,trial,visStimLeft,visStimRight,correctKey,leftCorrect,rightCorrect,secondStim,mod2Type,mod2Stim,frequency,rewardAccurate,stimPairLeft,stimPairRight,pCorrectLeft,pCorrectRight,key,reactionTime,choiceLeft,choiceRight,choiceAccurate,reward,chosenPair,otherPair,triplet,surprise,0A belief,1A belief,2A belief,3A belief,0B belief,1B belief,2B belief,3B belief,0C belief,1C belief,2C belief,3C belief,0D belief,1D belief,2D belief,3D belief,beliefPairNorm,beliefOtherPairNorm,beliefPair,beliefOtherPair,lik,corrLik,rewardPE,update2,fitCBCsimpleRW_CBCdriftDiffusionLR_pwBelief_startBelief,fitCBCsimpleRW_CBCdriftDiffusionLR_pwBelief_alpha1,fitCBCsimpleRW_CBCdriftDiffusionLR_pwBelief_nonDecisionTime,fitCBCsimpleRW_CBCdriftDiffusionLR_pwBelief_weight,fitCBCsimpleRW_CBCdriftDiffusionLR_pwBelief_startingBoundary,fitCBCsimpleRW_CBCdriftDiffusionLR_pwBelief_startingPoint,fit_CBCsimpleRW_CBCdriftDiffusionLR_pwBelief_NLL
CBC_1139,CBC_1139_MSI_AV_v3_Vset2_Aset3_2024-07-08_16h12.35.623.csv,1,1,0,1,z,0,1,1,aud,B,63,1,0B,1B,0,1,z,2.64066569999977,0,1,1,1,1B,0B,B01,2.77258872223978,0.5,0.5,0.5,0.5,0.5,0.5,0.5,0.5,0.5,0.5,0.5,0.5,0.5,0.5,0.5,0.5,0.5,0.5,0.5,0.5,0.15180865189802,0.500371645034356,0.5,0.00355011712681014,0.5,0.00710023425362027,1.1,8.61076027971222,2.68524441341129,0.5,77.9118070619978
CBC_1139,CBC_1139_MSI_AV_v3_Vset2_Aset3_2024-07-08_16h12.35.623.csv,1,2,0,1,b,1,0,3,aud,A,63,1,0A,1A,1,0,b,2.80593139999928,1,0,1,1,0A,1A,A01,2.83321334405622,0.5,0.5,0.5,0.5,0.5,0.50355011712681,0.5,0.5,0.5,0.5,0.5,0.5,0.5,0.5,0.5,0.5,0.5,0.5,0.5,0.5,0.135805529129653,0.501033014524897,0.5,0.00355011712681014,0.5,0.00710023425362027,1.1,8.61076027971222,2.68524441341129,0.5,77.9118070619978
CBC_1139,CBC_1139_MSI_AV_v3_Vset2_Aset3_2024-07-08_16h12.35.623.csv,1,3,2,3,z,0,1,2,aud,D,63,1,2D,3D,0,1,z,2.44090119999964,0,1,1,1,3D,2D,D23,2.89037175789616,0.50355011712681,0.5,0.5,0.5,0.5,0.50355011712681,0.5,0.5,0.5,0.5,0.5,0.5,0.5,0.5,0.5,0.5,0.5,0.5,0.5,0.5,0.174103269408769,0.501175553869686,0.5,0.00355011712681014,0.5,0.00710023425362027,1.1,8.61076027971222,2.68524441341129,0.5,77.9118070619978
CBC_1139,CBC_1139_MSI_AV_v3_Vset2_Aset3_2024-07-08_16h12.35.623.csv,1,4,2,1,z,0,1,1,aud,B,9,1,2B,1B,0,1,z,2.49580539999988,0,1,1,1,1B,2B,B21,2.94443897916644,0.50355011712681,0.5,0.5,0.5,0.5,0.50355011712681,0.5,0.5,0.5,0.5,0.5,0.5,0.5,0.5,0.5,0.50355011712681,0.50355011712681,0.49644988287319,0.50355011712681,0.5,0.180845581235624,0.539857640067889,0.49644988287319,0.003524910463582,0.5,0.00710023425362027,1.1,8.61076027971222,2.68524441341129,0.5,77.9118070619978
CBC_1139,CBC_1139_MSI_AV_v3_Vset2_Aset3_2024-07-08_16h12.35.623.csv,1,5,0,2,b,1,0,3,aud,A,27,1,0A,2A,1,0,z,2.59885140000006,0,1,0,0,2A,0A,A02,2.99573227355399,0.50355011712681,0.5,0.5,0.5,0.5,0.507075027590392,0.5,0.5,0.5,0.5,0.5,0.5,0.5,0.5,0.5,0.50355011712681,0.49644988287319,0.50355011712681,0.5,0.50355011712681,0.143281328958852,0.458756118217752,-0.5,-0.00355011712681014,0.5,0.00710023425362027,1.1,8.61076027971222,2.68524441341129,0.5,77.9118070619978
CBC_1139,CBC_1139_MSI_AV_v3_Vset2_Aset3_2024-07-08_16h12.35.623.csv,1,6,2,3,b,1,0,0,aud,C,63,1,2C,3C,1,0,z,2.82655729999897,0,1,0,0,3C,2C,C23,3.04452243772342,0.50355011712681,0.5,0.49644988287319,0.5,0.5,0.507075027590392,0.5,0.5,0.5,0.5,0.5,0.5,0.5,0.5,0.5,0.50355011712681,0.5,0.5,0.5,0.5,0.133623066442274,0.499975474744132,-0.5,-0.00355011712681014,0.5,0.00710023425362027,1.1,8.61076027971222,2.68524441341129,0.5,77.9118070619978
CBC_1139,CBC_1139_MSI_AV_v3_Vset2_Aset3_2024-07-08_16h12.35.623.csv,1,7,1,3,z,0,1,2,aud,D,27,1,1D,3D,0,1,z,2.48742709999988,0,1,1,1,3D,1D,D13,3.09104245335832,0.50355011712681,0.5,0.49644988287319,0.5,0.5,0.507075027590392,0.5,0.5,0.5,0.5,0.5,0.49644988287319,0.5,0.5,0.5,0.50355011712681,0.50355011712681,0.49644988287319,0.50355011712681,0.5,0.182159110521773,0.540681708947119,0.49644988287319,0.003524910463582,0.5,0.00710023425362027,1.1,8.61076027971222,2.68524441341129,0.5,77.9118070619978
CBC_1139,CBC_1139_MSI_AV_v3_Vset2_Aset3_2024-07-08_16h12.35.623.csv,1,8,1,0,z,0,1,3,aud,A,63,1,1A,0A,0,1,b,2.90029270000014,1,0,0,0,1A,0A,A10,3.13549421592915,0.50355011712681,0.5,0.49644988287319,0.5,0.5,0.507075027590392,0.5,0.5,0.5,0.5,0.5,0.49644988287319,0.5,0.5,0.5,0.507075027590392,0.49644988287319,0.50355011712681,0.5,0.50355011712681,0.116577379063105,0.458736628284987,-0.5,-0.00355011712681014,0.5,0.00710023425362027,1.1,8.61076027971222,2.68524441341129,0.5,77.9118070619978
CBC_1139,CBC_1139_MSI_AV_v3_Vset2_Aset3_2024-07-08_16h12.35.623.csv,1,9,2,0,b,1,0,0,aud,C,27,1,2C,0C,1,0,b,3.21213569999964,1,0,1,1,2C,0C,C20,3.17805383034795,0.50355011712681,0.49644988287319,0.49644988287319,0.5,0.5,0.507075027590392,0.5,0.5,0.5,0.5,0.5,0.49644988287319,0.5,0.5,0.5,0.507075027590392,0.5,0.5,0.5,0.5,0.10286056909213,0.500991456825015,0.5,0.00355011712681014,0.5,0.00710023425362027,1.1,8.61076027971222,2.68524441341129,0.5,77.9118070619978
CBC_1139,CBC_1139_MSI_AV_v3_Vset2_Aset3_2024-07-08_16h12.35.623.csv,1,10,2,3,z,0,1,2,aud,D,63,1,2D,3D,0,1,z,3.38129570000001,0,1,1,1,3D,2D,D23,2.52572864430826,0.50355011712681,0.49644988287319,0.49644988287319,0.5,0.5,0.507075027590392,0.5,0.5,0.5,0.5,0.50355011712681,0.49644988287319,0.5,0.5,0.5,0.507075027590392,0.507075027590392,0.492924972409608,0.507075027590392,0.5,0.105762885962248,0.580400516556923,0.492924972409608,0.00349988277356753,0.5,0.00710023425362027,1.1,8.61076027971222,2.68524441341129,0.5,77.9118070619978
CBC_1139,CBC_1139_MSI_AV_v3_Vset2_Aset3_2024-07-08_16h12.35.623.csv,1,11,1,0,b,1,0,1,aud,B,63,1,1B,0B,1,0,b,2.12295749999976,1,0,1,1,1B,0B,B10,3.25809653802148,0.50355011712681,0.49644988287319,0.49644988287319,0.5,0.5,0.507075027590392,0.5,0.5,0.5,0.5,0.50355011712681,0.49644988287319,0.5,0.5,0.5,0.51057491036396,0.507075027590392,0.492924972409608,0.507075027590392,0.5,0.250261016646341,0.581508872292031,0.492924972409608,0.00349988277356753,0.5,0.00710023425362027,1.1,8.61076027971222,2.68524441341129,0.5,77.9118070619978
CBC_1139,CBC_1139_MSI_AV_v3_Vset2_Aset3_2024-07-08_16h12.35.623.csv,1,12,0,1,b,1,0,3,aud,A,63,1,0A,1A,1,0,z,2.22812439999961,0,1,0,0,1A,0A,A01,2.60268968544438,0.50355011712681,0.49644988287319,0.49644988287319,0.5,0.5,0.51057491036396,0.5,0.5,0.5,0.5,0.50355011712681,0.49644988287319,0.5,0.5,0.5,0.51057491036396,0.492900123674763,0.507099876325237,0.49644988287319,0.50355011712681,0.168263729823972,0.418433021892992,-0.49644988287319,-0.003524910463582,0.5,0.00710023425362027,1.1,8.61076027971222,2.68524441341129,0.5,77.9118070619978
CBC_1139,CBC_1139_MSI_AV_v3_Vset2_Aset3_2024-07-08_16h12.35.623.csv,1,13,2,3,z,0,1,2,aud,D,63,1,2D,3D,0,1,z,1.60364299999947,0,1,1,1,3D,2D,D23,2.23359222150709,0.50355011712681,0.492924972409608,0.49644988287319,0.5,0.5,0.51057491036396,0.5,0.5,0.5,0.5,0.50355011712681,0.49644988287319,0.5,0.5,0.5,0.51057491036396,0.51057491036396,0.48942508963604,0.51057491036396,0.5,0.316996226574386,0.619903939512298,0.48942508963604,0.00347503278601499,0.5,0.00710023425362027,1.1,8.61076027971222,2.68524441341129,0.5,77.9118070619978
CBC_1139,CBC_1139_MSI_AV_v3_Vset2_Aset3_2024-07-08_16h12.35.623.csv,1,14,2,0,b,1,0,0,aud,C,27,1,2C,0C,1,0,z,2.51765940000041,0,1,0,0,0C,2C,C20,2.67414864942653,0.50355011712681,0.492924972409608,0.49644988287319,0.5,0.5,0.51057491036396,0.5,0.5,0.5,0.5,0.50355011712681,0.49644988287319,0.5,0.5,0.5,0.514049943149975,0.49644988287319,0.50355011712681,0.5,0.50355011712681,0.151854105445098,0.460085804650014,-0.5,-0.00355011712681014,0.5,0.00710023425362027,1.1,8.61076027971222,2.68524441341129,0.5,77.9118070619978
CBC_1139,CBC_1139_MSI_AV_v3_Vset2_Aset3_2024-07-08_16h12.35.623.csv,1,15,0,1,b,1,0,3,aud,A,63,1,0A,1A,1,0,z,2.58036699999957,0,1,0,0,1A,0A,A01,2.30258509299405,0.50355011712681,0.492924972409608,0.49644988287319,0.5,0.5,0.51057491036396,0.5,0.5,0.49644988287319,0.5,0.50355011712681,0.49644988287319,0.5,0.5,0.5,0.514049943149975,0.489375922670105,0.510624077329895,0.492924972409608,0.50355011712681,0.120517383911111,0.37932540360688,-0.492924972409608,-0.00349988277356753,0.5,0.00710023425362027,1.1,8.61076027971222,2.68524441341129,0.5,77.9118070619978
CBC_1139,CBC_1139_MSI_AV_v3_Vset2_Aset3_2024-07-08_16h12.35.623.csv,1,16,1,3,b,1,0,1,aud,B,27,1,1B,3B,1,0,b,2.63041479999993,1,0,1,1,1B,3B,B13,3.43398720448515,0.50355011712681,0.48942508963604,0.49644988287319,0.5,0.5,0.51057491036396,0.5,0.5,0.49644988287319,0.5,0.50355011712681,0.49644988287319,0.5,0.5,0.5,0.514049943149975,0.51057491036396,0.48942508963604,0.51057491036396,0.5,0.190173632752228,0.61984590691238,0.48942508963604,0.00347503278601499,0.5,0.00710023425362027,1.1,8.61076027971222,2.68524441341129,0.5,77.9118070619978
CBC_1139,CBC_1139_MSI_AV_v3_Vset2_Aset3_2024-07-08_16h12.35.623.csv,1,17,3,2,z,0,1,0,aud,C,63,1,3C,2C,0,1,z,2.38311749999957,0,1,1,1,2C,3C,C32,3.46573590279973,0.50355011712681,0.48942508963604,0.49644988287319,0.5,0.5,0.514049943149975,0.5,0.5,0.49644988287319,0.5,0.50355011712681,0.49644988287319,0.5,0.5,0.5,0.514049943149975,0.507099876325237,0.492900123674763,0.50355011712681,0.49644988287319,0.210514992781997,0.58072626944802,0.49644988287319,0.003524910463582,0.5,0.00710023425362027,1.1,8.61076027971222,2.68524441341129,0.5,77.9118070619978
CBC_1139,CBC_1139_MSI_AV_v3_Vset2_Aset3_2024-07-08_16h12.35.623.csv,1,18,2,3,z,0,1,2,aud,D,63,0,2D,3D,1,0,b,2.37155529999927,1,0,0,1,2D,3D,D23,2.11021320034659,0.50355011712681,0.48942508963604,0.49644988287319,0.5,0.5,0.514049943149975,0.5,0.5,0.49644988287319,0.5,0.507075027590392,0.49644988287319,0.5,0.5,0.5,0.514049943149975,0.485950056850025,0.514049943149975,0.5,0.514049943149975,0.1270301730248,0.344024461113859,0.5,0.00355011712681014,0.5,0.00710023425362027,1.1,8.61076027971222,2.68524441341129,0.5,77.9118070619978
CBC_1139,CBC_1139_MSI_AV_v3_Vset2_Aset3_2024-07-08_16h12.35.623.csv,1,19,1,0,b,1,0,1,aud,B,63,1,1B,0B,1,0,z,2.17340659999991,0,1,0,0,0B,1B,B10,2.83321334405622,0.50355011712681,0.48942508963604,0.49644988287319,0.5,0.5,0.514049943149975,0.5,0.5,0.49644988287319,0.5,0.507075027590392,0.49644988287319,0.5,0.5,0.50355011712681,0.514049943149975,0.485950056850025,0.514049943149975,0.5,0.514049943149975,0.145005586719828,0.342744039581879,-0.5,-0.00355011712681014,0.5,0.00710023425362027,1.1,8.61076027971222,2.68524441341129,0.5,77.9118070619978
CBC_1139,CBC_1139_MSI_AV_v3_Vset2_Aset3_2024-07-08_16h12.35.623.csv,1,20,2,0,z,0,1,3,aud,A,27,1,2A,0A,0,1,b,2.23054199999933,1,0,0,0,2A,0A,A20,3.55534806148941,0.50355011712681,0.48942508963604,0.49644988287319,0.5,0.49644988287319,0.514049943149975,0.5,0.5,0.49644988287319,0.5,0.507075027590392,0.49644988287319,0.5,0.5,0.50355011712681,0.514049943149975,0.492900123674763,0.507099876325237,0.49644988287319,0.50355011712681,0.168396369480635,0.419483205780339,-0.49644988287319,-0.003524910463582,0.5,0.00710023425362027,1.1,8.61076027971222,2.68524441341129,0.5,77.9118070619978
CBC_1139,CBC_1139_MSI_AV_v3_Vset2_Aset3_2024-07-08_16h12.35.623.csv,1,21,0,3,z,0,1,2,aud,D,9,1,0D,3D,0,1,b,2.54794169999968,1,0,0,0,0D,3D,D03,3.58351893845611,0.50355011712681,0.48942508963604,0.492924972409608,0.5,0.49644988287319,0.514049943149975,0.5,0.5,0.49644988287319,0.5,0.507075027590392,0.49644988287319,0.5,0.5,0.50355011712681,0.514049943149975,0.485950056850025,0.514049943149975,0.5,0.514049943149975,0.111835220672513,0.342825747101608,-0.5,-0.00355011712681014,0.5,0.00710023425362027,1.1,8.61076027971222,2.68524441341129,0.5,77.9118070619978
CBC_1139,CBC_1139_MSI_AV_v3_Vset2_Aset3_2024-07-08_16h12.35.623.csv,1,22,2,3,b,1,0,0,aud,C,63,1,2C,3C,1,0,b,3.03980299999967,1,0,1,1,2C,3C,C23,2.91777073208428,0.50355011712681,0.48942508963604,0.492924972409608,0.5,0.49644988287319,0.514049943149975,0.5,0.5,0.49644988287319,0.5,0.507075027590392,0.49644988287319,0.49644988287319,0.5,0.50355011712681,0.514049943149975,0.510624077329895,0.489375922670105,0.507075027590392,0.49644988287319,0.14262795512844,0.618984436885405,0.492924972409608,0.00349988277356753,0.5,0.00710023425362027,1.1,8.61076027971222,2.68524441341129,0.5,77.9118070619978
CBC_1139,CBC_1139_MSI_AV_v3_Vset2_Aset3_2024-07-08_16h12.35.623.csv,1,23,3,1,z,0,1,1,aud,B,27,1,3B,1B,0,1,z,2.42977150000024,0,1,1,1,1B,3B,B31,3.63758615972639,0.50355011712681,0.48942508963604,0.492924972409608,0.5,0.49644988287319,0.514049943149975,0.5,0.5,0.49644988287319,0.5,0.51057491036396,0.49644988287319,0.49644988287319,0.5,0.50355011712681,0.514049943149975,0.514049943149975,0.485950056850025,0.514049943149975,0.5,0.232679666057228,0.656315459849154,0.485950056850025,0.00345035923919527,0.5,0.00710023425362027,1.1,8.61076027971222,2.68524441341129,0.5,77.9118070619978
CBC_1139,CBC_1139_MSI_AV_v3_Vset2_Aset3_2024-07-08_16h12.35.623.csv,1,24,3,2,z,0,1,0,aud,C,63,1,3C,2C,0,1,z,2.90245890000006,0,1,1,1,2C,3C,C32,2.9704144655697,0.50355011712681,0.48942508963604,0.492924972409608,0.5,0.49644988287319,0.51750030238917,0.5,0.5,0.49644988287319,0.5,0.51057491036396,0.49644988287319,0.49644988287319,0.5,0.50355011712681,0.514049943149975,0.514122906672495,0.485877093327505,0.51057491036396,0.49644988287319,0.16678709553981,0.657892250139077,0.48942508963604,0.00347503278601499,0.5,0.00710023425362027,1.1,8.61076027971222,2.68524441341129,0.5,77.9118070619978
CBC_1139,CBC_1139_MSI_AV_v3_Vset2_Aset3_2024-07-08_16h12.35.623.csv,1,25,2,3,z,0,1,2,aud,D,63,1,2D,3D,0,1,z,2.71825089999948,0,1,1,1,3D,2D,D23,2.07944154167984,0.50355011712681,0.48942508963604,0.492924972409608,0.5,0.49644988287319,0.51750030238917,0.5,0.5,0.49644988287319,0.5,0.514049943149975,0.49644988287319,0.49644988287319,0.5,0.50355011712681,0.514049943149975,0.510501921322138,0.489498078677862,0.514049943149975,0.50355011712681,0.178676161776851,0.619208698955704,0.485950056850025,0.00345035923919527,0.5,0.00710023425362027,1.1,8.61076027971222,2.68524441341129,0.5,77.9118070619978
CBC_1139,CBC_1139_MSI_AV_v3_Vset2_Aset3_2024-07-08_16h12.35.623.csv,1,26,1,0,b,1,0,1,aud,B,63,1,1B,0B,1,0,z,2.39210230000026,0,1,0,0,0B,1B,B10,2.6149597780362,0.50355011712681,0.48942508963604,0.492924972409608,0.5,0.49644988287319,0.51750030238917,0.5,0.5,0.49644988287319,0.5,0.514049943149975,0.49644988287319,0.49644988287319,0.5,0.50355011712681,0.51750030238917,0.478954810476533,0.521045189523467,0.49644988287319,0.51750030238917,0.101002229563872,0.273212838060824,-0.49644988287319,-0.003524910463582,0.5,0.00710023425362027,1.1,8.61076027971222,2.68524441341129,0.5,77.9118070619978
CBC_1139,CBC_1139_MSI_AV_v3_Vset2_Aset3_2024-07-08_16h12.35.623.csv,1,27,0,3,b,1,0,3,aud,A,9,1,0A,3A,1,0,b,2.51449969999976,1,0,1,1,0A,3A,A03,3.73766961828337,0.50355011712681,0.48942508963604,0.492924972409608,0.5,0.492924972409608,0.51750030238917,0.5,0.5,0.49644988287319,0.5,0.514049943149975,0.49644988287319,0.49644988287319,0.5,0.50355011712681,0.51750030238917,0.50355011712681,0.49644988287319,0.50355011712681,0.5,0.17893580574139,0.540955980215716,0.49644988287319,0.003524910463582,0.5,0.00710023425362027,1.1,8.61076027971222,2.68524441341129,0.5,77.9118070619978
CBC_1139,CBC_1139_MSI_AV_v3_Vset2_Aset3_2024-07-08_16h12.35.623.csv,1,28,2,3,z,0,1,2,aud,D,63,1,2D,3D,0,1,z,2.14704519999941,0,1,1,1,3D,2D,D23,1.96944064646551,0.507075027590392,0.48942508963604,0.492924972409608,0.5,0.492924972409608,0.51750030238917,0.5,0.5,0.49644988287319,0.5,0.514049943149975,0.49644988287319,0.49644988287319,0.5,0.50355011712681,0.51750030238917,0.513953652919432,0.486046347080568,0.51750030238917,0.50355011712681,0.282260903481952,0.655851168113956,0.48249969761083,0.00342586088033784,0.5,0.00710023425362027,1.1,8.61076027971222,2.68524441341129,0.5,77.9118070619978
CBC_1139,CBC_1139_MSI_AV_v3_Vset2_Aset3_2024-07-08_16h12.35.623.csv,1,29,2,0,b,1,0,0,aud,C,27,1,2C,0C,1,0,b,2.78373740000006,1,0,1,1,2C,0C,C20,2.68557734525015,0.507075027590392,0.48942508963604,0.492924972409608,0.5,0.492924972409608,0.51750030238917,0.5,0.5,0.49644988287319,0.5,0.514049943149975,0.49644988287319,0.49644988287319,0.5,0.50355011712681,0.520926163269508,0.517596549487572,0.482403450512428,0.514049943149975,0.49644988287319,0.191181368200916,0.692459601712975,0.485950056850025,0.00345035923919527,0.5,0.00710023425362027,1.1,8.61076027971222,2.68524441341129,0.5,77.9118070619978
CBC_1139,CBC_1139_MSI_AV_v3_Vset2_Aset3_2024-07-08_16h12.35.623.csv,1,30,1,0,z,0,1,3,aud,A,63,1,1A,0A,0,1,b,2.53498029999992,1,0,0,0,1A,0A,A10,3.11351530921037,0.507075027590392,0.48942508963604,0.492924972409608,0.5,0.492924972409608,0.51750030238917,0.5,0.5,0.49644988287319,0.5,0.51750030238917,0.49644988287319,0.49644988287319,0.5,0.50355011712681,0.520926163269508,0.482355342582218,0.517644657417782,0.48942508963604,0.507075027590392,0.100853979165748,0.304768094157845,-0.48942508963604,-0.00347503278601499,0.5,0.00710023425362027,1.1,8.61076027971222,2.68524441341129,0.5,77.9118070619978
CBC_1139,CBC_1139_MSI_AV_v3_Vset2_Aset3_2024-07-08_16h12.35.623.csv,1,31,1,0,b,1,0,1,aud,B,63,1,1B,0B,1,0,b,2.3682304999993,1,0,1,1,1B,0B,B10,2.4423470353692,0.507075027590392,0.485950056850025,0.492924972409608,0.5,0.492924972409608,0.51750030238917,0.5,0.5,0.49644988287319,0.5,0.51750030238917,0.49644988287319,0.49644988287319,0.5,0.50355011712681,0.520926163269508,0.524563164814545,0.475436835185455,0.51750030238917,0.492924972409608,0.287588746064016,0.757520158856465,0.48249969761083,0.00342586088033784,0.5,0.00710023425362027,1.1,8.61076027971222,2.68524441341129,0.5,77.9118070619978
CBC_1139,CBC_1139_MSI_AV_v3_Vset2_Aset3_2024-07-08_16h12.35.623.csv,1,32,3,1,b,1,0,2,aud,D,27,1,3D,1D,1,0,b,2.08137899999929,1,0,1,1,3D,1D,D31,3.85014760171006,0.507075027590392,0.485950056850025,0.492924972409608,0.5,0.492924972409608,0.520926163269508,0.5,0.5,0.49644988287319,0.5,0.51750030238917,0.49644988287319,0.49644988287319,0.5,0.50355011712681,0.520926163269508,0.520926163269508,0.479073836730492,0.520926163269508,0.5,0.334429648416696,0.725213793629389,0.479073836730492,0.00340153646556713,0.5,0.00710023425362027,1.1,8.61076027971222,2.68524441341129,0.5,77.9118070619978
CBC_1139,CBC_1139_MSI_AV_v3_Vset2_Aset3_2024-07-08_16h12.35.623.csv,1,33,3,2,z,0,1,0,aud,C,63,1,3C,2C,0,1,z,2.58584020000035,0,1,1,1,2C,3C,C32,2.77258872223978,0.507075027590392,0.485950056850025,0.492924972409608,0.5,0.492924972409608,0.520926163269508,0.5,0.5,0.49644988287319,0.5,0.51750030238917,0.49644988287319,0.49644988287319,0.5,0.50355011712681,0.524327699735075,0.521045189523467,0.478954810476533,0.51750030238917,0.49644988287319,0.232246751346865,0.725499596257721,0.48249969761083,0.00342586088033784,0.5,0.00710023425362027,1.1,8.61076027971222,2.68524441341129,0.5,77.9118070619978
CBC_1139,CBC_1139_MSI_AV_v3_Vset2_Aset3_2024-07-08_16h12.35.623.csv,1,34,1,0,b,1,0,1,aud,B,63,1,1B,0B,1,0,b,3.05451459999949,1,0,1,1,1B,0B,B10,2.28238238567653,0.507075027590392,0.485950056850025,0.492924972409608,0.5,0.492924972409608,0.520926163269508,0.5,0.5,0.49644988287319,0.5,0.520926163269508,0.49644988287319,0.49644988287319,0.5,0.50355011712681,0.524327699735075,0.527984618012869,0.472015381987131,0.520926163269508,0.492924972409608,0.17405909458134,0.784943010630844,0.479073836730492,0.00340153646556713,0.5,0.00710023425362027,1.1,8.61076027971222,2.68524441341129,0.5,77.9118070619978
CBC_1139,CBC_1139_MSI_AV_v3_Vset2_Aset3_2024-07-08_16h12.35.623.csv,1,35,0,1,b,1,0,3,aud,A,63,1,0A,1A,1,0,z,2.40198009999949,0,1,0,0,1A,0A,A01,2.52572864430826,0.507075027590392,0.485950056850025,0.492924972409608,0.5,0.492924972409608,0.524327699735075,0.5,0.5,0.49644988287319,0.5,0.520926163269508,0.49644988287319,0.49644988287319,0.5,0.50355011712681,0.524327699735075,0.478883425525162,0.521116574474838,0.485950056850025,0.507075027590392,0.100337799415371,0.273412978642253,-0.485950056850025,-0.00345035923919527,0.5,0.00710023425362027,1.1,8.61076027971222,2.68524441341129,0.5,77.9118070619978
CBC_1139,CBC_1139_MSI_AV_v3_Vset2_Aset3_2024-07-08_16h12.35.623.csv,1,36,1,2,z,0,1,0,aud,C,9,1,1C,2C,0,1,z,2.52792859999954,0,1,1,1,2C,1C,C12,3.93182563272433,0.507075027590392,0.48249969761083,0.492924972409608,0.5,0.492924972409608,0.524327699735075,0.5,0.5,0.49644988287319,0.5,0.520926163269508,0.49644988287319,0.49644988287319,0.5,0.50355011712681,0.524327699735075,0.520926163269508,0.479073836730492,0.520926163269508,0.5,0.24229561858093,0.725020004910572,0.479073836730492,0.00340153646556713,0.5,0.00710023425362027,1.1,8.61076027971222,2.68524441341129,0.5,77.9118070619978
CBC_1139,CBC_1139_MSI_AV_v3_Vset2_Aset3_2024-07-08_16h12.35.623.csv,1,37,1,0,z,0,1,3,aud,A,63,1,1A,0A,0,1,z,2.71074529999987,0,1,1,1,0A,1A,A10,2.85263142991332,0.507075027590392,0.48249969761083,0.492924972409608,0.5,0.492924972409608,0.524327699735075,0.5,0.5,0.49644988287319,0.5,0.524327699735075,0.49644988287319,0.49644988287319,0.5,0.50355011712681,0.524327699735075,0.524563164814545,0.475436835185455,0.507075027590392,0.48249969761083,0.220867434951952,0.756630253706968,0.492924972409608,0.00349988277356753,0.5,0.00710023425362027,1.1,8.61076027971222,2.68524441341129,0.5,77.9118070619978
CBC_1139,CBC_1139_MSI_AV_v3_Vset2_Aset3_2024-07-08_16h12.35.623.csv,1,38,3,1,b,1,0,2,aud,D,27,1,3D,1D,1,0,z,2.64801709999938,0,1,0,0,1D,3D,D31,3.27714473299218,0.51057491036396,0.48249969761083,0.492924972409608,0.5,0.492924972409608,0.524327699735075,0.5,0.5,0.49644988287319,0.5,0.524327699735075,0.49644988287319,0.49644988287319,0.5,0.50355011712681,0.524327699735075,0.475672300264925,0.524327699735075,0.5,0.524327699735075,0.0749693265101016,0.244727018077215,-0.5,-0.00355011712681014,0.5,0.00710023425362027,1.1,8.61076027971222,2.68524441341129,0.5,77.9118070619978
CBC_1139,CBC_1139_MSI_AV_v3_Vset2_Aset3_2024-07-08_16h12.35.623.csv,1,39,0,1,z,0,1,1,aud,B,63,1,0B,1B,0,1,z,2.24627829999918,0,1,1,1,1B,0B,B01,3.29583686600433,0.51057491036396,0.48249969761083,0.492924972409608,0.5,0.492924972409608,0.524327699735075,0.5,0.5,0.49644988287319,0.5,0.524327699735075,0.49644988287319,0.49644988287319,0.49644988287319,0.50355011712681,0.524327699735075,0.531381122157577,0.468618877842423,0.524327699735075,0.492924972409608,0.345632200036215,0.810404397563314,0.475672300264925,0.00337738475983937,0.5,0.00710023425362027,1.1,8.61076027971222,2.68524441341129,0.5,77.9118070619978
CBC_1139,CBC_1139_MSI_AV_v3_Vset2_Aset3_2024-07-08_16h12.35.623.csv,1,40,2,3,b,1,0,0,aud,C,63,0,2C,3C,0,1,b,2.43022920000021,1,0,1,0,2C,3C,C23,2.90872089656436,0.51057491036396,0.48249969761083,0.492924972409608,0.5,0.492924972409608,0.527705084494914,0.5,0.5,0.49644988287319,0.5,0.524327699735075,0.49644988287319,0.49644988287319,0.49644988287319,0.50355011712681,0.524327699735075,0.527868189385254,0.472131810614746,0.524327699735075,0.49644988287319,0.28567429631349,0.783414946842103,-0.524327699735075,-0.0037228494937809,0.5,0.00710023425362027,1.1,8.61076027971222,2.68524441341129,0.5,77.9118070619978
CBC_1139,CBC_1139_MSI_AV_v3_Vset2_Aset3_2024-07-08_16h12.35.623.csv,1,41,2,0,z,0,1,3,aud,A,27,1,2A,0A,0,1,z,2.70004879999942,0,1,1,1,0A,2A,A20,3.3322045101752,0.51057491036396,0.48249969761083,0.492924972409608,0.5,0.492924972409608,0.527705084494914,0.5,0.5,0.49644988287319,0.5,0.520604850241294,0.49644988287319,0.49644988287319,0.49644988287319,0.50355011712681,0.524327699735075,0.517644657417782,0.482355342582219,0.51057491036396,0.492924972409608,0.203269684119455,0.692716381464088,0.48942508963604,0.00347503278601499,0.5,0.00710023425362027,1.1,8.61076027971222,2.68524441341129,0.5,77.9118070619978
CBC_1139,CBC_1139_MSI_AV_v3_Vset2_Aset3_2024-07-08_16h12.35.623.csv,1,42,3,2,b,1,0,2,aud,D,63,1,3D,2D,1,0,b,2.1986124999994,1,0,1,1,3D,2D,D32,4.04305126783455,0.514049943149975,0.48249969761083,0.492924972409608,0.5,0.492924972409608,0.527705084494914,0.5,0.5,0.49644988287319,0.5,0.520604850241294,0.49644988287319,0.49644988287319,0.49644988287319,0.50355011712681,0.524327699735075,0.520784763010888,0.479215236989112,0.524327699735075,0.50355011712681,0.307354063313114,0.723402675162735,0.475672300264925,0.00337738475983937,0.5,0.00710023425362027,1.1,8.61076027971222,2.68524441341129,0.5,77.9118070619978
CBC_1139,CBC_1139_MSI_AV_v3_Vset2_Aset3_2024-07-08_16h12.35.623.csv,1,43,3,1,z,0,1,1,aud,B,27,1,3B,1B,0,1,b,2.60161829999925,1,0,0,0,3B,1B,B31,3.36729582998647,0.514049943149975,0.48249969761083,0.492924972409608,0.5,0.492924972409608,0.527705084494914,0.5,0.5,0.49644988287319,0.5,0.520604850241294,0.49644988287319,0.49644988287319,0.49644988287319,0.50355011712681,0.527705084494914,0.472294915505086,0.527705084494914,0.5,0.527705084494914,0.069249214607245,0.217520667254109,-0.5,-0.00355011712681014,0.5,0.00710023425362027,1.1,8.61076027971222,2.68524441341129,0.5,77.9118070619978
CBC_1139,CBC_1139_MSI_AV_v3_Vset2_Aset3_2024-07-08_16h12.35.623.csv,1,44,2,3,b,1,0,0,aud,C,63,1,2C,3C,1,0,b,2.68590200000017,1,0,1,1,2C,3C,C23,2.69124308278583,0.514049943149975,0.48249969761083,0.492924972409608,0.5,0.492924972409608,0.527705084494914,0.5,0.49644988287319,0.49644988287319,0.5,0.520604850241294,0.49644988287319,0.49644988287319,0.49644988287319,0.50355011712681,0.527705084494914,0.52414790172763,0.47585209827237,0.520604850241294,0.49644988287319,0.224242067309688,0.753705312046253,0.479395149758706,0.00340381786333619,0.5,0.00710023425362027,1.1,8.61076027971222,2.68524441341129,0.5,77.9118070619978
CBC_1139,CBC_1139_MSI_TV_v3_Vset1_Tset3_2024-07-08_17h11.14.330.csv,2,1,0,2,z,0,1,0,tac,C,27,1,0C,2C,0,1,z,1.57742469999994,0,1,1,1,2C,0C,C02,2.77258872223978,0.5,0.5,0.5,0.5,0.5,0.5,0.5,0.5,0.5,0.5,0.5,0.5,0.5,0.5,0.5,0.5,0.5,0.5,0.5,0.5,0.265341084282589,0.499734048792896,0.5,0.00268374105251595,0.5,0.00536748210503191,1.09219964362972,0.95536862108239,2.61342937665463,0.5,76.7720854236485
CBC_1139,CBC_1139_MSI_TV_v3_Vset1_Tset3_2024-07-08_17h11.14.330.csv,2,2,2,3,z,0,1,2,tac,D,63,1,2D,3D,0,1,b,2.65166800000134,1,0,0,0,2D,3D,D23,2.83321334405622,0.5,0.5,0.5,0.5,0.5,0.5,0.5,0.5,0.5,0.5,0.502683741052516,0.5,0.5,0.5,0.5,0.5,0.5,0.5,0.5,0.5,0.149016038928849,0.500001655150709,-0.5,-0.00268374105251595,0.5,0.00536748210503191,1.09219964362972,0.95536862108239,2.61342937665463,0.5,76.7720854236485
CBC_1139,CBC_1139_MSI_TV_v3_Vset1_Tset3_2024-07-08_17h11.14.330.csv,2,3,0,1,b,1,0,3,tac,A,63,1,0A,1A,1,0,z,2.36325170000146,0,1,0,0,1A,0A,A01,2.89037175789616,0.5,0.5,0.5,0.5,0.5,0.5,0.5,0.5,0.5,0.5,0.502683741052516,0.5,0.5,0.5,0.497316258947484,0.5,0.5,0.5,0.5,0.5,0.183019007392005,0.499362392542644,-0.5,-0.00268374105251595,0.5,0.00536748210503191,1.09219964362972,0.95536862108239,2.61342937665463,0.5,76.7720854236485
CBC_1139,CBC_1139_MSI_TV_v3_Vset1_Tset3_2024-07-08_17h11.14.330.csv,2,4,3,2,z,0,1,0,tac,C,63,1,3C,2C,0,1,z,2.50218089999998,0,1,1,1,2C,3C,C32,2.94443897916644,0.5,0.497316258947484,0.5,0.5,0.5,0.5,0.5,0.5,0.5,0.5,0.502683741052516,0.5,0.5,0.5,0.497316258947484,0.5,0.502683741052516,0.497316258947484,0.502683741052516,0.5,0.16666561776261,0.502220750924099,0.497316258947484,0.00266933612044203,0.5,0.00536748210503191,1.09219964362972,0.95536862108239,2.61342937665463,0.5,76.7720854236485
CBC_1139,CBC_1139_MSI_TV_v3_Vset1_Tset3_2024-07-08_17h11.14.330.csv,2,5,2,0,z,0,1,3,tac,A,27,1,2A,0A,0,1,z,1.8078016999998,0,1,1,1,0A,2A,A20,2.99573227355399,0.5,0.497316258947484,0.5,0.5,0.5,0.5,0.5,0.5,0.5,0.5,0.505353077172958,0.5,0.5,0.5,0.497316258947484,0.5,0.5,0.5,0.5,0.5,0.260906925507226,0.499576452685625,0.5,0.00268374105251595,0.5,0.00536748210503191,1.09219964362972,0.95536862108239,2.61342937665463,0.5,76.7720854236485
CBC_1139,CBC_1139_MSI_TV_v3_Vset1_Tset3_2024-07-08_17h11.14.330.csv,2,6,3,2,b,1,0,2,tac,D,63,1,3D,2D,1,0,b,2.58501899999919,1,0,1,1,3D,2D,D32,3.04452243772342,0.502683741052516,0.497316258947484,0.5,0.5,0.5,0.5,0.5,0.5,0.5,0.5,0.505353077172958,0.5,0.5,0.5,0.497316258947484,0.5,0.502683741052516,0.497316258947484,0.5,0.497316258947484,0.15743399498841,0.503496768462696,0.5,0.00268374105251595,0.5,0.00536748210503191,1.09219964362972,0.95536862108239,2.61342937665463,0.5,76.7720854236485
CBC_1139,CBC_1139_MSI_TV_v3_Vset1_Tset3_2024-07-08_17h11.14.330.csv,2,7,2,3,z,0,1,2,tac,D,63,1,2D,3D,0,1,b,2.63384979999955,1,0,0,0,2D,3D,D23,2.39789527279837,0.502683741052516,0.497316258947484,0.5,0.5,0.5,0.5,0.5,0.5,0.5,0.5,0.505353077172958,0.5,0.5,0.5,0.497316258947484,0.502683741052516,0.494632672526943,0.505367327473057,0.497316258947484,0.502683741052516,0.148731708691118,0.492678479329204,-0.497316258947484,-0.00266933612044203,0.5,0.00536748210503191,1.09219964362972,0.95536862108239,2.61342937665463,0.5,76.7720854236485
CBC_1139,CBC_1139_MSI_TV_v3_Vset1_Tset3_2024-07-08_17h11.14.330.csv,2,8,1,3,b,1,0,1,tac,B,27,1,1B,3B,1,0,b,2.41457040000114,1,0,1,1,1B,3B,B13,3.13549421592915,0.502683741052516,0.497316258947484,0.5,0.5,0.5,0.5,0.5,0.5,0.5,0.5,0.505353077172958,0.5,0.5,0.5,0.494646922827042,0.502683741052516,0.5,0.5,0.5,0.5,0.17668937684989,0.500054427948873,0.5,0.00268374105251595,0.5,0.00536748210503191,1.09219964362972,0.95536862108239,2.61342937665463,0.5,76.7720854236485
CBC_1139,CBC_1139_MSI_TV_v3_Vset1_Tset3_2024-07-08_17h11.14.330.csv,2,9,3,0,b,1,0,2,tac,D,9,1,3D,0D,1,0,b,2.53577530000166,1,0,1,1,3D,0D,D30,3.17805383034795,0.502683741052516,0.497316258947484,0.5,0.5,0.5,0.502683741052516,0.5,0.5,0.5,0.5,0.505353077172958,0.5,0.5,0.5,0.494646922827042,0.502683741052516,0.502683741052516,0.497316258947484,0.502683741052516,0.5,0.163314193572672,0.504134005284592,0.497316258947484,0.00266933612044203,0.5,0.00536748210503191,1.09219964362972,0.95536862108239,2.61342937665463,0.5,76.7720854236485
CBC_1139,CBC_1139_MSI_TV_v3_Vset1_Tset3_2024-07-08_17h11.14.330.csv,2,10,0,1,z,0,1,1,tac,B,63,1,0B,1B,0,1,z,2.68759979999868,0,1,1,1,1B,0B,B01,3.2188758248682,0.502683741052516,0.497316258947484,0.5,0.5,0.5,0.502683741052516,0.5,0.5,0.5,0.5,0.505353077172958,0.5,0.5,0.5,0.494646922827042,0.505353077172958,0.502683741052516,0.497316258947484,0.502683741052516,0.5,0.146214242502477,0.503468775597442,0.497316258947484,0.00266933612044203,0.5,0.00536748210503191,1.09219964362972,0.95536862108239,2.61342937665463,0.5,76.7720854236485
CBC_1139,CBC_1139_MSI_TV_v3_Vset1_Tset3_2024-07-08_17h11.14.330.csv,2,11,0,1,b,1,0,3,tac,A,63,1,0A,1A,1,0,b,2.38939529999971,1,0,1,1,0A,1A,A01,2.56494935746154,0.502683741052516,0.497316258947484,0.5,0.5,0.5,0.505353077172958,0.5,0.5,0.5,0.5,0.505353077172958,0.5,0.5,0.5,0.494646922827042,0.505353077172958,0.505367327473057,0.494632672526943,0.502683741052516,0.497316258947484,0.182347969213431,0.506869643159974,0.497316258947484,0.00266933612044203,0.5,0.00536748210503191,1.09219964362972,0.95536862108239,2.61342937665463,0.5,76.7720854236485
CBC_1139,CBC_1139_MSI_TV_v3_Vset1_Tset3_2024-07-08_17h11.14.330.csv,2,12,1,0,b,1,0,1,tac,B,63,1,1B,0B,1,0,b,2.47578359999989,1,0,1,1,1B,0B,B10,3.29583686600433,0.505353077172958,0.497316258947484,0.5,0.5,0.5,0.505353077172958,0.5,0.5,0.5,0.5,0.505353077172958,0.5,0.5,0.5,0.494646922827042,0.505353077172958,0.505353077172958,0.494646922827042,0.505353077172958,0.5,0.171232288282375,0.506299497165016,0.494646922827042,0.00265500850658325,0.5,0.00536748210503191,1.09219964362972,0.95536862108239,2.61342937665463,0.5,76.7720854236485
CBC_1139,CBC_1139_MSI_TV_v3_Vset1_Tset3_2024-07-08_17h11.14.330.csv,2,13,3,2,b,1,0,2,tac,D,63,1,3D,2D,1,0,z,2.35576590000073,0,1,0,0,2D,3D,D32,2.63905732961526,0.505353077172958,0.497316258947484,0.5,0.5,0.5,0.508008085679541,0.5,0.5,0.5,0.5,0.505353077172958,0.5,0.5,0.5,0.494646922827042,0.505353077172958,0.48929507267149,0.51070492732851,0.494646922827042,0.505353077172958,0.179460177985462,0.487010127321004,-0.494646922827042,-0.00265500850658325,0.5,0.00536748210503191,1.09219964362972,0.95536862108239,2.61342937665463,0.5,76.7720854236485
CBC_1139,CBC_1139_MSI_TV_v3_Vset1_Tset3_2024-07-08_17h11.14.330.csv,2,14,3,1,z,0,1,1,tac,B,27,1,3B,1B,0,1,b,2.46321889999945,1,0,0,0,3B,1B,B31,3.36729582998647,0.505353077172958,0.497316258947484,0.5,0.5,0.5,0.508008085679541,0.5,0.5,0.5,0.5,0.505353077172958,0.5,0.5,0.5,0.491991914320459,0.505353077172958,0.491991914320459,0.508008085679541,0.5,0.508008085679541,0.1672882280299,0.490193700514684,-0.5,-0.00268374105251595,0.5,0.00536748210503191,1.09219964362972,0.95536862108239,2.61342937665463,0.5,76.7720854236485
CBC_1139,CBC_1139_MSI_TV_v3_Vset1_Tset3_2024-07-08_17h11.14.330.csv,2,15,2,3,b,1,0,0,tac,C,63,1,2C,3C,1,0,z,3.36531799999921,0,1,0,0,3C,2C,C23,3.40119738166216,0.505353077172958,0.497316258947484,0.5,0.5,0.5,0.508008085679541,0.5,0.497316258947484,0.5,0.5,0.505353077172958,0.5,0.5,0.5,0.491991914320459,0.505353077172958,0.494646922827042,0.505353077172958,0.5,0.505353077172958,0.0878058233489731,0.493232563521847,-0.5,-0.00268374105251595,0.5,0.00536748210503191,1.09219964362972,0.95536862108239,2.61342937665463,0.5,76.7720854236485
CBC_1139,CBC_1139_MSI_TV_v3_Vset1_Tset3_2024-07-08_17h11.14.330.csv,2,16,0,2,z,0,1,0,tac,C,27,1,0C,2C,0,1,z,2.63322430000062,0,1,1,1,2C,0C,C02,2.7408400239252,0.505353077172958,0.497316258947484,0.5,0.5,0.5,0.508008085679541,0.5,0.497316258947484,0.5,0.5,0.505353077172958,0.497316258947484,0.5,0.5,0.491991914320459,0.505353077172958,0.505353077172958,0.494646922827042,0.505353077172958,0.5,0.152884633916623,0.50620855966167,0.494646922827042,0.00265500850658325,0.5,0.00536748210503191,1.09219964362972,0.95536862108239,2.61342937665463,0.5,76.7720854236485
CBC_1139,CBC_1139_MSI_TV_v3_Vset1_Tset3_2024-07-08_17h11.14.330.csv,2,17,3,0,z,0,1,3,tac,A,9,1,3A,0A,0,1,b,3.10635570000068,1,0,0,0,3A,0A,A30,3.46573590279973,0.505353077172958,0.497316258947484,0.5,0.5,0.5,0.508008085679541,0.5,0.497316258947484,0.5,0.5,0.508008085679541,0.497316258947484,0.5,0.5,0.491991914320459,0.505353077172958,0.494646922827042,0.505353077172958,0.5,0.505353077172958,0.105795915031889,0.492881350332904,-0.5,-0.00268374105251595,0.5,0.00536748210503191,1.09219964362972,0.95536862108239,2.61342937665463,0.5,76.7720854236485
CBC_1139,CBC_1139_MSI_TV_v3_Vset1_Tset3_2024-07-08_17h11.14.330.csv,2,18,3,2,z,0,1,0,tac,C,63,0,3C,2C,1,0,z,2.65761669999938,0,1,1,0,2C,3C,C32,2.80336038090653,0.505353077172958,0.497316258947484,0.5,0.497316258947484,0.5,0.508008085679541,0.5,0.497316258947484,0.5,0.5,0.508008085679541,0.497316258947484,0.5,0.5,0.491991914320459,0.505353077172958,0.510690907672002,0.489309092327998,0.508008085679541,0.497316258947484,0.152415698775436,0.513589394432321,-0.508008085679541,-0.00272672430909645,0.5,0.00536748210503191,1.09219964362972,0.95536862108239,2.61342937665463,0.5,76.7720854236485
CBC_1139,CBC_1139_MSI_TV_v3_Vset1_Tset3_2024-07-08_17h11.14.330.csv,2,19,0,1,b,1,0,3,tac,A,63,1,0A,1A,1,0,z,2.41362690000005,0,1,0,0,1A,0A,A01,2.42774823594805,0.505353077172958,0.497316258947484,0.5,0.497316258947484,0.5,0.508008085679541,0.5,0.497316258947484,0.5,0.5,0.505281361370445,0.497316258947484,0.5,0.5,0.491991914320459,0.505353077172958,0.491963643584486,0.508036356415514,0.497316258947484,0.505353077172958,0.172793331077922,0.488670328320281,-0.497316258947484,-0.00266933612044203,0.5,0.00536748210503191,1.09219964362972,0.95536862108239,2.61342937665463,0.5,76.7720854236485
CBC_1139,CBC_1139_MSI_TV_v3_Vset1_Tset3_2024-07-08_17h11.14.330.csv,2,20,2,3,z,0,1,2,tac,D,63,1,2D,3D,0,1,b,2.3788942000001,1,0,0,0,2D,3D,D23,2.4567357728213,0.505353077172958,0.494646922827042,0.5,0.497316258947484,0.5,0.508008085679541,0.5,0.497316258947484,0.5,0.5,0.505281361370445,0.497316258947484,0.5,0.5,0.491991914320459,0.505353077172958,0.486641127814723,0.513358872185277,0.491991914320459,0.505353077172958,0.175105403389107,0.48305149696468,-0.491991914320459,-0.00264075779593545,0.5,0.00536748210503191,1.09219964362972,0.95536862108239,2.61342937665463,0.5,76.7720854236485
CBC_1139,CBC_1139_MSI_TV_v3_Vset1_Tset3_2024-07-08_17h11.14.330.csv,2,21,2,3,b,1,0,0,tac,C,63,1,2C,3C,1,0,b,2.84381739999935,1,0,1,1,2C,3C,C23,2.89037175789616,0.505353077172958,0.494646922827042,0.5,0.497316258947484,0.5,0.508008085679541,0.5,0.497316258947484,0.5,0.5,0.505281361370445,0.497316258947484,0.5,0.5,0.489351156524523,0.505353077172958,0.507964650865286,0.492035349134714,0.505281361370445,0.497316258947484,0.132388120374917,0.510243035393727,0.494718638629555,0.00265539343986988,0.5,0.00536748210503191,1.09219964362972,0.95536862108239,2.61342937665463,0.5,76.7720854236485
CBC_1139,CBC_1139_MSI_TV_v3_Vset1_Tset3_2024-07-08_17h11.14.330.csv,2,22,1,3,z,0,1,2,tac,D,27,1,1D,3D,0,1,z,2.34079750000001,0,1,1,1,3D,1D,D13,3.61091791264422,0.505353077172958,0.494646922827042,0.5,0.497316258947484,0.5,0.508008085679541,0.5,0.497316258947484,0.5,0.5,0.507936754810315,0.497316258947484,0.5,0.5,0.489351156524523,0.505353077172958,0.505353077172958,0.494646922827042,0.505353077172958,0.5,0.189321052011791,0.508362082955492,0.494646922827042,0.00265500850658325,0.5,0.00536748210503191,1.09219964362972,0.95536862108239,2.61342937665463,0.5,76.7720854236485
CBC_1139,CBC_1139_MSI_TV_v3_Vset1_Tset3_2024-07-08_17h11.14.330.csv,2,23,1,0,z,0,1,3,tac,A,63,1,1A,0A,0,1,z,2.29138450000119,0,1,1,1,0A,1A,A10,3.63758615972639,0.505353077172958,0.494646922827042,0.5,0.497316258947484,0.5,0.508008085679541,0.5,0.497316258947484,0.5,0.5,0.507936754810315,0.497316258947484,0.5,0.5,0.489351156524523,0.508008085679541,0.51070492732851,0.48929507267149,0.505353077172958,0.494646922827042,0.1982253153002,0.513938672589856,0.494646922827042,0.00265500850658325,0.5,0.00536748210503191,1.09219964362972,0.95536862108239,2.61342937665463,0.5,76.7720854236485
CBC_1139,CBC_1139_MSI_TV_v3_Vset1_Tset3_2024-07-08_17h11.14.330.csv,2,24,2,3,b,1,0,0,tac,C,63,1,2C,3C,1,0,b,2.86647209999956,1,0,1,1,2C,3C,C23,2.56494935746154,0.508008085679541,0.494646922827042,0.5,0.497316258947484,0.5,0.508008085679541,0.5,0.497316258947484,0.5,0.5,0.507936754810315,0.497316258947484,0.5,0.5,0.489351156524523,0.508008085679541,0.510619591065401,0.489380408934599,0.507936754810315,0.497316258947484,0.130881909899483,0.512758866686525,0.492063245189685,0.00264114066309956,0.5,0.00536748210503191,1.09219964362972,0.95536862108239,2.61342937665463,0.5,76.7720854236485
CBC_1139,CBC_1139_MSI_TV_v3_Vset1_Tset3_2024-07-08_17h11.14.330.csv,2,25,2,0,z,0,1,3,tac,A,27,1,2A,0A,0,1,b,2.39816829999927,1,0,0,0,2A,0A,A20,2.99573227355399,0.508008085679541,0.494646922827042,0.5,0.497316258947484,0.5,0.508008085679541,0.5,0.497316258947484,0.5,0.5,0.510577895473414,0.497316258947484,0.5,0.5,0.489351156524523,0.508008085679541,0.491991914320459,0.508008085679541,0.5,0.508008085679541,0.175058146291612,0.489646561175944,-0.5,-0.00268374105251595,0.5,0.00536748210503191,1.09219964362972,0.95536862108239,2.61342937665463,0.5,76.7720854236485
CBC_1139,CBC_1139_MSI_TV_v3_Vset1_Tset3_2024-07-08_17h11.14.330.csv,2,26,0,1,z,0,1,1,tac,B,63,1,0B,1B,0,1,z,2.57253729999957,0,1,1,1,1B,0B,B01,3.02042488614436,0.508008085679541,0.494646922827042,0.497316258947484,0.497316258947484,0.5,0.508008085679541,0.5,0.497316258947484,0.5,0.5,0.510577895473414,0.497316258947484,0.5,0.5,0.489351156524523,0.508008085679541,0.508008085679541,0.491991914320459,0.508008085679541,0.5,0.160792151407255,0.509629446561375,0.491991914320459,0.00264075779593545,0.5,0.00536748210503191,1.09219964362972,0.95536862108239,2.61342937665463,0.5,76.7720854236485
CBC_1139,CBC_1139_MSI_TV_v3_Vset1_Tset3_2024-07-08_17h11.14.330.csv,2,27,1,0,b,1,0,1,tac,B,63,1,1B,0B,1,0,z,2.61317040000085,0,1,0,0,0B,1B,B10,3.04452243772342,0.508008085679541,0.494646922827042,0.497316258947484,0.497316258947484,0.5,0.510648843475477,0.5,0.497316258947484,0.5,0.5,0.510577895473414,0.497316258947484,0.5,0.5,0.489351156524523,0.508008085679541,0.489351156524523,0.510648843475477,0.5,0.510648843475477,0.149122468022388,0.48665835610883,-0.5,-0.00268374105251595,0.5,0.00536748210503191,1.09219964362972,0.95536862108239,2.61342937665463,0.5,76.7720854236485
CBC_1139,CBC_1139_MSI_TV_v3_Vset1_Tset3_2024-07-08_17h11.14.330.csv,2,28,2,3,b,1,0,0,tac,C,63,1,2C,3C,1,0,b,2.5649411000004,1,0,1,1,2C,3C,C23,2.37490575457367,0.508008085679541,0.494646922827042,0.497316258947484,0.497316258947484,0.497316258947484,0.510648843475477,0.5,0.497316258947484,0.5,0.5,0.510577895473414,0.497316258947484,0.5,0.5,0.489351156524523,0.508008085679541,0.513260130793931,0.486739869206069,0.510577895473414,0.497316258947484,0.164238941370325,0.517686526858781,0.489422104526586,0.0026269643878535,0.5,0.00536748210503191,1.09219964362972,0.95536862108239,2.61342937665463,0.5,76.7720854236485
CBC_1139,CBC_1139_MSI_TV_v3_Vset1_Tset3_2024-07-08_17h11.14.330.csv,2,29,1,3,z,0,1,2,tac,D,27,1,1D,3D,0,1,b,2.46255990000009,1,0,0,0,1D,3D,D13,3.09104245335832,0.508008085679541,0.494646922827042,0.497316258947484,0.497316258947484,0.497316258947484,0.510648843475477,0.5,0.497316258947484,0.5,0.5,0.513204859861268,0.497316258947484,0.5,0.5,0.489351156524523,0.508008085679541,0.491991914320459,0.508008085679541,0.5,0.508008085679541,0.167681384352048,0.491117193922024,-0.5,-0.00268374105251595,0.5,0.00536748210503191,1.09219964362972,0.95536862108239,2.61342937665463,0.5,76.7720854236485
CBC_1139,CBC_1139_MSI_TV_v3_Vset1_Tset3_2024-07-08_17h11.14.330.csv,2,30,2,1,b,1,0,0,tac,C,9,1,2C,1C,1,0,b,2.6915756999997,1,0,1,1,2C,1C,C21,3.80666248977032,0.508008085679541,0.494646922827042,0.497316258947484,0.497316258947484,0.497316258947484,0.510648843475477,0.5,0.497316258947484,0.5,0.5,0.513204859861268,0.497316258947484,0.5,0.497316258947484,0.489351156524523,0.508008085679541,0.513204859861268,0.486795140138732,0.513204859861268,0.5,0.149610922067955,0.516626082484898,0.486795140138732,0.00261286420351114,0.5,0.00536748210503191,1.09219964362972,0.95536862108239,2.61342937665463,0.5,76.7720854236485
CBC_1139,CBC_1139_MSI_TV_v3_Vset1_Tset3_2024-07-08_17h11.14.330.csv,2,31,1,3,b,1,0,1,tac,B,27,1,1B,3B,1,0,z,2.37215410000044,0,1,0,0,3B,1B,B13,3.13549421592915,0.508008085679541,0.494646922827042,0.497316258947484,0.497316258947484,0.497316258947484,0.510648843475477,0.5,0.497316258947484,0.5,0.5,0.515817724064779,0.497316258947484,0.5,0.497316258947484,0.489351156524523,0.508008085679541,0.48666893941158,0.51333106058842,0.497316258947484,0.510648843475477,0.176262483922278,0.483921172851015,-0.497316258947484,-0.00266933612044203,0.5,0.00536748210503191,1.09219964362972,0.95536862108239,2.61342937665463,0.5,76.7720854236485
CBC_1139,CBC_1139_MSI_TV_v3_Vset1_Tset3_2024-07-08_17h11.14.330.csv,2,32,2,3,z,0,1,2,tac,D,63,1,2D,3D,0,1,z,2.41447620000054,0,1,1,1,3D,2D,D23,2.46385324059017,0.508008085679541,0.494646922827042,0.497316258947484,0.497316258947484,0.497316258947484,0.510648843475477,0.5,0.494646922827042,0.5,0.5,0.515817724064779,0.497316258947484,0.5,0.497316258947484,0.489351156524523,0.508008085679541,0.518650567308425,0.481349432691575,0.508008085679541,0.489351156524523,0.184431237133804,0.521817732259508,0.491991914320459,0.00264075779593545,0.5,0.00536748210503191,1.09219964362972,0.95536862108239,2.61342937665463,0.5,76.7720854236485
CBC_1139,CBC_1139_MSI_TV_v3_Vset1_Tset3_2024-07-08_17h11.14.330.csv,2,33,1,0,b,1,0,1,tac,B,63,1,1B,0B,1,0,z,2.41228640000099,0,1,0,0,0B,1B,B10,2.77258872223978,0.508008085679541,0.494646922827042,0.497316258947484,0.497316258947484,0.497316258947484,0.510648843475477,0.5,0.494646922827042,0.5,0.5,0.515817724064779,0.497316258947484,0.5,0.497316258947484,0.489351156524523,0.510648843475477,0.48666893941158,0.51333106058842,0.497316258947484,0.510648843475477,0.17113373520869,0.483482016171743,-0.497316258947484,-0.00266933612044203,0.5,0.00536748210503191,1.09219964362972,0.95536862108239,2.61342937665463,0.5,76.7720854236485
CBC_1139,CBC_1139_MSI_TV_v3_Vset1_Tset3_2024-07-08_17h11.14.330.csv,2,34,0,1,b,1,0,3,tac,A,63,0,0A,1A,0,1,z,2.34414709999965,0,1,0,1,1A,0A,A01,2.50552593699074,0.508008085679541,0.494646922827042,0.497316258947484,0.497316258947484,0.494646922827042,0.510648843475477,0.5,0.494646922827042,0.5,0.5,0.515817724064779,0.497316258947484,0.5,0.497316258947484,0.489351156524523,0.510648843475477,0.486641127814723,0.513358872185277,0.494646922827042,0.508008085679541,0.179242259053763,0.482382701120193,0.505353077172958,0.00271247359844866,0.5,0.00536748210503191,1.09219964362972,0.95536862108239,2.61342937665463,0.5,76.7720854236485
CBC_1139,CBC_1139_MSI_TV_v3_Vset1_Tset3_2024-07-08_17h11.14.330.csv,2,35,3,2,z,0,1,0,tac,C,63,1,3C,2C,0,1,z,2.63795050000135,0,1,1,1,2C,3C,C32,2.81341071676004,0.508008085679541,0.497359396425491,0.497316258947484,0.497316258947484,0.494646922827042,0.510648843475477,0.5,0.494646922827042,0.5,0.5,0.515817724064779,0.497316258947484,0.5,0.497316258947484,0.489351156524523,0.510648843475477,0.518498324051894,0.481501675948106,0.515817724064779,0.497316258947484,0.157969307865666,0.524770642629676,0.484182275935221,0.00259883970165592,0.5,0.00536748210503191,1.09219964362972,0.95536862108239,2.61342937665463,0.5,76.7720854236485
CBC_1139,CBC_1139_MSI_TV_v3_Vset1_Tset3_2024-07-08_17h11.14.330.csv,2,36,2,0,z,0,1,3,tac,A,27,1,2A,0A,0,1,z,2.30503910000061,0,1,1,1,0A,2A,A20,2.83321334405622,0.508008085679541,0.497359396425491,0.497316258947484,0.497316258947484,0.494646922827042,0.510648843475477,0.5,0.494646922827042,0.5,0.5,0.518416563766435,0.497316258947484,0.5,0.497316258947484,0.489351156524523,0.510648843475477,0.510690907672002,0.489309092327998,0.508008085679541,0.497316258947484,0.196365076227189,0.514049309891622,0.491991914320459,0.00264075779593545,0.5,0.00536748210503191,1.09219964362972,0.95536862108239,2.61342937665463,0.5,76.7720854236485
CBC_1139,CBC_1139_MSI_TV_v3_Vset1_Tset3_2024-07-08_17h11.14.330.csv,2,37,1,0,b,1,0,1,tac,B,63,1,1B,0B,1,0,b,2.41859079999904,1,0,1,1,1B,0B,B10,2.56494935746154,0.510648843475477,0.497359396425491,0.497316258947484,0.497316258947484,0.494646922827042,0.510648843475477,0.5,0.494646922827042,0.5,0.5,0.518416563766435,0.497316258947484,0.5,0.497316258947484,0.489351156524523,0.510648843475477,0.51599827278109,0.48400172721891,0.510648843475477,0.494646922827042,0.183397330121184,0.520434510292199,0.489351156524523,0.00262658357572205,0.5,0.00536748210503191,1.09219964362972,0.95536862108239,2.61342937665463,0.5,76.7720854236485
CBC_1139,CBC_1139_MSI_TV_v3_Vset1_Tset3_2024-07-08_17h11.14.330.csv,2,38,3,2,b,1,0,2,tac,D,63,1,3D,2D,1,0,z,2.48385609999877,0,1,0,0,2D,3D,D32,2.87167962488401,0.510648843475477,0.497359396425491,0.497316258947484,0.497316258947484,0.494646922827042,0.513275427051199,0.5,0.494646922827042,0.5,0.5,0.518416563766435,0.497316258947484,0.5,0.497316258947484,0.489351156524523,0.510648843475477,0.478711969118256,0.521288030881744,0.489351156524523,0.510648843475477,0.159496097165125,0.474225384733205,-0.489351156524523,-0.00262658357572205,0.5,0.00536748210503191,1.09219964362972,0.95536862108239,2.61342937665463,0.5,76.7720854236485
CBC_1139,CBC_1139_MSI_TV_v3_Vset1_Tset3_2024-07-08_17h11.14.330.csv,2,39,2,1,z,0,1,1,tac,B,9,1,2B,1B,0,1,b,2.52554380000129,1,0,0,0,2B,1B,B21,3.98898404656427,0.510648843475477,0.497359396425491,0.497316258947484,0.497316258947484,0.494646922827042,0.513275427051199,0.5,0.494646922827042,0.5,0.5,0.518416563766435,0.497316258947484,0.5,0.497316258947484,0.486724572948801,0.510648843475477,0.486724572948801,0.513275427051199,0.5,0.513275427051199,0.157673082195527,0.483115048849354,-0.5,-0.00268374105251595,0.5,0.00536748210503191,1.09219964362972,0.95536862108239,2.61342937665463,0.5,76.7720854236485
CBC_1139,CBC_1139_MSI_TV_v3_Vset1_Tset3_2024-07-08_17h11.14.330.csv,2,40,3,1,b,1,0,2,tac,D,27,1,3D,1D,1,0,z,2.35097749999932,0,1,0,0,1D,3D,D31,4.00733318523247,0.510648843475477,0.497359396425491,0.497316258947484,0.497316258947484,0.494646922827042,0.513275427051199,0.497316258947484,0.494646922827042,0.5,0.5,0.518416563766435,0.497316258947484,0.5,0.497316258947484,0.486724572948801,0.510648843475477,0.48666893941158,0.51333106058842,0.497316258947484,0.510648843475477,0.178300505403419,0.48218115507332,-0.497316258947484,-0.00266933612044203,0.5,0.00536748210503191,1.09219964362972,0.95536862108239,2.61342937665463,0.5,76.7720854236485
CBC_1139,CBC_1139_MSI_TV_v3_Vset1_Tset3_2024-07-08_17h11.14.330.csv,2,41,0,1,b,1,0,3,tac,A,63,1,0A,1A,1,0,z,2.56858469999952,0,1,0,0,1A,0A,A01,2.41591377830105,0.510648843475477,0.497359396425491,0.497316258947484,0.497316258947484,0.494646922827042,0.513275427051199,0.497316258947484,0.494646922827042,0.5,0.5,0.518416563766435,0.497316258947484,0.5,0.494646922827042,0.486724572948801,0.510648843475477,0.486712047545641,0.513287952454359,0.497359396425491,0.510648843475477,0.152652379932137,0.482428783874319,-0.497359396425491,-0.00266956766008329,0.5,0.00536748210503191,1.09219964362972,0.95536862108239,2.61342937665463,0.5,76.7720854236485
CBC_1139,CBC_1139_MSI_TV_v3_Vset1_Tset3_2024-07-08_17h11.14.330.csv,2,42,1,0,z,0,1,3,tac,A,63,1,1A,0A,0,1,z,2.3413429000002,0,1,1,1,0A,1A,A10,3.3499040872746,0.510648843475477,0.494689828765407,0.497316258947484,0.497316258947484,0.494646922827042,0.513275427051199,0.497316258947484,0.494646922827042,0.5,0.5,0.518416563766435,0.497316258947484,0.5,0.494646922827042,0.486724572948801,0.510648843475477,0.515955405777113,0.484044594222887,0.510648843475477,0.494689828765407,0.193786243458595,0.520456044173771,0.489351156524523,0.00262658357572205,0.5,0.00536748210503191,1.09219964362972,0.95536862108239,2.61342937665463,0.5,76.7720854236485
CBC_1139,CBC_1139_MSI_TV_v3_Vset1_Tset3_2024-07-08_17h11.14.330.csv,2,43,0,2,z,0,1,0,tac,C,27,1,0C,2C,0,1,z,2.90277400000105,0,1,1,1,2C,0C,C02,2.96183072187831,0.513275427051199,0.494689828765407,0.497316258947484,0.497316258947484,0.494646922827042,0.513275427051199,0.497316258947484,0.494646922827042,0.5,0.5,0.518416563766435,0.497316258947484,0.5,0.494646922827042,0.486724572948801,0.510648843475477,0.518416563766435,0.481583436233565,0.518416563766435,0.5,0.129903729375114,0.522466686920347,0.481583436233565,0.00258489047606344,0.5,0.00536748210503191,1.09219964362972,0.95536862108239,2.61342937665463,0.5,76.7720854236485
CBC_1139,CBC_1139_MSI_TV_v3_Vset1_Tset3_2024-07-08_17h11.14.330.csv,2,44,1,0,b,1,0,1,tac,B,63,1,1B,0B,1,0,z,2.28531670000029,0,1,0,0,0B,1B,B10,2.46809953147162,0.513275427051199,0.494689828765407,0.497316258947484,0.497316258947484,0.494646922827042,0.513275427051199,0.497316258947484,0.494646922827042,0.5,0.5,0.521001454242498,0.497316258947484,0.5,0.494646922827042,0.486724572948801,0.510648843475477,0.481376789563867,0.518623210436133,0.494646922827042,0.513275427051199,0.184991546838109,0.477488861742333,-0.494646922827042,-0.00265500850658325,0.5,0.00536748210503191,1.09219964362972,0.95536862108239,2.61342937665463,0.5,76.7720854236485
