ID,filename,session,trial,visStimLeft,visStimRight,correctKey,leftCorrect,rightCorrect,secondStim,mod2Type,mod2Stim,frequency,rewardAccurate,stimPairLeft,stimPairRight,pCorrectLeft,pCorrectRight,key,reactionTime,choiceLeft,choiceRight,choiceAccurate,reward,chosenPair,otherPair,triplet,surprise,0A belief,1A belief,2A belief,3A belief,0B belief,1B belief,2B belief,3B belief,0C belief,1C belief,2C belief,3C belief,0D belief,1D belief,2D belief,3D belief,beliefPairNorm,beliefOtherPairNorm,beliefPair,beliefOtherPair,lik,corrLik,rewardPE,update2,fitCBCsimpleRW_CBCdriftDiffusionLR_startBelief,fitCBCsimpleRW_CBCdriftDiffusionLR_alpha1,fitCBCsimpleRW_CBCdriftDiffusionLR_nonDecisionTime,fitCBCsimpleRW_CBCdriftDiffusionLR_weight,fitCBCsimpleRW_CBCdriftDiffusionLR_startingBoundary,fitCBCsimpleRW_CBCdriftDiffusionLR_startingPoint,fit_CBCsimpleRW_CBCdriftDiffusionLR_NLL
CBC_1139,CBC_1139_MSI_AV_v3_Vset2_Aset3_2024-07-08_16h12.35.623.csv,1,1,0,1,z,0,1,1,aud,B,63,1,0B,1B,0,1,z,2.64066569999977,0,1,1,1,1B,0B,B01,2.77258872223978,0.5,0.5,0.5,0.5,0.5,0.5,0.5,0.5,0.5,0.5,0.5,0.5,0.5,0.5,0.5,0.5,0.5,0.5,0.5,0.5,0.14958376687966,0.49973801641886,0.5,0.00430260658420639,0.5,0.00860521316841278,1.07857131373083,14.517244537214,2.7133370637625,0.5,78.5455769104602
CBC_1139,CBC_1139_MSI_AV_v3_Vset2_Aset3_2024-07-08_16h12.35.623.csv,1,2,0,1,b,1,0,3,aud,A,63,1,0A,1A,1,0,b,2.80593139999928,1,0,1,1,0A,1A,A01,2.83321334405622,0.5,0.5,0.5,0.5,0.5,0.504302606584206,0.5,0.5,0.5,0.5,0.5,0.5,0.5,0.5,0.5,0.5,0.5,0.5,0.5,0.5,0.133750017988665,0.498981743882046,0.5,0.00430260658420639,0.5,0.00860521316841278,1.07857131373083,14.517244537214,2.7133370637625,0.5,78.5455769104602
CBC_1139,CBC_1139_MSI_AV_v3_Vset2_Aset3_2024-07-08_16h12.35.623.csv,1,3,2,3,z,0,1,2,aud,D,63,1,2D,3D,0,1,z,2.44090119999964,0,1,1,1,3D,2D,D23,2.89037175789616,0.504302606584206,0.5,0.5,0.5,0.5,0.504302606584206,0.5,0.5,0.5,0.5,0.5,0.5,0.5,0.5,0.5,0.5,0.5,0.5,0.5,0.5,0.170943535347937,0.500189928318091,0.5,0.00430260658420639,0.5,0.00860521316841278,1.07857131373083,14.517244537214,2.7133370637625,0.5,78.5455769104602
CBC_1139,CBC_1139_MSI_AV_v3_Vset2_Aset3_2024-07-08_16h12.35.623.csv,1,4,2,1,z,0,1,1,aud,B,9,1,2B,1B,0,1,z,2.49580539999988,0,1,1,1,1B,2B,B21,2.94443897916644,0.504302606584206,0.5,0.5,0.5,0.5,0.504302606584206,0.5,0.5,0.5,0.5,0.5,0.5,0.5,0.5,0.5,0.504302606584206,0.502142086735611,0.497857913264389,0.504302606584206,0.5,0.178248282996481,0.540431035371162,0.495697393415794,0.00426558173736948,0.5,0.00860521316841278,1.07857131373083,14.517244537214,2.7133370637625,0.5,78.5455769104602
CBC_1139,CBC_1139_MSI_AV_v3_Vset2_Aset3_2024-07-08_16h12.35.623.csv,1,5,0,2,b,1,0,3,aud,A,27,1,0A,2A,1,0,z,2.59885140000006,0,1,0,0,2A,0A,A02,2.99573227355399,0.504302606584206,0.5,0.5,0.5,0.5,0.508568188321576,0.5,0.5,0.5,0.5,0.5,0.5,0.5,0.5,0.5,0.504302606584206,0.497857913264389,0.502142086735611,0.5,0.504302606584206,0.141112471311875,0.458208444332607,-0.5,-0.00430260658420639,0.5,0.00860521316841278,1.07857131373083,14.517244537214,2.7133370637625,0.5,78.5455769104602
CBC_1139,CBC_1139_MSI_AV_v3_Vset2_Aset3_2024-07-08_16h12.35.623.csv,1,6,2,3,b,1,0,0,aud,C,63,1,2C,3C,1,0,z,2.82655729999897,0,1,0,0,3C,2C,C23,3.04452243772342,0.504302606584206,0.5,0.495697393415794,0.5,0.5,0.508568188321576,0.5,0.5,0.5,0.5,0.5,0.5,0.5,0.5,0.5,0.504302606584206,0.5,0.5,0.5,0.5,0.132166502621617,0.49992352050919,-0.5,-0.00430260658420639,0.5,0.00860521316841278,1.07857131373083,14.517244537214,2.7133370637625,0.5,78.5455769104602
CBC_1139,CBC_1139_MSI_AV_v3_Vset2_Aset3_2024-07-08_16h12.35.623.csv,1,7,1,3,z,0,1,2,aud,D,27,1,1D,3D,0,1,z,2.48742709999988,0,1,1,1,3D,1D,D13,3.09104245335832,0.504302606584206,0.5,0.495697393415794,0.5,0.5,0.508568188321576,0.5,0.5,0.5,0.5,0.5,0.495697393415794,0.5,0.5,0.5,0.504302606584206,0.502142086735611,0.497857913264389,0.504302606584206,0.5,0.179440144489771,0.541015153335366,0.495697393415794,0.00426558173736948,0.5,0.00860521316841278,1.07857131373083,14.517244537214,2.7133370637625,0.5,78.5455769104602
CBC_1139,CBC_1139_MSI_AV_v3_Vset2_Aset3_2024-07-08_16h12.35.623.csv,1,8,1,0,z,0,1,3,aud,A,63,1,1A,0A,0,1,b,2.90029270000014,1,0,0,0,1A,0A,A10,3.13549421592915,0.504302606584206,0.5,0.495697393415794,0.5,0.5,0.508568188321576,0.5,0.5,0.5,0.5,0.5,0.495697393415794,0.5,0.5,0.5,0.508568188321576,0.497857913264389,0.502142086735611,0.5,0.504302606584206,0.114918466145794,0.456652356914525,-0.5,-0.00430260658420639,0.5,0.00860521316841278,1.07857131373083,14.517244537214,2.7133370637625,0.5,78.5455769104602
CBC_1139,CBC_1139_MSI_AV_v3_Vset2_Aset3_2024-07-08_16h12.35.623.csv,1,9,2,0,b,1,0,0,aud,C,27,1,2C,0C,1,0,b,3.21213569999964,1,0,1,1,2C,0C,C20,3.17805383034795,0.504302606584206,0.495697393415794,0.495697393415794,0.5,0.5,0.508568188321576,0.5,0.5,0.5,0.5,0.5,0.495697393415794,0.5,0.5,0.5,0.508568188321576,0.5,0.5,0.5,0.5,0.102287480647566,0.500900024216064,0.5,0.00430260658420639,0.5,0.00860521316841278,1.07857131373083,14.517244537214,2.7133370637625,0.5,78.5455769104602
CBC_1139,CBC_1139_MSI_AV_v3_Vset2_Aset3_2024-07-08_16h12.35.623.csv,1,10,2,3,z,0,1,2,aud,D,63,1,2D,3D,0,1,z,3.38129570000001,0,1,1,1,3D,2D,D23,2.52572864430826,0.504302606584206,0.495697393415794,0.495697393415794,0.5,0.5,0.508568188321576,0.5,0.5,0.5,0.5,0.504302606584206,0.495697393415794,0.5,0.5,0.5,0.508568188321576,0.504247699075178,0.495752300924821,0.508568188321576,0.5,0.105732472935314,0.581955991854276,0.491431811678424,0.00422887549723213,0.5,0.00860521316841278,1.07857131373083,14.517244537214,2.7133370637625,0.5,78.5455769104602
CBC_1139,CBC_1139_MSI_AV_v3_Vset2_Aset3_2024-07-08_16h12.35.623.csv,1,11,1,0,b,1,0,1,aud,B,63,1,1B,0B,1,0,b,2.12295749999976,1,0,1,1,1B,0B,B10,3.25809653802148,0.504302606584206,0.495697393415794,0.495697393415794,0.5,0.5,0.508568188321576,0.5,0.5,0.5,0.5,0.504302606584206,0.495697393415794,0.5,0.5,0.5,0.512797063818808,0.504247699075178,0.495752300924821,0.508568188321576,0.5,0.245769660533238,0.582932808463659,0.491431811678424,0.00422887549723213,0.5,0.00860521316841278,1.07857131373083,14.517244537214,2.7133370637625,0.5,78.5455769104602
CBC_1139,CBC_1139_MSI_AV_v3_Vset2_Aset3_2024-07-08_16h12.35.623.csv,1,12,0,1,b,1,0,3,aud,A,63,1,0A,1A,1,0,z,2.22812439999961,0,1,0,0,1A,0A,A01,2.60268968544438,0.504302606584206,0.495697393415794,0.495697393415794,0.5,0.5,0.512797063818808,0.5,0.5,0.5,0.5,0.504302606584206,0.495697393415794,0.5,0.5,0.5,0.512797063818808,0.495697393415794,0.504302606584206,0.495697393415794,0.504302606584206,0.163878418123857,0.415320451607728,-0.495697393415794,-0.00426558173736948,0.5,0.00860521316841278,1.07857131373083,14.517244537214,2.7133370637625,0.5,78.5455769104602
CBC_1139,CBC_1139_MSI_AV_v3_Vset2_Aset3_2024-07-08_16h12.35.623.csv,1,13,2,3,z,0,1,2,aud,D,63,1,2D,3D,0,1,z,1.60364299999947,0,1,1,1,3D,2D,D23,2.23359222150709,0.504302606584206,0.491431811678424,0.495697393415794,0.5,0.5,0.512797063818808,0.5,0.5,0.5,0.5,0.504302606584206,0.495697393415794,0.5,0.5,0.5,0.512797063818808,0.506317684102754,0.493682315897246,0.512797063818808,0.5,0.313985601405992,0.622838873739532,0.487202936181192,0.00419248512211577,0.5,0.00860521316841278,1.07857131373083,14.517244537214,2.7133370637625,0.5,78.5455769104602
CBC_1139,CBC_1139_MSI_AV_v3_Vset2_Aset3_2024-07-08_16h12.35.623.csv,1,14,2,0,b,1,0,0,aud,C,27,1,2C,0C,1,0,z,2.51765940000041,0,1,0,0,0C,2C,C20,2.67414864942653,0.504302606584206,0.491431811678424,0.495697393415794,0.5,0.5,0.512797063818808,0.5,0.5,0.5,0.5,0.504302606584206,0.495697393415794,0.5,0.5,0.5,0.516989548940924,0.497857913264389,0.502142086735611,0.5,0.504302606584206,0.148816149857452,0.457765705495236,-0.5,-0.00430260658420639,0.5,0.00860521316841278,1.07857131373083,14.517244537214,2.7133370637625,0.5,78.5455769104602
CBC_1139,CBC_1139_MSI_AV_v3_Vset2_Aset3_2024-07-08_16h12.35.623.csv,1,15,0,1,b,1,0,3,aud,A,63,1,0A,1A,1,0,z,2.58036699999957,0,1,0,0,1A,0A,A01,2.30258509299405,0.504302606584206,0.491431811678424,0.495697393415794,0.5,0.5,0.512797063818808,0.5,0.5,0.495697393415794,0.5,0.504302606584206,0.495697393415794,0.5,0.5,0.5,0.516989548940924,0.493537034238387,0.506462965761613,0.491431811678424,0.504302606584206,0.117858010220479,0.3761551550409,-0.491431811678424,-0.00422887549723213,0.5,0.00860521316841278,1.07857131373083,14.517244537214,2.7133370637625,0.5,78.5455769104602
CBC_1139,CBC_1139_MSI_AV_v3_Vset2_Aset3_2024-07-08_16h12.35.623.csv,1,16,1,3,b,1,0,1,aud,B,27,1,1B,3B,1,0,b,2.63041479999993,1,0,1,1,1B,3B,B13,3.43398720448515,0.504302606584206,0.487202936181192,0.495697393415794,0.5,0.5,0.512797063818808,0.5,0.5,0.495697393415794,0.5,0.504302606584206,0.495697393415794,0.5,0.5,0.5,0.516989548940924,0.506317684102754,0.493682315897246,0.512797063818808,0.5,0.187888442635634,0.620665125324865,0.487202936181192,0.00419248512211577,0.5,0.00860521316841278,1.07857131373083,14.517244537214,2.7133370637625,0.5,78.5455769104602
CBC_1139,CBC_1139_MSI_AV_v3_Vset2_Aset3_2024-07-08_16h12.35.623.csv,1,17,3,2,z,0,1,0,aud,C,63,1,3C,2C,0,1,z,2.38311749999957,0,1,1,1,2C,3C,C32,3.46573590279973,0.504302606584206,0.487202936181192,0.495697393415794,0.5,0.5,0.516989548940924,0.5,0.5,0.495697393415794,0.5,0.504302606584206,0.495697393415794,0.5,0.5,0.5,0.516989548940924,0.504302606584206,0.495697393415794,0.504302606584206,0.495697393415794,0.208449819205952,0.584736945138684,0.495697393415794,0.00426558173736948,0.5,0.00860521316841278,1.07857131373083,14.517244537214,2.7133370637625,0.5,78.5455769104602
CBC_1139,CBC_1139_MSI_AV_v3_Vset2_Aset3_2024-07-08_16h12.35.623.csv,1,18,2,3,z,0,1,2,aud,D,63,0,2D,3D,1,0,b,2.37155529999927,1,0,0,1,2D,3D,D23,2.11021320034659,0.504302606584206,0.487202936181192,0.495697393415794,0.5,0.5,0.516989548940924,0.5,0.5,0.495697393415794,0.5,0.508568188321576,0.495697393415794,0.5,0.5,0.5,0.516989548940924,0.491647136905873,0.508352863094127,0.5,0.516989548940924,0.124003812825499,0.341483793374823,0.5,0.00430260658420639,0.5,0.00860521316841278,1.07857131373083,14.517244537214,2.7133370637625,0.5,78.5455769104602
CBC_1139,CBC_1139_MSI_AV_v3_Vset2_Aset3_2024-07-08_16h12.35.623.csv,1,19,1,0,b,1,0,1,aud,B,63,1,1B,0B,1,0,z,2.17340659999991,0,1,0,0,0B,1B,B10,2.83321334405622,0.504302606584206,0.487202936181192,0.495697393415794,0.5,0.5,0.516989548940924,0.5,0.5,0.495697393415794,0.5,0.508568188321576,0.495697393415794,0.5,0.5,0.504302606584206,0.516989548940924,0.491647136905873,0.508352863094127,0.5,0.516989548940924,0.141172207662027,0.340212911085222,-0.5,-0.00430260658420639,0.5,0.00860521316841278,1.07857131373083,14.517244537214,2.7133370637625,0.5,78.5455769104602
CBC_1139,CBC_1139_MSI_AV_v3_Vset2_Aset3_2024-07-08_16h12.35.623.csv,1,20,2,0,z,0,1,3,aud,A,27,1,2A,0A,0,1,b,2.23054199999933,1,0,0,0,2A,0A,A20,3.55534806148941,0.504302606584206,0.487202936181192,0.495697393415794,0.5,0.495697393415794,0.516989548940924,0.5,0.5,0.495697393415794,0.5,0.508568188321576,0.495697393415794,0.5,0.5,0.504302606584206,0.516989548940924,0.495697393415794,0.504302606584206,0.495697393415794,0.504302606584206,0.163643467595172,0.415374501646165,-0.495697393415794,-0.00426558173736948,0.5,0.00860521316841278,1.07857131373083,14.517244537214,2.7133370637625,0.5,78.5455769104602
CBC_1139,CBC_1139_MSI_AV_v3_Vset2_Aset3_2024-07-08_16h12.35.623.csv,1,21,0,3,z,0,1,2,aud,D,9,1,0D,3D,0,1,b,2.54794169999968,1,0,0,0,0D,3D,D03,3.58351893845611,0.504302606584206,0.487202936181192,0.491431811678424,0.5,0.495697393415794,0.516989548940924,0.5,0.5,0.495697393415794,0.5,0.508568188321576,0.495697393415794,0.5,0.5,0.504302606584206,0.516989548940924,0.491647136905873,0.508352863094127,0.5,0.516989548940924,0.109864807903761,0.341676966192659,-0.5,-0.00430260658420639,0.5,0.00860521316841278,1.07857131373083,14.517244537214,2.7133370637625,0.5,78.5455769104602
CBC_1139,CBC_1139_MSI_AV_v3_Vset2_Aset3_2024-07-08_16h12.35.623.csv,1,22,2,3,b,1,0,0,aud,C,63,1,2C,3C,1,0,b,3.03980299999967,1,0,1,1,2C,3C,C23,2.91777073208428,0.504302606584206,0.487202936181192,0.491431811678424,0.5,0.495697393415794,0.516989548940924,0.5,0.5,0.495697393415794,0.5,0.508568188321576,0.495697393415794,0.495697393415794,0.5,0.504302606584206,0.516989548940924,0.506408063334958,0.493591936665042,0.508568188321576,0.495697393415794,0.142810181440623,0.624618382094151,0.491431811678424,0.00422887549723213,0.5,0.00860521316841278,1.07857131373083,14.517244537214,2.7133370637625,0.5,78.5455769104602
CBC_1139,CBC_1139_MSI_AV_v3_Vset2_Aset3_2024-07-08_16h12.35.623.csv,1,23,3,1,z,0,1,1,aud,B,27,1,3B,1B,0,1,z,2.42977150000024,0,1,1,1,1B,3B,B31,3.63758615972639,0.504302606584206,0.487202936181192,0.491431811678424,0.5,0.495697393415794,0.516989548940924,0.5,0.5,0.495697393415794,0.5,0.512797063818808,0.495697393415794,0.495697393415794,0.5,0.504302606584206,0.516989548940924,0.508352863094127,0.491647136905873,0.516989548940924,0.5,0.22941852454797,0.657620133984577,0.483010451059076,0.00415640789393456,0.5,0.00860521316841278,1.07857131373083,14.517244537214,2.7133370637625,0.5,78.5455769104602
CBC_1139,CBC_1139_MSI_AV_v3_Vset2_Aset3_2024-07-08_16h12.35.623.csv,1,24,3,2,z,0,1,0,aud,C,63,1,3C,2C,0,1,z,2.90245890000006,0,1,1,1,2C,3C,C32,2.9704144655697,0.504302606584206,0.487202936181192,0.491431811678424,0.5,0.495697393415794,0.521145956834858,0.5,0.5,0.495697393415794,0.5,0.512797063818808,0.495697393415794,0.495697393415794,0.5,0.504302606584206,0.516989548940924,0.508477820715993,0.491522179284007,0.512797063818808,0.495697393415794,0.166196605281529,0.661738705127477,0.487202936181192,0.00419248512211577,0.5,0.00860521316841278,1.07857131373083,14.517244537214,2.7133370637625,0.5,78.5455769104602
CBC_1139,CBC_1139_MSI_AV_v3_Vset2_Aset3_2024-07-08_16h12.35.623.csv,1,25,2,3,z,0,1,2,aud,D,63,1,2D,3D,0,1,z,2.71825089999948,0,1,1,1,3D,2D,D23,2.07944154167984,0.504302606584206,0.487202936181192,0.491431811678424,0.5,0.495697393415794,0.521145956834858,0.5,0.5,0.495697393415794,0.5,0.516989548940924,0.495697393415794,0.495697393415794,0.5,0.504302606584206,0.516989548940924,0.506211220897018,0.493788779102982,0.516989548940924,0.504302606584206,0.176693938951351,0.619832154240868,0.483010451059076,0.00415640789393456,0.5,0.00860521316841278,1.07857131373083,14.517244537214,2.7133370637625,0.5,78.5455769104602
CBC_1139,CBC_1139_MSI_AV_v3_Vset2_Aset3_2024-07-08_16h12.35.623.csv,1,26,1,0,b,1,0,1,aud,B,63,1,1B,0B,1,0,z,2.39210230000026,0,1,0,0,0B,1B,B10,2.6149597780362,0.504302606584206,0.487202936181192,0.491431811678424,0.5,0.495697393415794,0.521145956834858,0.5,0.5,0.495697393415794,0.5,0.516989548940924,0.495697393415794,0.495697393415794,0.5,0.504302606584206,0.521145956834858,0.487486487759992,0.512513512240008,0.495697393415794,0.521145956834858,0.0988176178917043,0.27168674577623,-0.495697393415794,-0.00426558173736948,0.5,0.00860521316841278,1.07857131373083,14.517244537214,2.7133370637625,0.5,78.5455769104602
CBC_1139,CBC_1139_MSI_AV_v3_Vset2_Aset3_2024-07-08_16h12.35.623.csv,1,27,0,3,b,1,0,3,aud,A,9,1,0A,3A,1,0,b,2.51449969999976,1,0,1,1,0A,3A,A03,3.73766961828337,0.504302606584206,0.487202936181192,0.491431811678424,0.5,0.491431811678424,0.521145956834858,0.5,0.5,0.495697393415794,0.5,0.516989548940924,0.495697393415794,0.495697393415794,0.5,0.504302606584206,0.521145956834858,0.502142086735611,0.497857913264389,0.504302606584206,0.5,0.176706051911319,0.542411891481944,0.495697393415794,0.00426558173736948,0.5,0.00860521316841278,1.07857131373083,14.517244537214,2.7133370637625,0.5,78.5455769104602
CBC_1139,CBC_1139_MSI_AV_v3_Vset2_Aset3_2024-07-08_16h12.35.623.csv,1,28,2,3,z,0,1,2,aud,D,63,1,2D,3D,0,1,z,2.14704519999941,0,1,1,1,3D,2D,D23,1.96944064646551,0.508568188321576,0.487202936181192,0.491431811678424,0.5,0.491431811678424,0.521145956834858,0.5,0.5,0.495697393415794,0.5,0.516989548940924,0.495697393415794,0.495697393415794,0.5,0.504302606584206,0.521145956834858,0.50821267436101,0.49178732563899,0.521145956834858,0.504302606584206,0.276950644562558,0.656650347749155,0.478854043165142,0.00412064111799238,0.5,0.00860521316841278,1.07857131373083,14.517244537214,2.7133370637625,0.5,78.5455769104602
CBC_1139,CBC_1139_MSI_AV_v3_Vset2_Aset3_2024-07-08_16h12.35.623.csv,1,29,2,0,b,1,0,0,aud,C,27,1,2C,0C,1,0,b,2.78373740000006,1,0,1,1,2C,0C,C20,2.68557734525015,0.508568188321576,0.487202936181192,0.491431811678424,0.5,0.491431811678424,0.521145956834858,0.5,0.5,0.495697393415794,0.5,0.516989548940924,0.495697393415794,0.495697393415794,0.5,0.504302606584206,0.525266597952851,0.510512703696751,0.489487296303249,0.516989548940924,0.495697393415794,0.189838871864229,0.695052849284057,0.483010451059076,0.00415640789393456,0.5,0.00860521316841278,1.07857131373083,14.517244537214,2.7133370637625,0.5,78.5455769104602
CBC_1139,CBC_1139_MSI_AV_v3_Vset2_Aset3_2024-07-08_16h12.35.623.csv,1,30,1,0,z,0,1,3,aud,A,63,1,1A,0A,0,1,b,2.53498029999992,1,0,0,0,1A,0A,A10,3.11351530921037,0.508568188321576,0.487202936181192,0.491431811678424,0.5,0.491431811678424,0.521145956834858,0.5,0.5,0.495697393415794,0.5,0.521145956834858,0.495697393415794,0.495697393415794,0.5,0.504302606584206,0.525266597952851,0.489272006581305,0.510727993418695,0.487202936181192,0.508568188321576,0.0982244632545868,0.301014785032575,-0.487202936181192,-0.00419248512211577,0.5,0.00860521316841278,1.07857131373083,14.517244537214,2.7133370637625,0.5,78.5455769104602
CBC_1139,CBC_1139_MSI_AV_v3_Vset2_Aset3_2024-07-08_16h12.35.623.csv,1,31,1,0,b,1,0,1,aud,B,63,1,1B,0B,1,0,b,2.3682304999993,1,0,1,1,1B,0B,B10,2.4423470353692,0.508568188321576,0.483010451059076,0.491431811678424,0.5,0.491431811678424,0.521145956834858,0.5,0.5,0.495697393415794,0.5,0.521145956834858,0.495697393415794,0.495697393415794,0.5,0.504302606584206,0.525266597952851,0.514672524955818,0.485327475044182,0.521145956834858,0.491431811678424,0.284119338143625,0.760445151291823,0.478854043165142,0.00412064111799238,0.5,0.00860521316841278,1.07857131373083,14.517244537214,2.7133370637625,0.5,78.5455769104602
CBC_1139,CBC_1139_MSI_AV_v3_Vset2_Aset3_2024-07-08_16h12.35.623.csv,1,32,3,1,b,1,0,2,aud,D,27,1,3D,1D,1,0,b,2.08137899999929,1,0,1,1,3D,1D,D31,3.85014760171006,0.508568188321576,0.483010451059076,0.491431811678424,0.5,0.491431811678424,0.525266597952851,0.5,0.5,0.495697393415794,0.5,0.521145956834858,0.495697393415794,0.495697393415794,0.5,0.504302606584206,0.525266597952851,0.512321964844705,0.487678035155295,0.525266597952851,0.5,0.327248838477002,0.725012173174879,0.474733402047149,0.00408518212278153,0.5,0.00860521316841278,1.07857131373083,14.517244537214,2.7133370637625,0.5,78.5455769104602
CBC_1139,CBC_1139_MSI_AV_v3_Vset2_Aset3_2024-07-08_16h12.35.623.csv,1,33,3,2,z,0,1,0,aud,C,63,1,3C,2C,0,1,z,2.58584020000035,0,1,1,1,2C,3C,C32,2.77258872223978,0.508568188321576,0.483010451059076,0.491431811678424,0.5,0.491431811678424,0.525266597952851,0.5,0.5,0.495697393415794,0.5,0.521145956834858,0.495697393415794,0.495697393415794,0.5,0.504302606584206,0.529351780075632,0.512513512240008,0.487486487759992,0.521145956834858,0.495697393415794,0.230165635881947,0.728579335183569,0.478854043165142,0.00412064111799238,0.5,0.00860521316841278,1.07857131373083,14.517244537214,2.7133370637625,0.5,78.5455769104602
CBC_1139,CBC_1139_MSI_AV_v3_Vset2_Aset3_2024-07-08_16h12.35.623.csv,1,34,1,0,b,1,0,1,aud,B,63,1,1B,0B,1,0,b,3.05451459999949,1,0,1,1,1B,0B,B10,2.28238238567653,0.508568188321576,0.483010451059076,0.491431811678424,0.5,0.491431811678424,0.525266597952851,0.5,0.5,0.495697393415794,0.5,0.525266597952851,0.495697393415794,0.495697393415794,0.5,0.504302606584206,0.529351780075632,0.516639539294006,0.483360460705994,0.525266597952851,0.491431811678424,0.173511684587276,0.787444754042086,0.474733402047149,0.00408518212278153,0.5,0.00860521316841278,1.07857131373083,14.517244537214,2.7133370637625,0.5,78.5455769104602
CBC_1139,CBC_1139_MSI_AV_v3_Vset2_Aset3_2024-07-08_16h12.35.623.csv,1,35,0,1,b,1,0,3,aud,A,63,1,0A,1A,1,0,z,2.40198009999949,0,1,0,0,1A,0A,A01,2.52572864430826,0.508568188321576,0.483010451059076,0.491431811678424,0.5,0.491431811678424,0.529351780075632,0.5,0.5,0.495697393415794,0.5,0.525266597952851,0.495697393415794,0.495697393415794,0.5,0.504302606584206,0.529351780075632,0.487112601942261,0.512887398057739,0.483010451059076,0.508568188321576,0.0960178390468127,0.26544697666174,-0.483010451059076,-0.00415640789393456,0.5,0.00860521316841278,1.07857131373083,14.517244537214,2.7133370637625,0.5,78.5455769104602
CBC_1139,CBC_1139_MSI_AV_v3_Vset2_Aset3_2024-07-08_16h12.35.623.csv,1,36,1,2,z,0,1,0,aud,C,9,1,1C,2C,0,1,z,2.52792859999954,0,1,1,1,2C,1C,C12,3.93182563272433,0.508568188321576,0.478854043165142,0.491431811678424,0.5,0.491431811678424,0.529351780075632,0.5,0.5,0.495697393415794,0.5,0.525266597952851,0.495697393415794,0.495697393415794,0.5,0.504302606584206,0.529351780075632,0.512321964844705,0.487678035155295,0.525266597952851,0.5,0.239158781161691,0.726003282136256,0.474733402047149,0.00408518212278153,0.5,0.00860521316841278,1.07857131373083,14.517244537214,2.7133370637625,0.5,78.5455769104602
CBC_1139,CBC_1139_MSI_AV_v3_Vset2_Aset3_2024-07-08_16h12.35.623.csv,1,37,1,0,z,0,1,3,aud,A,63,1,1A,0A,0,1,z,2.71074529999987,0,1,1,1,0A,1A,A10,2.85263142991332,0.508568188321576,0.478854043165142,0.491431811678424,0.5,0.491431811678424,0.529351780075632,0.5,0.5,0.495697393415794,0.5,0.529351780075632,0.495697393415794,0.495697393415794,0.5,0.504302606584206,0.529351780075632,0.515046321729912,0.484953678270088,0.508568188321576,0.478854043165142,0.221164773540883,0.766178585445652,0.491431811678424,0.00422887549723213,0.5,0.00860521316841278,1.07857131373083,14.517244537214,2.7133370637625,0.5,78.5455769104602
CBC_1139,CBC_1139_MSI_AV_v3_Vset2_Aset3_2024-07-08_16h12.35.623.csv,1,38,3,1,b,1,0,2,aud,D,27,1,3D,1D,1,0,z,2.64801709999938,0,1,0,0,1D,3D,D31,3.27714473299218,0.512797063818808,0.478854043165142,0.491431811678424,0.5,0.491431811678424,0.529351780075632,0.5,0.5,0.495697393415794,0.5,0.529351780075632,0.495697393415794,0.495697393415794,0.5,0.504302606584206,0.529351780075632,0.485742590315686,0.514257409684314,0.5,0.529351780075632,0.0741473926223576,0.245078940540171,-0.5,-0.00430260658420639,0.5,0.00860521316841278,1.07857131373083,14.517244537214,2.7133370637625,0.5,78.5455769104602
CBC_1139,CBC_1139_MSI_AV_v3_Vset2_Aset3_2024-07-08_16h12.35.623.csv,1,39,0,1,z,0,1,1,aud,B,63,1,0B,1B,0,1,z,2.24627829999918,0,1,1,1,1B,0B,B01,3.29583686600433,0.512797063818808,0.478854043165142,0.491431811678424,0.5,0.491431811678424,0.529351780075632,0.5,0.5,0.495697393415794,0.5,0.529351780075632,0.495697393415794,0.495697393415794,0.495697393415794,0.504302606584206,0.529351780075632,0.518573950788163,0.481426049211837,0.529351780075632,0.491431811678424,0.340409361176481,0.81239270178799,0.470648219924368,0.00405002825978321,0.5,0.00860521316841278,1.07857131373083,14.517244537214,2.7133370637625,0.5,78.5455769104602
CBC_1139,CBC_1139_MSI_AV_v3_Vset2_Aset3_2024-07-08_16h12.35.623.csv,1,40,2,3,b,1,0,0,aud,C,63,0,2C,3C,0,1,b,2.43022920000021,1,0,1,0,2C,3C,C23,2.90872089656436,0.512797063818808,0.478854043165142,0.491431811678424,0.5,0.491431811678424,0.533401808335416,0.5,0.5,0.495697393415794,0.5,0.529351780075632,0.495697393415794,0.495697393415794,0.495697393415794,0.504302606584206,0.529351780075632,0.516415986437611,0.483584013562389,0.529351780075632,0.495697393415794,0.281940071579396,0.785090661813672,-0.529351780075632,-0.00455518490862958,0.5,0.00860521316841278,1.07857131373083,14.517244537214,2.7133370637625,0.5,78.5455769104602
CBC_1139,CBC_1139_MSI_AV_v3_Vset2_Aset3_2024-07-08_16h12.35.623.csv,1,41,2,0,z,0,1,3,aud,A,27,1,2A,0A,0,1,z,2.70004879999942,0,1,1,1,0A,2A,A20,3.3322045101752,0.512797063818808,0.478854043165142,0.491431811678424,0.5,0.491431811678424,0.533401808335416,0.5,0.5,0.495697393415794,0.5,0.524796595167003,0.495697393415794,0.495697393415794,0.495697393415794,0.504302606584206,0.529351780075632,0.510637640811615,0.489362359188385,0.512797063818808,0.491431811678424,0.202758949967228,0.699103739159861,0.487202936181192,0.00419248512211577,0.5,0.00860521316841278,1.07857131373083,14.517244537214,2.7133370637625,0.5,78.5455769104602
CBC_1139,CBC_1139_MSI_AV_v3_Vset2_Aset3_2024-07-08_16h12.35.623.csv,1,42,3,2,b,1,0,2,aud,D,63,1,3D,2D,1,0,b,2.1986124999994,1,0,1,1,3D,2D,D32,4.04305126783455,0.516989548940924,0.478854043165142,0.491431811678424,0.5,0.491431811678424,0.533401808335416,0.5,0.5,0.495697393415794,0.5,0.524796595167003,0.495697393415794,0.495697393415794,0.495697393415794,0.504302606584206,0.529351780075632,0.512116803166854,0.487883196833146,0.529351780075632,0.504302606584206,0.300281133972477,0.721349194856213,0.470648219924368,0.00405002825978321,0.5,0.00860521316841278,1.07857131373083,14.517244537214,2.7133370637625,0.5,78.5455769104602
CBC_1139,CBC_1139_MSI_AV_v3_Vset2_Aset3_2024-07-08_16h12.35.623.csv,1,43,3,1,z,0,1,1,aud,B,27,1,3B,1B,0,1,b,2.60161829999925,1,0,0,0,3B,1B,B31,3.36729582998647,0.516989548940924,0.478854043165142,0.491431811678424,0.5,0.491431811678424,0.533401808335416,0.5,0.5,0.495697393415794,0.5,0.524796595167003,0.495697393415794,0.495697393415794,0.495697393415794,0.504302606584206,0.533401808335416,0.483838905609611,0.516161094390389,0.5,0.533401808335416,0.0686971165247184,0.218618166048141,-0.5,-0.00430260658420639,0.5,0.00860521316841278,1.07857131373083,14.517244537214,2.7133370637625,0.5,78.5455769104602
CBC_1139,CBC_1139_MSI_AV_v3_Vset2_Aset3_2024-07-08_16h12.35.623.csv,1,44,2,3,b,1,0,0,aud,C,63,1,2C,3C,1,0,b,2.68590200000017,1,0,1,1,2C,3C,C23,2.69124308278583,0.516989548940924,0.478854043165142,0.491431811678424,0.5,0.491431811678424,0.533401808335416,0.5,0.495697393415794,0.495697393415794,0.5,0.524796595167003,0.495697393415794,0.495697393415794,0.495697393415794,0.504302606584206,0.533401808335416,0.514257409684314,0.485742590315686,0.524796595167003,0.495697393415794,0.221742947309186,0.754164712183647,0.475203404832997,0.0040892265969435,0.5,0.00860521316841278,1.07857131373083,14.517244537214,2.7133370637625,0.5,78.5455769104602
CBC_1139,CBC_1139_MSI_TV_v3_Vset1_Tset3_2024-07-08_17h11.14.330.csv,2,1,0,2,z,0,1,0,tac,C,27,1,0C,2C,0,1,z,1.57742469999994,0,1,1,1,2C,0C,C02,2.77258872223978,0.5,0.5,0.5,0.5,0.5,0.5,0.5,0.5,0.5,0.5,0.5,0.5,0.5,0.5,0.5,0.5,0.5,0.5,0.5,0.5,0.266285165638301,0.499509473332997,0.5,0.00773065785805183,0.5,0.0154613157161037,1.09159824480184,0.318641714619064,2.60959873171698,0.5,76.7958545518471
CBC_1139,CBC_1139_MSI_TV_v3_Vset1_Tset3_2024-07-08_17h11.14.330.csv,2,2,2,3,z,0,1,2,tac,D,63,1,2D,3D,0,1,b,2.65166800000134,1,0,0,0,2D,3D,D23,2.83321334405622,0.5,0.5,0.5,0.5,0.5,0.5,0.5,0.5,0.5,0.5,0.507730657858052,0.5,0.5,0.5,0.5,0.5,0.5,0.5,0.5,0.5,0.148812401712501,0.499718831339934,-0.5,-0.00773065785805183,0.5,0.0154613157161037,1.09159824480184,0.318641714619064,2.60959873171698,0.5,76.7958545518471
CBC_1139,CBC_1139_MSI_TV_v3_Vset1_Tset3_2024-07-08_17h11.14.330.csv,2,3,0,1,b,1,0,3,tac,A,63,1,0A,1A,1,0,z,2.36325170000146,0,1,0,0,1A,0A,A01,2.89037175789616,0.5,0.5,0.5,0.5,0.5,0.5,0.5,0.5,0.5,0.5,0.507730657858052,0.5,0.5,0.5,0.492269342141948,0.5,0.5,0.5,0.5,0.5,0.183149080198341,0.499793482511633,-0.5,-0.00773065785805183,0.5,0.0154613157161037,1.09159824480184,0.318641714619064,2.60959873171698,0.5,76.7958545518471
CBC_1139,CBC_1139_MSI_TV_v3_Vset1_Tset3_2024-07-08_17h11.14.330.csv,2,4,3,2,z,0,1,0,tac,C,63,1,3C,2C,0,1,z,2.50218089999998,0,1,1,1,2C,3C,C32,2.94443897916644,0.5,0.492269342141948,0.5,0.5,0.5,0.5,0.5,0.5,0.5,0.5,0.507730657858052,0.5,0.5,0.5,0.492269342141948,0.5,0.503835676625381,0.496164323374619,0.507730657858052,0.5,0.166152053799453,0.500910143062204,0.492269342141948,0.00761113171621531,0.5,0.0154613157161037,1.09159824480184,0.318641714619064,2.60959873171698,0.5,76.7958545518471
CBC_1139,CBC_1139_MSI_TV_v3_Vset1_Tset3_2024-07-08_17h11.14.330.csv,2,5,2,0,z,0,1,3,tac,A,27,1,2A,0A,0,1,z,1.8078016999998,0,1,1,1,0A,2A,A20,2.99573227355399,0.5,0.492269342141948,0.5,0.5,0.5,0.5,0.5,0.5,0.5,0.5,0.515341789574267,0.5,0.5,0.5,0.492269342141948,0.5,0.5,0.5,0.5,0.5,0.261830173305414,0.500463158324047,0.5,0.00773065785805183,0.5,0.0154613157161037,1.09159824480184,0.318641714619064,2.60959873171698,0.5,76.7958545518471
CBC_1139,CBC_1139_MSI_TV_v3_Vset1_Tset3_2024-07-08_17h11.14.330.csv,2,6,3,2,b,1,0,2,tac,D,63,1,3D,2D,1,0,b,2.58501899999919,1,0,1,1,3D,2D,D32,3.04452243772342,0.507730657858052,0.492269342141948,0.5,0.5,0.5,0.5,0.5,0.5,0.5,0.5,0.515341789574267,0.5,0.5,0.5,0.492269342141948,0.5,0.503895443268137,0.496104556731863,0.5,0.492269342141948,0.156588153422468,0.501121521762482,0.5,0.00773065785805183,0.5,0.0154613157161037,1.09159824480184,0.318641714619064,2.60959873171698,0.5,76.7958545518471
CBC_1139,CBC_1139_MSI_TV_v3_Vset1_Tset3_2024-07-08_17h11.14.330.csv,2,7,2,3,z,0,1,2,tac,D,63,1,2D,3D,0,1,b,2.63384979999955,1,0,0,0,2D,3D,D23,2.39789527279837,0.507730657858052,0.492269342141948,0.5,0.5,0.5,0.5,0.5,0.5,0.5,0.5,0.515341789574267,0.5,0.5,0.5,0.492269342141948,0.507730657858052,0.492269342141948,0.507730657858052,0.492269342141948,0.507730657858052,0.149606081529947,0.49595667932702,-0.492269342141948,-0.00761113171621531,0.5,0.0154613157161037,1.09159824480184,0.318641714619064,2.60959873171698,0.5,76.7958545518471
CBC_1139,CBC_1139_MSI_TV_v3_Vset1_Tset3_2024-07-08_17h11.14.330.csv,2,8,1,3,b,1,0,1,tac,B,27,1,1B,3B,1,0,b,2.41457040000114,1,0,1,1,1B,3B,B13,3.13549421592915,0.507730657858052,0.492269342141948,0.5,0.5,0.5,0.5,0.5,0.5,0.5,0.5,0.515341789574267,0.5,0.5,0.5,0.484658210425733,0.507730657858052,0.5,0.5,0.5,0.5,0.176694629297271,0.500205477769788,0.5,0.00773065785805183,0.5,0.0154613157161037,1.09159824480184,0.318641714619064,2.60959873171698,0.5,76.7958545518471
CBC_1139,CBC_1139_MSI_TV_v3_Vset1_Tset3_2024-07-08_17h11.14.330.csv,2,9,3,0,b,1,0,2,tac,D,9,1,3D,0D,1,0,b,2.53577530000166,1,0,1,1,3D,0D,D30,3.17805383034795,0.507730657858052,0.492269342141948,0.5,0.5,0.5,0.507730657858052,0.5,0.5,0.5,0.5,0.515341789574267,0.5,0.5,0.5,0.484658210425733,0.507730657858052,0.503835676625381,0.496164323374619,0.507730657858052,0.5,0.162133840061856,0.500766649880635,0.492269342141948,0.00761113171621531,0.5,0.0154613157161037,1.09159824480184,0.318641714619064,2.60959873171698,0.5,76.7958545518471
CBC_1139,CBC_1139_MSI_TV_v3_Vset1_Tset3_2024-07-08_17h11.14.330.csv,2,10,0,1,z,0,1,1,tac,B,63,1,0B,1B,0,1,z,2.68759979999868,0,1,1,1,1B,0B,B01,3.2188758248682,0.507730657858052,0.492269342141948,0.5,0.5,0.5,0.507730657858052,0.5,0.5,0.5,0.5,0.515341789574267,0.5,0.5,0.5,0.484658210425733,0.515341789574267,0.503835676625381,0.496164323374619,0.507730657858052,0.5,0.145860443653106,0.50269293436716,0.492269342141948,0.00761113171621531,0.5,0.0154613157161037,1.09159824480184,0.318641714619064,2.60959873171698,0.5,76.7958545518471
CBC_1139,CBC_1139_MSI_TV_v3_Vset1_Tset3_2024-07-08_17h11.14.330.csv,2,11,0,1,b,1,0,3,tac,A,63,1,0A,1A,1,0,b,2.38939529999971,1,0,1,1,0A,1A,A01,2.56494935746154,0.507730657858052,0.492269342141948,0.5,0.5,0.5,0.515341789574267,0.5,0.5,0.5,0.5,0.515341789574267,0.5,0.5,0.5,0.484658210425733,0.515341789574267,0.507730657858052,0.492269342141948,0.507730657858052,0.492269342141948,0.180991201405725,0.503214763398117,0.492269342141948,0.00761113171621531,0.5,0.0154613157161037,1.09159824480184,0.318641714619064,2.60959873171698,0.5,76.7958545518471
CBC_1139,CBC_1139_MSI_TV_v3_Vset1_Tset3_2024-07-08_17h11.14.330.csv,2,12,1,0,b,1,0,1,tac,B,63,1,1B,0B,1,0,b,2.47578359999989,1,0,1,1,1B,0B,B10,3.29583686600433,0.515341789574267,0.492269342141948,0.5,0.5,0.5,0.515341789574267,0.5,0.5,0.5,0.5,0.515341789574267,0.5,0.5,0.5,0.484658210425733,0.515341789574267,0.507554987754764,0.492445012245236,0.515341789574267,0.5,0.169858032522243,0.502449613130358,0.484658210425733,0.00749345360579405,0.5,0.0154613157161037,1.09159824480184,0.318641714619064,2.60959873171698,0.5,76.7958545518471
CBC_1139,CBC_1139_MSI_TV_v3_Vset1_Tset3_2024-07-08_17h11.14.330.csv,2,13,3,2,b,1,0,2,tac,D,63,1,3D,2D,1,0,z,2.35576590000073,0,1,0,0,2D,3D,D32,2.63905732961526,0.515341789574267,0.492269342141948,0.5,0.5,0.5,0.522835243180061,0.5,0.5,0.5,0.5,0.515341789574267,0.5,0.5,0.5,0.484658210425733,0.515341789574267,0.484658210425733,0.515341789574267,0.484658210425733,0.515341789574267,0.181344497557957,0.492217733838202,-0.484658210425733,-0.00749345360579405,0.5,0.0154613157161037,1.09159824480184,0.318641714619064,2.60959873171698,0.5,76.7958545518471
CBC_1139,CBC_1139_MSI_TV_v3_Vset1_Tset3_2024-07-08_17h11.14.330.csv,2,14,3,1,z,0,1,1,tac,B,27,1,3B,1B,0,1,b,2.46321889999945,1,0,0,0,3B,1B,B31,3.36729582998647,0.515341789574267,0.492269342141948,0.5,0.5,0.5,0.522835243180061,0.5,0.5,0.5,0.5,0.515341789574267,0.5,0.5,0.5,0.477164756819939,0.515341789574267,0.488837281794737,0.511162718205263,0.5,0.522835243180061,0.168599075364768,0.494236762864715,-0.5,-0.00773065785805183,0.5,0.0154613157161037,1.09159824480184,0.318641714619064,2.60959873171698,0.5,76.7958545518471
CBC_1139,CBC_1139_MSI_TV_v3_Vset1_Tset3_2024-07-08_17h11.14.330.csv,2,15,2,3,b,1,0,0,tac,C,63,1,2C,3C,1,0,z,3.36531799999921,0,1,0,0,3C,2C,C23,3.40119738166216,0.515341789574267,0.492269342141948,0.5,0.5,0.5,0.522835243180061,0.5,0.492269342141948,0.5,0.5,0.515341789574267,0.5,0.5,0.5,0.477164756819939,0.515341789574267,0.492445012245236,0.507554987754764,0.5,0.515341789574267,0.0883487343179203,0.497425629792245,-0.5,-0.00773065785805183,0.5,0.0154613157161037,1.09159824480184,0.318641714619064,2.60959873171698,0.5,76.7958545518471
CBC_1139,CBC_1139_MSI_TV_v3_Vset1_Tset3_2024-07-08_17h11.14.330.csv,2,16,0,2,z,0,1,0,tac,C,27,1,0C,2C,0,1,z,2.63322430000062,0,1,1,1,2C,0C,C02,2.7408400239252,0.515341789574267,0.492269342141948,0.5,0.5,0.5,0.522835243180061,0.5,0.492269342141948,0.5,0.5,0.515341789574267,0.492269342141948,0.5,0.5,0.477164756819939,0.515341789574267,0.507554987754764,0.492445012245236,0.515341789574267,0.5,0.151759561711344,0.502869146921687,0.484658210425733,0.00749345360579405,0.5,0.0154613157161037,1.09159824480184,0.318641714619064,2.60959873171698,0.5,76.7958545518471
CBC_1139,CBC_1139_MSI_TV_v3_Vset1_Tset3_2024-07-08_17h11.14.330.csv,2,17,3,0,z,0,1,3,tac,A,9,1,3A,0A,0,1,b,3.10635570000068,1,0,0,0,3A,0A,A30,3.46573590279973,0.515341789574267,0.492269342141948,0.5,0.5,0.5,0.522835243180061,0.5,0.492269342141948,0.5,0.5,0.522835243180061,0.492269342141948,0.5,0.5,0.477164756819939,0.515341789574267,0.492445012245236,0.507554987754764,0.5,0.515341789574267,0.106543070298562,0.497237189875784,-0.5,-0.00773065785805183,0.5,0.0154613157161037,1.09159824480184,0.318641714619064,2.60959873171698,0.5,76.7958545518471
CBC_1139,CBC_1139_MSI_TV_v3_Vset1_Tset3_2024-07-08_17h11.14.330.csv,2,18,3,2,z,0,1,0,tac,C,63,0,3C,2C,1,0,z,2.65761669999938,0,1,1,0,2C,3C,C32,2.80336038090653,0.515341789574267,0.492269342141948,0.5,0.492269342141948,0.5,0.522835243180061,0.5,0.492269342141948,0.5,0.5,0.522835243180061,0.492269342141948,0.5,0.5,0.477164756819939,0.515341789574267,0.515055542788439,0.484944457211561,0.522835243180061,0.492269342141948,0.150021082980548,0.50594500378879,-0.522835243180061,-0.00808372076231275,0.5,0.0154613157161037,1.09159824480184,0.318641714619064,2.60959873171698,0.5,76.7958545518471
CBC_1139,CBC_1139_MSI_TV_v3_Vset1_Tset3_2024-07-08_17h11.14.330.csv,2,19,0,1,b,1,0,3,tac,A,63,1,0A,1A,1,0,z,2.41362690000005,0,1,0,0,1A,0A,A01,2.42774823594805,0.515341789574267,0.492269342141948,0.5,0.492269342141948,0.5,0.522835243180061,0.5,0.492269342141948,0.5,0.5,0.514751522417748,0.492269342141948,0.5,0.5,0.477164756819939,0.515341789574267,0.488550916764377,0.511449083235623,0.492269342141948,0.515341789574267,0.175493457569207,0.496466585985768,-0.492269342141948,-0.00761113171621531,0.5,0.0154613157161037,1.09159824480184,0.318641714619064,2.60959873171698,0.5,76.7958545518471
CBC_1139,CBC_1139_MSI_TV_v3_Vset1_Tset3_2024-07-08_17h11.14.330.csv,2,20,2,3,z,0,1,2,tac,D,63,1,2D,3D,0,1,b,2.3788942000001,1,0,0,0,2D,3D,D23,2.4567357728213,0.515341789574267,0.484658210425733,0.5,0.492269342141948,0.5,0.522835243180061,0.5,0.492269342141948,0.5,0.5,0.514751522417748,0.492269342141948,0.5,0.5,0.477164756819939,0.515341789574267,0.48076736476297,0.51923263523703,0.477164756819939,0.515341789574267,0.178847221908473,0.493526924761563,-0.477164756819939,-0.0073775949537909,0.5,0.0154613157161037,1.09159824480184,0.318641714619064,2.60959873171698,0.5,76.7958545518471
CBC_1139,CBC_1139_MSI_TV_v3_Vset1_Tset3_2024-07-08_17h11.14.330.csv,2,21,2,3,b,1,0,0,tac,C,63,1,2C,3C,1,0,b,2.84381739999935,1,0,1,1,2C,3C,C23,2.89037175789616,0.515341789574267,0.484658210425733,0.5,0.492269342141948,0.5,0.522835243180061,0.5,0.492269342141948,0.5,0.5,0.514751522417748,0.492269342141948,0.5,0.5,0.469787161866148,0.515341789574267,0.511162718205263,0.488837281794737,0.514751522417748,0.492269342141948,0.130752269131881,0.504549468350634,0.485248477582252,0.00750257991265784,0.5,0.0154613157161037,1.09159824480184,0.318641714619064,2.60959873171698,0.5,76.7958545518471
CBC_1139,CBC_1139_MSI_TV_v3_Vset1_Tset3_2024-07-08_17h11.14.330.csv,2,22,1,3,z,0,1,2,tac,D,27,1,1D,3D,0,1,z,2.34079750000001,0,1,1,1,3D,1D,D13,3.61091791264422,0.515341789574267,0.484658210425733,0.5,0.492269342141948,0.5,0.522835243180061,0.5,0.492269342141948,0.5,0.5,0.522254102330406,0.492269342141948,0.5,0.5,0.469787161866148,0.515341789574267,0.507554987754764,0.492445012245236,0.515341789574267,0.5,0.187344271113548,0.503120047004267,0.484658210425733,0.00749345360579405,0.5,0.0154613157161037,1.09159824480184,0.318641714619064,2.60959873171698,0.5,76.7958545518471
CBC_1139,CBC_1139_MSI_TV_v3_Vset1_Tset3_2024-07-08_17h11.14.330.csv,2,23,1,0,z,0,1,3,tac,A,63,1,1A,0A,0,1,z,2.29138450000119,0,1,1,1,0A,1A,A10,3.63758615972639,0.515341789574267,0.484658210425733,0.5,0.492269342141948,0.5,0.522835243180061,0.5,0.492269342141948,0.5,0.5,0.522254102330406,0.492269342141948,0.5,0.5,0.469787161866148,0.522835243180061,0.515341789574267,0.484658210425733,0.515341789574267,0.484658210425733,0.195569099816279,0.507084600259651,0.484658210425733,0.00749345360579405,0.5,0.0154613157161037,1.09159824480184,0.318641714619064,2.60959873171698,0.5,76.7958545518471
CBC_1139,CBC_1139_MSI_TV_v3_Vset1_Tset3_2024-07-08_17h11.14.330.csv,2,24,2,3,b,1,0,0,tac,C,63,1,2C,3C,1,0,b,2.86647209999956,1,0,1,1,2C,3C,C23,2.56494935746154,0.522835243180061,0.484658210425733,0.5,0.492269342141948,0.5,0.522835243180061,0.5,0.492269342141948,0.5,0.5,0.522254102330406,0.492269342141948,0.5,0.5,0.469787161866148,0.522835243180061,0.514777756173024,0.485222243826976,0.522254102330406,0.492269342141948,0.129164551632336,0.506666691270396,0.477745897669594,0.00738658015594294,0.5,0.0154613157161037,1.09159824480184,0.318641714619064,2.60959873171698,0.5,76.7958545518471
CBC_1139,CBC_1139_MSI_TV_v3_Vset1_Tset3_2024-07-08_17h11.14.330.csv,2,25,2,0,z,0,1,3,tac,A,27,1,2A,0A,0,1,b,2.39816829999927,1,0,0,0,2A,0A,A20,2.99573227355399,0.522835243180061,0.484658210425733,0.5,0.492269342141948,0.5,0.522835243180061,0.5,0.492269342141948,0.5,0.5,0.529640682486349,0.492269342141948,0.5,0.5,0.469787161866148,0.522835243180061,0.488837281794737,0.511162718205263,0.5,0.522835243180061,0.177019759466386,0.495269105647187,-0.5,-0.00773065785805183,0.5,0.0154613157161037,1.09159824480184,0.318641714619064,2.60959873171698,0.5,76.7958545518471
CBC_1139,CBC_1139_MSI_TV_v3_Vset1_Tset3_2024-07-08_17h11.14.330.csv,2,26,0,1,z,0,1,1,tac,B,63,1,0B,1B,0,1,z,2.57253729999957,0,1,1,1,1B,0B,B01,3.02042488614436,0.522835243180061,0.484658210425733,0.492269342141948,0.492269342141948,0.5,0.522835243180061,0.5,0.492269342141948,0.5,0.5,0.529640682486349,0.492269342141948,0.5,0.5,0.469787161866148,0.522835243180061,0.511162718205263,0.488837281794737,0.522835243180061,0.5,0.158962695496537,0.504157779586665,0.477164756819939,0.0073775949537909,0.5,0.0154613157161037,1.09159824480184,0.318641714619064,2.60959873171698,0.5,76.7958545518471
CBC_1139,CBC_1139_MSI_TV_v3_Vset1_Tset3_2024-07-08_17h11.14.330.csv,2,27,1,0,b,1,0,1,tac,B,63,1,1B,0B,1,0,z,2.61317040000085,0,1,0,0,0B,1B,B10,3.04452243772342,0.522835243180061,0.484658210425733,0.492269342141948,0.492269342141948,0.5,0.530212838133852,0.5,0.492269342141948,0.5,0.5,0.529640682486349,0.492269342141948,0.5,0.5,0.469787161866148,0.522835243180061,0.485336603750454,0.514663396249546,0.5,0.530212838133852,0.151415461068275,0.494512257960681,-0.5,-0.00773065785805183,0.5,0.0154613157161037,1.09159824480184,0.318641714619064,2.60959873171698,0.5,76.7958545518471
CBC_1139,CBC_1139_MSI_TV_v3_Vset1_Tset3_2024-07-08_17h11.14.330.csv,2,28,2,3,b,1,0,0,tac,C,63,1,2C,3C,1,0,b,2.5649411000004,1,0,1,1,2C,3C,C23,2.37490575457367,0.522835243180061,0.484658210425733,0.492269342141948,0.492269342141948,0.492269342141948,0.530212838133852,0.5,0.492269342141948,0.5,0.5,0.529640682486349,0.492269342141948,0.5,0.5,0.469787161866148,0.522835243180061,0.518285044399087,0.481714955600913,0.529640682486349,0.492269342141948,0.161126673162573,0.508221619035504,0.470359317513651,0.0072723739080896,0.5,0.0154613157161037,1.09159824480184,0.318641714619064,2.60959873171698,0.5,76.7958545518471
CBC_1139,CBC_1139_MSI_TV_v3_Vset1_Tset3_2024-07-08_17h11.14.330.csv,2,29,1,3,z,0,1,2,tac,D,27,1,1D,3D,0,1,b,2.46255990000009,1,0,0,0,1D,3D,D13,3.09104245335832,0.522835243180061,0.484658210425733,0.492269342141948,0.492269342141948,0.492269342141948,0.530212838133852,0.5,0.492269342141948,0.5,0.5,0.536913056394439,0.492269342141948,0.5,0.5,0.469787161866148,0.522835243180061,0.488837281794737,0.511162718205263,0.5,0.522835243180061,0.168966863822646,0.495082167111121,-0.5,-0.00773065785805183,0.5,0.0154613157161037,1.09159824480184,0.318641714619064,2.60959873171698,0.5,76.7958545518471
CBC_1139,CBC_1139_MSI_TV_v3_Vset1_Tset3_2024-07-08_17h11.14.330.csv,2,30,2,1,b,1,0,0,tac,C,9,1,2C,1C,1,0,b,2.6915756999997,1,0,1,1,2C,1C,C21,3.80666248977032,0.522835243180061,0.484658210425733,0.492269342141948,0.492269342141948,0.492269342141948,0.530212838133852,0.5,0.492269342141948,0.5,0.5,0.536913056394439,0.492269342141948,0.5,0.492269342141948,0.469787161866148,0.522835243180061,0.517799494454623,0.482200505545377,0.536913056394439,0.5,0.146736115634596,0.507163950732839,0.463086943605561,0.00715993343909107,0.5,0.0154613157161037,1.09159824480184,0.318641714619064,2.60959873171698,0.5,76.7958545518471
CBC_1139,CBC_1139_MSI_TV_v3_Vset1_Tset3_2024-07-08_17h11.14.330.csv,2,31,1,3,b,1,0,1,tac,B,27,1,1B,3B,1,0,z,2.37215410000044,0,1,0,0,3B,1B,B13,3.13549421592915,0.522835243180061,0.484658210425733,0.492269342141948,0.492269342141948,0.492269342141948,0.530212838133852,0.5,0.492269342141948,0.5,0.5,0.54407298983353,0.492269342141948,0.5,0.492269342141948,0.469787161866148,0.522835243180061,0.481445399869136,0.518554600130864,0.492269342141948,0.530212838133852,0.179419049070496,0.492723622071303,-0.492269342141948,-0.00761113171621531,0.5,0.0154613157161037,1.09159824480184,0.318641714619064,2.60959873171698,0.5,76.7958545518471
CBC_1139,CBC_1139_MSI_TV_v3_Vset1_Tset3_2024-07-08_17h11.14.330.csv,2,32,2,3,z,0,1,2,tac,D,63,1,2D,3D,0,1,z,2.41447620000054,0,1,1,1,3D,2D,D23,2.46385324059017,0.522835243180061,0.484658210425733,0.492269342141948,0.492269342141948,0.492269342141948,0.530212838133852,0.5,0.484658210425733,0.5,0.5,0.54407298983353,0.492269342141948,0.5,0.492269342141948,0.469787161866148,0.522835243180061,0.526721178690019,0.473278821309981,0.522835243180061,0.469787161866148,0.180423407492869,0.510700748038838,0.477164756819939,0.0073775949537909,0.5,0.0154613157161037,1.09159824480184,0.318641714619064,2.60959873171698,0.5,76.7958545518471
CBC_1139,CBC_1139_MSI_TV_v3_Vset1_Tset3_2024-07-08_17h11.14.330.csv,2,33,1,0,b,1,0,1,tac,B,63,1,1B,0B,1,0,z,2.41228640000099,0,1,0,0,0B,1B,B10,2.77258872223978,0.522835243180061,0.484658210425733,0.492269342141948,0.492269342141948,0.492269342141948,0.530212838133852,0.5,0.484658210425733,0.5,0.5,0.54407298983353,0.492269342141948,0.5,0.492269342141948,0.469787161866148,0.530212838133852,0.481445399869136,0.518554600130864,0.492269342141948,0.530212838133852,0.17373127213986,0.490994506484978,-0.492269342141948,-0.00761113171621531,0.5,0.0154613157161037,1.09159824480184,0.318641714619064,2.60959873171698,0.5,76.7958545518471
CBC_1139,CBC_1139_MSI_TV_v3_Vset1_Tset3_2024-07-08_17h11.14.330.csv,2,34,0,1,b,1,0,3,tac,A,63,0,0A,1A,0,1,z,2.34414709999965,0,1,0,1,1A,0A,A01,2.50552593699074,0.522835243180061,0.484658210425733,0.492269342141948,0.492269342141948,0.484658210425733,0.530212838133852,0.5,0.484658210425733,0.5,0.5,0.54407298983353,0.492269342141948,0.5,0.492269342141948,0.469787161866148,0.530212838133852,0.481053458651422,0.518946541348578,0.484658210425733,0.522835243180061,0.182910236220265,0.492373053988565,0.515341789574267,0.0079678621103096,0.5,0.0154613157161037,1.09159824480184,0.318641714619064,2.60959873171698,0.5,76.7958545518471
CBC_1139,CBC_1139_MSI_TV_v3_Vset1_Tset3_2024-07-08_17h11.14.330.csv,2,35,3,2,z,0,1,0,tac,C,63,1,3C,2C,0,1,z,2.63795050000135,0,1,1,1,2C,3C,C32,2.81341071676004,0.522835243180061,0.492626072536042,0.492269342141948,0.492269342141948,0.484658210425733,0.530212838133852,0.5,0.484658210425733,0.5,0.5,0.54407298983353,0.492269342141948,0.5,0.492269342141948,0.469787161866148,0.530212838133852,0.524993501709437,0.475006498290563,0.54407298983353,0.492269342141948,0.153689289505134,0.510994610802595,0.45592701016647,0.007049231447683,0.5,0.0154613157161037,1.09159824480184,0.318641714619064,2.60959873171698,0.5,76.7958545518471
CBC_1139,CBC_1139_MSI_TV_v3_Vset1_Tset3_2024-07-08_17h11.14.330.csv,2,36,2,0,z,0,1,3,tac,A,27,1,2A,0A,0,1,z,2.30503910000061,0,1,1,1,0A,2A,A20,2.83321334405622,0.522835243180061,0.492626072536042,0.492269342141948,0.492269342141948,0.484658210425733,0.530212838133852,0.5,0.484658210425733,0.5,0.5,0.551122221281213,0.492269342141948,0.5,0.492269342141948,0.469787161866148,0.530212838133852,0.515055542788439,0.484944457211561,0.522835243180061,0.492269342141948,0.193332127930373,0.506162540136724,0.477164756819939,0.0073775949537909,0.5,0.0154613157161037,1.09159824480184,0.318641714619064,2.60959873171698,0.5,76.7958545518471
CBC_1139,CBC_1139_MSI_TV_v3_Vset1_Tset3_2024-07-08_17h11.14.330.csv,2,37,1,0,b,1,0,1,tac,B,63,1,1B,0B,1,0,b,2.41859079999904,1,0,1,1,1B,0B,B10,2.56494935746154,0.530212838133852,0.492626072536042,0.492269342141948,0.492269342141948,0.484658210425733,0.530212838133852,0.5,0.484658210425733,0.5,0.5,0.551122221281213,0.492269342141948,0.5,0.492269342141948,0.469787161866148,0.530212838133852,0.522443554662819,0.477556445337181,0.530212838133852,0.484658210425733,0.17945194187764,0.509456781853383,0.469787161866148,0.0072635276289848,0.5,0.0154613157161037,1.09159824480184,0.318641714619064,2.60959873171698,0.5,76.7958545518471
CBC_1139,CBC_1139_MSI_TV_v3_Vset1_Tset3_2024-07-08_17h11.14.330.csv,2,38,3,2,b,1,0,2,tac,D,63,1,3D,2D,1,0,z,2.48385609999877,0,1,0,0,2D,3D,D32,2.87167962488401,0.530212838133852,0.492626072536042,0.492269342141948,0.492269342141948,0.484658210425733,0.537476365762837,0.5,0.484658210425733,0.5,0.5,0.551122221281213,0.492269342141948,0.5,0.492269342141948,0.469787161866148,0.530212838133852,0.469787161866148,0.530212838133852,0.469787161866148,0.530212838133852,0.163524781847954,0.486500276189317,-0.469787161866148,-0.0072635276289848,0.5,0.0154613157161037,1.09159824480184,0.318641714619064,2.60959873171698,0.5,76.7958545518471
CBC_1139,CBC_1139_MSI_TV_v3_Vset1_Tset3_2024-07-08_17h11.14.330.csv,2,39,2,1,z,0,1,1,tac,B,9,1,2B,1B,0,1,b,2.52554380000129,1,0,0,0,2B,1B,B21,3.98898404656427,0.530212838133852,0.492626072536042,0.492269342141948,0.492269342141948,0.484658210425733,0.537476365762837,0.5,0.484658210425733,0.5,0.5,0.551122221281213,0.492269342141948,0.5,0.492269342141948,0.462523634237163,0.530212838133852,0.481938689400755,0.518061310599245,0.5,0.537476365762837,0.160809477156809,0.493020832248707,-0.5,-0.00773065785805183,0.5,0.0154613157161037,1.09159824480184,0.318641714619064,2.60959873171698,0.5,76.7958545518471
CBC_1139,CBC_1139_MSI_TV_v3_Vset1_Tset3_2024-07-08_17h11.14.330.csv,2,40,3,1,b,1,0,2,tac,D,27,1,3D,1D,1,0,z,2.35097749999932,0,1,0,0,1D,3D,D31,4.00733318523247,0.530212838133852,0.492626072536042,0.492269342141948,0.492269342141948,0.484658210425733,0.537476365762837,0.492269342141948,0.484658210425733,0.5,0.5,0.551122221281213,0.492269342141948,0.5,0.492269342141948,0.462523634237163,0.530212838133852,0.481445399869136,0.518554600130864,0.492269342141948,0.530212838133852,0.181328827659174,0.490489829491157,-0.492269342141948,-0.00761113171621531,0.5,0.0154613157161037,1.09159824480184,0.318641714619064,2.60959873171698,0.5,76.7958545518471
CBC_1139,CBC_1139_MSI_TV_v3_Vset1_Tset3_2024-07-08_17h11.14.330.csv,2,41,0,1,b,1,0,3,tac,A,63,1,0A,1A,1,0,z,2.56858469999952,0,1,0,0,1A,0A,A01,2.41591377830105,0.530212838133852,0.492626072536042,0.492269342141948,0.492269342141948,0.484658210425733,0.537476365762837,0.492269342141948,0.484658210425733,0.5,0.5,0.551122221281213,0.492269342141948,0.5,0.484658210425733,0.462523634237163,0.530212838133852,0.481626253554828,0.518373746445172,0.492626072536042,0.530212838133852,0.155818521328344,0.492774261249776,-0.492626072536042,-0.00761664723746393,0.5,0.0154613157161037,1.09159824480184,0.318641714619064,2.60959873171698,0.5,76.7958545518471
CBC_1139,CBC_1139_MSI_TV_v3_Vset1_Tset3_2024-07-08_17h11.14.330.csv,2,42,1,0,z,0,1,3,tac,A,63,1,1A,0A,0,1,z,2.3413429000002,0,1,1,1,0A,1A,A10,3.3499040872746,0.530212838133852,0.485009425298579,0.492269342141948,0.492269342141948,0.484658210425733,0.537476365762837,0.492269342141948,0.484658210425733,0.5,0.5,0.551122221281213,0.492269342141948,0.5,0.484658210425733,0.462523634237163,0.530212838133852,0.522262815968221,0.477737184031779,0.530212838133852,0.485009425298579,0.189738179043696,0.509723942002319,0.469787161866148,0.0072635276289848,0.5,0.0154613157161037,1.09159824480184,0.318641714619064,2.60959873171698,0.5,76.7958545518471
CBC_1139,CBC_1139_MSI_TV_v3_Vset1_Tset3_2024-07-08_17h11.14.330.csv,2,43,0,2,z,0,1,0,tac,C,27,1,0C,2C,0,1,z,2.90277400000105,0,1,1,1,2C,0C,C02,2.96183072187831,0.537476365762837,0.485009425298579,0.492269342141948,0.492269342141948,0.484658210425733,0.537476365762837,0.492269342141948,0.484658210425733,0.5,0.5,0.551122221281213,0.492269342141948,0.5,0.484658210425733,0.462523634237163,0.530212838133852,0.524317924331815,0.475682075668184,0.551122221281213,0.5,0.126608627302607,0.50987314996332,0.448877778718787,0.00694024105471448,0.5,0.0154613157161037,1.09159824480184,0.318641714619064,2.60959873171698,0.5,76.7958545518471
CBC_1139,CBC_1139_MSI_TV_v3_Vset1_Tset3_2024-07-08_17h11.14.330.csv,2,44,1,0,b,1,0,1,tac,B,63,1,1B,0B,1,0,z,2.28531670000029,0,1,0,0,0B,1B,B10,2.46809953147162,0.537476365762837,0.485009425298579,0.492269342141948,0.492269342141948,0.484658210425733,0.537476365762837,0.492269342141948,0.484658210425733,0.5,0.5,0.558062462335927,0.492269342141948,0.5,0.484658210425733,0.462523634237163,0.530212838133852,0.474162817417812,0.525837182582189,0.484658210425733,0.537476365762837,0.189466061012503,0.489135147321903,-0.484658210425733,-0.00749345360579405,0.5,0.0154613157161037,1.09159824480184,0.318641714619064,2.60959873171698,0.5,76.7958545518471
