"ID";"trials_runs.thisN";"secondStim";"trials_runs.visual_stim_left";"trials_runs.visual_stim_right";"trials_runs.correctKey";"trials_runs.presentationFrequncy";"response_runs.keys";"response_runs.rt";"trials_runs.correct_answer";"trials_runs.feedback_given";"session";"tsDifficulty";"prob.Feedback";"totalAccuracy";"totalError";"outlier200ms";"outlierSD";"omission";"validTrials";"modality";"stimType";"logfile"
"CBC_1001";"0";"1";"3";"1";"z";"27";"z";"2,51825639999970008";"1";"1";"1";"hard";"0,80";"1,000000000000000";"0,0000000000000000";"0";"0";"0";"1";"av";"env";"CBC_1001_MSI_AV_v3_Vset4_Aset2_2023-06-08_11h37.59.527.csv"
"CBC_1001";"1";"2";"2";"3";"b";"63";"z";"2,24184400000012829";"0";"0";"1";"hard";"0,80";"0,500000000000000";"0,5000000000000000";"0";"0";"0";"1";"av";"env";"CBC_1001_MSI_AV_v3_Vset4_Aset2_2023-06-08_11h37.59.527.csv"
"CBC_1001";"2";"3";"2";"3";"z";"63";"b";"2,57463349999989077";"0";"0";"1";"hard";"0,80";"0,333333333333333";"0,6666666666666667";"0";"0";"0";"1";"av";"env";"CBC_1001_MSI_AV_v3_Vset4_Aset2_2023-06-08_11h37.59.527.csv"
"CBC_1001";"3";"1";"1";"0";"b";"63";"b";"2,42206690000011804";"1";"0";"1";"hard";"0,80";"0,500000000000000";"0,5000000000000000";"0";"0";"0";"1";"av";"env";"CBC_1001_MSI_AV_v3_Vset4_Aset2_2023-06-08_11h37.59.527.csv"
"CBC_1001";"4";"0";"3";"0";"z";"9";"z";"3,39004290000002584";"1";"1";"1";"hard";"0,80";"0,600000000000000";"0,4000000000000000";"0";"0";"0";"1";"av";"env";"CBC_1001_MSI_AV_v3_Vset4_Aset2_2023-06-08_11h37.59.527.csv"
"CBC_1001";"5";"3";"2";"3";"z";"63";"None";NA;NA;"3";"1";"hard";"0,80";"0,600000000000000";"0,4000000000000000";NA;NA;"1";"0";"av";"env";"CBC_1001_MSI_AV_v3_Vset4_Aset2_2023-06-08_11h37.59.527.csv"
"CBC_1001";"6";"2";"2";"0";"b";"27";"b";"3,77247699999998076";"1";"1";"1";"hard";"0,80";"0,666666666666667";"0,3333333333333334";"0";"0";"0";"1";"av";"env";"CBC_1001_MSI_AV_v3_Vset4_Aset2_2023-06-08_11h37.59.527.csv"
"CBC_1001";"7";"0";"1";"0";"z";"63";"z";"2,78982200000018565";"1";"1";"1";"hard";"0,80";"0,714285714285714";"0,2857142857142857";"0";"0";"0";"1";"av";"env";"CBC_1001_MSI_AV_v3_Vset4_Aset2_2023-06-08_11h37.59.527.csv"
"CBC_1001";"8";"1";"0";"1";"z";"63";"z";"2,07255699999996068";"1";"1";"1";"hard";"0,80";"0,750000000000000";"0,2500000000000000";"0";"0";"0";"1";"av";"env";"CBC_1001_MSI_AV_v3_Vset4_Aset2_2023-06-08_11h37.59.527.csv"
"CBC_1001";"9";"3";"3";"1";"b";"27";"b";"2,58499330000040572";"1";"0";"1";"hard";"0,80";"0,777777777777778";"0,2222222222222222";"0";"0";"0";"1";"av";"env";"CBC_1001_MSI_AV_v3_Vset4_Aset2_2023-06-08_11h37.59.527.csv"
"CBC_1001";"10";"2";"2";"3";"b";"63";"b";"1,78561600000011822";"1";"1";"1";"hard";"0,80";"0,800000000000000";"0,2000000000000000";"0";"0";"0";"1";"av";"env";"CBC_1001_MSI_AV_v3_Vset4_Aset2_2023-06-08_11h37.59.527.csv"
"CBC_1001";"11";"1";"0";"1";"z";"63";"z";"1,59718599999996513";"1";"1";"1";"hard";"0,80";"0,818181818181818";"0,1818181818181818";"0";"0";"0";"1";"av";"env";"CBC_1001_MSI_AV_v3_Vset4_Aset2_2023-06-08_11h37.59.527.csv"
"CBC_1001";"12";"0";"1";"0";"z";"63";"z";"1,70943140000008498";"1";"0";"1";"hard";"0,80";"0,833333333333333";"0,1666666666666666";"0";"0";"0";"1";"av";"env";"CBC_1001_MSI_AV_v3_Vset4_Aset2_2023-06-08_11h37.59.527.csv"
"CBC_1001";"13";"2";"2";"1";"b";"9";"z";"3,18978910000032556";"0";"0";"1";"hard";"0,80";"0,769230769230769";"0,2307692307692307";"0";"0";"0";"1";"av";"env";"CBC_1001_MSI_AV_v3_Vset4_Aset2_2023-06-08_11h37.59.527.csv"
"CBC_1001";"14";"0";"0";"1";"b";"63";"None";NA;NA;"3";"1";"hard";"0,80";"0,769230769230769";"0,2307692307692307";NA;NA;"1";"0";"av";"env";"CBC_1001_MSI_AV_v3_Vset4_Aset2_2023-06-08_11h37.59.527.csv"
"CBC_1001";"15";"3";"1";"3";"z";"27";"z";"2,58515670000042519";"1";"1";"1";"hard";"0,80";"0,785714285714286";"0,2142857142857143";"0";"0";"0";"1";"av";"env";"CBC_1001_MSI_AV_v3_Vset4_Aset2_2023-06-08_11h37.59.527.csv"
"CBC_1001";"16";"1";"1";"0";"b";"63";"b";"1,56869869999991352";"1";"1";"1";"hard";"0,80";"0,800000000000000";"0,2000000000000000";"0";"0";"0";"1";"av";"env";"CBC_1001_MSI_AV_v3_Vset4_Aset2_2023-06-08_11h37.59.527.csv"
"CBC_1001";"17";"2";"3";"2";"z";"63";"z";"3,12383599999975559";"1";"0";"1";"hard";"0,80";"0,812500000000000";"0,1875000000000000";"0";"0";"0";"1";"av";"env";"CBC_1001_MSI_AV_v3_Vset4_Aset2_2023-06-08_11h37.59.527.csv"
"CBC_1001";"18";"0";"0";"2";"b";"27";"b";"1,14921000000003914";"1";"1";"1";"hard";"0,80";"0,823529411764706";"0,1764705882352942";"0";"0";"0";"1";"av";"env";"CBC_1001_MSI_AV_v3_Vset4_Aset2_2023-06-08_11h37.59.527.csv"
"CBC_1001";"19";"3";"2";"3";"z";"63";"z";"2,32911330000024464";"1";"1";"1";"hard";"0,80";"0,833333333333333";"0,1666666666666666";"0";"0";"0";"1";"av";"env";"CBC_1001_MSI_AV_v3_Vset4_Aset2_2023-06-08_11h37.59.527.csv"
"CBC_1001";"20";"1";"1";"3";"b";"27";"b";"2,61349879999988843";"1";"1";"1";"hard";"0,80";"0,842105263157895";"0,1578947368421053";"0";"0";"0";"1";"av";"env";"CBC_1001_MSI_AV_v3_Vset4_Aset2_2023-06-08_11h37.59.527.csv"
"CBC_1001";"21";"2";"2";"3";"b";"63";"b";"2,32661290000032750";"1";"1";"1";"hard";"0,80";"0,850000000000000";"0,1500000000000000";"0";"0";"0";"1";"av";"env";"CBC_1001_MSI_AV_v3_Vset4_Aset2_2023-06-08_11h37.59.527.csv"
"CBC_1001";"22";"0";"1";"0";"z";"63";"z";"1,51755240000011327";"1";"0";"1";"hard";"0,80";"0,857142857142857";"0,1428571428571429";"0";"0";"0";"1";"av";"env";"CBC_1001_MSI_AV_v3_Vset4_Aset2_2023-06-08_11h37.59.527.csv"
"CBC_1001";"23";"1";"1";"2";"b";"9";"b";"1,58183529999996608";"1";"1";"1";"hard";"0,80";"0,863636363636364";"0,1363636363636364";"0";"0";"0";"1";"av";"env";"CBC_1001_MSI_AV_v3_Vset4_Aset2_2023-06-08_11h37.59.527.csv"
"CBC_1001";"24";"2";"3";"2";"z";"63";"z";"1,88420610000002853";"1";"1";"1";"hard";"0,80";"0,869565217391304";"0,1304347826086957";"0";"0";"0";"1";"av";"env";"CBC_1001_MSI_AV_v3_Vset4_Aset2_2023-06-08_11h37.59.527.csv"
"CBC_1001";"25";"3";"3";"2";"b";"63";"b";"2,44767640000009123";"1";"0";"1";"hard";"0,80";"0,875000000000000";"0,1250000000000000";"0";"0";"0";"1";"av";"env";"CBC_1001_MSI_AV_v3_Vset4_Aset2_2023-06-08_11h37.59.527.csv"
"CBC_1001";"26";"1";"1";"0";"b";"63";"b";"1,74692489999961253";"1";"1";"1";"hard";"0,80";"0,880000000000000";"0,1200000000000000";"0";"0";"0";"1";"av";"env";"CBC_1001_MSI_AV_v3_Vset4_Aset2_2023-06-08_11h37.59.527.csv"
"CBC_1001";"27";"0";"2";"0";"z";"27";"z";"1,51640159999988100";"1";"1";"1";"hard";"0,80";"0,884615384615385";"0,1153846153846154";"0";"0";"0";"1";"av";"env";"CBC_1001_MSI_AV_v3_Vset4_Aset2_2023-06-08_11h37.59.527.csv"
"CBC_1001";"28";"3";"3";"1";"b";"27";"z";"2,33447410000007949";"0";"0";"1";"hard";"0,80";"0,851851851851852";"0,1481481481481481";"0";"0";"0";"1";"av";"env";"CBC_1001_MSI_AV_v3_Vset4_Aset2_2023-06-08_11h37.59.527.csv"
"CBC_1001";"29";"0";"0";"1";"b";"63";"b";"1,47099959999968632";"1";"1";"1";"hard";"0,80";"0,857142857142857";"0,1428571428571429";"0";"0";"0";"1";"av";"env";"CBC_1001_MSI_AV_v3_Vset4_Aset2_2023-06-08_11h37.59.527.csv"
"CBC_1001";"30";"2";"0";"2";"z";"27";"z";"2,05611799999996947";"1";"1";"1";"hard";"0,80";"0,862068965517241";"0,1379310344827587";"0";"0";"0";"1";"av";"env";"CBC_1001_MSI_AV_v3_Vset4_Aset2_2023-06-08_11h37.59.527.csv"
"CBC_1001";"31";"3";"3";"2";"b";"63";"b";"1,89630200000010518";"1";"1";"1";"hard";"0,80";"0,866666666666667";"0,1333333333333333";"0";"0";"0";"1";"av";"env";"CBC_1001_MSI_AV_v3_Vset4_Aset2_2023-06-08_11h37.59.527.csv"
"CBC_1001";"32";"1";"0";"1";"z";"63";"z";"1,24876840000024458";"1";"1";"1";"hard";"0,80";"0,870967741935484";"0,1290322580645161";"0";"0";"0";"1";"av";"env";"CBC_1001_MSI_AV_v3_Vset4_Aset2_2023-06-08_11h37.59.527.csv"
"CBC_1001";"33";"0";"1";"0";"z";"63";"z";"1,34219860000030167";"1";"1";"1";"hard";"0,80";"0,875000000000000";"0,1250000000000000";"0";"0";"0";"1";"av";"env";"CBC_1001_MSI_AV_v3_Vset4_Aset2_2023-06-08_11h37.59.527.csv"
"CBC_1001";"34";"3";"3";"2";"b";"63";"b";"2,72871000000031927";"1";"0";"1";"hard";"0,80";"0,878787878787879";"0,1212121212121212";"0";"0";"0";"1";"av";"env";"CBC_1001_MSI_AV_v3_Vset4_Aset2_2023-06-08_11h37.59.527.csv"
"CBC_1001";"35";"2";"0";"2";"z";"27";"z";"1,89188760000024558";"1";"1";"1";"hard";"0,80";"0,882352941176471";"0,1176470588235294";"0";"0";"0";"1";"av";"env";"CBC_1001_MSI_AV_v3_Vset4_Aset2_2023-06-08_11h37.59.527.csv"
"CBC_1001";"36";"0";"1";"0";"z";"63";"z";"1,17191539999976158";"1";"1";"1";"hard";"0,80";"0,885714285714286";"0,1142857142857143";"0";"0";"0";"1";"av";"env";"CBC_1001_MSI_AV_v3_Vset4_Aset2_2023-06-08_11h37.59.527.csv"
"CBC_1001";"37";"1";"3";"1";"z";"27";"z";"1,44698119999975461";"1";"1";"1";"hard";"0,80";"0,888888888888889";"0,1111111111111112";"0";"0";"0";"1";"av";"env";"CBC_1001_MSI_AV_v3_Vset4_Aset2_2023-06-08_11h37.59.527.csv"
"CBC_1001";"38";"2";"2";"3";"b";"63";"b";"2,96182120000003124";"1";"0";"1";"hard";"0,80";"0,891891891891892";"0,1081081081081081";"0";"0";"0";"1";"av";"env";"CBC_1001_MSI_AV_v3_Vset4_Aset2_2023-06-08_11h37.59.527.csv"
"CBC_1001";"39";"3";"2";"3";"z";"63";"b";"2,35783190000029208";"0";"0";"1";"hard";"0,80";"0,868421052631579";"0,1315789473684210";"0";"0";"0";"1";"av";"env";"CBC_1001_MSI_AV_v3_Vset4_Aset2_2023-06-08_11h37.59.527.csv"
"CBC_1001";"40";"1";"1";"0";"b";"63";"b";"1,19339880000006815";"1";"1";"1";"hard";"0,80";"0,871794871794872";"0,1282051282051282";"0";"0";"0";"1";"av";"env";"CBC_1001_MSI_AV_v3_Vset4_Aset2_2023-06-08_11h37.59.527.csv"
"CBC_1001";"41";"0";"0";"2";"b";"27";"b";"1,40796890000001440";"1";"1";"1";"hard";"0,80";"0,875000000000000";"0,1250000000000000";"0";"0";"0";"1";"av";"env";"CBC_1001_MSI_AV_v3_Vset4_Aset2_2023-06-08_11h37.59.527.csv"
"CBC_1001";"42";"3";"0";"3";"z";"9";"z";"2,75495509999973365";"1";"1";"1";"hard";"0,80";"0,878048780487805";"0,1219512195121951";"0";"0";"0";"1";"av";"env";"CBC_1001_MSI_AV_v3_Vset4_Aset2_2023-06-08_11h37.59.527.csv"
"CBC_1001";"43";"2";"2";"3";"b";"63";"b";"2,48296149999987392";"1";"1";"1";"hard";"0,80";"0,880952380952381";"0,1190476190476191";"0";"0";"0";"1";"av";"env";"CBC_1001_MSI_AV_v3_Vset4_Aset2_2023-06-08_11h37.59.527.csv"
"CBC_1001";"0";"1";"1";"0";"b";"63";"b";"1,47302500000068903";"1";"1";"2";"hard";"0,90";"1,000000000000000";"0,0000000000000000";"0";"0";"0";"1";"tv";"vib";"CBC_1001_MSI_TV_v3_Vset1_Tset1_2023-06-08_11h53.34.814.csv"
"CBC_1001";"1";"0";"1";"0";"z";"63";"z";"1,61898499999961132";"1";"1";"2";"hard";"0,90";"1,000000000000000";"0,0000000000000000";"0";"0";"0";"1";"tv";"vib";"CBC_1001_MSI_TV_v3_Vset1_Tset1_2023-06-08_11h53.34.814.csv"
"CBC_1001";"2";"3";"3";"2";"b";"63";"z";"2,38288740000052712";"0";"0";"2";"hard";"0,90";"0,666666666666667";"0,3333333333333334";"0";"0";"0";"1";"tv";"vib";"CBC_1001_MSI_TV_v3_Vset1_Tset1_2023-06-08_11h53.34.814.csv"
"CBC_1001";"3";"1";"1";"2";"b";"9";"None";NA;NA;"3";"2";"hard";"0,90";"0,666666666666667";"0,3333333333333334";NA;NA;"1";"0";"tv";"vib";"CBC_1001_MSI_TV_v3_Vset1_Tset1_2023-06-08_11h53.34.814.csv"
"CBC_1001";"4";"0";"2";"0";"z";"27";"z";"2,56436939999957758";"1";"1";"2";"hard";"0,90";"0,750000000000000";"0,2500000000000000";"0";"0";"0";"1";"tv";"vib";"CBC_1001_MSI_TV_v3_Vset1_Tset1_2023-06-08_11h53.34.814.csv"
"CBC_1001";"5";"2";"3";"2";"z";"63";"b";"3,33090360000051078";"0";"0";"2";"hard";"0,90";"0,600000000000000";"0,4000000000000000";"0";"0";"0";"1";"tv";"vib";"CBC_1001_MSI_TV_v3_Vset1_Tset1_2023-06-08_11h53.34.814.csv"
"CBC_1001";"6";"3";"3";"1";"b";"27";"z";"2,33253970000032496";"0";"0";"2";"hard";"0,90";"0,500000000000000";"0,5000000000000000";"0";"0";"0";"1";"tv";"vib";"CBC_1001_MSI_TV_v3_Vset1_Tset1_2023-06-08_11h53.34.814.csv"
"CBC_1001";"7";"0";"0";"1";"b";"63";"b";"2,34114360000012312";"1";"1";"2";"hard";"0,90";"0,571428571428571";"0,4285714285714286";"0";"0";"0";"1";"tv";"vib";"CBC_1001_MSI_TV_v3_Vset1_Tset1_2023-06-08_11h53.34.814.csv"
"CBC_1001";"8";"2";"0";"2";"z";"27";"z";"3,41354110000020228";"1";"1";"2";"hard";"0,90";"0,625000000000000";"0,3750000000000000";"0";"0";"0";"1";"tv";"vib";"CBC_1001_MSI_TV_v3_Vset1_Tset1_2023-06-08_11h53.34.814.csv"
"CBC_1001";"9";"3";"3";"2";"b";"63";"b";"3,37501769999971657";"1";"1";"2";"hard";"0,90";"0,666666666666667";"0,3333333333333334";"0";"0";"0";"1";"tv";"vib";"CBC_1001_MSI_TV_v3_Vset1_Tset1_2023-06-08_11h53.34.814.csv"
"CBC_1001";"10";"1";"0";"1";"z";"63";"b";"3,06084520000013072";"0";"1";"2";"hard";"0,90";"0,600000000000000";"0,4000000000000000";"0";"0";"0";"1";"tv";"vib";"CBC_1001_MSI_TV_v3_Vset1_Tset1_2023-06-08_11h53.34.814.csv"
"CBC_1001";"11";"0";"1";"0";"z";"63";"b";"2,56565970000019661";"0";"0";"2";"hard";"0,90";"0,545454545454545";"0,4545454545454546";"0";"0";"0";"1";"tv";"vib";"CBC_1001_MSI_TV_v3_Vset1_Tset1_2023-06-08_11h53.34.814.csv"
"CBC_1001";"12";"3";"3";"2";"b";"63";"z";"2,95413549999966563";"0";"0";"2";"hard";"0,90";"0,500000000000000";"0,5000000000000000";"0";"0";"0";"1";"tv";"vib";"CBC_1001_MSI_TV_v3_Vset1_Tset1_2023-06-08_11h53.34.814.csv"
"CBC_1001";"13";"2";"0";"2";"z";"27";"b";"2,62160820000053718";"0";"0";"2";"hard";"0,90";"0,461538461538462";"0,5384615384615384";"0";"0";"0";"1";"tv";"vib";"CBC_1001_MSI_TV_v3_Vset1_Tset1_2023-06-08_11h53.34.814.csv"
"CBC_1001";"14";"0";"1";"0";"z";"63";"b";"2,59557020000056582";"0";"0";"2";"hard";"0,90";"0,428571428571429";"0,5714285714285714";"0";"0";"0";"1";"tv";"vib";"CBC_1001_MSI_TV_v3_Vset1_Tset1_2023-06-08_11h53.34.814.csv"
"CBC_1001";"15";"1";"3";"1";"z";"27";"z";"2,52995490000057544";"1";"1";"2";"hard";"0,90";"0,466666666666667";"0,5333333333333333";"0";"0";"0";"1";"tv";"vib";"CBC_1001_MSI_TV_v3_Vset1_Tset1_2023-06-08_11h53.34.814.csv"
"CBC_1001";"16";"2";"2";"3";"b";"63";"b";"2,93254720000049929";"1";"1";"2";"hard";"0,90";"0,500000000000000";"0,5000000000000000";"0";"0";"0";"1";"tv";"vib";"CBC_1001_MSI_TV_v3_Vset1_Tset1_2023-06-08_11h53.34.814.csv"
"CBC_1001";"17";"3";"3";"2";"b";"63";"None";NA;NA;"3";"2";"hard";"0,90";"0,500000000000000";"0,5000000000000000";NA;NA;"1";"0";"tv";"vib";"CBC_1001_MSI_TV_v3_Vset1_Tset1_2023-06-08_11h53.34.814.csv"
"CBC_1001";"18";"1";"0";"1";"z";"63";"z";"2,36990699999978460";"1";"1";"2";"hard";"0,90";"0,529411764705882";"0,4705882352941176";"0";"0";"0";"1";"tv";"vib";"CBC_1001_MSI_TV_v3_Vset1_Tset1_2023-06-08_11h53.34.814.csv"
"CBC_1001";"19";"0";"0";"2";"b";"27";"b";"2,46999420000020109";"1";"1";"2";"hard";"0,90";"0,555555555555556";"0,4444444444444444";"0";"0";"0";"1";"tv";"vib";"CBC_1001_MSI_TV_v3_Vset1_Tset1_2023-06-08_11h53.34.814.csv"
"CBC_1001";"20";"3";"3";"0";"b";"9";"b";"3,05295680000062930";"1";"1";"2";"hard";"0,90";"0,578947368421053";"0,4210526315789473";"0";"0";"0";"1";"tv";"vib";"CBC_1001_MSI_TV_v3_Vset1_Tset1_2023-06-08_11h53.34.814.csv"
"CBC_1001";"21";"2";"3";"2";"z";"63";"z";"2,24072060000025886";"1";"1";"2";"hard";"0,90";"0,600000000000000";"0,4000000000000000";"0";"0";"0";"1";"tv";"vib";"CBC_1001_MSI_TV_v3_Vset1_Tset1_2023-06-08_11h53.34.814.csv"
"CBC_1001";"22";"1";"1";"3";"b";"27";"b";"2,47497290000001158";"1";"1";"2";"hard";"0,90";"0,619047619047619";"0,3809523809523809";"0";"0";"0";"1";"tv";"vib";"CBC_1001_MSI_TV_v3_Vset1_Tset1_2023-06-08_11h53.34.814.csv"
"CBC_1001";"23";"2";"2";"3";"b";"63";"z";"2,54615030000013576";"0";"0";"2";"hard";"0,90";"0,590909090909091";"0,4090909090909091";"0";"0";"0";"1";"tv";"vib";"CBC_1001_MSI_TV_v3_Vset1_Tset1_2023-06-08_11h53.34.814.csv"
"CBC_1001";"24";"3";"3";"2";"b";"63";"b";"2,97116570000025604";"1";"1";"2";"hard";"0,90";"0,608695652173913";"0,3913043478260869";"0";"0";"0";"1";"tv";"vib";"CBC_1001_MSI_TV_v3_Vset1_Tset1_2023-06-08_11h53.34.814.csv"
"CBC_1001";"25";"1";"0";"1";"z";"63";"b";"2,71671500000002197";"0";"0";"2";"hard";"0,90";"0,583333333333333";"0,4166666666666666";"0";"0";"0";"1";"tv";"vib";"CBC_1001_MSI_TV_v3_Vset1_Tset1_2023-06-08_11h53.34.814.csv"
"CBC_1001";"26";"0";"3";"0";"z";"9";"b";"1,99343550000003233";"0";"0";"2";"hard";"0,90";"0,560000000000000";"0,4399999999999999";"0";"0";"0";"1";"tv";"vib";"CBC_1001_MSI_TV_v3_Vset1_Tset1_2023-06-08_11h53.34.814.csv"
"CBC_1001";"27";"3";"3";"2";"b";"63";"z";"2,72957930000075066";"0";"0";"2";"hard";"0,90";"0,538461538461538";"0,4615384615384616";"0";"0";"0";"1";"tv";"vib";"CBC_1001_MSI_TV_v3_Vset1_Tset1_2023-06-08_11h53.34.814.csv"
"CBC_1001";"28";"2";"0";"2";"z";"27";"b";"4,16821710000067469";"0";"0";"2";"hard";"0,90";"0,518518518518518";"0,4814814814814815";"0";"0";"0";"1";"tv";"vib";"CBC_1001_MSI_TV_v3_Vset1_Tset1_2023-06-08_11h53.34.814.csv"
"CBC_1001";"29";"0";"0";"1";"b";"63";"b";"3,22089589999950476";"1";"0";"2";"hard";"0,90";"0,535714285714286";"0,4642857142857143";"0";"0";"0";"1";"tv";"vib";"CBC_1001_MSI_TV_v3_Vset1_Tset1_2023-06-08_11h53.34.814.csv"
"CBC_1001";"30";"1";"0";"1";"z";"63";"z";"2,92884339999955046";"1";"1";"2";"hard";"0,90";"0,551724137931034";"0,4482758620689655";"0";"0";"0";"1";"tv";"vib";"CBC_1001_MSI_TV_v3_Vset1_Tset1_2023-06-08_11h53.34.814.csv"
"CBC_1001";"31";"3";"1";"3";"z";"27";"b";"2,29167080000070200";"0";"0";"2";"hard";"0,90";"0,533333333333333";"0,4666666666666667";"0";"0";"0";"1";"tv";"vib";"CBC_1001_MSI_TV_v3_Vset1_Tset1_2023-06-08_11h53.34.814.csv"
"CBC_1001";"32";"2";"2";"3";"b";"63";"b";"3,43578270000080011";"1";"1";"2";"hard";"0,90";"0,548387096774194";"0,4516129032258065";"0";"0";"0";"1";"tv";"vib";"CBC_1001_MSI_TV_v3_Vset1_Tset1_2023-06-08_11h53.34.814.csv"
"CBC_1001";"33";"1";"0";"1";"z";"63";"z";"2,29848319999973683";"1";"1";"2";"hard";"0,90";"0,562500000000000";"0,4375000000000000";"0";"0";"0";"1";"tv";"vib";"CBC_1001_MSI_TV_v3_Vset1_Tset1_2023-06-08_11h53.34.814.csv"
"CBC_1001";"34";"0";"1";"0";"z";"63";"z";"1,66613030000053186";"1";"1";"2";"hard";"0,90";"0,575757575757576";"0,4242424242424242";"0";"0";"0";"1";"tv";"vib";"CBC_1001_MSI_TV_v3_Vset1_Tset1_2023-06-08_11h53.34.814.csv"
"CBC_1001";"35";"2";"2";"1";"b";"9";"b";"2,28756480000038209";"1";"1";"2";"hard";"0,90";"0,588235294117647";"0,4117647058823529";"0";"0";"0";"1";"tv";"vib";"CBC_1001_MSI_TV_v3_Vset1_Tset1_2023-06-08_11h53.34.814.csv"
"CBC_1001";"36";"0";"0";"1";"b";"63";"b";"2,02986720000035348";"1";"1";"2";"hard";"0,90";"0,600000000000000";"0,4000000000000000";"0";"0";"0";"1";"tv";"vib";"CBC_1001_MSI_TV_v3_Vset1_Tset1_2023-06-08_11h53.34.814.csv"
"CBC_1001";"37";"3";"1";"3";"z";"27";"b";"1,94946610000033616";"0";"0";"2";"hard";"0,90";"0,583333333333333";"0,4166666666666666";"0";"0";"0";"1";"tv";"vib";"CBC_1001_MSI_TV_v3_Vset1_Tset1_2023-06-08_11h53.34.814.csv"
"CBC_1001";"38";"1";"1";"0";"b";"63";"b";"3,06466469999986657";"1";"1";"2";"hard";"0,90";"0,594594594594595";"0,4054054054054054";"0";"0";"0";"1";"tv";"vib";"CBC_1001_MSI_TV_v3_Vset1_Tset1_2023-06-08_11h53.34.814.csv"
"CBC_1001";"39";"2";"3";"2";"z";"63";"z";"1,99799059999941164";"1";"0";"2";"hard";"0,90";"0,605263157894737";"0,3947368421052632";"0";"0";"0";"1";"tv";"vib";"CBC_1001_MSI_TV_v3_Vset1_Tset1_2023-06-08_11h53.34.814.csv"
"CBC_1001";"40";"0";"0";"2";"b";"27";"b";"1,62621280000030310";"1";"1";"2";"hard";"0,90";"0,615384615384615";"0,3846153846153846";"0";"0";"0";"1";"tv";"vib";"CBC_1001_MSI_TV_v3_Vset1_Tset1_2023-06-08_11h53.34.814.csv"
"CBC_1001";"41";"3";"2";"3";"z";"63";"z";"2,74069949999966411";"1";"1";"2";"hard";"0,90";"0,625000000000000";"0,3750000000000000";"0";"0";"0";"1";"tv";"vib";"CBC_1001_MSI_TV_v3_Vset1_Tset1_2023-06-08_11h53.34.814.csv"
"CBC_1001";"42";"1";"1";"3";"b";"27";"b";"2,36596080000026632";"1";"1";"2";"hard";"0,90";"0,634146341463415";"0,3658536585365854";"0";"0";"0";"1";"tv";"vib";"CBC_1001_MSI_TV_v3_Vset1_Tset1_2023-06-08_11h53.34.814.csv"
"CBC_1001";"43";"2";"3";"2";"z";"63";"z";"2,18337000000019543";"1";"1";"2";"hard";"0,90";"0,642857142857143";"0,3571428571428571";"0";"0";"0";"1";"tv";"vib";"CBC_1001_MSI_TV_v3_Vset1_Tset1_2023-06-08_11h53.34.814.csv"
"CBC_1001";"0";"0";"1";"0";"z";"63";"b";"2,09499780000078317";"0";"0";"3";"hard";"0,80";"0,000000000000000";"1,0000000000000000";"0";"0";"0";"1";"av";"env";"CBC_1001_MSI_AV_v3_Vset6_Aset1_2023-06-08_12h45.15.645.csv"
"CBC_1001";"1";"3";"3";"2";"b";"63";"b";"2,02259850000064034";"1";"1";"3";"hard";"0,80";"0,500000000000000";"0,5000000000000000";"0";"0";"0";"1";"av";"env";"CBC_1001_MSI_AV_v3_Vset6_Aset1_2023-06-08_12h45.15.645.csv"
"CBC_1001";"2";"2";"2";"0";"b";"27";"b";"2,43564229999992676";"1";"1";"3";"hard";"0,80";"0,666666666666667";"0,3333333333333334";"0";"0";"0";"1";"av";"env";"CBC_1001_MSI_AV_v3_Vset6_Aset1_2023-06-08_12h45.15.645.csv"
"CBC_1001";"3";"0";"1";"0";"z";"63";"z";"2,69116349999967497";"1";"1";"3";"hard";"0,80";"0,750000000000000";"0,2500000000000000";"0";"0";"0";"1";"av";"env";"CBC_1001_MSI_AV_v3_Vset6_Aset1_2023-06-08_12h45.15.645.csv"
"CBC_1001";"4";"1";"3";"1";"z";"27";"z";"2,31908350000048813";"1";"1";"3";"hard";"0,80";"0,800000000000000";"0,2000000000000000";"0";"0";"0";"1";"av";"env";"CBC_1001_MSI_AV_v3_Vset6_Aset1_2023-06-08_12h45.15.645.csv"
"CBC_1001";"5";"2";"2";"3";"b";"63";"b";"1,85020870000062132";"1";"1";"3";"hard";"0,80";"0,833333333333333";"0,1666666666666666";"0";"0";"0";"1";"av";"env";"CBC_1001_MSI_AV_v3_Vset6_Aset1_2023-06-08_12h45.15.645.csv"
"CBC_1001";"6";"3";"2";"3";"z";"63";"z";"2,00592620000043098";"1";"0";"3";"hard";"0,80";"0,857142857142857";"0,1428571428571429";"0";"0";"0";"1";"av";"env";"CBC_1001_MSI_AV_v3_Vset6_Aset1_2023-06-08_12h45.15.645.csv"
"CBC_1001";"7";"1";"1";"0";"b";"63";"z";"2,63332570000056876";"0";"0";"3";"hard";"0,80";"0,750000000000000";"0,2500000000000000";"0";"0";"0";"1";"av";"env";"CBC_1001_MSI_AV_v3_Vset6_Aset1_2023-06-08_12h45.15.645.csv"
"CBC_1001";"8";"0";"0";"2";"b";"27";"b";"2,19143900000017311";"1";"1";"3";"hard";"0,80";"0,777777777777778";"0,2222222222222222";"0";"0";"0";"1";"av";"env";"CBC_1001_MSI_AV_v3_Vset6_Aset1_2023-06-08_12h45.15.645.csv"
"CBC_1001";"9";"3";"0";"3";"z";"9";"z";"2,55734659999961877";"1";"1";"3";"hard";"0,80";"0,800000000000000";"0,2000000000000000";"0";"0";"0";"1";"av";"env";"CBC_1001_MSI_AV_v3_Vset6_Aset1_2023-06-08_12h45.15.645.csv"
"CBC_1001";"10";"2";"3";"2";"z";"63";"z";"2,05659800000103132";"1";"0";"3";"hard";"0,80";"0,818181818181818";"0,1818181818181818";"0";"0";"0";"1";"av";"env";"CBC_1001_MSI_AV_v3_Vset6_Aset1_2023-06-08_12h45.15.645.csv"
"CBC_1001";"11";"1";"1";"0";"b";"63";"b";"2,75951770000028773";"1";"1";"3";"hard";"0,80";"0,833333333333333";"0,1666666666666666";"0";"0";"0";"1";"av";"env";"CBC_1001_MSI_AV_v3_Vset6_Aset1_2023-06-08_12h45.15.645.csv"
"CBC_1001";"12";"3";"3";"2";"b";"63";"b";"2,47841750000043248";"1";"0";"3";"hard";"0,80";"0,846153846153846";"0,1538461538461539";"0";"0";"0";"1";"av";"env";"CBC_1001_MSI_AV_v3_Vset6_Aset1_2023-06-08_12h45.15.645.csv"
"CBC_1001";"13";"2";"3";"2";"z";"63";"z";"2,77059000000008382";"1";"1";"3";"hard";"0,80";"0,857142857142857";"0,1428571428571429";"0";"0";"0";"1";"av";"env";"CBC_1001_MSI_AV_v3_Vset6_Aset1_2023-06-08_12h45.15.645.csv"
"CBC_1001";"14";"1";"1";"3";"b";"27";"None";NA;NA;"3";"3";"hard";"0,80";"0,857142857142857";"0,1428571428571429";NA;NA;"1";"0";"av";"env";"CBC_1001_MSI_AV_v3_Vset6_Aset1_2023-06-08_12h45.15.645.csv"
"CBC_1001";"15";"0";"3";"0";"z";"9";"z";"1,59555200000067998";"1";"1";"3";"hard";"0,80";"0,866666666666667";"0,1333333333333333";"0";"0";"0";"1";"av";"env";"CBC_1001_MSI_AV_v3_Vset6_Aset1_2023-06-08_12h45.15.645.csv"
"CBC_1001";"16";"3";"3";"2";"b";"63";"z";"2,95673360000000685";"0";"0";"3";"hard";"0,80";"0,812500000000000";"0,1875000000000000";"0";"0";"0";"1";"av";"env";"CBC_1001_MSI_AV_v3_Vset6_Aset1_2023-06-08_12h45.15.645.csv"
"CBC_1001";"17";"2";"2";"0";"b";"27";"b";"1,85350890000063373";"1";"1";"3";"hard";"0,80";"0,823529411764706";"0,1764705882352942";"0";"0";"0";"1";"av";"env";"CBC_1001_MSI_AV_v3_Vset6_Aset1_2023-06-08_12h45.15.645.csv"
"CBC_1001";"18";"0";"1";"0";"z";"63";"b";"2,22779300000001967";"0";"0";"3";"hard";"0,80";"0,777777777777778";"0,2222222222222222";"0";"0";"0";"1";"av";"env";"CBC_1001_MSI_AV_v3_Vset6_Aset1_2023-06-08_12h45.15.645.csv"
"CBC_1001";"19";"1";"0";"1";"z";"63";"z";"1,55913200000122742";"1";"0";"3";"hard";"0,80";"0,789473684210526";"0,2105263157894737";"0";"0";"0";"1";"av";"env";"CBC_1001_MSI_AV_v3_Vset6_Aset1_2023-06-08_12h45.15.645.csv"
"CBC_1001";"20";"3";"1";"3";"z";"27";"z";"3,07898800000111805";"1";"1";"3";"hard";"0,80";"0,800000000000000";"0,2000000000000000";"0";"0";"0";"1";"av";"env";"CBC_1001_MSI_AV_v3_Vset6_Aset1_2023-06-08_12h45.15.645.csv"
"CBC_1001";"21";"2";"2";"3";"b";"63";"b";"2,08173770000121294";"1";"1";"3";"hard";"0,80";"0,809523809523810";"0,1904761904761905";"0";"0";"0";"1";"av";"env";"CBC_1001_MSI_AV_v3_Vset6_Aset1_2023-06-08_12h45.15.645.csv"
"CBC_1001";"22";"1";"1";"0";"b";"63";"z";"2,36067760000059934";"0";"0";"3";"hard";"0,80";"0,772727272727273";"0,2272727272727273";"0";"0";"0";"1";"av";"env";"CBC_1001_MSI_AV_v3_Vset6_Aset1_2023-06-08_12h45.15.645.csv"
"CBC_1001";"23";"0";"2";"0";"z";"27";"z";"2,26862320000054751";"1";"1";"3";"hard";"0,80";"0,782608695652174";"0,2173913043478261";"0";"0";"0";"1";"av";"env";"CBC_1001_MSI_AV_v3_Vset6_Aset1_2023-06-08_12h45.15.645.csv"
"CBC_1001";"24";"3";"2";"3";"z";"63";"z";"2,56164250000074389";"1";"1";"3";"hard";"0,80";"0,791666666666667";"0,2083333333333334";"0";"0";"0";"1";"av";"env";"CBC_1001_MSI_AV_v3_Vset6_Aset1_2023-06-08_12h45.15.645.csv"
"CBC_1001";"25";"2";"2";"0";"b";"27";"b";"2,45149890000084270";"1";"1";"3";"hard";"0,80";"0,800000000000000";"0,2000000000000000";"0";"0";"0";"1";"av";"env";"CBC_1001_MSI_AV_v3_Vset6_Aset1_2023-06-08_12h45.15.645.csv"
"CBC_1001";"26";"1";"1";"0";"b";"63";"b";"2,80006240000057005";"1";"1";"3";"hard";"0,80";"0,807692307692308";"0,1923076923076923";"0";"0";"0";"1";"av";"env";"CBC_1001_MSI_AV_v3_Vset6_Aset1_2023-06-08_12h45.15.645.csv"
"CBC_1001";"27";"0";"0";"1";"b";"63";"b";"1,84562410000035015";"1";"1";"3";"hard";"0,80";"0,814814814814815";"0,1851851851851852";"0";"0";"0";"1";"av";"env";"CBC_1001_MSI_AV_v3_Vset6_Aset1_2023-06-08_12h45.15.645.csv"
"CBC_1001";"28";"2";"3";"2";"z";"63";"z";"1,91158820000055130";"1";"0";"3";"hard";"0,80";"0,821428571428571";"0,1785714285714286";"0";"0";"0";"1";"av";"env";"CBC_1001_MSI_AV_v3_Vset6_Aset1_2023-06-08_12h45.15.645.csv"
"CBC_1001";"29";"3";"3";"1";"b";"27";"b";"2,27335850000054052";"1";"1";"3";"hard";"0,80";"0,827586206896552";"0,1724137931034483";"0";"0";"0";"1";"av";"env";"CBC_1001_MSI_AV_v3_Vset6_Aset1_2023-06-08_12h45.15.645.csv"
"CBC_1001";"30";"0";"1";"0";"z";"63";"z";"1,78355660000033822";"1";"0";"3";"hard";"0,80";"0,833333333333333";"0,1666666666666666";"0";"0";"0";"1";"av";"env";"CBC_1001_MSI_AV_v3_Vset6_Aset1_2023-06-08_12h45.15.645.csv"
"CBC_1001";"31";"3";"3";"2";"b";"63";"b";"2,42577440000059141";"1";"1";"3";"hard";"0,80";"0,838709677419355";"0,1612903225806451";"0";"0";"0";"1";"av";"env";"CBC_1001_MSI_AV_v3_Vset6_Aset1_2023-06-08_12h45.15.645.csv"
"CBC_1001";"32";"1";"2";"1";"z";"9";"z";"2,62625400000069931";"1";"1";"3";"hard";"0,80";"0,843750000000000";"0,1562500000000000";"0";"0";"0";"1";"av";"env";"CBC_1001_MSI_AV_v3_Vset6_Aset1_2023-06-08_12h45.15.645.csv"
"CBC_1001";"33";"0";"1";"0";"z";"63";"z";"3,53284429999985150";"1";"1";"3";"hard";"0,80";"0,848484848484849";"0,1515151515151515";"0";"0";"0";"1";"av";"env";"CBC_1001_MSI_AV_v3_Vset6_Aset1_2023-06-08_12h45.15.645.csv"
"CBC_1001";"34";"2";"2";"1";"b";"9";"b";"2,38442920000034064";"1";"1";"3";"hard";"0,80";"0,852941176470588";"0,1470588235294118";"0";"0";"0";"1";"av";"env";"CBC_1001_MSI_AV_v3_Vset6_Aset1_2023-06-08_12h45.15.645.csv"
"CBC_1001";"35";"1";"1";"0";"b";"63";"b";"2,44020950000049197";"1";"1";"3";"hard";"0,80";"0,857142857142857";"0,1428571428571429";"0";"0";"0";"1";"av";"env";"CBC_1001_MSI_AV_v3_Vset6_Aset1_2023-06-08_12h45.15.645.csv"
"CBC_1001";"36";"0";"0";"1";"b";"63";"b";"2,50709600000027422";"1";"0";"3";"hard";"0,80";"0,861111111111111";"0,1388888888888888";"0";"0";"0";"1";"av";"env";"CBC_1001_MSI_AV_v3_Vset6_Aset1_2023-06-08_12h45.15.645.csv"
"CBC_1001";"37";"1";"0";"1";"z";"63";"z";"2,32225920000018959";"1";"1";"3";"hard";"0,80";"0,864864864864865";"0,1351351351351351";"0";"0";"0";"1";"av";"env";"CBC_1001_MSI_AV_v3_Vset6_Aset1_2023-06-08_12h45.15.645.csv"
"CBC_1001";"38";"3";"1";"3";"z";"27";"z";"2,41200180000032560";"1";"1";"3";"hard";"0,80";"0,868421052631579";"0,1315789473684210";"0";"0";"0";"1";"av";"env";"CBC_1001_MSI_AV_v3_Vset6_Aset1_2023-06-08_12h45.15.645.csv"
"CBC_1001";"39";"2";"3";"2";"z";"63";"z";"1,84050730000035401";"1";"1";"3";"hard";"0,80";"0,871794871794872";"0,1282051282051282";"0";"0";"0";"1";"av";"env";"CBC_1001_MSI_AV_v3_Vset6_Aset1_2023-06-08_12h45.15.645.csv"
"CBC_1001";"40";"0";"0";"2";"b";"27";"b";"2,03445600000031845";"1";"1";"3";"hard";"0,80";"0,875000000000000";"0,1250000000000000";"0";"0";"0";"1";"av";"env";"CBC_1001_MSI_AV_v3_Vset6_Aset1_2023-06-08_12h45.15.645.csv"
"CBC_1001";"41";"3";"2";"3";"z";"63";"z";"2,35965800000030868";"1";"1";"3";"hard";"0,80";"0,878048780487805";"0,1219512195121951";"0";"0";"0";"1";"av";"env";"CBC_1001_MSI_AV_v3_Vset6_Aset1_2023-06-08_12h45.15.645.csv"
"CBC_1001";"42";"1";"1";"3";"b";"27";"b";"2,39148890000069514";"1";"0";"3";"hard";"0,80";"0,880952380952381";"0,1190476190476191";"0";"0";"0";"1";"av";"env";"CBC_1001_MSI_AV_v3_Vset6_Aset1_2023-06-08_12h45.15.645.csv"
"CBC_1001";"43";"2";"3";"2";"z";"63";"z";"2,74693790000128502";"1";"1";"3";"hard";"0,80";"0,883720930232558";"0,1162790697674418";"0";"0";"0";"1";"av";"env";"CBC_1001_MSI_AV_v3_Vset6_Aset1_2023-06-08_12h45.15.645.csv"
"CBC_1001";"0";"1";"0";"1";"z";"63";"z";"2,46899730000041018";"1";"1";"4";"hard";"0,90";"1,000000000000000";"0,0000000000000000";"0";"0";"0";"1";"tv";"vib";"CBC_1001_MSI_TV_v3_Vset3_Tset2_2023-06-08_12h53.37.433.csv"
"CBC_1001";"1";"0";"1";"0";"z";"63";"z";"2,47680480000053649";"1";"1";"4";"hard";"0,90";"1,000000000000000";"0,0000000000000000";"0";"0";"0";"1";"tv";"vib";"CBC_1001_MSI_TV_v3_Vset3_Tset2_2023-06-08_12h53.37.433.csv"
"CBC_1001";"2";"2";"2";"1";"b";"9";"b";"2,40419250000013562";"1";"1";"4";"hard";"0,90";"1,000000000000000";"0,0000000000000000";"0";"0";"0";"1";"tv";"vib";"CBC_1001_MSI_TV_v3_Vset3_Tset2_2023-06-08_12h53.37.433.csv"
"CBC_1001";"3";"0";"0";"1";"b";"63";"b";"2,60468769999988581";"1";"1";"4";"hard";"0,90";"1,000000000000000";"0,0000000000000000";"0";"0";"0";"1";"tv";"vib";"CBC_1001_MSI_TV_v3_Vset3_Tset2_2023-06-08_12h53.37.433.csv"
"CBC_1001";"4";"3";"1";"3";"z";"27";"z";"2,33989590000055614";"1";"1";"4";"hard";"0,90";"1,000000000000000";"0,0000000000000000";"0";"0";"0";"1";"tv";"vib";"CBC_1001_MSI_TV_v3_Vset3_Tset2_2023-06-08_12h53.37.433.csv"
"CBC_1001";"5";"1";"1";"0";"b";"63";"b";"2,10577130000001489";"1";"1";"4";"hard";"0,90";"1,000000000000000";"0,0000000000000000";"0";"0";"0";"1";"tv";"vib";"CBC_1001_MSI_TV_v3_Vset3_Tset2_2023-06-08_12h53.37.433.csv"
"CBC_1001";"6";"2";"3";"2";"z";"63";"z";"2,27718650000042544";"1";"1";"4";"hard";"0,90";"1,000000000000000";"0,0000000000000000";"0";"0";"0";"1";"tv";"vib";"CBC_1001_MSI_TV_v3_Vset3_Tset2_2023-06-08_12h53.37.433.csv"
"CBC_1001";"7";"0";"0";"2";"b";"27";"b";"2,41220740000062506";"1";"1";"4";"hard";"0,90";"1,000000000000000";"0,0000000000000000";"0";"0";"0";"1";"tv";"vib";"CBC_1001_MSI_TV_v3_Vset3_Tset2_2023-06-08_12h53.37.433.csv"
"CBC_1001";"8";"3";"2";"3";"z";"63";"z";"1,99111030000040046";"1";"1";"4";"hard";"0,90";"1,000000000000000";"0,0000000000000000";"0";"0";"0";"1";"tv";"vib";"CBC_1001_MSI_TV_v3_Vset3_Tset2_2023-06-08_12h53.37.433.csv"
"CBC_1001";"9";"1";"1";"3";"b";"27";"b";"2,41406840000036027";"1";"1";"4";"hard";"0,90";"1,000000000000000";"0,0000000000000000";"0";"0";"0";"1";"tv";"vib";"CBC_1001_MSI_TV_v3_Vset3_Tset2_2023-06-08_12h53.37.433.csv"
"CBC_1001";"10";"2";"2";"3";"b";"63";"b";"2,43349420000049577";"1";"0";"4";"hard";"0,90";"1,000000000000000";"0,0000000000000000";"0";"0";"0";"1";"tv";"vib";"CBC_1001_MSI_TV_v3_Vset3_Tset2_2023-06-08_12h53.37.433.csv"
"CBC_1001";"11";"1";"3";"1";"z";"27";"z";"2,49260109999977431";"1";"1";"4";"hard";"0,90";"1,000000000000000";"0,0000000000000000";"0";"0";"0";"1";"tv";"vib";"CBC_1001_MSI_TV_v3_Vset3_Tset2_2023-06-08_12h53.37.433.csv"
"CBC_1001";"12";"2";"2";"3";"b";"63";"b";"2,72951120000016090";"1";"1";"4";"hard";"0,90";"1,000000000000000";"0,0000000000000000";"0";"0";"0";"1";"tv";"vib";"CBC_1001_MSI_TV_v3_Vset3_Tset2_2023-06-08_12h53.37.433.csv"
"CBC_1001";"13";"3";"2";"3";"z";"63";"z";"2,28018870000050811";"1";"1";"4";"hard";"0,90";"1,000000000000000";"0,0000000000000000";"0";"0";"0";"1";"tv";"vib";"CBC_1001_MSI_TV_v3_Vset3_Tset2_2023-06-08_12h53.37.433.csv"
"CBC_1001";"14";"0";"3";"0";"z";"9";"z";"2,35356680000040797";"1";"1";"4";"hard";"0,90";"1,000000000000000";"0,0000000000000000";"0";"0";"0";"1";"tv";"vib";"CBC_1001_MSI_TV_v3_Vset3_Tset2_2023-06-08_12h53.37.433.csv"
"CBC_1001";"15";"1";"1";"0";"b";"63";"b";"1,73717010000018490";"1";"0";"4";"hard";"0,90";"1,000000000000000";"0,0000000000000000";"0";"0";"0";"1";"tv";"vib";"CBC_1001_MSI_TV_v3_Vset3_Tset2_2023-06-08_12h53.37.433.csv"
"CBC_1001";"16";"3";"3";"2";"b";"63";"b";"2,29535900000064430";"1";"1";"4";"hard";"0,90";"1,000000000000000";"0,0000000000000000";"0";"0";"0";"1";"tv";"vib";"CBC_1001_MSI_TV_v3_Vset3_Tset2_2023-06-08_12h53.37.433.csv"
"CBC_1001";"17";"2";"2";"0";"b";"27";"b";"2,41770099999939703";"1";"1";"4";"hard";"0,90";"1,000000000000000";"0,0000000000000000";"0";"0";"0";"1";"tv";"vib";"CBC_1001_MSI_TV_v3_Vset3_Tset2_2023-06-08_12h53.37.433.csv"
"CBC_1001";"18";"0";"1";"0";"z";"63";"z";"2,26084520000040357";"1";"1";"4";"hard";"0,90";"1,000000000000000";"0,0000000000000000";"0";"0";"0";"1";"tv";"vib";"CBC_1001_MSI_TV_v3_Vset3_Tset2_2023-06-08_12h53.37.433.csv"
"CBC_1001";"19";"1";"0";"1";"z";"63";"z";"2,00108189999991737";"1";"1";"4";"hard";"0,90";"1,000000000000000";"0,0000000000000000";"0";"0";"0";"1";"tv";"vib";"CBC_1001_MSI_TV_v3_Vset3_Tset2_2023-06-08_12h53.37.433.csv"
"CBC_1001";"20";"3";"3";"1";"b";"27";"b";"1,41100349999942409";"1";"1";"4";"hard";"0,90";"1,000000000000000";"0,0000000000000000";"0";"0";"0";"1";"tv";"vib";"CBC_1001_MSI_TV_v3_Vset3_Tset2_2023-06-08_12h53.37.433.csv"
"CBC_1001";"21";"2";"2";"3";"b";"63";"b";"1,66060399999969377";"1";"1";"4";"hard";"0,90";"1,000000000000000";"0,0000000000000000";"0";"0";"0";"1";"tv";"vib";"CBC_1001_MSI_TV_v3_Vset3_Tset2_2023-06-08_12h53.37.433.csv"
"CBC_1001";"22";"0";"1";"0";"z";"63";"z";"1,59786440000061702";"1";"1";"4";"hard";"0,90";"1,000000000000000";"0,0000000000000000";"0";"0";"0";"1";"tv";"vib";"CBC_1001_MSI_TV_v3_Vset3_Tset2_2023-06-08_12h53.37.433.csv"
"CBC_1001";"23";"3";"3";"2";"b";"63";"b";"1,68330569999943691";"1";"1";"4";"hard";"0,90";"1,000000000000000";"0,0000000000000000";"0";"0";"0";"1";"tv";"vib";"CBC_1001_MSI_TV_v3_Vset3_Tset2_2023-06-08_12h53.37.433.csv"
"CBC_1001";"24";"2";"0";"2";"z";"27";"z";"2,32004609999967215";"1";"1";"4";"hard";"0,90";"1,000000000000000";"0,0000000000000000";"0";"0";"0";"1";"tv";"vib";"CBC_1001_MSI_TV_v3_Vset3_Tset2_2023-06-08_12h53.37.433.csv"
"CBC_1001";"25";"0";"1";"0";"z";"63";"z";"2,26084119999995892";"1";"1";"4";"hard";"0,90";"1,000000000000000";"0,0000000000000000";"0";"0";"0";"1";"tv";"vib";"CBC_1001_MSI_TV_v3_Vset3_Tset2_2023-06-08_12h53.37.433.csv"
"CBC_1001";"26";"1";"3";"1";"z";"27";"z";"1,55984809999972640";"1";"1";"4";"hard";"0,90";"1,000000000000000";"0,0000000000000000";"0";"0";"0";"1";"tv";"vib";"CBC_1001_MSI_TV_v3_Vset3_Tset2_2023-06-08_12h53.37.433.csv"
"CBC_1001";"27";"2";"2";"3";"b";"63";"b";"1,88349350000044069";"1";"1";"4";"hard";"0,90";"1,000000000000000";"0,0000000000000000";"0";"0";"0";"1";"tv";"vib";"CBC_1001_MSI_TV_v3_Vset3_Tset2_2023-06-08_12h53.37.433.csv"
"CBC_1001";"28";"3";"2";"3";"z";"63";"z";"1,61229289999937464";"1";"0";"4";"hard";"0,90";"1,000000000000000";"0,0000000000000000";"0";"0";"0";"1";"tv";"vib";"CBC_1001_MSI_TV_v3_Vset3_Tset2_2023-06-08_12h53.37.433.csv"
"CBC_1001";"29";"1";"1";"0";"b";"63";"b";"2,01822209999954794";"1";"1";"4";"hard";"0,90";"1,000000000000000";"0,0000000000000000";"0";"0";"0";"1";"tv";"vib";"CBC_1001_MSI_TV_v3_Vset3_Tset2_2023-06-08_12h53.37.433.csv"
"CBC_1001";"30";"0";"0";"2";"b";"27";"b";"1,44394319999992149";"1";"1";"4";"hard";"0,90";"1,000000000000000";"0,0000000000000000";"0";"0";"0";"1";"tv";"vib";"CBC_1001_MSI_TV_v3_Vset3_Tset2_2023-06-08_12h53.37.433.csv"
"CBC_1001";"31";"3";"0";"3";"z";"9";"z";"1,35339490000023943";"1";"1";"4";"hard";"0,90";"1,000000000000000";"0,0000000000000000";"0";"0";"0";"1";"tv";"vib";"CBC_1001_MSI_TV_v3_Vset3_Tset2_2023-06-08_12h53.37.433.csv"
"CBC_1001";"32";"2";"2";"3";"b";"63";"b";"1,89062229999944975";"1";"1";"4";"hard";"0,90";"1,000000000000000";"0,0000000000000000";"0";"0";"0";"1";"tv";"vib";"CBC_1001_MSI_TV_v3_Vset3_Tset2_2023-06-08_12h53.37.433.csv"
"CBC_1001";"33";"1";"1";"0";"b";"63";"b";"1,67806040000050416";"1";"1";"4";"hard";"0,90";"1,000000000000000";"0,0000000000000000";"0";"0";"0";"1";"tv";"vib";"CBC_1001_MSI_TV_v3_Vset3_Tset2_2023-06-08_12h53.37.433.csv"
"CBC_1001";"34";"0";"1";"0";"z";"63";"z";"1,34115639999981795";"1";"0";"4";"hard";"0,90";"1,000000000000000";"0,0000000000000000";"0";"0";"0";"1";"tv";"vib";"CBC_1001_MSI_TV_v3_Vset3_Tset2_2023-06-08_12h53.37.433.csv"
"CBC_1001";"35";"3";"3";"2";"b";"63";"b";"1,13351109999985056";"1";"1";"4";"hard";"0,90";"1,000000000000000";"0,0000000000000000";"0";"0";"0";"1";"tv";"vib";"CBC_1001_MSI_TV_v3_Vset3_Tset2_2023-06-08_12h53.37.433.csv"
"CBC_1001";"36";"1";"2";"1";"z";"9";"b";"2,62809680000009394";"0";"0";"4";"hard";"0,90";"0,972972972972973";"0,0270270270270270";"0";"0";"0";"1";"tv";"vib";"CBC_1001_MSI_TV_v3_Vset3_Tset2_2023-06-08_12h53.37.433.csv"
"CBC_1001";"37";"0";"0";"2";"b";"27";"b";"1,59139050000067073";"1";"1";"4";"hard";"0,90";"0,973684210526316";"0,0263157894736842";"0";"0";"0";"1";"tv";"vib";"CBC_1001_MSI_TV_v3_Vset3_Tset2_2023-06-08_12h53.37.433.csv"
"CBC_1001";"38";"2";"3";"2";"z";"63";"z";"1,88852140000108193";"1";"1";"4";"hard";"0,90";"0,974358974358974";"0,0256410256410257";"0";"0";"0";"1";"tv";"vib";"CBC_1001_MSI_TV_v3_Vset3_Tset2_2023-06-08_12h53.37.433.csv"
"CBC_1001";"39";"3";"3";"1";"b";"27";"b";"1,72650220000014087";"1";"1";"4";"hard";"0,90";"0,975000000000000";"0,0250000000000000";"0";"0";"0";"1";"tv";"vib";"CBC_1001_MSI_TV_v3_Vset3_Tset2_2023-06-08_12h53.37.433.csv"
"CBC_1001";"40";"0";"1";"0";"z";"63";"z";"1,50547420000020793";"1";"1";"4";"hard";"0,90";"0,975609756097561";"0,0243902439024390";"0";"0";"0";"1";"tv";"vib";"CBC_1001_MSI_TV_v3_Vset3_Tset2_2023-06-08_12h53.37.433.csv"
"CBC_1001";"41";"2";"2";"0";"b";"27";"b";"2,19635230000039883";"1";"1";"4";"hard";"0,90";"0,976190476190476";"0,0238095238095238";"0";"0";"0";"1";"tv";"vib";"CBC_1001_MSI_TV_v3_Vset3_Tset2_2023-06-08_12h53.37.433.csv"
"CBC_1001";"42";"3";"2";"3";"z";"63";"z";"1,43312139999852661";"1";"1";"4";"hard";"0,90";"0,976744186046512";"0,0232558139534884";"0";"0";"0";"1";"tv";"vib";"CBC_1001_MSI_TV_v3_Vset3_Tset2_2023-06-08_12h53.37.433.csv"
"CBC_1001";"43";"1";"0";"1";"z";"63";"z";"1,38841750000119646";"1";"1";"4";"hard";"0,90";"0,977272727272727";"0,0227272727272727";"0";"0";"0";"1";"tv";"vib";"CBC_1001_MSI_TV_v3_Vset3_Tset2_2023-06-08_12h53.37.433.csv"
"CBC_1002";"0";"1";"0";"1";"z";"63";"b";"2,58153660000061791";"0";"0";"1";"hard";"0,95";"0,000000000000000";"1,0000000000000000";"0";"0";"0";"1";"tv";"vib";"CBC_1002_MSI_TV_v3_Vset1_Tset3_2023-05-31_16h13.57.205.csv"
"CBC_1002";"1";"0";"0";"1";"b";"63";"b";"2,40994879999925615";"1";"1";"1";"hard";"0,95";"0,500000000000000";"0,5000000000000000";"0";"0";"0";"1";"tv";"vib";"CBC_1002_MSI_TV_v3_Vset1_Tset3_2023-05-31_16h13.57.205.csv"
"CBC_1002";"2";"2";"2";"3";"z";"63";"b";"2,45501220000005560";"0";"0";"1";"hard";"0,95";"0,333333333333333";"0,6666666666666667";"0";"0";"0";"1";"tv";"vib";"CBC_1002_MSI_TV_v3_Vset1_Tset3_2023-05-31_16h13.57.205.csv"
"CBC_1002";"3";"1";"2";"1";"z";"9";"b";"2,65311859999928856";"0";"0";"1";"hard";"0,95";"0,250000000000000";"0,7500000000000000";"0";"0";"0";"1";"tv";"vib";"CBC_1002_MSI_TV_v3_Vset1_Tset3_2023-05-31_16h13.57.205.csv"
"CBC_1002";"4";"0";"0";"2";"b";"27";"z";"2,98528799999985495";"0";"0";"1";"hard";"0,95";"0,200000000000000";"0,8000000000000000";"0";"0";"0";"1";"tv";"vib";"CBC_1002_MSI_TV_v3_Vset1_Tset3_2023-05-31_16h13.57.205.csv"
"CBC_1002";"5";"3";"2";"3";"b";"63";"b";"2,36420339999858697";"1";"1";"1";"hard";"0,95";"0,333333333333333";"0,6666666666666667";"0";"0";"0";"1";"tv";"vib";"CBC_1002_MSI_TV_v3_Vset1_Tset3_2023-05-31_16h13.57.205.csv"
"CBC_1002";"6";"2";"1";"3";"z";"27";"z";"2,60953389999849605";"1";"1";"1";"hard";"0,95";"0,428571428571429";"0,5714285714285714";"0";"0";"0";"1";"tv";"vib";"CBC_1002_MSI_TV_v3_Vset1_Tset3_2023-05-31_16h13.57.205.csv"
"CBC_1002";"7";"0";"1";"0";"z";"63";"z";"2,80132349999985308";"1";"1";"1";"hard";"0,95";"0,500000000000000";"0,5000000000000000";"0";"0";"0";"1";"tv";"vib";"CBC_1002_MSI_TV_v3_Vset1_Tset3_2023-05-31_16h13.57.205.csv"
"CBC_1002";"8";"3";"2";"0";"b";"27";"b";"2,95145339999908174";"1";"1";"1";"hard";"0,95";"0,555555555555556";"0,4444444444444444";"0";"0";"0";"1";"tv";"vib";"CBC_1002_MSI_TV_v3_Vset1_Tset3_2023-05-31_16h13.57.205.csv"
"CBC_1002";"9";"2";"2";"3";"z";"63";"z";"2,39397349999853759";"1";"1";"1";"hard";"0,95";"0,600000000000000";"0,4000000000000000";"0";"0";"0";"1";"tv";"vib";"CBC_1002_MSI_TV_v3_Vset1_Tset3_2023-05-31_16h13.57.205.csv"
"CBC_1002";"10";"1";"1";"0";"b";"63";"b";"2,47295920000033220";"1";"1";"1";"hard";"0,95";"0,636363636363636";"0,3636363636363636";"0";"0";"0";"1";"tv";"vib";"CBC_1002_MSI_TV_v3_Vset1_Tset3_2023-05-31_16h13.57.205.csv"
"CBC_1002";"11";"0";"0";"1";"b";"63";"b";"2,47499040000002424";"1";"1";"1";"hard";"0,95";"0,666666666666667";"0,3333333333333334";"0";"0";"0";"1";"tv";"vib";"CBC_1002_MSI_TV_v3_Vset1_Tset3_2023-05-31_16h13.57.205.csv"
"CBC_1002";"12";"2";"2";"3";"z";"63";"z";"3,38595069999973930";"1";"1";"1";"hard";"0,95";"0,692307692307692";"0,3076923076923077";"0";"0";"0";"1";"tv";"vib";"CBC_1002_MSI_TV_v3_Vset1_Tset3_2023-05-31_16h13.57.205.csv"
"CBC_1002";"13";"3";"2";"0";"b";"27";"z";"2,93335639999895648";"0";"0";"1";"hard";"0,95";"0,642857142857143";"0,3571428571428571";"0";"0";"0";"1";"tv";"vib";"CBC_1002_MSI_TV_v3_Vset1_Tset3_2023-05-31_16h13.57.205.csv"
"CBC_1002";"14";"0";"0";"1";"b";"63";"b";"2,70705939999788825";"1";"1";"1";"hard";"0,95";"0,666666666666667";"0,3333333333333334";"0";"0";"0";"1";"tv";"vib";"CBC_1002_MSI_TV_v3_Vset1_Tset3_2023-05-31_16h13.57.205.csv"
"CBC_1002";"15";"1";"1";"3";"b";"27";"b";"2,75393039999835310";"1";"1";"1";"hard";"0,95";"0,687500000000000";"0,3125000000000000";"0";"0";"0";"1";"tv";"vib";"CBC_1002_MSI_TV_v3_Vset1_Tset3_2023-05-31_16h13.57.205.csv"
"CBC_1002";"16";"3";"3";"2";"z";"63";"b";"2,64883269999882032";"0";"0";"1";"hard";"0,95";"0,647058823529412";"0,3529411764705882";"0";"0";"0";"1";"tv";"vib";"CBC_1002_MSI_TV_v3_Vset1_Tset3_2023-05-31_16h13.57.205.csv"
"CBC_1002";"17";"2";"2";"3";"z";"63";"b";"2,70263399999930698";"0";"1";"1";"hard";"0,95";"0,611111111111111";"0,3888888888888888";"0";"0";"0";"1";"tv";"vib";"CBC_1002_MSI_TV_v3_Vset1_Tset3_2023-05-31_16h13.57.205.csv"
"CBC_1002";"18";"1";"1";"0";"b";"63";"z";"2,99938089999886870";"0";"0";"1";"hard";"0,95";"0,578947368421053";"0,4210526315789473";"0";"0";"0";"1";"tv";"vib";"CBC_1002_MSI_TV_v3_Vset1_Tset3_2023-05-31_16h13.57.205.csv"
"CBC_1002";"19";"0";"2";"0";"z";"27";"None";NA;NA;"3";"1";"hard";"0,95";"0,578947368421053";"0,4210526315789473";NA;NA;"1";"0";"tv";"vib";"CBC_1002_MSI_TV_v3_Vset1_Tset3_2023-05-31_16h13.57.205.csv"
"CBC_1002";"20";"2";"0";"3";"z";"9";"z";"2,87509019999924931";"1";"1";"1";"hard";"0,95";"0,600000000000000";"0,4000000000000000";"0";"0";"0";"1";"tv";"vib";"CBC_1002_MSI_TV_v3_Vset1_Tset3_2023-05-31_16h13.57.205.csv"
"CBC_1002";"21";"3";"2";"3";"b";"63";"b";"2,66889309999896795";"1";"1";"1";"hard";"0,95";"0,619047619047619";"0,3809523809523809";"0";"0";"0";"1";"tv";"vib";"CBC_1002_MSI_TV_v3_Vset1_Tset3_2023-05-31_16h13.57.205.csv"
"CBC_1002";"22";"1";"3";"1";"z";"27";"b";"3,01521259999935864";"0";"0";"1";"hard";"0,95";"0,590909090909091";"0,4090909090909091";"0";"0";"0";"1";"tv";"vib";"CBC_1002_MSI_TV_v3_Vset1_Tset3_2023-05-31_16h13.57.205.csv"
"CBC_1002";"23";"3";"3";"2";"z";"63";"z";"2,65601969999806897";"1";"1";"1";"hard";"0,95";"0,608695652173913";"0,3913043478260869";"0";"0";"0";"1";"tv";"vib";"CBC_1002_MSI_TV_v3_Vset1_Tset3_2023-05-31_16h13.57.205.csv"
"CBC_1002";"24";"2";"2";"3";"z";"63";"b";"2,47636049999891839";"0";"0";"1";"hard";"0,95";"0,583333333333333";"0,4166666666666666";"0";"0";"0";"1";"tv";"vib";"CBC_1002_MSI_TV_v3_Vset1_Tset3_2023-05-31_16h13.57.205.csv"
"CBC_1002";"25";"1";"1";"0";"b";"63";"b";"2,34670360000018263";"1";"1";"1";"hard";"0,95";"0,600000000000000";"0,4000000000000000";"0";"0";"0";"1";"tv";"vib";"CBC_1002_MSI_TV_v3_Vset1_Tset3_2023-05-31_16h13.57.205.csv"
"CBC_1002";"26";"0";"0";"3";"b";"9";"b";"2,42262419999860867";"1";"1";"1";"hard";"0,95";"0,615384615384615";"0,3846153846153846";"0";"0";"0";"1";"tv";"vib";"CBC_1002_MSI_TV_v3_Vset1_Tset3_2023-05-31_16h13.57.205.csv"
"CBC_1002";"27";"2";"2";"3";"z";"63";"b";"2,38984290000007604";"0";"0";"1";"hard";"0,95";"0,592592592592593";"0,4074074074074074";"0";"0";"0";"1";"tv";"vib";"CBC_1002_MSI_TV_v3_Vset1_Tset3_2023-05-31_16h13.57.205.csv"
"CBC_1002";"28";"3";"2";"0";"b";"27";"b";"2,33685089999926277";"1";"1";"1";"hard";"0,95";"0,607142857142857";"0,3928571428571429";"0";"0";"0";"1";"tv";"vib";"CBC_1002_MSI_TV_v3_Vset1_Tset3_2023-05-31_16h13.57.205.csv"
"CBC_1002";"29";"0";"1";"0";"z";"63";"None";NA;NA;"3";"1";"hard";"0,95";"0,607142857142857";"0,3928571428571429";NA;NA;"1";"0";"tv";"vib";"CBC_1002_MSI_TV_v3_Vset1_Tset3_2023-05-31_16h13.57.205.csv"
"CBC_1002";"30";"1";"1";"0";"b";"63";"z";"2,29007719999935944";"0";"0";"1";"hard";"0,95";"0,586206896551724";"0,4137931034482759";"0";"0";"0";"1";"tv";"vib";"CBC_1002_MSI_TV_v3_Vset1_Tset3_2023-05-31_16h13.57.205.csv"
"CBC_1002";"31";"2";"3";"1";"b";"27";"None";NA;NA;"3";"1";"hard";"0,95";"0,586206896551724";"0,4137931034482759";NA;NA;"1";"0";"tv";"vib";"CBC_1002_MSI_TV_v3_Vset1_Tset3_2023-05-31_16h13.57.205.csv"
"CBC_1002";"32";"3";"3";"2";"z";"63";"z";"2,45493429999987711";"1";"1";"1";"hard";"0,95";"0,600000000000000";"0,4000000000000000";"0";"0";"0";"1";"tv";"vib";"CBC_1002_MSI_TV_v3_Vset1_Tset3_2023-05-31_16h13.57.205.csv"
"CBC_1002";"33";"1";"1";"0";"b";"63";"b";"2,30501509999885457";"1";"1";"1";"hard";"0,95";"0,612903225806452";"0,3870967741935484";"0";"0";"0";"1";"tv";"vib";"CBC_1002_MSI_TV_v3_Vset1_Tset3_2023-05-31_16h13.57.205.csv"
"CBC_1002";"34";"0";"0";"1";"b";"63";"b";"2,97802489999958198";"1";"1";"1";"hard";"0,95";"0,625000000000000";"0,3750000000000000";"0";"0";"0";"1";"tv";"vib";"CBC_1002_MSI_TV_v3_Vset1_Tset3_2023-05-31_16h13.57.205.csv"
"CBC_1002";"35";"3";"1";"2";"z";"9";"z";"2,24819369999931951";"1";"1";"1";"hard";"0,95";"0,636363636363636";"0,3636363636363636";"0";"0";"0";"1";"tv";"vib";"CBC_1002_MSI_TV_v3_Vset1_Tset3_2023-05-31_16h13.57.205.csv"
"CBC_1002";"36";"0";"1";"0";"z";"63";"z";"2,58970880000015313";"1";"1";"1";"hard";"0,95";"0,647058823529412";"0,3529411764705882";"0";"0";"0";"1";"tv";"vib";"CBC_1002_MSI_TV_v3_Vset1_Tset3_2023-05-31_16h13.57.205.csv"
"CBC_1002";"37";"2";"3";"1";"b";"27";"b";"2,36161679999895568";"1";"1";"1";"hard";"0,95";"0,657142857142857";"0,3428571428571429";"0";"0";"0";"1";"tv";"vib";"CBC_1002_MSI_TV_v3_Vset1_Tset3_2023-05-31_16h13.57.205.csv"
"CBC_1002";"38";"1";"0";"1";"z";"63";"z";"2,52120019999892975";"1";"1";"1";"hard";"0,95";"0,666666666666667";"0,3333333333333334";"0";"0";"0";"1";"tv";"vib";"CBC_1002_MSI_TV_v3_Vset1_Tset3_2023-05-31_16h13.57.205.csv"
"CBC_1002";"39";"3";"2";"3";"b";"63";"b";"2,73736899999857997";"1";"0";"1";"hard";"0,95";"0,675675675675676";"0,3243243243243243";"0";"0";"0";"1";"tv";"vib";"CBC_1002_MSI_TV_v3_Vset1_Tset3_2023-05-31_16h13.57.205.csv"
"CBC_1002";"40";"0";"2";"0";"z";"27";"z";"2,35296279999965918";"1";"1";"1";"hard";"0,95";"0,684210526315789";"0,3157894736842105";"0";"0";"0";"1";"tv";"vib";"CBC_1002_MSI_TV_v3_Vset1_Tset3_2023-05-31_16h13.57.205.csv"
"CBC_1002";"41";"2";"3";"2";"b";"63";"b";"5,34719419999964884";"1";"1";"1";"hard";"0,95";"0,692307692307692";"0,3076923076923077";"0";"1";"0";"0";"tv";"vib";"CBC_1002_MSI_TV_v3_Vset1_Tset3_2023-05-31_16h13.57.205.csv"
"CBC_1002";"42";"1";"3";"1";"z";"27";"z";"2,37038929999835091";"1";"1";"1";"hard";"0,95";"0,700000000000000";"0,3000000000000000";"0";"0";"0";"1";"tv";"vib";"CBC_1002_MSI_TV_v3_Vset1_Tset3_2023-05-31_16h13.57.205.csv"
"CBC_1002";"43";"3";"2";"3";"b";"63";"z";"2,29477289999886125";"0";"0";"1";"hard";"0,95";"0,682926829268293";"0,3170731707317073";"0";"0";"0";"1";"tv";"vib";"CBC_1002_MSI_TV_v3_Vset1_Tset3_2023-05-31_16h13.57.205.csv"
"CBC_1002";"0";"0";"0";"1";"b";"63";"z";"2,26603029999932915";"0";"0";"2";"hard";"0,95";"0,000000000000000";"1,0000000000000000";"0";"0";"0";"1";"av";"env";"CBC_1002_MSI_AV_v3_Vset4_Aset2_2023-05-31_16h22.12.197.csv"
"CBC_1002";"1";"2";"2";"3";"z";"63";"b";"1,87625110000044515";"0";"0";"2";"hard";"0,95";"0,000000000000000";"1,0000000000000000";"0";"0";"0";"1";"av";"env";"CBC_1002_MSI_AV_v3_Vset4_Aset2_2023-05-31_16h22.12.197.csv"
"CBC_1002";"2";"3";"0";"2";"z";"27";"z";"2,37195260000044073";"1";"1";"2";"hard";"0,95";"0,333333333333333";"0,6666666666666667";"0";"0";"0";"1";"av";"env";"CBC_1002_MSI_AV_v3_Vset4_Aset2_2023-05-31_16h22.12.197.csv"
"CBC_1002";"3";"0";"0";"1";"b";"63";"b";"2,28492310000001453";"1";"1";"2";"hard";"0,95";"0,500000000000000";"0,5000000000000000";"0";"0";"0";"1";"av";"env";"CBC_1002_MSI_AV_v3_Vset4_Aset2_2023-05-31_16h22.12.197.csv"
"CBC_1002";"4";"1";"1";"3";"b";"27";"z";"2,57649629999832541";"0";"0";"2";"hard";"0,95";"0,400000000000000";"0,6000000000000000";"0";"0";"0";"1";"av";"env";"CBC_1002_MSI_AV_v3_Vset4_Aset2_2023-05-31_16h22.12.197.csv"
"CBC_1002";"5";"3";"3";"2";"z";"63";"b";"2,87717069999962405";"0";"0";"2";"hard";"0,95";"0,333333333333333";"0,6666666666666667";"0";"0";"0";"1";"av";"env";"CBC_1002_MSI_AV_v3_Vset4_Aset2_2023-05-31_16h22.12.197.csv"
"CBC_1002";"6";"2";"3";"2";"b";"63";"z";"1,70062700000016775";"0";"0";"2";"hard";"0,95";"0,285714285714286";"0,7142857142857143";"0";"0";"0";"1";"av";"env";"CBC_1002_MSI_AV_v3_Vset4_Aset2_2023-05-31_16h22.12.197.csv"
"CBC_1002";"7";"1";"0";"1";"z";"63";"b";"2,54389549999905284";"0";"0";"2";"hard";"0,95";"0,250000000000000";"0,7500000000000000";"0";"0";"0";"1";"av";"env";"CBC_1002_MSI_AV_v3_Vset4_Aset2_2023-05-31_16h22.12.197.csv"
"CBC_1002";"8";"0";"2";"0";"z";"27";"z";"3,11431199999969976";"1";"1";"2";"hard";"0,95";"0,333333333333333";"0,6666666666666667";"0";"0";"0";"1";"av";"env";"CBC_1002_MSI_AV_v3_Vset4_Aset2_2023-05-31_16h22.12.197.csv"
"CBC_1002";"9";"2";"3";"0";"b";"9";"b";"3,65684519999922486";"1";"1";"2";"hard";"0,95";"0,400000000000000";"0,6000000000000000";"0";"0";"0";"1";"av";"env";"CBC_1002_MSI_AV_v3_Vset4_Aset2_2023-05-31_16h22.12.197.csv"
"CBC_1002";"10";"3";"2";"3";"b";"63";"b";"2,96763359999931708";"1";"1";"2";"hard";"0,95";"0,454545454545455";"0,5454545454545454";"0";"0";"0";"1";"av";"env";"CBC_1002_MSI_AV_v3_Vset4_Aset2_2023-05-31_16h22.12.197.csv"
"CBC_1002";"11";"1";"0";"1";"z";"63";"z";"2,50766159999875526";"1";"1";"2";"hard";"0,95";"0,500000000000000";"0,5000000000000000";"0";"0";"0";"1";"av";"env";"CBC_1002_MSI_AV_v3_Vset4_Aset2_2023-05-31_16h22.12.197.csv"
"CBC_1002";"12";"3";"3";"2";"z";"63";"b";"2,23216990000037185";"0";"0";"2";"hard";"0,95";"0,461538461538462";"0,5384615384615384";"0";"0";"0";"1";"av";"env";"CBC_1002_MSI_AV_v3_Vset4_Aset2_2023-05-31_16h22.12.197.csv"
"CBC_1002";"13";"1";"1";"3";"b";"27";"b";"2,38329800000065006";"1";"1";"2";"hard";"0,95";"0,500000000000000";"0,5000000000000000";"0";"0";"0";"1";"av";"env";"CBC_1002_MSI_AV_v3_Vset4_Aset2_2023-05-31_16h22.12.197.csv"
"CBC_1002";"14";"2";"2";"3";"z";"63";"b";"2,98118729999987409";"0";"0";"2";"hard";"0,95";"0,466666666666667";"0,5333333333333333";"0";"0";"0";"1";"av";"env";"CBC_1002_MSI_AV_v3_Vset4_Aset2_2023-05-31_16h22.12.197.csv"
"CBC_1002";"15";"0";"0";"3";"b";"9";"z";"2,36255749999872933";"0";"0";"2";"hard";"0,95";"0,437500000000000";"0,5625000000000000";"0";"0";"0";"1";"av";"env";"CBC_1002_MSI_AV_v3_Vset4_Aset2_2023-05-31_16h22.12.197.csv"
"CBC_1002";"16";"2";"2";"3";"z";"63";"b";"1,45364659999904688";"0";"0";"2";"hard";"0,95";"0,411764705882353";"0,5882352941176471";"0";"0";"0";"1";"av";"env";"CBC_1002_MSI_AV_v3_Vset4_Aset2_2023-05-31_16h22.12.197.csv"
"CBC_1002";"17";"3";"0";"2";"z";"27";"b";"3,15965300000061688";"0";"0";"2";"hard";"0,95";"0,388888888888889";"0,6111111111111112";"0";"0";"0";"1";"av";"env";"CBC_1002_MSI_AV_v3_Vset4_Aset2_2023-05-31_16h22.12.197.csv"
"CBC_1002";"18";"0";"0";"1";"b";"63";"b";"2,37594460000036634";"1";"1";"2";"hard";"0,95";"0,421052631578947";"0,5789473684210527";"0";"0";"0";"1";"av";"env";"CBC_1002_MSI_AV_v3_Vset4_Aset2_2023-05-31_16h22.12.197.csv"
"CBC_1002";"19";"1";"1";"0";"b";"63";"b";"2,81447850000040489";"1";"0";"2";"hard";"0,95";"0,450000000000000";"0,5500000000000000";"0";"0";"0";"1";"av";"env";"CBC_1002_MSI_AV_v3_Vset4_Aset2_2023-05-31_16h22.12.197.csv"
"CBC_1002";"20";"2";"3";"1";"b";"27";"z";"3,31129800000053365";"0";"0";"2";"hard";"0,95";"0,428571428571429";"0,5714285714285714";"0";"0";"0";"1";"av";"env";"CBC_1002_MSI_AV_v3_Vset4_Aset2_2023-05-31_16h22.12.197.csv"
"CBC_1002";"21";"3";"3";"2";"z";"63";"b";"3,21873330000016722";"0";"0";"2";"hard";"0,95";"0,409090909090909";"0,5909090909090908";"0";"0";"0";"1";"av";"env";"CBC_1002_MSI_AV_v3_Vset4_Aset2_2023-05-31_16h22.12.197.csv"
"CBC_1002";"22";"2";"2";"3";"z";"63";"z";"1,45782879999933357";"1";"1";"2";"hard";"0,95";"0,434782608695652";"0,5652173913043479";"0";"0";"0";"1";"av";"env";"CBC_1002_MSI_AV_v3_Vset4_Aset2_2023-05-31_16h22.12.197.csv"
"CBC_1002";"23";"0";"0";"2";"b";"27";"b";"2,31952289999935601";"1";"1";"2";"hard";"0,95";"0,458333333333333";"0,5416666666666667";"0";"0";"0";"1";"av";"env";"CBC_1002_MSI_AV_v3_Vset4_Aset2_2023-05-31_16h22.12.197.csv"
"CBC_1002";"24";"1";"1";"0";"b";"63";"None";NA;NA;"3";"2";"hard";"0,95";"0,458333333333333";"0,5416666666666667";NA;NA;"1";"0";"av";"env";"CBC_1002_MSI_AV_v3_Vset4_Aset2_2023-05-31_16h22.12.197.csv"
"CBC_1002";"25";"3";"0";"2";"z";"27";"z";"3,79878160000043863";"1";"1";"2";"hard";"0,95";"0,480000000000000";"0,5200000000000000";"0";"0";"0";"1";"av";"env";"CBC_1002_MSI_AV_v3_Vset4_Aset2_2023-05-31_16h22.12.197.csv"
"CBC_1002";"26";"1";"0";"1";"z";"63";"None";NA;NA;"3";"2";"hard";"0,95";"0,480000000000000";"0,5200000000000000";NA;NA;"1";"0";"av";"env";"CBC_1002_MSI_AV_v3_Vset4_Aset2_2023-05-31_16h22.12.197.csv"
"CBC_1002";"27";"0";"1";"0";"z";"63";"z";"2,46749039999849629";"1";"1";"2";"hard";"0,95";"0,500000000000000";"0,5000000000000000";"0";"0";"0";"1";"av";"env";"CBC_1002_MSI_AV_v3_Vset4_Aset2_2023-05-31_16h22.12.197.csv"
"CBC_1002";"28";"3";"2";"3";"b";"63";"b";"2,91805869999916467";"1";"1";"2";"hard";"0,95";"0,518518518518518";"0,4814814814814815";"0";"0";"0";"1";"av";"env";"CBC_1002_MSI_AV_v3_Vset4_Aset2_2023-05-31_16h22.12.197.csv"
"CBC_1002";"29";"2";"1";"3";"z";"27";"z";"1,90383479999945848";"1";"1";"2";"hard";"0,95";"0,535714285714286";"0,4642857142857143";"0";"0";"0";"1";"av";"env";"CBC_1002_MSI_AV_v3_Vset4_Aset2_2023-05-31_16h22.12.197.csv"
"CBC_1002";"30";"0";"0";"1";"b";"63";"z";"2,66125459999966552";"0";"0";"2";"hard";"0,95";"0,517241379310345";"0,4827586206896551";"0";"0";"0";"1";"av";"env";"CBC_1002_MSI_AV_v3_Vset4_Aset2_2023-05-31_16h22.12.197.csv"
"CBC_1002";"31";"2";"2";"3";"z";"63";"z";"2,27179230000001553";"1";"1";"2";"hard";"0,95";"0,533333333333333";"0,4666666666666667";"0";"0";"0";"1";"av";"env";"CBC_1002_MSI_AV_v3_Vset4_Aset2_2023-05-31_16h22.12.197.csv"
"CBC_1002";"32";"1";"1";"2";"b";"9";"None";NA;NA;"3";"2";"hard";"0,95";"0,533333333333333";"0,4666666666666667";NA;NA;"1";"0";"av";"env";"CBC_1002_MSI_AV_v3_Vset4_Aset2_2023-05-31_16h22.12.197.csv"
"CBC_1002";"33";"0";"0";"1";"b";"63";"b";"2,15678719999959867";"1";"1";"2";"hard";"0,95";"0,548387096774194";"0,4516129032258065";"0";"0";"0";"1";"av";"env";"CBC_1002_MSI_AV_v3_Vset4_Aset2_2023-05-31_16h22.12.197.csv"
"CBC_1002";"34";"3";"1";"2";"z";"9";"b";"3,00989320000007865";"0";"0";"2";"hard";"0,95";"0,531250000000000";"0,4687500000000000";"0";"0";"0";"1";"av";"env";"CBC_1002_MSI_AV_v3_Vset4_Aset2_2023-05-31_16h22.12.197.csv"
"CBC_1002";"35";"0";"1";"0";"z";"63";"z";"2,48333329999877606";"1";"0";"2";"hard";"0,95";"0,545454545454545";"0,4545454545454546";"0";"0";"0";"1";"av";"env";"CBC_1002_MSI_AV_v3_Vset4_Aset2_2023-05-31_16h22.12.197.csv"
"CBC_1002";"36";"1";"1";"0";"b";"63";"None";NA;NA;"3";"2";"hard";"0,95";"0,545454545454545";"0,4545454545454546";NA;NA;"1";"0";"av";"env";"CBC_1002_MSI_AV_v3_Vset4_Aset2_2023-05-31_16h22.12.197.csv"
"CBC_1002";"37";"2";"3";"1";"b";"27";"None";NA;NA;"3";"2";"hard";"0,95";"0,545454545454545";"0,4545454545454546";NA;NA;"1";"0";"av";"env";"CBC_1002_MSI_AV_v3_Vset4_Aset2_2023-05-31_16h22.12.197.csv"
"CBC_1002";"38";"1";"0";"1";"z";"63";"z";"1,79498210000019753";"1";"1";"2";"hard";"0,95";"0,558823529411765";"0,4411764705882353";"0";"0";"0";"1";"av";"env";"CBC_1002_MSI_AV_v3_Vset4_Aset2_2023-05-31_16h22.12.197.csv"
"CBC_1002";"39";"3";"2";"3";"b";"63";"z";"2,19172469999830355";"0";"0";"2";"hard";"0,95";"0,542857142857143";"0,4571428571428572";"0";"0";"0";"1";"av";"env";"CBC_1002_MSI_AV_v3_Vset4_Aset2_2023-05-31_16h22.12.197.csv"
"CBC_1002";"40";"0";"2";"0";"z";"27";"z";"2,24036490000071353";"1";"1";"2";"hard";"0,95";"0,555555555555556";"0,4444444444444444";"0";"0";"0";"1";"av";"env";"CBC_1002_MSI_AV_v3_Vset4_Aset2_2023-05-31_16h22.12.197.csv"
"CBC_1002";"41";"2";"3";"2";"b";"63";"b";"1,76541460000044026";"1";"1";"2";"hard";"0,95";"0,567567567567568";"0,4324324324324325";"0";"0";"0";"1";"av";"env";"CBC_1002_MSI_AV_v3_Vset4_Aset2_2023-05-31_16h22.12.197.csv"
"CBC_1002";"42";"1";"3";"1";"z";"27";"None";NA;NA;"3";"2";"hard";"0,95";"0,567567567567568";"0,4324324324324325";NA;NA;"1";"0";"av";"env";"CBC_1002_MSI_AV_v3_Vset4_Aset2_2023-05-31_16h22.12.197.csv"
"CBC_1002";"43";"3";"2";"3";"b";"63";"b";"2,30506380000042554";"1";"1";"2";"hard";"0,95";"0,578947368421053";"0,4210526315789473";"0";"0";"0";"1";"av";"env";"CBC_1002_MSI_AV_v3_Vset4_Aset2_2023-05-31_16h22.12.197.csv"
"CBC_1002";"0";"1";"1";"0";"b";"63";"z";"2,33809720000135712";"0";"0";"3";"hard";"0,95";"0,000000000000000";"1,0000000000000000";"0";"0";"0";"1";"tv";"vib";"CBC_1002_MSI_TV_v3_Vset6_Tset1_2023-05-31_17h12.40.954.csv"
"CBC_1002";"1";"0";"0";"1";"b";"63";"b";"3,02907140000206709";"1";"1";"3";"hard";"0,95";"0,500000000000000";"0,5000000000000000";"0";"0";"0";"1";"tv";"vib";"CBC_1002_MSI_TV_v3_Vset6_Tset1_2023-05-31_17h12.40.954.csv"
"CBC_1002";"2";"3";"1";"2";"z";"9";"z";"2,47580490000109421";"1";"1";"3";"hard";"0,95";"0,666666666666667";"0,3333333333333334";"0";"0";"0";"1";"tv";"vib";"CBC_1002_MSI_TV_v3_Vset6_Tset1_2023-05-31_17h12.40.954.csv"
"CBC_1002";"3";"0";"1";"0";"z";"63";"z";"2,70095760000185692";"1";"1";"3";"hard";"0,95";"0,750000000000000";"0,2500000000000000";"0";"0";"0";"1";"tv";"vib";"CBC_1002_MSI_TV_v3_Vset6_Tset1_2023-05-31_17h12.40.954.csv"
"CBC_1002";"4";"2";"3";"1";"b";"27";"b";"2,45134560000042256";"1";"1";"3";"hard";"0,95";"0,800000000000000";"0,2000000000000000";"0";"0";"0";"1";"tv";"vib";"CBC_1002_MSI_TV_v3_Vset6_Tset1_2023-05-31_17h12.40.954.csv"
"CBC_1002";"5";"1";"0";"1";"z";"63";"z";"2,92743830000108574";"1";"1";"3";"hard";"0,95";"0,833333333333333";"0,1666666666666666";"0";"0";"0";"1";"tv";"vib";"CBC_1002_MSI_TV_v3_Vset6_Tset1_2023-05-31_17h12.40.954.csv"
"CBC_1002";"6";"3";"2";"3";"b";"63";"z";"3,31804630000078760";"0";"0";"3";"hard";"0,95";"0,714285714285714";"0,2857142857142857";"0";"0";"0";"1";"tv";"vib";"CBC_1002_MSI_TV_v3_Vset6_Tset1_2023-05-31_17h12.40.954.csv"
"CBC_1002";"7";"0";"2";"0";"z";"27";"z";"2,28342380000140110";"1";"1";"3";"hard";"0,95";"0,750000000000000";"0,2500000000000000";"0";"0";"0";"1";"tv";"vib";"CBC_1002_MSI_TV_v3_Vset6_Tset1_2023-05-31_17h12.40.954.csv"
"CBC_1002";"8";"2";"3";"2";"b";"63";"b";"2,63851320000139822";"1";"1";"3";"hard";"0,95";"0,777777777777778";"0,2222222222222222";"0";"0";"0";"1";"tv";"vib";"CBC_1002_MSI_TV_v3_Vset6_Tset1_2023-05-31_17h12.40.954.csv"
"CBC_1002";"9";"1";"3";"1";"z";"27";"z";"2,49450160000196774";"1";"1";"3";"hard";"0,95";"0,800000000000000";"0,2000000000000000";"0";"0";"0";"1";"tv";"vib";"CBC_1002_MSI_TV_v3_Vset6_Tset1_2023-05-31_17h12.40.954.csv"
"CBC_1002";"10";"3";"3";"2";"z";"63";"b";"2,01906540000163659";"0";"0";"3";"hard";"0,95";"0,727272727272727";"0,2727272727272727";"0";"0";"0";"1";"tv";"vib";"CBC_1002_MSI_TV_v3_Vset6_Tset1_2023-05-31_17h12.40.954.csv"
"CBC_1002";"11";"1";"1";"3";"b";"27";"z";"2,20542430000023160";"0";"0";"3";"hard";"0,95";"0,666666666666667";"0,3333333333333334";"0";"0";"0";"1";"tv";"vib";"CBC_1002_MSI_TV_v3_Vset6_Tset1_2023-05-31_17h12.40.954.csv"
"CBC_1002";"12";"3";"3";"2";"z";"63";"z";"2,31810980000227573";"1";"1";"3";"hard";"0,95";"0,692307692307692";"0,3076923076923077";"0";"0";"0";"1";"tv";"vib";"CBC_1002_MSI_TV_v3_Vset6_Tset1_2023-05-31_17h12.40.954.csv"
"CBC_1002";"13";"2";"3";"2";"b";"63";"z";"2,32698890000210667";"0";"0";"3";"hard";"0,95";"0,642857142857143";"0,3571428571428571";"0";"0";"0";"1";"tv";"vib";"CBC_1002_MSI_TV_v3_Vset6_Tset1_2023-05-31_17h12.40.954.csv"
"CBC_1002";"14";"0";"0";"3";"b";"9";"b";"1,61212570000134292";"1";"1";"3";"hard";"0,95";"0,666666666666667";"0,3333333333333334";"0";"0";"0";"1";"tv";"vib";"CBC_1002_MSI_TV_v3_Vset6_Tset1_2023-05-31_17h12.40.954.csv"
"CBC_1002";"15";"1";"0";"1";"z";"63";"z";"1,50462030000016966";"1";"0";"3";"hard";"0,95";"0,687500000000000";"0,3125000000000000";"0";"0";"0";"1";"tv";"vib";"CBC_1002_MSI_TV_v3_Vset6_Tset1_2023-05-31_17h12.40.954.csv"
"CBC_1002";"16";"2";"2";"3";"z";"63";"b";"2,36206190000120841";"0";"0";"3";"hard";"0,95";"0,647058823529412";"0,3529411764705882";"0";"0";"0";"1";"tv";"vib";"CBC_1002_MSI_TV_v3_Vset6_Tset1_2023-05-31_17h12.40.954.csv"
"CBC_1002";"17";"3";"0";"2";"z";"27";"z";"2,35732000000098196";"1";"1";"3";"hard";"0,95";"0,666666666666667";"0,3333333333333334";"0";"0";"0";"1";"tv";"vib";"CBC_1002_MSI_TV_v3_Vset6_Tset1_2023-05-31_17h12.40.954.csv"
"CBC_1002";"18";"0";"0";"1";"b";"63";"b";"1,85151530000075581";"1";"1";"3";"hard";"0,95";"0,684210526315789";"0,3157894736842105";"0";"0";"0";"1";"tv";"vib";"CBC_1002_MSI_TV_v3_Vset6_Tset1_2023-05-31_17h12.40.954.csv"
"CBC_1002";"19";"1";"1";"0";"b";"63";"b";"2,55164630000035686";"1";"1";"3";"hard";"0,95";"0,700000000000000";"0,3000000000000000";"0";"0";"0";"1";"tv";"vib";"CBC_1002_MSI_TV_v3_Vset6_Tset1_2023-05-31_17h12.40.954.csv"
"CBC_1002";"20";"2";"1";"3";"z";"27";"z";"1,79573119999986375";"1";"1";"3";"hard";"0,95";"0,714285714285714";"0,2857142857142857";"0";"0";"0";"1";"tv";"vib";"CBC_1002_MSI_TV_v3_Vset6_Tset1_2023-05-31_17h12.40.954.csv"
"CBC_1002";"21";"3";"3";"2";"z";"63";"z";"1,88011060000098951";"1";"1";"3";"hard";"0,95";"0,727272727272727";"0,2727272727272727";"0";"0";"0";"1";"tv";"vib";"CBC_1002_MSI_TV_v3_Vset6_Tset1_2023-05-31_17h12.40.954.csv"
"CBC_1002";"22";"0";"0";"1";"b";"63";"b";"1,37910180000108085";"1";"1";"3";"hard";"0,95";"0,739130434782609";"0,2608695652173914";"0";"0";"0";"1";"tv";"vib";"CBC_1002_MSI_TV_v3_Vset6_Tset1_2023-05-31_17h12.40.954.csv"
"CBC_1002";"23";"2";"2";"3";"z";"63";"b";"2,26263090000065858";"0";"0";"3";"hard";"0,95";"0,708333333333333";"0,2916666666666666";"0";"0";"0";"1";"tv";"vib";"CBC_1002_MSI_TV_v3_Vset6_Tset1_2023-05-31_17h12.40.954.csv"
"CBC_1002";"24";"3";"2";"0";"b";"27";"z";"1,88423610000245390";"0";"0";"3";"hard";"0,95";"0,680000000000000";"0,3200000000000000";"0";"0";"0";"1";"tv";"vib";"CBC_1002_MSI_TV_v3_Vset6_Tset1_2023-05-31_17h12.40.954.csv"
"CBC_1002";"25";"0";"0";"1";"b";"63";"b";"1,12728930000230321";"1";"1";"3";"hard";"0,95";"0,692307692307692";"0,3076923076923077";"0";"0";"0";"1";"tv";"vib";"CBC_1002_MSI_TV_v3_Vset6_Tset1_2023-05-31_17h12.40.954.csv"
"CBC_1002";"26";"1";"1";"3";"b";"27";"b";"2,34335800000189920";"1";"1";"3";"hard";"0,95";"0,703703703703704";"0,2962962962962963";"0";"0";"0";"1";"tv";"vib";"CBC_1002_MSI_TV_v3_Vset6_Tset1_2023-05-31_17h12.40.954.csv"
"CBC_1002";"27";"3";"3";"2";"z";"63";"b";"2,44878150000113237";"0";"0";"3";"hard";"0,95";"0,678571428571429";"0,3214285714285714";"0";"0";"0";"1";"tv";"vib";"CBC_1002_MSI_TV_v3_Vset6_Tset1_2023-05-31_17h12.40.954.csv"
"CBC_1002";"28";"2";"3";"2";"b";"63";"z";"2,64577470000222092";"0";"0";"3";"hard";"0,95";"0,655172413793103";"0,3448275862068966";"0";"0";"0";"1";"tv";"vib";"CBC_1002_MSI_TV_v3_Vset6_Tset1_2023-05-31_17h12.40.954.csv"
"CBC_1002";"29";"1";"0";"1";"z";"63";"b";"1,51071720000072673";"0";"0";"3";"hard";"0,95";"0,633333333333333";"0,3666666666666667";"0";"0";"0";"1";"tv";"vib";"CBC_1002_MSI_TV_v3_Vset6_Tset1_2023-05-31_17h12.40.954.csv"
"CBC_1002";"30";"0";"2";"0";"z";"27";"b";"1,17759560000195052";"0";"0";"3";"hard";"0,95";"0,612903225806452";"0,3870967741935484";"0";"0";"0";"1";"tv";"vib";"CBC_1002_MSI_TV_v3_Vset6_Tset1_2023-05-31_17h12.40.954.csv"
"CBC_1002";"31";"2";"3";"0";"b";"9";"b";"1,90783259999989241";"1";"1";"3";"hard";"0,95";"0,625000000000000";"0,3750000000000000";"0";"0";"0";"1";"tv";"vib";"CBC_1002_MSI_TV_v3_Vset6_Tset1_2023-05-31_17h12.40.954.csv"
"CBC_1002";"32";"3";"3";"2";"z";"63";"z";"2,25321580000127142";"1";"1";"3";"hard";"0,95";"0,636363636363636";"0,3636363636363636";"0";"0";"0";"1";"tv";"vib";"CBC_1002_MSI_TV_v3_Vset6_Tset1_2023-05-31_17h12.40.954.csv"
"CBC_1002";"33";"1";"0";"1";"z";"63";"z";"1,97455180000179098";"1";"1";"3";"hard";"0,95";"0,647058823529412";"0,3529411764705882";"0";"0";"0";"1";"tv";"vib";"CBC_1002_MSI_TV_v3_Vset6_Tset1_2023-05-31_17h12.40.954.csv"
"CBC_1002";"34";"0";"0";"1";"b";"63";"b";"1,16207510000094771";"1";"0";"3";"hard";"0,95";"0,657142857142857";"0,3428571428571429";"0";"0";"0";"1";"tv";"vib";"CBC_1002_MSI_TV_v3_Vset6_Tset1_2023-05-31_17h12.40.954.csv"
"CBC_1002";"35";"2";"2";"3";"z";"63";"b";"2,29646160000083910";"0";"0";"3";"hard";"0,95";"0,638888888888889";"0,3611111111111112";"0";"0";"0";"1";"tv";"vib";"CBC_1002_MSI_TV_v3_Vset6_Tset1_2023-05-31_17h12.40.954.csv"
"CBC_1002";"36";"1";"1";"2";"b";"9";"z";"2,23231690000102390";"0";"0";"3";"hard";"0,95";"0,621621621621622";"0,3783783783783784";"0";"0";"0";"1";"tv";"vib";"CBC_1002_MSI_TV_v3_Vset6_Tset1_2023-05-31_17h12.40.954.csv"
"CBC_1002";"37";"0";"2";"0";"z";"27";"z";"1,34100040000157605";"1";"1";"3";"hard";"0,95";"0,631578947368421";"0,3684210526315790";"0";"0";"0";"1";"tv";"vib";"CBC_1002_MSI_TV_v3_Vset6_Tset1_2023-05-31_17h12.40.954.csv"
"CBC_1002";"38";"3";"2";"3";"b";"63";"z";"1,86477949999971315";"0";"0";"3";"hard";"0,95";"0,615384615384615";"0,3846153846153846";"0";"0";"0";"1";"tv";"vib";"CBC_1002_MSI_TV_v3_Vset6_Tset1_2023-05-31_17h12.40.954.csv"
"CBC_1002";"39";"2";"1";"3";"z";"27";"z";"2,35802960000182793";"1";"1";"3";"hard";"0,95";"0,625000000000000";"0,3750000000000000";"0";"0";"0";"1";"tv";"vib";"CBC_1002_MSI_TV_v3_Vset6_Tset1_2023-05-31_17h12.40.954.csv"
"CBC_1002";"40";"0";"0";"1";"b";"63";"b";"1,15649170000142476";"1";"1";"3";"hard";"0,95";"0,634146341463415";"0,3658536585365854";"0";"0";"0";"1";"tv";"vib";"CBC_1002_MSI_TV_v3_Vset6_Tset1_2023-05-31_17h12.40.954.csv"
"CBC_1002";"41";"3";"0";"2";"z";"27";"z";"1,51424440000118921";"1";"1";"3";"hard";"0,95";"0,642857142857143";"0,3571428571428571";"0";"0";"0";"1";"tv";"vib";"CBC_1002_MSI_TV_v3_Vset6_Tset1_2023-05-31_17h12.40.954.csv"
"CBC_1002";"42";"2";"3";"2";"b";"63";"z";"2,12938000000031025";"0";"0";"3";"hard";"0,95";"0,627906976744186";"0,3720930232558139";"0";"0";"0";"1";"tv";"vib";"CBC_1002_MSI_TV_v3_Vset6_Tset1_2023-05-31_17h12.40.954.csv"
"CBC_1002";"43";"1";"1";"0";"b";"63";"b";"2,59006109999972978";"1";"1";"3";"hard";"0,95";"0,636363636363636";"0,3636363636363636";"0";"0";"0";"1";"tv";"vib";"CBC_1002_MSI_TV_v3_Vset6_Tset1_2023-05-31_17h12.40.954.csv"
"CBC_1002";"0";"1";"1";"0";"b";"63";"b";"2,06224270000166143";"1";"1";"4";"hard";"0,95";"1,000000000000000";"0,0000000000000000";"0";"0";"0";"1";"av";"env";"CBC_1002_MSI_AV_v3_Vset3_Aset1_2023-05-31_17h20.54.856.csv"
"CBC_1002";"1";"2";"3";"2";"b";"63";"z";"2,26929200000267883";"0";"0";"4";"hard";"0,95";"0,500000000000000";"0,5000000000000000";"0";"0";"0";"1";"av";"env";"CBC_1002_MSI_AV_v3_Vset3_Aset1_2023-05-31_17h20.54.856.csv"
"CBC_1002";"2";"1";"3";"1";"z";"27";"z";"2,39370660000167845";"1";"1";"4";"hard";"0,95";"0,666666666666667";"0,3333333333333334";"0";"0";"0";"1";"av";"env";"CBC_1002_MSI_AV_v3_Vset3_Aset1_2023-05-31_17h20.54.856.csv"
"CBC_1002";"3";"3";"2";"3";"b";"63";"b";"1,92940550000275834";"1";"1";"4";"hard";"0,95";"0,750000000000000";"0,2500000000000000";"0";"0";"0";"1";"av";"env";"CBC_1002_MSI_AV_v3_Vset3_Aset1_2023-05-31_17h20.54.856.csv"
"CBC_1002";"4";"3";"0";"2";"z";"27";"z";"1,52574140000069747";"1";"1";"4";"hard";"0,95";"0,800000000000000";"0,2000000000000000";"0";"0";"0";"1";"av";"env";"CBC_1002_MSI_AV_v3_Vset3_Aset1_2023-05-31_17h20.54.856.csv"
"CBC_1002";"5";"0";"0";"3";"b";"9";"b";"2,04926400000113063";"1";"1";"4";"hard";"0,95";"0,833333333333333";"0,1666666666666666";"0";"0";"0";"1";"av";"env";"CBC_1002_MSI_AV_v3_Vset3_Aset1_2023-05-31_17h20.54.856.csv"
"CBC_1002";"6";"3";"2";"3";"b";"63";"b";"1,78985090000060154";"1";"1";"4";"hard";"0,95";"0,857142857142857";"0,1428571428571429";"0";"0";"0";"1";"av";"env";"CBC_1002_MSI_AV_v3_Vset3_Aset1_2023-05-31_17h20.54.856.csv"
"CBC_1002";"7";"0";"1";"0";"z";"63";"z";"1,21237880000080622";"1";"1";"4";"hard";"0,95";"0,875000000000000";"0,1250000000000000";"0";"0";"0";"1";"av";"env";"CBC_1002_MSI_AV_v3_Vset3_Aset1_2023-05-31_17h20.54.856.csv"
"CBC_1002";"8";"2";"2";"3";"z";"63";"z";"1,64772040000025299";"1";"1";"4";"hard";"0,95";"0,888888888888889";"0,1111111111111112";"0";"0";"0";"1";"av";"env";"CBC_1002_MSI_AV_v3_Vset3_Aset1_2023-05-31_17h20.54.856.csv"
"CBC_1002";"9";"3";"3";"2";"z";"63";"z";"1,52079180000146152";"1";"1";"4";"hard";"0,95";"0,900000000000000";"0,1000000000000000";"0";"0";"0";"1";"av";"env";"CBC_1002_MSI_AV_v3_Vset3_Aset1_2023-05-31_17h20.54.856.csv"
"CBC_1002";"10";"2";"3";"1";"b";"27";"b";"2,84143030000086583";"1";"1";"4";"hard";"0,95";"0,909090909090909";"0,0909090909090909";"0";"0";"0";"1";"av";"env";"CBC_1002_MSI_AV_v3_Vset3_Aset1_2023-05-31_17h20.54.856.csv"
"CBC_1002";"11";"0";"0";"1";"b";"63";"b";"0,96670780000204104";"1";"0";"4";"hard";"0,95";"0,916666666666667";"0,0833333333333334";"0";"0";"0";"1";"av";"env";"CBC_1002_MSI_AV_v3_Vset3_Aset1_2023-05-31_17h20.54.856.csv"
"CBC_1002";"12";"3";"3";"2";"z";"63";"z";"1,46798470000067027";"1";"1";"4";"hard";"0,95";"0,923076923076923";"0,0769230769230769";"0";"0";"0";"1";"av";"env";"CBC_1002_MSI_AV_v3_Vset3_Aset1_2023-05-31_17h20.54.856.csv"
"CBC_1002";"13";"0";"2";"0";"z";"27";"z";"1,39500660000157950";"1";"1";"4";"hard";"0,95";"0,928571428571429";"0,0714285714285714";"0";"0";"0";"1";"av";"env";"CBC_1002_MSI_AV_v3_Vset3_Aset1_2023-05-31_17h20.54.856.csv"
"CBC_1002";"14";"1";"1";"0";"b";"63";"b";"1,74498110000058659";"1";"1";"4";"hard";"0,95";"0,933333333333333";"0,0666666666666667";"0";"0";"0";"1";"av";"env";"CBC_1002_MSI_AV_v3_Vset3_Aset1_2023-05-31_17h20.54.856.csv"
"CBC_1002";"15";"2";"2";"3";"z";"63";"z";"1,77753130000201054";"1";"1";"4";"hard";"0,95";"0,937500000000000";"0,0625000000000000";"0";"0";"0";"1";"av";"env";"CBC_1002_MSI_AV_v3_Vset3_Aset1_2023-05-31_17h20.54.856.csv"
"CBC_1002";"16";"1";"2";"1";"z";"9";"z";"0,96531530000174826";"1";"1";"4";"hard";"0,95";"0,941176470588235";"0,0588235294117647";"0";"0";"0";"1";"av";"env";"CBC_1002_MSI_AV_v3_Vset3_Aset1_2023-05-31_17h20.54.856.csv"
"CBC_1002";"17";"2";"3";"1";"b";"27";"b";"1,39662040000075649";"1";"1";"4";"hard";"0,95";"0,944444444444444";"0,0555555555555556";"0";"0";"0";"1";"av";"env";"CBC_1002_MSI_AV_v3_Vset3_Aset1_2023-05-31_17h20.54.856.csv"
"CBC_1002";"18";"0";"1";"0";"z";"63";"z";"1,49231930000132706";"1";"1";"4";"hard";"0,95";"0,947368421052632";"0,0526315789473685";"0";"0";"0";"1";"av";"env";"CBC_1002_MSI_AV_v3_Vset3_Aset1_2023-05-31_17h20.54.856.csv"
"CBC_1002";"19";"0";"0";"1";"b";"63";"b";"1,41829510000206938";"1";"1";"4";"hard";"0,95";"0,950000000000000";"0,0500000000000000";"0";"0";"0";"1";"av";"env";"CBC_1002_MSI_AV_v3_Vset3_Aset1_2023-05-31_17h20.54.856.csv"
"CBC_1002";"20";"3";"0";"2";"z";"27";"z";"1,06797990000086429";"1";"1";"4";"hard";"0,95";"0,952380952380952";"0,0476190476190477";"0";"0";"0";"1";"av";"env";"CBC_1002_MSI_AV_v3_Vset3_Aset1_2023-05-31_17h20.54.856.csv"
"CBC_1002";"21";"1";"1";"0";"b";"63";"b";"1,26208210000186227";"1";"1";"4";"hard";"0,95";"0,954545454545455";"0,0454545454545454";"0";"0";"0";"1";"av";"env";"CBC_1002_MSI_AV_v3_Vset3_Aset1_2023-05-31_17h20.54.856.csv"
"CBC_1002";"22";"3";"0";"2";"z";"27";"z";"2,00100540000130422";"1";"1";"4";"hard";"0,95";"0,956521739130435";"0,0434782608695652";"0";"0";"0";"1";"av";"env";"CBC_1002_MSI_AV_v3_Vset3_Aset1_2023-05-31_17h20.54.856.csv"
"CBC_1002";"23";"2";"2";"3";"z";"63";"z";"1,60683930000232067";"1";"1";"4";"hard";"0,95";"0,958333333333333";"0,0416666666666666";"0";"0";"0";"1";"av";"env";"CBC_1002_MSI_AV_v3_Vset3_Aset1_2023-05-31_17h20.54.856.csv"
"CBC_1002";"24";"0";"0";"1";"b";"63";"b";"1,27605740000217338";"1";"1";"4";"hard";"0,95";"0,960000000000000";"0,0400000000000000";"0";"0";"0";"1";"av";"env";"CBC_1002_MSI_AV_v3_Vset3_Aset1_2023-05-31_17h20.54.856.csv"
"CBC_1002";"25";"3";"2";"3";"b";"63";"z";"2,19240080000236048";"0";"0";"4";"hard";"0,95";"0,923076923076923";"0,0769230769230769";"0";"0";"0";"1";"av";"env";"CBC_1002_MSI_AV_v3_Vset3_Aset1_2023-05-31_17h20.54.856.csv"
"CBC_1002";"26";"0";"0";"2";"b";"27";"None";NA;NA;"3";"4";"hard";"0,95";"0,923076923076923";"0,0769230769230769";NA;NA;"1";"0";"av";"env";"CBC_1002_MSI_AV_v3_Vset3_Aset1_2023-05-31_17h20.54.856.csv"
"CBC_1002";"27";"2";"2";"3";"z";"63";"b";"1,57250550000208023";"0";"0";"4";"hard";"0,95";"0,888888888888889";"0,1111111111111112";"0";"0";"0";"1";"av";"env";"CBC_1002_MSI_AV_v3_Vset3_Aset1_2023-05-31_17h20.54.856.csv"
"CBC_1002";"28";"2";"2";"3";"z";"63";"z";"1,45840460000181338";"1";"1";"4";"hard";"0,95";"0,892857142857143";"0,1071428571428571";"0";"0";"0";"1";"av";"env";"CBC_1002_MSI_AV_v3_Vset3_Aset1_2023-05-31_17h20.54.856.csv"
"CBC_1002";"29";"1";"1";"3";"b";"27";"b";"1,08434410000154458";"1";"1";"4";"hard";"0,95";"0,896551724137931";"0,1034482758620690";"0";"0";"0";"1";"av";"env";"CBC_1002_MSI_AV_v3_Vset3_Aset1_2023-05-31_17h20.54.856.csv"
"CBC_1002";"30";"2";"3";"0";"b";"9";"b";"1,47672850000162725";"1";"1";"4";"hard";"0,95";"0,900000000000000";"0,1000000000000000";"0";"0";"0";"1";"av";"env";"CBC_1002_MSI_AV_v3_Vset3_Aset1_2023-05-31_17h20.54.856.csv"
"CBC_1002";"31";"1";"0";"1";"z";"63";"z";"0,91163780000169936";"1";"1";"4";"hard";"0,95";"0,903225806451613";"0,0967741935483871";"0";"0";"0";"1";"av";"env";"CBC_1002_MSI_AV_v3_Vset3_Aset1_2023-05-31_17h20.54.856.csv"
"CBC_1002";"32";"0";"0";"1";"b";"63";"b";"1,71929079999972600";"1";"1";"4";"hard";"0,95";"0,906250000000000";"0,0937500000000000";"0";"0";"0";"1";"av";"env";"CBC_1002_MSI_AV_v3_Vset3_Aset1_2023-05-31_17h20.54.856.csv"
"CBC_1002";"33";"0";"1";"0";"z";"63";"b";"1,15117450000070676";"0";"0";"4";"hard";"0,95";"0,878787878787879";"0,1212121212121212";"0";"0";"0";"1";"av";"env";"CBC_1002_MSI_AV_v3_Vset3_Aset1_2023-05-31_17h20.54.856.csv"
"CBC_1002";"34";"3";"2";"3";"b";"63";"b";"2,58906270000079530";"1";"1";"4";"hard";"0,95";"0,882352941176471";"0,1176470588235294";"0";"0";"0";"1";"av";"env";"CBC_1002_MSI_AV_v3_Vset3_Aset1_2023-05-31_17h20.54.856.csv"
"CBC_1002";"35";"0";"2";"0";"z";"27";"b";"1,76207000000067637";"0";"0";"4";"hard";"0,95";"0,857142857142857";"0,1428571428571429";"0";"0";"0";"1";"av";"env";"CBC_1002_MSI_AV_v3_Vset3_Aset1_2023-05-31_17h20.54.856.csv"
"CBC_1002";"36";"1";"0";"1";"z";"63";"z";"0,87614829999984067";"1";"1";"4";"hard";"0,95";"0,861111111111111";"0,1388888888888888";"0";"0";"0";"1";"av";"env";"CBC_1002_MSI_AV_v3_Vset3_Aset1_2023-05-31_17h20.54.856.csv"
"CBC_1002";"37";"1";"1";"3";"b";"27";"b";"0,85330250000151864";"1";"1";"4";"hard";"0,95";"0,864864864864865";"0,1351351351351351";"0";"0";"0";"1";"av";"env";"CBC_1002_MSI_AV_v3_Vset3_Aset1_2023-05-31_17h20.54.856.csv"
"CBC_1002";"38";"3";"2";"3";"b";"63";"b";"3,08147140000073705";"1";"1";"4";"hard";"0,95";"0,868421052631579";"0,1315789473684210";"0";"0";"0";"1";"av";"env";"CBC_1002_MSI_AV_v3_Vset3_Aset1_2023-05-31_17h20.54.856.csv"
"CBC_1002";"39";"2";"1";"3";"z";"27";"z";"1,67193630000110716";"1";"1";"4";"hard";"0,95";"0,871794871794872";"0,1282051282051282";"0";"0";"0";"1";"av";"env";"CBC_1002_MSI_AV_v3_Vset3_Aset1_2023-05-31_17h20.54.856.csv"
"CBC_1002";"40";"3";"2";"1";"b";"9";"b";"2,20464370000081544";"1";"1";"4";"hard";"0,95";"0,875000000000000";"0,1250000000000000";"0";"0";"0";"1";"av";"env";"CBC_1002_MSI_AV_v3_Vset3_Aset1_2023-05-31_17h20.54.856.csv"
"CBC_1002";"41";"1";"1";"0";"b";"63";"b";"3,10125650000190944";"1";"0";"4";"hard";"0,95";"0,878048780487805";"0,1219512195121951";"0";"0";"0";"1";"av";"env";"CBC_1002_MSI_AV_v3_Vset3_Aset1_2023-05-31_17h20.54.856.csv"
"CBC_1002";"42";"2";"2";"3";"z";"63";"z";"1,80477750000136439";"1";"1";"4";"hard";"0,95";"0,880952380952381";"0,1190476190476191";"0";"0";"0";"1";"av";"env";"CBC_1002_MSI_AV_v3_Vset3_Aset1_2023-05-31_17h20.54.856.csv"
"CBC_1002";"43";"1";"0";"1";"z";"63";"z";"1,12610360000144283";"1";"1";"4";"hard";"0,95";"0,883720930232558";"0,1162790697674418";"0";"0";"0";"1";"av";"env";"CBC_1002_MSI_AV_v3_Vset3_Aset1_2023-05-31_17h20.54.856.csv"
"CBC_1003";"0";"2";"0";"1";"z";"63";"z";"2,38535430000047199";"1";"1";"1";"hard";"0,80";"1,000000000000000";"0,0000000000000000";"0";"0";"0";"1";"av";"env";"CBC_1003_MSI_AV_v3_Vset4_Aset3_2023-06-14_14h56.33.053.csv"
"CBC_1003";"1";"0";"0";"1";"b";"63";"b";"1,41755640000019412";"1";"1";"1";"hard";"0,80";"1,000000000000000";"0,0000000000000000";"0";"0";"0";"1";"av";"env";"CBC_1003_MSI_AV_v3_Vset4_Aset3_2023-06-14_14h56.33.053.csv"
"CBC_1003";"2";"3";"2";"3";"z";"63";"b";"2,72811800000044968";"0";"0";"1";"hard";"0,80";"0,666666666666667";"0,3333333333333334";"0";"0";"0";"1";"av";"env";"CBC_1003_MSI_AV_v3_Vset4_Aset3_2023-06-14_14h56.33.053.csv"
"CBC_1003";"3";"2";"2";"1";"z";"9";"b";"1,10040400000025329";"0";"0";"1";"hard";"0,80";"0,500000000000000";"0,5000000000000000";"0";"0";"0";"1";"av";"env";"CBC_1003_MSI_AV_v3_Vset4_Aset3_2023-06-14_14h56.33.053.csv"
"CBC_1003";"4";"0";"0";"2";"b";"27";"b";"1,65205319999995481";"1";"1";"1";"hard";"0,80";"0,600000000000000";"0,4000000000000000";"0";"0";"0";"1";"av";"env";"CBC_1003_MSI_AV_v3_Vset4_Aset3_2023-06-14_14h56.33.053.csv"
"CBC_1003";"5";"1";"2";"3";"b";"63";"z";"1,58538200000020879";"0";"0";"1";"hard";"0,80";"0,500000000000000";"0,5000000000000000";"0";"0";"0";"1";"av";"env";"CBC_1003_MSI_AV_v3_Vset4_Aset3_2023-06-14_14h56.33.053.csv"
"CBC_1003";"6";"3";"1";"3";"z";"27";"b";"2,61227619999999661";"0";"0";"1";"hard";"0,80";"0,428571428571429";"0,5714285714285714";"0";"0";"0";"1";"av";"env";"CBC_1003_MSI_AV_v3_Vset4_Aset3_2023-06-14_14h56.33.053.csv"
"CBC_1003";"7";"0";"1";"0";"z";"63";"z";"1,71038850000013554";"1";"0";"1";"hard";"0,80";"0,500000000000000";"0,5000000000000000";"0";"0";"0";"1";"av";"env";"CBC_1003_MSI_AV_v3_Vset4_Aset3_2023-06-14_14h56.33.053.csv"
"CBC_1003";"8";"1";"2";"0";"b";"27";"z";"3,08627569999998741";"0";"0";"1";"hard";"0,80";"0,444444444444444";"0,5555555555555556";"0";"0";"0";"1";"av";"env";"CBC_1003_MSI_AV_v3_Vset4_Aset3_2023-06-14_14h56.33.053.csv"
"CBC_1003";"9";"3";"2";"3";"z";"63";"b";"1,23571100000026490";"0";"0";"1";"hard";"0,80";"0,400000000000000";"0,6000000000000000";"0";"0";"0";"1";"av";"env";"CBC_1003_MSI_AV_v3_Vset4_Aset3_2023-06-14_14h56.33.053.csv"
"CBC_1003";"10";"2";"1";"0";"b";"63";"b";"2,07027520000019649";"1";"0";"1";"hard";"0,80";"0,454545454545455";"0,5454545454545454";"0";"0";"0";"1";"av";"env";"CBC_1003_MSI_AV_v3_Vset4_Aset3_2023-06-14_14h56.33.053.csv"
"CBC_1003";"11";"0";"0";"1";"b";"63";"z";"3,86236020000023927";"0";"0";"1";"hard";"0,80";"0,416666666666667";"0,5833333333333333";"0";"0";"0";"1";"av";"env";"CBC_1003_MSI_AV_v3_Vset4_Aset3_2023-06-14_14h56.33.053.csv"
"CBC_1003";"12";"3";"2";"3";"z";"63";"z";"2,65914390000034473";"1";"1";"1";"hard";"0,80";"0,461538461538462";"0,5384615384615384";"0";"0";"0";"1";"av";"env";"CBC_1003_MSI_AV_v3_Vset4_Aset3_2023-06-14_14h56.33.053.csv"
"CBC_1003";"13";"1";"2";"0";"b";"27";"None";NA;NA;"3";"1";"hard";"0,80";"0,461538461538462";"0,5384615384615384";NA;NA;"1";"0";"av";"env";"CBC_1003_MSI_AV_v3_Vset4_Aset3_2023-06-14_14h56.33.053.csv"
"CBC_1003";"14";"0";"0";"1";"b";"63";"z";"0,78257729999995718";"0";"0";"1";"hard";"0,80";"0,428571428571429";"0,5714285714285714";"0";"0";"0";"1";"av";"env";"CBC_1003_MSI_AV_v3_Vset4_Aset3_2023-06-14_14h56.33.053.csv"
"CBC_1003";"15";"2";"1";"3";"b";"27";"b";"2,04630210000004809";"1";"1";"1";"hard";"0,80";"0,466666666666667";"0,5333333333333333";"0";"0";"0";"1";"av";"env";"CBC_1003_MSI_AV_v3_Vset4_Aset3_2023-06-14_14h56.33.053.csv"
"CBC_1003";"16";"1";"3";"2";"z";"63";"b";"2,87544449999995777";"0";"0";"1";"hard";"0,80";"0,437500000000000";"0,5625000000000000";"0";"0";"0";"1";"av";"env";"CBC_1003_MSI_AV_v3_Vset4_Aset3_2023-06-14_14h56.33.053.csv"
"CBC_1003";"17";"3";"2";"3";"z";"63";"z";"2,12884309999981269";"1";"0";"1";"hard";"0,80";"0,470588235294118";"0,5294117647058824";"0";"0";"0";"1";"av";"env";"CBC_1003_MSI_AV_v3_Vset4_Aset3_2023-06-14_14h56.33.053.csv"
"CBC_1003";"18";"2";"1";"0";"b";"63";"z";"3,06501950000028955";"0";"0";"1";"hard";"0,80";"0,444444444444444";"0,5555555555555556";"0";"0";"0";"1";"av";"env";"CBC_1003_MSI_AV_v3_Vset4_Aset3_2023-06-14_14h56.33.053.csv"
"CBC_1003";"19";"0";"2";"0";"z";"27";"z";"2,34102950000033161";"1";"1";"1";"hard";"0,80";"0,473684210526316";"0,5263157894736843";"0";"0";"0";"1";"av";"env";"CBC_1003_MSI_AV_v3_Vset4_Aset3_2023-06-14_14h56.33.053.csv"
"CBC_1003";"20";"3";"0";"3";"z";"9";"z";"3,23570209999979852";"1";"1";"1";"hard";"0,80";"0,500000000000000";"0,5000000000000000";"0";"0";"0";"1";"av";"env";"CBC_1003_MSI_AV_v3_Vset4_Aset3_2023-06-14_14h56.33.053.csv"
"CBC_1003";"21";"1";"2";"3";"b";"63";"z";"3,26577190000034534";"0";"0";"1";"hard";"0,80";"0,476190476190476";"0,5238095238095238";"0";"0";"0";"1";"av";"env";"CBC_1003_MSI_AV_v3_Vset4_Aset3_2023-06-14_14h56.33.053.csv"
"CBC_1003";"22";"2";"3";"1";"z";"27";"b";"1,53063940000038201";"0";"0";"1";"hard";"0,80";"0,454545454545455";"0,5454545454545454";"0";"0";"0";"1";"av";"env";"CBC_1003_MSI_AV_v3_Vset4_Aset3_2023-06-14_14h56.33.053.csv"
"CBC_1003";"23";"1";"3";"2";"z";"63";"b";"3,25191650000033405";"0";"0";"1";"hard";"0,80";"0,434782608695652";"0,5652173913043479";"0";"0";"0";"1";"av";"env";"CBC_1003_MSI_AV_v3_Vset4_Aset3_2023-06-14_14h56.33.053.csv"
"CBC_1003";"24";"3";"2";"3";"z";"63";"z";"1,84318369999982679";"1";"1";"1";"hard";"0,80";"0,458333333333333";"0,5416666666666667";"0";"0";"0";"1";"av";"env";"CBC_1003_MSI_AV_v3_Vset4_Aset3_2023-06-14_14h56.33.053.csv"
"CBC_1003";"25";"2";"1";"0";"b";"63";"z";"4,24118630000020858";"0";"0";"1";"hard";"0,80";"0,440000000000000";"0,5600000000000001";"0";"0";"0";"1";"av";"env";"CBC_1003_MSI_AV_v3_Vset4_Aset3_2023-06-14_14h56.33.053.csv"
"CBC_1003";"26";"0";"0";"3";"b";"9";"None";NA;NA;"3";"1";"hard";"0,80";"0,440000000000000";"0,5600000000000001";NA;NA;"1";"0";"av";"env";"CBC_1003_MSI_AV_v3_Vset4_Aset3_2023-06-14_14h56.33.053.csv"
"CBC_1003";"27";"3";"2";"3";"z";"63";"z";"1,06339140000045518";"1";"0";"1";"hard";"0,80";"0,461538461538462";"0,5384615384615384";"0";"0";"0";"1";"av";"env";"CBC_1003_MSI_AV_v3_Vset4_Aset3_2023-06-14_14h56.33.053.csv"
"CBC_1003";"28";"1";"2";"0";"b";"27";"b";"2,92296540000006644";"1";"1";"1";"hard";"0,80";"0,481481481481481";"0,5185185185185186";"0";"0";"0";"1";"av";"env";"CBC_1003_MSI_AV_v3_Vset4_Aset3_2023-06-14_14h56.33.053.csv"
"CBC_1003";"29";"0";"1";"0";"z";"63";"None";NA;NA;"3";"1";"hard";"0,80";"0,481481481481481";"0,5185185185185186";NA;NA;"1";"0";"av";"env";"CBC_1003_MSI_AV_v3_Vset4_Aset3_2023-06-14_14h56.33.053.csv"
"CBC_1003";"30";"2";"1";"0";"b";"63";"b";"2,01572209999994811";"1";"1";"1";"hard";"0,80";"0,500000000000000";"0,5000000000000000";"0";"0";"0";"1";"av";"env";"CBC_1003_MSI_AV_v3_Vset4_Aset3_2023-06-14_14h56.33.053.csv"
"CBC_1003";"31";"3";"3";"1";"b";"27";"b";"1,60593920000019352";"1";"1";"1";"hard";"0,80";"0,517241379310345";"0,4827586206896551";"0";"0";"0";"1";"av";"env";"CBC_1003_MSI_AV_v3_Vset4_Aset3_2023-06-14_14h56.33.053.csv"
"CBC_1003";"32";"1";"3";"2";"z";"63";"b";"3,06567630000017743";"0";"0";"1";"hard";"0,80";"0,500000000000000";"0,5000000000000000";"0";"0";"0";"1";"av";"env";"CBC_1003_MSI_AV_v3_Vset4_Aset3_2023-06-14_14h56.33.053.csv"
"CBC_1003";"33";"2";"1";"0";"b";"63";"z";"1,33993650000002162";"0";"1";"1";"hard";"0,80";"0,483870967741935";"0,5161290322580645";"0";"0";"0";"1";"av";"env";"CBC_1003_MSI_AV_v3_Vset4_Aset3_2023-06-14_14h56.33.053.csv"
"CBC_1003";"34";"0";"0";"1";"b";"63";"b";"3,16950090000000273";"1";"1";"1";"hard";"0,80";"0,500000000000000";"0,5000000000000000";"0";"0";"0";"1";"av";"env";"CBC_1003_MSI_AV_v3_Vset4_Aset3_2023-06-14_14h56.33.053.csv"
"CBC_1003";"35";"1";"1";"2";"z";"9";"b";"1,85435270000016317";"0";"0";"1";"hard";"0,80";"0,484848484848485";"0,5151515151515151";"0";"0";"0";"1";"av";"env";"CBC_1003_MSI_AV_v3_Vset4_Aset3_2023-06-14_14h56.33.053.csv"
"CBC_1003";"36";"0";"1";"0";"z";"63";"z";"2,51834450000023935";"1";"1";"1";"hard";"0,80";"0,500000000000000";"0,5000000000000000";"0";"0";"0";"1";"av";"env";"CBC_1003_MSI_AV_v3_Vset4_Aset3_2023-06-14_14h56.33.053.csv"
"CBC_1003";"37";"3";"3";"1";"b";"27";"z";"0,89238490000025195";"0";"0";"1";"hard";"0,80";"0,485714285714286";"0,5142857142857142";"0";"0";"0";"1";"av";"env";"CBC_1003_MSI_AV_v3_Vset4_Aset3_2023-06-14_14h56.33.053.csv"
"CBC_1003";"38";"2";"0";"1";"z";"63";"b";"2,29401530000041021";"0";"0";"1";"hard";"0,80";"0,472222222222222";"0,5277777777777778";"0";"0";"0";"1";"av";"env";"CBC_1003_MSI_AV_v3_Vset4_Aset3_2023-06-14_14h56.33.053.csv"
"CBC_1003";"39";"1";"2";"3";"b";"63";"b";"1,35355920000029073";"1";"0";"1";"hard";"0,80";"0,486486486486487";"0,5135135135135135";"0";"0";"0";"1";"av";"env";"CBC_1003_MSI_AV_v3_Vset4_Aset3_2023-06-14_14h56.33.053.csv"
"CBC_1003";"40";"0";"2";"0";"z";"27";"z";"1,23369890000003579";"1";"1";"1";"hard";"0,80";"0,500000000000000";"0,5000000000000000";"0";"0";"0";"1";"av";"env";"CBC_1003_MSI_AV_v3_Vset4_Aset3_2023-06-14_14h56.33.053.csv"
"CBC_1003";"41";"3";"3";"2";"b";"63";"None";NA;NA;"3";"1";"hard";"0,80";"0,500000000000000";"0,5000000000000000";NA;NA;"1";"0";"av";"env";"CBC_1003_MSI_AV_v3_Vset4_Aset3_2023-06-14_14h56.33.053.csv"
"CBC_1003";"42";"2";"3";"1";"z";"27";"z";"0,59910489999992933";"1";"1";"1";"hard";"0,80";"0,512820512820513";"0,4871794871794872";"0";"0";"0";"1";"av";"env";"CBC_1003_MSI_AV_v3_Vset4_Aset3_2023-06-14_14h56.33.053.csv"
"CBC_1003";"43";"1";"2";"3";"b";"63";"z";"2,53209550000019590";"0";"0";"1";"hard";"0,80";"0,500000000000000";"0,5000000000000000";"0";"0";"0";"1";"av";"env";"CBC_1003_MSI_AV_v3_Vset4_Aset3_2023-06-14_14h56.33.053.csv"
"CBC_1003";"0";"2";"1";"0";"b";"63";"b";"2,06758029999946302";"1";"1";"3";"hard";"0,95";"1,000000000000000";"0,0000000000000000";"0";"0";"0";"1";"tv";"vib";"CBC_1003_MSI_TV_v3_Vset5_Tset3_2023-06-14_16h21.52.910.csv"
"CBC_1003";"1";"0";"0";"1";"b";"63";"b";"1,96458810000149242";"1";"1";"3";"hard";"0,95";"1,000000000000000";"0,0000000000000000";"0";"0";"0";"1";"tv";"vib";"CBC_1003_MSI_TV_v3_Vset5_Tset3_2023-06-14_16h21.52.910.csv"
"CBC_1003";"2";"1";"1";"2";"z";"9";"z";"2,44977979999930540";"1";"1";"3";"hard";"0,95";"1,000000000000000";"0,0000000000000000";"0";"0";"0";"1";"tv";"vib";"CBC_1003_MSI_TV_v3_Vset5_Tset3_2023-06-14_16h21.52.910.csv"
"CBC_1003";"3";"0";"1";"0";"z";"63";"z";"3,12010109999937413";"1";"1";"3";"hard";"0,95";"1,000000000000000";"0,0000000000000000";"0";"0";"0";"1";"tv";"vib";"CBC_1003_MSI_TV_v3_Vset5_Tset3_2023-06-14_16h21.52.910.csv"
"CBC_1003";"4";"3";"3";"1";"b";"27";"b";"2,90003900000010617";"1";"1";"3";"hard";"0,95";"1,000000000000000";"0,0000000000000000";"0";"0";"0";"1";"tv";"vib";"CBC_1003_MSI_TV_v3_Vset5_Tset3_2023-06-14_16h21.52.910.csv"
"CBC_1003";"5";"2";"0";"1";"z";"63";"z";"1,76852459999827261";"1";"1";"3";"hard";"0,95";"1,000000000000000";"0,0000000000000000";"0";"0";"0";"1";"tv";"vib";"CBC_1003_MSI_TV_v3_Vset5_Tset3_2023-06-14_16h21.52.910.csv"
"CBC_1003";"6";"1";"2";"3";"b";"63";"z";"2,23604449999947974";"0";"0";"3";"hard";"0,95";"0,857142857142857";"0,1428571428571429";"0";"0";"0";"1";"tv";"vib";"CBC_1003_MSI_TV_v3_Vset5_Tset3_2023-06-14_16h21.52.910.csv"
"CBC_1003";"7";"0";"2";"0";"z";"27";"z";"1,47161170000072161";"1";"1";"3";"hard";"0,95";"0,875000000000000";"0,1250000000000000";"0";"0";"0";"1";"tv";"vib";"CBC_1003_MSI_TV_v3_Vset5_Tset3_2023-06-14_16h21.52.910.csv"
"CBC_1003";"8";"3";"3";"2";"b";"63";"b";"3,14304430000083812";"1";"1";"3";"hard";"0,95";"0,888888888888889";"0,1111111111111112";"0";"0";"0";"1";"tv";"vib";"CBC_1003_MSI_TV_v3_Vset5_Tset3_2023-06-14_16h21.52.910.csv"
"CBC_1003";"9";"2";"3";"1";"z";"27";"z";"1,62198790000002191";"1";"1";"3";"hard";"0,95";"0,900000000000000";"0,1000000000000000";"0";"0";"0";"1";"tv";"vib";"CBC_1003_MSI_TV_v3_Vset5_Tset3_2023-06-14_16h21.52.910.csv"
"CBC_1003";"10";"1";"3";"2";"z";"63";"b";"2,50878080000074988";"0";"0";"3";"hard";"0,95";"0,818181818181818";"0,1818181818181818";"0";"0";"0";"1";"tv";"vib";"CBC_1003_MSI_TV_v3_Vset5_Tset3_2023-06-14_16h21.52.910.csv"
"CBC_1003";"11";"2";"1";"3";"b";"27";"b";"1,59334250000028987";"1";"1";"3";"hard";"0,95";"0,833333333333333";"0,1666666666666666";"0";"0";"0";"1";"tv";"vib";"CBC_1003_MSI_TV_v3_Vset5_Tset3_2023-06-14_16h21.52.910.csv"
"CBC_1003";"12";"1";"3";"2";"z";"63";"z";"1,92053550000127871";"1";"1";"3";"hard";"0,95";"0,846153846153846";"0,1538461538461539";"0";"0";"0";"1";"tv";"vib";"CBC_1003_MSI_TV_v3_Vset5_Tset3_2023-06-14_16h21.52.910.csv"
"CBC_1003";"13";"3";"3";"2";"b";"63";"z";"3,46114479999960167";"0";"0";"3";"hard";"0,95";"0,785714285714286";"0,2142857142857143";"0";"0";"0";"1";"tv";"vib";"CBC_1003_MSI_TV_v3_Vset5_Tset3_2023-06-14_16h21.52.910.csv"
"CBC_1003";"14";"0";"0";"3";"b";"9";"None";NA;NA;"3";"3";"hard";"0,95";"0,785714285714286";"0,2142857142857143";NA;NA;"1";"0";"tv";"vib";"CBC_1003_MSI_TV_v3_Vset5_Tset3_2023-06-14_16h21.52.910.csv"
"CBC_1003";"15";"2";"0";"1";"z";"63";"z";"1,57537570000022242";"1";"0";"3";"hard";"0,95";"0,800000000000000";"0,2000000000000000";"0";"0";"0";"1";"tv";"vib";"CBC_1003_MSI_TV_v3_Vset5_Tset3_2023-06-14_16h21.52.910.csv"
"CBC_1003";"16";"3";"2";"3";"z";"63";"None";NA;NA;"3";"3";"hard";"0,95";"0,800000000000000";"0,2000000000000000";NA;NA;"1";"0";"tv";"vib";"CBC_1003_MSI_TV_v3_Vset5_Tset3_2023-06-14_16h21.52.910.csv"
"CBC_1003";"17";"1";"0";"2";"z";"27";"b";"0,83969769999930577";"0";"0";"3";"hard";"0,95";"0,750000000000000";"0,2500000000000000";"0";"0";"0";"1";"tv";"vib";"CBC_1003_MSI_TV_v3_Vset5_Tset3_2023-06-14_16h21.52.910.csv"
"CBC_1003";"18";"0";"0";"1";"b";"63";"b";"2,78568249999989348";"1";"1";"3";"hard";"0,95";"0,764705882352941";"0,2352941176470589";"0";"0";"0";"1";"tv";"vib";"CBC_1003_MSI_TV_v3_Vset5_Tset3_2023-06-14_16h21.52.910.csv"
"CBC_1003";"19";"2";"1";"0";"b";"63";"b";"2,00501360000089335";"1";"1";"3";"hard";"0,95";"0,777777777777778";"0,2222222222222222";"0";"0";"0";"1";"tv";"vib";"CBC_1003_MSI_TV_v3_Vset5_Tset3_2023-06-14_16h21.52.910.csv"
"CBC_1003";"20";"3";"1";"3";"z";"27";"z";"1,36146440000084112";"1";"1";"3";"hard";"0,95";"0,789473684210526";"0,2105263157894737";"0";"0";"0";"1";"tv";"vib";"CBC_1003_MSI_TV_v3_Vset5_Tset3_2023-06-14_16h21.52.910.csv"
"CBC_1003";"21";"1";"3";"2";"z";"63";"z";"2,24618920000102662";"1";"1";"3";"hard";"0,95";"0,800000000000000";"0,2000000000000000";"0";"0";"0";"1";"tv";"vib";"CBC_1003_MSI_TV_v3_Vset5_Tset3_2023-06-14_16h21.52.910.csv"
"CBC_1003";"22";"0";"0";"1";"b";"63";"b";"2,83759830000053626";"1";"1";"3";"hard";"0,95";"0,809523809523810";"0,1904761904761905";"0";"0";"0";"1";"tv";"vib";"CBC_1003_MSI_TV_v3_Vset5_Tset3_2023-06-14_16h21.52.910.csv"
"CBC_1003";"23";"3";"2";"3";"z";"63";"b";"2,86264630000005127";"0";"0";"3";"hard";"0,95";"0,772727272727273";"0,2272727272727273";"0";"0";"0";"1";"tv";"vib";"CBC_1003_MSI_TV_v3_Vset5_Tset3_2023-06-14_16h21.52.910.csv"
"CBC_1003";"24";"1";"2";"0";"b";"27";"z";"1,43064419999973325";"0";"0";"3";"hard";"0,95";"0,739130434782609";"0,2608695652173914";"0";"0";"0";"1";"tv";"vib";"CBC_1003_MSI_TV_v3_Vset5_Tset3_2023-06-14_16h21.52.910.csv"
"CBC_1003";"25";"0";"0";"1";"b";"63";"z";"2,30216199999995297";"0";"0";"3";"hard";"0,95";"0,708333333333333";"0,2916666666666666";"0";"0";"0";"1";"tv";"vib";"CBC_1003_MSI_TV_v3_Vset5_Tset3_2023-06-14_16h21.52.910.csv"
"CBC_1003";"26";"2";"1";"3";"b";"27";"None";NA;NA;"3";"3";"hard";"0,95";"0,708333333333333";"0,2916666666666666";NA;NA;"1";"0";"tv";"vib";"CBC_1003_MSI_TV_v3_Vset5_Tset3_2023-06-14_16h21.52.910.csv"
"CBC_1003";"27";"1";"3";"2";"z";"63";"z";"1,31882889999906183";"1";"1";"3";"hard";"0,95";"0,720000000000000";"0,2800000000000000";"0";"0";"0";"1";"tv";"vib";"CBC_1003_MSI_TV_v3_Vset5_Tset3_2023-06-14_16h21.52.910.csv"
"CBC_1003";"28";"3";"3";"2";"b";"63";"z";"5,34942330000012589";"0";"0";"3";"hard";"0,95";"0,692307692307692";"0,3076923076923077";"0";"1";"0";"0";"tv";"vib";"CBC_1003_MSI_TV_v3_Vset5_Tset3_2023-06-14_16h21.52.910.csv"
"CBC_1003";"29";"2";"0";"1";"z";"63";"z";"2,24939740000081656";"1";"1";"3";"hard";"0,95";"0,703703703703704";"0,2962962962962963";"0";"0";"0";"1";"tv";"vib";"CBC_1003_MSI_TV_v3_Vset5_Tset3_2023-06-14_16h21.52.910.csv"
"CBC_1003";"30";"0";"2";"0";"z";"27";"z";"1,65177870000115945";"1";"1";"3";"hard";"0,95";"0,714285714285714";"0,2857142857142857";"0";"0";"0";"1";"tv";"vib";"CBC_1003_MSI_TV_v3_Vset5_Tset3_2023-06-14_16h21.52.910.csv"
"CBC_1003";"31";"3";"3";"0";"b";"9";"z";"2,65088389999982610";"0";"0";"3";"hard";"0,95";"0,689655172413793";"0,3103448275862069";"0";"0";"0";"1";"tv";"vib";"CBC_1003_MSI_TV_v3_Vset5_Tset3_2023-06-14_16h21.52.910.csv"
"CBC_1003";"32";"1";"3";"2";"z";"63";"z";"2,24044700000013108";"1";"1";"3";"hard";"0,95";"0,700000000000000";"0,3000000000000000";"0";"0";"0";"1";"tv";"vib";"CBC_1003_MSI_TV_v3_Vset5_Tset3_2023-06-14_16h21.52.910.csv"
"CBC_1003";"33";"2";"0";"1";"z";"63";"z";"2,12841079999998328";"1";"1";"3";"hard";"0,95";"0,709677419354839";"0,2903225806451613";"0";"0";"0";"1";"tv";"vib";"CBC_1003_MSI_TV_v3_Vset5_Tset3_2023-06-14_16h21.52.910.csv"
"CBC_1003";"34";"0";"0";"1";"b";"63";"b";"2,52756469999985711";"1";"0";"3";"hard";"0,95";"0,718750000000000";"0,2812500000000000";"0";"0";"0";"1";"tv";"vib";"CBC_1003_MSI_TV_v3_Vset5_Tset3_2023-06-14_16h21.52.910.csv"
"CBC_1003";"35";"3";"2";"3";"z";"63";"z";"2,18727330000001530";"1";"1";"3";"hard";"0,95";"0,727272727272727";"0,2727272727272727";"0";"0";"0";"1";"tv";"vib";"CBC_1003_MSI_TV_v3_Vset5_Tset3_2023-06-14_16h21.52.910.csv"
"CBC_1003";"36";"2";"1";"2";"b";"9";"b";"2,35160770000038610";"1";"1";"3";"hard";"0,95";"0,735294117647059";"0,2647058823529411";"0";"0";"0";"1";"tv";"vib";"CBC_1003_MSI_TV_v3_Vset5_Tset3_2023-06-14_16h21.52.910.csv"
"CBC_1003";"37";"0";"2";"0";"z";"27";"b";"2,12313030000041181";"0";"0";"3";"hard";"0,95";"0,714285714285714";"0,2857142857142857";"0";"0";"0";"1";"tv";"vib";"CBC_1003_MSI_TV_v3_Vset5_Tset3_2023-06-14_16h21.52.910.csv"
"CBC_1003";"38";"1";"2";"3";"b";"63";"z";"2,03314940000018396";"0";"0";"3";"hard";"0,95";"0,694444444444444";"0,3055555555555556";"0";"0";"0";"1";"tv";"vib";"CBC_1003_MSI_TV_v3_Vset5_Tset3_2023-06-14_16h21.52.910.csv"
"CBC_1003";"39";"3";"1";"3";"z";"27";"b";"1,59899690000020200";"0";"0";"3";"hard";"0,95";"0,675675675675676";"0,3243243243243243";"0";"0";"0";"1";"tv";"vib";"CBC_1003_MSI_TV_v3_Vset5_Tset3_2023-06-14_16h21.52.910.csv"
"CBC_1003";"40";"0";"0";"1";"b";"63";"z";"1,66981680000026245";"0";"0";"3";"hard";"0,95";"0,657894736842105";"0,3421052631578947";"0";"0";"0";"1";"tv";"vib";"CBC_1003_MSI_TV_v3_Vset5_Tset3_2023-06-14_16h21.52.910.csv"
"CBC_1003";"41";"1";"0";"2";"z";"27";"z";"3,31814019999910670";"1";"1";"3";"hard";"0,95";"0,666666666666667";"0,3333333333333334";"0";"0";"0";"1";"tv";"vib";"CBC_1003_MSI_TV_v3_Vset5_Tset3_2023-06-14_16h21.52.910.csv"
"CBC_1003";"42";"3";"3";"2";"b";"63";"None";NA;NA;"3";"3";"hard";"0,95";"0,666666666666667";"0,3333333333333334";NA;NA;"1";"0";"tv";"vib";"CBC_1003_MSI_TV_v3_Vset5_Tset3_2023-06-14_16h21.52.910.csv"
"CBC_1003";"43";"2";"1";"0";"b";"63";"b";"1,32173030000012659";"1";"1";"3";"hard";"0,95";"0,675000000000000";"0,3250000000000000";"0";"0";"0";"1";"tv";"vib";"CBC_1003_MSI_TV_v3_Vset5_Tset3_2023-06-14_16h21.52.910.csv"
"CBC_1005";"0";"2";"2";"0";"b";"27";"z";"1,67739559999972698";"0";"0";"1";"easy";"0,95";"0,000000000000000";"1,0000000000000000";"0";"0";"0";"1";"av";"env";"CBC_1005_MSI_AV_v3_Vset5_Aset2_2023-06-03_12h46.50.942.csv"
"CBC_1005";"1";"3";"3";"2";"b";"63";"b";"2,50123630000052799";"1";"1";"1";"easy";"0,95";"0,500000000000000";"0,5000000000000000";"0";"0";"0";"1";"av";"env";"CBC_1005_MSI_AV_v3_Vset5_Aset2_2023-06-03_12h46.50.942.csv"
"CBC_1005";"2";"1";"1";"0";"z";"63";"b";"2,53934029999982158";"0";"0";"1";"easy";"0,95";"0,333333333333333";"0,6666666666666667";"0";"0";"0";"1";"av";"env";"CBC_1005_MSI_AV_v3_Vset5_Aset2_2023-06-03_12h46.50.942.csv"
"CBC_1005";"3";"2";"2";"3";"b";"63";"z";"5,27325980000023264";"0";"0";"1";"easy";"0,95";"0,250000000000000";"0,7500000000000000";"0";"1";"0";"0";"av";"env";"CBC_1005_MSI_AV_v3_Vset5_Aset2_2023-06-03_12h46.50.942.csv"
"CBC_1005";"4";"1";"0";"2";"b";"27";"b";"3,06709689999843249";"1";"1";"1";"easy";"0,95";"0,400000000000000";"0,6000000000000000";"0";"0";"0";"1";"av";"env";"CBC_1005_MSI_AV_v3_Vset5_Aset2_2023-06-03_12h46.50.942.csv"
"CBC_1005";"5";"3";"2";"3";"z";"63";"z";"3,24123200000030920";"1";"1";"1";"easy";"0,95";"0,500000000000000";"0,5000000000000000";"0";"0";"0";"1";"av";"env";"CBC_1005_MSI_AV_v3_Vset5_Aset2_2023-06-03_12h46.50.942.csv"
"CBC_1005";"6";"3";"3";"2";"b";"63";"b";"2,80879760000061651";"1";"1";"1";"easy";"0,95";"0,571428571428571";"0,4285714285714286";"0";"0";"0";"1";"av";"env";"CBC_1005_MSI_AV_v3_Vset5_Aset2_2023-06-03_12h46.50.942.csv"
"CBC_1005";"7";"0";"3";"1";"z";"27";"z";"2,27630219999991823";"1";"1";"1";"easy";"0,95";"0,625000000000000";"0,3750000000000000";"0";"0";"0";"1";"av";"env";"CBC_1005_MSI_AV_v3_Vset5_Aset2_2023-06-03_12h46.50.942.csv"
"CBC_1005";"8";"3";"0";"3";"z";"9";"z";"2,48889779999990424";"1";"1";"1";"easy";"0,95";"0,666666666666667";"0,3333333333333334";"0";"0";"0";"1";"av";"env";"CBC_1005_MSI_AV_v3_Vset5_Aset2_2023-06-03_12h46.50.942.csv"
"CBC_1005";"9";"0";"1";"0";"b";"63";"z";"3,21889609999925597";"0";"0";"1";"easy";"0,95";"0,600000000000000";"0,4000000000000000";"0";"0";"0";"1";"av";"env";"CBC_1005_MSI_AV_v3_Vset5_Aset2_2023-06-03_12h46.50.942.csv"
"CBC_1005";"10";"1";"1";"0";"z";"63";"b";"2,90202439999848139";"0";"0";"1";"easy";"0,95";"0,545454545454545";"0,4545454545454546";"0";"0";"0";"1";"av";"env";"CBC_1005_MSI_AV_v3_Vset5_Aset2_2023-06-03_12h46.50.942.csv"
"CBC_1005";"11";"0";"0";"1";"z";"63";"z";"2,25599349999902188";"1";"1";"1";"easy";"0,95";"0,583333333333333";"0,4166666666666666";"0";"0";"0";"1";"av";"env";"CBC_1005_MSI_AV_v3_Vset5_Aset2_2023-06-03_12h46.50.942.csv"
"CBC_1005";"12";"3";"2";"3";"z";"63";"z";"3,23586460000115039";"1";"1";"1";"easy";"0,95";"0,615384615384615";"0,3846153846153846";"0";"0";"0";"1";"av";"env";"CBC_1005_MSI_AV_v3_Vset5_Aset2_2023-06-03_12h46.50.942.csv"
"CBC_1005";"13";"0";"1";"3";"b";"27";"b";"2,45550560000083351";"1";"1";"1";"easy";"0,95";"0,642857142857143";"0,3571428571428571";"0";"0";"0";"1";"av";"env";"CBC_1005_MSI_AV_v3_Vset5_Aset2_2023-06-03_12h46.50.942.csv"
"CBC_1005";"14";"2";"3";"2";"z";"63";"z";"1,74428199999965727";"1";"1";"1";"easy";"0,95";"0,666666666666667";"0,3333333333333334";"0";"0";"0";"1";"av";"env";"CBC_1005_MSI_AV_v3_Vset5_Aset2_2023-06-03_12h46.50.942.csv"
"CBC_1005";"15";"2";"2";"0";"b";"27";"z";"1,84134079999967071";"0";"0";"1";"easy";"0,95";"0,625000000000000";"0,3750000000000000";"0";"0";"0";"1";"av";"env";"CBC_1005_MSI_AV_v3_Vset5_Aset2_2023-06-03_12h46.50.942.csv"
"CBC_1005";"16";"1";"0";"3";"b";"9";"b";"3,01164740000058373";"1";"1";"1";"easy";"0,95";"0,647058823529412";"0,3529411764705882";"0";"0";"0";"1";"av";"env";"CBC_1005_MSI_AV_v3_Vset5_Aset2_2023-06-03_12h46.50.942.csv"
"CBC_1005";"17";"2";"2";"3";"b";"63";"z";"2,32952279999881284";"0";"1";"1";"easy";"0,95";"0,611111111111111";"0,3888888888888888";"0";"0";"0";"1";"av";"env";"CBC_1005_MSI_AV_v3_Vset5_Aset2_2023-06-03_12h46.50.942.csv"
"CBC_1005";"18";"1";"1";"0";"z";"63";"b";"2,70831840000028023";"0";"0";"1";"easy";"0,95";"0,578947368421053";"0,4210526315789473";"0";"0";"0";"1";"av";"env";"CBC_1005_MSI_AV_v3_Vset5_Aset2_2023-06-03_12h46.50.942.csv"
