ID,session,trialNr,mod2Stim,visStimLeft,visStimRight,correctKey,frequency,rewardAccurate,probFB,stimPairLeft,stimPairRight,leftCorrect,rightCorrect,pCorrectLeft,pCorrectRight,triplet,rt,surprise,0A belief,1A belief,2A belief,3A belief,0B belief,1B belief,2B belief,3B belief,0C belief,1C belief,2C belief,3C belief,0D belief,1D belief,2D belief,3D belief,reactionTime,choice,choiceLeft,choiceRight,chosenPair,otherPair,beliefPair,beliefOtherPair,beliefPairNorm,beliefOtherPairNorm,choiceAccurate,reward,rewardPE,update2,sim_CBCsimpleRW_CBCdriftDiffusionLR_startBelief,sim_CBCsimpleRW_CBCdriftDiffusionLR_alpha1,sim_CBCsimpleRW_CBCdriftDiffusionLR_nonDecisionTime,sim_CBCsimpleRW_CBCdriftDiffusionLR_weight,sim_CBCsimpleRW_CBCdriftDiffusionLR_startingBoundary,sim_CBCsimpleRW_CBCdriftDiffusionLR_startingPoint,lik,corrLik,fitCBCsimpleRW_CBCdriftDiffusionLR_startBelief,fitCBCsimpleRW_CBCdriftDiffusionLR_alpha1,fitCBCsimpleRW_CBCdriftDiffusionLR_nonDecisionTime,fitCBCsimpleRW_CBCdriftDiffusionLR_weight,fitCBCsimpleRW_CBCdriftDiffusionLR_startingBoundary,fitCBCsimpleRW_CBCdriftDiffusionLR_startingPoint,fit_CBCsimpleRW_CBCdriftDiffusionLR_NLL
176,1,1,B,1,0,a,63,1,0.82,1B,0B,1,0,1,0,B10,1.24143637529804,2.77258872223978,0.5,0.5,0.5,0.5,0.5,0.5,0.5,0.5,0.5,0.5,0.5,0.5,0.5,0.5,0.5,0.5,1.14406079256037,1,1,0,1B,0B,0.5,0.5,0.5,0.5,1,1,0.5,0.263403548632654,0.5,0.594333941541461,0.934060792560375,10.5686738752196,1.15051027955544,0.5,1.08532276590549,0.500136347822166,0.5,0.526807097265308,0.935583194633661,12.4194614047114,1.14937432460857,0.5,-47.3606351521512
176,1,2,A,1,0,l,63,1,0.82,1A,0A,0,1,0,1,A10,2.04324092776458,2.83321334405622,0.5,0.5,0.5,0.5,0.5,0.763403548632654,0.5,0.5,0.5,0.5,0.5,0.5,0.5,0.5,0.5,0.5,1.35206079256037,1,1,0,1A,0A,0.5,0.5,0.5,0.5,0,0,-0.5,-0.263403548632654,0.5,0.594333941541461,0.934060792560375,10.5686738752196,1.15051027955544,0.5,0.50187073238727,0.500024836427177,0.5,0.526807097265308,0.935583194633661,12.4194614047114,1.14937432460857,0.5,-47.3606351521512
176,1,3,D,3,2,a,63,1,0.82,3D,2D,1,0,1,0,D32,3.21697143159289,2.89037175789616,0.5,0.236596451367346,0.5,0.5,0.5,0.763403548632654,0.5,0.5,0.5,0.5,0.5,0.5,0.5,0.5,0.5,0.5,0.979060792560375,0,0,1,2D,3D,0.5,0.5,0.5,0.5,0,0,-0.5,-0.263403548632654,0.5,0.594333941541461,0.934060792560375,10.5686738752196,1.15051027955544,0.5,0.566589411742576,0.49979634027885,0.5,0.526807097265308,0.935583194633661,12.4194614047114,1.14937432460857,0.5,-47.3606351521512
176,1,4,B,1,2,a,9,1,0.82,1B,2B,1,0,1,0,B12,3.15971391783059,2.94443897916644,0.5,0.236596451367346,0.5,0.5,0.5,0.763403548632654,0.5,0.5,0.5,0.5,0.5,0.5,0.5,0.5,0.236596451367346,0.5,1.14206079256037,1,1,0,1B,2B,0.763403548632654,0.5,0.604243631782469,0.395756368217531,1,1,0.236596451367346,0.124640689768104,0.5,0.594333941541461,0.934060792560375,10.5686738752196,1.15051027955544,0.5,2.42191983357769,0.95144885215971,0.5,0.526807097265308,0.935583194633661,12.4194614047114,1.14937432460857,0.5,-47.3606351521512
176,1,5,A,2,0,l,27,1,0.82,2A,0A,0,1,0,1,A20,3.24549495293659,2.99573227355399,0.5,0.236596451367346,0.5,0.5,0.5,0.888044238400758,0.5,0.5,0.5,0.5,0.5,0.5,0.5,0.5,0.236596451367346,0.5,1.14906079256037,0,0,1,0A,2A,0.5,0.5,0.5,0.5,1,1,0.5,0.263403548632654,0.5,0.594333941541461,0.934060792560375,10.5686738752196,1.15051027955544,0.5,1.06531101095937,0.499757534772245,0.5,0.526807097265308,0.935583194633661,12.4194614047114,1.14937432460857,0.5,-47.3606351521512
176,1,6,C,3,2,l,63,1,0.82,3C,2C,0,1,0,1,C32,0.133365520391128,3.04452243772342,0.763403548632654,0.236596451367346,0.5,0.5,0.5,0.888044238400758,0.5,0.5,0.5,0.5,0.5,0.5,0.5,0.5,0.236596451367346,0.5,1.06706079256037,1,1,0,3C,2C,0.5,0.5,0.5,0.5,0,0,-0.5,-0.263403548632654,0.5,0.594333941541461,0.934060792560375,10.5686738752196,1.15051027955544,0.5,1.36992548384284,0.500175850407015,0.5,0.526807097265308,0.935583194633661,12.4194614047114,1.14937432460857,0.5,-47.3606351521512
176,1,7,D,3,1,a,27,1,0.82,3D,1D,1,0,1,0,D31,0.583335724766078,3.09104245335832,0.763403548632654,0.236596451367346,0.5,0.5,0.5,0.888044238400758,0.5,0.5,0.5,0.5,0.5,0.236596451367346,0.5,0.5,0.236596451367346,0.5,1.08806079256037,0,0,1,1D,3D,0.5,0.5,0.5,0.5,0,0,-0.5,-0.263403548632654,0.5,0.594333941541461,0.934060792560375,10.5686738752196,1.15051027955544,0.5,1.30193568400908,0.499564197969226,0.5,0.526807097265308,0.935583194633661,12.4194614047114,1.14937432460857,0.5,-47.3606351521512
176,1,8,A,0,1,a,63,0,0.82,0A,1A,1,0,0,1,A01,0.422017751831838,3.13549421592915,0.763403548632654,0.236596451367346,0.5,0.5,0.5,0.888044238400758,0.5,0.5,0.5,0.5,0.5,0.236596451367346,0.5,0.236596451367346,0.236596451367346,0.5,0.987060792560375,1,1,0,0A,1A,0.763403548632654,0.236596451367346,0.763403548632654,0.236596451367346,1,0,-0.763403548632654,-0.402166407497204,0.5,0.594333941541461,0.934060792560375,10.5686738752196,1.15051027955544,0.5,11.3260851535162,0.999457412528592,0.5,0.526807097265308,0.935583194633661,12.4194614047114,1.14937432460857,0.5,-47.3606351521512
176,1,9,C,0,2,l,27,1,0.82,0C,2C,0,1,0,1,C02,0.436689058849586,3.17805383034795,0.36123714113545,0.236596451367346,0.5,0.5,0.5,0.888044238400758,0.5,0.5,0.5,0.5,0.5,0.236596451367346,0.5,0.236596451367346,0.236596451367346,0.5,1.11806079256037,0,0,1,2C,0C,0.5,0.5,0.5,0.5,1,1,0.5,0.263403548632654,0.5,0.594333941541461,0.934060792560375,10.5686738752196,1.15051027955544,0.5,1.18665092160572,0.4997070215967,0.5,0.526807097265308,0.935583194633661,12.4194614047114,1.14937432460857,0.5,-47.3606351521512
176,1,10,D,3,2,a,63,1,0.82,3D,2D,1,0,1,0,D32,2.79545496141159,2.52572864430826,0.36123714113545,0.236596451367346,0.5,0.5,0.5,0.888044238400758,0.5,0.5,0.5,0.5,0.763403548632654,0.236596451367346,0.5,0.236596451367346,0.236596451367346,0.5,1.02706079256037,1,1,0,3D,2D,0.5,0.236596451367346,0.678797731202545,0.321202268797455,1,1,0.5,0.263403548632654,0.5,0.594333941541461,0.934060792560375,10.5686738752196,1.15051027955544,0.5,7.09644361647764,0.993968069606723,0.5,0.526807097265308,0.935583194633661,12.4194614047114,1.14937432460857,0.5,-47.3606351521512
176,1,11,B,0,1,l,63,0,0.82,0B,1B,0,1,1,0,B01,0.645498454898056,3.25809653802148,0.36123714113545,0.236596451367346,0.5,0.5,0.5,0.888044238400758,0.5,0.5,0.5,0.5,0.763403548632654,0.236596451367346,0.5,0.236596451367346,0.236596451367346,0.763403548632654,1.11106079256037,0,0,1,1B,0B,0.888044238400758,0.5,0.639780933368466,0.360219066631534,1,0,-0.888044238400758,-0.467828007475084,0.5,0.594333941541461,0.934060792560375,10.5686738752196,1.15051027955544,0.5,3.10339979017091,0.981835661485351,0.5,0.526807097265308,0.935583194633661,12.4194614047114,1.14937432460857,0.5,-47.3606351521512
176,1,12,A,1,0,l,63,1,0.82,1A,0A,0,1,0,1,A10,1.69516506291395,2.60268968544438,0.36123714113545,0.236596451367346,0.5,0.5,0.5,0.420216230925674,0.5,0.5,0.5,0.5,0.763403548632654,0.236596451367346,0.5,0.236596451367346,0.236596451367346,0.763403548632654,1.30406079256037,0,0,1,0A,1A,0.36123714113545,0.236596451367346,0.604243631782469,0.395756368217531,1,1,0.63876285886455,0.336504807519323,0.5,0.594333941541461,0.934060792560375,10.5686738752196,1.15051027955544,0.5,0.772809599531194,0.951528832157554,0.5,0.526807097265308,0.935583194633661,12.4194614047114,1.14937432460857,0.5,-47.3606351521512
176,1,13,D,3,2,a,63,1,0.82,3D,2D,1,0,1,0,D32,0.371627719361765,2.23359222150709,0.697741948654773,0.236596451367346,0.5,0.5,0.5,0.420216230925674,0.5,0.5,0.5,0.5,0.763403548632654,0.236596451367346,0.5,0.236596451367346,0.236596451367346,0.763403548632654,1.02806079256037,1,1,0,3D,2D,0.763403548632654,0.236596451367346,0.763403548632654,0.236596451367346,1,1,0.236596451367346,0.124640689768104,0.5,0.594333941541461,0.934060792560375,10.5686738752196,1.15051027955544,0.5,8.11204188580516,0.999457721821326,0.5,0.526807097265308,0.935583194633661,12.4194614047114,1.14937432460857,0.5,-47.3606351521512
176,1,14,C,0,2,l,27,0,0.82,0C,2C,0,1,1,0,C02,3.12083787792936,2.67414864942653,0.697741948654773,0.236596451367346,0.5,0.5,0.5,0.420216230925674,0.5,0.5,0.5,0.5,0.763403548632654,0.236596451367346,0.5,0.236596451367346,0.236596451367346,0.888044238400758,1.17506079256037,0,0,1,2C,0C,0.763403548632654,0.5,0.604243631782469,0.395756368217531,1,0,-0.763403548632654,-0.402166407497204,0.5,0.594333941541461,0.934060792560375,10.5686738752196,1.15051027955544,0.5,1.92443992144226,0.951486939172202,0.5,0.526807097265308,0.935583194633661,12.4194614047114,1.14937432460857,0.5,-47.3606351521512
176,1,15,A,1,0,l,63,1,0.82,1A,0A,0,1,0,1,A10,2.43771543827606,2.30258509299405,0.697741948654773,0.236596451367346,0.5,0.5,0.5,0.420216230925674,0.5,0.5,0.5,0.5,0.36123714113545,0.236596451367346,0.5,0.236596451367346,0.236596451367346,0.888044238400758,0.980060792560375,0,0,1,0A,1A,0.697741948654773,0.236596451367346,0.746776487660418,0.253223512339582,1,1,0.302258051345227,0.159231686654247,0.5,0.594333941541461,0.934060792560375,10.5686738752196,1.15051027955544,0.5,8.76571735796713,0.999129945284824,0.5,0.526807097265308,0.935583194633661,12.4194614047114,1.14937432460857,0.5,-47.3606351521512
176,1,16,B,3,1,l,27,1,0.82,3B,1B,0,1,0,1,B31,3.25024094865915,3.43398720448515,0.85697363530902,0.236596451367346,0.5,0.5,0.5,0.420216230925674,0.5,0.5,0.5,0.5,0.36123714113545,0.236596451367346,0.5,0.236596451367346,0.236596451367346,0.888044238400758,1.04506079256037,1,1,0,3B,1B,0.5,0.420216230925674,0.543350555224433,0.456649444775567,0,0,-0.5,-0.263403548632654,0.5,0.594333941541461,0.934060792560375,10.5686738752196,1.15051027955544,0.5,2.43900136245095,0.774906995745973,0.5,0.526807097265308,0.935583194633661,12.4194614047114,1.14937432460857,0.5,-47.3606351521512
176,1,17,C,2,3,a,63,1,0.82,2C,3C,1,0,1,0,C23,3.14343607137996,3.46573590279973,0.85697363530902,0.236596451367346,0.5,0.5,0.5,0.420216230925674,0.5,0.236596451367346,0.5,0.5,0.36123714113545,0.236596451367346,0.5,0.236596451367346,0.236596451367346,0.888044238400758,1.00306079256037,1,1,0,2C,3C,0.36123714113545,0.236596451367346,0.604243631782469,0.395756368217531,1,1,0.63876285886455,0.336504807519323,0.5,0.594333941541461,0.934060792560375,10.5686738752196,1.15051027955544,0.5,3.99522997456151,0.951403868347542,0.5,0.526807097265308,0.935583194633661,12.4194614047114,1.14937432460857,0.5,-47.3606351521512
176,1,18,D,3,2,a,63,0,0.82,3D,2D,1,0,0,1,D32,1.99880314295492,2.11021320034659,0.85697363530902,0.236596451367346,0.5,0.5,0.5,0.420216230925674,0.5,0.236596451367346,0.5,0.5,0.697741948654773,0.236596451367346,0.5,0.236596451367346,0.236596451367346,0.888044238400758,0.969060792560375,1,1,0,3D,2D,0.888044238400758,0.236596451367346,0.789624852168446,0.210375147831554,1,0,-0.888044238400758,-0.467828007475084,0.5,0.594333941541461,0.934060792560375,10.5686738752196,1.15051027955544,0.5,7.08243478162504,0.999743439306905,0.5,0.526807097265308,0.935583194633661,12.4194614047114,1.14937432460857,0.5,-47.3606351521512
176,1,19,B,0,1,l,63,1,0.82,0B,1B,0,1,0,1,B01,3.15016050205704,2.83321334405622,0.85697363530902,0.236596451367346,0.5,0.5,0.5,0.420216230925674,0.5,0.236596451367346,0.5,0.5,0.697741948654773,0.236596451367346,0.5,0.236596451367346,0.236596451367346,0.420216230925674,1.10906079256037,0,0,1,1B,0B,0.420216230925674,0.5,0.456649444775567,0.543350555224433,1,1,0.579783769074326,0.305434204427585,0.5,0.594333941541461,0.934060792560375,10.5686738752196,1.15051027955544,0.5,0.595696965777783,0.224861015430854,0.5,0.526807097265308,0.935583194633661,12.4194614047114,1.14937432460857,0.5,-47.3606351521512
176,1,20,A,0,2,a,27,1,0.82,0A,2A,1,0,1,0,A02,3.10333248220558,3.55534806148941,0.85697363530902,0.236596451367346,0.5,0.5,0.5,0.725650435353259,0.5,0.236596451367346,0.5,0.5,0.697741948654773,0.236596451367346,0.5,0.236596451367346,0.236596451367346,0.420216230925674,1.03806079256037,1,1,0,0A,2A,0.85697363530902,0.5,0.631533003302503,0.368466996697497,1,1,0.14302636469098,0.0753473040152642,0.5,0.594333941541461,0.934060792560375,10.5686738752196,1.15051027955544,0.5,5.27817384247126,0.977142799043599,0.5,0.526807097265308,0.935583194633661,12.4194614047114,1.14937432460857,0.5,-47.3606351521512
176,1,21,D,3,0,a,9,1,0.82,3D,0D,1,0,1,0,D30,2.82236767719726,3.58351893845611,0.932320939324285,0.236596451367346,0.5,0.5,0.5,0.725650435353259,0.5,0.236596451367346,0.5,0.5,0.697741948654773,0.236596451367346,0.5,0.236596451367346,0.236596451367346,0.420216230925674,1.23706079256037,0,0,1,0D,3D,0.5,0.420216230925674,0.543350555224433,0.456649444775567,0,0,-0.5,-0.263403548632654,0.5,0.594333941541461,0.934060792560375,10.5686738752196,1.15051027955544,0.5,1.20163848274074,0.775058846430859,0.5,0.526807097265308,0.935583194633661,12.4194614047114,1.14937432460857,0.5,-47.3606351521512
176,1,22,C,3,2,l,63,1,0.82,3C,2C,0,1,0,1,C32,1.05711418073332,2.91777073208428,0.932320939324285,0.236596451367346,0.5,0.5,0.5,0.725650435353259,0.5,0.236596451367346,0.5,0.5,0.697741948654773,0.236596451367346,0.236596451367346,0.236596451367346,0.236596451367346,0.420216230925674,1.11506079256037,0,0,1,2C,3C,0.697741948654773,0.236596451367346,0.746776487660418,0.253223512339582,1,1,0.302258051345227,0.159231686654247,0.5,0.594333941541461,0.934060792560375,10.5686738752196,1.15051027955544,0.5,1.3946490978117,0.999129180414979,0.5,0.526807097265308,0.935583194633661,12.4194614047114,1.14937432460857,0.5,-47.3606351521512
176,1,23,B,1,3,a,27,1,0.82,1B,3B,1,0,1,0,B13,0.419682273380024,3.63758615972639,0.932320939324285,0.236596451367346,0.5,0.5,0.5,0.725650435353259,0.5,0.236596451367346,0.5,0.5,0.85697363530902,0.236596451367346,0.236596451367346,0.236596451367346,0.236596451367346,0.420216230925674,1.04206079256037,1,1,0,1B,3B,0.725650435353259,0.236596451367346,0.754120845042502,0.245879154957498,1,1,0.274349564646741,0.14452929778755,0.5,0.594333941541461,0.934060792560375,10.5686738752196,1.15051027955544,0.5,6.31131250937006,0.999293423376583,0.5,0.526807097265308,0.935583194633661,12.4194614047114,1.14937432460857,0.5,-47.3606351521512
176,1,24,C,2,3,a,63,1,0.82,2C,3C,1,0,1,0,C23,2.17434026738343,2.9704144655697,0.932320939324285,0.236596451367346,0.5,0.5,0.5,0.87017973314081,0.5,0.236596451367346,0.5,0.5,0.85697363530902,0.236596451367346,0.236596451367346,0.236596451367346,0.236596451367346,0.420216230925674,0.977060792560375,1,1,0,2C,3C,0.85697363530902,0.236596451367346,0.783647656195112,0.216352343804888,1,1,0.14302636469098,0.0753473040152642,0.5,0.594333941541461,0.934060792560375,10.5686738752196,1.15051027955544,0.5,10.3729733575741,0.99969581496921,0.5,0.526807097265308,0.935583194633661,12.4194614047114,1.14937432460857,0.5,-47.3606351521512
176,1,25,D,3,2,a,63,1,0.82,3D,2D,1,0,1,0,D32,0.39419593061433,2.07944154167984,0.932320939324285,0.236596451367346,0.5,0.5,0.5,0.87017973314081,0.5,0.236596451367346,0.5,0.5,0.932320939324285,0.236596451367346,0.236596451367346,0.236596451367346,0.236596451367346,0.420216230925674,1.13406079256037,1,1,0,3D,2D,0.420216230925674,0.236596451367346,0.639780933368466,0.360219066631534,1,1,0.579783769074326,0.305434204427585,0.5,0.594333941541461,0.934060792560375,10.5686738752196,1.15051027955544,0.5,2.49967383472847,0.981800613195428,0.5,0.526807097265308,0.935583194633661,12.4194614047114,1.14937432460857,0.5,-47.3606351521512
176,1,26,B,0,1,l,63,1,0.82,0B,1B,0,1,0,1,B01,3.30227173556356,2.6149597780362,0.932320939324285,0.236596451367346,0.5,0.5,0.5,0.87017973314081,0.5,0.236596451367346,0.5,0.5,0.932320939324285,0.236596451367346,0.236596451367346,0.236596451367346,0.236596451367346,0.725650435353259,1.08606079256037,0,0,1,1B,0B,0.87017973314081,0.5,0.635084370388497,0.364915629611503,1,1,0.12982026685919,0.0683902379502977,0.5,0.594333941541461,0.934060792560375,10.5686738752196,1.15051027955544,0.5,3.86320878412482,0.97932924606279,0.5,0.526807097265308,0.935583194633661,12.4194614047114,1.14937432460857,0.5,-47.3606351521512
176,1,27,A,3,0,l,9,1,0.82,3A,0A,0,1,0,1,A30,0.985772083787928,3.73766961828337,0.932320939324285,0.236596451367346,0.5,0.5,0.5,0.938569971091107,0.5,0.236596451367346,0.5,0.5,0.932320939324285,0.236596451367346,0.236596451367346,0.236596451367346,0.236596451367346,0.725650435353259,1.09406079256037,0,0,1,0A,3A,0.932320939324285,0.5,0.650916225356671,0.349083774643329,1,1,0.0676790606757153,0.0356538095002162,0.5,0.594333941541461,0.934060792560375,10.5686738752196,1.15051027955544,0.5,3.62701123282031,0.986749684443321,0.5,0.526807097265308,0.935583194633661,12.4194614047114,1.14937432460857,0.5,-47.3606351521512
176,1,28,D,3,2,a,63,0,0.82,3D,2D,1,0,0,1,D32,2.65627119464675,1.96944064646551,0.967974748824501,0.236596451367346,0.5,0.5,0.5,0.938569971091107,0.5,0.236596451367346,0.5,0.5,0.932320939324285,0.236596451367346,0.236596451367346,0.236596451367346,0.236596451367346,0.725650435353259,1.05006079256037,1,1,0,3D,2D,0.725650435353259,0.236596451367346,0.754120845042502,0.245879154957498,1,0,-0.725650435353259,-0.382277799477757,0.5,0.594333941541461,0.934060792560375,10.5686738752196,1.15051027955544,0.5,5.37998825759569,0.999293468140386,0.5,0.526807097265308,0.935583194633661,12.4194614047114,1.14937432460857,0.5,-47.3606351521512
176,1,29,C,0,2,l,27,1,0.82,0C,2C,0,1,0,1,C02,1.77049582419184,2.68557734525015,0.967974748824501,0.236596451367346,0.5,0.5,0.5,0.938569971091107,0.5,0.236596451367346,0.5,0.5,0.932320939324285,0.236596451367346,0.236596451367346,0.236596451367346,0.236596451367346,0.343372635875502,1.05106079256037,0,0,1,2C,0C,0.932320939324285,0.5,0.650916225356671,0.349083774643329,1,1,0.0676790606757153,0.0356538095002162,0.5,0.594333941541461,0.934060792560375,10.5686738752196,1.15051027955544,0.5,5.35511737304523,0.986726066488151,0.5,0.526807097265308,0.935583194633661,12.4194614047114,1.14937432460857,0.5,-47.3606351521512
176,1,30,A,0,1,a,63,0,0.82,0A,1A,1,0,0,1,A01,0.888287262909152,3.11351530921037,0.967974748824501,0.236596451367346,0.5,0.5,0.5,0.938569971091107,0.5,0.236596451367346,0.5,0.5,0.967974748824501,0.236596451367346,0.236596451367346,0.236596451367346,0.236596451367346,0.343372635875502,1.05406079256037,1,1,0,0A,1A,0.967974748824501,0.236596451367346,0.803584502659814,0.196415497340186,1,0,-0.967974748824501,-0.509935967654351,0.5,0.594333941541461,0.934060792560375,10.5686738752196,1.15051027955544,0.5,3.65998645051368,0.999828171063925,0.5,0.526807097265308,0.935583194633661,12.4194614047114,1.14937432460857,0.5,-47.3606351521512
176,1,31,B,0,1,l,63,1,0.82,0B,1B,0,1,0,1,B01,0.772343598336059,2.4423470353692,0.45803878117015,0.236596451367346,0.5,0.5,0.5,0.938569971091107,0.5,0.236596451367346,0.5,0.5,0.967974748824501,0.236596451367346,0.236596451367346,0.236596451367346,0.236596451367346,0.343372635875502,1.00806079256037,0,0,1,1B,0B,0.938569971091107,0.5,0.652432617079608,0.347567382920392,1,1,0.0614300289088926,0.0323617752144177,0.5,0.594333941541461,0.934060792560375,10.5686738752196,1.15051027955544,0.5,6.31013414531339,0.987295074276462,0.5,0.526807097265308,0.935583194633661,12.4194614047114,1.14937432460857,0.5,-47.3606351521512
176,1,32,D,1,3,l,27,1,0.82,1D,3D,0,1,0,1,D13,3.46418948094069,3.85014760171006,0.45803878117015,0.236596451367346,0.5,0.5,0.5,0.970931746305525,0.5,0.236596451367346,0.5,0.5,0.967974748824501,0.236596451367346,0.236596451367346,0.236596451367346,0.236596451367346,0.343372635875502,1.11006079256037,0,0,1,3D,1D,0.343372635875502,0.236596451367346,0.592053341166652,0.407946658833348,1,1,0.656627364124498,0.345915955679397,0.5,0.594333941541461,0.934060792560375,10.5686738752196,1.15051027955544,0.5,2.87541055677689,0.93271913031813,0.5,0.526807097265308,0.935583194633661,12.4194614047114,1.14937432460857,0.5,-47.3606351521512
176,1,33,C,2,3,a,63,1,0.82,2C,3C,1,0,1,0,C23,0.348517468404471,2.77258872223978,0.45803878117015,0.236596451367346,0.5,0.5,0.5,0.970931746305525,0.5,0.236596451367346,0.5,0.5,0.967974748824501,0.236596451367346,0.236596451367346,0.236596451367346,0.236596451367346,0.689288591554899,1.00206079256037,1,1,0,2C,3C,0.967974748824501,0.236596451367346,0.803584502659814,0.196415497340186,1,1,0.032025251175499,0.016871129610957,0.5,0.594333941541461,0.934060792560375,10.5686738752196,1.15051027955544,0.5,12.844409407962,0.999827768317401,0.5,0.526807097265308,0.935583194633661,12.4194614047114,1.14937432460857,0.5,-47.3606351521512
176,1,34,B,0,1,l,63,0,0.82,0B,1B,0,1,1,0,B01,3.09440165237816,2.28238238567653,0.45803878117015,0.236596451367346,0.5,0.5,0.5,0.970931746305525,0.5,0.236596451367346,0.5,0.5,0.984845878435458,0.236596451367346,0.236596451367346,0.236596451367346,0.236596451367346,0.689288591554899,1.16006079256037,0,0,1,1B,0B,0.970931746305525,0.5,0.660079401198711,0.339920598801289,1,0,-0.970931746305525,-0.51149373491395,0.5,0.594333941541461,0.934060792560375,10.5686738752196,1.15051027955544,0.5,1.70672113121337,0.989752458799745,0.5,0.526807097265308,0.935583194633661,12.4194614047114,1.14937432460857,0.5,-47.3606351521512
176,1,35,A,1,0,l,63,1,0.82,1A,0A,0,1,0,1,A10,2.41436738396062,2.52572864430826,0.45803878117015,0.236596451367346,0.5,0.5,0.5,0.459438011391575,0.5,0.236596451367346,0.5,0.5,0.984845878435458,0.236596451367346,0.236596451367346,0.236596451367346,0.236596451367346,0.689288591554899,0.986060792560375,0,0,1,0A,1A,0.45803878117015,0.236596451367346,0.659394686182183,0.340605313817817,1,1,0.54196121882985,0.285509016522121,0.5,0.594333941541461,0.934060792560375,10.5686738752196,1.15051027955544,0.5,5.02760897340327,0.989555948882826,0.5,0.526807097265308,0.935583194633661,12.4194614047114,1.14937432460857,0.5,-47.3606351521512
176,1,36,C,2,1,a,9,1,0.82,2C,1C,1,0,1,0,C21,0.675496258520444,3.93182563272433,0.743547797692272,0.236596451367346,0.5,0.5,0.5,0.459438011391575,0.5,0.236596451367346,0.5,0.5,0.984845878435458,0.236596451367346,0.236596451367346,0.236596451367346,0.236596451367346,0.689288591554899,1.06906079256037,1,1,0,2C,1C,0.984845878435458,0.5,0.663264715037741,0.336735284962259,1,1,0.015154121564542,0.00798329879302197,0.5,0.594333941541461,0.934060792560375,10.5686738752196,1.15051027955544,0.5,4.68104804924768,0.990627733999972,0.5,0.526807097265308,0.935583194633661,12.4194614047114,1.14937432460857,0.5,-47.3606351521512
176,1,37,A,0,1,a,63,1,0.82,0A,1A,1,0,1,0,A01,0.094194075067859,2.85263142991332,0.743547797692272,0.236596451367346,0.5,0.5,0.5,0.459438011391575,0.5,0.236596451367346,0.5,0.5,0.99282917722848,0.236596451367346,0.236596451367346,0.236596451367346,0.236596451367346,0.689288591554899,1.01606079256037,1,1,0,0A,1A,0.743547797692272,0.236596451367346,0.758610580438191,0.241389419561809,1,1,0.256452202307728,0.13510084028503,0.5,0.594333941541461,0.934060792560375,10.5686738752196,1.15051027955544,0.5,9.83647089655968,0.99937882212396,0.5,0.526807097265308,0.935583194633661,12.4194614047114,1.14937432460857,0.5,-47.3606351521512
176,1,38,D,1,3,l,27,1,0.82,1D,3D,0,1,0,1,D13,1.82850418802957,3.27714473299218,0.878648637977302,0.236596451367346,0.5,0.5,0.5,0.459438011391575,0.5,0.236596451367346,0.5,0.5,0.99282917722848,0.236596451367346,0.236596451367346,0.236596451367346,0.236596451367346,0.689288591554899,1.11406079256037,0,0,1,3D,1D,0.689288591554899,0.236596451367346,0.744464549701971,0.255535450298029,1,1,0.310711408445101,0.163684975170179,0.5,0.594333941541461,0.934060792560375,10.5686738752196,1.15051027955544,0.5,1.46816415549827,0.999070336262119,0.5,0.526807097265308,0.935583194633661,12.4194614047114,1.14937432460857,0.5,-47.3606351521512
176,1,39,B,1,0,a,63,1,0.82,1B,0B,1,0,1,0,B10,1.21161737719218,3.29583686600433,0.878648637977302,0.236596451367346,0.5,0.5,0.5,0.459438011391575,0.5,0.236596451367346,0.5,0.5,0.99282917722848,0.236596451367346,0.236596451367346,0.236596451367346,0.236596451367346,0.852973566725078,1.53606079256037,0,0,1,0B,1B,0.5,0.459438011391575,0.521138410260395,0.478861589739605,0,0,-0.5,-0.263403548632654,0.5,0.594333941541461,0.934060792560375,10.5686738752196,1.15051027955544,0.5,0.314186576305988,0.646493166205463,0.5,0.526807097265308,0.935583194633661,12.4194614047114,1.14937432460857,0.5,-47.3606351521512
176,1,40,C,3,2,l,63,0,0.82,3C,2C,0,1,1,0,C32,2.09821395148106,2.90872089656436,0.878648637977302,0.236596451367346,0.5,0.5,0.236596451367346,0.459438011391575,0.5,0.236596451367346,0.5,0.5,0.99282917722848,0.236596451367346,0.236596451367346,0.236596451367346,0.236596451367346,0.852973566725078,0.998060792560375,0,0,1,2C,3C,0.99282917722848,0.236596451367346,0.807555295851794,0.192444704148206,1,0,-0.99282917722848,-0.523029456936039,0.5,0.594333941541461,0.934060792560375,10.5686738752196,1.15051027955544,0.5,13.6067035590626,0.999846190092914,0.5,0.526807097265308,0.935583194633661,12.4194614047114,1.14937432460857,0.5,-47.3606351521512
176,1,41,A,0,2,a,27,1,0.82,0A,2A,1,0,1,0,A02,3.40986639327132,3.3322045101752,0.878648637977302,0.236596451367346,0.5,0.5,0.236596451367346,0.459438011391575,0.5,0.236596451367346,0.5,0.5,0.469799720292441,0.236596451367346,0.236596451367346,0.236596451367346,0.236596451367346,0.852973566725078,1.16106079256037,1,1,0,0A,2A,0.878648637977302,0.5,0.637326011699703,0.362673988300297,1,1,0.121351362022698,0.0639287587763693,0.5,0.594333941541461,0.934060792560375,10.5686738752196,1.15051027955544,0.5,1.95239327431433,0.980550330648095,0.5,0.526807097265308,0.935583194633661,12.4194614047114,1.14937432460857,0.5,-47.3606351521512
176,1,42,D,2,3,l,63,1,0.82,2D,3D,0,1,0,1,D23,2.12507558837081,4.04305126783455,0.942577396753671,0.236596451367346,0.5,0.5,0.236596451367346,0.459438011391575,0.5,0.236596451367346,0.5,0.5,0.469799720292441,0.236596451367346,0.236596451367346,0.236596451367346,0.236596451367346,0.852973566725078,0.993060792560375,0,0,1,3D,2D,0.852973566725078,0.236596451367346,0.782853375699921,0.217146624300079,1,1,0.147026433274922,0.0774545685348331,0.5,0.594333941541461,0.934060792560375,10.5686738752196,1.15051027955544,0.5,12.9073417505116,0.999689125518887,0.5,0.526807097265308,0.935583194633661,12.4194614047114,1.14937432460857,0.5,-47.3606351521512
176,1,43,B,1,3,a,27,1,0.82,1B,3B,1,0,1,0,B13,1.47856886618277,3.36729582998647,0.942577396753671,0.236596451367346,0.5,0.5,0.236596451367346,0.459438011391575,0.5,0.236596451367346,0.5,0.5,0.469799720292441,0.236596451367346,0.236596451367346,0.236596451367346,0.236596451367346,0.930428135259911,1.15106079256037,1,1,0,1B,3B,0.459438011391575,0.236596451367346,0.660079401198711,0.339920598801289,1,1,0.540561988608425,0.284771892110767,0.5,0.594333941541461,0.934060792560375,10.5686738752196,1.15051027955544,0.5,1.8923398860146,0.989768907666964,0.5,0.526807097265308,0.935583194633661,12.4194614047114,1.14937432460857,0.5,-47.3606351521512
176,1,44,C,3,2,l,63,1,0.82,3C,2C,0,1,0,1,C32,2.46243798281053,2.69124308278583,0.942577396753671,0.236596451367346,0.5,0.5,0.236596451367346,0.744209903502342,0.5,0.236596451367346,0.5,0.5,0.469799720292441,0.236596451367346,0.236596451367346,0.236596451367346,0.236596451367346,0.930428135259911,1.09806079256037,0,0,1,2C,3C,0.469799720292441,0.236596451367346,0.665065496021268,0.334934503978732,1,1,0.530200279707559,0.279313270321994,0.5,0.594333941541461,0.934060792560375,10.5686738752196,1.15051027955544,0.5,3.4082300900087,0.991111496900286,0.5,0.526807097265308,0.935583194633661,12.4194614047114,1.14937432460857,0.5,-47.3606351521512
