ID,session,trialNr,mod2Stim,visStimLeft,visStimRight,correctKey,frequency,rewardAccurate,probFB,stimPairLeft,stimPairRight,leftCorrect,rightCorrect,pCorrectLeft,pCorrectRight,triplet,rt,surprise,0A belief,1A belief,2A belief,3A belief,0B belief,1B belief,2B belief,3B belief,0C belief,1C belief,2C belief,3C belief,0D belief,1D belief,2D belief,3D belief,reactionTime,choice,choiceLeft,choiceRight,chosenPair,otherPair,beliefPair,beliefOtherPair,beliefPairNorm,beliefOtherPairNorm,choiceAccurate,reward,rewardPE,update2,sim_CBCsimpleRW_CBCdriftDiffusionLR_startBelief,sim_CBCsimpleRW_CBCdriftDiffusionLR_alpha1,sim_CBCsimpleRW_CBCdriftDiffusionLR_nonDecisionTime,sim_CBCsimpleRW_CBCdriftDiffusionLR_weight,sim_CBCsimpleRW_CBCdriftDiffusionLR_startingBoundary,sim_CBCsimpleRW_CBCdriftDiffusionLR_startingPoint,lik,corrLik,fitCBCsimpleRW_CBCdriftDiffusionLR_startBelief,fitCBCsimpleRW_CBCdriftDiffusionLR_alpha1,fitCBCsimpleRW_CBCdriftDiffusionLR_nonDecisionTime,fitCBCsimpleRW_CBCdriftDiffusionLR_weight,fitCBCsimpleRW_CBCdriftDiffusionLR_startingBoundary,fitCBCsimpleRW_CBCdriftDiffusionLR_startingPoint,fit_CBCsimpleRW_CBCdriftDiffusionLR_NLL
147,1,1,A,0,1,a,63,1,0.82,0A,1A,1,0,1,0,A01,0.0804707849704495,2.77258872223978,0.5,0.5,0.5,0.5,0.5,0.5,0.5,0.5,0.5,0.5,0.5,0.5,0.5,0.5,0.5,0.5,5.30633309108546,0,0,1,1A,0A,0.5,0.5,0.5,0.5,0,0,-0.5,-0.0620952481654053,0.5,0.156240789464365,0.71933309108546,5.34315471184275,4.05171994426999,0.5,0.0448180189328472,0.499955102977923,0.5,0.124190496330811,0.63554630577743,6.75174661104462,3.8548825195992,0.5,77.3614348449591
147,1,2,D,2,3,l,63,1,0.82,2D,3D,0,1,0,1,D23,2.4216276097627,2.83321334405622,0.5,0.437904751834595,0.5,0.5,0.5,0.5,0.5,0.5,0.5,0.5,0.5,0.5,0.5,0.5,0.5,0.5,1.54433309108546,1,1,0,2D,3D,0.5,0.5,0.5,0.5,0,0,-0.5,-0.0620952481654053,0.5,0.156240789464365,0.71933309108546,5.34315471184275,4.05171994426999,0.5,0.115066537709254,0.500491910644491,0.5,0.124190496330811,0.63554630577743,6.75174661104462,3.8548825195992,0.5,77.3614348449591
147,1,3,C,0,2,l,27,1,0.82,0C,2C,0,1,0,1,C02,2.56829869638723,2.89037175789616,0.5,0.437904751834595,0.5,0.5,0.5,0.5,0.5,0.5,0.5,0.5,0.5,0.5,0.5,0.5,0.437904751834595,0.5,2.99433309108546,1,1,0,0C,2C,0.5,0.5,0.5,0.5,0,0,-0.5,-0.0620952481654053,0.5,0.156240789464365,0.71933309108546,5.34315471184275,4.05171994426999,0.5,0.0959192053632981,0.499364923077311,0.5,0.124190496330811,0.63554630577743,6.75174661104462,3.8548825195992,0.5,77.3614348449591
147,1,4,A,0,1,a,63,1,0.82,0A,1A,1,0,1,0,A01,2.33876125449921,2.2512917986065,0.5,0.437904751834595,0.5,0.5,0.5,0.5,0.5,0.5,0.437904751834595,0.5,0.5,0.5,0.5,0.5,0.437904751834595,0.5,3.24533309108546,1,1,0,0A,1A,0.5,0.437904751834595,0.533103173879834,0.466896826120167,1,1,0.5,0.0620952481654053,0.5,0.156240789464365,0.71933309108546,5.34315471184275,4.05171994426999,0.5,0.161629215449681,0.848701180917425,0.5,0.124190496330811,0.63554630577743,6.75174661104462,3.8548825195992,0.5,77.3614348449591
147,1,5,B,1,3,a,27,1,0.82,1B,3B,1,0,1,0,B13,1.69064991986344,2.99573227355399,0.562095248165405,0.437904751834595,0.5,0.5,0.5,0.5,0.5,0.5,0.437904751834595,0.5,0.5,0.5,0.5,0.5,0.437904751834595,0.5,1.23633309108546,0,0,1,3B,1B,0.5,0.5,0.5,0.5,0,0,-0.5,-0.0620952481654053,0.5,0.156240789464365,0.71933309108546,5.34315471184275,4.05171994426999,0.5,0.0752533861534102,0.501691410580946,0.5,0.124190496330811,0.63554630577743,6.75174661104462,3.8548825195992,0.5,77.3614348449591
147,1,6,C,3,2,l,63,1,0.82,3C,2C,0,1,0,1,C32,2.40463675363521,3.04452243772342,0.562095248165405,0.437904751834595,0.5,0.5,0.5,0.5,0.5,0.437904751834595,0.437904751834595,0.5,0.5,0.5,0.5,0.5,0.437904751834595,0.5,6.17233309108546,0,0,1,2C,3C,0.5,0.5,0.5,0.5,1,1,0.5,0.0620952481654053,0.5,0.156240789464365,0.71933309108546,5.34315471184275,4.05171994426999,0.5,0.0335913550953558,0.499571310654124,0.5,0.124190496330811,0.63554630577743,6.75174661104462,3.8548825195992,0.5,77.3614348449591
147,1,7,D,3,2,a,63,0,0.82,3D,2D,1,0,0,1,D32,2.25326490564976,3.09104245335832,0.562095248165405,0.437904751834595,0.5,0.5,0.5,0.5,0.5,0.437904751834595,0.437904751834595,0.5,0.562095248165405,0.5,0.5,0.5,0.437904751834595,0.5,2.63333309108546,1,1,0,3D,2D,0.5,0.437904751834595,0.533103173879834,0.466896826120167,1,0,-0.5,-0.0620952481654053,0.5,0.156240789464365,0.71933309108546,5.34315471184275,4.05171994426999,0.5,0.2081843424906,0.849033747467783,0.5,0.124190496330811,0.63554630577743,6.75174661104462,3.8548825195992,0.5,77.3614348449591
147,1,8,B,0,1,l,63,1,0.82,0B,1B,0,1,0,1,B01,1.79295299056819,3.13549421592915,0.562095248165405,0.437904751834595,0.5,0.5,0.5,0.5,0.5,0.437904751834595,0.437904751834595,0.5,0.562095248165405,0.5,0.5,0.5,0.437904751834595,0.437904751834595,2.70733309108546,1,1,0,0B,1B,0.5,0.5,0.5,0.5,0,0,-0.5,-0.0620952481654053,0.5,0.156240789464365,0.71933309108546,5.34315471184275,4.05171994426999,0.5,0.105146611164095,0.500922268845587,0.5,0.124190496330811,0.63554630577743,6.75174661104462,3.8548825195992,0.5,77.3614348449591
147,1,9,A,2,0,l,27,1,0.82,2A,0A,0,1,0,1,A20,2.98483241055174,3.17805383034795,0.562095248165405,0.437904751834595,0.5,0.5,0.437904751834595,0.5,0.5,0.437904751834595,0.437904751834595,0.5,0.562095248165405,0.5,0.5,0.5,0.437904751834595,0.437904751834595,2.82833309108546,0,0,1,0A,2A,0.562095248165405,0.5,0.529232429140731,0.470767570859269,1,1,0.437904751834595,0.0543836084759587,0.5,0.156240789464365,0.71933309108546,5.34315471184275,4.05171994426999,0.5,0.182568516791201,0.821001296163712,0.5,0.124190496330811,0.63554630577743,6.75174661104462,3.8548825195992,0.5,77.3614348449591
147,1,10,D,3,0,a,9,1,0.82,3D,0D,1,0,1,0,D30,3.4311666819237,3.2188758248682,0.616478856641364,0.437904751834595,0.5,0.5,0.437904751834595,0.5,0.5,0.437904751834595,0.437904751834595,0.5,0.562095248165405,0.5,0.5,0.5,0.437904751834595,0.437904751834595,6.71833309108546,0,0,1,0D,3D,0.5,0.437904751834595,0.533103173879834,0.466896826120167,0,0,-0.5,-0.0620952481654053,0.5,0.156240789464365,0.71933309108546,5.34315471184275,4.05171994426999,0.5,0.0361419315603831,0.848672313364741,0.5,0.124190496330811,0.63554630577743,6.75174661104462,3.8548825195992,0.5,77.3614348449591
147,1,11,C,2,3,a,63,0,0.82,2C,3C,1,0,0,1,C23,2.24617216441373,3.25809653802148,0.616478856641364,0.437904751834595,0.5,0.5,0.437904751834595,0.5,0.5,0.437904751834595,0.437904751834595,0.5,0.562095248165405,0.5,0.437904751834595,0.5,0.437904751834595,0.437904751834595,1.41033309108546,1,1,0,2C,3C,0.562095248165405,0.5,0.529232429140731,0.470767570859269,1,0,-0.562095248165405,-0.0698068878548518,0.5,0.156240789464365,0.71933309108546,5.34315471184275,4.05171994426999,0.5,0.206457998214779,0.820545268307198,0.5,0.124190496330811,0.63554630577743,6.75174661104462,3.8548825195992,0.5,77.3614348449591
147,1,12,B,0,1,l,63,1,0.82,0B,1B,0,1,0,1,B01,1.04316013870415,2.60268968544438,0.616478856641364,0.437904751834595,0.5,0.5,0.437904751834595,0.5,0.5,0.437904751834595,0.437904751834595,0.5,0.492288360310554,0.5,0.437904751834595,0.5,0.437904751834595,0.437904751834595,1.72233309108546,1,1,0,0B,1B,0.437904751834595,0.5,0.466896826120167,0.533103173879834,0,0,-0.437904751834595,-0.0543836084759588,0.5,0.156240789464365,0.71933309108546,5.34315471184275,4.05171994426999,0.5,0.0467154017651955,0.152132069269517,0.5,0.124190496330811,0.63554630577743,6.75174661104462,3.8548825195992,0.5,77.3614348449591
147,1,13,D,2,3,l,63,0,0.82,2D,3D,0,1,1,0,D23,0.0839320460401942,2.63905732961526,0.616478856641364,0.437904751834595,0.5,0.5,0.383521143358636,0.5,0.5,0.437904751834595,0.437904751834595,0.5,0.492288360310554,0.5,0.437904751834595,0.5,0.437904751834595,0.437904751834595,5.39933309108546,1,1,0,2D,3D,0.437904751834595,0.437904751834595,0.5,0.5,0,1,0.562095248165405,0.0698068878548518,0.5,0.156240789464365,0.71933309108546,5.34315471184275,4.05171994426999,0.5,0.0434956182018527,0.500420842706409,0.5,0.124190496330811,0.63554630577743,6.75174661104462,3.8548825195992,0.5,77.3614348449591
147,1,14,C,2,3,a,63,1,0.82,2C,3C,1,0,1,0,C23,0.933165478984061,2.67414864942653,0.616478856641364,0.437904751834595,0.5,0.5,0.383521143358636,0.5,0.5,0.437904751834595,0.437904751834595,0.5,0.492288360310554,0.5,0.437904751834595,0.5,0.507711639689447,0.437904751834595,1.97633309108546,0,0,1,3C,2C,0.5,0.492288360310554,0.503885785623361,0.496114214376639,0,0,-0.5,-0.0620952481654053,0.5,0.156240789464365,0.71933309108546,5.34315471184275,4.05171994426999,0.5,0.13643835766239,0.548801958206177,0.5,0.124190496330811,0.63554630577743,6.75174661104462,3.8548825195992,0.5,77.3614348449591
147,1,15,B,3,1,l,27,1,0.82,3B,1B,0,1,0,1,B31,1.62194562620578,3.40119738166216,0.616478856641364,0.437904751834595,0.5,0.5,0.383521143358636,0.5,0.5,0.437904751834595,0.437904751834595,0.5,0.492288360310554,0.437904751834595,0.437904751834595,0.5,0.507711639689447,0.437904751834595,1.86033309108546,0,0,1,1B,3B,0.5,0.437904751834595,0.533103173879834,0.466896826120167,1,1,0.5,0.0620952481654053,0.5,0.156240789464365,0.71933309108546,5.34315471184275,4.05171994426999,0.5,0.260602149072127,0.848370000446212,0.5,0.124190496330811,0.63554630577743,6.75174661104462,3.8548825195992,0.5,77.3614348449591
147,1,16,A,0,3,a,9,1,0.82,0A,3A,1,0,1,0,A03,1.24934874156634,3.43398720448515,0.616478856641364,0.437904751834595,0.5,0.5,0.383521143358636,0.562095248165405,0.5,0.437904751834595,0.437904751834595,0.5,0.492288360310554,0.437904751834595,0.437904751834595,0.5,0.507711639689447,0.437904751834595,2.06233309108546,1,1,0,0A,3A,0.616478856641364,0.5,0.552163485205515,0.447836514794485,1,1,0.383521143358636,0.0476296811470689,0.5,0.156240789464365,0.71933309108546,5.34315471184275,4.05171994426999,0.5,0.334672378143518,0.937815494595856,0.5,0.124190496330811,0.63554630577743,6.75174661104462,3.8548825195992,0.5,77.3614348449591
147,1,17,D,2,3,l,63,1,0.82,2D,3D,0,1,0,1,D23,3.30113220350369,2.36712361413162,0.664108537788433,0.437904751834595,0.5,0.5,0.383521143358636,0.562095248165405,0.5,0.437904751834595,0.437904751834595,0.5,0.492288360310554,0.437904751834595,0.437904751834595,0.5,0.507711639689447,0.437904751834595,9.21033309108546,1,1,0,2D,3D,0.507711639689447,0.437904751834595,0.536910785642339,0.463089214357661,0,0,-0.507711639689447,-0.063052960525962,0.5,0.156240789464365,0.71933309108546,5.34315471184275,4.05171994426999,0.5,0.0110836778920575,0.871622077151214,0.5,0.124190496330811,0.63554630577743,6.75174661104462,3.8548825195992,0.5,77.3614348449591
147,1,18,C,0,2,l,27,1,0.82,0C,2C,0,1,0,1,C02,3.38034408274261,2.80336038090653,0.664108537788433,0.437904751834595,0.5,0.5,0.383521143358636,0.562095248165405,0.5,0.437904751834595,0.437904751834595,0.5,0.492288360310554,0.437904751834595,0.437904751834595,0.5,0.444658679163485,0.437904751834595,1.37933309108546,0,0,1,2C,0C,0.492288360310554,0.437904751834595,0.529232429140731,0.470767570859269,1,1,0.507711639689447,0.063052960525962,0.5,0.156240789464365,0.71933309108546,5.34315471184275,4.05171994426999,0.5,0.199744461674545,0.821656048766713,0.5,0.124190496330811,0.63554630577743,6.75174661104462,3.8548825195992,0.5,77.3614348449591
147,1,19,A,0,1,a,63,1,0.82,0A,1A,1,0,1,0,A01,3.24795400316685,2.42774823594805,0.664108537788433,0.437904751834595,0.5,0.5,0.383521143358636,0.562095248165405,0.5,0.437904751834595,0.437904751834595,0.5,0.555341320836516,0.437904751834595,0.437904751834595,0.5,0.444658679163485,0.437904751834595,2.83633309108546,1,1,0,0A,1A,0.664108537788433,0.437904751834595,0.60263205901592,0.39736794098408,1,1,0.335891462211567,0.0417145274053362,0.5,0.156240789464365,0.71933309108546,5.34315471184275,4.05171994426999,0.5,0.17627021743921,0.99523765288347,0.5,0.124190496330811,0.63554630577743,6.75174661104462,3.8548825195992,0.5,77.3614348449591
147,1,20,B,1,0,a,63,0,0.82,1B,0B,1,0,0,1,B10,2.10685195854751,3.55534806148941,0.705823065193769,0.437904751834595,0.5,0.5,0.383521143358636,0.562095248165405,0.5,0.437904751834595,0.437904751834595,0.5,0.555341320836516,0.437904751834595,0.437904751834595,0.5,0.444658679163485,0.437904751834595,1.69433309108546,1,1,0,1B,0B,0.562095248165405,0.383521143358636,0.594422065018862,0.405577934981138,1,0,-0.562095248165405,-0.0698068878548518,0.5,0.156240789464365,0.71933309108546,5.34315471184275,4.05171994426999,0.5,0.603174574282549,0.992735492691318,0.5,0.124190496330811,0.63554630577743,6.75174661104462,3.8548825195992,0.5,77.3614348449591
147,1,21,D,3,1,a,27,1,0.82,3D,1D,1,0,1,0,D31,3.00867672969077,3.58351893845611,0.705823065193769,0.437904751834595,0.5,0.5,0.383521143358636,0.492288360310554,0.5,0.437904751834595,0.437904751834595,0.5,0.555341320836516,0.437904751834595,0.437904751834595,0.5,0.444658679163485,0.437904751834595,2.68233309108546,0,0,1,1D,3D,0.5,0.437904751834595,0.533103173879834,0.466896826120167,0,0,-0.5,-0.0620952481654053,0.5,0.156240789464365,0.71933309108546,5.34315471184275,4.05171994426999,0.5,0.203973530809115,0.848503604769926,0.5,0.124190496330811,0.63554630577743,6.75174661104462,3.8548825195992,0.5,77.3614348449591
147,1,22,C,3,2,l,63,1,0.82,3C,2C,0,1,0,1,C32,2.49616927056354,2.91777073208428,0.705823065193769,0.437904751834595,0.5,0.5,0.383521143358636,0.492288360310554,0.5,0.437904751834595,0.437904751834595,0.5,0.555341320836516,0.437904751834595,0.437904751834595,0.437904751834595,0.444658679163485,0.437904751834595,1.60433309108546,0,0,1,2C,3C,0.555341320836516,0.437904751834595,0.559117560206456,0.440882439793544,1,1,0.444658679163484,0.0552223820631158,0.5,0.156240789464365,0.71933309108546,5.34315471184275,4.05171994426999,0.5,0.405541599604721,0.955952936267046,0.5,0.124190496330811,0.63554630577743,6.75174661104462,3.8548825195992,0.5,77.3614348449591
147,1,23,B,0,1,l,63,1,0.82,0B,1B,0,1,0,1,B01,3.1090828702934,2.53897387105828,0.705823065193769,0.437904751834595,0.5,0.5,0.383521143358636,0.492288360310554,0.5,0.437904751834595,0.437904751834595,0.5,0.610563702899631,0.437904751834595,0.437904751834595,0.437904751834595,0.444658679163485,0.437904751834595,4.05833309108546,0,0,1,1B,0B,0.492288360310554,0.383521143358636,0.562095248165405,0.437904751834595,1,1,0.507711639689447,0.063052960525962,0.5,0.156240789464365,0.71933309108546,5.34315471184275,4.05171994426999,0.5,0.102590574383974,0.961879348198527,0.5,0.124190496330811,0.63554630577743,6.75174661104462,3.8548825195992,0.5,77.3614348449591
147,1,24,A,0,2,a,27,1,0.82,0A,2A,1,0,1,0,A02,0.847820916427144,3.66356164612965,0.705823065193769,0.437904751834595,0.5,0.5,0.383521143358636,0.555341320836516,0.5,0.437904751834595,0.437904751834595,0.5,0.610563702899631,0.437904751834595,0.437904751834595,0.437904751834595,0.444658679163485,0.437904751834595,1.94933309108546,1,1,0,0A,2A,0.705823065193769,0.5,0.585345466982212,0.414654533017788,1,1,0.294176934806231,0.0365339795426623,0.5,0.156240789464365,0.71933309108546,5.34315471184275,4.05171994426999,0.5,0.478291017926297,0.988333203063404,0.5,0.124190496330811,0.63554630577743,6.75174661104462,3.8548825195992,0.5,77.3614348449591
147,1,25,D,3,2,a,63,1,0.82,3D,2D,1,0,1,0,D32,2.76069472399656,2.99573227355399,0.742357044736432,0.437904751834595,0.5,0.5,0.383521143358636,0.555341320836516,0.5,0.437904751834595,0.437904751834595,0.5,0.610563702899631,0.437904751834595,0.437904751834595,0.437904751834595,0.444658679163485,0.437904751834595,1.87433309108546,1,1,0,3D,2D,0.437904751834595,0.444658679163485,0.496173687300157,0.503826312699843,1,1,0.562095248165405,0.0698068878548518,0.5,0.156240789464365,0.71933309108546,5.34315471184275,4.05171994426999,0.5,0.112589624719438,0.450686865254964,0.5,0.124190496330811,0.63554630577743,6.75174661104462,3.8548825195992,0.5,77.3614348449591
147,1,26,C,0,2,l,27,1,0.82,0C,2C,0,1,0,1,C02,3.31438837788487,2.6149597780362,0.742357044736432,0.437904751834595,0.5,0.5,0.383521143358636,0.555341320836516,0.5,0.437904751834595,0.437904751834595,0.5,0.610563702899631,0.437904751834595,0.437904751834595,0.437904751834595,0.444658679163485,0.507711639689447,2.99833309108546,0,0,1,2C,0C,0.610563702899631,0.437904751834595,0.582338648475983,0.417661351524017,1,1,0.389436297100369,0.0483642870261278,0.5,0.156240789464365,0.71933309108546,5.34315471184275,4.05171994426999,0.5,0.189957679538127,0.986374474075663,0.5,0.124190496330811,0.63554630577743,6.75174661104462,3.8548825195992,0.5,77.3614348449591
147,1,27,B,0,1,l,63,1,0.82,0B,1B,0,1,0,1,B01,0.105615030596925,2.35137525716348,0.742357044736432,0.437904751834595,0.5,0.5,0.383521143358636,0.555341320836516,0.5,0.437904751834595,0.437904751834595,0.5,0.658927989925759,0.437904751834595,0.437904751834595,0.437904751834595,0.444658679163485,0.507711639689447,2.09633309108546,0,0,1,1B,0B,0.555341320836516,0.383521143358636,0.591504445022826,0.408495554977174,1,1,0.444658679163484,0.0552223820631158,0.5,0.156240789464365,0.71933309108546,5.34315471184275,4.05171994426999,0.5,0.433218955940633,0.991518989518671,0.5,0.124190496330811,0.63554630577743,6.75174661104462,3.8548825195992,0.5,77.3614348449591
147,1,28,A,1,0,l,63,1,0.82,1A,0A,0,1,0,1,A10,2.4698154099306,3.76120011569356,0.742357044736432,0.437904751834595,0.5,0.5,0.383521143358636,0.610563702899631,0.5,0.437904751834595,0.437904751834595,0.5,0.658927989925759,0.437904751834595,0.437904751834595,0.437904751834595,0.444658679163485,0.507711639689447,2.24833309108546,0,0,1,0A,1A,0.742357044736432,0.437904751834595,0.628976593916007,0.371023406083993,1,1,0.257642955263568,0.0319968064903194,0.5,0.156240789464365,0.71933309108546,5.34315471184275,4.05171994426999,0.5,0.294600870398207,0.998794148506442,0.5,0.124190496330811,0.63554630577743,6.75174661104462,3.8548825195992,0.5,77.3614348449591
147,1,29,C,2,3,a,63,0,0.82,2C,3C,1,0,0,1,C23,3.12746023986547,2.68557734525015,0.774353851226751,0.437904751834595,0.5,0.5,0.383521143358636,0.610563702899631,0.5,0.437904751834595,0.437904751834595,0.5,0.658927989925759,0.437904751834595,0.437904751834595,0.437904751834595,0.444658679163485,0.507711639689447,3.08633309108546,1,1,0,2C,3C,0.658927989925759,0.437904751834595,0.600755215301302,0.399244784698698,1,0,-0.658927989925759,-0.0818325941151434,0.5,0.156240789464365,0.71933309108546,5.34315471184275,4.05171994426999,0.5,0.132922237638592,0.994749181807056,0.5,0.124190496330811,0.63554630577743,6.75174661104462,3.8548825195992,0.5,77.3614348449591
147,1,30,D,1,3,l,27,1,0.82,1D,3D,0,1,0,1,D13,2.65808390633579,3.80666248977032,0.774353851226751,0.437904751834595,0.5,0.5,0.383521143358636,0.610563702899631,0.5,0.437904751834595,0.437904751834595,0.5,0.577095395810616,0.437904751834595,0.437904751834595,0.437904751834595,0.444658679163485,0.507711639689447,3.64033309108546,0,0,1,3D,1D,0.507711639689447,0.437904751834595,0.536910785642339,0.463089214357661,1,1,0.492288360310553,0.0611375358048485,0.5,0.156240789464365,0.71933309108546,5.34315471184275,4.05171994426999,0.5,0.140129212724729,0.872467779002931,0.5,0.124190496330811,0.63554630577743,6.75174661104462,3.8548825195992,0.5,77.3614348449591
147,1,31,A,0,1,a,63,0,0.82,0A,1A,1,0,0,1,A01,3.03031812543184,2.4423470353692,0.774353851226751,0.437904751834595,0.5,0.5,0.383521143358636,0.610563702899631,0.5,0.437904751834595,0.437904751834595,0.5,0.577095395810616,0.437904751834595,0.437904751834595,0.437904751834595,0.444658679163485,0.568849175494295,0.92733309108546,1,1,0,0A,1A,0.774353851226751,0.437904751834595,0.638769524317053,0.361230475682947,1,0,-0.774353851226751,-0.0961673891195249,0.5,0.156240789464365,0.71933309108546,5.34315471184275,4.05171994426999,0.5,0.186121496224508,0.999271944215805,0.5,0.124190496330811,0.63554630577743,6.75174661104462,3.8548825195992,0.5,77.3614348449591
147,1,32,D,2,3,l,63,1,0.82,2D,3D,0,1,0,1,D23,0.21993021615994,2.46385324059017,0.678186462107226,0.437904751834595,0.5,0.5,0.383521143358636,0.610563702899631,0.5,0.437904751834595,0.437904751834595,0.5,0.577095395810616,0.437904751834595,0.437904751834595,0.437904751834595,0.444658679163485,0.568849175494295,3.41733309108546,0,0,1,3D,2D,0.568849175494295,0.444658679163485,0.561267653605282,0.438732346394718,1,1,0.431150824505705,0.0535448348888017,0.5,0.156240789464365,0.71933309108546,5.34315471184275,4.05171994426999,0.5,0.159327014098662,0.960351278543367,0.5,0.124190496330811,0.63554630577743,6.75174661104462,3.8548825195992,0.5,77.3614348449591
147,1,33,B,1,2,a,9,1,0.82,1B,2B,1,0,1,0,B12,0.125266198401805,3.87120101090789,0.678186462107226,0.437904751834595,0.5,0.5,0.383521143358636,0.610563702899631,0.5,0.437904751834595,0.437904751834595,0.5,0.577095395810616,0.437904751834595,0.437904751834595,0.437904751834595,0.444658679163485,0.622394010383097,4.29433309108546,1,1,0,1B,2B,0.610563702899631,0.5,0.549778190395992,0.450221809604008,1,1,0.389436297100369,0.0483642870261278,0.5,0.156240789464365,0.71933309108546,5.34315471184275,4.05171994426999,0.5,0.100102940220761,0.930950688002341,0.5,0.124190496330811,0.63554630577743,6.75174661104462,3.8548825195992,0.5,77.3614348449591
147,1,34,A,0,1,a,63,1,0.82,0A,1A,1,0,1,0,A01,1.56690892105438,2.28238238567653,0.678186462107226,0.437904751834595,0.5,0.5,0.383521143358636,0.658927989925759,0.5,0.437904751834595,0.437904751834595,0.5,0.577095395810616,0.437904751834595,0.437904751834595,0.437904751834595,0.444658679163485,0.622394010383097,1.80733309108546,1,1,0,0A,1A,0.678186462107226,0.437904751834595,0.607644297917194,0.392355702082806,1,1,0.321813537892774,0.0399661829968777,0.5,0.156240789464365,0.71933309108546,5.34315471184275,4.05171994426999,0.5,0.59318242729259,0.996311525623468,0.5,0.124190496330811,0.63554630577743,6.75174661104462,3.8548825195992,0.5,77.3614348449591
147,1,35,C,1,2,l,9,1,0.82,1C,2C,0,1,0,1,C12,3.14375477336763,3.91202300542815,0.718152645104104,0.437904751834595,0.5,0.5,0.383521143358636,0.658927989925759,0.5,0.437904751834595,0.437904751834595,0.5,0.577095395810616,0.437904751834595,0.437904751834595,0.437904751834595,0.444658679163485,0.622394010383097,2.03033309108546,0,0,1,2C,1C,0.577095395810616,0.5,0.53578856436973,0.46421143563027,1,1,0.422904604189384,0.0525207326948646,0.5,0.156240789464365,0.71933309108546,5.34315471184275,4.05171994426999,0.5,0.26509983086484,0.864721759447001,0.5,0.124190496330811,0.63554630577743,6.75174661104462,3.8548825195992,0.5,77.3614348449591
147,1,36,B,0,1,l,63,1,0.82,0B,1B,0,1,0,1,B01,2.53598255109669,2.32238772029023,0.718152645104104,0.437904751834595,0.5,0.5,0.383521143358636,0.658927989925759,0.5,0.437904751834595,0.437904751834595,0.5,0.62961612850548,0.437904751834595,0.437904751834595,0.437904751834595,0.444658679163485,0.622394010383097,1.77233309108546,0,0,1,1B,0B,0.658927989925759,0.383521143358636,0.632096060025208,0.367903939974792,1,1,0.341072010074241,0.0423579022156672,0.5,0.156240789464365,0.71933309108546,5.34315471184275,4.05171994426999,0.5,0.631563360818263,0.998971786368494,0.5,0.124190496330811,0.63554630577743,6.75174661104462,3.8548825195992,0.5,77.3614348449591
147,1,37,A,1,0,l,63,0,0.82,1A,0A,0,1,1,0,A10,0.546157921167934,3.25809653802148,0.718152645104104,0.437904751834595,0.5,0.5,0.383521143358636,0.701285892141426,0.5,0.437904751834595,0.437904751834595,0.5,0.62961612850548,0.437904751834595,0.437904751834595,0.437904751834595,0.444658679163485,0.622394010383097,1.41233309108546,0,0,1,0A,1A,0.718152645104104,0.437904751834595,0.621208468546467,0.378791531453533,1,0,-0.718152645104104,-0.0891877334367631,0.5,0.156240789464365,0.71933309108546,5.34315471184275,4.05171994426999,0.5,0.852643868473447,0.998199986293535,0.5,0.124190496330811,0.63554630577743,6.75174661104462,3.8548825195992,0.5,77.3614348449591
147,1,38,B,1,0,a,63,1,0.82,1B,0B,1,0,1,0,B10,1.56282364809952,3.27714473299218,0.628964911667341,0.437904751834595,0.5,0.5,0.383521143358636,0.701285892141426,0.5,0.437904751834595,0.437904751834595,0.5,0.62961612850548,0.437904751834595,0.437904751834595,0.437904751834595,0.444658679163485,0.622394010383097,1.19633309108546,1,1,0,1B,0B,0.701285892141426,0.383521143358636,0.646461415894261,0.353538584105739,1,1,0.298714107858574,0.0370974533159715,0.5,0.156240789464365,0.71933309108546,5.34315471184275,4.05171994426999,0.5,1.00919822097955,0.999514810115234,0.5,0.124190496330811,0.63554630577743,6.75174661104462,3.8548825195992,0.5,77.3614348449591
147,1,39,D,3,1,a,27,1,0.82,3D,1D,1,0,1,0,D31,3.37572109705662,3.29583686600433,0.628964911667341,0.437904751834595,0.5,0.5,0.383521143358636,0.738383345457398,0.5,0.437904751834595,0.437904751834595,0.5,0.62961612850548,0.437904751834595,0.437904751834595,0.437904751834595,0.444658679163485,0.622394010383097,3.15733309108546,1,1,0,3D,1D,0.622394010383097,0.437904751834595,0.586998714476771,0.413001285523229,1,1,0.377605989616903,0.0468950752680101,0.5,0.156240789464365,0.71933309108546,5.34315471184275,4.05171994426999,0.5,0.154077783203887,0.989294369859852,0.5,0.124190496330811,0.63554630577743,6.75174661104462,3.8548825195992,0.5,77.3614348449591
147,1,40,C,2,3,a,63,1,0.82,2C,3C,1,0,1,0,C23,2.76337264043352,2.62103882411258,0.628964911667341,0.437904751834595,0.5,0.5,0.383521143358636,0.738383345457398,0.5,0.437904751834595,0.437904751834595,0.5,0.62961612850548,0.437904751834595,0.437904751834595,0.437904751834595,0.444658679163485,0.669289085651107,4.31133309108546,1,1,0,2C,3C,0.62961612850548,0.437904751834595,0.589792799467217,0.410207200532783,1,1,0.37038387149452,0.0459981568338316,0.5,0.156240789464365,0.71933309108546,5.34315471184275,4.05171994426999,0.5,0.0431318132922772,0.990803837923689,0.5,0.124190496330811,0.63554630577743,6.75174661104462,3.8548825195992,0.5,77.3614348449591
147,1,41,A,2,0,l,27,1,0.82,2A,0A,0,1,0,1,A20,0.536767041421984,3.3322045101752,0.628964911667341,0.437904751834595,0.5,0.5,0.383521143358636,0.738383345457398,0.5,0.437904751834595,0.437904751834595,0.5,0.675614285339312,0.437904751834595,0.437904751834595,0.437904751834595,0.444658679163485,0.669289085651107,5.10933309108546,0,0,1,0A,2A,0.628964911667341,0.5,0.557116439286353,0.442883560713647,1,1,0.371035088332659,0.0460790317761791,0.5,0.156240789464365,0.71933309108546,5.34315471184275,4.05171994426999,0.5,0.0557970472408331,0.951618875464099,0.5,0.124190496330811,0.63554630577743,6.75174661104462,3.8548825195992,0.5,77.3614348449591
147,1,42,D,3,2,a,63,1,0.82,3D,2D,1,0,1,0,D32,2.33068102845021,2.94443897916644,0.67504394344352,0.437904751834595,0.5,0.5,0.383521143358636,0.738383345457398,0.5,0.437904751834595,0.437904751834595,0.5,0.675614285339312,0.437904751834595,0.437904751834595,0.437904751834595,0.444658679163485,0.669289085651107,1.51133309108546,1,1,0,3D,2D,0.669289085651107,0.444658679163485,0.60082627461666,0.399173725383339,1,1,0.330710914348893,0.0410711525950052,0.5,0.156240789464365,0.71933309108546,5.34315471184275,4.05171994426999,0.5,0.689021140428034,0.994765783622156,0.5,0.124190496330811,0.63554630577743,6.75174661104462,3.8548825195992,0.5,77.3614348449591
147,1,43,B,3,1,l,27,0,0.82,3B,1B,0,1,1,0,B31,1.198418017377,3.36729582998647,0.67504394344352,0.437904751834595,0.5,0.5,0.383521143358636,0.738383345457398,0.5,0.437904751834595,0.437904751834595,0.5,0.675614285339312,0.437904751834595,0.437904751834595,0.437904751834595,0.444658679163485,0.710360238246112,1.54333309108546,0,0,1,1B,3B,0.738383345457398,0.437904751834595,0.627723214370082,0.372276785629918,1,0,-0.738383345457398,-0.0917001941547586,0.5,0.156240789464365,0.71933309108546,5.34315471184275,4.05171994426999,0.5,0.827439780121796,0.998709841436381,0.5,0.124190496330811,0.63554630577743,6.75174661104462,3.8548825195992,0.5,77.3614348449591
147,1,44,C,2,3,a,63,1,0.82,2C,3C,1,0,1,0,C23,3.25085389674103,2.46809953147162,0.67504394344352,0.437904751834595,0.5,0.5,0.383521143358636,0.646683151302639,0.5,0.437904751834595,0.437904751834595,0.5,0.675614285339312,0.437904751834595,0.437904751834595,0.437904751834595,0.444658679163485,0.710360238246112,1.69033309108546,1,1,0,2C,3C,0.675614285339312,0.437904751834595,0.606737974641197,0.393262025358803,1,1,0.324385714660688,0.0402856229063355,0.5,0.156240789464365,0.71933309108546,5.34315471184275,4.05171994426999,0.5,0.655976785119376,0.996140534531956,0.5,0.124190496330811,0.63554630577743,6.75174661104462,3.8548825195992,0.5,77.3614348449591
