ID,session,trialNr,mod2Stim,visStimLeft,visStimRight,correctKey,frequency,rewardAccurate,probFB,stimPairLeft,stimPairRight,leftCorrect,rightCorrect,pCorrectLeft,pCorrectRight,triplet,rt,surprise,0A belief,1A belief,2A belief,3A belief,0B belief,1B belief,2B belief,3B belief,0C belief,1C belief,2C belief,3C belief,0D belief,1D belief,2D belief,3D belief,reactionTime,choice,choiceLeft,choiceRight,chosenPair,otherPair,beliefPair,beliefOtherPair,beliefPairNorm,beliefOtherPairNorm,choiceAccurate,reward,rewardPE,update2,sim_CBCsimpleRW_CBCdriftDiffusionLR_startBelief,sim_CBCsimpleRW_CBCdriftDiffusionLR_alpha1,sim_CBCsimpleRW_CBCdriftDiffusionLR_nonDecisionTime,sim_CBCsimpleRW_CBCdriftDiffusionLR_weight,sim_CBCsimpleRW_CBCdriftDiffusionLR_startingBoundary,sim_CBCsimpleRW_CBCdriftDiffusionLR_startingPoint,lik,corrLik,fitCBCsimpleRW_CBCdriftDiffusionLR_startBelief,fitCBCsimpleRW_CBCdriftDiffusionLR_alpha1,fitCBCsimpleRW_CBCdriftDiffusionLR_nonDecisionTime,fitCBCsimpleRW_CBCdriftDiffusionLR_weight,fitCBCsimpleRW_CBCdriftDiffusionLR_startingBoundary,fitCBCsimpleRW_CBCdriftDiffusionLR_startingPoint,fit_CBCsimpleRW_CBCdriftDiffusionLR_NLL
121,1,1,C,0,2,l,27,1,0.95,0C,2C,0,1,0,1,C02,1.32222748893641,2.77258872223978,0.5,0.5,0.5,0.5,0.5,0.5,0.5,0.5,0.5,0.5,0.5,0.5,0.5,0.5,0.5,0.5,2.10880943974692,1,1,0,0C,2C,0.5,0.5,0.5,0.5,0,0,-0.5,-0.182821873814542,0.5,0.338828026228898,0.955809439746922,11.8122691672855,1.46868211668555,0.5,0.108130445233505,0.500128721890861,0.5,0.365643747629083,0.96007450418062,12.0912908983742,1.48125631902839,0.5,-26.7615503734847
121,1,2,D,2,3,l,63,1,0.95,2D,3D,0,1,0,1,D23,0.366244463844451,2.83321334405622,0.5,0.5,0.5,0.5,0.5,0.5,0.5,0.5,0.317178126185458,0.5,0.5,0.5,0.5,0.5,0.5,0.5,1.92380943974692,0,0,1,3D,2D,0.5,0.5,0.5,0.5,1,1,0.5,0.182821873814542,0.5,0.338828026228898,0.955809439746922,11.8122691672855,1.46868211668555,0.5,0.163920540494008,0.500108474370538,0.5,0.365643747629083,0.96007450418062,12.0912908983742,1.48125631902839,0.5,-26.7615503734847
121,1,3,A,0,1,a,63,1,0.95,0A,1A,1,0,1,0,A01,1.26719796991343,2.89037175789616,0.5,0.5,0.5,0.5,0.5,0.5,0.5,0.5,0.317178126185458,0.5,0.5,0.5,0.5,0.5,0.5,0.682821873814542,1.14380943974692,1,1,0,0A,1A,0.5,0.5,0.5,0.5,1,1,0.5,0.182821873814542,0.5,0.338828026228898,0.955809439746922,11.8122691672855,1.46868211668555,0.5,0.843237749232705,0.500018922789474,0.5,0.365643747629083,0.96007450418062,12.0912908983742,1.48125631902839,0.5,-26.7615503734847
121,1,4,C,3,2,l,63,1,0.95,3C,2C,0,1,0,1,C32,3.03393942857194,2.94443897916644,0.682821873814542,0.5,0.5,0.5,0.5,0.5,0.5,0.5,0.317178126185458,0.5,0.5,0.5,0.5,0.5,0.5,0.682821873814542,1.36580943974692,0,0,1,2C,3C,0.5,0.5,0.5,0.5,1,1,0.5,0.182821873814542,0.5,0.338828026228898,0.955809439746922,11.8122691672855,1.46868211668555,0.5,0.573743737156705,0.500023248430027,0.5,0.365643747629083,0.96007450418062,12.0912908983742,1.48125631902839,0.5,-26.7615503734847
121,1,5,A,2,0,l,27,1,0.95,2A,0A,0,1,0,1,A20,1.34509877212803,2.99573227355399,0.682821873814542,0.5,0.5,0.5,0.5,0.5,0.5,0.5,0.317178126185458,0.5,0.682821873814542,0.5,0.5,0.5,0.5,0.682821873814542,1.36180943974692,0,0,1,0A,2A,0.682821873814542,0.5,0.577282081884802,0.422717918115198,1,1,0.317178126185458,0.115974198724421,0.5,0.338828026228898,0.955809439746922,11.8122691672855,1.46868211668555,0.5,1.14547027837117,0.940800129434142,0.5,0.365643747629083,0.96007450418062,12.0912908983742,1.48125631902839,0.5,-26.7615503734847
121,1,6,D,3,2,a,63,1,0.95,3D,2D,1,0,1,0,D32,0.249233557181765,3.04452243772342,0.798796072538963,0.5,0.5,0.5,0.5,0.5,0.5,0.5,0.317178126185458,0.5,0.682821873814542,0.5,0.5,0.5,0.5,0.682821873814542,1.22880943974692,1,1,0,3D,2D,0.682821873814542,0.5,0.577282081884802,0.422717918115198,1,1,0.317178126185458,0.115974198724421,0.5,0.338828026228898,0.955809439746922,11.8122691672855,1.46868211668555,0.5,1.90722996313297,0.941074914442957,0.5,0.365643747629083,0.96007450418062,12.0912908983742,1.48125631902839,0.5,-26.7615503734847
121,1,7,D,2,3,l,63,1,0.95,2D,3D,0,1,0,1,D23,0.327748928516054,2.39789527279837,0.798796072538963,0.5,0.5,0.5,0.5,0.5,0.5,0.5,0.317178126185458,0.5,0.682821873814542,0.5,0.5,0.5,0.5,0.798796072538963,1.62380943974692,0,0,1,3D,2D,0.798796072538963,0.5,0.615028093654017,0.384971906345983,1,1,0.201203927461037,0.0735689580745438,0.5,0.338828026228898,0.955809439746922,11.8122691672855,1.46868211668555,0.5,0.193468210078012,0.984043204669747,0.5,0.365643747629083,0.96007450418062,12.0912908983742,1.48125631902839,0.5,-26.7615503734847
121,1,8,B,1,3,a,27,1,0.95,1B,3B,1,0,1,0,B13,0.353430098049751,3.13549421592915,0.798796072538963,0.5,0.5,0.5,0.5,0.5,0.5,0.5,0.317178126185458,0.5,0.682821873814542,0.5,0.5,0.5,0.5,0.872365030613507,1.22180943974692,0,0,1,3B,1B,0.5,0.5,0.5,0.5,0,0,-0.5,-0.182821873814542,0.5,0.338828026228898,0.955809439746922,11.8122691672855,1.46868211668555,0.5,0.772132026925289,0.499260549924167,0.5,0.365643747629083,0.96007450418062,12.0912908983742,1.48125631902839,0.5,-26.7615503734847
121,1,9,D,3,0,a,9,1,0.95,3D,0D,1,0,1,0,D30,2.15105653673884,3.17805383034795,0.798796072538963,0.5,0.5,0.5,0.5,0.5,0.5,0.317178126185458,0.317178126185458,0.5,0.682821873814542,0.5,0.5,0.5,0.5,0.872365030613507,1.08280943974692,1,1,0,3D,0D,0.872365030613507,0.5,0.635665446986449,0.364334553013551,1,1,0.127634969386493,0.0466689285350007,0.5,0.338828026228898,0.955809439746922,11.8122691672855,1.46868211668555,0.5,4.3145192241095,0.992303073557134,0.5,0.365643747629083,0.96007450418062,12.0912908983742,1.48125631902839,0.5,-26.7615503734847
121,1,10,B,0,1,l,63,1,0.95,0B,1B,0,1,0,1,B01,2.7007756386116,3.2188758248682,0.798796072538963,0.5,0.5,0.5,0.5,0.5,0.5,0.317178126185458,0.317178126185458,0.5,0.682821873814542,0.5,0.5,0.5,0.5,0.919033959148507,1.43480943974692,1,1,0,0B,1B,0.5,0.5,0.5,0.5,0,0,-0.5,-0.182821873814542,0.5,0.338828026228898,0.955809439746922,11.8122691672855,1.46868211668555,0.5,0.491722893729318,0.499762363037859,0.5,0.365643747629083,0.96007450418062,12.0912908983742,1.48125631902839,0.5,-26.7615503734847
121,1,11,A,0,1,a,63,1,0.95,0A,1A,1,0,1,0,A01,2.72916834375005,2.56494935746154,0.798796072538963,0.5,0.5,0.5,0.317178126185458,0.5,0.5,0.317178126185458,0.317178126185458,0.5,0.682821873814542,0.5,0.5,0.5,0.5,0.919033959148507,1.36080943974692,1,1,0,0A,1A,0.798796072538963,0.5,0.615028093654017,0.384971906345983,1,1,0.201203927461037,0.0735689580745438,0.5,0.338828026228898,0.955809439746922,11.8122691672855,1.46868211668555,0.5,0.965706773609153,0.984029169275942,0.5,0.365643747629083,0.96007450418062,12.0912908983742,1.48125631902839,0.5,-26.7615503734847
121,1,12,B,1,0,a,63,1,0.95,1B,0B,1,0,1,0,B10,1.37260928033751,3.29583686600433,0.872365030613507,0.5,0.5,0.5,0.317178126185458,0.5,0.5,0.317178126185458,0.317178126185458,0.5,0.682821873814542,0.5,0.5,0.5,0.5,0.919033959148507,1.20280943974692,1,1,0,1B,0B,0.5,0.317178126185458,0.611861703070751,0.388138296929249,1,1,0.5,0.182821873814542,0.5,0.338828026228898,0.955809439746922,11.8122691672855,1.46868211668555,0.5,2.4338347911187,0.982098332630496,0.5,0.365643747629083,0.96007450418062,12.0912908983742,1.48125631902839,0.5,-26.7615503734847
121,1,13,D,3,2,a,63,1,0.95,3D,2D,1,0,1,0,D32,2.55523051024083,2.63905732961526,0.872365030613507,0.5,0.5,0.5,0.317178126185458,0.682821873814542,0.5,0.317178126185458,0.317178126185458,0.5,0.682821873814542,0.5,0.5,0.5,0.5,0.919033959148507,1.18280943974692,1,1,0,3D,2D,0.919033959148507,0.5,0.647647614930917,0.352352385069083,1,1,0.0809660408514926,0.0296047266076292,0.5,0.338828026228898,0.955809439746922,11.8122691672855,1.46868211668555,0.5,2.79131214149554,0.99498987651763,0.5,0.365643747629083,0.96007450418062,12.0912908983742,1.48125631902839,0.5,-26.7615503734847
121,1,14,B,3,1,l,27,1,0.95,3B,1B,0,1,0,1,B31,2.2123990077268,3.36729582998647,0.872365030613507,0.5,0.5,0.5,0.317178126185458,0.682821873814542,0.5,0.317178126185458,0.317178126185458,0.5,0.682821873814542,0.5,0.5,0.5,0.5,0.948638685756137,1.12980943974692,0,0,1,1B,3B,0.682821873814542,0.317178126185458,0.682821873814542,0.317178126185458,1,1,0.317178126185458,0.115974198724421,0.5,0.338828026228898,0.955809439746922,11.8122691672855,1.46868211668555,0.5,4.22406534523968,0.998568731467674,0.5,0.365643747629083,0.96007450418062,12.0912908983742,1.48125631902839,0.5,-26.7615503734847
121,1,15,C,2,3,a,63,1,0.95,2C,3C,1,0,1,0,C23,2.14548975832566,3.40119738166216,0.872365030613507,0.5,0.5,0.5,0.317178126185458,0.798796072538963,0.5,0.317178126185458,0.317178126185458,0.5,0.682821873814542,0.5,0.5,0.5,0.5,0.948638685756137,1.06380943974692,1,1,0,2C,3C,0.682821873814542,0.5,0.577282081884802,0.422717918115198,1,1,0.317178126185458,0.115974198724421,0.5,0.338828026228898,0.955809439746922,11.8122691672855,1.46868211668555,0.5,2.09190154731872,0.940833998253855,0.5,0.365643747629083,0.96007450418062,12.0912908983742,1.48125631902839,0.5,-26.7615503734847
121,1,16,C,0,2,l,27,1,0.95,0C,2C,0,1,0,1,C02,0.632136748540929,2.7408400239252,0.872365030613507,0.5,0.5,0.5,0.317178126185458,0.798796072538963,0.5,0.317178126185458,0.317178126185458,0.5,0.798796072538963,0.5,0.5,0.5,0.5,0.948638685756137,1.03680943974692,0,0,1,2C,0C,0.798796072538963,0.317178126185458,0.71578363859308,0.28421636140692,1,1,0.201203927461037,0.0735689580745438,0.5,0.338828026228898,0.955809439746922,11.8122691672855,1.46868211668555,0.5,6.53718527935898,0.999560099450816,0.5,0.365643747629083,0.96007450418062,12.0912908983742,1.48125631902839,0.5,-26.7615503734847
121,1,17,A,3,0,l,9,1,0.95,3A,0A,0,1,0,1,A30,1.67059911115964,3.46573590279973,0.872365030613507,0.5,0.5,0.5,0.317178126185458,0.798796072538963,0.5,0.317178126185458,0.317178126185458,0.5,0.872365030613507,0.5,0.5,0.5,0.5,0.948638685756137,1.18480943974692,0,0,1,0A,3A,0.872365030613507,0.5,0.635665446986449,0.364334553013551,1,1,0.127634969386493,0.0466689285350007,0.5,0.338828026228898,0.955809439746922,11.8122691672855,1.46868211668555,0.5,2.7727955961747,0.992299621247764,0.5,0.365643747629083,0.96007450418062,12.0912908983742,1.48125631902839,0.5,-26.7615503734847
121,1,18,C,3,2,l,63,0,0.95,3C,2C,0,1,1,0,C32,1.22611153867845,2.80336038090653,0.919033959148507,0.5,0.5,0.5,0.317178126185458,0.798796072538963,0.5,0.317178126185458,0.317178126185458,0.5,0.872365030613507,0.5,0.5,0.5,0.5,0.948638685756137,1.17580943974692,0,0,1,2C,3C,0.872365030613507,0.5,0.635665446986449,0.364334553013551,1,0,-0.872365030613507,-0.318974819094083,0.5,0.338828026228898,0.955809439746922,11.8122691672855,1.46868211668555,0.5,2.9408046886107,0.992285069518159,0.5,0.365643747629083,0.96007450418062,12.0912908983742,1.48125631902839,0.5,-26.7615503734847
121,1,19,A,0,1,a,63,1,0.95,0A,1A,1,0,1,0,A01,2.13294553741837,2.42774823594805,0.919033959148507,0.5,0.5,0.5,0.317178126185458,0.798796072538963,0.5,0.317178126185458,0.317178126185458,0.5,0.553390211519424,0.5,0.5,0.5,0.5,0.948638685756137,1.50880943974692,1,1,0,0A,1A,0.919033959148507,0.5,0.647647614930917,0.352352385069083,1,1,0.0809660408514926,0.0296047266076292,0.5,0.338828026228898,0.955809439746922,11.8122691672855,1.46868211668555,0.5,0.177599319543114,0.994974661436168,0.5,0.365643747629083,0.96007450418062,12.0912908983742,1.48125631902839,0.5,-26.7615503734847
121,1,20,D,2,3,l,63,1,0.95,2D,3D,0,1,0,1,D23,0.392192523133726,2.4567357728213,0.948638685756137,0.5,0.5,0.5,0.317178126185458,0.798796072538963,0.5,0.317178126185458,0.317178126185458,0.5,0.553390211519424,0.5,0.5,0.5,0.5,0.948638685756137,1.00680943974692,0,0,1,3D,2D,0.948638685756137,0.5,0.654848372533267,0.345151627466733,1,1,0.0513613142438634,0.0187799434232812,0.5,0.338828026228898,0.955809439746922,11.8122691672855,1.46868211668555,0.5,0.953171105139901,0.996106425388156,0.5,0.365643747629083,0.96007450418062,12.0912908983742,1.48125631902839,0.5,-26.7615503734847
121,1,21,C,2,3,a,63,1,0.95,2C,3C,1,0,1,0,C23,1.34851427183176,2.89037175789616,0.948638685756137,0.5,0.5,0.5,0.317178126185458,0.798796072538963,0.5,0.317178126185458,0.317178126185458,0.5,0.553390211519424,0.5,0.5,0.5,0.5,0.967418629179418,1.08980943974692,1,1,0,2C,3C,0.553390211519424,0.5,0.525342086406145,0.474657913593856,1,1,0.446609788480576,0.16330007678787,0.5,0.338828026228898,0.955809439746922,11.8122691672855,1.46868211668555,0.5,1.17331425783171,0.712614138923229,0.5,0.365643747629083,0.96007450418062,12.0912908983742,1.48125631902839,0.5,-26.7615503734847
121,1,22,D,1,3,l,27,1,0.95,1D,3D,0,1,0,1,D13,1.52014098865759,3.61091791264422,0.948638685756137,0.5,0.5,0.5,0.317178126185458,0.798796072538963,0.5,0.317178126185458,0.317178126185458,0.5,0.716690288307294,0.5,0.5,0.5,0.5,0.967418629179418,1.05180943974692,0,0,1,3D,1D,0.967418629179418,0.5,0.659265604199396,0.340734395800604,1,1,0.0325813708205821,0.0119131745297305,0.5,0.338828026228898,0.955809439746922,11.8122691672855,1.46868211668555,0.5,4.69630235012761,0.996685999523494,0.5,0.365643747629083,0.96007450418062,12.0912908983742,1.48125631902839,0.5,-26.7615503734847
121,1,23,A,1,0,l,63,1,0.95,1A,0A,0,1,0,1,A10,2.17257554504535,3.63758615972639,0.948638685756137,0.5,0.5,0.5,0.317178126185458,0.798796072538963,0.5,0.317178126185458,0.317178126185458,0.5,0.716690288307294,0.5,0.5,0.5,0.5,0.979331803709148,1.06280943974692,0,0,1,0A,1A,0.948638685756137,0.5,0.654848372533267,0.345151627466733,1,1,0.0513613142438634,0.0187799434232812,0.5,0.338828026228898,0.955809439746922,11.8122691672855,1.46868211668555,0.5,4.84525714460311,0.996120500389163,0.5,0.365643747629083,0.96007450418062,12.0912908983742,1.48125631902839,0.5,-26.7615503734847
121,1,24,C,2,3,a,63,1,0.95,2C,3C,1,0,1,0,C23,0.364471527694027,2.56494935746154,0.967418629179418,0.5,0.5,0.5,0.317178126185458,0.798796072538963,0.5,0.317178126185458,0.317178126185458,0.5,0.716690288307294,0.5,0.5,0.5,0.5,0.979331803709148,1.12980943974692,1,1,0,2C,3C,0.716690288307294,0.5,0.589049074521981,0.410950925478019,1,1,0.283309711692706,0.103590424723036,0.5,0.338828026228898,0.955809439746922,11.8122691672855,1.46868211668555,0.5,2.79052914367877,0.960397300465156,0.5,0.365643747629083,0.96007450418062,12.0912908983742,1.48125631902839,0.5,-26.7615503734847
121,1,25,A,2,0,l,27,1,0.95,2A,0A,0,1,0,1,A20,0.625157826592578,2.99573227355399,0.967418629179418,0.5,0.5,0.5,0.317178126185458,0.798796072538963,0.5,0.317178126185458,0.317178126185458,0.5,0.82028071303033,0.5,0.5,0.5,0.5,0.979331803709148,1.10580943974692,0,0,1,0A,2A,0.967418629179418,0.5,0.659265604199396,0.340734395800604,1,1,0.0325813708205821,0.0119131745297305,0.5,0.338828026228898,0.955809439746922,11.8122691672855,1.46868211668555,0.5,4.75626394260118,0.996683180479875,0.5,0.365643747629083,0.96007450418062,12.0912908983742,1.48125631902839,0.5,-26.7615503734847
121,1,26,B,0,1,l,63,1,0.95,0B,1B,0,1,0,1,B01,3.17464075582137,3.02042488614436,0.979331803709148,0.5,0.5,0.5,0.317178126185458,0.798796072538963,0.5,0.317178126185458,0.317178126185458,0.5,0.82028071303033,0.5,0.5,0.5,0.5,0.979331803709148,1.01880943974692,0,0,1,1B,0B,0.798796072538963,0.317178126185458,0.71578363859308,0.28421636140692,1,1,0.201203927461037,0.0735689580745438,0.5,0.338828026228898,0.955809439746922,11.8122691672855,1.46868211668555,0.5,4.17239957347323,0.999560619816174,0.5,0.365643747629083,0.96007450418062,12.0912908983742,1.48125631902839,0.5,-26.7615503734847
121,1,27,B,1,0,a,63,1,0.95,1B,0B,1,0,1,0,B10,2.15656938776023,3.04452243772342,0.979331803709148,0.5,0.5,0.5,0.317178126185458,0.872365030613507,0.5,0.317178126185458,0.317178126185458,0.5,0.82028071303033,0.5,0.5,0.5,0.5,0.979331803709148,1.06680943974692,1,1,0,1B,0B,0.872365030613507,0.317178126185458,0.73336139645494,0.26663860354506,1,1,0.127634969386493,0.0466689285350007,0.5,0.338828026228898,0.955809439746922,11.8122691672855,1.46868211668555,0.5,7.7464407569908,0.999765582861644,0.5,0.365643747629083,0.96007450418062,12.0912908983742,1.48125631902839,0.5,-26.7615503734847
121,1,28,C,2,3,a,63,1,0.95,2C,3C,1,0,1,0,C23,0.308442323717385,2.37490575457367,0.979331803709148,0.5,0.5,0.5,0.317178126185458,0.919033959148507,0.5,0.317178126185458,0.317178126185458,0.5,0.82028071303033,0.5,0.5,0.5,0.5,0.979331803709148,1.14080943974692,1,1,0,2C,3C,0.82028071303033,0.5,0.621292657640668,0.378707342359332,1,1,0.17971928696967,0.0657132336088167,0.5,0.338828026228898,0.955809439746922,11.8122691672855,1.46868211668555,0.5,3.40214618288494,0.987202239704085,0.5,0.365643747629083,0.96007450418062,12.0912908983742,1.48125631902839,0.5,-26.7615503734847
121,1,29,D,1,3,l,27,1,0.95,1D,3D,0,1,0,1,D13,0.198422515185066,3.09104245335832,0.979331803709148,0.5,0.5,0.5,0.317178126185458,0.919033959148507,0.5,0.317178126185458,0.317178126185458,0.5,0.885993946639147,0.5,0.5,0.5,0.5,0.979331803709148,1.12580943974692,0,0,1,3D,1D,0.979331803709148,0.5,0.662009564895216,0.337990435104784,1,1,0.0206681962908516,0.00755719674852049,0.5,0.338828026228898,0.955809439746922,11.8122691672855,1.46868211668555,0.5,4.27108685173649,0.996999897216459,0.5,0.365643747629083,0.96007450418062,12.0912908983742,1.48125631902839,0.5,-26.7615503734847
121,1,30,C,2,1,a,9,1,0.95,2C,1C,1,0,1,0,C21,3.0116577935395,3.80666248977032,0.979331803709148,0.5,0.5,0.5,0.317178126185458,0.919033959148507,0.5,0.317178126185458,0.317178126185458,0.5,0.885993946639147,0.5,0.5,0.5,0.5,0.986889000457669,1.36180943974692,1,1,0,2C,1C,0.885993946639147,0.5,0.639248063664034,0.360751936335966,1,1,0.114006053360853,0.0416856006032635,0.5,0.338828026228898,0.955809439746922,11.8122691672855,1.46868211668555,0.5,0.718688104300873,0.993224044403661,0.5,0.365643747629083,0.96007450418062,12.0912908983742,1.48125631902839,0.5,-26.7615503734847
121,1,31,B,1,3,a,27,1,0.95,1B,3B,1,0,1,0,B13,1.89448704017354,3.13549421592915,0.979331803709148,0.5,0.5,0.5,0.317178126185458,0.919033959148507,0.5,0.317178126185458,0.317178126185458,0.5,0.927679547242411,0.5,0.5,0.5,0.5,0.986889000457669,1.02380943974692,1,1,0,1B,3B,0.919033959148507,0.317178126185458,0.743427418362625,0.256572581637375,1,1,0.0809660408514926,0.0296047266076292,0.5,0.338828026228898,0.955809439746922,11.8122691672855,1.46868211668555,0.5,6.43866763677929,0.99983646174313,0.5,0.365643747629083,0.96007450418062,12.0912908983742,1.48125631902839,0.5,-26.7615503734847
121,1,32,D,2,3,l,63,1,0.95,2D,3D,0,1,0,1,D23,0.91668424778911,2.46385324059017,0.979331803709148,0.5,0.5,0.5,0.317178126185458,0.948638685756137,0.5,0.317178126185458,0.317178126185458,0.5,0.927679547242411,0.5,0.5,0.5,0.5,0.986889000457669,1.24880943974692,0,0,1,3D,2D,0.986889000457669,0.5,0.663727420240449,0.336272579759551,1,1,0.0131109995423311,0.00479395500782113,0.5,0.338828026228898,0.955809439746922,11.8122691672855,1.46868211668555,0.5,1.43553555339227,0.997175485994231,0.5,0.365643747629083,0.96007450418062,12.0912908983742,1.48125631902839,0.5,-26.7615503734847
121,1,33,B,1,0,a,63,1,0.95,1B,0B,1,0,1,0,B10,1.50241419717631,2.77258872223978,0.979331803709148,0.5,0.5,0.5,0.317178126185458,0.948638685756137,0.5,0.317178126185458,0.317178126185458,0.5,0.927679547242411,0.5,0.5,0.5,0.5,0.99168295546549,1.08380943974692,1,1,0,1B,0B,0.948638685756137,0.317178126185458,0.749428097973395,0.250571902026605,1,1,0.0513613142438634,0.0187799434232812,0.5,0.338828026228898,0.955809439746922,11.8122691672855,1.46868211668555,0.5,6.78763410036591,0.999867951025702,0.5,0.365643747629083,0.96007450418062,12.0912908983742,1.48125631902839,0.5,-26.7615503734847
121,1,34,A,0,1,a,63,0,0.95,0A,1A,1,0,0,1,A01,2.06804364975955,2.50552593699074,0.979331803709148,0.5,0.5,0.5,0.317178126185458,0.967418629179418,0.5,0.317178126185458,0.317178126185458,0.5,0.927679547242411,0.5,0.5,0.5,0.5,0.99168295546549,1.60280943974692,1,1,0,0A,1A,0.979331803709148,0.5,0.662009564895216,0.337990435104784,1,0,-0.979331803709148,-0.358086550880563,0.5,0.338828026228898,0.955809439746922,11.8122691672855,1.46868211668555,0.5,0.0441497463062132,0.99699744943887,0.5,0.365643747629083,0.96007450418062,12.0912908983742,1.48125631902839,0.5,-26.7615503734847
121,1,35,C,3,2,l,63,1,0.95,3C,2C,0,1,0,1,C32,2.25658877873637,2.81341071676004,0.621245252828586,0.5,0.5,0.5,0.317178126185458,0.967418629179418,0.5,0.317178126185458,0.317178126185458,0.5,0.927679547242411,0.5,0.5,0.5,0.5,0.99168295546549,1.08680943974692,0,0,1,2C,3C,0.927679547242411,0.5,0.649781352569098,0.350218647430902,1,1,0.0723204527575895,0.0264435213765171,0.5,0.338828026228898,0.955809439746922,11.8122691672855,1.46868211668555,0.5,4.79073790497707,0.995350494900578,0.5,0.365643747629083,0.96007450418062,12.0912908983742,1.48125631902839,0.5,-26.7615503734847
121,1,36,A,2,0,l,27,1,0.95,2A,0A,0,1,0,1,A20,3.19559406600576,2.83321334405622,0.621245252828586,0.5,0.5,0.5,0.317178126185458,0.967418629179418,0.5,0.317178126185458,0.317178126185458,0.5,0.954123068618928,0.5,0.5,0.5,0.5,0.99168295546549,1.24980943974692,0,0,1,0A,2A,0.621245252828586,0.5,0.554067231287142,0.445932768712858,1,1,0.378754747171414,0.138489305188062,0.5,0.338828026228898,0.955809439746922,11.8122691672855,1.46868211668555,0.5,1.50914306252098,0.873990361277886,0.5,0.365643747629083,0.96007450418062,12.0912908983742,1.48125631902839,0.5,-26.7615503734847
121,1,37,B,1,0,a,63,1,0.95,1B,0B,1,0,1,0,B10,1.8326009247914,2.56494935746154,0.759734558016647,0.5,0.5,0.5,0.317178126185458,0.967418629179418,0.5,0.317178126185458,0.317178126185458,0.5,0.954123068618928,0.5,0.5,0.5,0.5,0.99168295546549,1.12380943974692,1,1,0,1B,0B,0.967418629179418,0.317178126185458,0.753091291208059,0.246908708791941,1,1,0.0325813708205821,0.0119131745297305,0.5,0.338828026228898,0.955809439746922,11.8122691672855,1.46868211668555,0.5,3.61829566614827,0.999884631804228,0.5,0.365643747629083,0.96007450418062,12.0912908983742,1.48125631902839,0.5,-26.7615503734847
121,1,38,D,3,2,a,63,1,0.95,3D,2D,1,0,1,0,D32,0.25659466244771,2.87167962488401,0.759734558016647,0.5,0.5,0.5,0.317178126185458,0.979331803709148,0.5,0.317178126185458,0.317178126185458,0.5,0.954123068618928,0.5,0.5,0.5,0.5,0.99168295546549,1.04380943974692,1,1,0,3D,2D,0.99168295546549,0.5,0.664808129523762,0.335191870476238,1,1,0.00831704453450999,0.00304107533279622,0.5,0.338828026228898,0.955809439746922,11.8122691672855,1.46868211668555,0.5,4.53423674029457,0.99727132565184,0.5,0.365643747629083,0.96007450418062,12.0912908983742,1.48125631902839,0.5,-26.7615503734847
121,1,39,B,2,1,l,9,1,0.95,2B,1B,0,1,0,1,B21,0.08644503339862,3.98898404656427,0.759734558016647,0.5,0.5,0.5,0.317178126185458,0.979331803709148,0.5,0.317178126185458,0.317178126185458,0.5,0.954123068618928,0.5,0.5,0.5,0.5,0.994724030798286,1.11080943974692,0,0,1,1B,2B,0.979331803709148,0.5,0.662009564895216,0.337990435104784,1,1,0.0206681962908516,0.00755719674852049,0.5,0.338828026228898,0.955809439746922,11.8122691672855,1.46868211668555,0.5,4.68470988563375,0.996987391614955,0.5,0.365643747629083,0.96007450418062,12.0912908983742,1.48125631902839,0.5,-26.7615503734847
121,1,40,D,3,1,a,27,1,0.95,3D,1D,1,0,1,0,D31,3.06768350682747,4.00733318523247,0.759734558016647,0.5,0.5,0.5,0.317178126185458,0.986889000457669,0.5,0.317178126185458,0.317178126185458,0.5,0.954123068618928,0.5,0.5,0.5,0.5,0.994724030798286,1.15080943974692,1,1,0,3D,1D,0.994724030798286,0.5,0.665490090680508,0.334509909319492,1,1,0.0052759692017138,0.00192912515129026,0.5,0.338828026228898,0.955809439746922,11.8122691672855,1.46868211668555,0.5,3.54200481709547,0.997349690978547,0.5,0.365643747629083,0.96007450418062,12.0912908983742,1.48125631902839,0.5,-26.7615503734847
121,1,41,A,0,1,a,63,1,0.95,0A,1A,1,0,1,0,A01,0.103710609913832,2.41591377830105,0.759734558016647,0.5,0.5,0.5,0.317178126185458,0.986889000457669,0.5,0.317178126185458,0.317178126185458,0.5,0.954123068618928,0.5,0.5,0.5,0.5,0.996653155949576,1.07280943974692,1,1,0,0A,1A,0.759734558016647,0.5,0.603090987051105,0.396909012948895,1,1,0.240265441983353,0.0878515566325511,0.5,0.338828026228898,0.955809439746922,11.8122691672855,1.46868211668555,0.5,3.05864063201507,0.975691763179505,0.5,0.365643747629083,0.96007450418062,12.0912908983742,1.48125631902839,0.5,-26.7615503734847
121,1,42,A,1,0,l,63,1,0.95,1A,0A,0,1,0,1,A10,1.62320681751147,3.3499040872746,0.847586114649199,0.5,0.5,0.5,0.317178126185458,0.986889000457669,0.5,0.317178126185458,0.317178126185458,0.5,0.954123068618928,0.5,0.5,0.5,0.5,0.996653155949576,1.23480943974692,0,0,1,0A,1A,0.847586114649199,0.5,0.628966197733375,0.371033802266625,1,1,0.152413885350801,0.0557291842303765,0.5,0.338828026228898,0.955809439746922,11.8122691672855,1.46868211668555,0.5,1.99987808731172,0.99024584949949,0.5,0.365643747629083,0.96007450418062,12.0912908983742,1.48125631902839,0.5,-26.7615503734847
121,1,43,C,0,2,l,27,1,0.95,0C,2C,0,1,0,1,C02,2.94880669890604,2.96183072187831,0.903315298879575,0.5,0.5,0.5,0.317178126185458,0.986889000457669,0.5,0.317178126185458,0.317178126185458,0.5,0.954123068618928,0.5,0.5,0.5,0.5,0.996653155949576,1.09780943974692,0,0,1,2C,0C,0.954123068618928,0.317178126185458,0.750509063090858,0.249490936909142,1,1,0.0458769313810724,0.0167746131198976,0.5,0.338828026228898,0.955809439746922,11.8122691672855,1.46868211668555,0.5,5.59845696477105,0.999873346779576,0.5,0.365643747629083,0.96007450418062,12.0912908983742,1.48125631902839,0.5,-26.7615503734847
121,1,44,B,1,0,a,63,1,0.95,1B,0B,1,0,1,0,B10,1.29934099506246,2.46809953147162,0.903315298879575,0.5,0.5,0.5,0.317178126185458,0.986889000457669,0.5,0.317178126185458,0.317178126185458,0.5,0.970897681738825,0.5,0.5,0.5,0.5,0.996653155949576,1.09280943974692,1,1,0,1B,0B,0.986889000457669,0.317178126185458,0.756777761124978,0.243222238875022,1,1,0.0131109995423311,0.00479395500782113,0.5,0.338828026228898,0.955809439746922,11.8122691672855,1.46868211668555,0.5,5.95249172473414,0.999898351607295,0.5,0.365643747629083,0.96007450418062,12.0912908983742,1.48125631902839,0.5,-26.7615503734847
