ID,filename,session,trial,visStimLeft,visStimRight,correctKey,leftCorrect,rightCorrect,secondStim,mod2Type,mod2Stim,frequency,rewardAccurate,stimPairLeft,stimPairRight,pCorrectLeft,pCorrectRight,key,reactionTime,choiceLeft,choiceRight,choiceAccurate,reward,chosenPair,otherPair,triplet,surprise,0A belief,1A belief,2A belief,3A belief,0B belief,1B belief,2B belief,3B belief,0C belief,1C belief,2C belief,3C belief,0D belief,1D belief,2D belief,3D belief,beliefPairNorm,beliefOtherPairNorm,beliefPair,beliefOtherPair,lik,corrLik,rewardPE,update2,fitCBCsimpleRW_CBCdriftDiffusionLR_startBelief,fitCBCsimpleRW_CBCdriftDiffusionLR_alpha1,fitCBCsimpleRW_CBCdriftDiffusionLR_nonDecisionTime,fitCBCsimpleRW_CBCdriftDiffusionLR_weight,fitCBCsimpleRW_CBCdriftDiffusionLR_startingBoundary,fitCBCsimpleRW_CBCdriftDiffusionLR_startingPoint,fit_CBCsimpleRW_CBCdriftDiffusionLR_NLL
CBC_1021,CBC_1021_MSI_AV_v3_Vset5_Aset2_2023-07-18_14h40.56.369.csv,1,1,1,0,b,1,0,1,aud,B,63,1,1B,0B,1,0,z,1.42295110000032,0,1,0,0,0B,1B,B10,2.77258872223978,0.5,0.5,0.5,0.5,0.5,0.5,0.5,0.5,0.5,0.5,0.5,0.5,0.5,0.5,0.5,0.5,0.5,0.5,0.5,0.5,0.34666659445542,0.500057176598521,-0.5,-0.00232694134534112,0.5,0.00465388269068223,1.09654101250974,0.076258756512575,2.24925485225745,0.5,71.0751440696949
CBC_1021,CBC_1021_MSI_AV_v3_Vset5_Aset2_2023-07-18_14h40.56.369.csv,1,2,3,2,b,1,0,2,aud,D,63,1,3D,2D,1,0,b,2.17930770000021,1,0,1,1,3D,2D,D32,2.83321334405622,0.5,0.5,0.5,0.5,0.497673058654659,0.5,0.5,0.5,0.5,0.5,0.5,0.5,0.5,0.5,0.5,0.5,0.5,0.5,0.5,0.5,0.215093175965863,0.49829282628747,0.5,0.00232694134534112,0.5,0.00465388269068223,1.09654101250974,0.076258756512575,2.24925485225745,0.5,71.0751440696949
CBC_1021,CBC_1021_MSI_AV_v3_Vset5_Aset2_2023-07-18_14h40.56.369.csv,1,3,3,1,z,0,1,1,aud,B,27,1,3B,1B,0,1,b,2.59338100000059,1,0,0,0,3B,1B,B31,2.89037175789616,0.5,0.5,0.5,0.5,0.497673058654659,0.5,0.5,0.5,0.5,0.5,0.5,0.5,0.5,0.5,0.5,0.502326941345341,0.5,0.5,0.5,0.5,0.143986463364912,0.499254503317259,-0.5,-0.00232694134534112,0.5,0.00465388269068223,1.09654101250974,0.076258756512575,2.24925485225745,0.5,71.0751440696949
CBC_1021,CBC_1021_MSI_AV_v3_Vset5_Aset2_2023-07-18_14h40.56.369.csv,1,4,2,3,b,1,0,0,aud,C,63,1,2C,3C,1,0,b,2.73539000000073,1,0,1,1,2C,3C,C23,2.94443897916644,0.5,0.5,0.5,0.5,0.497673058654659,0.5,0.5,0.497673058654659,0.5,0.5,0.5,0.5,0.5,0.5,0.5,0.502326941345341,0.5,0.5,0.5,0.5,0.125373336509769,0.499293668206479,0.5,0.00232694134534112,0.5,0.00465388269068223,1.09654101250974,0.076258756512575,2.24925485225745,0.5,71.0751440696949
CBC_1021,CBC_1021_MSI_AV_v3_Vset5_Aset2_2023-07-18_14h40.56.369.csv,1,5,0,2,z,0,1,0,aud,C,27,1,0C,2C,0,1,b,2.24544119999973,1,0,0,0,0C,2C,C02,2.99573227355399,0.5,0.5,0.5,0.5,0.497673058654659,0.5,0.5,0.497673058654659,0.5,0.5,0.502326941345341,0.5,0.5,0.5,0.5,0.502326941345341,0.498839230370174,0.501160769629826,0.5,0.502326941345341,0.202525828698968,0.500312986001663,-0.5,-0.00232694134534112,0.5,0.00465388269068223,1.09654101250974,0.076258756512575,2.24925485225745,0.5,71.0751440696949
CBC_1021,CBC_1021_MSI_AV_v3_Vset5_Aset2_2023-07-18_14h40.56.369.csv,1,6,0,3,b,1,0,3,aud,A,9,1,0A,3A,1,0,b,1.80272259999947,1,0,1,1,0A,3A,A03,3.04452243772342,0.5,0.5,0.5,0.5,0.497673058654659,0.5,0.5,0.497673058654659,0.497673058654659,0.5,0.502326941345341,0.5,0.5,0.5,0.5,0.502326941345341,0.5,0.5,0.5,0.5,0.308301995835918,0.50041127817955,0.5,0.00232694134534112,0.5,0.00465388269068223,1.09654101250974,0.076258756512575,2.24925485225745,0.5,71.0751440696949
CBC_1021,CBC_1021_MSI_AV_v3_Vset5_Aset2_2023-07-18_14h40.56.369.csv,1,7,2,3,b,1,0,0,aud,C,63,1,2C,3C,1,0,b,2.42227840000032,1,0,1,1,2C,3C,C23,2.39789527279837,0.502326941345341,0.5,0.5,0.5,0.497673058654659,0.5,0.5,0.497673058654659,0.497673058654659,0.5,0.502326941345341,0.5,0.5,0.5,0.5,0.502326941345341,0.501160769629826,0.498839230370174,0.502326941345341,0.5,0.17049554919636,0.500335852582819,0.497673058654659,0.0023161120332918,0.5,0.00465388269068223,1.09654101250974,0.076258756512575,2.24925485225745,0.5,71.0751440696949
CBC_1021,CBC_1021_MSI_AV_v3_Vset5_Aset2_2023-07-18_14h40.56.369.csv,1,8,1,0,z,0,1,3,aud,A,63,1,1A,0A,0,1,z,2.40222129999984,0,1,1,1,0A,1A,A10,3.13549421592915,0.502326941345341,0.5,0.5,0.5,0.497673058654659,0.5,0.5,0.497673058654659,0.497673058654659,0.5,0.504643053378633,0.5,0.5,0.5,0.5,0.502326941345341,0.501160769629826,0.498839230370174,0.502326941345341,0.5,0.173964357043275,0.500632873386684,0.497673058654659,0.0023161120332918,0.5,0.00465388269068223,1.09654101250974,0.076258756512575,2.24925485225745,0.5,71.0751440696949
CBC_1021,CBC_1021_MSI_AV_v3_Vset5_Aset2_2023-07-18_14h40.56.369.csv,1,9,2,3,z,0,1,2,aud,D,63,1,2D,3D,0,1,z,1.80321879999974,0,1,1,1,3D,2D,D23,3.17805383034795,0.504643053378633,0.5,0.5,0.5,0.497673058654659,0.5,0.5,0.497673058654659,0.497673058654659,0.5,0.504643053378633,0.5,0.5,0.5,0.5,0.502326941345341,0.501160769629826,0.498839230370174,0.502326941345341,0.5,0.307916024381391,0.500003104661244,0.497673058654659,0.0023161120332918,0.5,0.00465388269068223,1.09654101250974,0.076258756512575,2.24925485225745,0.5,71.0751440696949
CBC_1021,CBC_1021_MSI_AV_v3_Vset5_Aset2_2023-07-18_14h40.56.369.csv,1,10,3,2,z,0,1,0,aud,C,63,1,3C,2C,0,1,z,3.14846630000011,0,1,1,1,2C,3C,C32,3.2188758248682,0.504643053378633,0.5,0.5,0.5,0.497673058654659,0.5,0.5,0.497673058654659,0.497673058654659,0.5,0.504643053378633,0.5,0.5,0.5,0.5,0.504643053378633,0.502310797533023,0.497689202466977,0.504643053378633,0.5,0.0838872972516644,0.499839946560772,0.495356946621367,0.00230533311959038,0.5,0.00465388269068223,1.09654101250974,0.076258756512575,2.24925485225745,0.5,71.0751440696949
CBC_1021,CBC_1021_MSI_AV_v3_Vset5_Aset2_2023-07-18_14h40.56.369.csv,1,11,3,1,b,1,0,2,aud,D,27,1,3D,1D,1,0,z,1.8488083000002,0,1,0,0,1D,3D,D31,3.25809653802148,0.504643053378633,0.5,0.5,0.5,0.497673058654659,0.5,0.5,0.497673058654659,0.497673058654659,0.5,0.506948386498223,0.5,0.5,0.5,0.5,0.504643053378633,0.497689202466977,0.502310797533023,0.5,0.504643053378633,0.295498580273685,0.499828691336516,-0.5,-0.00232694134534112,0.5,0.00465388269068223,1.09654101250974,0.076258756512575,2.24925485225745,0.5,71.0751440696949
CBC_1021,CBC_1021_MSI_AV_v3_Vset5_Aset2_2023-07-18_14h40.56.369.csv,1,12,0,1,b,1,0,3,aud,A,63,0,0A,1A,0,1,b,3.17852820000007,1,0,1,0,0A,1A,A01,3.29583686600433,0.504643053378633,0.5,0.5,0.5,0.497673058654659,0.5,0.5,0.497673058654659,0.497673058654659,0.5,0.506948386498223,0.5,0.5,0.497673058654659,0.5,0.504643053378633,0.502310797533023,0.497689202466977,0.504643053378633,0.5,0.0814854314676901,0.499976411339363,-0.504643053378633,-0.00234854957109185,0.5,0.00465388269068223,1.09654101250974,0.076258756512575,2.24925485225745,0.5,71.0751440696949
CBC_1021,CBC_1021_MSI_AV_v3_Vset5_Aset2_2023-07-18_14h40.56.369.csv,1,13,3,2,z,0,1,0,aud,C,63,1,3C,2C,0,1,z,2.39386380000087,0,1,1,1,2C,3C,C32,2.63905732961526,0.502294503807541,0.5,0.5,0.5,0.497673058654659,0.5,0.5,0.497673058654659,0.497673058654659,0.5,0.506948386498223,0.5,0.5,0.497673058654659,0.5,0.504643053378633,0.503450219788517,0.496549780211483,0.506948386498223,0.5,0.175305038489895,0.50039893038687,0.493051613501777,0.00229460436968886,0.5,0.00465388269068223,1.09654101250974,0.076258756512575,2.24925485225745,0.5,71.0751440696949
CBC_1021,CBC_1021_MSI_AV_v3_Vset5_Aset2_2023-07-18_14h40.56.369.csv,1,14,2,0,z,0,1,3,aud,A,27,1,2A,0A,0,1,z,2.48623700000007,0,1,1,1,0A,2A,A20,3.36729582998647,0.502294503807541,0.5,0.5,0.5,0.497673058654659,0.5,0.5,0.497673058654659,0.497673058654659,0.5,0.509242990867912,0.5,0.5,0.497673058654659,0.5,0.504643053378633,0.501144625556074,0.498855374443926,0.502294503807541,0.5,0.160057688457183,0.499922652458079,0.497705496192459,0.0023162629937875,0.5,0.00465388269068223,1.09654101250974,0.076258756512575,2.24925485225745,0.5,71.0751440696949
CBC_1021,CBC_1021_MSI_AV_v3_Vset5_Aset2_2023-07-18_14h40.56.369.csv,1,15,1,0,b,1,0,1,aud,B,63,1,1B,0B,1,0,b,2.03808670000035,1,0,1,1,1B,0B,B10,2.70805020110221,0.504610766801329,0.5,0.5,0.5,0.497673058654659,0.5,0.5,0.497673058654659,0.497673058654659,0.5,0.509242990867912,0.5,0.5,0.497673058654659,0.5,0.504643053378633,0.50116618431517,0.49883381568483,0.5,0.497673058654659,0.247843246671751,0.500924822739166,0.5,0.00232694134534112,0.5,0.00465388269068223,1.09654101250974,0.076258756512575,2.24925485225745,0.5,71.0751440696949
CBC_1021,CBC_1021_MSI_AV_v3_Vset5_Aset2_2023-07-18_14h40.56.369.csv,1,16,2,3,z,0,1,2,aud,D,63,1,2D,3D,0,1,b,1.85702740000033,1,0,0,0,2D,3D,D23,2.7408400239252,0.504610766801329,0.5,0.5,0.5,0.497673058654659,0.502326941345341,0.5,0.497673058654659,0.497673058654659,0.5,0.509242990867912,0.5,0.5,0.497673058654659,0.5,0.504643053378633,0.497689202466977,0.502310797533023,0.5,0.504643053378633,0.293085025137816,0.499471591808903,-0.5,-0.00232694134534112,0.5,0.00465388269068223,1.09654101250974,0.076258756512575,2.24925485225745,0.5,71.0751440696949
CBC_1021,CBC_1021_MSI_AV_v3_Vset5_Aset2_2023-07-18_14h40.56.369.csv,1,17,2,1,z,0,1,1,aud,B,9,1,2B,1B,0,1,z,1.33143870000094,0,1,1,1,1B,2B,B21,3.46573590279973,0.504610766801329,0.5,0.5,0.5,0.497673058654659,0.502326941345341,0.5,0.497673058654659,0.497673058654659,0.5,0.509242990867912,0.5,0.5,0.497673058654659,0.497673058654659,0.504643053378633,0.501160769629826,0.498839230370174,0.502326941345341,0.5,0.267420168546244,0.50092648280157,0.497673058654659,0.0023161120332918,0.5,0.00465388269068223,1.09654101250974,0.076258756512575,2.24925485225745,0.5,71.0751440696949
CBC_1021,CBC_1021_MSI_AV_v3_Vset5_Aset2_2023-07-18_14h40.56.369.csv,1,18,3,1,b,1,0,2,aud,D,27,1,3D,1D,1,0,z,1.42104860000018,0,1,0,0,1D,3D,D31,2.80336038090653,0.504610766801329,0.5,0.5,0.5,0.497673058654659,0.504643053378633,0.5,0.497673058654659,0.497673058654659,0.5,0.509242990867912,0.5,0.5,0.497673058654659,0.497673058654659,0.504643053378633,0.496523055630706,0.503476944369294,0.497673058654659,0.504643053378633,0.345495477385334,0.499660286724613,-0.497673058654659,-0.0023161120332918,0.5,0.00465388269068223,1.09654101250974,0.076258756512575,2.24925485225745,0.5,71.0751440696949
CBC_1021,CBC_1021_MSI_AV_v3_Vset5_Aset2_2023-07-18_14h40.56.369.csv,1,19,1,0,z,0,1,3,aud,A,63,1,1A,0A,0,1,b,3.08979240000008,1,0,0,0,1A,0A,A10,2.83321334405622,0.504610766801329,0.5,0.5,0.5,0.497673058654659,0.504643053378633,0.5,0.497673058654659,0.497673058654659,0.5,0.509242990867912,0.5,0.5,0.495356946621367,0.497673058654659,0.504643053378633,0.497705197398984,0.502294802601016,0.5,0.504610766801329,0.0887093239497428,0.49917059031657,-0.5,-0.00232694134534112,0.5,0.00465388269068223,1.09654101250974,0.076258756512575,2.24925485225745,0.5,71.0751440696949
CBC_1021,CBC_1021_MSI_AV_v3_Vset5_Aset2_2023-07-18_14h40.56.369.csv,1,20,0,1,b,1,0,3,aud,A,63,1,0A,1A,1,0,z,2.6108318000006,0,1,0,0,1A,0A,A01,2.86220088092947,0.504610766801329,0.497673058654659,0.5,0.5,0.497673058654659,0.504643053378633,0.5,0.497673058654659,0.497673058654659,0.5,0.509242990867912,0.5,0.5,0.495356946621367,0.497673058654659,0.504643053378633,0.496539050132075,0.503460949867925,0.497673058654659,0.504610766801329,0.141335640927252,0.498475064814546,-0.497673058654659,-0.0023161120332918,0.5,0.00465388269068223,1.09654101250974,0.076258756512575,2.24925485225745,0.5,71.0751440696949
CBC_1021,CBC_1021_MSI_AV_v3_Vset5_Aset2_2023-07-18_14h40.56.369.csv,1,21,0,2,z,0,1,0,aud,C,27,1,0C,2C,0,1,b,2.5038155000002,1,0,0,0,0C,2C,C02,2.89037175789616,0.504610766801329,0.495356946621367,0.5,0.5,0.497673058654659,0.504643053378633,0.5,0.497673058654659,0.497673058654659,0.5,0.509242990867912,0.5,0.5,0.495356946621367,0.497673058654659,0.504643053378633,0.494254768201014,0.505745231798986,0.497673058654659,0.509242990867912,0.15742289372371,0.500192895980159,-0.497673058654659,-0.0023161120332918,0.5,0.00465388269068223,1.09654101250974,0.076258756512575,2.24925485225745,0.5,71.0751440696949
CBC_1021,CBC_1021_MSI_AV_v3_Vset5_Aset2_2023-07-18_14h40.56.369.csv,1,22,1,0,b,1,0,1,aud,B,63,1,1B,0B,1,0,b,3.24299620000056,1,0,1,1,1B,0B,B10,2.51230562397611,0.504610766801329,0.495356946621367,0.5,0.5,0.497673058654659,0.504643053378633,0.5,0.497673058654659,0.495356946621367,0.5,0.509242990867912,0.5,0.5,0.495356946621367,0.497673058654659,0.504643053378633,0.503476944369294,0.496523055630706,0.504643053378633,0.497673058654659,0.0763958831501955,0.499171547203969,0.495356946621367,0.00230533311959038,0.5,0.00465388269068223,1.09654101250974,0.076258756512575,2.24925485225745,0.5,71.0751440696949
CBC_1021,CBC_1021_MSI_AV_v3_Vset5_Aset2_2023-07-18_14h40.56.369.csv,1,23,0,2,z,0,1,0,aud,C,27,1,0C,2C,0,1,z,2.14239890000044,0,1,1,1,2C,0C,C02,2.53897387105828,0.504610766801329,0.495356946621367,0.5,0.5,0.497673058654659,0.506948386498223,0.5,0.497673058654659,0.495356946621367,0.5,0.509242990867912,0.5,0.5,0.495356946621367,0.497673058654659,0.504643053378633,0.50691123089319,0.49308876910681,0.509242990867912,0.495356946621367,0.224216960409636,0.501169307821963,0.490757009132088,0.00228392555013081,0.5,0.00465388269068223,1.09654101250974,0.076258756512575,2.24925485225745,0.5,71.0751440696949
CBC_1021,CBC_1021_MSI_AV_v3_Vset5_Aset2_2023-07-18_14h40.56.369.csv,1,24,2,3,z,0,1,2,aud,D,63,1,2D,3D,0,1,z,2.27122270000018,0,1,1,1,3D,2D,D23,2.56494935746154,0.504610766801329,0.495356946621367,0.5,0.5,0.497673058654659,0.506948386498223,0.5,0.497673058654659,0.495356946621367,0.5,0.511526916418043,0.5,0.5,0.495356946621367,0.497673058654659,0.504643053378633,0.503476944369294,0.496523055630706,0.504643053378633,0.497673058654659,0.197355293037605,0.499920979511564,0.495356946621367,0.00230533311959038,0.5,0.00465388269068223,1.09654101250974,0.076258756512575,2.24925485225745,0.5,71.0751440696949
CBC_1021,CBC_1021_MSI_AV_v3_Vset5_Aset2_2023-07-18_14h40.56.369.csv,1,25,0,1,b,1,0,3,aud,A,63,1,0A,1A,1,0,z,1.65210600000046,0,1,0,0,1A,0A,A01,2.59026716544583,0.504610766801329,0.495356946621367,0.5,0.5,0.497673058654659,0.506948386498223,0.5,0.497673058654659,0.495356946621367,0.5,0.511526916418043,0.5,0.5,0.495356946621367,0.497673058654659,0.506948386498223,0.495372940518106,0.504627059481894,0.495356946621367,0.504610766801329,0.347880739549301,0.501279927016833,-0.495356946621367,-0.00230533311959038,0.5,0.00465388269068223,1.09654101250974,0.076258756512575,2.24925485225745,0.5,71.0751440696949
CBC_1021,CBC_1021_MSI_AV_v3_Vset5_Aset2_2023-07-18_14h40.56.369.csv,1,26,2,3,b,1,0,0,aud,C,63,1,2C,3C,1,0,b,2.57708559999992,1,0,1,1,2C,3C,C23,2.6149597780362,0.504610766801329,0.493051613501777,0.5,0.5,0.497673058654659,0.506948386498223,0.5,0.497673058654659,0.495356946621367,0.5,0.511526916418043,0.5,0.5,0.495356946621367,0.497673058654659,0.506948386498223,0.505697780370918,0.494302219629082,0.511526916418043,0.5,0.14675987850004,0.500848203724741,0.488473083581957,0.00227329642854625,0.5,0.00465388269068223,1.09654101250974,0.076258756512575,2.24925485225745,0.5,71.0751440696949
CBC_1021,CBC_1021_MSI_AV_v3_Vset5_Aset2_2023-07-18_14h40.56.369.csv,1,27,0,2,b,1,0,3,aud,A,27,1,0A,2A,1,0,z,1.77171080000062,0,1,0,0,2A,0A,A02,3.73766961828337,0.504610766801329,0.493051613501777,0.5,0.5,0.497673058654659,0.506948386498223,0.5,0.497673058654659,0.495356946621367,0.5,0.513800212846589,0.5,0.5,0.495356946621367,0.497673058654659,0.506948386498223,0.497705197398984,0.502294802601016,0.5,0.504610766801329,0.316238446632272,0.49967852317842,-0.5,-0.00232694134534112,0.5,0.00465388269068223,1.09654101250974,0.076258756512575,2.24925485225745,0.5,71.0751440696949
CBC_1021,CBC_1021_MSI_AV_v3_Vset5_Aset2_2023-07-18_14h40.56.369.csv,1,28,2,3,z,0,1,2,aud,D,63,1,2D,3D,0,1,z,1.80649449999964,0,1,1,1,3D,2D,D23,2.37490575457367,0.504610766801329,0.493051613501777,0.497673058654659,0.5,0.497673058654659,0.506948386498223,0.5,0.497673058654659,0.495356946621367,0.5,0.513800212846589,0.5,0.5,0.495356946621367,0.497673058654659,0.506948386498223,0.504616329806773,0.495383670193227,0.506948386498223,0.497673058654659,0.306997178240873,0.499952112798024,0.493051613501777,0.00229460436968886,0.5,0.00465388269068223,1.09654101250974,0.076258756512575,2.24925485225745,0.5,71.0751440696949
CBC_1021,CBC_1021_MSI_AV_v3_Vset5_Aset2_2023-07-18_14h40.56.369.csv,1,29,2,3,z,0,1,2,aud,D,63,1,2D,3D,0,1,b,2.07341970000016,1,0,0,0,2D,3D,D23,2.17475172148416,0.504610766801329,0.493051613501777,0.497673058654659,0.5,0.497673058654659,0.506948386498223,0.5,0.497673058654659,0.495356946621367,0.5,0.513800212846589,0.5,0.5,0.495356946621367,0.497673058654659,0.509242990867912,0.494254768201014,0.505745231798986,0.497673058654659,0.509242990867912,0.238891492138541,0.499529817850702,-0.497673058654659,-0.0023161120332918,0.5,0.00465388269068223,1.09654101250974,0.076258756512575,2.24925485225745,0.5,71.0751440696949
CBC_1021,CBC_1021_MSI_AV_v3_Vset5_Aset2_2023-07-18_14h40.56.369.csv,1,30,1,3,b,1,0,1,aud,B,27,1,1B,3B,1,0,z,2.46345769999971,0,1,0,0,3B,1B,B13,3.80666248977032,0.504610766801329,0.493051613501777,0.497673058654659,0.5,0.497673058654659,0.506948386498223,0.5,0.497673058654659,0.495356946621367,0.5,0.513800212846589,0.5,0.5,0.495356946621367,0.495356946621367,0.509242990867912,0.495383670193227,0.504616329806773,0.497673058654659,0.506948386498223,0.163694318652824,0.500051869210843,-0.497673058654659,-0.0023161120332918,0.5,0.00465388269068223,1.09654101250974,0.076258756512575,2.24925485225745,0.5,71.0751440696949
CBC_1021,CBC_1021_MSI_AV_v3_Vset5_Aset2_2023-07-18_14h40.56.369.csv,1,31,3,0,b,1,0,2,aud,D,9,1,3D,0D,1,0,z,2.10443320000013,0,1,0,0,0D,3D,D30,3.8286413964891,0.504610766801329,0.493051613501777,0.497673058654659,0.5,0.497673058654659,0.506948386498223,0.5,0.495356946621367,0.495356946621367,0.5,0.513800212846589,0.5,0.5,0.495356946621367,0.495356946621367,0.509242990867912,0.495420829794437,0.504579170205563,0.5,0.509242990867912,0.231800646573498,0.499431759760718,-0.5,-0.00232694134534112,0.5,0.00465388269068223,1.09654101250974,0.076258756512575,2.24925485225745,0.5,71.0751440696949
CBC_1021,CBC_1021_MSI_AV_v3_Vset5_Aset2_2023-07-18_14h40.56.369.csv,1,32,0,1,z,0,1,1,aud,B,63,1,0B,1B,0,1,b,2.05507219999981,1,0,0,0,0B,1B,B01,3.85014760171006,0.504610766801329,0.493051613501777,0.497673058654659,0.5,0.497673058654659,0.506948386498223,0.5,0.495356946621367,0.495356946621367,0.5,0.513800212846589,0.5,0.497673058654659,0.495356946621367,0.495356946621367,0.509242990867912,0.495383670193227,0.504616329806773,0.497673058654659,0.506948386498223,0.243074692405814,0.499374442273956,-0.497673058654659,-0.0023161120332918,0.5,0.00465388269068223,1.09654101250974,0.076258756512575,2.24925485225745,0.5,71.0751440696949
CBC_1021,CBC_1021_MSI_AV_v3_Vset5_Aset2_2023-07-18_14h40.56.369.csv,1,33,0,1,b,1,0,3,aud,A,63,1,0A,1A,1,0,z,2.16982590000043,0,1,0,0,1A,0A,A01,2.484906649788,0.504610766801329,0.493051613501777,0.497673058654659,0.5,0.495356946621367,0.506948386498223,0.5,0.495356946621367,0.495356946621367,0.5,0.513800212846589,0.5,0.497673058654659,0.495356946621367,0.495356946621367,0.509242990867912,0.494206881241708,0.505793118758292,0.493051613501777,0.504610766801329,0.217758898741337,0.49984922797045,-0.493051613501777,-0.00229460436968886,0.5,0.00465388269068223,1.09654101250974,0.076258756512575,2.24925485225745,0.5,71.0751440696949
CBC_1021,CBC_1021_MSI_AV_v3_Vset5_Aset2_2023-07-18_14h40.56.369.csv,1,34,0,1,z,0,1,1,aud,B,63,1,0B,1B,0,1,z,1.89634360000036,0,1,1,1,1B,0B,B01,3.19867311755068,0.504610766801329,0.490757009132088,0.497673058654659,0.5,0.495356946621367,0.506948386498223,0.5,0.495356946621367,0.495356946621367,0.5,0.513800212846589,0.5,0.497673058654659,0.495356946621367,0.495356946621367,0.509242990867912,0.505782389604163,0.494217610395837,0.506948386498223,0.495356946621367,0.283164747271751,0.500373277555469,0.493051613501777,0.00229460436968886,0.5,0.00465388269068223,1.09654101250974,0.076258756512575,2.24925485225745,0.5,71.0751440696949
CBC_1021,CBC_1021_MSI_AV_v3_Vset5_Aset2_2023-07-18_14h40.56.369.csv,1,35,2,3,b,1,0,0,aud,C,63,1,2C,3C,1,0,b,2.23327640000025,1,0,1,1,2C,3C,C23,2.52572864430826,0.504610766801329,0.490757009132088,0.497673058654659,0.5,0.495356946621367,0.509242990867912,0.5,0.495356946621367,0.495356946621367,0.5,0.513800212846589,0.5,0.497673058654659,0.495356946621367,0.495356946621367,0.509242990867912,0.506806179694834,0.493193820305166,0.513800212846589,0.5,0.20543429004217,0.501530584119521,0.486199787153411,0.00226271677364664,0.5,0.00465388269068223,1.09654101250974,0.076258756512575,2.24925485225745,0.5,71.0751440696949
CBC_1021,CBC_1021_MSI_AV_v3_Vset5_Aset2_2023-07-18_14h40.56.369.csv,1,36,2,0,z,0,1,3,aud,A,27,1,2A,0A,0,1,b,2.18658520000008,1,0,0,0,2A,0A,A20,3.23867845216438,0.504610766801329,0.490757009132088,0.497673058654659,0.5,0.495356946621367,0.509242990867912,0.5,0.495356946621367,0.495356946621367,0.5,0.516062929620236,0.5,0.497673058654659,0.495356946621367,0.495356946621367,0.509242990867912,0.496539050132075,0.503460949867925,0.497673058654659,0.504610766801329,0.214583311351284,0.500635625494995,-0.497673058654659,-0.0023161120332918,0.5,0.00465388269068223,1.09654101250974,0.076258756512575,2.24925485225745,0.5,71.0751440696949
CBC_1021,CBC_1021_MSI_AV_v3_Vset5_Aset2_2023-07-18_14h40.56.369.csv,1,37,0,1,z,0,1,1,aud,B,63,1,0B,1B,0,1,z,3.17336950000026,0,1,1,1,1B,0B,B01,2.85263142991332,0.504610766801329,0.490757009132088,0.495356946621367,0.5,0.495356946621367,0.509242990867912,0.5,0.495356946621367,0.495356946621367,0.5,0.516062929620236,0.5,0.497673058654659,0.495356946621367,0.495356946621367,0.509242990867912,0.50691123089319,0.49308876910681,0.509242990867912,0.495356946621367,0.0819794717685296,0.500483156203931,0.490757009132088,0.00228392555013081,0.5,0.00465388269068223,1.09654101250974,0.076258756512575,2.24925485225745,0.5,71.0751440696949
CBC_1021,CBC_1021_MSI_AV_v3_Vset5_Aset2_2023-07-18_14h40.56.369.csv,1,38,1,3,b,1,0,1,aud,B,27,1,1B,3B,1,0,z,1.59623120000106,0,1,0,0,3B,1B,B13,3.27714473299218,0.504610766801329,0.490757009132088,0.495356946621367,0.5,0.495356946621367,0.511526916418043,0.5,0.495356946621367,0.495356946621367,0.5,0.516062929620236,0.5,0.497673058654659,0.495356946621367,0.495356946621367,0.509242990867912,0.491970290521955,0.508029709478045,0.495356946621367,0.511526916418043,0.35778015114151,0.49934563487572,-0.495356946621367,-0.00230533311959038,0.5,0.00465388269068223,1.09654101250974,0.076258756512575,2.24925485225745,0.5,71.0751440696949
CBC_1021,CBC_1021_MSI_AV_v3_Vset5_Aset2_2023-07-18_14h40.56.369.csv,1,39,2,3,b,1,0,0,aud,C,63,1,2C,3C,1,0,z,2.34502170000087,0,1,0,0,3C,2C,C23,2.37954613413017,0.504610766801329,0.490757009132088,0.495356946621367,0.5,0.495356946621367,0.511526916418043,0.5,0.493051613501777,0.495356946621367,0.5,0.516062929620236,0.5,0.497673058654659,0.495356946621367,0.495356946621367,0.509242990867912,0.492095504544074,0.507904495455926,0.5,0.516062929620236,0.183504226867883,0.499461243898757,-0.5,-0.00232694134534112,0.5,0.00465388269068223,1.09654101250974,0.076258756512575,2.24925485225745,0.5,71.0751440696949
CBC_1021,CBC_1021_MSI_AV_v3_Vset5_Aset2_2023-07-18_14h40.56.369.csv,1,40,1,3,z,0,1,2,aud,D,27,1,1D,3D,0,1,b,1.92504270000063,1,0,0,0,1D,3D,D13,4.00733318523247,0.504610766801329,0.490757009132088,0.495356946621367,0.5,0.495356946621367,0.511526916418043,0.5,0.493051613501777,0.495356946621367,0.5,0.516062929620236,0.497673058654659,0.497673058654659,0.495356946621367,0.495356946621367,0.509242990867912,0.49308876910681,0.50691123089319,0.495356946621367,0.509242990867912,0.275413267424424,0.499902749951332,-0.495356946621367,-0.00230533311959038,0.5,0.00465388269068223,1.09654101250974,0.076258756512575,2.24925485225745,0.5,71.0751440696949
CBC_1021,CBC_1021_MSI_AV_v3_Vset5_Aset2_2023-07-18_14h40.56.369.csv,1,41,2,1,b,1,0,0,aud,C,9,1,2C,1C,1,0,z,2.42652870000165,0,1,0,0,1C,2C,C21,4.02535169073515,0.504610766801329,0.490757009132088,0.495356946621367,0.5,0.495356946621367,0.511526916418043,0.5,0.493051613501777,0.495356946621367,0.5,0.516062929620236,0.497673058654659,0.497673058654659,0.493051613501777,0.495356946621367,0.509242990867912,0.492095504544074,0.507904495455926,0.5,0.516062929620236,0.169328629502209,0.498974280463786,-0.5,-0.00232694134534112,0.5,0.00465388269068223,1.09654101250974,0.076258756512575,2.24925485225745,0.5,71.0751440696949
CBC_1021,CBC_1021_MSI_AV_v3_Vset5_Aset2_2023-07-18_14h40.56.369.csv,1,42,1,0,b,1,0,1,aud,B,63,0,1B,0B,0,1,b,2.59144730000116,1,0,1,0,1B,0B,B10,2.65675690671466,0.504610766801329,0.490757009132088,0.495356946621367,0.5,0.495356946621367,0.511526916418043,0.5,0.493051613501777,0.495356946621367,0.497673058654659,0.516062929620236,0.497673058654659,0.497673058654659,0.493051613501777,0.495356946621367,0.509242990867912,0.508029709478045,0.491970290521955,0.511526916418043,0.495356946621367,0.144833048874294,0.501243978545233,-0.511526916418043,-0.00238058626213599,0.5,0.00465388269068223,1.09654101250974,0.076258756512575,2.24925485225745,0.5,71.0751440696949
CBC_1021,CBC_1021_MSI_AV_v3_Vset5_Aset2_2023-07-18_14h40.56.369.csv,1,43,2,3,z,0,1,2,aud,D,63,1,2D,3D,0,1,b,1.41124239999954,1,0,0,0,2D,3D,D23,2.26868354131836,0.504610766801329,0.490757009132088,0.495356946621367,0.5,0.495356946621367,0.509146330155907,0.5,0.493051613501777,0.495356946621367,0.497673058654659,0.516062929620236,0.497673058654659,0.497673058654659,0.493051613501777,0.495356946621367,0.509242990867912,0.49308876910681,0.50691123089319,0.495356946621367,0.509242990867912,0.339755822026762,0.498633210811031,-0.495356946621367,-0.00230533311959038,0.5,0.00465388269068223,1.09654101250974,0.076258756512575,2.24925485225745,0.5,71.0751440696949
CBC_1021,CBC_1021_MSI_AV_v3_Vset5_Aset2_2023-07-18_14h40.56.369.csv,1,44,1,0,z,0,1,3,aud,A,63,1,1A,0A,0,1,z,2.32791610000095,0,1,1,1,0A,1A,A10,2.97892515523761,0.504610766801329,0.490757009132088,0.495356946621367,0.5,0.495356946621367,0.509146330155907,0.5,0.493051613501777,0.495356946621367,0.497673058654659,0.516062929620236,0.497673058654659,0.497673058654659,0.493051613501777,0.493051613501777,0.509242990867912,0.506959115014673,0.493040884985327,0.504610766801329,0.490757009132088,0.186928262940522,0.500374702173243,0.495389233198671,0.00230548337753364,0.5,0.00465388269068223,1.09654101250974,0.076258756512575,2.24925485225745,0.5,71.0751440696949
CBC_1021,CBC_1021_MSI_TV_v3_Vset2_Tset3_2023-07-18_14h49.36.888.csv,2,1,0,2,z,0,1,0,tac,C,27,1,0C,2C,0,1,b,1.61607350000122,1,0,0,0,0C,2C,C02,2.77258872223978,0.5,0.5,0.5,0.5,0.5,0.5,0.5,0.5,0.5,0.5,0.5,0.5,0.5,0.5,0.5,0.5,0.5,0.5,0.5,0.5,0.22434206619112,0.500174203240331,-0.5,-0.49830512633096,0.5,0.99661025266192,0.804019840761278,0.544034929484145,2.83470032779799,0.5,82.4848767077006
CBC_1021,CBC_1021_MSI_TV_v3_Vset2_Tset3_2023-07-18_14h49.36.888.csv,2,2,2,3,z,0,1,2,tac,D,63,1,2D,3D,0,1,z,2.40802199999962,0,1,1,1,3D,2D,D23,2.83321334405622,0.5,0.5,0.5,0.5,0.5,0.5,0.5,0.5,0.00169487366903986,0.5,0.5,0.5,0.5,0.5,0.5,0.5,0.5,0.5,0.5,0.5,0.145885329883574,0.500198948301352,0.5,0.49830512633096,0.5,0.99661025266192,0.804019840761278,0.544034929484145,2.83470032779799,0.5,82.4848767077006
CBC_1021,CBC_1021_MSI_TV_v3_Vset2_Tset3_2023-07-18_14h49.36.888.csv,2,3,0,1,b,1,0,3,tac,A,63,1,0A,1A,1,0,z,1.68426060000093,0,1,0,0,1A,0A,A01,2.89037175789616,0.5,0.5,0.5,0.5,0.5,0.5,0.5,0.5,0.00169487366903986,0.5,0.5,0.5,0.5,0.5,0.5,0.99830512633096,0.5,0.5,0.5,0.5,0.218857060186462,0.500448383816276,-0.5,-0.49830512633096,0.5,0.99661025266192,0.804019840761278,0.544034929484145,2.83470032779799,0.5,82.4848767077006
CBC_1021,CBC_1021_MSI_TV_v3_Vset2_Tset3_2023-07-18_14h49.36.888.csv,2,4,3,2,z,0,1,0,tac,C,63,1,3C,2C,0,1,z,2.28244839999934,0,1,1,1,2C,3C,C32,2.94443897916644,0.5,0.00169487366903986,0.5,0.5,0.5,0.5,0.5,0.5,0.00169487366903986,0.5,0.5,0.5,0.5,0.5,0.5,0.99830512633096,0.5,0.5,0.5,0.5,0.157444810000495,0.50025184253462,0.5,0.49830512633096,0.5,0.99661025266192,0.804019840761278,0.544034929484145,2.83470032779799,0.5,82.4848767077006
CBC_1021,CBC_1021_MSI_TV_v3_Vset2_Tset3_2023-07-18_14h49.36.888.csv,2,5,2,0,z,0,1,3,tac,A,27,1,2A,0A,0,1,z,1.87853539999924,0,1,1,1,0A,2A,A20,2.99573227355399,0.5,0.00169487366903986,0.5,0.5,0.5,0.5,0.5,0.5,0.00169487366903986,0.5,0.99830512633096,0.5,0.5,0.5,0.5,0.99830512633096,0.5,0.5,0.5,0.5,0.199167778139154,0.500414353759512,0.5,0.49830512633096,0.5,0.99661025266192,0.804019840761278,0.544034929484145,2.83470032779799,0.5,82.4848767077006
CBC_1021,CBC_1021_MSI_TV_v3_Vset2_Tset3_2023-07-18_14h49.36.888.csv,2,6,3,2,b,1,0,2,tac,D,63,1,3D,2D,1,0,b,2.79738290000023,1,0,1,1,3D,2D,D32,3.04452243772342,0.99830512633096,0.00169487366903986,0.5,0.5,0.5,0.5,0.5,0.5,0.00169487366903986,0.5,0.99830512633096,0.5,0.5,0.5,0.5,0.99830512633096,0.666289602022255,0.333710397977745,0.99830512633096,0.5,0.143746733670438,0.625459240944357,0.00169487366903986,0.00168912847553186,0.5,0.99661025266192,0.804019840761278,0.544034929484145,2.83470032779799,0.5,82.4848767077006
CBC_1021,CBC_1021_MSI_TV_v3_Vset2_Tset3_2023-07-18_14h49.36.888.csv,2,7,2,3,z,0,1,2,tac,D,63,1,2D,3D,0,1,z,2.4463377000011,0,1,1,1,3D,2D,D23,2.39789527279837,0.99830512633096,0.00169487366903986,0.5,0.5,0.5,0.5,0.5,0.5,0.00169487366903986,0.5,0.99830512633096,0.5,0.5,0.5,0.5,0.999994254806492,0.666665389952108,0.333334610047892,0.999994254806492,0.5,0.179437734944315,0.626182248514496,5.74519350804437e-06,5.72571875364372e-06,0.5,0.99661025266192,0.804019840761278,0.544034929484145,2.83470032779799,0.5,82.4848767077006
CBC_1021,CBC_1021_MSI_TV_v3_Vset2_Tset3_2023-07-18_14h49.36.888.csv,2,8,1,3,b,1,0,1,tac,B,27,1,1B,3B,1,0,b,2.50364489999993,1,0,1,1,1B,3B,B13,3.13549421592915,0.99830512633096,0.00169487366903986,0.5,0.5,0.5,0.5,0.5,0.5,0.00169487366903986,0.5,0.99830512633096,0.5,0.5,0.5,0.5,0.999999980525246,0.5,0.5,0.5,0.5,0.138135139682037,0.50205760792245,0.5,0.49830512633096,0.5,0.99661025266192,0.804019840761278,0.544034929484145,2.83470032779799,0.5,82.4848767077006
CBC_1021,CBC_1021_MSI_TV_v3_Vset2_Tset3_2023-07-18_14h49.36.888.csv,2,9,3,0,b,1,0,2,tac,D,9,1,3D,0D,1,0,z,2.40397250000206,0,1,0,0,0D,3D,D30,3.17805383034795,0.99830512633096,0.00169487366903986,0.5,0.5,0.5,0.99830512633096,0.5,0.5,0.00169487366903986,0.5,0.99830512633096,0.5,0.5,0.5,0.5,0.999999980525246,0.333333337661057,0.666666662338943,0.5,0.999999980525246,0.110039428038473,0.373966213730628,-0.5,-0.49830512633096,0.5,0.99661025266192,0.804019840761278,0.544034929484145,2.83470032779799,0.5,82.4848767077006
CBC_1021,CBC_1021_MSI_TV_v3_Vset2_Tset3_2023-07-18_14h49.36.888.csv,2,10,0,1,z,0,1,1,tac,B,63,1,0B,1B,0,1,z,2.44784300000174,0,1,1,1,1B,0B,B01,3.2188758248682,0.99830512633096,0.00169487366903986,0.5,0.5,0.5,0.99830512633096,0.5,0.5,0.00169487366903986,0.5,0.99830512633096,0.5,0.00169487366903986,0.5,0.5,0.999999980525246,0.666289602022255,0.333710397977745,0.99830512633096,0.5,0.179141882670137,0.625762399569531,0.00169487366903986,0.00168912847553186,0.5,0.99661025266192,0.804019840761278,0.544034929484145,2.83470032779799,0.5,82.4848767077006
CBC_1021,CBC_1021_MSI_TV_v3_Vset2_Tset3_2023-07-18_14h49.36.888.csv,2,11,0,1,b,1,0,3,tac,A,63,1,0A,1A,1,0,b,2.99876869999935,1,0,1,1,0A,1A,A01,2.56494935746154,0.99830512633096,0.00169487366903986,0.5,0.5,0.5,0.999994254806492,0.5,0.5,0.00169487366903986,0.5,0.99830512633096,0.5,0.00169487366903986,0.5,0.5,0.999999980525246,0.99830512633096,0.00169487366903986,0.99830512633096,0.00169487366903986,0.158643960367555,0.823165953645923,0.00169487366903986,0.00168912847553186,0.5,0.99661025266192,0.804019840761278,0.544034929484145,2.83470032779799,0.5,82.4848767077006
CBC_1021,CBC_1021_MSI_TV_v3_Vset2_Tset3_2023-07-18_14h49.36.888.csv,2,12,1,0,b,1,0,1,tac,B,63,1,1B,0B,1,0,z,2.6543371000007,0,1,0,0,0B,1B,B10,3.29583686600433,0.999994254806492,0.00169487366903986,0.5,0.5,0.5,0.999994254806492,0.5,0.5,0.00169487366903986,0.5,0.99830512633096,0.5,0.00169487366903986,0.5,0.5,0.999999980525246,0.333334610047892,0.666665389952108,0.5,0.999994254806492,0.0939521590943403,0.373594733272176,-0.5,-0.49830512633096,0.5,0.99661025266192,0.804019840761278,0.544034929484145,2.83470032779799,0.5,82.4848767077006
CBC_1021,CBC_1021_MSI_TV_v3_Vset2_Tset3_2023-07-18_14h49.36.888.csv,2,13,3,2,b,1,0,2,tac,D,63,1,3D,2D,1,0,b,2.48330620000161,1,0,1,1,3D,2D,D32,2.63905732961526,0.999994254806492,0.00169487366903986,0.5,0.5,0.00169487366903986,0.999994254806492,0.5,0.5,0.00169487366903986,0.5,0.99830512633096,0.5,0.00169487366903986,0.5,0.5,0.999999980525246,0.666666662338943,0.333333337661057,0.999999980525246,0.5,0.17503071625105,0.625163700261352,1.94747543647011e-08,1.94087398679336e-08,0.5,0.99661025266192,0.804019840761278,0.544034929484145,2.83470032779799,0.5,82.4848767077006
CBC_1021,CBC_1021_MSI_TV_v3_Vset2_Tset3_2023-07-18_14h49.36.888.csv,2,14,3,1,z,0,1,1,tac,B,27,1,3B,1B,0,1,z,2.57919249999941,0,1,1,1,1B,3B,B31,3.36729582998647,0.999994254806492,0.00169487366903986,0.5,0.5,0.00169487366903986,0.999994254806492,0.5,0.5,0.00169487366903986,0.5,0.99830512633096,0.5,0.00169487366903986,0.5,0.5,0.999999999933985,0.666665389952108,0.333334610047892,0.999994254806492,0.5,0.165000942097914,0.625855714862638,5.74519350804437e-06,5.72571875364372e-06,0.5,0.99661025266192,0.804019840761278,0.544034929484145,2.83470032779799,0.5,82.4848767077006
CBC_1021,CBC_1021_MSI_TV_v3_Vset2_Tset3_2023-07-18_14h49.36.888.csv,2,15,2,3,b,1,0,0,tac,C,63,1,2C,3C,1,0,b,2.76099390000127,1,0,1,1,2C,3C,C23,3.40119738166216,0.999994254806492,0.00169487366903986,0.5,0.5,0.00169487366903986,0.999999980525246,0.5,0.5,0.00169487366903986,0.5,0.99830512633096,0.5,0.00169487366903986,0.5,0.5,0.999999999933985,0.666289602022255,0.333710397977745,0.99830512633096,0.5,0.146860325628401,0.624535138866909,0.00169487366903986,0.00168912847553186,0.5,0.99661025266192,0.804019840761278,0.544034929484145,2.83470032779799,0.5,82.4848767077006
CBC_1021,CBC_1021_MSI_TV_v3_Vset2_Tset3_2023-07-18_14h49.36.888.csv,2,16,0,2,z,0,1,0,tac,C,27,1,0C,2C,0,1,z,2.67111699999987,0,1,1,1,2C,0C,C02,2.7408400239252,0.999994254806492,0.00169487366903986,0.5,0.5,0.00169487366903986,0.999999980525246,0.5,0.5,0.00169487366903986,0.5,0.999994254806492,0.5,0.00169487366903986,0.5,0.5,0.999999999933985,0.998307984362754,0.00169201563724595,0.999994254806492,0.00169487366903986,0.20357879452932,0.82336897095259,5.74519350804437e-06,5.72571875364372e-06,0.5,0.99661025266192,0.804019840761278,0.544034929484145,2.83470032779799,0.5,82.4848767077006
CBC_1021,CBC_1021_MSI_TV_v3_Vset2_Tset3_2023-07-18_14h49.36.888.csv,2,17,3,0,z,0,1,3,tac,A,9,1,3A,0A,0,1,b,2.07032640000034,1,0,0,0,3A,0A,A30,3.46573590279973,0.999994254806492,0.00169487366903986,0.5,0.5,0.00169487366903986,0.999999980525246,0.5,0.5,0.00169487366903986,0.5,0.999999980525246,0.5,0.00169487366903986,0.5,0.5,0.999999999933985,0.333334610047892,0.666665389952108,0.5,0.999994254806492,0.135125393252799,0.373874842571206,-0.5,-0.49830512633096,0.5,0.99661025266192,0.804019840761278,0.544034929484145,2.83470032779799,0.5,82.4848767077006
CBC_1021,CBC_1021_MSI_TV_v3_Vset2_Tset3_2023-07-18_14h49.36.888.csv,2,18,3,2,z,0,1,0,tac,C,63,0,3C,2C,1,0,z,2.74433820000013,0,1,1,0,2C,3C,C32,2.80336038090653,0.999994254806492,0.00169487366903986,0.5,0.00169487366903986,0.00169487366903986,0.999999980525246,0.5,0.5,0.00169487366903986,0.5,0.999999980525246,0.5,0.00169487366903986,0.5,0.5,0.999999999933985,0.666666662338943,0.333333337661057,0.999999980525246,0.5,0.148843095442073,0.626360228133805,-0.999999980525246,-0.99661023325318,0.5,0.99661025266192,0.804019840761278,0.544034929484145,2.83470032779799,0.5,82.4848767077006
CBC_1021,CBC_1021_MSI_TV_v3_Vset2_Tset3_2023-07-18_14h49.36.888.csv,2,19,0,1,b,1,0,3,tac,A,63,1,0A,1A,1,0,b,2.54744260000007,1,0,1,1,0A,1A,A01,2.42774823594805,0.999994254806492,0.00169487366903986,0.5,0.00169487366903986,0.00169487366903986,0.999999980525246,0.5,0.5,0.00169487366903986,0.5,0.0033897472720652,0.5,0.00169487366903986,0.5,0.5,0.999999999933985,0.998307984362754,0.00169201563724595,0.999994254806492,0.00169487366903986,0.223707663276187,0.823685584571751,5.74519350804437e-06,5.72571875364372e-06,0.5,0.99661025266192,0.804019840761278,0.544034929484145,2.83470032779799,0.5,82.4848767077006
CBC_1021,CBC_1021_MSI_TV_v3_Vset2_Tset3_2023-07-18_14h49.36.888.csv,2,20,2,3,z,0,1,2,tac,D,63,1,2D,3D,0,1,b,2.64411090000067,1,0,0,0,2D,3D,D23,2.4567357728213,0.999999980525246,0.00169487366903986,0.5,0.00169487366903986,0.00169487366903986,0.999999980525246,0.5,0.5,0.00169487366903986,0.5,0.0033897472720652,0.5,0.00169487366903986,0.5,0.5,0.999999999933985,0.333333333348003,0.666666666651997,0.5,0.999999999933985,0.0947276026634275,0.37427167015863,-0.5,-0.49830512633096,0.5,0.99661025266192,0.804019840761278,0.544034929484145,2.83470032779799,0.5,82.4848767077006
CBC_1021,CBC_1021_MSI_TV_v3_Vset2_Tset3_2023-07-18_14h49.36.888.csv,2,21,2,3,b,1,0,0,tac,C,63,1,2C,3C,1,0,z,2.42474440000115,0,1,0,0,3C,2C,C23,2.89037175789616,0.999999980525246,0.00169487366903986,0.5,0.00169487366903986,0.00169487366903986,0.999999980525246,0.5,0.5,0.00169487366903986,0.5,0.0033897472720652,0.5,0.00169487366903986,0.5,0.00169487366903986,0.999999999933985,0.99326615750433,0.00673384249566998,0.5,0.0033897472720652,0.244299580437882,0.819892083316407,-0.5,-0.49830512633096,0.5,0.99661025266192,0.804019840761278,0.544034929484145,2.83470032779799,0.5,82.4848767077006
CBC_1021,CBC_1021_MSI_TV_v3_Vset2_Tset3_2023-07-18_14h49.36.888.csv,2,22,1,3,z,0,1,2,tac,D,27,1,1D,3D,0,1,b,2.03801840000051,1,0,0,0,1D,3D,D13,3.61091791264422,0.999999980525246,0.00169487366903986,0.5,0.00169487366903986,0.00169487366903986,0.999999980525246,0.5,0.5,0.00169487366903986,0.5,0.0033897472720652,0.00169487366903986,0.00169487366903986,0.5,0.00169487366903986,0.999999999933985,0.333333333348003,0.666666666651997,0.5,0.999999999933985,0.137772799527582,0.373898699830006,-0.5,-0.49830512633096,0.5,0.99661025266192,0.804019840761278,0.544034929484145,2.83470032779799,0.5,82.4848767077006
CBC_1021,CBC_1021_MSI_TV_v3_Vset2_Tset3_2023-07-18_14h49.36.888.csv,2,23,1,0,z,0,1,3,tac,A,63,1,1A,0A,0,1,z,2.60110069999973,0,1,1,1,0A,1A,A10,3.63758615972639,0.999999980525246,0.00169487366903986,0.5,0.00169487366903986,0.00169487366903986,0.999999980525246,0.5,0.5,0.00169487366903986,0.5,0.0033897472720652,0.00169487366903986,0.00169487366903986,0.00169487366903986,0.00169487366903986,0.999999999933985,0.998307994034368,0.00169200596563226,0.999999980525246,0.00169487366903986,0.214595194842287,0.822908363599419,1.94747543647011e-08,1.94087398679336e-08,0.5,0.99661025266192,0.804019840761278,0.544034929484145,2.83470032779799,0.5,82.4848767077006
CBC_1021,CBC_1021_MSI_TV_v3_Vset2_Tset3_2023-07-18_14h49.36.888.csv,2,24,2,3,b,1,0,0,tac,C,63,1,2C,3C,1,0,b,2.7598162000013,1,0,1,1,2C,3C,C23,2.56494935746154,0.999999999933985,0.00169487366903986,0.5,0.00169487366903986,0.00169487366903986,0.999999980525246,0.5,0.5,0.00169487366903986,0.5,0.0033897472720652,0.00169487366903986,0.00169487366903986,0.00169487366903986,0.00169487366903986,0.999999999933985,0.666666662338941,0.333333337661059,0.0033897472720652,0.00169487366903986,0.147126671059532,0.625203105936179,0.996610252727935,0.993231995776647,0.5,0.99661025266192,0.804019840761278,0.544034929484145,2.83470032779799,0.5,82.4848767077006
CBC_1021,CBC_1021_MSI_TV_v3_Vset2_Tset3_2023-07-18_14h49.36.888.csv,2,25,2,0,z,0,1,3,tac,A,27,1,2A,0A,0,1,z,4.22118850000152,0,1,1,1,0A,2A,A20,2.99573227355399,0.999999999933985,0.00169487366903986,0.5,0.00169487366903986,0.00169487366903986,0.999999980525246,0.5,0.5,0.00169487366903986,0.5,0.996621743048713,0.00169487366903986,0.00169487366903986,0.00169487366903986,0.00169487366903986,0.999999999933985,0.666666666651997,0.333333333348003,0.999999999933985,0.5,0.0586149864079819,0.625840072432101,6.60145271780266e-11,6.57907546102503e-11,0.5,0.99661025266192,0.804019840761278,0.544034929484145,2.83470032779799,0.5,82.4848767077006
CBC_1021,CBC_1021_MSI_TV_v3_Vset2_Tset3_2023-07-18_14h49.36.888.csv,2,26,0,1,z,0,1,1,tac,B,63,1,0B,1B,0,1,b,4.2429372000006,1,0,0,0,0B,1B,B01,3.02042488614436,0.999999999999776,0.00169487366903986,0.5,0.00169487366903986,0.00169487366903986,0.999999980525246,0.5,0.5,0.00169487366903986,0.5,0.996621743048713,0.00169487366903986,0.00169487366903986,0.00169487366903986,0.00169487366903986,0.999999999933985,0.00169200596563226,0.998307994034368,0.00169487366903986,0.999999980525246,0.0131559732233304,0.176242327696234,-0.00169487366903986,-0.00168912847553186,0.5,0.99661025266192,0.804019840761278,0.544034929484145,2.83470032779799,0.5,82.4848767077006
CBC_1021,CBC_1021_MSI_TV_v3_Vset2_Tset3_2023-07-18_14h49.36.888.csv,2,27,1,0,b,1,0,1,tac,B,63,1,1B,0B,1,0,b,2.45836560000134,1,0,1,1,1B,0B,B10,3.04452243772342,0.999999999999776,0.00169487366903986,0.5,0.00169487366903986,5.74519350800924e-06,0.999999980525246,0.5,0.5,0.00169487366903986,0.5,0.996621743048713,0.00169487366903986,0.00169487366903986,0.00169487366903986,0.00169487366903986,0.999999999933985,0.999994254839387,5.74516061283537e-06,0.999999980525246,5.74519350800924e-06,0.239626422460575,0.824625280280206,1.94747543647011e-08,1.94087398679336e-08,0.5,0.99661025266192,0.804019840761278,0.544034929484145,2.83470032779799,0.5,82.4848767077006
CBC_1021,CBC_1021_MSI_TV_v3_Vset2_Tset3_2023-07-18_14h49.36.888.csv,2,28,2,3,b,1,0,0,tac,C,63,1,2C,3C,1,0,b,2.43164080000133,1,0,1,1,2C,3C,C23,2.37490575457367,0.999999999999776,0.00169487366903986,0.5,0.00169487366903986,5.74519350800924e-06,0.999999999933985,0.5,0.5,0.00169487366903986,0.5,0.996621743048713,0.00169487366903986,0.00169487366903986,0.00169487366903986,0.00169487366903986,0.999999999933985,0.998302268397964,0.00169773160203648,0.996621743048713,0.00169487366903986,0.243888362020346,0.822581198718021,0.00337825695128746,0.00336680551377949,0.5,0.99661025266192,0.804019840761278,0.544034929484145,2.83470032779799,0.5,82.4848767077006
CBC_1021,CBC_1021_MSI_TV_v3_Vset2_Tset3_2023-07-18_14h49.36.888.csv,2,29,1,3,z,0,1,2,tac,D,27,1,1D,3D,0,1,z,2.50655130000087,0,1,1,1,3D,1D,D13,3.09104245335832,0.999999999999776,0.00169487366903986,0.5,0.00169487366903986,5.74519350800924e-06,0.999999999933985,0.5,0.5,0.00169487366903986,0.5,0.999988548562492,0.00169487366903986,0.00169487366903986,0.00169487366903986,0.00169487366903986,0.999999999933985,0.998307994067152,0.00169200593284812,0.999999999933985,0.00169487366903986,0.230746746962822,0.823643224328589,6.60145271780266e-11,6.57907546102503e-11,0.5,0.99661025266192,0.804019840761278,0.544034929484145,2.83470032779799,0.5,82.4848767077006
CBC_1021,CBC_1021_MSI_TV_v3_Vset2_Tset3_2023-07-18_14h49.36.888.csv,2,30,2,1,b,1,0,0,tac,C,9,1,2C,1C,1,0,b,2.52729390000059,1,0,1,1,2C,1C,C21,3.80666248977032,0.999999999999776,0.00169487366903986,0.5,0.00169487366903986,5.74519350800924e-06,0.999999999933985,0.5,0.5,0.00169487366903986,0.5,0.999988548562492,0.00169487366903986,0.00169487366903986,0.00169487366903986,0.00169487366903986,0.999999999999776,0.666664121883348,0.333335878116652,0.999988548562492,0.5,0.170472536756241,0.625878721970031,1.14514375080255e-05,1.14126200282154e-05,0.5,0.99661025266192,0.804019840761278,0.544034929484145,2.83470032779799,0.5,82.4848767077006
CBC_1021,CBC_1021_MSI_TV_v3_Vset2_Tset3_2023-07-18_14h49.36.888.csv,2,31,1,3,b,1,0,1,tac,B,27,1,1B,3B,1,0,z,2.5117265000008,0,1,0,0,3B,1B,B13,3.13549421592915,0.999999999999776,0.00169487366903986,0.5,0.00169487366903986,5.74519350800924e-06,0.999999999933985,0.5,0.5,0.00169487366903986,0.5,0.99999996118252,0.00169487366903986,0.00169487366903986,0.00169487366903986,0.00169487366903986,0.999999999999776,0.333333333348003,0.666666666651997,0.5,0.999999999933985,0.103308872982775,0.3756455803131,-0.5,-0.49830512633096,0.5,0.99661025266192,0.804019840761278,0.544034929484145,2.83470032779799,0.5,82.4848767077006
CBC_1021,CBC_1021_MSI_TV_v3_Vset2_Tset3_2023-07-18_14h49.36.888.csv,2,32,2,3,z,0,1,2,tac,D,63,1,2D,3D,0,1,z,2.05652069999996,0,1,1,1,3D,2D,D23,2.46385324059017,0.999999999999776,0.00169487366903986,0.5,0.00169487366903986,5.74519350800924e-06,0.999999999933985,0.5,0.00169487366903986,0.00169487366903986,0.5,0.99999996118252,0.00169487366903986,0.00169487366903986,0.00169487366903986,0.00169487366903986,0.999999999999776,0.998307994067263,0.00169200593273699,0.999999999999776,0.00169487366903986,0.322803345288425,0.822821468249873,2.23820961764432e-13,2.23062265255084e-13,0.5,0.99661025266192,0.804019840761278,0.544034929484145,2.83470032779799,0.5,82.4848767077006
CBC_1021,CBC_1021_MSI_TV_v3_Vset2_Tset3_2023-07-18_14h49.36.888.csv,2,33,1,0,b,1,0,1,tac,B,63,1,1B,0B,1,0,b,2.73831620000055,1,0,1,1,1B,0B,B10,2.77258872223978,0.999999999999776,0.00169487366903986,0.5,0.00169487366903986,5.74519350800924e-06,0.999999999933985,0.5,0.00169487366903986,0.00169487366903986,0.5,0.99999996118252,0.00169487366903986,0.00169487366903986,0.00169487366903986,0.00169487366903986,0.999999999999999,0.999994254839499,5.74516050132969e-06,0.999999999933985,5.74519350800924e-06,0.193555105706874,0.824042924902113,6.60145271780266e-11,6.57907546102503e-11,0.5,0.99661025266192,0.804019840761278,0.544034929484145,2.83470032779799,0.5,82.4848767077006
CBC_1021,CBC_1021_MSI_TV_v3_Vset2_Tset3_2023-07-18_14h49.36.888.csv,2,34,0,1,b,1,0,3,tac,A,63,0,0A,1A,0,1,z,1.93276320000041,0,1,0,1,1A,0A,A01,2.50552593699074,0.999999999999776,0.00169487366903986,0.5,0.00169487366903986,5.74519350800924e-06,0.999999999999776,0.5,0.00169487366903986,0.00169487366903986,0.5,0.99999996118252,0.00169487366903986,0.00169487366903986,0.00169487366903986,0.00169487366903986,0.999999999999999,0.00169200593273699,0.998307994067263,0.00169487366903986,0.999999999999776,0.0760155060492597,0.177321253129946,0.99830512633096,0.994921124186388,0.5,0.99661025266192,0.804019840761278,0.544034929484145,2.83470032779799,0.5,82.4848767077006
CBC_1021,CBC_1021_MSI_TV_v3_Vset2_Tset3_2023-07-18_14h49.36.888.csv,2,35,3,2,z,0,1,0,tac,C,63,1,3C,2C,0,1,z,2.40956360000018,0,1,1,1,2C,3C,C32,2.81341071676004,0.999999999999776,0.996615997855428,0.5,0.00169487366903986,5.74519350800924e-06,0.999999999999776,0.5,0.00169487366903986,0.00169487366903986,0.5,0.99999996118252,0.00169487366903986,0.00169487366903986,0.00169487366903986,0.00169487366903986,0.999999999999999,0.998307994001695,0.00169200599830489,0.99999996118252,0.00169487366903986,0.248059332155361,0.822794517861499,3.88174797860685e-08,3.86858983372927e-08,0.5,0.99661025266192,0.804019840761278,0.544034929484145,2.83470032779799,0.5,82.4848767077006
CBC_1021,CBC_1021_MSI_TV_v3_Vset2_Tset3_2023-07-18_14h49.36.888.csv,2,36,2,0,z,0,1,3,tac,A,27,1,2A,0A,0,1,b,2.3210936000014,1,0,0,0,2A,0A,A20,2.83321334405622,0.999999999999776,0.996615997855428,0.5,0.00169487366903986,5.74519350800924e-06,0.999999999999776,0.5,0.00169487366903986,0.00169487366903986,0.5,0.999999999868419,0.00169487366903986,0.00169487366903986,0.00169487366903986,0.00169487366903986,0.999999999999999,0.333333333333383,0.666666666666617,0.5,0.999999999999776,0.116115763308652,0.374776176002211,-0.5,-0.49830512633096,0.5,0.99661025266192,0.804019840761278,0.544034929484145,2.83470032779799,0.5,82.4848767077006
CBC_1021,CBC_1021_MSI_TV_v3_Vset2_Tset3_2023-07-18_14h49.36.888.csv,2,37,1,0,b,1,0,1,tac,B,63,1,1B,0B,1,0,z,2.10781570000108,0,1,0,0,0B,1B,B10,2.56494935746154,0.999999999999776,0.996615997855428,0.00169487366903986,0.00169487366903986,5.74519350800924e-06,0.999999999999776,0.5,0.00169487366903986,0.00169487366903986,0.5,0.999999999868419,0.00169487366903986,0.00169487366903986,0.00169487366903986,0.00169487366903986,0.999999999999999,5.74516050095171e-06,0.999994254839499,5.74519350800924e-06,0.999999999999776,0.0669006220423801,0.177051142490125,-5.74519350800924e-06,-5.72571875360871e-06,0.5,0.99661025266192,0.804019840761278,0.544034929484145,2.83470032779799,0.5,82.4848767077006
CBC_1021,CBC_1021_MSI_TV_v3_Vset2_Tset3_2023-07-18_14h49.36.888.csv,2,38,3,2,b,1,0,2,tac,D,63,1,3D,2D,1,0,b,2.18499530000008,1,0,1,1,3D,2D,D32,2.87167962488401,0.999999999999776,0.996615997855428,0.00169487366903986,0.00169487366903986,1.94747544005272e-08,0.999999999999776,0.5,0.00169487366903986,0.00169487366903986,0.5,0.999999999868419,0.00169487366903986,0.00169487366903986,0.00169487366903986,0.00169487366903986,0.999999999999999,0.998307994067263,0.00169200593273661,0.999999999999999,0.00169487366903986,0.293698028285639,0.822981143643727,7.7715611723761e-16,7.74521754357931e-16,0.5,0.99661025266192,0.804019840761278,0.544034929484145,2.83470032779799,0.5,82.4848767077006
CBC_1021,CBC_1021_MSI_TV_v3_Vset2_Tset3_2023-07-18_14h49.36.888.csv,2,39,2,1,z,0,1,1,tac,B,9,1,2B,1B,0,1,z,2.00287810000009,0,1,1,1,1B,2B,B21,3.98898404656427,0.999999999999776,0.996615997855428,0.00169487366903986,0.00169487366903986,1.94747544005272e-08,0.999999999999776,0.5,0.00169487366903986,0.00169487366903986,0.5,0.999999999868419,0.00169487366903986,0.00169487366903986,0.00169487366903986,0.00169487366903986,1,0.666666666666617,0.333333333333383,0.999999999999776,0.5,0.23548367692388,0.625920449373529,2.23820961764432e-13,2.23062265255084e-13,0.5,0.99661025266192,0.804019840761278,0.544034929484145,2.83470032779799,0.5,82.4848767077006
CBC_1021,CBC_1021_MSI_TV_v3_Vset2_Tset3_2023-07-18_14h49.36.888.csv,2,40,3,1,b,1,0,2,tac,D,27,1,3D,1D,1,0,b,3.61580700000013,1,0,1,1,3D,1D,D31,4.00733318523247,0.999999999999776,0.996615997855428,0.00169487366903986,0.00169487366903986,1.94747544005272e-08,0.999999999999999,0.5,0.00169487366903986,0.00169487366903986,0.5,0.999999999868419,0.00169487366903986,0.00169487366903986,0.00169487366903986,0.00169487366903986,1,0.998307994067263,0.00169200593273661,1,0.00169487366903986,0.0991657542178435,0.823830319904278,0,0,0.5,0.99661025266192,0.804019840761278,0.544034929484145,2.83470032779799,0.5,82.4848767077006
CBC_1021,CBC_1021_MSI_TV_v3_Vset2_Tset3_2023-07-18_14h49.36.888.csv,2,41,0,1,b,1,0,3,tac,A,63,1,0A,1A,1,0,b,3.25778700000046,1,0,1,1,0A,1A,A01,2.41591377830105,0.999999999999776,0.996615997855428,0.00169487366903986,0.00169487366903986,1.94747544005272e-08,0.999999999999999,0.5,0.00169487366903986,0.00169487366903986,0.5,0.999999999868419,0.00169487366903986,0.00169487366903986,0.00169487366903986,0.00169487366903986,1,0.500847434395994,0.499152565604006,0.999999999999776,0.996615997855428,0.0867956061443675,0.500939002692496,2.23820961764432e-13,2.23062265255084e-13,0.5,0.99661025266192,0.804019840761278,0.544034929484145,2.83470032779799,0.5,82.4848767077006
CBC_1021,CBC_1021_MSI_TV_v3_Vset2_Tset3_2023-07-18_14h49.36.888.csv,2,42,1,0,z,0,1,3,tac,A,63,1,1A,0A,0,1,z,0.966671000000133,0,1,1,1,0A,1A,A10,3.3499040872746,0.999999999999999,0.996615997855428,0.00169487366903986,0.00169487366903986,1.94747544005272e-08,0.999999999999999,0.5,0.00169487366903986,0.00169487366903986,0.5,0.999999999868419,0.00169487366903986,0.00169487366903986,0.00169487366903986,0.00169487366903986,1,0.50084743439605,0.49915256560395,0.999999999999999,0.996615997855428,0.0179657358442008,0.501034432635943,7.7715611723761e-16,7.74521754357931e-16,0.5,0.99661025266192,0.804019840761278,0.544034929484145,2.83470032779799,0.5,82.4848767077006
CBC_1021,CBC_1021_MSI_TV_v3_Vset2_Tset3_2023-07-18_14h49.36.888.csv,2,43,0,2,z,0,1,0,tac,C,27,1,0C,2C,0,1,b,2.47060210000018,1,0,0,0,0C,2C,C02,2.96183072187831,1,0.996615997855428,0.00169487366903986,0.00169487366903986,1.94747544005272e-08,0.999999999999999,0.5,0.00169487366903986,0.00169487366903986,0.5,0.999999999868419,0.00169487366903986,0.00169487366903986,0.00169487366903986,0.00169487366903986,1,0.00169200593295887,0.998307994067041,0.00169487366903986,0.999999999868419,0.0509524379139708,0.176986161582075,-0.00169487366903986,-0.00168912847553186,0.5,0.99661025266192,0.804019840761278,0.544034929484145,2.83470032779799,0.5,82.4848767077006
CBC_1021,CBC_1021_MSI_TV_v3_Vset2_Tset3_2023-07-18_14h49.36.888.csv,2,44,1,0,b,1,0,1,tac,B,63,1,1B,0B,1,0,b,2.47554720000153,1,0,1,1,1B,0B,B10,2.46809953147162,1,0.996615997855428,0.00169487366903986,0.00169487366903986,1.94747544005272e-08,0.999999999999999,0.5,0.00169487366903986,5.74519350800924e-06,0.5,0.999999999868419,0.00169487366903986,0.00169487366903986,0.00169487366903986,0.00169487366903986,1,0.999999980525246,1.94747540212612e-08,0.999999999999999,1.94747544005272e-08,0.236130335658222,0.823283418523316,7.7715611723761e-16,7.74521754357931e-16,0.5,0.99661025266192,0.804019840761278,0.544034929484145,2.83470032779799,0.5,82.4848767077006
CBC_1021,CBC_1021_MSI_AV_v3_Vset4_Aset3_2023-07-18_16h15.57.561.csv,3,1,1,0,z,0,1,3,aud,A,63,1,1A,0A,NaN,NaN,[],NaN,NaN,NaN,NaN,NaN,,,A10,2.77258872223978,0.5,0.5,0.5,0.5,0.5,0.5,0.5,0.5,0.5,0.5,0.5,0.5,0.5,0.5,0.5,0.5,0,0,0,0,NaN,0,0,0,0.5,0.00544942479135635,0.977303341196155,0.0220294532896964,2.17171402608505,0.5,72.3410232095076
CBC_1021,CBC_1021_MSI_AV_v3_Vset4_Aset3_2023-07-18_16h15.57.561.csv,3,2,2,3,b,1,0,0,aud,C,63,1,2C,3C,1,0,b,1.48116599999958,1,0,1,1,2C,3C,C23,2.83321334405622,0.5,0.5,0.5,0.5,0.5,0.5,0.5,0.5,0.5,0.5,0.5,0.5,0.5,0.5,0.5,0.5,0.5,0.5,0.5,0.5,0.375469411081678,0.499559130897738,0.5,0.00272471239567817,0.5,0.00544942479135635,0.977303341196155,0.0220294532896964,2.17171402608505,0.5,72.3410232095076
CBC_1021,CBC_1021_MSI_AV_v3_Vset4_Aset3_2023-07-18_16h15.57.561.csv,3,3,2,0,z,0,1,3,aud,A,27,1,2A,0A,0,1,z,2.23491819999981,0,1,1,1,0A,2A,A20,2.89037175789616,0.5,0.5,0.5,0.5,0.5,0.5,0.5,0.5,0.5,0.5,0.502724712395678,0.5,0.5,0.5,0.5,0.5,0.5,0.5,0.5,0.5,0.178772926654338,0.500306387243952,0.5,0.00272471239567817,0.5,0.00544942479135635,0.977303341196155,0.0220294532896964,2.17171402608505,0.5,72.3410232095076
CBC_1021,CBC_1021_MSI_AV_v3_Vset4_Aset3_2023-07-18_16h15.57.561.csv,3,4,0,1,z,0,1,1,aud,B,63,1,0B,1B,0,1,b,2.28046299999914,1,0,0,0,0B,1B,B01,2.94443897916644,0.502724712395678,0.5,0.5,0.5,0.5,0.5,0.5,0.5,0.5,0.5,0.502724712395678,0.5,0.5,0.5,0.5,0.5,0.5,0.5,0.5,0.5,0.170368738151158,0.500045109349263,-0.5,-0.00272471239567817,0.5,0.00544942479135635,0.977303341196155,0.0220294532896964,2.17171402608505,0.5,72.3410232095076
CBC_1021,CBC_1021_MSI_AV_v3_Vset4_Aset3_2023-07-18_16h15.57.561.csv,3,5,1,0,b,1,0,1,aud,B,63,1,1B,0B,1,0,b,1.88419050000084,1,0,1,1,1B,0B,B10,2.99573227355399,0.502724712395678,0.5,0.5,0.5,0.497275287604322,0.5,0.5,0.5,0.5,0.5,0.502724712395678,0.5,0.5,0.5,0.5,0.5,0.501366078368503,0.498633921631497,0.5,0.497275287604322,0.257599483061152,0.500182120273442,0.5,0.00272471239567817,0.5,0.00544942479135635,0.977303341196155,0.0220294532896964,2.17171402608505,0.5,72.3410232095076
CBC_1021,CBC_1021_MSI_AV_v3_Vset4_Aset3_2023-07-18_16h15.57.561.csv,3,6,2,3,b,1,0,0,aud,C,63,1,2C,3C,1,0,z,1.79902799999945,0,1,0,0,3C,2C,C23,2.35137525716348,0.502724712395678,0.5,0.5,0.5,0.497275287604322,0.502724712395678,0.5,0.5,0.5,0.5,0.502724712395678,0.5,0.5,0.5,0.5,0.5,0.498641345744253,0.501358654255747,0.5,0.502724712395678,0.281159472699889,0.500175842408094,-0.5,-0.00272471239567817,0.5,0.00544942479135635,0.977303341196155,0.0220294532896964,2.17171402608505,0.5,72.3410232095076
CBC_1021,CBC_1021_MSI_AV_v3_Vset4_Aset3_2023-07-18_16h15.57.561.csv,3,7,1,3,z,0,1,2,aud,D,27,1,1D,3D,0,1,b,1.87392030000046,1,0,0,0,1D,3D,D13,3.09104245335832,0.502724712395678,0.5,0.5,0.5,0.497275287604322,0.502724712395678,0.5,0.5,0.5,0.5,0.502724712395678,0.497275287604322,0.5,0.5,0.5,0.5,0.5,0.5,0.5,0.5,0.260487808955056,0.500452425438537,-0.5,-0.00272471239567817,0.5,0.00544942479135635,0.977303341196155,0.0220294532896964,2.17171402608505,0.5,72.3410232095076
CBC_1021,CBC_1021_MSI_AV_v3_Vset4_Aset3_2023-07-18_16h15.57.561.csv,3,8,2,1,b,1,0,0,aud,C,9,1,2C,1C,1,0,z,2.61218399999962,0,1,0,0,1C,2C,C21,3.13549421592915,0.502724712395678,0.5,0.5,0.5,0.497275287604322,0.502724712395678,0.5,0.5,0.5,0.5,0.502724712395678,0.497275287604322,0.5,0.497275287604322,0.5,0.5,0.498641345744253,0.501358654255747,0.5,0.502724712395678,0.120588621109154,0.500773216428529,-0.5,-0.00272471239567817,0.5,0.00544942479135635,0.977303341196155,0.0220294532896964,2.17171402608505,0.5,72.3410232095076
CBC_1021,CBC_1021_MSI_AV_v3_Vset4_Aset3_2023-07-18_16h15.57.561.csv,3,9,1,3,b,1,0,1,aud,B,27,1,1B,3B,1,0,z,2.38928289999967,0,1,0,0,3B,1B,B13,3.17805383034795,0.502724712395678,0.5,0.5,0.5,0.497275287604322,0.502724712395678,0.5,0.5,0.5,0.497275287604322,0.502724712395678,0.497275287604322,0.5,0.497275287604322,0.5,0.5,0.498641345744253,0.501358654255747,0.5,0.502724712395678,0.152202599929296,0.500583003816244,-0.5,-0.00272471239567817,0.5,0.00544942479135635,0.977303341196155,0.0220294532896964,2.17171402608505,0.5,72.3410232095076
CBC_1021,CBC_1021_MSI_AV_v3_Vset4_Aset3_2023-07-18_16h15.57.561.csv,3,10,2,3,z,0,1,2,aud,D,63,1,2D,3D,0,1,b,2.34608479999952,1,0,0,0,2D,3D,D23,3.2188758248682,0.502724712395678,0.5,0.5,0.5,0.497275287604322,0.502724712395678,0.5,0.497275287604322,0.5,0.497275287604322,0.502724712395678,0.497275287604322,0.5,0.497275287604322,0.5,0.5,0.5,0.5,0.5,0.5,0.158956109396258,0.499695797776568,-0.5,-0.00272471239567817,0.5,0.00544942479135635,0.977303341196155,0.0220294532896964,2.17171402608505,0.5,72.3410232095076
CBC_1021,CBC_1021_MSI_AV_v3_Vset4_Aset3_2023-07-18_16h15.57.561.csv,3,11,0,1,z,0,1,1,aud,B,63,1,0B,1B,0,1,z,2.55523820000053,0,1,1,1,1B,0B,B01,2.56494935746154,0.502724712395678,0.5,0.5,0.5,0.497275287604322,0.502724712395678,0.5,0.497275287604322,0.5,0.497275287604322,0.502724712395678,0.497275287604322,0.5,0.497275287604322,0.497275287604322,0.5,0.502724712395678,0.497275287604322,0.502724712395678,0.497275287604322,0.127761880042165,0.499873337964798,0.497275287604322,0.00270986428039985,0.5,0.00544942479135635,0.977303341196155,0.0220294532896964,2.17171402608505,0.5,72.3410232095076
CBC_1021,CBC_1021_MSI_AV_v3_Vset4_Aset3_2023-07-18_16h15.57.561.csv,3,12,2,0,b,1,0,0,aud,C,27,1,2C,0C,1,0,b,1.68245319999914,1,0,1,1,2C,0C,C20,3.29583686600433,0.502724712395678,0.5,0.5,0.5,0.497275287604322,0.505434576676078,0.5,0.497275287604322,0.5,0.497275287604322,0.502724712395678,0.497275287604322,0.5,0.497275287604322,0.497275287604322,0.5,0.501358654255747,0.498641345744253,0.502724712395678,0.5,0.315404732297264,0.49922475967808,0.497275287604322,0.00270986428039985,0.5,0.00544942479135635,0.977303341196155,0.0220294532896964,2.17171402608505,0.5,72.3410232095076
CBC_1021,CBC_1021_MSI_AV_v3_Vset4_Aset3_2023-07-18_16h15.57.561.csv,3,13,2,3,z,0,1,2,aud,D,63,0,2D,3D,1,0,z,2.34109549999812,0,1,1,0,3D,2D,D23,2.63905732961526,0.502724712395678,0.5,0.5,0.5,0.497275287604322,0.505434576676078,0.5,0.497275287604322,0.5,0.497275287604322,0.505434576676078,0.497275287604322,0.5,0.497275287604322,0.497275287604322,0.5,0.501366078368503,0.498633921631497,0.5,0.497275287604322,0.159792273007518,0.499709539971529,-0.5,-0.00272471239567817,0.5,0.00544942479135635,0.977303341196155,0.0220294532896964,2.17171402608505,0.5,72.3410232095076
CBC_1021,CBC_1021_MSI_AV_v3_Vset4_Aset3_2023-07-18_16h15.57.561.csv,3,14,0,1,b,1,0,3,aud,A,63,1,0A,1A,1,0,z,3.08312540000043,0,1,0,0,1A,0A,A01,3.36729582998647,0.502724712395678,0.5,0.5,0.5,0.497275287604322,0.505434576676078,0.5,0.497275287604322,0.5,0.497275287604322,0.505434576676078,0.497275287604322,0.5,0.497275287604322,0.497275287604322,0.497275287604322,0.498641345744253,0.501358654255747,0.5,0.502724712395678,0.0735035987268218,0.499623359911769,-0.5,-0.00272471239567817,0.5,0.00544942479135635,0.977303341196155,0.0220294532896964,2.17171402608505,0.5,72.3410232095076
CBC_1021,CBC_1021_MSI_AV_v3_Vset4_Aset3_2023-07-18_16h15.57.561.csv,3,15,3,2,z,0,1,0,aud,C,63,1,3C,2C,0,1,b,1.13701809999839,1,0,0,0,3C,2C,C32,3.40119738166216,0.502724712395678,0.497275287604322,0.5,0.5,0.497275287604322,0.505434576676078,0.5,0.497275287604322,0.5,0.497275287604322,0.505434576676078,0.497275287604322,0.5,0.497275287604322,0.497275287604322,0.497275287604322,0.495931380869773,0.504068619130226,0.497275287604322,0.505434576676078,0.169461730556214,0.500557394063073,-0.497275287604322,-0.00270986428039985,0.5,0.00544942479135635,0.977303341196155,0.0220294532896964,2.17171402608505,0.5,72.3410232095076
CBC_1021,CBC_1021_MSI_AV_v3_Vset4_Aset3_2023-07-18_16h15.57.561.csv,3,16,2,0,z,0,1,3,aud,A,27,1,2A,0A,0,1,z,2.43140839999978,0,1,1,1,0A,2A,A20,2.7408400239252,0.502724712395678,0.497275287604322,0.5,0.5,0.497275287604322,0.505434576676078,0.5,0.497275287604322,0.5,0.497275287604322,0.505434576676078,0.494565423323922,0.5,0.497275287604322,0.497275287604322,0.497275287604322,0.501358654255747,0.498641345744253,0.502724712395678,0.5,0.145584988743202,0.500391630058009,0.497275287604322,0.00270986428039985,0.5,0.00544942479135635,0.977303341196155,0.0220294532896964,2.17171402608505,0.5,72.3410232095076
CBC_1021,CBC_1021_MSI_AV_v3_Vset4_Aset3_2023-07-18_16h15.57.561.csv,3,17,3,2,b,1,0,2,aud,D,63,1,3D,2D,1,0,z,3.10169029999997,0,1,0,0,2D,3D,D32,3.46573590279973,0.505434576676078,0.497275287604322,0.5,0.5,0.497275287604322,0.505434576676078,0.5,0.497275287604322,0.5,0.497275287604322,0.505434576676078,0.494565423323922,0.5,0.497275287604322,0.497275287604322,0.497275287604322,0.5,0.5,0.497275287604322,0.497275287604322,0.0721549033735719,0.500075962304867,-0.497275287604322,-0.00270986428039985,0.5,0.00544942479135635,0.977303341196155,0.0220294532896964,2.17171402608505,0.5,72.3410232095076
CBC_1021,CBC_1021_MSI_AV_v3_Vset4_Aset3_2023-07-18_16h15.57.561.csv,3,18,2,3,z,0,1,2,aud,D,63,1,2D,3D,0,1,b,1.7931695999996,1,0,0,0,2D,3D,D23,2.39789527279837,0.505434576676078,0.497275287604322,0.5,0.5,0.497275287604322,0.505434576676078,0.5,0.497275287604322,0.5,0.497275287604322,0.505434576676078,0.494565423323922,0.5,0.497275287604322,0.494565423323922,0.497275287604322,0.498633921631497,0.501366078368503,0.494565423323922,0.497275287604322,0.283079087155147,0.500591218964288,-0.494565423323922,-0.00269509707880903,0.5,0.00544942479135635,0.977303341196155,0.0220294532896964,2.17171402608505,0.5,72.3410232095076
CBC_1021,CBC_1021_MSI_AV_v3_Vset4_Aset3_2023-07-18_16h15.57.561.csv,3,19,1,3,b,1,0,1,aud,B,27,1,1B,3B,1,0,z,1.56381440000041,0,1,0,0,3B,1B,B13,2.83321334405622,0.505434576676078,0.497275287604322,0.5,0.5,0.497275287604322,0.505434576676078,0.5,0.497275287604322,0.5,0.497275287604322,0.505434576676078,0.494565423323922,0.5,0.497275287604322,0.491870326245113,0.497275287604322,0.495931380869773,0.504068619130226,0.497275287604322,0.505434576676078,0.352597288393387,0.499964862998862,-0.497275287604322,-0.00270986428039985,0.5,0.00544942479135635,0.977303341196155,0.0220294532896964,2.17171402608505,0.5,72.3410232095076
CBC_1021,CBC_1021_MSI_AV_v3_Vset4_Aset3_2023-07-18_16h15.57.561.csv,3,20,3,0,b,1,0,2,aud,D,9,1,3D,0D,1,0,b,3.3838156999991,1,0,1,1,3D,0D,D30,3.55534806148941,0.505434576676078,0.497275287604322,0.5,0.5,0.497275287604322,0.505434576676078,0.5,0.494565423323922,0.5,0.497275287604322,0.505434576676078,0.494565423323922,0.5,0.497275287604322,0.491870326245113,0.497275287604322,0.498633921631497,0.501366078368503,0.497275287604322,0.5,0.0536954387653548,0.499929051366334,0.502724712395678,0.0027395605109565,0.5,0.00544942479135635,0.977303341196155,0.0220294532896964,2.17171402608505,0.5,72.3410232095076
CBC_1021,CBC_1021_MSI_AV_v3_Vset4_Aset3_2023-07-18_16h15.57.561.csv,3,21,0,1,z,0,1,1,aud,B,63,1,0B,1B,0,1,z,2.50235179999981,0,1,1,1,1B,0B,B01,2.484906649788,0.505434576676078,0.497275287604322,0.5,0.5,0.497275287604322,0.505434576676078,0.5,0.494565423323922,0.5,0.497275287604322,0.505434576676078,0.494565423323922,0.5,0.497275287604322,0.491870326245113,0.500014848115278,0.504068619130226,0.495931380869773,0.505434576676078,0.497275287604322,0.135110908603839,0.500170725149386,0.494565423323922,0.00269509707880903,0.5,0.00544942479135635,0.977303341196155,0.0220294532896964,2.17171402608505,0.5,72.3410232095076
CBC_1021,CBC_1021_MSI_AV_v3_Vset4_Aset3_2023-07-18_16h15.57.561.csv,3,22,0,1,b,1,0,3,aud,A,63,1,0A,1A,1,0,z,1.75317589999941,0,1,0,0,1A,0A,A01,2.91777073208428,0.505434576676078,0.497275287604322,0.5,0.5,0.497275287604322,0.508129673754887,0.5,0.494565423323922,0.5,0.497275287604322,0.505434576676078,0.494565423323922,0.5,0.497275287604322,0.491870326245113,0.500014848115278,0.495931380869773,0.504068619130226,0.497275287604322,0.505434576676078,0.294707984582291,0.50044498520975,-0.497275287604322,-0.00270986428039985,0.5,0.00544942479135635,0.977303341196155,0.0220294532896964,2.17171402608505,0.5,72.3410232095076
CBC_1021,CBC_1021_MSI_AV_v3_Vset4_Aset3_2023-07-18_16h15.57.561.csv,3,23,3,2,z,0,1,0,aud,C,63,1,3C,2C,0,1,b,1.59837049999987,1,0,0,0,3C,2C,C32,2.94443897916644,0.505434576676078,0.494565423323922,0.5,0.5,0.497275287604322,0.508129673754887,0.5,0.494565423323922,0.5,0.497275287604322,0.505434576676078,0.494565423323922,0.5,0.497275287604322,0.491870326245113,0.500014848115278,0.494565423323922,0.505434576676078,0.494565423323922,0.505434576676078,0.341796415351856,0.499654085439158,-0.494565423323922,-0.00269509707880903,0.5,0.00544942479135635,0.977303341196155,0.0220294532896964,2.17171402608505,0.5,72.3410232095076
CBC_1021,CBC_1021_MSI_AV_v3_Vset4_Aset3_2023-07-18_16h15.57.561.csv,3,24,2,0,z,0,1,3,aud,A,27,1,2A,0A,0,1,z,1.92303879999963,0,1,1,1,0A,2A,A20,2.56494935746154,0.505434576676078,0.494565423323922,0.5,0.5,0.497275287604322,0.508129673754887,0.5,0.494565423323922,0.5,0.497275287604322,0.505434576676078,0.491870326245113,0.5,0.497275287604322,0.491870326245113,0.500014848115278,0.502702600846514,0.497297399153486,0.505434576676078,0.5,0.247305146431682,0.499903957728967,0.494565423323922,0.00269509707880903,0.5,0.00544942479135635,0.977303341196155,0.0220294532896964,2.17171402608505,0.5,72.3410232095076
CBC_1021,CBC_1021_MSI_AV_v3_Vset4_Aset3_2023-07-18_16h15.57.561.csv,3,25,0,1,z,0,1,1,aud,B,63,1,0B,1B,0,1,b,1.57311630000004,1,0,0,0,0B,1B,B01,2.30258509299405,0.508129673754887,0.494565423323922,0.5,0.5,0.497275287604322,0.508129673754887,0.5,0.494565423323922,0.5,0.497275287604322,0.505434576676078,0.491870326245113,0.5,0.497275287604322,0.491870326245113,0.500014848115278,0.494601982998029,0.505398017001971,0.497275287604322,0.508129673754887,0.349389019291853,0.499414423501397,-0.497275287604322,-0.00270986428039985,0.5,0.00544942479135635,0.977303341196155,0.0220294532896964,2.17171402608505,0.5,72.3410232095076
CBC_1021,CBC_1021_MSI_AV_v3_Vset4_Aset3_2023-07-18_16h15.57.561.csv,3,26,3,2,b,1,0,2,aud,D,63,1,3D,2D,1,0,z,1.44364969999879,0,1,0,0,2D,3D,D32,3.02042488614436,0.508129673754887,0.494565423323922,0.5,0.5,0.494565423323922,0.508129673754887,0.5,0.494565423323922,0.5,0.497275287604322,0.505434576676078,0.491870326245113,0.5,0.497275287604322,0.491870326245113,0.500014848115278,0.495894423023604,0.504105576976396,0.491870326245113,0.500014848115278,0.383697871107312,0.499362314577796,-0.491870326245113,-0.00268041034997265,0.5,0.00544942479135635,0.977303341196155,0.0220294532896964,2.17171402608505,0.5,72.3410232095076
CBC_1021,CBC_1021_MSI_AV_v3_Vset4_Aset3_2023-07-18_16h15.57.561.csv,3,27,2,1,z,0,1,1,aud,B,9,1,2B,1B,0,1,z,3.67871969999942,0,1,1,1,1B,2B,B21,3.73766961828337,0.508129673754887,0.494565423323922,0.5,0.5,0.494565423323922,0.508129673754887,0.5,0.494565423323922,0.5,0.497275287604322,0.505434576676078,0.491870326245113,0.5,0.497275287604322,0.48918991589514,0.500014848115278,0.50403205756488,0.49596794243512,0.508129673754887,0.5,0.0394664936874542,0.500273164674728,0.491870326245113,0.00268041034997265,0.5,0.00544942479135635,0.977303341196155,0.0220294532896964,2.17171402608505,0.5,72.3410232095076
CBC_1021,CBC_1021_MSI_AV_v3_Vset4_Aset3_2023-07-18_16h15.57.561.csv,3,28,3,1,b,1,0,2,aud,D,27,1,3D,1D,1,0,b,1.75084589999824,1,0,1,1,3D,1D,D31,3.76120011569356,0.508129673754887,0.494565423323922,0.5,0.5,0.494565423323922,0.51081008410486,0.5,0.494565423323922,0.5,0.497275287604322,0.505434576676078,0.491870326245113,0.5,0.497275287604322,0.48918991589514,0.500014848115278,0.501373502260192,0.498626497739808,0.500014848115278,0.497275287604322,0.295098958227719,0.499933644931208,0.499985151884722,0.00272463148199067,0.5,0.00544942479135635,0.977303341196155,0.0220294532896964,2.17171402608505,0.5,72.3410232095076
CBC_1021,CBC_1021_MSI_AV_v3_Vset4_Aset3_2023-07-18_16h15.57.561.csv,3,29,0,1,b,1,0,3,aud,A,63,1,0A,1A,1,0,z,4.16207569999824,0,1,0,0,1A,0A,A01,2.68557734525015,0.508129673754887,0.494565423323922,0.5,0.5,0.494565423323922,0.51081008410486,0.5,0.494565423323922,0.5,0.497275287604322,0.505434576676078,0.491870326245113,0.5,0.497275287604322,0.48918991589514,0.502739479597269,0.49323610414049,0.50676389585951,0.494565423323922,0.508129673754887,0.0237694626576759,0.499620690485119,-0.494565423323922,-0.00269509707880903,0.5,0.00544942479135635,0.977303341196155,0.0220294532896964,2.17171402608505,0.5,72.3410232095076
CBC_1021,CBC_1021_MSI_AV_v3_Vset4_Aset3_2023-07-18_16h15.57.561.csv,3,30,1,0,z,0,1,3,aud,A,63,1,1A,0A,0,1,b,1.34086349999961,1,0,0,0,1A,0A,A10,3.11351530921037,0.508129673754887,0.491870326245113,0.5,0.5,0.494565423323922,0.51081008410486,0.5,0.494565423323922,0.5,0.497275287604322,0.505434576676078,0.491870326245113,0.5,0.497275287604322,0.48918991589514,0.502739479597269,0.491870326245113,0.508129673754887,0.491870326245113,0.508129673754887,0.390766818222392,0.50039917892911,-0.491870326245113,-0.00268041034997265,0.5,0.00544942479135635,0.977303341196155,0.0220294532896964,2.17171402608505,0.5,72.3410232095076
CBC_1021,CBC_1021_MSI_AV_v3_Vset4_Aset3_2023-07-18_16h15.57.561.csv,3,31,2,0,b,1,0,0,aud,C,27,1,2C,0C,1,0,z,1.08924289999777,0,1,0,0,0C,2C,C20,3.13549421592915,0.508129673754887,0.48918991589514,0.5,0.5,0.494565423323922,0.51081008410486,0.5,0.494565423323922,0.5,0.497275287604322,0.505434576676078,0.491870326245113,0.5,0.497275287604322,0.48918991589514,0.502739479597269,0.497297399153486,0.502702600846514,0.5,0.505434576676078,0.0596654192047451,0.499744254088507,-0.5,-0.00272471239567817,0.5,0.00544942479135635,0.977303341196155,0.0220294532896964,2.17171402608505,0.5,72.3410232095076
CBC_1021,CBC_1021_MSI_AV_v3_Vset4_Aset3_2023-07-18_16h15.57.561.csv,3,32,0,1,b,1,0,3,aud,A,63,1,0A,1A,1,0,z,1.18103100000008,0,1,0,0,1A,0A,A01,2.46385324059017,0.508129673754887,0.48918991589514,0.5,0.5,0.494565423323922,0.51081008410486,0.5,0.494565423323922,0.497275287604322,0.497275287604322,0.505434576676078,0.491870326245113,0.5,0.497275287604322,0.48918991589514,0.502739479597269,0.490504669688483,0.509495330311517,0.48918991589514,0.508129673754887,0.260828230488632,0.499998768904277,-0.48918991589514,-0.00266580365536051,0.5,0.00544942479135635,0.977303341196155,0.0220294532896964,2.17171402608505,0.5,72.3410232095076
CBC_1021,CBC_1021_MSI_AV_v3_Vset4_Aset3_2023-07-18_16h15.57.561.csv,3,33,0,1,z,0,1,1,aud,B,63,1,0B,1B,0,1,b,2.48401529999865,1,0,0,0,0B,1B,B01,2.26176309847379,0.508129673754887,0.48652411223978,0.5,0.5,0.494565423323922,0.51081008410486,0.5,0.494565423323922,0.497275287604322,0.497275287604322,0.505434576676078,0.491870326245113,0.5,0.497275287604322,0.48918991589514,0.502739479597269,0.491921097808279,0.508078902191721,0.494565423323922,0.51081008410486,0.137797629853162,0.500423791794806,-0.494565423323922,-0.00269509707880903,0.5,0.00544942479135635,0.977303341196155,0.0220294532896964,2.17171402608505,0.5,72.3410232095076
CBC_1021,CBC_1021_MSI_AV_v3_Vset4_Aset3_2023-07-18_16h15.57.561.csv,3,34,2,3,z,0,1,2,aud,D,63,1,2D,3D,0,1,z,1.92905159999827,0,1,1,1,3D,2D,D23,2.50552593699074,0.508129673754887,0.48652411223978,0.5,0.5,0.491870326245113,0.51081008410486,0.5,0.494565423323922,0.497275287604322,0.497275287604322,0.505434576676078,0.491870326245113,0.5,0.497275287604322,0.48918991589514,0.502739479597269,0.506829903299419,0.493170096700581,0.502739479597269,0.48918991589514,0.245863969348045,0.500100445309694,0.497260520402731,0.0027097838076454,0.5,0.00544942479135635,0.977303341196155,0.0220294532896964,2.17171402608505,0.5,72.3410232095076
CBC_1021,CBC_1021_MSI_AV_v3_Vset4_Aset3_2023-07-18_16h15.57.561.csv,3,35,1,3,b,1,0,1,aud,B,27,1,1B,3B,1,0,b,2.42903330000081,1,0,1,1,1B,3B,B13,2.81341071676004,0.508129673754887,0.48652411223978,0.5,0.5,0.491870326245113,0.51081008410486,0.5,0.494565423323922,0.497275287604322,0.497275287604322,0.505434576676078,0.491870326245113,0.5,0.497275287604322,0.48918991589514,0.505449263404914,0.508078902191721,0.491921097808279,0.51081008410486,0.494565423323922,0.145913008346182,0.500274422245671,0.48918991589514,0.00266580365536051,0.5,0.00544942479135635,0.977303341196155,0.0220294532896964,2.17171402608505,0.5,72.3410232095076
CBC_1021,CBC_1021_MSI_AV_v3_Vset4_Aset3_2023-07-18_16h15.57.561.csv,3,36,2,3,b,1,0,0,aud,C,63,1,2C,3C,1,0,z,2.55715759999839,0,1,0,0,3C,2C,C23,2.83321334405622,0.508129673754887,0.48652411223978,0.5,0.5,0.491870326245113,0.51347588776022,0.5,0.494565423323922,0.497275287604322,0.497275287604322,0.505434576676078,0.491870326245113,0.5,0.497275287604322,0.48918991589514,0.505449263404914,0.493199546903242,0.506800453096758,0.491870326245113,0.505434576676078,0.127314663323748,0.499125185546178,-0.491870326245113,-0.00268041034997265,0.5,0.00544942479135635,0.977303341196155,0.0220294532896964,2.17171402608505,0.5,72.3410232095076
CBC_1021,CBC_1021_MSI_AV_v3_Vset4_Aset3_2023-07-18_16h15.57.561.csv,3,37,0,2,z,0,1,0,aud,C,27,1,0C,2C,0,1,z,2.45347199999924,0,1,1,1,2C,0C,C02,3.95124371858143,0.508129673754887,0.48652411223978,0.5,0.5,0.491870326245113,0.51347588776022,0.5,0.494565423323922,0.497275287604322,0.497275287604322,0.505434576676078,0.48918991589514,0.5,0.497275287604322,0.48918991589514,0.505449263404914,0.504068619130226,0.495931380869773,0.505434576676078,0.497275287604322,0.142352206258937,0.500705687254707,0.494565423323922,0.00269509707880903,0.5,0.00544942479135635,0.977303341196155,0.0220294532896964,2.17171402608505,0.5,72.3410232095076
CBC_1021,CBC_1021_MSI_AV_v3_Vset4_Aset3_2023-07-18_16h15.57.561.csv,3,38,0,1,z,0,1,1,aud,B,63,1,0B,1B,0,1,b,2.41661939999904,1,0,0,0,0B,1B,B01,2.17853244432407,0.508129673754887,0.48652411223978,0.5,0.5,0.491870326245113,0.51347588776022,0.5,0.494565423323922,0.497275287604322,0.497275287604322,0.508129673754887,0.48918991589514,0.5,0.497275287604322,0.48918991589514,0.505449263404914,0.48925466609705,0.51074533390295,0.491870326245113,0.51347588776022,0.147735293375612,0.499986493295733,-0.491870326245113,-0.00268041034997265,0.5,0.00544942479135635,0.977303341196155,0.0220294532896964,2.17171402608505,0.5,72.3410232095076
CBC_1021,CBC_1021_MSI_AV_v3_Vset4_Aset3_2023-07-18_16h15.57.561.csv,3,39,0,3,b,1,0,3,aud,A,9,1,0A,3A,1,0,z,2.3924737999987,0,1,0,0,3A,0A,A03,3.98898404656427,0.508129673754887,0.48652411223978,0.5,0.5,0.48918991589514,0.51347588776022,0.5,0.494565423323922,0.497275287604322,0.497275287604322,0.508129673754887,0.48918991589514,0.5,0.497275287604322,0.48918991589514,0.505449263404914,0.49596794243512,0.50403205756488,0.5,0.508129673754887,0.151430525701789,0.499708966675793,-0.5,-0.00272471239567817,0.5,0.00544942479135635,0.977303341196155,0.0220294532896964,2.17171402608505,0.5,72.3410232095076
CBC_1021,CBC_1021_MSI_AV_v3_Vset4_Aset3_2023-07-18_16h15.57.561.csv,3,40,2,3,b,1,0,0,aud,C,63,0,2C,3C,0,1,z,1.89745969999967,0,1,0,1,3C,2C,C23,2.62103882411258,0.508129673754887,0.48652411223978,0.5,0.497275287604322,0.48918991589514,0.51347588776022,0.5,0.494565423323922,0.497275287604322,0.497275287604322,0.508129673754887,0.48918991589514,0.5,0.497275287604322,0.48918991589514,0.505449263404914,0.490504669688483,0.509495330311517,0.48918991589514,0.508129673754887,0.253775174063155,0.499565798787052,0.51081008410486,0.00278362113599584,0.5,0.00544942479135635,0.977303341196155,0.0220294532896964,2.17171402608505,0.5,72.3410232095076
CBC_1021,CBC_1021_MSI_AV_v3_Vset4_Aset3_2023-07-18_16h15.57.561.csv,3,41,0,1,b,1,0,3,aud,A,63,1,0A,1A,1,0,b,2.70687700000053,1,0,1,1,0A,1A,A01,2.41591377830105,0.508129673754887,0.48652411223978,0.5,0.497275287604322,0.48918991589514,0.51347588776022,0.5,0.494565423323922,0.497275287604322,0.497275287604322,0.508129673754887,0.491973537031136,0.5,0.497275287604322,0.48918991589514,0.505449263404914,0.510860845160058,0.489139154839942,0.508129673754887,0.48652411223978,0.109125230528385,0.500366833589488,0.491870326245113,0.00268041034997265,0.5,0.00544942479135635,0.977303341196155,0.0220294532896964,2.17171402608505,0.5,72.3410232095076
CBC_1021,CBC_1021_MSI_AV_v3_Vset4_Aset3_2023-07-18_16h15.57.561.csv,3,42,2,3,z,0,1,2,aud,D,63,1,2D,3D,0,1,z,1.89929929999926,0,1,1,1,3D,2D,D23,2.43361335540045,0.51081008410486,0.48652411223978,0.5,0.497275287604322,0.48918991589514,0.51347588776022,0.5,0.494565423323922,0.497275287604322,0.497275287604322,0.508129673754887,0.491973537031136,0.5,0.497275287604322,0.48918991589514,0.505449263404914,0.50817349037126,0.49182650962874,0.505449263404914,0.48918991589514,0.253638956300206,0.500249280282179,0.494550736595086,0.0026950170445848,0.5,0.00544942479135635,0.977303341196155,0.0220294532896964,2.17171402608505,0.5,72.3410232095076
CBC_1021,CBC_1021_MSI_AV_v3_Vset4_Aset3_2023-07-18_16h15.57.561.csv,3,43,3,2,z,0,1,0,aud,C,63,1,3C,2C,0,1,b,2.38355459999912,1,0,0,0,3C,2C,C32,2.96183072187831,0.51081008410486,0.48652411223978,0.5,0.497275287604322,0.48918991589514,0.51347588776022,0.5,0.494565423323922,0.497275287604322,0.497275287604322,0.508129673754887,0.491973537031136,0.5,0.497275287604322,0.48918991589514,0.508144280449499,0.491922765295867,0.508077234704133,0.491973537031136,0.508129673754887,0.152828291231786,0.499637721054979,-0.491973537031136,-0.00268097278938874,0.5,0.00544942479135635,0.977303341196155,0.0220294532896964,2.17171402608505,0.5,72.3410232095076
CBC_1021,CBC_1021_MSI_AV_v3_Vset4_Aset3_2023-07-18_16h15.57.561.csv,3,44,3,1,b,1,0,2,aud,D,27,1,3D,1D,1,0,z,2.15920449999976,0,1,0,0,1D,3D,D31,3.38439026334577,0.51081008410486,0.48652411223978,0.5,0.497275287604322,0.48918991589514,0.51347588776022,0.5,0.494565423323922,0.497275287604322,0.497275287604322,0.508129673754887,0.489292564241747,0.5,0.497275287604322,0.48918991589514,0.508144280449499,0.494594797440527,0.505405202559473,0.497275287604322,0.508144280449499,0.19306018105228,0.499174932816557,-0.497275287604322,-0.00270986428039985,0.5,0.00544942479135635,0.977303341196155,0.0220294532896964,2.17171402608505,0.5,72.3410232095076
CBC_1021,CBC_1021_MSI_TV_v3_Vset1_Tset2_2023-07-18_16h24.41.177.csv,4,1,0,1,b,1,0,3,tac,A,63,1,0A,1A,1,0,z,1.82615599999735,0,1,0,0,1A,0A,A01,2.77258872223978,0.5,0.5,0.5,0.5,0.5,0.5,0.5,0.5,0.5,0.5,0.5,0.5,0.5,0.5,0.5,0.5,0.5,0.5,0.5,0.5,0.181708960212912,0.500591777207283,-0.5,-0.0401010848038555,0.5,0.080202169607711,0.53780162694681,2.7046133437199,2.4699175219906,0.5,74.2025835627428
CBC_1021,CBC_1021_MSI_TV_v3_Vset1_Tset2_2023-07-18_16h24.41.177.csv,4,2,2,3,b,1,0,0,tac,C,63,1,2C,3C,1,0,b,1.56052449999879,1,0,1,1,2C,3C,C23,2.83321334405622,0.5,0.459898915196145,0.5,0.5,0.5,0.5,0.5,0.5,0.5,0.5,0.5,0.5,0.5,0.5,0.5,0.5,0.5,0.5,0.5,0.5,0.224617068488029,0.500798295500403,0.5,0.0401010848038555,0.5,0.080202169607711,0.53780162694681,2.7046133437199,2.4699175219906,0.5,74.2025835627428
CBC_1021,CBC_1021_MSI_TV_v3_Vset1_Tset2_2023-07-18_16h24.41.177.csv,4,3,2,0,z,0,1,3,tac,A,27,1,2A,0A,0,1,z,2.06077549999827,0,1,1,1,0A,2A,A20,2.89037175789616,0.5,0.459898915196145,0.5,0.5,0.5,0.5,0.5,0.5,0.5,0.5,0.540101084803855,0.5,0.5,0.5,0.5,0.5,0.5,0.5,0.5,0.5,0.150215091850492,0.500035944443787,0.5,0.0401010848038555,0.5,0.080202169607711,0.53780162694681,2.7046133437199,2.4699175219906,0.5,74.2025835627428
CBC_1021,CBC_1021_MSI_TV_v3_Vset1_Tset2_2023-07-18_16h24.41.177.csv,4,4,0,1,z,0,1,1,tac,B,63,1,0B,1B,0,1,b,1.64233059999788,1,0,0,0,0B,1B,B01,2.94443897916644,0.540101084803855,0.459898915196145,0.5,0.5,0.5,0.5,0.5,0.5,0.5,0.5,0.540101084803855,0.5,0.5,0.5,0.5,0.5,0.5,0.5,0.5,0.5,0.210008619611158,0.499435027786947,-0.5,-0.0401010848038555,0.5,0.080202169607711,0.53780162694681,2.7046133437199,2.4699175219906,0.5,74.2025835627428
CBC_1021,CBC_1021_MSI_TV_v3_Vset1_Tset2_2023-07-18_16h24.41.177.csv,4,5,3,2,b,1,0,2,tac,D,63,1,3D,2D,1,0,z,2.07523649999894,0,1,0,0,2D,3D,D32,2.99573227355399,0.540101084803855,0.459898915196145,0.5,0.5,0.459898915196145,0.5,0.5,0.5,0.5,0.5,0.540101084803855,0.5,0.5,0.5,0.5,0.5,0.5,0.5,0.5,0.5,0.148200710627705,0.499128214790176,-0.5,-0.0401010848038555,0.5,0.080202169607711,0.53780162694681,2.7046133437199,2.4699175219906,0.5,74.2025835627428
CBC_1021,CBC_1021_MSI_TV_v3_Vset1_Tset2_2023-07-18_16h24.41.177.csv,4,6,2,1,z,0,1,1,tac,B,9,1,2B,1B,0,1,b,1.9783727999984,1,0,0,0,2B,1B,B21,3.04452243772342,0.540101084803855,0.459898915196145,0.5,0.5,0.459898915196145,0.5,0.5,0.5,0.5,0.5,0.540101084803855,0.5,0.5,0.5,0.459898915196145,0.5,0.5,0.5,0.5,0.5,0.160487833642257,0.499837823521328,-0.5,-0.0401010848038555,0.5,0.080202169607711,0.53780162694681,2.7046133437199,2.4699175219906,0.5,74.2025835627428
CBC_1021,CBC_1021_MSI_TV_v3_Vset1_Tset2_2023-07-18_16h24.41.177.csv,4,7,3,1,b,1,0,2,tac,D,27,1,3D,1D,1,0,z,2.22683749999851,0,1,0,0,1D,3D,D31,3.09104245335832,0.540101084803855,0.459898915196145,0.5,0.5,0.459898915196145,0.5,0.459898915196145,0.5,0.5,0.5,0.540101084803855,0.5,0.5,0.5,0.459898915196145,0.5,0.5,0.5,0.5,0.5,0.131307066637744,0.499884659083029,-0.5,-0.0401010848038555,0.5,0.080202169607711,0.53780162694681,2.7046133437199,2.4699175219906,0.5,74.2025835627428
CBC_1021,CBC_1021_MSI_TV_v3_Vset1_Tset2_2023-07-18_16h24.41.177.csv,4,8,0,1,b,1,0,3,tac,A,63,1,0A,1A,1,0,b,2.69532539999818,1,0,1,1,0A,1A,A01,2.4423470353692,0.540101084803855,0.459898915196145,0.5,0.5,0.459898915196145,0.5,0.459898915196145,0.5,0.5,0.5,0.540101084803855,0.5,0.5,0.459898915196145,0.459898915196145,0.5,0.540101084803855,0.459898915196145,0.540101084803855,0.459898915196145,0.111646579186659,0.630349063783491,0.459898915196145,0.0368848907989635,0.5,0.080202169607711,0.53780162694681,2.7046133437199,2.4699175219906,0.5,74.2025835627428
CBC_1021,CBC_1021_MSI_TV_v3_Vset1_Tset2_2023-07-18_16h24.41.177.csv,4,9,1,0,z,0,1,3,tac,A,63,1,1A,0A,0,1,z,2.8936629999971,0,1,1,1,0A,1A,A10,3.17805383034795,0.576985975602819,0.459898915196145,0.5,0.5,0.459898915196145,0.5,0.459898915196145,0.5,0.5,0.5,0.540101084803855,0.5,0.5,0.459898915196145,0.459898915196145,0.5,0.556460973366318,0.443539026633683,0.576985975602819,0.459898915196145,0.100124155412566,0.680853894852972,0.423014024397181,0.0339266425311431,0.5,0.080202169607711,0.53780162694681,2.7046133437199,2.4699175219906,0.5,74.2025835627428
CBC_1021,CBC_1021_MSI_TV_v3_Vset1_Tset2_2023-07-18_16h24.41.177.csv,4,10,0,2,z,0,1,0,tac,C,27,1,0C,2C,0,1,z,1.74426989999847,0,1,1,1,2C,0C,C02,3.2188758248682,0.610912618133962,0.459898915196145,0.5,0.5,0.459898915196145,0.5,0.459898915196145,0.5,0.5,0.5,0.540101084803855,0.5,0.5,0.459898915196145,0.459898915196145,0.5,0.51927749398099,0.48072250601901,0.540101084803855,0.5,0.219223195278144,0.564534741515682,0.459898915196145,0.0368848907989635,0.5,0.080202169607711,0.53780162694681,2.7046133437199,2.4699175219906,0.5,74.2025835627428
CBC_1021,CBC_1021_MSI_TV_v3_Vset1_Tset2_2023-07-18_16h24.41.177.csv,4,11,1,0,b,1,0,1,tac,B,63,1,1B,0B,1,0,b,1.98008499999924,1,0,1,1,1B,0B,B10,3.25809653802148,0.610912618133962,0.459898915196145,0.5,0.5,0.459898915196145,0.5,0.459898915196145,0.5,0.5,0.5,0.576985975602819,0.5,0.5,0.459898915196145,0.459898915196145,0.5,0.520888181124604,0.479111818875396,0.5,0.459898915196145,0.182687874182936,0.569481982087247,0.5,0.0401010848038555,0.5,0.080202169607711,0.53780162694681,2.7046133437199,2.4699175219906,0.5,74.2025835627428
CBC_1021,CBC_1021_MSI_TV_v3_Vset1_Tset2_2023-07-18_16h24.41.177.csv,4,12,1,0,z,0,1,3,tac,A,63,1,1A,0A,0,1,z,2.36100110000007,0,1,1,1,0A,1A,A10,2.60268968544438,0.610912618133962,0.459898915196145,0.5,0.5,0.459898915196145,0.540101084803855,0.459898915196145,0.5,0.5,0.5,0.576985975602819,0.5,0.5,0.459898915196145,0.459898915196145,0.5,0.570513670350646,0.429486329649354,0.610912618133962,0.459898915196145,0.165172867949758,0.718875126108189,0.389087381866038,0.0312056521926402,0.5,0.080202169607711,0.53780162694681,2.7046133437199,2.4699175219906,0.5,74.2025835627428
CBC_1021,CBC_1021_MSI_TV_v3_Vset1_Tset2_2023-07-18_16h24.41.177.csv,4,13,2,3,b,1,0,0,tac,C,63,1,2C,3C,1,0,b,2.24321349999991,1,0,1,1,2C,3C,C23,2.63905732961526,0.642118270326602,0.459898915196145,0.5,0.5,0.459898915196145,0.540101084803855,0.459898915196145,0.5,0.5,0.5,0.576985975602819,0.5,0.5,0.459898915196145,0.459898915196145,0.5,0.535741401163431,0.464258598836569,0.576985975602819,0.5,0.159213896238074,0.616410592772048,0.423014024397181,0.0339266425311431,0.5,0.080202169607711,0.53780162694681,2.7046133437199,2.4699175219906,0.5,74.2025835627428
CBC_1021,CBC_1021_MSI_TV_v3_Vset1_Tset2_2023-07-18_16h24.41.177.csv,4,14,2,0,z,0,1,3,tac,A,27,1,2A,0A,0,1,z,2.55104949999804,0,1,1,1,0A,2A,A20,2.67414864942653,0.642118270326602,0.459898915196145,0.5,0.5,0.459898915196145,0.540101084803855,0.459898915196145,0.5,0.5,0.5,0.610912618133962,0.5,0.5,0.459898915196145,0.459898915196145,0.5,0.562216967374999,0.437783032625,0.642118270326602,0.5,0.136577574221582,0.696365003517464,0.357881729673398,0.0287028911827668,0.5,0.080202169607711,0.53780162694681,2.7046133437199,2.4699175219906,0.5,74.2025835627428
CBC_1021,CBC_1021_MSI_TV_v3_Vset1_Tset2_2023-07-18_16h24.41.177.csv,4,15,0,1,z,0,1,1,tac,B,63,1,0B,1B,0,1,b,2.44817259999945,1,0,0,0,0B,1B,B01,2.70805020110221,0.670821161509369,0.459898915196145,0.5,0.5,0.459898915196145,0.540101084803855,0.459898915196145,0.5,0.5,0.5,0.610912618133962,0.5,0.5,0.459898915196145,0.459898915196145,0.5,0.459898915196145,0.540101084803855,0.459898915196145,0.540101084803855,0.0804520750215135,0.369773717853153,-0.459898915196145,-0.0368848907989635,0.5,0.080202169607711,0.53780162694681,2.7046133437199,2.4699175219906,0.5,74.2025835627428
CBC_1021,CBC_1021_MSI_TV_v3_Vset1_Tset2_2023-07-18_16h24.41.177.csv,4,16,1,0,b,1,0,1,tac,B,63,1,1B,0B,1,0,z,2.60687359999793,0,1,0,0,0B,1B,B10,2.7408400239252,0.670821161509369,0.459898915196145,0.5,0.5,0.423014024397181,0.540101084803855,0.459898915196145,0.5,0.5,0.5,0.610912618133962,0.5,0.5,0.459898915196145,0.459898915196145,0.5,0.439214399562371,0.560785600437629,0.423014024397181,0.540101084803855,0.0575840916766332,0.307645585370086,-0.423014024397181,-0.0339266425311431,0.5,0.080202169607711,0.53780162694681,2.7046133437199,2.4699175219906,0.5,74.2025835627428
CBC_1021,CBC_1021_MSI_TV_v3_Vset1_Tset2_2023-07-18_16h24.41.177.csv,4,17,2,3,b,1,0,0,tac,C,63,1,2C,3C,1,0,z,1.35420209999756,0,1,0,0,3C,2C,C23,2.36712361413162,0.670821161509369,0.459898915196145,0.5,0.5,0.389087381866038,0.540101084803855,0.459898915196145,0.5,0.5,0.5,0.610912618133962,0.5,0.5,0.459898915196145,0.459898915196145,0.5,0.450080404019415,0.549919595980585,0.5,0.610912618133962,0.182473329539625,0.33974116243767,-0.5,-0.0401010848038555,0.5,0.080202169607711,0.53780162694681,2.7046133437199,2.4699175219906,0.5,74.2025835627428
CBC_1021,CBC_1021_MSI_TV_v3_Vset1_Tset2_2023-07-18_16h24.41.177.csv,4,18,1,3,z,0,1,2,tac,D,27,1,1D,3D,0,1,b,1.59984899999836,1,0,0,0,1D,3D,D13,3.49650756146648,0.670821161509369,0.459898915196145,0.5,0.5,0.389087381866038,0.540101084803855,0.459898915196145,0.5,0.5,0.5,0.610912618133962,0.459898915196145,0.5,0.459898915196145,0.459898915196145,0.5,0.479111818875396,0.520888181124604,0.459898915196145,0.5,0.187829325850586,0.430660982718462,-0.459898915196145,-0.0368848907989635,0.5,0.080202169607711,0.53780162694681,2.7046133437199,2.4699175219906,0.5,74.2025835627428
CBC_1021,CBC_1021_MSI_TV_v3_Vset1_Tset2_2023-07-18_16h24.41.177.csv,4,19,2,1,b,1,0,0,tac,C,9,1,2C,1C,1,0,z,2.20953799999916,0,1,0,0,1C,2C,C21,3.52636052461616,0.670821161509369,0.459898915196145,0.5,0.5,0.389087381866038,0.540101084803855,0.459898915196145,0.5,0.5,0.5,0.610912618133962,0.459898915196145,0.5,0.423014024397181,0.459898915196145,0.5,0.450080404019415,0.549919595980585,0.5,0.610912618133962,0.0899798812989731,0.339920374224761,-0.5,-0.0401010848038555,0.5,0.080202169607711,0.53780162694681,2.7046133437199,2.4699175219906,0.5,74.2025835627428
CBC_1021,CBC_1021_MSI_TV_v3_Vset1_Tset2_2023-07-18_16h24.41.177.csv,4,20,1,3,b,1,0,1,tac,B,27,1,1B,3B,1,0,b,3.70657609999944,1,0,1,1,1B,3B,B13,3.55534806148941,0.670821161509369,0.459898915196145,0.5,0.5,0.389087381866038,0.540101084803855,0.459898915196145,0.5,0.5,0.459898915196145,0.610912618133962,0.459898915196145,0.5,0.423014024397181,0.459898915196145,0.5,0.51927749398099,0.48072250601901,0.540101084803855,0.5,0.0443524487443764,0.563889915225157,0.459898915196145,0.0368848907989635,0.5,0.080202169607711,0.53780162694681,2.7046133437199,2.4699175219906,0.5,74.2025835627428
CBC_1021,CBC_1021_MSI_TV_v3_Vset1_Tset2_2023-07-18_16h24.41.177.csv,4,21,2,3,z,0,1,2,tac,D,63,1,2D,3D,0,1,b,1.79750149999927,1,0,0,0,2D,3D,D23,3.58351893845611,0.670821161509369,0.459898915196145,0.5,0.5,0.389087381866038,0.576985975602819,0.459898915196145,0.5,0.5,0.459898915196145,0.610912618133962,0.459898915196145,0.5,0.423014024397181,0.459898915196145,0.5,0.479111818875396,0.520888181124604,0.459898915196145,0.5,0.160060009599089,0.43018453524341,-0.459898915196145,-0.0368848907989635,0.5,0.080202169607711,0.53780162694681,2.7046133437199,2.4699175219906,0.5,74.2025835627428
CBC_1021,CBC_1021_MSI_TV_v3_Vset1_Tset2_2023-07-18_16h24.41.177.csv,4,22,0,1,z,0,1,1,tac,B,63,0,0B,1B,1,0,z,1.69682359999751,0,1,1,0,1B,0B,B01,2.51230562397611,0.670821161509369,0.459898915196145,0.5,0.5,0.389087381866038,0.576985975602819,0.459898915196145,0.5,0.5,0.459898915196145,0.610912618133962,0.459898915196145,0.5,0.423014024397181,0.423014024397181,0.5,0.597248615896562,0.402751384103438,0.576985975602819,0.389087381866038,0.328263648599778,0.785473145286643,-0.576985975602819,-0.0462755270765679,0.5,0.080202169607711,0.53780162694681,2.7046133437199,2.4699175219906,0.5,74.2025835627428
CBC_1021,CBC_1021_MSI_TV_v3_Vset1_Tset2_2023-07-18_16h24.41.177.csv,4,23,0,3,b,1,0,3,tac,A,9,1,0A,3A,1,0,b,2.56978069999786,1,0,1,1,0A,3A,A03,3.63758615972639,0.670821161509369,0.459898915196145,0.5,0.5,0.389087381866038,0.530710448526251,0.459898915196145,0.5,0.5,0.459898915196145,0.610912618133962,0.459898915196145,0.5,0.423014024397181,0.423014024397181,0.5,0.572949297093825,0.427050702906175,0.670821161509369,0.5,0.138291006172481,0.725860278976182,0.329178838490631,0.0264008570358949,0.5,0.080202169607711,0.53780162694681,2.7046133437199,2.4699175219906,0.5,74.2025835627428
CBC_1021,CBC_1021_MSI_TV_v3_Vset1_Tset2_2023-07-18_16h24.41.177.csv,4,24,3,2,b,1,0,2,tac,D,63,1,3D,2D,1,0,z,1.66435799999999,0,1,0,0,2D,3D,D32,2.9704144655697,0.697222018545264,0.459898915196145,0.5,0.5,0.389087381866038,0.530710448526251,0.459898915196145,0.5,0.5,0.459898915196145,0.610912618133962,0.459898915196145,0.5,0.423014024397181,0.423014024397181,0.5,0.458296421523444,0.541703578476556,0.423014024397181,0.5,0.152057780738368,0.364484749874804,-0.423014024397181,-0.0339266425311431,0.5,0.080202169607711,0.53780162694681,2.7046133437199,2.4699175219906,0.5,74.2025835627428
CBC_1021,CBC_1021_MSI_TV_v3_Vset1_Tset2_2023-07-18_16h24.41.177.csv,4,25,3,1,z,0,1,1,tac,B,27,1,3B,1B,0,1,b,1.48209199999837,1,0,0,0,3B,1B,B31,3.68887945411394,0.697222018545264,0.459898915196145,0.5,0.5,0.389087381866038,0.530710448526251,0.459898915196145,0.5,0.5,0.459898915196145,0.610912618133962,0.459898915196145,0.5,0.423014024397181,0.389087381866038,0.5,0.485102291060422,0.514897708939578,0.5,0.530710448526251,0.21554990284126,0.451428239350012,-0.5,-0.0401010848038555,0.5,0.080202169607711,0.53780162694681,2.7046133437199,2.4699175219906,0.5,74.2025835627428
CBC_1021,CBC_1021_MSI_TV_v3_Vset1_Tset2_2023-07-18_16h24.41.177.csv,4,26,3,2,z,0,1,0,tac,C,63,1,3C,2C,0,1,b,1.00899009999739,1,0,0,0,3C,2C,C32,3.71357206670431,0.697222018545264,0.459898915196145,0.5,0.5,0.389087381866038,0.530710448526251,0.459898915196145,0.459898915196145,0.5,0.459898915196145,0.610912618133962,0.459898915196145,0.5,0.423014024397181,0.389087381866038,0.5,0.429486329649354,0.570513670350646,0.459898915196145,0.610912618133962,0.182044232180685,0.280251705091893,-0.459898915196145,-0.0368848907989635,0.5,0.080202169607711,0.53780162694681,2.7046133437199,2.4699175219906,0.5,74.2025835627428
CBC_1021,CBC_1021_MSI_TV_v3_Vset1_Tset2_2023-07-18_16h24.41.177.csv,4,27,0,2,z,0,1,0,tac,C,27,1,0C,2C,0,1,z,1.01136679999763,0,1,1,1,2C,0C,C02,3.04452243772342,0.697222018545264,0.459898915196145,0.5,0.5,0.389087381866038,0.530710448526251,0.459898915196145,0.459898915196145,0.5,0.459898915196145,0.610912618133962,0.423014024397181,0.5,0.423014024397181,0.389087381866038,0.5,0.549919595980585,0.450080404019415,0.610912618133962,0.5,0.414435671237214,0.66077963598014,0.389087381866038,0.0312056521926402,0.5,0.080202169607711,0.53780162694681,2.7046133437199,2.4699175219906,0.5,74.2025835627428
CBC_1021,CBC_1021_MSI_TV_v3_Vset1_Tset2_2023-07-18_16h24.41.177.csv,4,28,1,0,b,1,0,1,tac,B,63,1,1B,0B,1,0,b,2.06040539999776,1,0,1,1,1B,0B,B10,2.66258782702545,0.697222018545264,0.459898915196145,0.5,0.5,0.389087381866038,0.530710448526251,0.459898915196145,0.459898915196145,0.5,0.459898915196145,0.642118270326602,0.423014024397181,0.5,0.423014024397181,0.389087381866038,0.5,0.576985975602819,0.423014024397181,0.530710448526251,0.389087381866038,0.220255356792501,0.73682468224979,0.469289551473749,0.0376380402024242,0.5,0.080202169607711,0.53780162694681,2.7046133437199,2.4699175219906,0.5,74.2025835627428
CBC_1021,CBC_1021_MSI_TV_v3_Vset1_Tset2_2023-07-18_16h24.41.177.csv,4,29,3,2,z,0,1,0,tac,C,63,1,3C,2C,0,1,z,1.41445519999797,0,1,1,1,2C,3C,C32,3.09104245335832,0.697222018545264,0.459898915196145,0.5,0.5,0.389087381866038,0.568348488728675,0.459898915196145,0.459898915196145,0.5,0.459898915196145,0.642118270326602,0.423014024397181,0.5,0.423014024397181,0.389087381866038,0.5,0.602853066710479,0.397146933289521,0.642118270326602,0.423014024397181,0.43521831989638,0.797963854696297,0.357881729673398,0.0287028911827668,0.5,0.080202169607711,0.53780162694681,2.7046133437199,2.4699175219906,0.5,74.2025835627428
CBC_1021,CBC_1021_MSI_TV_v3_Vset1_Tset2_2023-07-18_16h24.41.177.csv,4,30,0,1,b,1,0,3,tac,A,63,1,0A,1A,1,0,b,2.43777779999982,1,0,1,1,0A,1A,A01,2.70805020110221,0.697222018545264,0.459898915196145,0.5,0.5,0.389087381866038,0.568348488728675,0.459898915196145,0.459898915196145,0.5,0.459898915196145,0.670821161509369,0.423014024397181,0.5,0.423014024397181,0.389087381866038,0.5,0.60254896287364,0.39745103712636,0.697222018545264,0.459898915196145,0.164004659098013,0.797371110760343,0.302777981454736,0.0242834510221131,0.5,0.080202169607711,0.53780162694681,2.7046133437199,2.4699175219906,0.5,74.2025835627428
CBC_1021,CBC_1021_MSI_TV_v3_Vset1_Tset2_2023-07-18_16h24.41.177.csv,4,31,3,2,b,1,0,2,tac,D,63,1,3D,2D,1,0,z,1.68140869999843,0,1,0,0,2D,3D,D32,2.73002910782099,0.721505469567377,0.459898915196145,0.5,0.5,0.389087381866038,0.568348488728675,0.459898915196145,0.459898915196145,0.5,0.459898915196145,0.670821161509369,0.423014024397181,0.5,0.423014024397181,0.389087381866038,0.5,0.437625580794333,0.562374419205667,0.389087381866038,0.5,0.125614287860378,0.302226213312908,-0.389087381866038,-0.0312056521926402,0.5,0.080202169607711,0.53780162694681,2.7046133437199,2.4699175219906,0.5,74.2025835627428
CBC_1021,CBC_1021_MSI_TV_v3_Vset1_Tset2_2023-07-18_16h24.41.177.csv,4,32,3,2,z,0,1,0,tac,C,63,1,3C,2C,0,1,z,1.33510279999791,0,1,1,1,2C,3C,C32,2.75153531304195,0.721505469567377,0.459898915196145,0.5,0.5,0.389087381866038,0.568348488728675,0.459898915196145,0.459898915196145,0.5,0.459898915196145,0.670821161509369,0.423014024397181,0.5,0.423014024397181,0.357881729673398,0.5,0.613274440384184,0.386725559615816,0.670821161509369,0.423014024397181,0.487532033380481,0.819830285268411,0.329178838490631,0.0264008570358949,0.5,0.080202169607711,0.53780162694681,2.7046133437199,2.4699175219906,0.5,74.2025835627428
CBC_1021,CBC_1021_MSI_TV_v3_Vset1_Tset2_2023-07-18_16h24.41.177.csv,4,33,1,3,z,0,1,2,tac,D,27,1,1D,3D,0,1,b,2.18766239999968,1,0,0,0,1D,3D,D13,3.17805383034795,0.721505469567377,0.459898915196145,0.5,0.5,0.389087381866038,0.568348488728675,0.459898915196145,0.459898915196145,0.5,0.459898915196145,0.697222018545264,0.423014024397181,0.5,0.423014024397181,0.357881729673398,0.5,0.458296421523444,0.541703578476556,0.423014024397181,0.5,0.0985595433929401,0.364836983417551,-0.423014024397181,-0.0339266425311431,0.5,0.080202169607711,0.53780162694681,2.7046133437199,2.4699175219906,0.5,74.2025835627428
CBC_1021,CBC_1021_MSI_TV_v3_Vset1_Tset2_2023-07-18_16h24.41.177.csv,4,34,2,0,b,1,0,0,tac,C,27,1,2C,0C,1,0,z,1.64771689999907,0,1,0,0,0C,2C,C20,3.89182029811063,0.721505469567377,0.459898915196145,0.5,0.5,0.389087381866038,0.568348488728675,0.459898915196145,0.459898915196145,0.5,0.459898915196145,0.697222018545264,0.423014024397181,0.5,0.389087381866038,0.357881729673398,0.5,0.417633481722585,0.582366518277415,0.5,0.697222018545264,0.108097820472739,0.249500892793237,-0.5,-0.0401010848038555,0.5,0.080202169607711,0.53780162694681,2.7046133437199,2.4699175219906,0.5,74.2025835627428
CBC_1021,CBC_1021_MSI_TV_v3_Vset1_Tset2_2023-07-18_16h24.41.177.csv,4,35,3,2,b,1,0,2,tac,D,63,0,3D,2D,0,1,b,0.681064499998683,1,0,1,0,3D,2D,D32,2.52572864430826,0.721505469567377,0.459898915196145,0.5,0.5,0.389087381866038,0.568348488728675,0.459898915196145,0.459898915196145,0.459898915196145,0.459898915196145,0.697222018545264,0.423014024397181,0.5,0.389087381866038,0.357881729673398,0.5,0.582830922614885,0.417169077385115,0.5,0.357881729673398,0.07584854460418,0.750771288382033,-0.5,-0.0401010848038555,0.5,0.080202169607711,0.53780162694681,2.7046133437199,2.4699175219906,0.5,74.2025835627428
CBC_1021,CBC_1021_MSI_TV_v3_Vset1_Tset2_2023-07-18_16h24.41.177.csv,4,36,0,1,b,1,0,3,tac,A,63,1,0A,1A,1,0,b,1.86334619999798,1,0,1,1,0A,1A,A01,2.54553127160444,0.721505469567377,0.459898915196145,0.5,0.5,0.389087381866038,0.568348488728675,0.459898915196145,0.459898915196145,0.459898915196145,0.459898915196145,0.697222018545264,0.423014024397181,0.5,0.389087381866038,0.357881729673398,0.459898915196145,0.610718462596361,0.389281537403639,0.721505469567377,0.459898915196145,0.290750609914356,0.813848132835873,0.278494530432623,0.0223358655645771,0.5,0.080202169607711,0.53780162694681,2.7046133437199,2.4699175219906,0.5,74.2025835627428
CBC_1021,CBC_1021_MSI_TV_v3_Vset1_Tset2_2023-07-18_16h24.41.177.csv,4,37,3,2,z,0,1,0,tac,C,63,1,3C,2C,0,1,b,2.02229059999809,1,0,0,0,3C,2C,C32,2.56494935746154,0.743841335131954,0.459898915196145,0.5,0.5,0.389087381866038,0.568348488728675,0.459898915196145,0.459898915196145,0.459898915196145,0.459898915196145,0.697222018545264,0.423014024397181,0.5,0.389087381866038,0.357881729673398,0.459898915196145,0.377611510593857,0.622388489406143,0.423014024397181,0.697222018545264,0.0492336797537176,0.162576725020328,-0.423014024397181,-0.0339266425311431,0.5,0.080202169607711,0.53780162694681,2.7046133437199,2.4699175219906,0.5,74.2025835627428
CBC_1021,CBC_1021_MSI_TV_v3_Vset1_Tset2_2023-07-18_16h24.41.177.csv,4,38,2,0,z,0,1,3,tac,A,27,1,2A,0A,0,1,z,1.40693569999712,0,1,1,1,0A,2A,A20,2.87167962488401,0.743841335131954,0.459898915196145,0.5,0.5,0.389087381866038,0.568348488728675,0.459898915196145,0.459898915196145,0.459898915196145,0.459898915196145,0.697222018545264,0.389087381866038,0.5,0.389087381866038,0.357881729673398,0.459898915196145,0.598019469302363,0.401980530697637,0.743841335131954,0.5,0.429863077979018,0.787801485367364,0.256158664868046,0.0205444806862318,0.5,0.080202169607711,0.53780162694681,2.7046133437199,2.4699175219906,0.5,74.2025835627428
CBC_1021,CBC_1021_MSI_TV_v3_Vset1_Tset2_2023-07-18_16h24.41.177.csv,4,39,3,2,b,1,0,2,tac,D,63,1,3D,2D,1,0,b,2.02566309999929,1,0,1,1,3D,2D,D32,2.37954613413017,0.764385815818186,0.459898915196145,0.5,0.5,0.389087381866038,0.568348488728675,0.459898915196145,0.459898915196145,0.459898915196145,0.459898915196145,0.697222018545264,0.389087381866038,0.5,0.389087381866038,0.357881729673398,0.459898915196145,0.562374419205667,0.437625580794333,0.459898915196145,0.357881729673398,0.215350930307016,0.697007867955028,0.540101084803855,0.0433172788087475,0.5,0.080202169607711,0.53780162694681,2.7046133437199,2.4699175219906,0.5,74.2025835627428
