ID,filename,session,trial,visStimLeft,visStimRight,correctKey,leftCorrect,rightCorrect,secondStim,mod2Type,mod2Stim,frequency,rewardAccurate,stimPairLeft,stimPairRight,pCorrectLeft,pCorrectRight,key,reactionTime,choiceLeft,choiceRight,choiceAccurate,reward,chosenPair,otherPair,triplet,surprise,0A belief,1A belief,2A belief,3A belief,0B belief,1B belief,2B belief,3B belief,0C belief,1C belief,2C belief,3C belief,0D belief,1D belief,2D belief,3D belief,beliefPairNorm,beliefOtherPairNorm,beliefPair,beliefOtherPair,lik,corrLik,rewardPE,update2,fitCBCsimpleRW_CBCdriftDiffusionLR_pwBelief_startBelief,fitCBCsimpleRW_CBCdriftDiffusionLR_pwBelief_alpha1,fitCBCsimpleRW_CBCdriftDiffusionLR_pwBelief_nonDecisionTime,fitCBCsimpleRW_CBCdriftDiffusionLR_pwBelief_weight,fitCBCsimpleRW_CBCdriftDiffusionLR_pwBelief_startingBoundary,fitCBCsimpleRW_CBCdriftDiffusionLR_pwBelief_startingPoint,fit_CBCsimpleRW_CBCdriftDiffusionLR_pwBelief_NLL
CBC_1021,CBC_1021_MSI_AV_v3_Vset5_Aset2_2023-07-18_14h40.56.369.csv,1,1,1,0,b,1,0,1,aud,B,63,1,1B,0B,1,0,z,1.42295110000032,0,1,0,0,0B,1B,B10,2.77258872223978,0.5,0.5,0.5,0.5,0.5,0.5,0.5,0.5,0.5,0.5,0.5,0.5,0.5,0.5,0.5,0.5,0.5,0.5,0.5,0.5,0.349306314239967,0.4998493047237,-0.5,-0.00255709479861416,0.5,0.00511418959722831,1.09860194557034,0.0111907833451674,2.24084159207103,0.5,71.0095373716087
CBC_1021,CBC_1021_MSI_AV_v3_Vset5_Aset2_2023-07-18_14h40.56.369.csv,1,2,3,2,b,1,0,2,aud,D,63,1,3D,2D,1,0,b,2.17930770000021,1,0,1,1,3D,2D,D32,2.83321334405622,0.5,0.5,0.5,0.5,0.497442905201386,0.5,0.5,0.5,0.5,0.5,0.5,0.5,0.5,0.5,0.5,0.5,0.5,0.5,0.5,0.5,0.216114304750816,0.499856157357868,0.5,0.00255709479861416,0.5,0.00511418959722831,1.09860194557034,0.0111907833451674,2.24084159207103,0.5,71.0095373716087
CBC_1021,CBC_1021_MSI_AV_v3_Vset5_Aset2_2023-07-18_14h40.56.369.csv,1,3,3,1,z,0,1,1,aud,B,27,1,3B,1B,0,1,b,2.59338100000059,1,0,0,0,3B,1B,B31,2.89037175789616,0.5,0.5,0.5,0.5,0.497442905201386,0.5,0.5,0.5,0.5,0.5,0.5,0.5,0.5,0.5,0.5,0.502557094798614,0.5,0.5,0.5,0.5,0.144061098969382,0.500244029868231,-0.5,-0.00255709479861416,0.5,0.00511418959722831,1.09860194557034,0.0111907833451674,2.24084159207103,0.5,71.0095373716087
CBC_1021,CBC_1021_MSI_AV_v3_Vset5_Aset2_2023-07-18_14h40.56.369.csv,1,4,2,3,b,1,0,0,aud,C,63,1,2C,3C,1,0,b,2.73539000000073,1,0,1,1,2C,3C,C23,2.94443897916644,0.5,0.5,0.5,0.5,0.497442905201386,0.5,0.5,0.497442905201386,0.5,0.5,0.5,0.5,0.5,0.5,0.5,0.502557094798614,0.5,0.5,0.5,0.5,0.12501581352828,0.49911877105028,0.5,0.00255709479861416,0.5,0.00511418959722831,1.09860194557034,0.0111907833451674,2.24084159207103,0.5,71.0095373716087
CBC_1021,CBC_1021_MSI_AV_v3_Vset5_Aset2_2023-07-18_14h40.56.369.csv,1,5,0,2,z,0,1,0,aud,C,27,1,0C,2C,0,1,b,2.24544119999973,1,0,0,0,0C,2C,C02,2.99573227355399,0.5,0.5,0.5,0.5,0.497442905201386,0.5,0.5,0.497442905201386,0.5,0.5,0.502557094798614,0.5,0.5,0.5,0.5,0.502557094798614,0.497442905201386,0.502557094798614,0.5,0.502557094798614,0.202689329054499,0.500162089441936,-0.5,-0.00255709479861416,0.5,0.00511418959722831,1.09860194557034,0.0111907833451674,2.24084159207103,0.5,71.0095373716087
CBC_1021,CBC_1021_MSI_AV_v3_Vset5_Aset2_2023-07-18_14h40.56.369.csv,1,6,0,3,b,1,0,3,aud,A,9,1,0A,3A,1,0,b,1.80272259999947,1,0,1,1,0A,3A,A03,3.04452243772342,0.5,0.5,0.5,0.5,0.497442905201386,0.5,0.5,0.497442905201386,0.497442905201386,0.5,0.502557094798614,0.5,0.5,0.5,0.5,0.502557094798614,0.5,0.5,0.5,0.5,0.309723240458175,0.500388721119401,0.5,0.00255709479861416,0.5,0.00511418959722831,1.09860194557034,0.0111907833451674,2.24084159207103,0.5,71.0095373716087
CBC_1021,CBC_1021_MSI_AV_v3_Vset5_Aset2_2023-07-18_14h40.56.369.csv,1,7,2,3,b,1,0,0,aud,C,63,1,2C,3C,1,0,b,2.42227840000032,1,0,1,1,2C,3C,C23,2.39789527279837,0.502557094798614,0.5,0.5,0.5,0.497442905201386,0.5,0.5,0.497442905201386,0.497442905201386,0.5,0.502557094798614,0.5,0.5,0.5,0.5,0.502557094798614,0.502557094798614,0.497442905201386,0.502557094798614,0.5,0.170269552206235,0.499773791053675,0.497442905201386,0.00254401733099596,0.5,0.00511418959722831,1.09860194557034,0.0111907833451674,2.24084159207103,0.5,71.0095373716087
CBC_1021,CBC_1021_MSI_AV_v3_Vset5_Aset2_2023-07-18_14h40.56.369.csv,1,8,1,0,z,0,1,3,aud,A,63,1,1A,0A,0,1,z,2.40222129999984,0,1,1,1,0A,1A,A10,3.13549421592915,0.502557094798614,0.5,0.5,0.5,0.497442905201386,0.5,0.5,0.497442905201386,0.497442905201386,0.5,0.50510111212961,0.5,0.5,0.5,0.5,0.502557094798614,0.502557094798614,0.497442905201386,0.502557094798614,0.5,0.173870274455247,0.500389326692223,0.497442905201386,0.00254401733099596,0.5,0.00511418959722831,1.09860194557034,0.0111907833451674,2.24084159207103,0.5,71.0095373716087
CBC_1021,CBC_1021_MSI_AV_v3_Vset5_Aset2_2023-07-18_14h40.56.369.csv,1,9,2,3,z,0,1,2,aud,D,63,1,2D,3D,0,1,z,1.80321879999974,0,1,1,1,3D,2D,D23,3.17805383034795,0.50510111212961,0.5,0.5,0.5,0.497442905201386,0.5,0.5,0.497442905201386,0.497442905201386,0.5,0.50510111212961,0.5,0.5,0.5,0.5,0.502557094798614,0.502557094798614,0.497442905201386,0.502557094798614,0.5,0.309528004752178,0.500293929703249,0.497442905201386,0.00254401733099596,0.5,0.00511418959722831,1.09860194557034,0.0111907833451674,2.24084159207103,0.5,71.0095373716087
CBC_1021,CBC_1021_MSI_AV_v3_Vset5_Aset2_2023-07-18_14h40.56.369.csv,1,10,3,2,z,0,1,0,aud,C,63,1,3C,2C,0,1,z,3.14846630000011,0,1,1,1,2C,3C,C32,3.2188758248682,0.50510111212961,0.5,0.5,0.5,0.497442905201386,0.5,0.5,0.497442905201386,0.497442905201386,0.5,0.50510111212961,0.5,0.5,0.5,0.5,0.50510111212961,0.50510111212961,0.49489888787039,0.50510111212961,0.5,0.0834748636213484,0.50014414800367,0.49489888787039,0.00253100674402661,0.5,0.00511418959722831,1.09860194557034,0.0111907833451674,2.24084159207103,0.5,71.0095373716087
CBC_1021,CBC_1021_MSI_AV_v3_Vset5_Aset2_2023-07-18_14h40.56.369.csv,1,11,3,1,b,1,0,2,aud,D,27,1,3D,1D,1,0,z,1.8488083000002,0,1,0,0,1D,3D,D31,3.25809653802148,0.50510111212961,0.5,0.5,0.5,0.497442905201386,0.5,0.5,0.497442905201386,0.497442905201386,0.5,0.507632118873637,0.5,0.5,0.5,0.5,0.50510111212961,0.49489888787039,0.50510111212961,0.5,0.50510111212961,0.297066620002888,0.500357213028736,-0.5,-0.00255709479861416,0.5,0.00511418959722831,1.09860194557034,0.0111907833451674,2.24084159207103,0.5,71.0095373716087
CBC_1021,CBC_1021_MSI_AV_v3_Vset5_Aset2_2023-07-18_14h40.56.369.csv,1,12,0,1,b,1,0,3,aud,A,63,0,0A,1A,0,1,b,3.17852820000007,1,0,1,0,0A,1A,A01,3.29583686600433,0.50510111212961,0.5,0.5,0.5,0.497442905201386,0.5,0.5,0.497442905201386,0.497442905201386,0.5,0.507632118873637,0.5,0.5,0.497442905201386,0.5,0.50510111212961,0.50510111212961,0.49489888787039,0.50510111212961,0.5,0.0810171611637031,0.49997362200506,-0.50510111212961,-0.0025831828532017,0.5,0.00511418959722831,1.09860194557034,0.0111907833451674,2.24084159207103,0.5,71.0095373716087
CBC_1021,CBC_1021_MSI_AV_v3_Vset5_Aset2_2023-07-18_14h40.56.369.csv,1,13,3,2,z,0,1,0,aud,C,63,1,3C,2C,0,1,z,2.39386380000087,0,1,1,1,2C,3C,C32,2.63905732961526,0.502517929276408,0.5,0.5,0.5,0.497442905201386,0.5,0.5,0.497442905201386,0.497442905201386,0.5,0.507632118873637,0.5,0.5,0.497442905201386,0.5,0.50510111212961,0.507632118873637,0.492367881126363,0.507632118873637,0.5,0.175398474364151,0.500661973355092,0.492367881126363,0.00251806269566579,0.5,0.00511418959722831,1.09860194557034,0.0111907833451674,2.24084159207103,0.5,71.0095373716087
CBC_1021,CBC_1021_MSI_AV_v3_Vset5_Aset2_2023-07-18_14h40.56.369.csv,1,14,2,0,z,0,1,3,aud,A,27,1,2A,0A,0,1,z,2.48623700000007,0,1,1,1,0A,2A,A20,3.36729582998647,0.502517929276408,0.5,0.5,0.5,0.497442905201386,0.5,0.5,0.497442905201386,0.497442905201386,0.5,0.510150181569303,0.5,0.5,0.497442905201386,0.5,0.50510111212961,0.502517929276408,0.497482070723592,0.502517929276408,0.5,0.160007096843556,0.500101497998622,0.497482070723592,0.00254421763090219,0.5,0.00511418959722831,1.09860194557034,0.0111907833451674,2.24084159207103,0.5,71.0095373716087
CBC_1021,CBC_1021_MSI_AV_v3_Vset5_Aset2_2023-07-18_14h40.56.369.csv,1,15,1,0,b,1,0,1,aud,B,63,1,1B,0B,1,0,b,2.03808670000035,1,0,1,1,1B,0B,B10,2.70805020110221,0.505062146907311,0.5,0.5,0.5,0.497442905201386,0.5,0.5,0.497442905201386,0.497442905201386,0.5,0.510150181569303,0.5,0.5,0.497442905201386,0.5,0.50510111212961,0.502557094798614,0.497442905201386,0.5,0.497442905201386,0.248175564477308,0.500251548231847,0.5,0.00255709479861416,0.5,0.00511418959722831,1.09860194557034,0.0111907833451674,2.24084159207103,0.5,71.0095373716087
CBC_1021,CBC_1021_MSI_AV_v3_Vset5_Aset2_2023-07-18_14h40.56.369.csv,1,16,2,3,z,0,1,2,aud,D,63,1,2D,3D,0,1,b,1.85702740000033,1,0,0,0,2D,3D,D23,2.7408400239252,0.505062146907311,0.5,0.5,0.5,0.497442905201386,0.502557094798614,0.5,0.497442905201386,0.497442905201386,0.5,0.510150181569303,0.5,0.5,0.497442905201386,0.5,0.50510111212961,0.49489888787039,0.50510111212961,0.5,0.50510111212961,0.294886184449795,0.500452819543097,-0.5,-0.00255709479861416,0.5,0.00511418959722831,1.09860194557034,0.0111907833451674,2.24084159207103,0.5,71.0095373716087
CBC_1021,CBC_1021_MSI_AV_v3_Vset5_Aset2_2023-07-18_14h40.56.369.csv,1,17,2,1,z,0,1,1,aud,B,9,1,2B,1B,0,1,z,1.33143870000094,0,1,1,1,1B,2B,B21,3.46573590279973,0.505062146907311,0.5,0.5,0.5,0.497442905201386,0.502557094798614,0.5,0.497442905201386,0.497442905201386,0.5,0.510150181569303,0.5,0.5,0.497442905201386,0.497442905201386,0.50510111212961,0.502557094798614,0.497442905201386,0.502557094798614,0.5,0.268593784314979,0.500154918252882,0.497442905201386,0.00254401733099596,0.5,0.00511418959722831,1.09860194557034,0.0111907833451674,2.24084159207103,0.5,71.0095373716087
CBC_1021,CBC_1021_MSI_AV_v3_Vset5_Aset2_2023-07-18_14h40.56.369.csv,1,18,3,1,b,1,0,2,aud,D,27,1,3D,1D,1,0,z,1.42104860000018,0,1,0,0,1D,3D,D31,2.80336038090653,0.505062146907311,0.5,0.5,0.5,0.497442905201386,0.50510111212961,0.5,0.497442905201386,0.497442905201386,0.5,0.510150181569303,0.5,0.5,0.497442905201386,0.497442905201386,0.50510111212961,0.492342192626369,0.507657807373631,0.497442905201386,0.50510111212961,0.34783438155294,0.499034930391722,-0.497442905201386,-0.00254401733099596,0.5,0.00511418959722831,1.09860194557034,0.0111907833451674,2.24084159207103,0.5,71.0095373716087
CBC_1021,CBC_1021_MSI_AV_v3_Vset5_Aset2_2023-07-18_14h40.56.369.csv,1,19,1,0,z,0,1,3,aud,A,63,1,1A,0A,0,1,b,3.08979240000008,1,0,0,0,1A,0A,A10,2.83321334405622,0.505062146907311,0.5,0.5,0.5,0.497442905201386,0.50510111212961,0.5,0.497442905201386,0.497442905201386,0.5,0.510150181569303,0.5,0.5,0.49489888787039,0.497442905201386,0.50510111212961,0.494937853092689,0.505062146907311,0.5,0.505062146907311,0.0885117270783408,0.500608360553804,-0.5,-0.00255709479861416,0.5,0.00511418959722831,1.09860194557034,0.0111907833451674,2.24084159207103,0.5,71.0095373716087
CBC_1021,CBC_1021_MSI_AV_v3_Vset5_Aset2_2023-07-18_14h40.56.369.csv,1,20,0,1,b,1,0,3,aud,A,63,1,0A,1A,1,0,z,2.6108318000006,0,1,0,0,1A,0A,A01,2.86220088092947,0.505062146907311,0.497442905201386,0.5,0.5,0.497442905201386,0.50510111212961,0.5,0.497442905201386,0.497442905201386,0.5,0.510150181569303,0.5,0.5,0.49489888787039,0.497442905201386,0.50510111212961,0.49238115277938,0.50761884722062,0.497442905201386,0.505062146907311,0.141610939322631,0.500240450651937,-0.497442905201386,-0.00254401733099596,0.5,0.00511418959722831,1.09860194557034,0.0111907833451674,2.24084159207103,0.5,71.0095373716087
CBC_1021,CBC_1021_MSI_AV_v3_Vset5_Aset2_2023-07-18_14h40.56.369.csv,1,21,0,2,z,0,1,0,aud,C,27,1,0C,2C,0,1,b,2.5038155000002,1,0,0,0,0C,2C,C02,2.89037175789616,0.505062146907311,0.49489888787039,0.5,0.5,0.497442905201386,0.50510111212961,0.5,0.497442905201386,0.497442905201386,0.5,0.510150181569303,0.5,0.5,0.49489888787039,0.497442905201386,0.50510111212961,0.487294042763369,0.512705957236631,0.497442905201386,0.510150181569303,0.156954610276553,0.49910580944215,-0.497442905201386,-0.00254401733099596,0.5,0.00511418959722831,1.09860194557034,0.0111907833451674,2.24084159207103,0.5,71.0095373716087
CBC_1021,CBC_1021_MSI_AV_v3_Vset5_Aset2_2023-07-18_14h40.56.369.csv,1,22,1,0,b,1,0,1,aud,B,63,1,1B,0B,1,0,b,3.24299620000056,1,0,1,1,1B,0B,B10,2.51230562397611,0.505062146907311,0.49489888787039,0.5,0.5,0.497442905201386,0.50510111212961,0.5,0.497442905201386,0.49489888787039,0.5,0.510150181569303,0.5,0.5,0.49489888787039,0.497442905201386,0.50510111212961,0.507657807373631,0.492342192626369,0.50510111212961,0.497442905201386,0.0759478540563035,0.499345576627882,0.49489888787039,0.00253100674402661,0.5,0.00511418959722831,1.09860194557034,0.0111907833451674,2.24084159207103,0.5,71.0095373716087
CBC_1021,CBC_1021_MSI_AV_v3_Vset5_Aset2_2023-07-18_14h40.56.369.csv,1,23,0,2,z,0,1,0,aud,C,27,1,0C,2C,0,1,z,2.14239890000044,0,1,1,1,2C,0C,C02,2.53897387105828,0.505062146907311,0.49489888787039,0.5,0.5,0.497442905201386,0.507632118873637,0.5,0.497442905201386,0.49489888787039,0.5,0.510150181569303,0.5,0.5,0.49489888787039,0.497442905201386,0.50510111212961,0.515248135674957,0.484751864325043,0.510150181569303,0.49489888787039,0.224215903648034,0.500224106296117,0.489849818430697,0.00250518484562245,0.5,0.00511418959722831,1.09860194557034,0.0111907833451674,2.24084159207103,0.5,71.0095373716087
CBC_1021,CBC_1021_MSI_AV_v3_Vset5_Aset2_2023-07-18_14h40.56.369.csv,1,24,2,3,z,0,1,2,aud,D,63,1,2D,3D,0,1,z,2.27122270000018,0,1,1,1,3D,2D,D23,2.56494935746154,0.505062146907311,0.49489888787039,0.5,0.5,0.497442905201386,0.507632118873637,0.5,0.497442905201386,0.49489888787039,0.5,0.512655366414925,0.5,0.5,0.49489888787039,0.497442905201386,0.50510111212961,0.507657807373631,0.492342192626369,0.50510111212961,0.497442905201386,0.197585213817523,0.500044935016843,0.49489888787039,0.00253100674402661,0.5,0.00511418959722831,1.09860194557034,0.0111907833451674,2.24084159207103,0.5,71.0095373716087
CBC_1021,CBC_1021_MSI_AV_v3_Vset5_Aset2_2023-07-18_14h40.56.369.csv,1,25,0,1,b,1,0,3,aud,A,63,1,0A,1A,1,0,z,1.65210600000046,0,1,0,0,1A,0A,A01,2.59026716544583,0.505062146907311,0.49489888787039,0.5,0.5,0.497442905201386,0.507632118873637,0.5,0.497442905201386,0.49489888787039,0.5,0.512655366414925,0.5,0.5,0.49489888787039,0.497442905201386,0.507632118873637,0.489837790620897,0.510162209379103,0.49489888787039,0.505062146907311,0.349854714377914,0.501054571972338,-0.49489888787039,-0.00253100674402661,0.5,0.00511418959722831,1.09860194557034,0.0111907833451674,2.24084159207103,0.5,71.0095373716087
CBC_1021,CBC_1021_MSI_AV_v3_Vset5_Aset2_2023-07-18_14h40.56.369.csv,1,26,2,3,b,1,0,0,aud,C,63,1,2C,3C,1,0,b,2.57708559999992,1,0,1,1,2C,3C,C23,2.6149597780362,0.505062146907311,0.492367881126363,0.5,0.5,0.497442905201386,0.507632118873637,0.5,0.497442905201386,0.49489888787039,0.5,0.512655366414925,0.5,0.5,0.49489888787039,0.497442905201386,0.507632118873637,0.512655366414925,0.487344633585075,0.512655366414925,0.5,0.146258090864149,0.499806033889953,0.487344633585075,0.00249237285534583,0.5,0.00511418959722831,1.09860194557034,0.0111907833451674,2.24084159207103,0.5,71.0095373716087
CBC_1021,CBC_1021_MSI_AV_v3_Vset5_Aset2_2023-07-18_14h40.56.369.csv,1,27,0,2,b,1,0,3,aud,A,27,1,0A,2A,1,0,z,1.77171080000062,0,1,0,0,2A,0A,A02,3.73766961828337,0.505062146907311,0.492367881126363,0.5,0.5,0.497442905201386,0.507632118873637,0.5,0.497442905201386,0.49489888787039,0.5,0.515147739270271,0.5,0.5,0.49489888787039,0.497442905201386,0.507632118873637,0.494937853092689,0.505062146907311,0.5,0.505062146907311,0.318588248669202,0.500915812408758,-0.5,-0.00255709479861416,0.5,0.00511418959722831,1.09860194557034,0.0111907833451674,2.24084159207103,0.5,71.0095373716087
CBC_1021,CBC_1021_MSI_AV_v3_Vset5_Aset2_2023-07-18_14h40.56.369.csv,1,28,2,3,z,0,1,2,aud,D,63,1,2D,3D,0,1,z,1.80649449999964,0,1,1,1,3D,2D,D23,2.37490575457367,0.505062146907311,0.492367881126363,0.497442905201386,0.5,0.497442905201386,0.507632118873637,0.5,0.497442905201386,0.49489888787039,0.5,0.515147739270271,0.5,0.5,0.49489888787039,0.497442905201386,0.507632118873637,0.510188418321465,0.489811581678535,0.507632118873637,0.497442905201386,0.308689433852219,0.500395611967067,0.492367881126363,0.00251806269566579,0.5,0.00511418959722831,1.09860194557034,0.0111907833451674,2.24084159207103,0.5,71.0095373716087
CBC_1021,CBC_1021_MSI_AV_v3_Vset5_Aset2_2023-07-18_14h40.56.369.csv,1,29,2,3,z,0,1,2,aud,D,63,1,2D,3D,0,1,b,2.07341970000016,1,0,0,0,2D,3D,D23,2.17475172148416,0.505062146907311,0.492367881126363,0.497442905201386,0.5,0.497442905201386,0.507632118873637,0.5,0.497442905201386,0.49489888787039,0.5,0.515147739270271,0.5,0.5,0.49489888787039,0.497442905201386,0.510150181569303,0.487294042763369,0.512705957236631,0.497442905201386,0.510150181569303,0.239338382059206,0.499259015381875,-0.497442905201386,-0.00254401733099596,0.5,0.00511418959722831,1.09860194557034,0.0111907833451674,2.24084159207103,0.5,71.0095373716087
CBC_1021,CBC_1021_MSI_AV_v3_Vset5_Aset2_2023-07-18_14h40.56.369.csv,1,30,1,3,b,1,0,1,aud,B,27,1,1B,3B,1,0,z,2.46345769999971,0,1,0,0,3B,1B,B13,3.80666248977032,0.505062146907311,0.492367881126363,0.497442905201386,0.5,0.497442905201386,0.507632118873637,0.5,0.497442905201386,0.49489888787039,0.5,0.515147739270271,0.5,0.5,0.49489888787039,0.49489888787039,0.510150181569303,0.489811581678535,0.510188418321465,0.497442905201386,0.507632118873637,0.163449283784486,0.499556078639993,-0.497442905201386,-0.00254401733099596,0.5,0.00511418959722831,1.09860194557034,0.0111907833451674,2.24084159207103,0.5,71.0095373716087
CBC_1021,CBC_1021_MSI_AV_v3_Vset5_Aset2_2023-07-18_14h40.56.369.csv,1,31,3,0,b,1,0,2,aud,D,9,1,3D,0D,1,0,z,2.10443320000013,0,1,0,0,0D,3D,D30,3.8286413964891,0.505062146907311,0.492367881126363,0.497442905201386,0.5,0.497442905201386,0.507632118873637,0.5,0.49489888787039,0.49489888787039,0.5,0.515147739270271,0.5,0.5,0.49489888787039,0.49489888787039,0.510150181569303,0.489849818430697,0.510150181569303,0.5,0.510150181569303,0.232764858518388,0.500420793279004,-0.5,-0.00255709479861416,0.5,0.00511418959722831,1.09860194557034,0.0111907833451674,2.24084159207103,0.5,71.0095373716087
CBC_1021,CBC_1021_MSI_AV_v3_Vset5_Aset2_2023-07-18_14h40.56.369.csv,1,32,0,1,z,0,1,1,aud,B,63,1,0B,1B,0,1,b,2.05507219999981,1,0,0,0,0B,1B,B01,3.85014760171006,0.505062146907311,0.492367881126363,0.497442905201386,0.5,0.497442905201386,0.507632118873637,0.5,0.49489888787039,0.49489888787039,0.5,0.515147739270271,0.5,0.497442905201386,0.49489888787039,0.49489888787039,0.510150181569303,0.489811581678535,0.510188418321465,0.497442905201386,0.507632118873637,0.24413371230307,0.500271319796893,-0.497442905201386,-0.00254401733099596,0.5,0.00511418959722831,1.09860194557034,0.0111907833451674,2.24084159207103,0.5,71.0095373716087
CBC_1021,CBC_1021_MSI_AV_v3_Vset5_Aset2_2023-07-18_14h40.56.369.csv,1,33,0,1,b,1,0,3,aud,A,63,1,0A,1A,1,0,z,2.16982590000043,0,1,0,0,1A,0A,A01,2.484906649788,0.505062146907311,0.492367881126363,0.497442905201386,0.5,0.49489888787039,0.507632118873637,0.5,0.49489888787039,0.49489888787039,0.5,0.515147739270271,0.5,0.497442905201386,0.49489888787039,0.49489888787039,0.510150181569303,0.487307695683038,0.512692304316962,0.492367881126363,0.505062146907311,0.218099774093587,0.499793317028131,-0.492367881126363,-0.00251806269566579,0.5,0.00511418959722831,1.09860194557034,0.0111907833451674,2.24084159207103,0.5,71.0095373716087
CBC_1021,CBC_1021_MSI_AV_v3_Vset5_Aset2_2023-07-18_14h40.56.369.csv,1,34,0,1,z,0,1,1,aud,B,63,1,0B,1B,0,1,z,1.89634360000036,0,1,1,1,1B,0B,B01,3.19867311755068,0.505062146907311,0.489849818430697,0.497442905201386,0.5,0.49489888787039,0.507632118873637,0.5,0.49489888787039,0.49489888787039,0.5,0.515147739270271,0.5,0.497442905201386,0.49489888787039,0.49489888787039,0.510150181569303,0.512731248376419,0.48726875162358,0.507632118873637,0.49489888787039,0.284014431636796,0.499956684119688,0.492367881126363,0.00251806269566579,0.5,0.00511418959722831,1.09860194557034,0.0111907833451674,2.24084159207103,0.5,71.0095373716087
CBC_1021,CBC_1021_MSI_AV_v3_Vset5_Aset2_2023-07-18_14h40.56.369.csv,1,35,2,3,b,1,0,0,aud,C,63,1,2C,3C,1,0,b,2.23327640000025,1,0,1,1,2C,3C,C23,2.52572864430826,0.505062146907311,0.489849818430697,0.497442905201386,0.5,0.49489888787039,0.510150181569303,0.5,0.49489888787039,0.49489888787039,0.5,0.515147739270271,0.5,0.497442905201386,0.49489888787039,0.49489888787039,0.510150181569303,0.515147739270271,0.484852260729729,0.515147739270271,0.5,0.204991448013556,0.499849754500235,0.484852260729729,0.00247962638801661,0.5,0.00511418959722831,1.09860194557034,0.0111907833451674,2.24084159207103,0.5,71.0095373716087
CBC_1021,CBC_1021_MSI_AV_v3_Vset5_Aset2_2023-07-18_14h40.56.369.csv,1,36,2,0,z,0,1,3,aud,A,27,1,2A,0A,0,1,b,2.18658520000008,1,0,0,0,2A,0A,A20,3.23867845216438,0.505062146907311,0.489849818430697,0.497442905201386,0.5,0.49489888787039,0.510150181569303,0.5,0.49489888787039,0.49489888787039,0.5,0.517627365658287,0.5,0.497442905201386,0.49489888787039,0.49489888787039,0.510150181569303,0.49238115277938,0.50761884722062,0.497442905201386,0.505062146907311,0.214213475058405,0.498998791113058,-0.497442905201386,-0.00254401733099596,0.5,0.00511418959722831,1.09860194557034,0.0111907833451674,2.24084159207103,0.5,71.0095373716087
CBC_1021,CBC_1021_MSI_AV_v3_Vset5_Aset2_2023-07-18_14h40.56.369.csv,1,37,0,1,z,0,1,1,aud,B,63,1,0B,1B,0,1,z,3.17336950000026,0,1,1,1,1B,0B,B01,2.85263142991332,0.505062146907311,0.489849818430697,0.49489888787039,0.5,0.49489888787039,0.510150181569303,0.5,0.49489888787039,0.49489888787039,0.5,0.517627365658287,0.5,0.497442905201386,0.49489888787039,0.49489888787039,0.510150181569303,0.515248135674957,0.484751864325043,0.510150181569303,0.49489888787039,0.0815243788971534,0.500559814008855,0.489849818430697,0.00250518484562245,0.5,0.00511418959722831,1.09860194557034,0.0111907833451674,2.24084159207103,0.5,71.0095373716087
CBC_1021,CBC_1021_MSI_AV_v3_Vset5_Aset2_2023-07-18_14h40.56.369.csv,1,38,1,3,b,1,0,1,aud,B,27,1,1B,3B,1,0,z,1.59623120000106,0,1,0,0,3B,1B,B13,3.27714473299218,0.505062146907311,0.489849818430697,0.49489888787039,0.5,0.49489888787039,0.512655366414925,0.5,0.49489888787039,0.49489888787039,0.5,0.517627365658287,0.5,0.497442905201386,0.49489888787039,0.49489888787039,0.510150181569303,0.482248105452148,0.517751894547852,0.49489888787039,0.512655366414925,0.360322054834545,0.499537564993008,-0.49489888787039,-0.00253100674402661,0.5,0.00511418959722831,1.09860194557034,0.0111907833451674,2.24084159207103,0.5,71.0095373716087
CBC_1021,CBC_1021_MSI_AV_v3_Vset5_Aset2_2023-07-18_14h40.56.369.csv,1,39,2,3,b,1,0,0,aud,C,63,1,2C,3C,1,0,z,2.34502170000087,0,1,0,0,3C,2C,C23,2.37954613413017,0.505062146907311,0.489849818430697,0.49489888787039,0.5,0.49489888787039,0.512655366414925,0.5,0.492367881126363,0.49489888787039,0.5,0.517627365658287,0.5,0.497442905201386,0.49489888787039,0.49489888787039,0.510150181569303,0.482372634341713,0.517627365658287,0.5,0.517627365658287,0.183689819441043,0.499782175218833,-0.5,-0.00255709479861416,0.5,0.00511418959722831,1.09860194557034,0.0111907833451674,2.24084159207103,0.5,71.0095373716087
CBC_1021,CBC_1021_MSI_AV_v3_Vset5_Aset2_2023-07-18_14h40.56.369.csv,1,40,1,3,z,0,1,2,aud,D,27,1,1D,3D,0,1,b,1.92504270000063,1,0,0,0,1D,3D,D13,4.00733318523247,0.505062146907311,0.489849818430697,0.49489888787039,0.5,0.49489888787039,0.512655366414925,0.5,0.492367881126363,0.49489888787039,0.5,0.517627365658287,0.497442905201386,0.497442905201386,0.49489888787039,0.49489888787039,0.510150181569303,0.484751864325043,0.515248135674957,0.49489888787039,0.510150181569303,0.276433731337064,0.499956735508911,-0.49489888787039,-0.00253100674402661,0.5,0.00511418959722831,1.09860194557034,0.0111907833451674,2.24084159207103,0.5,71.0095373716087
CBC_1021,CBC_1021_MSI_AV_v3_Vset5_Aset2_2023-07-18_14h40.56.369.csv,1,41,2,1,b,1,0,0,aud,C,9,1,2C,1C,1,0,z,2.42652870000165,0,1,0,0,1C,2C,C21,4.02535169073515,0.505062146907311,0.489849818430697,0.49489888787039,0.5,0.49489888787039,0.512655366414925,0.5,0.492367881126363,0.49489888787039,0.5,0.517627365658287,0.497442905201386,0.497442905201386,0.492367881126363,0.49489888787039,0.510150181569303,0.482372634341713,0.517627365658287,0.5,0.517627365658287,0.169247721139009,0.498852486530464,-0.5,-0.00255709479861416,0.5,0.00511418959722831,1.09860194557034,0.0111907833451674,2.24084159207103,0.5,71.0095373716087
CBC_1021,CBC_1021_MSI_AV_v3_Vset5_Aset2_2023-07-18_14h40.56.369.csv,1,42,1,0,b,1,0,1,aud,B,63,0,1B,0B,0,1,b,2.59144730000116,1,0,1,0,1B,0B,B10,2.65675690671466,0.505062146907311,0.489849818430697,0.49489888787039,0.5,0.49489888787039,0.512655366414925,0.5,0.492367881126363,0.49489888787039,0.497442905201386,0.517627365658287,0.497442905201386,0.497442905201386,0.492367881126363,0.49489888787039,0.510150181569303,0.517751894547852,0.482248105452148,0.512655366414925,0.49489888787039,0.144386280670404,0.500421522038423,-0.512655366414925,-0.00262181674188248,0.5,0.00511418959722831,1.09860194557034,0.0111907833451674,2.24084159207103,0.5,71.0095373716087
CBC_1021,CBC_1021_MSI_AV_v3_Vset5_Aset2_2023-07-18_14h40.56.369.csv,1,43,2,3,z,0,1,2,aud,D,63,1,2D,3D,0,1,b,1.41124239999954,1,0,0,0,2D,3D,D23,2.26868354131836,0.505062146907311,0.489849818430697,0.49489888787039,0.5,0.49489888787039,0.510033549673043,0.5,0.492367881126363,0.49489888787039,0.497442905201386,0.517627365658287,0.497442905201386,0.497442905201386,0.492367881126363,0.49489888787039,0.510150181569303,0.484751864325043,0.515248135674957,0.49489888787039,0.510150181569303,0.343480960880439,0.500102410649484,-0.49489888787039,-0.00253100674402661,0.5,0.00511418959722831,1.09860194557034,0.0111907833451674,2.24084159207103,0.5,71.0095373716087
CBC_1021,CBC_1021_MSI_AV_v3_Vset5_Aset2_2023-07-18_14h40.56.369.csv,1,44,1,0,z,0,1,3,aud,A,63,1,1A,0A,0,1,z,2.32791610000095,0,1,1,1,0A,1A,A10,2.97892515523761,0.505062146907311,0.489849818430697,0.49489888787039,0.5,0.49489888787039,0.510033549673043,0.5,0.492367881126363,0.49489888787039,0.497442905201386,0.517627365658287,0.497442905201386,0.497442905201386,0.492367881126363,0.492367881126363,0.510150181569303,0.515209202577254,0.484790797422746,0.505062146907311,0.489849818430697,0.186903119541139,0.500059681530122,0.494937853092689,0.00253120601956115,0.5,0.00511418959722831,1.09860194557034,0.0111907833451674,2.24084159207103,0.5,71.0095373716087
CBC_1021,CBC_1021_MSI_TV_v3_Vset2_Tset3_2023-07-18_14h49.36.888.csv,2,1,0,2,z,0,1,0,tac,C,27,1,0C,2C,0,1,b,1.61607350000122,1,0,0,0,0C,2C,C02,2.77258872223978,0.5,0.5,0.5,0.5,0.5,0.5,0.5,0.5,0.5,0.5,0.5,0.5,0.5,0.5,0.5,0.5,0.5,0.5,0.5,0.5,0.223828166249756,0.500752921853343,-0.5,-0.5,0.5,1,0.930507979450991,0.37196846314677,2.87716408796021,0.5,72.043359952554
CBC_1021,CBC_1021_MSI_TV_v3_Vset2_Tset3_2023-07-18_14h49.36.888.csv,2,2,2,3,z,0,1,2,tac,D,63,1,2D,3D,0,1,z,2.40802199999962,0,1,1,1,3D,2D,D23,2.83321334405622,0.5,0.5,0.5,0.5,0.5,0.5,0.5,0.5,0,0.5,0.5,0.5,0.5,0.5,0.5,0.5,0.5,0.5,0.5,0.5,0.156631846599707,0.499214381446205,0.5,0.5,0.5,1,0.930507979450991,0.37196846314677,2.87716408796021,0.5,72.043359952554
CBC_1021,CBC_1021_MSI_TV_v3_Vset2_Tset3_2023-07-18_14h49.36.888.csv,2,3,0,1,b,1,0,3,tac,A,63,1,0A,1A,1,0,z,1.68426060000093,0,1,0,0,1A,0A,A01,2.89037175789616,0.5,0.5,0.5,0.5,0.5,0.5,0.5,0.5,0,0.5,0.5,0.5,0.5,0.5,0.5,1,0.5,0.5,0.5,0.5,0.222195295111268,0.499953225269254,-0.5,-0.5,0.5,1,0.930507979450991,0.37196846314677,2.87716408796021,0.5,72.043359952554
CBC_1021,CBC_1021_MSI_TV_v3_Vset2_Tset3_2023-07-18_14h49.36.888.csv,2,4,3,2,z,0,1,0,tac,C,63,1,3C,2C,0,1,z,2.28244839999934,0,1,1,1,2C,3C,C32,2.94443897916644,0.5,0,0.5,0.5,0.5,0.5,0.5,0.5,0,0.5,0.5,0.5,0.5,0.5,0.5,1,0.5,0.5,0.5,0.5,0.168956128756602,0.500730585965562,0.5,0.5,0.5,1,0.930507979450991,0.37196846314677,2.87716408796021,0.5,72.043359952554
CBC_1021,CBC_1021_MSI_TV_v3_Vset2_Tset3_2023-07-18_14h49.36.888.csv,2,5,2,0,z,0,1,3,tac,A,27,1,2A,0A,0,1,z,1.87853539999924,0,1,1,1,0A,2A,A20,2.99573227355399,0.5,0,0.5,0.5,0.5,0.5,0.5,0.5,0,0.5,1,0.5,0.5,0.5,0.5,1,0.5,0.5,0.5,0.5,0.208500160616915,0.499689072541196,0.5,0.5,0.5,1,0.930507979450991,0.37196846314677,2.87716408796021,0.5,72.043359952554
CBC_1021,CBC_1021_MSI_TV_v3_Vset2_Tset3_2023-07-18_14h49.36.888.csv,2,6,3,2,b,1,0,2,tac,D,63,1,3D,2D,1,0,b,2.79738290000023,1,0,1,1,3D,2D,D32,3.04452243772342,1,0,0.5,0.5,0.5,0.5,0.5,0.5,0,0.5,1,0.5,0.5,0.5,0.5,1,1,0,1,0.5,0.186917257542438,0.744007063331599,0,0,0.5,1,0.930507979450991,0.37196846314677,2.87716408796021,0.5,72.043359952554
CBC_1021,CBC_1021_MSI_TV_v3_Vset2_Tset3_2023-07-18_14h49.36.888.csv,2,7,2,3,z,0,1,2,tac,D,63,1,2D,3D,0,1,z,2.4463377000011,0,1,1,1,3D,2D,D23,2.39789527279837,1,0,0.5,0.5,0.5,0.5,0.5,0.5,0,0.5,1,0.5,0.5,0.5,0.5,1,1,0,1,0.5,0.235885632596941,0.744662101793259,0,0,0.5,1,0.930507979450991,0.37196846314677,2.87716408796021,0.5,72.043359952554
CBC_1021,CBC_1021_MSI_TV_v3_Vset2_Tset3_2023-07-18_14h49.36.888.csv,2,8,1,3,b,1,0,1,tac,B,27,1,1B,3B,1,0,b,2.50364489999993,1,0,1,1,1B,3B,B13,3.13549421592915,1,0,0.5,0.5,0.5,0.5,0.5,0.5,0,0.5,1,0.5,0.5,0.5,0.5,1,0.5,0.5,0.5,0.5,0.148495171990527,0.500563895560856,0.5,0.5,0.5,1,0.930507979450991,0.37196846314677,2.87716408796021,0.5,72.043359952554
CBC_1021,CBC_1021_MSI_TV_v3_Vset2_Tset3_2023-07-18_14h49.36.888.csv,2,9,3,0,b,1,0,2,tac,D,9,1,3D,0D,1,0,z,2.40397250000206,0,1,0,0,0D,3D,D30,3.17805383034795,1,0,0.5,0.5,0.5,1,0.5,0.5,0,0.5,1,0.5,0.5,0.5,0.5,1,0,1,0.5,1,0.0832984538608403,0.255813980897704,-0.5,-0.5,0.5,1,0.930507979450991,0.37196846314677,2.87716408796021,0.5,72.043359952554
CBC_1021,CBC_1021_MSI_TV_v3_Vset2_Tset3_2023-07-18_14h49.36.888.csv,2,10,0,1,z,0,1,1,tac,B,63,1,0B,1B,0,1,z,2.44784300000174,0,1,1,1,1B,0B,B01,3.2188758248682,1,0,0.5,0.5,0.5,1,0.5,0.5,0,0.5,1,0.5,0,0.5,0.5,1,1,0,1,0.5,0.235806692568898,0.745069711972485,0,0,0.5,1,0.930507979450991,0.37196846314677,2.87716408796021,0.5,72.043359952554
CBC_1021,CBC_1021_MSI_TV_v3_Vset2_Tset3_2023-07-18_14h49.36.888.csv,2,11,0,1,b,1,0,3,tac,A,63,1,0A,1A,1,0,b,2.99876869999935,1,0,1,1,0A,1A,A01,2.56494935746154,1,0,0.5,0.5,0.5,1,0.5,0.5,0,0.5,1,0.5,0,0.5,0.5,1,1,0,1,0,0.163798889569038,0.745330917109234,0,0,0.5,1,0.930507979450991,0.37196846314677,2.87716408796021,0.5,72.043359952554
CBC_1021,CBC_1021_MSI_TV_v3_Vset2_Tset3_2023-07-18_14h49.36.888.csv,2,12,1,0,b,1,0,1,tac,B,63,1,1B,0B,1,0,z,2.6543371000007,0,1,0,0,0B,1B,B10,3.29583686600433,1,0,0.5,0.5,0.5,1,0.5,0.5,0,0.5,1,0.5,0,0.5,0.5,1,0,1,0.5,1,0.0706164530272331,0.255673619260483,-0.5,-0.5,0.5,1,0.930507979450991,0.37196846314677,2.87716408796021,0.5,72.043359952554
CBC_1021,CBC_1021_MSI_TV_v3_Vset2_Tset3_2023-07-18_14h49.36.888.csv,2,13,3,2,b,1,0,2,tac,D,63,1,3D,2D,1,0,b,2.48330620000161,1,0,1,1,3D,2D,D32,2.63905732961526,1,0,0.5,0.5,0,1,0.5,0.5,0,0.5,1,0.5,0,0.5,0.5,1,1,0,1,0.5,0.230435757749587,0.745214271258611,0,0,0.5,1,0.930507979450991,0.37196846314677,2.87716408796021,0.5,72.043359952554
CBC_1021,CBC_1021_MSI_TV_v3_Vset2_Tset3_2023-07-18_14h49.36.888.csv,2,14,3,1,z,0,1,1,tac,B,27,1,3B,1B,0,1,z,2.57919249999941,0,1,1,1,1B,3B,B31,3.36729582998647,1,0,0.5,0.5,0,1,0.5,0.5,0,0.5,1,0.5,0,0.5,0.5,1,1,0,1,0.5,0.215856459794224,0.743758058774961,0,0,0.5,1,0.930507979450991,0.37196846314677,2.87716408796021,0.5,72.043359952554
CBC_1021,CBC_1021_MSI_TV_v3_Vset2_Tset3_2023-07-18_14h49.36.888.csv,2,15,2,3,b,1,0,0,tac,C,63,1,2C,3C,1,0,b,2.76099390000127,1,0,1,1,2C,3C,C23,3.40119738166216,1,0,0.5,0.5,0,1,0.5,0.5,0,0.5,1,0.5,0,0.5,0.5,1,1,0,1,0.5,0.191524099578998,0.744173360499384,0,0,0.5,1,0.930507979450991,0.37196846314677,2.87716408796021,0.5,72.043359952554
CBC_1021,CBC_1021_MSI_TV_v3_Vset2_Tset3_2023-07-18_14h49.36.888.csv,2,16,0,2,z,0,1,0,tac,C,27,1,0C,2C,0,1,z,2.67111699999987,0,1,1,1,2C,0C,C02,2.7408400239252,1,0,0.5,0.5,0,1,0.5,0.5,0,0.5,1,0.5,0,0.5,0.5,1,1,0,1,0,0.203681328743766,0.74558124857387,0,0,0.5,1,0.930507979450991,0.37196846314677,2.87716408796021,0.5,72.043359952554
CBC_1021,CBC_1021_MSI_TV_v3_Vset2_Tset3_2023-07-18_14h49.36.888.csv,2,17,3,0,z,0,1,3,tac,A,9,1,3A,0A,0,1,b,2.07032640000034,1,0,0,0,3A,0A,A30,3.46573590279973,1,0,0.5,0.5,0,1,0.5,0.5,0,0.5,1,0.5,0,0.5,0.5,1,0,1,0.5,1,0.103076204201888,0.256301412648682,-0.5,-0.5,0.5,1,0.930507979450991,0.37196846314677,2.87716408796021,0.5,72.043359952554
CBC_1021,CBC_1021_MSI_TV_v3_Vset2_Tset3_2023-07-18_14h49.36.888.csv,2,18,3,2,z,0,1,0,tac,C,63,0,3C,2C,1,0,z,2.74433820000013,0,1,1,0,2C,3C,C32,2.80336038090653,1,0,0.5,0,0,1,0.5,0.5,0,0.5,1,0.5,0,0.5,0.5,1,1,0,1,0.5,0.193694242140653,0.744338961350586,-1,-1,0.5,1,0.930507979450991,0.37196846314677,2.87716408796021,0.5,72.043359952554
CBC_1021,CBC_1021_MSI_TV_v3_Vset2_Tset3_2023-07-18_14h49.36.888.csv,2,19,0,1,b,1,0,3,tac,A,63,1,0A,1A,1,0,b,2.54744260000007,1,0,1,1,0A,1A,A01,2.42774823594805,1,0,0.5,0,0,1,0.5,0.5,0,0.5,0,0.5,0,0.5,0.5,1,1,0,1,0,0.220795406118474,0.744873476695544,0,0,0.5,1,0.930507979450991,0.37196846314677,2.87716408796021,0.5,72.043359952554
CBC_1021,CBC_1021_MSI_TV_v3_Vset2_Tset3_2023-07-18_14h49.36.888.csv,2,20,2,3,z,0,1,2,tac,D,63,1,2D,3D,0,1,b,2.64411090000067,1,0,0,0,2D,3D,D23,2.4567357728213,1,0,0.5,0,0,1,0.5,0.5,0,0.5,0,0.5,0,0.5,0.5,1,0,1,0.5,1,0.0709770441592514,0.255233946838664,-0.5,-0.5,0.5,1,0.930507979450991,0.37196846314677,2.87716408796021,0.5,72.043359952554
CBC_1021,CBC_1021_MSI_TV_v3_Vset2_Tset3_2023-07-18_14h49.36.888.csv,2,21,2,3,b,1,0,0,tac,C,63,1,2C,3C,1,0,z,2.42474440000115,0,1,0,0,3C,2C,C23,2.89037175789616,1,0,0.5,0,0,1,0.5,0.5,0,0.5,0,0.5,0,0.5,0,1,1,0,0.5,0,0.239037807807215,0.744132028572815,-0.5,-0.5,0.5,1,0.930507979450991,0.37196846314677,2.87716408796021,0.5,72.043359952554
CBC_1021,CBC_1021_MSI_TV_v3_Vset2_Tset3_2023-07-18_14h49.36.888.csv,2,22,1,3,z,0,1,2,tac,D,27,1,1D,3D,0,1,b,2.03801840000051,1,0,0,0,1D,3D,D13,3.61091791264422,1,0,0.5,0,0,1,0.5,0.5,0,0.5,0,0,0,0.5,0,1,0,1,0.5,1,0.104984198874997,0.256027361732123,-0.5,-0.5,0.5,1,0.930507979450991,0.37196846314677,2.87716408796021,0.5,72.043359952554
CBC_1021,CBC_1021_MSI_TV_v3_Vset2_Tset3_2023-07-18_14h49.36.888.csv,2,23,1,0,z,0,1,3,tac,A,63,1,1A,0A,0,1,z,2.60110069999973,0,1,1,1,0A,1A,A10,3.63758615972639,1,0,0.5,0,0,1,0.5,0.5,0,0.5,0,0,0,0,0,1,1,0,1,0,0.212911719795289,0.744234374124534,0,0,0.5,1,0.930507979450991,0.37196846314677,2.87716408796021,0.5,72.043359952554
CBC_1021,CBC_1021_MSI_TV_v3_Vset2_Tset3_2023-07-18_14h49.36.888.csv,2,24,2,3,b,1,0,0,tac,C,63,1,2C,3C,1,0,b,2.7598162000013,1,0,1,1,2C,3C,C23,2.56494935746154,1,0,0.5,0,0,1,0.5,0.5,0,0.5,0,0,0,0,0,1,NaN,NaN,0,0,NaN,NaN,1,1,0.5,1,0.930507979450991,0.37196846314677,2.87716408796021,0.5,72.043359952554
CBC_1021,CBC_1021_MSI_TV_v3_Vset2_Tset3_2023-07-18_14h49.36.888.csv,2,25,2,0,z,0,1,3,tac,A,27,1,2A,0A,0,1,z,4.22118850000152,0,1,1,1,0A,2A,A20,2.99573227355399,1,0,0.5,0,0,1,0.5,0.5,0,0.5,1,0,0,0,0,1,1,0,1,0.5,0.0725718747177049,0.744426970399929,0,0,0.5,1,0.930507979450991,0.37196846314677,2.87716408796021,0.5,72.043359952554
CBC_1021,CBC_1021_MSI_TV_v3_Vset2_Tset3_2023-07-18_14h49.36.888.csv,2,26,0,1,z,0,1,1,tac,B,63,1,0B,1B,0,1,b,4.2429372000006,1,0,0,0,0B,1B,B01,3.02042488614436,1,0,0.5,0,0,1,0.5,0.5,0,0.5,1,0,0,0,0,1,0,1,0,1,0.0245664704542272,0.255650576642466,0,0,0.5,1,0.930507979450991,0.37196846314677,2.87716408796021,0.5,72.043359952554
CBC_1021,CBC_1021_MSI_TV_v3_Vset2_Tset3_2023-07-18_14h49.36.888.csv,2,27,1,0,b,1,0,1,tac,B,63,1,1B,0B,1,0,b,2.45836560000134,1,0,1,1,1B,0B,B10,3.04452243772342,1,0,0.5,0,0,1,0.5,0.5,0,0.5,1,0,0,0,0,1,1,0,1,0,0.234028575500464,0.74464769264832,0,0,0.5,1,0.930507979450991,0.37196846314677,2.87716408796021,0.5,72.043359952554
CBC_1021,CBC_1021_MSI_TV_v3_Vset2_Tset3_2023-07-18_14h49.36.888.csv,2,28,2,3,b,1,0,0,tac,C,63,1,2C,3C,1,0,b,2.43164080000133,1,0,1,1,2C,3C,C23,2.37490575457367,1,0,0.5,0,0,1,0.5,0.5,0,0.5,1,0,0,0,0,1,1,0,1,0,0.238112566864276,0.744523210447003,0,0,0.5,1,0.930507979450991,0.37196846314677,2.87716408796021,0.5,72.043359952554
CBC_1021,CBC_1021_MSI_TV_v3_Vset2_Tset3_2023-07-18_14h49.36.888.csv,2,29,1,3,z,0,1,2,tac,D,27,1,1D,3D,0,1,z,2.50655130000087,0,1,1,1,3D,1D,D13,3.09104245335832,1,0,0.5,0,0,1,0.5,0.5,0,0.5,1,0,0,0,0,1,1,0,1,0,0.226699274241367,0.744530436851392,0,0,0.5,1,0.930507979450991,0.37196846314677,2.87716408796021,0.5,72.043359952554
CBC_1021,CBC_1021_MSI_TV_v3_Vset2_Tset3_2023-07-18_14h49.36.888.csv,2,30,2,1,b,1,0,0,tac,C,9,1,2C,1C,1,0,b,2.52729390000059,1,0,1,1,2C,1C,C21,3.80666248977032,1,0,0.5,0,0,1,0.5,0.5,0,0.5,1,0,0,0,0,1,1,0,1,0.5,0.223762443938831,0.744922575336276,0,0,0.5,1,0.930507979450991,0.37196846314677,2.87716408796021,0.5,72.043359952554
CBC_1021,CBC_1021_MSI_TV_v3_Vset2_Tset3_2023-07-18_14h49.36.888.csv,2,31,1,3,b,1,0,1,tac,B,27,1,1B,3B,1,0,z,2.5117265000008,0,1,0,0,3B,1B,B13,3.13549421592915,1,0,0.5,0,0,1,0.5,0.5,0,0.5,1,0,0,0,0,1,0,1,0.5,1,0.0775948061665526,0.255720696311968,-0.5,-0.5,0.5,1,0.930507979450991,0.37196846314677,2.87716408796021,0.5,72.043359952554
CBC_1021,CBC_1021_MSI_TV_v3_Vset2_Tset3_2023-07-18_14h49.36.888.csv,2,32,2,3,z,0,1,2,tac,D,63,1,2D,3D,0,1,z,2.05652069999996,0,1,1,1,3D,2D,D23,2.46385324059017,1,0,0.5,0,0,1,0.5,0,0,0.5,1,0,0,0,0,1,1,0,1,0,0.302288493011907,0.744963399476413,0,0,0.5,1,0.930507979450991,0.37196846314677,2.87716408796021,0.5,72.043359952554
CBC_1021,CBC_1021_MSI_TV_v3_Vset2_Tset3_2023-07-18_14h49.36.888.csv,2,33,1,0,b,1,0,1,tac,B,63,1,1B,0B,1,0,b,2.73831620000055,1,0,1,1,1B,0B,B10,2.77258872223978,1,0,0.5,0,0,1,0.5,0,0,0.5,1,0,0,0,0,1,1,0,1,0,0.194521212983796,0.744531998825793,0,0,0.5,1,0.930507979450991,0.37196846314677,2.87716408796021,0.5,72.043359952554
CBC_1021,CBC_1021_MSI_TV_v3_Vset2_Tset3_2023-07-18_14h49.36.888.csv,2,34,0,1,b,1,0,3,tac,A,63,0,0A,1A,0,1,z,1.93276320000041,0,1,0,1,1A,0A,A01,2.50552593699074,1,0,0.5,0,0,1,0.5,0,0,0.5,1,0,0,0,0,1,0,1,0,1,0.110875766504004,0.254447355215179,1,1,0.5,1,0.930507979450991,0.37196846314677,2.87716408796021,0.5,72.043359952554
CBC_1021,CBC_1021_MSI_TV_v3_Vset2_Tset3_2023-07-18_14h49.36.888.csv,2,35,3,2,z,0,1,0,tac,C,63,1,3C,2C,0,1,z,2.40956360000018,0,1,1,1,2C,3C,C32,2.81341071676004,1,1,0.5,0,0,1,0.5,0,0,0.5,1,0,0,0,0,1,1,0,1,0,0.241579524611593,0.744540737442567,0,0,0.5,1,0.930507979450991,0.37196846314677,2.87716408796021,0.5,72.043359952554
CBC_1021,CBC_1021_MSI_TV_v3_Vset2_Tset3_2023-07-18_14h49.36.888.csv,2,36,2,0,z,0,1,3,tac,A,27,1,2A,0A,0,1,b,2.3210936000014,1,0,0,0,2A,0A,A20,2.83321334405622,1,1,0.5,0,0,1,0.5,0,0,0.5,1,0,0,0,0,1,0,1,0.5,1,0.0880379648685575,0.256239840469776,-0.5,-0.5,0.5,1,0.930507979450991,0.37196846314677,2.87716408796021,0.5,72.043359952554
CBC_1021,CBC_1021_MSI_TV_v3_Vset2_Tset3_2023-07-18_14h49.36.888.csv,2,37,1,0,b,1,0,1,tac,B,63,1,1B,0B,1,0,z,2.10781570000108,0,1,0,0,0B,1B,B10,2.56494935746154,1,1,0,0,0,1,0.5,0,0,0.5,1,0,0,0,0,1,0,1,0,1,0.100547752298262,0.25569246435964,0,0,0.5,1,0.930507979450991,0.37196846314677,2.87716408796021,0.5,72.043359952554
CBC_1021,CBC_1021_MSI_TV_v3_Vset2_Tset3_2023-07-18_14h49.36.888.csv,2,38,3,2,b,1,0,2,tac,D,63,1,3D,2D,1,0,b,2.18499530000008,1,0,1,1,3D,2D,D32,2.87167962488401,1,1,0,0,0,1,0.5,0,0,0.5,1,0,0,0,0,1,1,0,1,0,0.2793189646971,0.744969479410867,0,0,0.5,1,0.930507979450991,0.37196846314677,2.87716408796021,0.5,72.043359952554
CBC_1021,CBC_1021_MSI_TV_v3_Vset2_Tset3_2023-07-18_14h49.36.888.csv,2,39,2,1,z,0,1,1,tac,B,9,1,2B,1B,0,1,z,2.00287810000009,0,1,1,1,1B,2B,B21,3.98898404656427,1,1,0,0,0,1,0.5,0,0,0.5,1,0,0,0,0,1,1,0,1,0.5,0.311535809511432,0.744209636168612,0,0,0.5,1,0.930507979450991,0.37196846314677,2.87716408796021,0.5,72.043359952554
CBC_1021,CBC_1021_MSI_TV_v3_Vset2_Tset3_2023-07-18_14h49.36.888.csv,2,40,3,1,b,1,0,2,tac,D,27,1,3D,1D,1,0,b,3.61580700000013,1,0,1,1,3D,1D,D31,4.00733318523247,1,1,0,0,0,1,0.5,0,0,0.5,1,0,0,0,0,1,1,0,1,0,0.108594800052512,0.74489285023317,0,0,0.5,1,0.930507979450991,0.37196846314677,2.87716408796021,0.5,72.043359952554
CBC_1021,CBC_1021_MSI_TV_v3_Vset2_Tset3_2023-07-18_14h49.36.888.csv,2,41,0,1,b,1,0,3,tac,A,63,1,0A,1A,1,0,b,3.25778700000046,1,0,1,1,0A,1A,A01,2.41591377830105,1,1,0,0,0,1,0.5,0,0,0.5,1,0,0,0,0,1,NaN,NaN,1,1,NaN,NaN,0,0,0.5,1,0.930507979450991,0.37196846314677,2.87716408796021,0.5,72.043359952554
CBC_1021,CBC_1021_MSI_TV_v3_Vset2_Tset3_2023-07-18_14h49.36.888.csv,2,42,1,0,z,0,1,3,tac,A,63,1,1A,0A,0,1,z,0.966671000000133,0,1,1,1,0A,1A,A10,3.3499040872746,1,1,0,0,0,1,0.5,0,0,0.5,1,0,0,0,0,1,NaN,NaN,1,1,NaN,NaN,0,0,0.5,1,0.930507979450991,0.37196846314677,2.87716408796021,0.5,72.043359952554
CBC_1021,CBC_1021_MSI_TV_v3_Vset2_Tset3_2023-07-18_14h49.36.888.csv,2,43,0,2,z,0,1,0,tac,C,27,1,0C,2C,0,1,b,2.47060210000018,1,0,0,0,0C,2C,C02,2.96183072187831,1,1,0,0,0,1,0.5,0,0,0.5,1,0,0,0,0,1,0,1,0,1,0.0798709435518119,0.256240635896989,0,0,0.5,1,0.930507979450991,0.37196846314677,2.87716408796021,0.5,72.043359952554
CBC_1021,CBC_1021_MSI_TV_v3_Vset2_Tset3_2023-07-18_14h49.36.888.csv,2,44,1,0,b,1,0,1,tac,B,63,1,1B,0B,1,0,b,2.47554720000153,1,0,1,1,1B,0B,B10,2.46809953147162,1,1,0,0,0,1,0.5,0,0,0.5,1,0,0,0,0,1,1,0,1,0,0.231292148153462,0.74433591939776,0,0,0.5,1,0.930507979450991,0.37196846314677,2.87716408796021,0.5,72.043359952554
CBC_1021,CBC_1021_MSI_AV_v3_Vset4_Aset3_2023-07-18_16h15.57.561.csv,3,1,1,0,z,0,1,3,aud,A,63,1,1A,0A,NaN,NaN,[],NaN,NaN,NaN,NaN,NaN,,,A10,2.77258872223978,0.5,0.5,0.5,0.5,0.5,0.5,0.5,0.5,0.5,0.5,0.5,0.5,0.5,0.5,0.5,0.5,0,0,0,0,NaN,0,0,0,0.5,0.000346087516939875,0.960587879357513,0.128710780892764,2.23820308898048,0.5,72.2295231444495
CBC_1021,CBC_1021_MSI_AV_v3_Vset4_Aset3_2023-07-18_16h15.57.561.csv,3,2,2,3,b,1,0,0,aud,C,63,1,2C,3C,1,0,b,1.48116599999958,1,0,1,1,2C,3C,C23,2.83321334405622,0.5,0.5,0.5,0.5,0.5,0.5,0.5,0.5,0.5,0.5,0.5,0.5,0.5,0.5,0.5,0.5,0.5,0.5,0.5,0.5,0.356922100269612,0.500016198151023,0.5,0.000173043758469937,0.5,0.000346087516939875,0.960587879357513,0.128710780892764,2.23820308898048,0.5,72.2295231444495
CBC_1021,CBC_1021_MSI_AV_v3_Vset4_Aset3_2023-07-18_16h15.57.561.csv,3,3,2,0,z,0,1,3,aud,A,27,1,2A,0A,0,1,z,2.23491819999981,0,1,1,1,0A,2A,A20,2.89037175789616,0.5,0.5,0.5,0.5,0.5,0.5,0.5,0.5,0.5,0.5,0.50017304375847,0.5,0.5,0.5,0.5,0.5,0.5,0.5,0.5,0.5,0.17882006049218,0.500343780218303,0.5,0.000173043758469937,0.5,0.000346087516939875,0.960587879357513,0.128710780892764,2.23820308898048,0.5,72.2295231444495
CBC_1021,CBC_1021_MSI_AV_v3_Vset4_Aset3_2023-07-18_16h15.57.561.csv,3,4,0,1,z,0,1,1,aud,B,63,1,0B,1B,0,1,b,2.28046299999914,1,0,0,0,0B,1B,B01,2.94443897916644,0.50017304375847,0.5,0.5,0.5,0.5,0.5,0.5,0.5,0.5,0.5,0.50017304375847,0.5,0.5,0.5,0.5,0.5,0.5,0.5,0.5,0.5,0.170407484651034,0.498664698965573,-0.5,-0.000173043758469937,0.5,0.000346087516939875,0.960587879357513,0.128710780892764,2.23820308898048,0.5,72.2295231444495
CBC_1021,CBC_1021_MSI_AV_v3_Vset4_Aset3_2023-07-18_16h15.57.561.csv,3,5,1,0,b,1,0,1,aud,B,63,1,1B,0B,1,0,b,1.88419050000084,1,0,1,1,1B,0B,B10,2.99573227355399,0.50017304375847,0.5,0.5,0.5,0.49982695624153,0.5,0.5,0.5,0.5,0.5,0.50017304375847,0.5,0.5,0.5,0.5,0.5,0.50017304375847,0.49982695624153,0.5,0.49982695624153,0.252514102267437,0.501112027248108,0.5,0.000173043758469937,0.5,0.000346087516939875,0.960587879357513,0.128710780892764,2.23820308898048,0.5,72.2295231444495
CBC_1021,CBC_1021_MSI_AV_v3_Vset4_Aset3_2023-07-18_16h15.57.561.csv,3,6,2,3,b,1,0,0,aud,C,63,1,2C,3C,1,0,z,1.79902799999945,0,1,0,0,3C,2C,C23,2.35137525716348,0.50017304375847,0.5,0.5,0.5,0.49982695624153,0.50017304375847,0.5,0.5,0.5,0.5,0.50017304375847,0.5,0.5,0.5,0.5,0.5,0.49982695624153,0.50017304375847,0.5,0.50017304375847,0.273646865452195,0.500344226343506,-0.5,-0.000173043758469937,0.5,0.000346087516939875,0.960587879357513,0.128710780892764,2.23820308898048,0.5,72.2295231444495
CBC_1021,CBC_1021_MSI_AV_v3_Vset4_Aset3_2023-07-18_16h15.57.561.csv,3,7,1,3,z,0,1,2,aud,D,27,1,1D,3D,0,1,b,1.87392030000046,1,0,0,0,1D,3D,D13,3.09104245335832,0.50017304375847,0.5,0.5,0.5,0.49982695624153,0.50017304375847,0.5,0.5,0.5,0.5,0.50017304375847,0.49982695624153,0.5,0.5,0.5,0.5,0.5,0.5,0.5,0.5,0.254995488759916,0.501030254097372,-0.5,-0.000173043758469937,0.5,0.000346087516939875,0.960587879357513,0.128710780892764,2.23820308898048,0.5,72.2295231444495
CBC_1021,CBC_1021_MSI_AV_v3_Vset4_Aset3_2023-07-18_16h15.57.561.csv,3,8,2,1,b,1,0,0,aud,C,9,1,2C,1C,1,0,z,2.61218399999962,0,1,0,0,1C,2C,C21,3.13549421592915,0.50017304375847,0.5,0.5,0.5,0.49982695624153,0.50017304375847,0.5,0.5,0.5,0.5,0.50017304375847,0.49982695624153,0.5,0.49982695624153,0.5,0.5,0.49982695624153,0.50017304375847,0.5,0.50017304375847,0.123098877029604,0.499404309933137,-0.5,-0.000173043758469937,0.5,0.000346087516939875,0.960587879357513,0.128710780892764,2.23820308898048,0.5,72.2295231444495
CBC_1021,CBC_1021_MSI_AV_v3_Vset4_Aset3_2023-07-18_16h15.57.561.csv,3,9,1,3,b,1,0,1,aud,B,27,1,1B,3B,1,0,z,2.38928289999967,0,1,0,0,3B,1B,B13,3.17805383034795,0.50017304375847,0.5,0.5,0.5,0.49982695624153,0.50017304375847,0.5,0.5,0.5,0.49982695624153,0.50017304375847,0.49982695624153,0.5,0.49982695624153,0.5,0.5,0.49982695624153,0.50017304375847,0.5,0.50017304375847,0.153669065885143,0.500539377615606,-0.5,-0.000173043758469937,0.5,0.000346087516939875,0.960587879357513,0.128710780892764,2.23820308898048,0.5,72.2295231444495
CBC_1021,CBC_1021_MSI_AV_v3_Vset4_Aset3_2023-07-18_16h15.57.561.csv,3,10,2,3,z,0,1,2,aud,D,63,1,2D,3D,0,1,b,2.34608479999952,1,0,0,0,2D,3D,D23,3.2188758248682,0.50017304375847,0.5,0.5,0.5,0.49982695624153,0.50017304375847,0.5,0.49982695624153,0.5,0.49982695624153,0.50017304375847,0.49982695624153,0.5,0.49982695624153,0.5,0.5,0.5,0.5,0.5,0.5,0.160016993166681,0.499509722576919,-0.5,-0.000173043758469937,0.5,0.000346087516939875,0.960587879357513,0.128710780892764,2.23820308898048,0.5,72.2295231444495
CBC_1021,CBC_1021_MSI_AV_v3_Vset4_Aset3_2023-07-18_16h15.57.561.csv,3,11,0,1,z,0,1,1,aud,B,63,1,0B,1B,0,1,z,2.55523820000053,0,1,1,1,1B,0B,B01,2.56494935746154,0.50017304375847,0.5,0.5,0.5,0.49982695624153,0.50017304375847,0.5,0.49982695624153,0.5,0.49982695624153,0.50017304375847,0.49982695624153,0.5,0.49982695624153,0.49982695624153,0.5,0.500346087475487,0.499653912524513,0.50017304375847,0.49982695624153,0.13019991025551,0.49939971930633,0.49982695624153,0.000172983870185247,0.5,0.000346087516939875,0.960587879357513,0.128710780892764,2.23820308898048,0.5,72.2295231444495
CBC_1021,CBC_1021_MSI_AV_v3_Vset4_Aset3_2023-07-18_16h15.57.561.csv,3,12,2,0,b,1,0,0,aud,C,27,1,2C,0C,1,0,b,1.68245319999914,1,0,1,1,2C,0C,C20,3.29583686600433,0.50017304375847,0.5,0.5,0.5,0.49982695624153,0.500346027628655,0.5,0.49982695624153,0.5,0.49982695624153,0.50017304375847,0.49982695624153,0.5,0.49982695624153,0.49982695624153,0.5,0.50017304375847,0.49982695624153,0.50017304375847,0.5,0.304307139902563,0.499098508315363,0.49982695624153,0.000172983870185247,0.5,0.000346087516939875,0.960587879357513,0.128710780892764,2.23820308898048,0.5,72.2295231444495
CBC_1021,CBC_1021_MSI_AV_v3_Vset4_Aset3_2023-07-18_16h15.57.561.csv,3,13,2,3,z,0,1,2,aud,D,63,0,2D,3D,1,0,z,2.34109549999812,0,1,1,0,3D,2D,D23,2.63905732961526,0.50017304375847,0.5,0.5,0.5,0.49982695624153,0.500346027628655,0.5,0.49982695624153,0.5,0.49982695624153,0.500346027628655,0.49982695624153,0.5,0.49982695624153,0.49982695624153,0.5,0.50017304375847,0.49982695624153,0.5,0.49982695624153,0.160883562878982,0.499753624955443,-0.5,-0.000173043758469937,0.5,0.000346087516939875,0.960587879357513,0.128710780892764,2.23820308898048,0.5,72.2295231444495
CBC_1021,CBC_1021_MSI_AV_v3_Vset4_Aset3_2023-07-18_16h15.57.561.csv,3,14,0,1,b,1,0,3,aud,A,63,1,0A,1A,1,0,z,3.08312540000043,0,1,0,0,1A,0A,A01,3.36729582998647,0.50017304375847,0.5,0.5,0.5,0.49982695624153,0.500346027628655,0.5,0.49982695624153,0.5,0.49982695624153,0.500346027628655,0.49982695624153,0.5,0.49982695624153,0.49982695624153,0.49982695624153,0.49982695624153,0.50017304375847,0.5,0.50017304375847,0.0775324931013155,0.500212348879543,-0.5,-0.000173043758469937,0.5,0.000346087516939875,0.960587879357513,0.128710780892764,2.23820308898048,0.5,72.2295231444495
CBC_1021,CBC_1021_MSI_AV_v3_Vset4_Aset3_2023-07-18_16h15.57.561.csv,3,15,3,2,z,0,1,0,aud,C,63,1,3C,2C,0,1,b,1.13701809999839,1,0,0,0,3C,2C,C32,3.40119738166216,0.50017304375847,0.49982695624153,0.5,0.5,0.49982695624153,0.500346027628655,0.5,0.49982695624153,0.5,0.49982695624153,0.500346027628655,0.49982695624153,0.5,0.49982695624153,0.49982695624153,0.49982695624153,0.499480928737198,0.500519071262802,0.49982695624153,0.500346027628655,0.173102403805068,0.499770505885304,-0.49982695624153,-0.000172983870185247,0.5,0.000346087516939875,0.960587879357513,0.128710780892764,2.23820308898048,0.5,72.2295231444495
CBC_1021,CBC_1021_MSI_AV_v3_Vset4_Aset3_2023-07-18_16h15.57.561.csv,3,16,2,0,z,0,1,3,aud,A,27,1,2A,0A,0,1,z,2.43140839999978,0,1,1,1,0A,2A,A20,2.7408400239252,0.50017304375847,0.49982695624153,0.5,0.5,0.49982695624153,0.500346027628655,0.5,0.49982695624153,0.5,0.49982695624153,0.500346027628655,0.499653972371345,0.5,0.49982695624153,0.49982695624153,0.49982695624153,0.50017304375847,0.49982695624153,0.50017304375847,0.5,0.147105984715147,0.499458358998342,0.49982695624153,0.000172983870185247,0.5,0.000346087516939875,0.960587879357513,0.128710780892764,2.23820308898048,0.5,72.2295231444495
CBC_1021,CBC_1021_MSI_AV_v3_Vset4_Aset3_2023-07-18_16h15.57.561.csv,3,17,3,2,b,1,0,2,aud,D,63,1,3D,2D,1,0,z,3.10169029999997,0,1,0,0,2D,3D,D32,3.46573590279973,0.500346027628655,0.49982695624153,0.5,0.5,0.49982695624153,0.500346027628655,0.5,0.49982695624153,0.5,0.49982695624153,0.500346027628655,0.499653972371345,0.5,0.49982695624153,0.49982695624153,0.49982695624153,0.5,0.5,0.49982695624153,0.49982695624153,0.0760516004060196,0.499713815965718,-0.49982695624153,-0.000172983870185247,0.5,0.000346087516939875,0.960587879357513,0.128710780892764,2.23820308898048,0.5,72.2295231444495
CBC_1021,CBC_1021_MSI_AV_v3_Vset4_Aset3_2023-07-18_16h15.57.561.csv,3,18,2,3,z,0,1,2,aud,D,63,1,2D,3D,0,1,b,1.7931695999996,1,0,0,0,2D,3D,D23,2.39789527279837,0.500346027628655,0.49982695624153,0.5,0.5,0.49982695624153,0.500346027628655,0.5,0.49982695624153,0.5,0.49982695624153,0.500346027628655,0.499653972371345,0.5,0.49982695624153,0.499653972371345,0.49982695624153,0.499827016088383,0.500172983911617,0.499653972371345,0.49982695624153,0.275087942865206,0.50018096527624,-0.499653972371345,-0.000172924002627143,0.5,0.000346087516939875,0.960587879357513,0.128710780892764,2.23820308898048,0.5,72.2295231444495
CBC_1021,CBC_1021_MSI_AV_v3_Vset4_Aset3_2023-07-18_16h15.57.561.csv,3,19,1,3,b,1,0,1,aud,B,27,1,1B,3B,1,0,z,1.56381440000041,0,1,0,0,3B,1B,B13,2.83321334405622,0.500346027628655,0.49982695624153,0.5,0.5,0.49982695624153,0.500346027628655,0.5,0.49982695624153,0.5,0.49982695624153,0.500346027628655,0.499653972371345,0.5,0.49982695624153,0.499481048368718,0.49982695624153,0.499480928737199,0.500519071262801,0.49982695624153,0.500346027628655,0.337216279744987,0.500002428084738,-0.49982695624153,-0.000172983870185247,0.5,0.000346087516939875,0.960587879357513,0.128710780892764,2.23820308898048,0.5,72.2295231444495
CBC_1021,CBC_1021_MSI_AV_v3_Vset4_Aset3_2023-07-18_16h15.57.561.csv,3,20,3,0,b,1,0,2,aud,D,9,1,3D,0D,1,0,b,3.3838156999991,1,0,1,1,3D,0D,D30,3.55534806148941,0.500346027628655,0.49982695624153,0.5,0.5,0.49982695624153,0.500346027628655,0.5,0.499653972371345,0.5,0.49982695624153,0.500346027628655,0.499653972371345,0.5,0.49982695624153,0.499481048368718,0.49982695624153,0.49982695624153,0.50017304375847,0.49982695624153,0.5,0.0576623901460532,0.500268102486471,0.50017304375847,0.000173103646754628,0.5,0.000346087516939875,0.960587879357513,0.128710780892764,2.23820308898048,0.5,72.2295231444495
CBC_1021,CBC_1021_MSI_AV_v3_Vset4_Aset3_2023-07-18_16h15.57.561.csv,3,21,0,1,z,0,1,1,aud,B,63,1,0B,1B,0,1,z,2.50235179999981,0,1,1,1,1B,0B,B01,2.484906649788,0.500346027628655,0.49982695624153,0.5,0.5,0.49982695624153,0.500346027628655,0.5,0.499653972371345,0.5,0.49982695624153,0.500346027628655,0.499653972371345,0.5,0.49982695624153,0.499481048368718,0.500000059888285,0.500519071262802,0.499480928737198,0.500346027628655,0.49982695624153,0.137249083136602,0.499716618985824,0.499653972371345,0.000172924002627143,0.5,0.000346087516939875,0.960587879357513,0.128710780892764,2.23820308898048,0.5,72.2295231444495
CBC_1021,CBC_1021_MSI_AV_v3_Vset4_Aset3_2023-07-18_16h15.57.561.csv,3,22,0,1,b,1,0,3,aud,A,63,1,0A,1A,1,0,z,1.75317589999941,0,1,0,0,1A,0A,A01,2.91777073208428,0.500346027628655,0.49982695624153,0.5,0.5,0.49982695624153,0.500518951631282,0.5,0.499653972371345,0.5,0.49982695624153,0.500346027628655,0.499653972371345,0.5,0.49982695624153,0.499481048368718,0.500000059888285,0.499480928737199,0.500519071262801,0.49982695624153,0.500346027628655,0.285539262854509,0.499916679162906,-0.49982695624153,-0.000172983870185247,0.5,0.000346087516939875,0.960587879357513,0.128710780892764,2.23820308898048,0.5,72.2295231444495
CBC_1021,CBC_1021_MSI_AV_v3_Vset4_Aset3_2023-07-18_16h15.57.561.csv,3,23,3,2,z,0,1,0,aud,C,63,1,3C,2C,0,1,b,1.59837049999987,1,0,0,0,3C,2C,C32,2.94443897916644,0.500346027628655,0.499653972371345,0.5,0.5,0.49982695624153,0.500518951631282,0.5,0.499653972371345,0.5,0.49982695624153,0.500346027628655,0.499653972371345,0.5,0.49982695624153,0.499481048368718,0.500000059888285,0.499307945074143,0.500692054925857,0.499653972371345,0.500346027628655,0.327478726323649,0.499219348119509,-0.499653972371345,-0.000172924002627143,0.5,0.000346087516939875,0.960587879357513,0.128710780892764,2.23820308898048,0.5,72.2295231444495
CBC_1021,CBC_1021_MSI_AV_v3_Vset4_Aset3_2023-07-18_16h15.57.561.csv,3,24,2,0,z,0,1,3,aud,A,27,1,2A,0A,0,1,z,1.92303879999963,0,1,1,1,0A,2A,A20,2.56494935746154,0.500346027628655,0.499653972371345,0.5,0.5,0.49982695624153,0.500518951631282,0.5,0.499653972371345,0.5,0.49982695624153,0.500346027628655,0.499481048368718,0.5,0.49982695624153,0.499481048368718,0.500000059888285,0.500346027628655,0.499653972371345,0.500346027628655,0.5,0.242652992970916,0.500054571881521,0.499653972371345,0.000172924002627143,0.5,0.000346087516939875,0.960587879357513,0.128710780892764,2.23820308898048,0.5,72.2295231444495
CBC_1021,CBC_1021_MSI_AV_v3_Vset4_Aset3_2023-07-18_16h15.57.561.csv,3,25,0,1,z,0,1,1,aud,B,63,1,0B,1B,0,1,b,1.57311630000004,1,0,0,0,0B,1B,B01,2.30258509299405,0.500518951631282,0.499653972371345,0.5,0.5,0.49982695624153,0.500518951631282,0.5,0.499653972371345,0.5,0.49982695624153,0.500346027628655,0.499481048368718,0.5,0.49982695624153,0.499481048368718,0.500000059888285,0.499308004858816,0.500691995141184,0.49982695624153,0.500518951631282,0.333920172050149,0.498736636471482,-0.49982695624153,-0.000172983870185247,0.5,0.000346087516939875,0.960587879357513,0.128710780892764,2.23820308898048,0.5,72.2295231444495
CBC_1021,CBC_1021_MSI_AV_v3_Vset4_Aset3_2023-07-18_16h15.57.561.csv,3,26,3,2,b,1,0,2,aud,D,63,1,3D,2D,1,0,z,1.44364969999879,0,1,0,0,2D,3D,D32,3.02042488614436,0.500518951631282,0.499653972371345,0.5,0.5,0.499653972371345,0.500518951631282,0.5,0.499653972371345,0.5,0.49982695624153,0.500346027628655,0.499481048368718,0.5,0.49982695624153,0.499481048368718,0.500000059888285,0.499480988480497,0.500519011519503,0.499481048368718,0.500000059888285,0.364119346475169,0.500559681510762,-0.499481048368718,-0.000172864155788455,0.5,0.000346087516939875,0.960587879357513,0.128710780892764,2.23820308898048,0.5,72.2295231444495
CBC_1021,CBC_1021_MSI_AV_v3_Vset4_Aset3_2023-07-18_16h15.57.561.csv,3,27,2,1,z,0,1,1,aud,B,9,1,2B,1B,0,1,z,3.67871969999942,0,1,1,1,1B,2B,B21,3.73766961828337,0.500518951631282,0.499653972371345,0.5,0.5,0.499653972371345,0.500518951631282,0.5,0.499653972371345,0.5,0.49982695624153,0.500346027628655,0.499481048368718,0.5,0.49982695624153,0.499308184212929,0.500000059888285,0.500518951631282,0.499481048368718,0.500518951631282,0.5,0.0430796339134076,0.499742476657084,0.499481048368718,0.000172864155788455,0.5,0.000346087516939875,0.960587879357513,0.128710780892764,2.23820308898048,0.5,72.2295231444495
CBC_1021,CBC_1021_MSI_AV_v3_Vset4_Aset3_2023-07-18_16h15.57.561.csv,3,28,3,1,b,1,0,2,aud,D,27,1,3D,1D,1,0,b,1.75084589999824,1,0,1,1,3D,1D,D31,3.76120011569356,0.500518951631282,0.499653972371345,0.5,0.5,0.499653972371345,0.500691815787071,0.5,0.499653972371345,0.5,0.49982695624153,0.500346027628655,0.499481048368718,0.5,0.49982695624153,0.499308184212929,0.500000059888285,0.500173103646747,0.499826896353253,0.500000059888285,0.49982695624153,0.286666926322849,0.500794376208875,0.499999940111715,0.00017304373774335,0.5,0.000346087516939875,0.960587879357513,0.128710780892764,2.23820308898048,0.5,72.2295231444495
CBC_1021,CBC_1021_MSI_AV_v3_Vset4_Aset3_2023-07-18_16h15.57.561.csv,3,29,0,1,b,1,0,3,aud,A,63,1,0A,1A,1,0,z,4.16207569999824,0,1,0,0,1A,0A,A01,2.68557734525015,0.500518951631282,0.499653972371345,0.5,0.5,0.499653972371345,0.500691815787071,0.5,0.499653972371345,0.5,0.49982695624153,0.500346027628655,0.499481048368718,0.5,0.49982695624153,0.499308184212929,0.500173103626028,0.499135021361365,0.500864978638635,0.499653972371345,0.500518951631282,0.0267827212428302,0.500167463484593,-0.499653972371345,-0.000172924002627143,0.5,0.000346087516939875,0.960587879357513,0.128710780892764,2.23820308898048,0.5,72.2295231444495
CBC_1021,CBC_1021_MSI_AV_v3_Vset4_Aset3_2023-07-18_16h15.57.561.csv,3,30,1,0,z,0,1,3,aud,A,63,1,1A,0A,0,1,b,1.34086349999961,1,0,0,0,1A,0A,A10,3.11351530921037,0.500518951631282,0.499481048368718,0.5,0.5,0.499653972371345,0.500691815787071,0.5,0.499653972371345,0.5,0.49982695624153,0.500346027628655,0.499481048368718,0.5,0.49982695624153,0.499308184212929,0.500173103626028,0.498962097855508,0.501037902144492,0.499481048368718,0.500518951631282,0.366260562770813,0.499202321957083,-0.499481048368718,-0.000172864155788455,0.5,0.000346087516939875,0.960587879357513,0.128710780892764,2.23820308898048,0.5,72.2295231444495
CBC_1021,CBC_1021_MSI_AV_v3_Vset4_Aset3_2023-07-18_16h15.57.561.csv,3,31,2,0,b,1,0,0,aud,C,27,1,2C,0C,1,0,z,1.08924289999777,0,1,0,0,0C,2C,C20,3.13549421592915,0.500518951631282,0.499308184212929,0.5,0.5,0.499653972371345,0.500691815787071,0.5,0.499653972371345,0.5,0.49982695624153,0.500346027628655,0.499481048368718,0.5,0.49982695624153,0.499308184212929,0.500173103626028,0.499653972371345,0.500346027628655,0.5,0.500346027628655,0.0744260476978205,0.499883164455568,-0.5,-0.000173043758469937,0.5,0.000346087516939875,0.960587879357513,0.128710780892764,2.23820308898048,0.5,72.2295231444495
CBC_1021,CBC_1021_MSI_AV_v3_Vset4_Aset3_2023-07-18_16h15.57.561.csv,3,32,0,1,b,1,0,3,aud,A,63,1,0A,1A,1,0,z,1.18103100000008,0,1,0,0,1A,0A,A01,2.46385324059017,0.500518951631282,0.499308184212929,0.5,0.5,0.499653972371345,0.500691815787071,0.5,0.499653972371345,0.49982695624153,0.49982695624153,0.500346027628655,0.499481048368718,0.5,0.49982695624153,0.499308184212929,0.500173103626028,0.498789234320398,0.501210765679602,0.499308184212929,0.500518951631282,0.251374957521531,0.499022593508645,-0.499308184212929,-0.00017280432966201,0.5,0.000346087516939875,0.960587879357513,0.128710780892764,2.23820308898048,0.5,72.2295231444495
CBC_1021,CBC_1021_MSI_AV_v3_Vset4_Aset3_2023-07-18_16h15.57.561.csv,3,33,0,1,z,0,1,1,aud,B,63,1,0B,1B,0,1,b,2.48401529999865,1,0,0,0,0B,1B,B01,2.26176309847379,0.500518951631282,0.499135379883267,0.5,0.5,0.499653972371345,0.500691815787071,0.5,0.499653972371345,0.49982695624153,0.49982695624153,0.500346027628655,0.499481048368718,0.5,0.49982695624153,0.499308184212929,0.500173103626028,0.49896215757806,0.50103784242194,0.499653972371345,0.500691815787071,0.139622708737648,0.499260198618445,-0.499653972371345,-0.000172924002627143,0.5,0.000346087516939875,0.960587879357513,0.128710780892764,2.23820308898048,0.5,72.2295231444495
CBC_1021,CBC_1021_MSI_AV_v3_Vset4_Aset3_2023-07-18_16h15.57.561.csv,3,34,2,3,z,0,1,2,aud,D,63,1,2D,3D,0,1,z,1.92905159999827,0,1,1,1,3D,2D,D23,2.50552593699074,0.500518951631282,0.499135379883267,0.5,0.5,0.499481048368718,0.500691815787071,0.5,0.499653972371345,0.49982695624153,0.49982695624153,0.500346027628655,0.499481048368718,0.5,0.49982695624153,0.499308184212929,0.500173103626028,0.500864918998782,0.499135081001218,0.500173103626028,0.499308184212929,0.241474539162016,0.500546826204648,0.499826896373972,0.000172983849465832,0.5,0.000346087516939875,0.960587879357513,0.128710780892764,2.23820308898048,0.5,72.2295231444495
CBC_1021,CBC_1021_MSI_AV_v3_Vset4_Aset3_2023-07-18_16h15.57.561.csv,3,35,1,3,b,1,0,1,aud,B,27,1,1B,3B,1,0,b,2.42903330000081,1,0,1,1,1B,3B,B13,2.81341071676004,0.500518951631282,0.499135379883267,0.5,0.5,0.499481048368718,0.500691815787071,0.5,0.499653972371345,0.49982695624153,0.49982695624153,0.500346027628655,0.499481048368718,0.5,0.49982695624153,0.499308184212929,0.500346087475494,0.50103784242194,0.49896215757806,0.500691815787071,0.499653972371345,0.147710858282565,0.500340277894658,0.499308184212929,0.00017280432966201,0.5,0.000346087516939875,0.960587879357513,0.128710780892764,2.23820308898048,0.5,72.2295231444495
CBC_1021,CBC_1021_MSI_AV_v3_Vset4_Aset3_2023-07-18_16h15.57.561.csv,3,36,2,3,b,1,0,0,aud,C,63,1,2C,3C,1,0,z,2.55715759999839,0,1,0,0,3C,2C,C23,2.83321334405622,0.500518951631282,0.499135379883267,0.5,0.5,0.499481048368718,0.500864620116733,0.5,0.499653972371345,0.49982695624153,0.49982695624153,0.500346027628655,0.499481048368718,0.5,0.49982695624153,0.499308184212929,0.500346087475494,0.499135021361365,0.500864978638635,0.499481048368718,0.500346027628655,0.130198139006217,0.500337904813753,-0.499481048368718,-0.000172864155788455,0.5,0.000346087516939875,0.960587879357513,0.128710780892764,2.23820308898048,0.5,72.2295231444495
CBC_1021,CBC_1021_MSI_AV_v3_Vset4_Aset3_2023-07-18_16h15.57.561.csv,3,37,0,2,z,0,1,0,aud,C,27,1,0C,2C,0,1,z,2.45347199999924,0,1,1,1,2C,0C,C02,3.95124371858143,0.500518951631282,0.499135379883267,0.5,0.5,0.499481048368718,0.500864620116733,0.5,0.499653972371345,0.49982695624153,0.49982695624153,0.500346027628655,0.499308184212929,0.5,0.49982695624153,0.499308184212929,0.500346087475494,0.500519071262802,0.499480928737198,0.500346027628655,0.49982695624153,0.144332203256768,0.500805909801158,0.499653972371345,0.000172924002627143,0.5,0.000346087516939875,0.960587879357513,0.128710780892764,2.23820308898048,0.5,72.2295231444495
CBC_1021,CBC_1021_MSI_AV_v3_Vset4_Aset3_2023-07-18_16h15.57.561.csv,3,38,0,1,z,0,1,1,aud,B,63,1,0B,1B,0,1,b,2.41661939999904,1,0,0,0,0B,1B,B01,2.17853244432407,0.500518951631282,0.499135379883267,0.5,0.5,0.499481048368718,0.500864620116733,0.5,0.499653972371345,0.49982695624153,0.49982695624153,0.500518951631282,0.499308184212929,0.5,0.49982695624153,0.499308184212929,0.500346087475494,0.498616430735193,0.501383569264807,0.499481048368718,0.500864620116733,0.149128526445391,0.499004329462767,-0.499481048368718,-0.000172864155788455,0.5,0.000346087516939875,0.960587879357513,0.128710780892764,2.23820308898048,0.5,72.2295231444495
CBC_1021,CBC_1021_MSI_AV_v3_Vset4_Aset3_2023-07-18_16h15.57.561.csv,3,39,0,3,b,1,0,3,aud,A,9,1,0A,3A,1,0,z,2.3924737999987,0,1,0,0,3A,0A,A03,3.98898404656427,0.500518951631282,0.499135379883267,0.5,0.5,0.499308184212929,0.500864620116733,0.5,0.499653972371345,0.49982695624153,0.49982695624153,0.500518951631282,0.499308184212929,0.5,0.49982695624153,0.499308184212929,0.500346087475494,0.499481048368718,0.500518951631282,0.5,0.500518951631282,0.15312122683665,0.500324615715254,-0.5,-0.000173043758469937,0.5,0.000346087516939875,0.960587879357513,0.128710780892764,2.23820308898048,0.5,72.2295231444495
CBC_1021,CBC_1021_MSI_AV_v3_Vset4_Aset3_2023-07-18_16h15.57.561.csv,3,40,2,3,b,1,0,0,aud,C,63,0,2C,3C,0,1,z,1.89745969999967,0,1,0,1,3C,2C,C23,2.62103882411258,0.500518951631282,0.499135379883267,0.5,0.49982695624153,0.499308184212929,0.500864620116733,0.5,0.499653972371345,0.49982695624153,0.49982695624153,0.500518951631282,0.499308184212929,0.5,0.49982695624153,0.499308184212929,0.500346087475494,0.498789234320398,0.501210765679602,0.499308184212929,0.500518951631282,0.248451259505213,0.499433761552712,0.500691815787071,0.000173283187277864,0.5,0.000346087516939875,0.960587879357513,0.128710780892764,2.23820308898048,0.5,72.2295231444495
CBC_1021,CBC_1021_MSI_AV_v3_Vset4_Aset3_2023-07-18_16h15.57.561.csv,3,41,0,1,b,1,0,3,aud,A,63,1,0A,1A,1,0,b,2.70687700000053,1,0,1,1,0A,1A,A01,2.41591377830105,0.500518951631282,0.499135379883267,0.5,0.49982695624153,0.499308184212929,0.500864620116733,0.5,0.499653972371345,0.49982695624153,0.49982695624153,0.500518951631282,0.499481467400207,0.5,0.49982695624153,0.499308184212929,0.500346087475494,0.501383569264807,0.498616430735193,0.500518951631282,0.499135379883267,0.112415645610223,0.500650293562787,0.499481048368718,0.000172864155788455,0.5,0.000346087516939875,0.960587879357513,0.128710780892764,2.23820308898048,0.5,72.2295231444495
CBC_1021,CBC_1021_MSI_AV_v3_Vset4_Aset3_2023-07-18_16h15.57.561.csv,3,42,2,3,z,0,1,2,aud,D,63,1,2D,3D,0,1,z,1.89929929999926,0,1,1,1,3D,2D,D23,2.43361335540045,0.500691815787071,0.499135379883267,0.5,0.49982695624153,0.499308184212929,0.500864620116733,0.5,0.499653972371345,0.49982695624153,0.49982695624153,0.500518951631282,0.499481467400207,0.5,0.49982695624153,0.499308184212929,0.500346087475494,0.50103790226855,0.49896209773145,0.500346087475494,0.499308184212929,0.248207514606629,0.49983540186804,0.499653912524506,0.0001729239819149,0.5,0.000346087516939875,0.960587879357513,0.128710780892764,2.23820308898048,0.5,72.2295231444495
CBC_1021,CBC_1021_MSI_AV_v3_Vset4_Aset3_2023-07-18_16h15.57.561.csv,3,43,3,2,z,0,1,0,aud,C,63,1,3C,2C,0,1,b,2.38355459999912,1,0,0,0,3C,2C,C32,2.96183072187831,0.500691815787071,0.499135379883267,0.5,0.49982695624153,0.499308184212929,0.500864620116733,0.5,0.499653972371345,0.49982695624153,0.49982695624153,0.500518951631282,0.499481467400207,0.5,0.49982695624153,0.499308184212929,0.500519011457409,0.498962516885644,0.501037483114356,0.499481467400207,0.500518951631282,0.1544268546188,0.500178154789621,-0.499481467400207,-0.000172864300810023,0.5,0.000346087516939875,0.960587879357513,0.128710780892764,2.23820308898048,0.5,72.2295231444495
CBC_1021,CBC_1021_MSI_AV_v3_Vset4_Aset3_2023-07-18_16h15.57.561.csv,3,44,3,1,b,1,0,2,aud,D,27,1,3D,1D,1,0,z,2.15920449999976,0,1,0,0,1D,3D,D31,3.38439026334577,0.500691815787071,0.499135379883267,0.5,0.49982695624153,0.499308184212929,0.500864620116733,0.5,0.499653972371345,0.49982695624153,0.49982695624153,0.500518951631282,0.499308603099397,0.5,0.49982695624153,0.499308184212929,0.500519011457409,0.49930794503274,0.50069205496726,0.49982695624153,0.500519011457409,0.192493555482191,0.499946281847866,-0.49982695624153,-0.000172983870185247,0.5,0.000346087516939875,0.960587879357513,0.128710780892764,2.23820308898048,0.5,72.2295231444495
CBC_1021,CBC_1021_MSI_TV_v3_Vset1_Tset2_2023-07-18_16h24.41.177.csv,4,1,0,1,b,1,0,3,tac,A,63,1,0A,1A,1,0,z,1.82615599999735,0,1,0,0,1A,0A,A01,2.77258872223978,0.5,0.5,0.5,0.5,0.5,0.5,0.5,0.5,0.5,0.5,0.5,0.5,0.5,0.5,0.5,0.5,0.5,0.5,0.5,0.5,0.181858676541718,0.49978056937924,-0.5,-0.0083844444953507,0.5,0.0167688889907014,0.541069681471222,5.16180034553928,2.46368611499858,0.5,74.1379728775995
CBC_1021,CBC_1021_MSI_TV_v3_Vset1_Tset2_2023-07-18_16h24.41.177.csv,4,2,2,3,b,1,0,0,tac,C,63,1,2C,3C,1,0,b,1.56052449999879,1,0,1,1,2C,3C,C23,2.83321334405622,0.5,0.491615555504649,0.5,0.5,0.5,0.5,0.5,0.5,0.5,0.5,0.5,0.5,0.5,0.5,0.5,0.5,0.5,0.5,0.5,0.5,0.225034671876691,0.499942614434751,0.5,0.0083844444953507,0.5,0.0167688889907014,0.541069681471222,5.16180034553928,2.46368611499858,0.5,74.1379728775995
CBC_1021,CBC_1021_MSI_TV_v3_Vset1_Tset2_2023-07-18_16h24.41.177.csv,4,3,2,0,z,0,1,3,tac,A,27,1,2A,0A,0,1,z,2.06077549999827,0,1,1,1,0A,2A,A20,2.89037175789616,0.5,0.491615555504649,0.5,0.5,0.5,0.5,0.5,0.5,0.5,0.5,0.508384444495351,0.5,0.5,0.5,0.5,0.5,0.5,0.5,0.5,0.5,0.150430577252669,0.500015808172372,0.5,0.0083844444953507,0.5,0.0167688889907014,0.541069681471222,5.16180034553928,2.46368611499858,0.5,74.1379728775995
CBC_1021,CBC_1021_MSI_TV_v3_Vset1_Tset2_2023-07-18_16h24.41.177.csv,4,4,0,1,z,0,1,1,tac,B,63,1,0B,1B,0,1,b,1.64233059999788,1,0,0,0,0B,1B,B01,2.94443897916644,0.508384444495351,0.491615555504649,0.5,0.5,0.5,0.5,0.5,0.5,0.5,0.5,0.508384444495351,0.5,0.5,0.5,0.5,0.5,0.5,0.5,0.5,0.5,0.210939208830626,0.500036078866285,-0.5,-0.0083844444953507,0.5,0.0167688889907014,0.541069681471222,5.16180034553928,2.46368611499858,0.5,74.1379728775995
CBC_1021,CBC_1021_MSI_TV_v3_Vset1_Tset2_2023-07-18_16h24.41.177.csv,4,5,3,2,b,1,0,2,tac,D,63,1,3D,2D,1,0,z,2.07523649999894,0,1,0,0,2D,3D,D32,2.99573227355399,0.508384444495351,0.491615555504649,0.5,0.5,0.491615555504649,0.5,0.5,0.5,0.5,0.5,0.508384444495351,0.5,0.5,0.5,0.5,0.5,0.5,0.5,0.5,0.5,0.148528383775224,0.499524873282057,-0.5,-0.0083844444953507,0.5,0.0167688889907014,0.541069681471222,5.16180034553928,2.46368611499858,0.5,74.1379728775995
CBC_1021,CBC_1021_MSI_TV_v3_Vset1_Tset2_2023-07-18_16h24.41.177.csv,4,6,2,1,z,0,1,1,tac,B,9,1,2B,1B,0,1,b,1.9783727999984,1,0,0,0,2B,1B,B21,3.04452243772342,0.508384444495351,0.491615555504649,0.5,0.5,0.491615555504649,0.5,0.5,0.5,0.5,0.5,0.508384444495351,0.5,0.5,0.5,0.491615555504649,0.5,0.5,0.5,0.5,0.5,0.160491793986897,0.498944293483041,-0.5,-0.0083844444953507,0.5,0.0167688889907014,0.541069681471222,5.16180034553928,2.46368611499858,0.5,74.1379728775995
CBC_1021,CBC_1021_MSI_TV_v3_Vset1_Tset2_2023-07-18_16h24.41.177.csv,4,7,3,1,b,1,0,2,tac,D,27,1,3D,1D,1,0,z,2.22683749999851,0,1,0,0,1D,3D,D31,3.09104245335832,0.508384444495351,0.491615555504649,0.5,0.5,0.491615555504649,0.5,0.491615555504649,0.5,0.5,0.5,0.508384444495351,0.5,0.5,0.5,0.491615555504649,0.5,0.5,0.5,0.5,0.5,0.131387878514738,0.49979695416819,-0.5,-0.0083844444953507,0.5,0.0167688889907014,0.541069681471222,5.16180034553928,2.46368611499858,0.5,74.1379728775995
CBC_1021,CBC_1021_MSI_TV_v3_Vset1_Tset2_2023-07-18_16h24.41.177.csv,4,8,0,1,b,1,0,3,tac,A,63,1,0A,1A,1,0,b,2.69532539999818,1,0,1,1,0A,1A,A01,2.4423470353692,0.508384444495351,0.491615555504649,0.5,0.5,0.491615555504649,0.5,0.491615555504649,0.5,0.5,0.5,0.508384444495351,0.5,0.5,0.491615555504649,0.491615555504649,0.5,0.516764174977823,0.483235825022177,0.508384444495351,0.491615555504649,0.10765221661585,0.605184642340236,0.491615555504649,0.00824384667635946,0.5,0.0167688889907014,0.541069681471222,5.16180034553928,2.46368611499858,0.5,74.1379728775995
CBC_1021,CBC_1021_MSI_TV_v3_Vset1_Tset2_2023-07-18_16h24.41.177.csv,4,9,1,0,z,0,1,3,tac,A,63,1,1A,0A,0,1,z,2.8936629999971,0,1,1,1,0A,1A,A10,3.17805383034795,0.51662829117171,0.491615555504649,0.5,0.5,0.491615555504649,0.5,0.491615555504649,0.5,0.5,0.5,0.508384444495351,0.5,0.5,0.491615555504649,0.491615555504649,0.5,0.524998794440934,0.475001205559066,0.51662829117171,0.491615555504649,0.0972086308807027,0.654544510846692,0.48337170882829,0.00810560652658723,0.5,0.0167688889907014,0.541069681471222,5.16180034553928,2.46368611499858,0.5,74.1379728775995
CBC_1021,CBC_1021_MSI_TV_v3_Vset1_Tset2_2023-07-18_16h24.41.177.csv,4,10,0,2,z,0,1,0,tac,C,27,1,0C,2C,0,1,z,1.74426989999847,0,1,1,1,2C,0C,C02,3.2188758248682,0.524733897698297,0.491615555504649,0.5,0.5,0.491615555504649,0.5,0.491615555504649,0.5,0.5,0.5,0.508384444495351,0.5,0.5,0.491615555504649,0.491615555504649,0.5,0.508384444495351,0.491615555504649,0.508384444495351,0.5,0.215553892102838,0.553837965418116,0.491615555504649,0.00824384667635946,0.5,0.0167688889907014,0.541069681471222,5.16180034553928,2.46368611499858,0.5,74.1379728775995
CBC_1021,CBC_1021_MSI_TV_v3_Vset1_Tset2_2023-07-18_16h24.41.177.csv,4,11,1,0,b,1,0,1,tac,B,63,1,1B,0B,1,0,b,1.98008499999924,1,0,1,1,1B,0B,B10,3.25809653802148,0.524733897698297,0.491615555504649,0.5,0.5,0.491615555504649,0.5,0.491615555504649,0.5,0.5,0.5,0.51662829117171,0.5,0.5,0.491615555504649,0.491615555504649,0.5,0.508384444495351,0.491615555504649,0.5,0.491615555504649,0.177419454119391,0.552185528307252,0.5,0.0083844444953507,0.5,0.0167688889907014,0.541069681471222,5.16180034553928,2.46368611499858,0.5,74.1379728775995
CBC_1021,CBC_1021_MSI_TV_v3_Vset1_Tset2_2023-07-18_16h24.41.177.csv,4,12,1,0,z,0,1,3,tac,A,63,1,1A,0A,0,1,z,2.36100110000007,0,1,1,1,0A,1A,A10,2.60268968544438,0.524733897698297,0.491615555504649,0.5,0.5,0.491615555504649,0.508384444495351,0.491615555504649,0.5,0.5,0.5,0.51662829117171,0.5,0.5,0.491615555504649,0.491615555504649,0.5,0.533090892637393,0.466909107362607,0.524733897698297,0.491615555504649,0.161323173221469,0.698192708544558,0.475266102301703,0.00796968451054058,0.5,0.0167688889907014,0.541069681471222,5.16180034553928,2.46368611499858,0.5,74.1379728775995
CBC_1021,CBC_1021_MSI_TV_v3_Vset1_Tset2_2023-07-18_16h24.41.177.csv,4,13,2,3,b,1,0,0,tac,C,63,1,2C,3C,1,0,b,2.24321349999991,1,0,1,1,2C,3C,C23,2.63905732961526,0.532703582208838,0.491615555504649,0.5,0.5,0.491615555504649,0.508384444495351,0.491615555504649,0.5,0.5,0.5,0.51662829117171,0.5,0.5,0.491615555504649,0.491615555504649,0.5,0.51662829117171,0.48337170882829,0.51662829117171,0.5,0.156251433203577,0.60407783684684,0.48337170882829,0.00810560652658723,0.5,0.0167688889907014,0.541069681471222,5.16180034553928,2.46368611499858,0.5,74.1379728775995
CBC_1021,CBC_1021_MSI_TV_v3_Vset1_Tset2_2023-07-18_16h24.41.177.csv,4,14,2,0,z,0,1,3,tac,A,27,1,2A,0A,0,1,z,2.55104949999804,0,1,1,1,0A,2A,A20,2.67414864942653,0.532703582208838,0.491615555504649,0.5,0.5,0.491615555504649,0.508384444495351,0.491615555504649,0.5,0.5,0.5,0.524733897698297,0.5,0.5,0.491615555504649,0.491615555504649,0.5,0.532703582208838,0.467296417791162,0.532703582208838,0.5,0.136555566617257,0.697087946426109,0.467296417791162,0.00783604175569242,0.5,0.0167688889907014,0.541069681471222,5.16180034553928,2.46368611499858,0.5,74.1379728775995
CBC_1021,CBC_1021_MSI_TV_v3_Vset1_Tset2_2023-07-18_16h24.41.177.csv,4,15,0,1,z,0,1,1,tac,B,63,1,0B,1B,0,1,b,2.44817259999945,1,0,0,0,0B,1B,B01,2.70805020110221,0.54053962396453,0.491615555504649,0.5,0.5,0.491615555504649,0.508384444495351,0.491615555504649,0.5,0.5,0.5,0.524733897698297,0.5,0.5,0.491615555504649,0.491615555504649,0.5,0.483235825022177,0.516764174977823,0.491615555504649,0.508384444495351,0.0860951660007578,0.394446129985139,-0.491615555504649,-0.00824384667635946,0.5,0.0167688889907014,0.541069681471222,5.16180034553928,2.46368611499858,0.5,74.1379728775995
CBC_1021,CBC_1021_MSI_TV_v3_Vset1_Tset2_2023-07-18_16h24.41.177.csv,4,16,1,0,b,1,0,1,tac,B,63,1,1B,0B,1,0,z,2.60687359999793,0,1,0,0,0B,1B,B10,2.7408400239252,0.54053962396453,0.491615555504649,0.5,0.5,0.48337170882829,0.508384444495351,0.491615555504649,0.5,0.5,0.5,0.524733897698297,0.5,0.5,0.491615555504649,0.491615555504649,0.5,0.475001205559066,0.524998794440934,0.48337170882829,0.508384444495351,0.0656067644213326,0.346429598216576,-0.48337170882829,-0.00810560652658723,0.5,0.0167688889907014,0.541069681471222,5.16180034553928,2.46368611499858,0.5,74.1379728775995
CBC_1021,CBC_1021_MSI_TV_v3_Vset1_Tset2_2023-07-18_16h24.41.177.csv,4,17,2,3,b,1,0,0,tac,C,63,1,2C,3C,1,0,z,1.35420209999756,0,1,0,0,3C,2C,C23,2.36712361413162,0.54053962396453,0.491615555504649,0.5,0.5,0.475266102301703,0.508384444495351,0.491615555504649,0.5,0.5,0.5,0.524733897698297,0.5,0.5,0.491615555504649,0.491615555504649,0.5,0.475266102301703,0.524733897698297,0.5,0.524733897698297,0.186885228141186,0.347224113371193,-0.5,-0.0083844444953507,0.5,0.0167688889907014,0.541069681471222,5.16180034553928,2.46368611499858,0.5,74.1379728775995
CBC_1021,CBC_1021_MSI_TV_v3_Vset1_Tset2_2023-07-18_16h24.41.177.csv,4,18,1,3,z,0,1,2,tac,D,27,1,1D,3D,0,1,b,1.59984899999836,1,0,0,0,1D,3D,D13,3.49650756146648,0.54053962396453,0.491615555504649,0.5,0.5,0.475266102301703,0.508384444495351,0.491615555504649,0.5,0.5,0.5,0.524733897698297,0.491615555504649,0.5,0.491615555504649,0.491615555504649,0.5,0.491615555504649,0.508384444495351,0.491615555504649,0.5,0.195233922675392,0.446656551175536,-0.491615555504649,-0.00824384667635946,0.5,0.0167688889907014,0.541069681471222,5.16180034553928,2.46368611499858,0.5,74.1379728775995
CBC_1021,CBC_1021_MSI_TV_v3_Vset1_Tset2_2023-07-18_16h24.41.177.csv,4,19,2,1,b,1,0,0,tac,C,9,1,2C,1C,1,0,z,2.20953799999916,0,1,0,0,1C,2C,C21,3.52636052461616,0.54053962396453,0.491615555504649,0.5,0.5,0.475266102301703,0.508384444495351,0.491615555504649,0.5,0.5,0.5,0.524733897698297,0.491615555504649,0.5,0.48337170882829,0.491615555504649,0.5,0.475266102301703,0.524733897698297,0.5,0.524733897698297,0.0922047185021843,0.34782837368804,-0.5,-0.0083844444953507,0.5,0.0167688889907014,0.541069681471222,5.16180034553928,2.46368611499858,0.5,74.1379728775995
CBC_1021,CBC_1021_MSI_TV_v3_Vset1_Tset2_2023-07-18_16h24.41.177.csv,4,20,1,3,b,1,0,1,tac,B,27,1,1B,3B,1,0,b,3.70657609999944,1,0,1,1,1B,3B,B13,3.55534806148941,0.54053962396453,0.491615555504649,0.5,0.5,0.475266102301703,0.508384444495351,0.491615555504649,0.5,0.5,0.491615555504649,0.524733897698297,0.491615555504649,0.5,0.48337170882829,0.491615555504649,0.5,0.508384444495351,0.491615555504649,0.508384444495351,0.5,0.0434429350894862,0.553824991449287,0.491615555504649,0.00824384667635946,0.5,0.0167688889907014,0.541069681471222,5.16180034553928,2.46368611499858,0.5,74.1379728775995
CBC_1021,CBC_1021_MSI_TV_v3_Vset1_Tset2_2023-07-18_16h24.41.177.csv,4,21,2,3,z,0,1,2,tac,D,63,1,2D,3D,0,1,b,1.79750149999927,1,0,0,0,2D,3D,D23,3.58351893845611,0.54053962396453,0.491615555504649,0.5,0.5,0.475266102301703,0.51662829117171,0.491615555504649,0.5,0.5,0.491615555504649,0.524733897698297,0.491615555504649,0.5,0.48337170882829,0.491615555504649,0.5,0.491615555504649,0.508384444495351,0.491615555504649,0.5,0.166431144267448,0.446476405932154,-0.491615555504649,-0.00824384667635946,0.5,0.0167688889907014,0.541069681471222,5.16180034553928,2.46368611499858,0.5,74.1379728775995
CBC_1021,CBC_1021_MSI_TV_v3_Vset1_Tset2_2023-07-18_16h24.41.177.csv,4,22,0,1,z,0,1,1,tac,B,63,0,0B,1B,1,0,z,1.69682359999751,0,1,1,0,1B,0B,B01,2.51230562397611,0.54053962396453,0.491615555504649,0.5,0.5,0.475266102301703,0.51662829117171,0.491615555504649,0.5,0.5,0.491615555504649,0.524733897698297,0.491615555504649,0.5,0.48337170882829,0.48337170882829,0.5,0.541294254460973,0.458705745539027,0.51662829117171,0.475266102301703,0.307251734926449,0.740610302055075,-0.51662829117171,-0.00866328246411416,0.5,0.0167688889907014,0.541069681471222,5.16180034553928,2.46368611499858,0.5,74.1379728775995
CBC_1021,CBC_1021_MSI_TV_v3_Vset1_Tset2_2023-07-18_16h24.41.177.csv,4,23,0,3,b,1,0,3,tac,A,9,1,0A,3A,1,0,b,2.56978069999786,1,0,1,1,0A,3A,A03,3.63758615972639,0.54053962396453,0.491615555504649,0.5,0.5,0.475266102301703,0.507965008707596,0.491615555504649,0.5,0.5,0.491615555504649,0.524733897698297,0.491615555504649,0.5,0.48337170882829,0.48337170882829,0.5,0.54053962396453,0.45946037603547,0.54053962396453,0.5,0.139522708947438,0.737832223220914,0.45946037603547,0.00770464004136471,0.5,0.0167688889907014,0.541069681471222,5.16180034553928,2.46368611499858,0.5,74.1379728775995
CBC_1021,CBC_1021_MSI_TV_v3_Vset1_Tset2_2023-07-18_16h24.41.177.csv,4,24,3,2,b,1,0,2,tac,D,63,1,3D,2D,1,0,z,1.66435799999999,0,1,0,0,2D,3D,D32,2.9704144655697,0.548244264005895,0.491615555504649,0.5,0.5,0.475266102301703,0.507965008707596,0.491615555504649,0.5,0.5,0.491615555504649,0.524733897698297,0.491615555504649,0.5,0.48337170882829,0.48337170882829,0.5,0.48337170882829,0.51662829117171,0.48337170882829,0.5,0.165440821676197,0.396946043077167,-0.48337170882829,-0.00810560652658723,0.5,0.0167688889907014,0.541069681471222,5.16180034553928,2.46368611499858,0.5,74.1379728775995
CBC_1021,CBC_1021_MSI_TV_v3_Vset1_Tset2_2023-07-18_16h24.41.177.csv,4,25,3,1,z,0,1,1,tac,B,27,1,3B,1B,0,1,b,1.48209199999837,1,0,0,0,3B,1B,B31,3.68887945411394,0.548244264005895,0.491615555504649,0.5,0.5,0.475266102301703,0.507965008707596,0.491615555504649,0.5,0.5,0.491615555504649,0.524733897698297,0.491615555504649,0.5,0.48337170882829,0.475266102301703,0.5,0.492034991292404,0.507965008707596,0.5,0.507965008707596,0.215087972597151,0.448610889401826,-0.5,-0.0083844444953507,0.5,0.0167688889907014,0.541069681471222,5.16180034553928,2.46368611499858,0.5,74.1379728775995
CBC_1021,CBC_1021_MSI_TV_v3_Vset1_Tset2_2023-07-18_16h24.41.177.csv,4,26,3,2,z,0,1,0,tac,C,63,1,3C,2C,0,1,b,1.00899009999739,1,0,0,0,3C,2C,C32,3.71357206670431,0.548244264005895,0.491615555504649,0.5,0.5,0.475266102301703,0.507965008707596,0.491615555504649,0.491615555504649,0.5,0.491615555504649,0.524733897698297,0.491615555504649,0.5,0.48337170882829,0.475266102301703,0.5,0.466909107362607,0.533090892637393,0.491615555504649,0.524733897698297,0.193337940023272,0.300268812998709,-0.491615555504649,-0.00824384667635946,0.5,0.0167688889907014,0.541069681471222,5.16180034553928,2.46368611499858,0.5,74.1379728775995
CBC_1021,CBC_1021_MSI_TV_v3_Vset1_Tset2_2023-07-18_16h24.41.177.csv,4,27,0,2,z,0,1,0,tac,C,27,1,0C,2C,0,1,z,1.01136679999763,0,1,1,1,2C,0C,C02,3.04452243772342,0.548244264005895,0.491615555504649,0.5,0.5,0.475266102301703,0.507965008707596,0.491615555504649,0.491615555504649,0.5,0.491615555504649,0.524733897698297,0.48337170882829,0.5,0.48337170882829,0.475266102301703,0.5,0.524733897698297,0.475266102301703,0.524733897698297,0.5,0.40983099933054,0.652735534292837,0.475266102301703,0.00796968451054058,0.5,0.0167688889907014,0.541069681471222,5.16180034553928,2.46368611499858,0.5,74.1379728775995
CBC_1021,CBC_1021_MSI_TV_v3_Vset1_Tset2_2023-07-18_16h24.41.177.csv,4,28,1,0,b,1,0,1,tac,B,63,1,1B,0B,1,0,b,2.06040539999776,1,0,1,1,1B,0B,B10,2.66258782702545,0.548244264005895,0.491615555504649,0.5,0.5,0.475266102301703,0.507965008707596,0.491615555504649,0.491615555504649,0.5,0.491615555504649,0.532703582208838,0.48337170882829,0.5,0.48337170882829,0.475266102301703,0.5,0.53267315921011,0.46732684078989,0.507965008707596,0.475266102301703,0.209204797758757,0.69690752648347,0.492034991292404,0.00825088014852305,0.5,0.0167688889907014,0.541069681471222,5.16180034553928,2.46368611499858,0.5,74.1379728775995
CBC_1021,CBC_1021_MSI_TV_v3_Vset1_Tset2_2023-07-18_16h24.41.177.csv,4,29,3,2,z,0,1,0,tac,C,63,1,3C,2C,0,1,z,1.41445519999797,0,1,1,1,2C,3C,C32,3.09104245335832,0.548244264005895,0.491615555504649,0.5,0.5,0.475266102301703,0.516215888856119,0.491615555504649,0.491615555504649,0.5,0.491615555504649,0.532703582208838,0.48337170882829,0.5,0.48337170882829,0.475266102301703,0.5,0.549224798675538,0.450775201324462,0.532703582208838,0.48337170882829,0.4210673233191,0.778058501561444,0.467296417791162,0.00783604175569242,0.5,0.0167688889907014,0.541069681471222,5.16180034553928,2.46368611499858,0.5,74.1379728775995
CBC_1021,CBC_1021_MSI_TV_v3_Vset1_Tset2_2023-07-18_16h24.41.177.csv,4,30,0,1,b,1,0,3,tac,A,63,1,0A,1A,1,0,b,2.43777779999982,1,0,1,1,0A,1A,A01,2.70805020110221,0.548244264005895,0.491615555504649,0.5,0.5,0.475266102301703,0.516215888856119,0.491615555504649,0.491615555504649,0.5,0.491615555504649,0.54053962396453,0.48337170882829,0.5,0.48337170882829,0.475266102301703,0.5,0.556537230955405,0.443462769044595,0.548244264005895,0.491615555504649,0.164520243599343,0.808200463966597,0.451755735994105,0.00757544178779775,0.5,0.0167688889907014,0.541069681471222,5.16180034553928,2.46368611499858,0.5,74.1379728775995
CBC_1021,CBC_1021_MSI_TV_v3_Vset1_Tset2_2023-07-18_16h24.41.177.csv,4,31,3,2,b,1,0,2,tac,D,63,1,3D,2D,1,0,z,1.68140869999843,0,1,0,0,2D,3D,D32,2.73002910782099,0.555819705793693,0.491615555504649,0.5,0.5,0.475266102301703,0.516215888856119,0.491615555504649,0.491615555504649,0.5,0.491615555504649,0.54053962396453,0.48337170882829,0.5,0.48337170882829,0.475266102301703,0.5,0.475266102301703,0.524733897698297,0.475266102301703,0.5,0.143802621902655,0.347684908689397,-0.475266102301703,-0.00796968451054058,0.5,0.0167688889907014,0.541069681471222,5.16180034553928,2.46368611499858,0.5,74.1379728775995
CBC_1021,CBC_1021_MSI_TV_v3_Vset1_Tset2_2023-07-18_16h24.41.177.csv,4,32,3,2,z,0,1,0,tac,C,63,1,3C,2C,0,1,z,1.33510279999791,0,1,1,1,2C,3C,C32,2.75153531304195,0.555819705793693,0.491615555504649,0.5,0.5,0.475266102301703,0.516215888856119,0.491615555504649,0.491615555504649,0.5,0.491615555504649,0.54053962396453,0.48337170882829,0.5,0.48337170882829,0.467296417791162,0.5,0.557014181033187,0.442985818966813,0.54053962396453,0.48337170882829,0.479932181017308,0.809927331143146,0.45946037603547,0.00770464004136471,0.5,0.0167688889907014,0.541069681471222,5.16180034553928,2.46368611499858,0.5,74.1379728775995
CBC_1021,CBC_1021_MSI_TV_v3_Vset1_Tset2_2023-07-18_16h24.41.177.csv,4,33,1,3,z,0,1,2,tac,D,27,1,1D,3D,0,1,b,2.18766239999968,1,0,0,0,1D,3D,D13,3.17805383034795,0.555819705793693,0.491615555504649,0.5,0.5,0.475266102301703,0.516215888856119,0.491615555504649,0.491615555504649,0.5,0.491615555504649,0.548244264005895,0.48337170882829,0.5,0.48337170882829,0.467296417791162,0.5,0.48337170882829,0.51662829117171,0.48337170882829,0.5,0.107209365038232,0.395860746772749,-0.48337170882829,-0.00810560652658723,0.5,0.0167688889907014,0.541069681471222,5.16180034553928,2.46368611499858,0.5,74.1379728775995
CBC_1021,CBC_1021_MSI_TV_v3_Vset1_Tset2_2023-07-18_16h24.41.177.csv,4,34,2,0,b,1,0,0,tac,C,27,1,2C,0C,1,0,z,1.64771689999907,0,1,0,0,0C,2C,C20,3.89182029811063,0.555819705793693,0.491615555504649,0.5,0.5,0.475266102301703,0.516215888856119,0.491615555504649,0.491615555504649,0.5,0.491615555504649,0.548244264005895,0.48337170882829,0.5,0.475266102301703,0.467296417791162,0.5,0.451755735994105,0.548244264005895,0.5,0.548244264005895,0.0990199542608599,0.226432839875657,-0.5,-0.0083844444953507,0.5,0.0167688889907014,0.541069681471222,5.16180034553928,2.46368611499858,0.5,74.1379728775995
CBC_1021,CBC_1021_MSI_TV_v3_Vset1_Tset2_2023-07-18_16h24.41.177.csv,4,35,3,2,b,1,0,2,tac,D,63,0,3D,2D,0,1,b,0.681064499998683,1,0,1,0,3D,2D,D32,2.52572864430826,0.555819705793693,0.491615555504649,0.5,0.5,0.475266102301703,0.516215888856119,0.491615555504649,0.491615555504649,0.491615555504649,0.491615555504649,0.548244264005895,0.48337170882829,0.5,0.475266102301703,0.467296417791162,0.5,0.532703582208838,0.467296417791162,0.5,0.467296417791162,0.0625000766362567,0.696873084674314,-0.5,-0.0083844444953507,0.5,0.0167688889907014,0.541069681471222,5.16180034553928,2.46368611499858,0.5,74.1379728775995
CBC_1021,CBC_1021_MSI_TV_v3_Vset1_Tset2_2023-07-18_16h24.41.177.csv,4,36,0,1,b,1,0,3,tac,A,63,1,0A,1A,1,0,b,1.86334619999798,1,0,1,1,0A,1A,A01,2.54553127160444,0.555819705793693,0.491615555504649,0.5,0.5,0.475266102301703,0.516215888856119,0.491615555504649,0.491615555504649,0.491615555504649,0.491615555504649,0.548244264005895,0.48337170882829,0.5,0.475266102301703,0.467296417791162,0.491615555504649,0.564084180288151,0.435915819711849,0.555819705793693,0.491615555504649,0.29872691560509,0.836495955856992,0.444180294206307,0.00744841004540265,0.5,0.0167688889907014,0.541069681471222,5.16180034553928,2.46368611499858,0.5,74.1379728775995
CBC_1021,CBC_1021_MSI_TV_v3_Vset1_Tset2_2023-07-18_16h24.41.177.csv,4,37,3,2,z,0,1,0,tac,C,63,1,3C,2C,0,1,b,2.02229059999809,1,0,0,0,3C,2C,C32,2.56494935746154,0.563268115839096,0.491615555504649,0.5,0.5,0.475266102301703,0.516215888856119,0.491615555504649,0.491615555504649,0.491615555504649,0.491615555504649,0.548244264005895,0.48337170882829,0.5,0.475266102301703,0.467296417791162,0.491615555504649,0.435334947131692,0.564665052868308,0.48337170882829,0.548244264005895,0.0491354067163844,0.162169174927704,-0.48337170882829,-0.00810560652658723,0.5,0.0167688889907014,0.541069681471222,5.16180034553928,2.46368611499858,0.5,74.1379728775995
CBC_1021,CBC_1021_MSI_TV_v3_Vset1_Tset2_2023-07-18_16h24.41.177.csv,4,38,2,0,z,0,1,3,tac,A,27,1,2A,0A,0,1,z,1.40693569999712,0,1,1,1,0A,2A,A20,2.87167962488401,0.563268115839096,0.491615555504649,0.5,0.5,0.475266102301703,0.516215888856119,0.491615555504649,0.491615555504649,0.491615555504649,0.491615555504649,0.548244264005895,0.475266102301703,0.5,0.475266102301703,0.467296417791162,0.491615555504649,0.563268115839096,0.436731884160904,0.563268115839096,0.5,0.470359534241977,0.832888749538623,0.436731884160904,0.00732350848419407,0.5,0.0167688889907014,0.541069681471222,5.16180034553928,2.46368611499858,0.5,74.1379728775995
CBC_1021,CBC_1021_MSI_TV_v3_Vset1_Tset2_2023-07-18_16h24.41.177.csv,4,39,3,2,b,1,0,2,tac,D,63,1,3D,2D,1,0,b,2.02566309999929,1,0,1,1,3D,2D,D32,2.37954613413017,0.57059162432329,0.491615555504649,0.5,0.5,0.475266102301703,0.516215888856119,0.491615555504649,0.491615555504649,0.491615555504649,0.491615555504649,0.548244264005895,0.475266102301703,0.5,0.475266102301703,0.467296417791162,0.491615555504649,0.524345840364598,0.475654159635402,0.491615555504649,0.467296417791162,0.201130016555722,0.649555448469521,0.508384444495351,0.00852504231434193,0.5,0.0167688889907014,0.541069681471222,5.16180034553928,2.46368611499858,0.5,74.1379728775995
CBC_1021,CBC_1021_MSI_TV_v3_Vset1_Tset2_2023-07-18_16h24.41.177.csv,4,40,2,3,z,0,1,2,tac,D,63,1,2D,3D,0,1,z,1.16986499999803,0,1,1,1,3D,2D,D23,3.31418600467253,0.57059162432329,0.491615555504649,0.5,0.5,0.475266102301703,0.516215888856119,0.491615555504649,0.491615555504649,0.491615555504649,0.491615555504649,0.548244264005895,0.475266102301703,0.5,0.475266102301703,0.467296417791162,0.500140597818991,0.532843575961905,0.467156424038095,0.500140597818991,0.467296417791162,0.43168599447045,0.697347757614862,0.499859402181009,0.0083820868261317,0.5,0.0167688889907014,0.541069681471222,5.16180034553928,2.46368611499858,0.5,74.1379728775995
CBC_1021,CBC_1021_MSI_TV_v3_Vset1_Tset2_2023-07-18_16h24.41.177.csv,4,41,1,3,b,1,0,1,tac,B,27,1,1B,3B,1,0,b,1.0769124999988,1,0,1,1,1B,3B,B13,3.3322045101752,0.57059162432329,0.491615555504649,0.5,0.5,0.475266102301703,0.516215888856119,0.491615555504649,0.491615555504649,0.491615555504649,0.491615555504649,0.548244264005895,0.475266102301703,0.5,0.475266102301703,0.467296417791162,0.508522684645123,0.524586961858143,0.475413038141857,0.516215888856119,0.491615555504649,0.408762716822159,0.651685954956764,0.483784111143881,0.00811252205523688,0.5,0.0167688889907014,0.541069681471222,5.16180034553928,2.46368611499858,0.5,74.1379728775995
CBC_1021,CBC_1021_MSI_TV_v3_Vset1_Tset2_2023-07-18_16h24.41.177.csv,4,42,0,3,z,0,1,2,tac,D,9,1,0D,3D,0,1,z,1.96532979999938,0,1,1,1,3D,0D,D03,4.04305126783455,0.57059162432329,0.491615555504649,0.5,0.5,0.475266102301703,0.524328410911356,0.491615555504649,0.491615555504649,0.491615555504649,0.491615555504649,0.548244264005895,0.475266102301703,0.5,0.475266102301703,0.467296417791162,0.508522684645123,0.508522684645123,0.491477315354877,0.508522684645123,0.5,0.180068432034092,0.553721447053166,0.491477315354877,0.00824152854263387,0.5,0.0167688889907014,0.541069681471222,5.16180034553928,2.46368611499858,0.5,74.1379728775995
CBC_1021,CBC_1021_MSI_TV_v3_Vset1_Tset2_2023-07-18_16h24.41.177.csv,4,43,1,0,b,1,0,1,tac,B,63,1,1B,0B,1,0,b,2.41401569999834,1,0,1,1,1B,0B,B10,2.67414864942653,0.57059162432329,0.491615555504649,0.5,0.5,0.475266102301703,0.524328410911356,0.491615555504649,0.491615555504649,0.491615555504649,0.491615555504649,0.548244264005895,0.475266102301703,0.5,0.475266102301703,0.467296417791162,0.516764213187757,0.548944501851062,0.451055498148938,0.524328410911356,0.475266102301703,0.165576499789212,0.775927591818854,0.475671589088644,0.007976484073458,0.5,0.0167688889907014,0.541069681471222,5.16180034553928,2.46368611499858,0.5,74.1379728775995
CBC_1021,CBC_1021_MSI_TV_v3_Vset1_Tset2_2023-07-18_16h24.41.177.csv,4,44,1,0,z,0,1,3,tac,A,63,1,1A,0A,0,1,z,1.27259419999791,0,1,1,1,0A,1A,A10,2.97892515523761,0.57059162432329,0.491615555504649,0.5,0.5,0.475266102301703,0.532304894984814,0.491615555504649,0.491615555504649,0.491615555504649,0.491615555504649,0.548244264005895,0.475266102301703,0.5,0.475266102301703,0.467296417791162,0.516764213187757,0.578789535678334,0.421210464321666,0.57059162432329,0.491615555504649,0.594124169569447,0.880709957573403,0.42940837567671,0.00720070138340016,0.5,0.0167688889907014,0.541069681471222,5.16180034553928,2.46368611499858,0.5,74.1379728775995
