ID,filename,session,trial,visStimLeft,visStimRight,correctKey,leftCorrect,rightCorrect,secondStim,mod2Type,mod2Stim,frequency,rewardAccurate,stimPairLeft,stimPairRight,pCorrectLeft,pCorrectRight,key,reactionTime,choiceLeft,choiceRight,choiceAccurate,reward,chosenPair,otherPair,triplet,surprise,0A belief,1A belief,2A belief,3A belief,0B belief,1B belief,2B belief,3B belief,0C belief,1C belief,2C belief,3C belief,0D belief,1D belief,2D belief,3D belief,beliefPairNorm,beliefOtherPairNorm,beliefPair,beliefOtherPair,lik,corrLik,rewardPE,update2,fitCBCsimpleRW_CBCdriftDiffusionLR_startBelief,fitCBCsimpleRW_CBCdriftDiffusionLR_alpha1,fitCBCsimpleRW_CBCdriftDiffusionLR_nonDecisionTime,fitCBCsimpleRW_CBCdriftDiffusionLR_weight,fitCBCsimpleRW_CBCdriftDiffusionLR_startingBoundary,fitCBCsimpleRW_CBCdriftDiffusionLR_startingPoint,fit_CBCsimpleRW_CBCdriftDiffusionLR_NLL
CBC_1034,CBC_1034_MSI_TV_v3_Vset1_Tset1_2023-12-13_13h56.17.502.csv,1,1,1,0,z,0,1,1,tac,A,63,1,1A,0A,0,1,b,1.79910110000037,1,0,0,0,1A,0A,A10,2.77258872223978,0.5,0.5,0.5,0.5,0.5,0.5,0.5,0.5,0.5,0.5,0.5,0.5,0.5,0.5,0.5,0.5,0.5,0.5,0.5,0.5,0.197440720437613,0.500779714600322,-0.5,-0.0164260288896594,0.5,0.0328520577793189,0.644637365169296,1.25096167453721,2.67153484625921,0.5,88.1575589659815
CBC_1034,CBC_1034_MSI_TV_v3_Vset1_Tset1_2023-12-13_13h56.17.502.csv,1,2,3,2,b,1,0,0,tac,D,63,1,3D,2D,1,0,z,1.78742280000006,0,1,0,0,2D,3D,D32,2.83321334405622,0.5,0.483573971110341,0.5,0.5,0.5,0.5,0.5,0.5,0.5,0.5,0.5,0.5,0.5,0.5,0.5,0.5,0.5,0.5,0.5,0.5,0.198388060555172,0.499305149516865,-0.5,-0.0164260288896594,0.5,0.0328520577793189,0.644637365169296,1.25096167453721,2.67153484625921,0.5,88.1575589659815
CBC_1034,CBC_1034_MSI_TV_v3_Vset1_Tset1_2023-12-13_13h56.17.502.csv,1,3,2,0,b,1,0,2,tac,C,27,1,2C,0C,1,0,z,1.95006850000027,0,1,0,0,0C,2C,C20,2.89037175789616,0.5,0.483573971110341,0.5,0.5,0.5,0.5,0.5,0.5,0.5,0.5,0.5,0.5,0.5,0.5,0.483573971110341,0.5,0.5,0.5,0.5,0.5,0.178160620565423,0.500158215053272,-0.5,-0.0164260288896594,0.5,0.0328520577793189,0.644637365169296,1.25096167453721,2.67153484625921,0.5,88.1575589659815
CBC_1034,CBC_1034_MSI_TV_v3_Vset1_Tset1_2023-12-13_13h56.17.502.csv,1,4,1,0,z,0,1,1,tac,A,63,1,1A,0A,0,1,b,2.28672150000011,1,0,0,0,1A,0A,A10,2.2512917986065,0.5,0.483573971110341,0.5,0.5,0.5,0.5,0.5,0.5,0.483573971110341,0.5,0.5,0.5,0.5,0.5,0.483573971110341,0.5,0.491649825345054,0.508350174654945,0.483573971110341,0.5,0.137246625855404,0.485365027760856,-0.483573971110341,-0.0158864000394916,0.5,0.0328520577793189,0.644637365169296,1.25096167453721,2.67153484625921,0.5,88.1575589659815
CBC_1034,CBC_1034_MSI_TV_v3_Vset1_Tset1_2023-12-13_13h56.17.502.csv,1,5,3,1,z,0,1,3,tac,B,27,1,3B,1B,0,1,b,2.91291320000028,1,0,0,0,3B,1B,B31,2.99573227355399,0.5,0.467687571070849,0.5,0.5,0.5,0.5,0.5,0.5,0.483573971110341,0.5,0.5,0.5,0.5,0.5,0.483573971110341,0.5,0.5,0.5,0.5,0.5,0.0919172964386985,0.50103858710743,-0.5,-0.0164260288896594,0.5,0.0328520577793189,0.644637365169296,1.25096167453721,2.67153484625921,0.5,88.1575589659815
CBC_1034,CBC_1034_MSI_TV_v3_Vset1_Tset1_2023-12-13_13h56.17.502.csv,1,6,2,3,b,1,0,2,tac,C,63,1,2C,3C,1,0,z,1.97289880000017,0,1,0,0,3C,2C,C23,3.04452243772342,0.5,0.467687571070849,0.5,0.5,0.5,0.5,0.5,0.483573971110341,0.483573971110341,0.5,0.5,0.5,0.5,0.5,0.483573971110341,0.5,0.5,0.5,0.5,0.5,0.175310577218335,0.499857420051678,-0.5,-0.0164260288896594,0.5,0.0328520577793189,0.644637365169296,1.25096167453721,2.67153484625921,0.5,88.1575589659815
CBC_1034,CBC_1034_MSI_TV_v3_Vset1_Tset1_2023-12-13_13h56.17.502.csv,1,7,2,3,z,0,1,0,tac,D,63,1,2D,3D,0,1,z,2.28245570000036,0,1,1,1,3D,2D,D23,3.09104245335832,0.5,0.467687571070849,0.5,0.5,0.5,0.5,0.5,0.483573971110341,0.483573971110341,0.5,0.5,0.483573971110341,0.5,0.5,0.483573971110341,0.5,0.508350174654945,0.491649825345054,0.5,0.483573971110341,0.14564997853291,0.513572190634871,0.5,0.0164260288896594,0.5,0.0328520577793189,0.644637365169296,1.25096167453721,2.67153484625921,0.5,88.1575589659815
CBC_1034,CBC_1034_MSI_TV_v3_Vset1_Tset1_2023-12-13_13h56.17.502.csv,1,8,1,0,b,1,0,3,tac,B,63,1,1B,0B,1,0,b,1.63974000000007,1,0,1,1,1B,0B,B10,3.13549421592915,0.5,0.467687571070849,0.5,0.5,0.5,0.5,0.5,0.483573971110341,0.483573971110341,0.5,0.5,0.483573971110341,0.5,0.5,0.483573971110341,0.516426028889659,0.5,0.5,0.5,0.5,0.219003941747881,0.501118864828477,0.5,0.0164260288896594,0.5,0.0328520577793189,0.644637365169296,1.25096167453721,2.67153484625921,0.5,88.1575589659815
CBC_1034,CBC_1034_MSI_TV_v3_Vset1_Tset1_2023-12-13_13h56.17.502.csv,1,9,0,2,b,1,0,1,tac,A,27,1,0A,2A,1,0,z,1.51706330000025,0,1,0,0,2A,0A,A02,3.17805383034795,0.5,0.467687571070849,0.5,0.5,0.5,0.516426028889659,0.5,0.483573971110341,0.483573971110341,0.5,0.5,0.483573971110341,0.5,0.5,0.483573971110341,0.516426028889659,0.5,0.5,0.5,0.5,0.234579949170854,0.499096171263942,-0.5,-0.0164260288896594,0.5,0.0328520577793189,0.644637365169296,1.25096167453721,2.67153484625921,0.5,88.1575589659815
CBC_1034,CBC_1034_MSI_TV_v3_Vset1_Tset1_2023-12-13_13h56.17.502.csv,1,10,0,3,z,0,1,0,tac,D,9,1,0D,3D,0,1,z,2.27463590000025,0,1,1,1,3D,0D,D03,3.2188758248682,0.5,0.467687571070849,0.483573971110341,0.5,0.5,0.516426028889659,0.5,0.483573971110341,0.483573971110341,0.5,0.5,0.483573971110341,0.5,0.5,0.483573971110341,0.516426028889659,0.50808028741039,0.49191971258961,0.516426028889659,0.5,0.146532320930916,0.513903595375411,0.483573971110341,0.0158864000394916,0.5,0.0328520577793189,0.644637365169296,1.25096167453721,2.67153484625921,0.5,88.1575589659815
CBC_1034,CBC_1034_MSI_TV_v3_Vset1_Tset1_2023-12-13_13h56.17.502.csv,1,11,3,2,z,0,1,2,tac,C,63,1,3C,2C,0,1,b,2.43599059999997,1,0,0,0,3C,2C,C32,3.25809653802148,0.5,0.467687571070849,0.483573971110341,0.5,0.5,0.516426028889659,0.5,0.483573971110341,0.483573971110341,0.5,0.5,0.483573971110341,0.5,0.5,0.483573971110341,0.532312428929151,0.491649825345054,0.508350174654945,0.483573971110341,0.5,0.123746208078822,0.485125670580654,-0.483573971110341,-0.0158864000394916,0.5,0.0328520577793189,0.644637365169296,1.25096167453721,2.67153484625921,0.5,88.1575589659815
CBC_1034,CBC_1034_MSI_TV_v3_Vset1_Tset1_2023-12-13_13h56.17.502.csv,1,12,1,0,b,1,0,3,tac,B,63,1,1B,0B,1,0,z,3.19941569999992,0,1,0,0,0B,1B,B10,2.60268968544438,0.5,0.467687571070849,0.483573971110341,0.5,0.5,0.516426028889659,0.5,0.483573971110341,0.483573971110341,0.5,0.5,0.467687571070849,0.5,0.5,0.483573971110341,0.532312428929151,0.49191971258961,0.50808028741039,0.5,0.516426028889659,0.0731483219883827,0.486159109496811,-0.5,-0.0164260288896594,0.5,0.0328520577793189,0.644637365169296,1.25096167453721,2.67153484625921,0.5,88.1575589659815
CBC_1034,CBC_1034_MSI_TV_v3_Vset1_Tset1_2023-12-13_13h56.17.502.csv,1,13,3,2,b,1,0,0,tac,D,63,1,3D,2D,1,0,z,1.90701660000013,0,1,0,0,2D,3D,D32,2.63905732961526,0.5,0.467687571070849,0.483573971110341,0.5,0.483573971110341,0.516426028889659,0.5,0.483573971110341,0.483573971110341,0.5,0.5,0.467687571070849,0.5,0.5,0.483573971110341,0.532312428929151,0.47601185633703,0.52398814366297,0.483573971110341,0.532312428929151,0.16878076930309,0.459765194857009,-0.483573971110341,-0.0158864000394916,0.5,0.0328520577793189,0.644637365169296,1.25096167453721,2.67153484625921,0.5,88.1575589659815
CBC_1034,CBC_1034_MSI_TV_v3_Vset1_Tset1_2023-12-13_13h56.17.502.csv,1,14,3,2,z,0,1,2,tac,C,63,1,3C,2C,0,1,z,2.75532660000044,0,1,1,1,2C,3C,C32,2.67414864942653,0.5,0.467687571070849,0.483573971110341,0.5,0.483573971110341,0.516426028889659,0.5,0.483573971110341,0.483573971110341,0.5,0.5,0.467687571070849,0.5,0.5,0.467687571070849,0.532312428929151,0.516695692853321,0.483304307146679,0.5,0.467687571070849,0.107888182855799,0.527538707661329,0.5,0.0164260288896594,0.5,0.0328520577793189,0.644637365169296,1.25096167453721,2.67153484625921,0.5,88.1575589659815
CBC_1034,CBC_1034_MSI_TV_v3_Vset1_Tset1_2023-12-13_13h56.17.502.csv,1,15,1,3,b,1,0,3,tac,B,27,1,1B,3B,1,0,b,1.78129150000041,1,0,1,1,1B,3B,B13,3.40119738166216,0.5,0.467687571070849,0.483573971110341,0.5,0.483573971110341,0.516426028889659,0.5,0.483573971110341,0.483573971110341,0.5,0.516426028889659,0.467687571070849,0.5,0.5,0.467687571070849,0.532312428929151,0.516426028889659,0.483573971110341,0.516426028889659,0.483573971110341,0.210423438727147,0.527171578334651,0.483573971110341,0.0158864000394916,0.5,0.0328520577793189,0.644637365169296,1.25096167453721,2.67153484625921,0.5,88.1575589659815
CBC_1034,CBC_1034_MSI_TV_v3_Vset1_Tset1_2023-12-13_13h56.17.502.csv,1,16,3,0,z,0,1,1,tac,A,9,1,3A,0A,0,1,z,2.60229680000066,0,1,1,1,0A,3A,A30,3.43398720448515,0.5,0.467687571070849,0.483573971110341,0.5,0.483573971110341,0.532312428929151,0.5,0.483573971110341,0.483573971110341,0.5,0.516426028889659,0.467687571070849,0.5,0.5,0.467687571070849,0.532312428929151,0.5,0.5,0.5,0.5,0.113745980678124,0.500216210145504,0.5,0.0164260288896594,0.5,0.0328520577793189,0.644637365169296,1.25096167453721,2.67153484625921,0.5,88.1575589659815
CBC_1034,CBC_1034_MSI_TV_v3_Vset1_Tset1_2023-12-13_13h56.17.502.csv,1,17,3,2,b,1,0,0,tac,D,63,1,3D,2D,1,0,z,1.47845780000034,0,1,0,0,2D,3D,D32,2.36712361413162,0.516426028889659,0.467687571070849,0.483573971110341,0.5,0.483573971110341,0.532312428929151,0.5,0.483573971110341,0.483573971110341,0.5,0.516426028889659,0.467687571070849,0.5,0.5,0.467687571070849,0.532312428929151,0.467687571070849,0.532312428929151,0.467687571070849,0.532312428929151,0.215232761479089,0.447165379222981,-0.467687571070849,-0.0153644991074888,0.5,0.0328520577793189,0.644637365169296,1.25096167453721,2.67153484625921,0.5,88.1575589659815
CBC_1034,CBC_1034_MSI_TV_v3_Vset1_Tset1_2023-12-13_13h56.17.502.csv,1,18,2,0,b,1,0,2,tac,C,27,1,2C,0C,1,0,b,2.56826309999997,1,0,1,1,2C,0C,C20,2.80336038090653,0.516426028889659,0.467687571070849,0.483573971110341,0.5,0.483573971110341,0.532312428929151,0.5,0.483573971110341,0.483573971110341,0.5,0.516426028889659,0.467687571070849,0.5,0.5,0.45232307196336,0.532312428929151,0.516426028889659,0.483573971110341,0.516426028889659,0.483573971110341,0.122914309241087,0.528035966300413,0.483573971110341,0.0158864000394916,0.5,0.0328520577793189,0.644637365169296,1.25096167453721,2.67153484625921,0.5,88.1575589659815
CBC_1034,CBC_1034_MSI_TV_v3_Vset1_Tset1_2023-12-13_13h56.17.502.csv,1,19,1,0,z,0,1,1,tac,A,63,1,1A,0A,0,1,b,2.77551850000054,1,0,0,0,1A,0A,A10,2.42774823594805,0.516426028889659,0.467687571070849,0.483573971110341,0.5,0.483573971110341,0.532312428929151,0.5,0.483573971110341,0.483573971110341,0.5,0.532312428929151,0.467687571070849,0.5,0.5,0.45232307196336,0.532312428929151,0.475237382238816,0.524762617761184,0.467687571070849,0.516426028889659,0.0924763168272083,0.458714672766237,-0.467687571070849,-0.0153644991074888,0.5,0.0328520577793189,0.644637365169296,1.25096167453721,2.67153484625921,0.5,88.1575589659815
CBC_1034,CBC_1034_MSI_TV_v3_Vset1_Tset1_2023-12-13_13h56.17.502.csv,1,20,0,1,z,0,1,3,tac,B,63,0,0B,1B,1,0,z,3.1156646000004,0,1,1,0,1B,0B,B01,3.55534806148941,0.516426028889659,0.45232307196336,0.483573971110341,0.5,0.483573971110341,0.532312428929151,0.5,0.483573971110341,0.483573971110341,0.5,0.532312428929151,0.467687571070849,0.5,0.5,0.45232307196336,0.532312428929151,0.52398814366297,0.47601185633703,0.532312428929151,0.483573971110341,0.0858371882639927,0.53893868093363,-0.532312428929151,-0.01748755867183,0.5,0.0328520577793189,0.644637365169296,1.25096167453721,2.67153484625921,0.5,88.1575589659815
CBC_1034,CBC_1034_MSI_TV_v3_Vset1_Tset1_2023-12-13_13h56.17.502.csv,1,21,1,3,z,0,1,0,tac,D,27,1,1D,3D,0,1,b,1.94083240000009,1,0,0,0,1D,3D,D13,3.58351893845611,0.516426028889659,0.45232307196336,0.483573971110341,0.5,0.483573971110341,0.514824870257321,0.5,0.483573971110341,0.483573971110341,0.5,0.532312428929151,0.467687571070849,0.5,0.5,0.45232307196336,0.532312428929151,0.484349491479692,0.515650508520308,0.5,0.532312428929151,0.170004917184256,0.474104874212841,-0.5,-0.0164260288896594,0.5,0.0328520577793189,0.644637365169296,1.25096167453721,2.67153484625921,0.5,88.1575589659815
CBC_1034,CBC_1034_MSI_TV_v3_Vset1_Tset1_2023-12-13_13h56.17.502.csv,1,22,2,3,b,1,0,2,tac,C,63,1,2C,3C,1,0,z,1.91653020000012,0,1,0,0,3C,2C,C23,2.91777073208428,0.516426028889659,0.45232307196336,0.483573971110341,0.5,0.483573971110341,0.514824870257321,0.5,0.483573971110341,0.483573971110341,0.5,0.532312428929151,0.467687571070849,0.5,0.483573971110341,0.45232307196336,0.532312428929151,0.467687571070849,0.532312428929151,0.467687571070849,0.532312428929151,0.162832045339967,0.446101707178485,-0.467687571070849,-0.0153644991074888,0.5,0.0328520577793189,0.644637365169296,1.25096167453721,2.67153484625921,0.5,88.1575589659815
CBC_1034,CBC_1034_MSI_TV_v3_Vset1_Tset1_2023-12-13_13h56.17.502.csv,1,23,1,0,b,1,0,3,tac,B,63,1,1B,0B,1,0,b,2.36853650000012,1,0,1,1,1B,0B,B10,2.53897387105828,0.516426028889659,0.45232307196336,0.483573971110341,0.5,0.483573971110341,0.514824870257321,0.5,0.483573971110341,0.483573971110341,0.5,0.532312428929151,0.45232307196336,0.5,0.483573971110341,0.45232307196336,0.532312428929151,0.515650508520308,0.484349491479692,0.514824870257321,0.483573971110341,0.140723614595032,0.526552878281288,0.485175129742679,0.015939001395395,0.5,0.0328520577793189,0.644637365169296,1.25096167453721,2.67153484625921,0.5,88.1575589659815
CBC_1034,CBC_1034_MSI_TV_v3_Vset1_Tset1_2023-12-13_13h56.17.502.csv,1,24,2,0,z,0,1,1,tac,A,27,1,2A,0A,0,1,b,1.90300340000022,1,0,0,0,2A,0A,A20,3.66356164612965,0.516426028889659,0.45232307196336,0.483573971110341,0.5,0.483573971110341,0.530763871652716,0.5,0.483573971110341,0.483573971110341,0.5,0.532312428929151,0.45232307196336,0.5,0.483573971110341,0.45232307196336,0.532312428929151,0.483573971110341,0.516426028889659,0.483573971110341,0.516426028889659,0.174238173629582,0.473599901464027,-0.483573971110341,-0.0158864000394916,0.5,0.0328520577793189,0.644637365169296,1.25096167453721,2.67153484625921,0.5,88.1575589659815
CBC_1034,CBC_1034_MSI_TV_v3_Vset1_Tset1_2023-12-13_13h56.17.502.csv,1,25,2,3,z,0,1,0,tac,D,63,1,2D,3D,0,1,b,2.68893270000035,1,0,0,0,2D,3D,D23,2.99573227355399,0.516426028889659,0.45232307196336,0.467687571070849,0.5,0.483573971110341,0.530763871652716,0.5,0.483573971110341,0.483573971110341,0.5,0.532312428929151,0.45232307196336,0.5,0.483573971110341,0.45232307196336,0.532312428929151,0.459381234531314,0.540618765468686,0.45232307196336,0.532312428929151,0.0924012758836515,0.432026103777056,-0.45232307196336,-0.0148597436950593,0.5,0.0328520577793189,0.644637365169296,1.25096167453721,2.67153484625921,0.5,88.1575589659815
CBC_1034,CBC_1034_MSI_TV_v3_Vset1_Tset1_2023-12-13_13h56.17.502.csv,1,26,2,0,b,1,0,2,tac,C,27,1,2C,0C,1,0,z,1.98116240000036,0,1,0,0,0C,2C,C20,2.6149597780362,0.516426028889659,0.45232307196336,0.467687571070849,0.5,0.483573971110341,0.530763871652716,0.5,0.483573971110341,0.483573971110341,0.5,0.532312428929151,0.45232307196336,0.5,0.483573971110341,0.437463328268301,0.532312428929151,0.47601185633703,0.52398814366297,0.483573971110341,0.532312428929151,0.160445944745302,0.459680710417083,-0.483573971110341,-0.0158864000394916,0.5,0.0328520577793189,0.644637365169296,1.25096167453721,2.67153484625921,0.5,88.1575589659815
CBC_1034,CBC_1034_MSI_TV_v3_Vset1_Tset1_2023-12-13_13h56.17.502.csv,1,27,1,0,b,1,0,3,tac,B,63,1,1B,0B,1,0,b,0.810227200000099,1,0,1,1,1B,0B,B10,2.35137525716348,0.516426028889659,0.45232307196336,0.467687571070849,0.5,0.483573971110341,0.530763871652716,0.5,0.483573971110341,0.467687571070849,0.5,0.532312428929151,0.45232307196336,0.5,0.483573971110341,0.437463328268301,0.532312428929151,0.523261431523559,0.476738568476441,0.530763871652716,0.483573971110341,0.0390843771049938,0.538897851712904,0.469236128347284,0.0154153724006089,0.5,0.0328520577793189,0.644637365169296,1.25096167453721,2.67153484625921,0.5,88.1575589659815
CBC_1034,CBC_1034_MSI_TV_v3_Vset1_Tset1_2023-12-13_13h56.17.502.csv,1,28,0,1,b,1,0,1,tac,A,63,1,0A,1A,1,0,b,2.67347660000041,1,0,1,1,0A,1A,A01,3.76120011569356,0.516426028889659,0.45232307196336,0.467687571070849,0.5,0.483573971110341,0.546179244053325,0.5,0.483573971110341,0.467687571070849,0.5,0.532312428929151,0.45232307196336,0.5,0.483573971110341,0.437463328268301,0.532312428929151,0.533085427831548,0.466914572168452,0.516426028889659,0.45232307196336,0.12026348501281,0.556037451498818,0.483573971110341,0.0158864000394916,0.5,0.0328520577793189,0.644637365169296,1.25096167453721,2.67153484625921,0.5,88.1575589659815
CBC_1034,CBC_1034_MSI_TV_v3_Vset1_Tset1_2023-12-13_13h56.17.502.csv,1,29,3,2,z,0,1,2,tac,C,63,1,3C,2C,0,1,b,2.00340770000003,1,0,0,0,3C,2C,C32,2.68557734525015,0.532312428929151,0.45232307196336,0.467687571070849,0.5,0.483573971110341,0.546179244053325,0.5,0.483573971110341,0.467687571070849,0.5,0.532312428929151,0.45232307196336,0.5,0.483573971110341,0.437463328268301,0.532312428929151,0.459381234531314,0.540618765468686,0.45232307196336,0.532312428929151,0.148633160370858,0.431737654494829,-0.45232307196336,-0.0148597436950593,0.5,0.0328520577793189,0.644637365169296,1.25096167453721,2.67153484625921,0.5,88.1575589659815
CBC_1034,CBC_1034_MSI_TV_v3_Vset1_Tset1_2023-12-13_13h56.17.502.csv,1,30,3,1,b,1,0,0,tac,D,27,1,3D,1D,1,0,z,1.9505936000005,0,1,0,0,1D,3D,D31,3.80666248977032,0.532312428929151,0.45232307196336,0.467687571070849,0.5,0.483573971110341,0.546179244053325,0.5,0.483573971110341,0.467687571070849,0.5,0.532312428929151,0.437463328268301,0.5,0.483573971110341,0.437463328268301,0.532312428929151,0.47601185633703,0.52398814366297,0.483573971110341,0.532312428929151,0.163977888939861,0.460113904340553,-0.483573971110341,-0.0158864000394916,0.5,0.0328520577793189,0.644637365169296,1.25096167453721,2.67153484625921,0.5,88.1575589659815
CBC_1034,CBC_1034_MSI_TV_v3_Vset1_Tset1_2023-12-13_13h56.17.502.csv,1,31,1,0,z,0,1,1,tac,A,63,1,1A,0A,0,1,b,2.88546730000053,1,0,0,0,1A,0A,A10,2.4423470353692,0.532312428929151,0.45232307196336,0.467687571070849,0.5,0.483573971110341,0.546179244053325,0.5,0.483573971110341,0.467687571070849,0.5,0.532312428929151,0.437463328268301,0.5,0.467687571070849,0.437463328268301,0.532312428929151,0.459381234531314,0.540618765468686,0.45232307196336,0.532312428929151,0.08059947464129,0.432129729497508,-0.45232307196336,-0.0148597436950593,0.5,0.0328520577793189,0.644637365169296,1.25096167453721,2.67153484625921,0.5,88.1575589659815
CBC_1034,CBC_1034_MSI_TV_v3_Vset1_Tset1_2023-12-13_13h56.17.502.csv,1,32,3,2,b,1,0,0,tac,D,63,1,3D,2D,1,0,b,2.09529150000026,1,0,1,1,3D,2D,D32,2.46385324059017,0.532312428929151,0.437463328268301,0.467687571070849,0.5,0.483573971110341,0.546179244053325,0.5,0.483573971110341,0.467687571070849,0.5,0.532312428929151,0.437463328268301,0.5,0.467687571070849,0.437463328268301,0.532312428929151,0.548902594211549,0.451097405788451,0.532312428929151,0.437463328268301,0.187871950298975,0.581005077768843,0.467687571070849,0.0153644991074888,0.5,0.0328520577793189,0.644637365169296,1.25096167453721,2.67153484625921,0.5,88.1575589659815
CBC_1034,CBC_1034_MSI_TV_v3_Vset1_Tset1_2023-12-13_13h56.17.502.csv,1,33,2,1,z,0,1,3,tac,B,9,1,2B,1B,0,1,b,2.29358500000035,1,0,0,0,2B,1B,B21,3.87120101090789,0.532312428929151,0.437463328268301,0.467687571070849,0.5,0.483573971110341,0.546179244053325,0.5,0.483573971110341,0.467687571070849,0.5,0.532312428929151,0.437463328268301,0.5,0.467687571070849,0.437463328268301,0.54767692803664,0.477929573581288,0.522070426418712,0.5,0.546179244053325,0.130646245580031,0.464141063504985,-0.5,-0.0164260288896594,0.5,0.0328520577793189,0.644637365169296,1.25096167453721,2.67153484625921,0.5,88.1575589659815
CBC_1034,CBC_1034_MSI_TV_v3_Vset1_Tset1_2023-12-13_13h56.17.502.csv,1,34,1,0,z,0,1,1,tac,A,63,1,1A,0A,0,1,z,2.10652419999997,0,1,1,1,0A,1A,A10,2.28238238567653,0.532312428929151,0.437463328268301,0.467687571070849,0.5,0.483573971110341,0.546179244053325,0.483573971110341,0.483573971110341,0.467687571070849,0.5,0.532312428929151,0.437463328268301,0.5,0.467687571070849,0.437463328268301,0.54767692803664,0.548902594211549,0.451097405788451,0.532312428929151,0.437463328268301,0.186692288632533,0.581844614565704,0.467687571070849,0.0153644991074888,0.5,0.0328520577793189,0.644637365169296,1.25096167453721,2.67153484625921,0.5,88.1575589659815
CBC_1034,CBC_1034_MSI_TV_v3_Vset1_Tset1_2023-12-13_13h56.17.502.csv,1,35,2,1,b,1,0,2,tac,C,9,1,2C,1C,1,0,z,2.47760250000056,0,1,0,0,1C,2C,C21,3.91202300542815,0.54767692803664,0.437463328268301,0.467687571070849,0.5,0.483573971110341,0.546179244053325,0.483573971110341,0.483573971110341,0.467687571070849,0.5,0.532312428929151,0.437463328268301,0.5,0.467687571070849,0.437463328268301,0.54767692803664,0.484349491479692,0.515650508520308,0.5,0.532312428929151,0.117484565156992,0.47402443869247,-0.5,-0.0164260288896594,0.5,0.0328520577793189,0.644637365169296,1.25096167453721,2.67153484625921,0.5,88.1575589659815
CBC_1034,CBC_1034_MSI_TV_v3_Vset1_Tset1_2023-12-13_13h56.17.502.csv,1,36,1,0,b,1,0,3,tac,B,63,1,1B,0B,1,0,b,3.52425369999992,1,0,1,1,1B,0B,B10,2.32238772029023,0.54767692803664,0.437463328268301,0.467687571070849,0.5,0.483573971110341,0.546179244053325,0.483573971110341,0.483573971110341,0.467687571070849,0.483573971110341,0.532312428929151,0.437463328268301,0.5,0.467687571070849,0.437463328268301,0.54767692803664,0.53039819250918,0.46960180749082,0.546179244053325,0.483573971110341,0.0659509069489543,0.550338546463411,0.453820755946675,0.0149089456958143,0.5,0.0328520577793189,0.644637365169296,1.25096167453721,2.67153484625921,0.5,88.1575589659815
CBC_1034,CBC_1034_MSI_TV_v3_Vset1_Tset1_2023-12-13_13h56.17.502.csv,1,37,0,1,b,1,0,1,tac,A,63,0,0A,1A,0,1,b,2.99202909999985,1,0,1,0,0A,1A,A01,3.25809653802148,0.54767692803664,0.437463328268301,0.467687571070849,0.5,0.483573971110341,0.561088189749139,0.483573971110341,0.483573971110341,0.467687571070849,0.483573971110341,0.532312428929151,0.437463328268301,0.5,0.467687571070849,0.437463328268301,0.54767692803664,0.555938024592421,0.444061975407579,0.54767692803664,0.437463328268301,0.102296101838379,0.592270646503713,-0.54767692803664,-0.0179923140842596,0.5,0.0328520577793189,0.644637365169296,1.25096167453721,2.67153484625921,0.5,88.1575589659815
CBC_1034,CBC_1034_MSI_TV_v3_Vset1_Tset1_2023-12-13_13h56.17.502.csv,1,38,0,1,z,0,1,3,tac,B,63,1,0B,1B,0,1,z,1.32801370000016,0,1,1,1,1B,0B,B01,3.27714473299218,0.52968461395238,0.437463328268301,0.467687571070849,0.5,0.483573971110341,0.561088189749139,0.483573971110341,0.483573971110341,0.467687571070849,0.483573971110341,0.532312428929151,0.437463328268301,0.5,0.467687571070849,0.437463328268301,0.54767692803664,0.537100137031394,0.462899862968606,0.561088189749139,0.483573971110341,0.288292679156606,0.561221881488357,0.438911810250861,0.0144191561503867,0.5,0.0328520577793189,0.644637365169296,1.25096167453721,2.67153484625921,0.5,88.1575589659815
CBC_1034,CBC_1034_MSI_TV_v3_Vset1_Tset1_2023-12-13_13h56.17.502.csv,1,39,1,3,z,0,1,0,tac,D,27,1,1D,3D,0,1,z,2.25713460000043,0,1,1,1,3D,1D,D13,3.29583686600433,0.52968461395238,0.437463328268301,0.467687571070849,0.5,0.483573971110341,0.575507345899526,0.483573971110341,0.483573971110341,0.467687571070849,0.483573971110341,0.532312428929151,0.437463328268301,0.5,0.467687571070849,0.437463328268301,0.54767692803664,0.539389478869954,0.460610521130046,0.54767692803664,0.467687571070849,0.163452605249968,0.565924832656788,0.45232307196336,0.0148597436950593,0.5,0.0328520577793189,0.644637365169296,1.25096167453721,2.67153484625921,0.5,88.1575589659815
CBC_1034,CBC_1034_MSI_TV_v3_Vset1_Tset1_2023-12-13_13h56.17.502.csv,1,40,3,2,z,0,1,2,tac,C,63,1,3C,2C,0,1,b,3.33093220000046,1,0,0,0,3C,2C,C32,2.62103882411258,0.52968461395238,0.437463328268301,0.467687571070849,0.5,0.483573971110341,0.575507345899526,0.483573971110341,0.483573971110341,0.467687571070849,0.483573971110341,0.532312428929151,0.437463328268301,0.5,0.467687571070849,0.437463328268301,0.562536671731699,0.451097405788451,0.548902594211549,0.437463328268301,0.532312428929151,0.0571770039529667,0.41896347521961,-0.437463328268301,-0.0143715705366034,0.5,0.0328520577793189,0.644637365169296,1.25096167453721,2.67153484625921,0.5,88.1575589659815
CBC_1034,CBC_1034_MSI_TV_v3_Vset1_Tset1_2023-12-13_13h56.17.502.csv,1,41,0,2,b,1,0,1,tac,A,27,1,0A,2A,1,0,z,2.46468660000028,0,1,0,0,2A,0A,A02,3.3322045101752,0.52968461395238,0.437463328268301,0.467687571070849,0.5,0.483573971110341,0.575507345899526,0.483573971110341,0.483573971110341,0.467687571070849,0.483573971110341,0.532312428929151,0.423091757731697,0.5,0.467687571070849,0.437463328268301,0.562536671731699,0.468919805558801,0.531080194441199,0.467687571070849,0.52968461395238,0.112041944520523,0.448085792266328,-0.467687571070849,-0.0153644991074888,0.5,0.0328520577793189,0.644637365169296,1.25096167453721,2.67153484625921,0.5,88.1575589659815
CBC_1034,CBC_1034_MSI_TV_v3_Vset1_Tset1_2023-12-13_13h56.17.502.csv,1,42,2,3,z,0,1,0,tac,D,63,1,2D,3D,0,1,z,2.01506090000021,0,1,1,1,3D,2D,D23,2.94443897916644,0.52968461395238,0.437463328268301,0.45232307196336,0.5,0.483573971110341,0.575507345899526,0.483573971110341,0.483573971110341,0.467687571070849,0.483573971110341,0.532312428929151,0.423091757731697,0.5,0.467687571070849,0.437463328268301,0.562536671731699,0.562536671731699,0.437463328268301,0.562536671731699,0.437463328268301,0.2066697724698,0.603462044238575,0.437463328268301,0.0143715705366034,0.5,0.0328520577793189,0.644637365169296,1.25096167453721,2.67153484625921,0.5,88.1575589659815
CBC_1034,CBC_1034_MSI_TV_v3_Vset1_Tset1_2023-12-13_13h56.17.502.csv,1,43,1,3,b,1,0,3,tac,B,27,1,1B,3B,1,0,b,2.89028100000041,1,0,1,1,1B,3B,B13,3.36729582998647,0.52968461395238,0.437463328268301,0.45232307196336,0.5,0.483573971110341,0.575507345899526,0.483573971110341,0.483573971110341,0.467687571070849,0.483573971110341,0.532312428929151,0.423091757731697,0.5,0.467687571070849,0.437463328268301,0.576908242268302,0.543402415524024,0.456597584475976,0.575507345899526,0.483573971110341,0.106330711060768,0.572189627091952,0.424492654100474,0.0139454571994052,0.5,0.0328520577793189,0.644637365169296,1.25096167453721,2.67153484625921,0.5,88.1575589659815
CBC_1034,CBC_1034_MSI_TV_v3_Vset1_Tset1_2023-12-13_13h56.17.502.csv,1,44,3,2,z,0,1,2,tac,C,63,1,3C,2C,0,1,z,2.33763180000051,0,1,1,1,2C,3C,C32,2.46809953147162,0.52968461395238,0.437463328268301,0.45232307196336,0.5,0.483573971110341,0.589452803098931,0.483573971110341,0.483573971110341,0.467687571070849,0.483573971110341,0.532312428929151,0.423091757731697,0.5,0.467687571070849,0.437463328268301,0.576908242268302,0.55715940578991,0.44284059421009,0.532312428929151,0.423091757731697,0.16218679130975,0.593602640959222,0.467687571070849,0.0153644991074888,0.5,0.0328520577793189,0.644637365169296,1.25096167453721,2.67153484625921,0.5,88.1575589659815
CBC_1034,CBC_1034_MSI_AV_v3_Vset2_Aset3_2023-12-13_14h05.28.139.csv,2,1,1,0,b,1,0,3,aud,B,63,1,1B,0B,1,0,z,2.38293799999974,0,1,0,0,0B,1B,B10,2.77258872223978,0.5,0.5,0.5,0.5,0.5,0.5,0.5,0.5,0.5,0.5,0.5,0.5,0.5,0.5,0.5,0.5,0.5,0.5,0.5,0.5,0.161781264028382,0.500157304327417,-0.5,-0.00897250973560704,0.5,0.0179450194712141,0.967664480010104,2.79610699472802,2.38406703504296,0.5,80.9121103971584
CBC_1034,CBC_1034_MSI_AV_v3_Vset2_Aset3_2023-12-13_14h05.28.139.csv,2,2,1,0,z,0,1,1,aud,A,63,1,1A,0A,0,1,b,1.25941220000004,1,0,0,0,1A,0A,A10,2.83321334405622,0.5,0.5,0.5,0.5,0.491027490264393,0.5,0.5,0.5,0.5,0.5,0.5,0.5,0.5,0.5,0.5,0.5,0.5,0.5,0.5,0.5,0.263884768639369,0.499231855102841,-0.5,-0.00897250973560704,0.5,0.0179450194712141,0.967664480010104,2.79610699472802,2.38406703504296,0.5,80.9121103971584
CBC_1034,CBC_1034_MSI_AV_v3_Vset2_Aset3_2023-12-13_14h05.28.139.csv,2,3,3,2,b,1,0,0,aud,D,63,1,3D,2D,1,0,z,2.25558159999991,0,1,0,0,2D,3D,D32,2.89037175789616,0.5,0.491027490264393,0.5,0.5,0.491027490264393,0.5,0.5,0.5,0.5,0.5,0.5,0.5,0.5,0.5,0.5,0.5,0.5,0.5,0.5,0.5,0.180624680140183,0.500073043598283,-0.5,-0.00897250973560704,0.5,0.0179450194712141,0.967664480010104,2.79610699472802,2.38406703504296,0.5,80.9121103971584
CBC_1034,CBC_1034_MSI_AV_v3_Vset2_Aset3_2023-12-13_14h05.28.139.csv,2,4,1,2,b,1,0,3,aud,B,9,1,1B,2B,1,0,b,2.32903530000021,1,0,1,1,1B,2B,B12,2.94443897916644,0.5,0.491027490264393,0.5,0.5,0.491027490264393,0.5,0.5,0.5,0.5,0.5,0.5,0.5,0.5,0.5,0.491027490264393,0.5,0.5,0.5,0.5,0.5,0.169350385538416,0.499656510529471,0.5,0.00897250973560704,0.5,0.0179450194712141,0.967664480010104,2.79610699472802,2.38406703504296,0.5,80.9121103971584
CBC_1034,CBC_1034_MSI_AV_v3_Vset2_Aset3_2023-12-13_14h05.28.139.csv,2,5,2,0,z,0,1,1,aud,A,27,1,2A,0A,0,1,b,1.87028899999996,1,0,0,0,2A,0A,A20,2.99573227355399,0.5,0.491027490264393,0.5,0.5,0.491027490264393,0.508972509735607,0.5,0.5,0.5,0.5,0.5,0.5,0.5,0.5,0.491027490264393,0.5,0.5,0.5,0.5,0.5,0.250574908784695,0.4991337535286,-0.5,-0.00897250973560704,0.5,0.0179450194712141,0.967664480010104,2.79610699472802,2.38406703504296,0.5,80.9121103971584
CBC_1034,CBC_1034_MSI_AV_v3_Vset2_Aset3_2023-12-13_14h05.28.139.csv,2,6,3,2,z,0,1,2,aud,C,63,1,3C,2C,0,1,b,2.28483599999981,1,0,0,0,3C,2C,C32,3.04452243772342,0.5,0.491027490264393,0.491027490264393,0.5,0.491027490264393,0.508972509735607,0.5,0.5,0.5,0.5,0.5,0.5,0.5,0.5,0.491027490264393,0.5,0.5,0.5,0.5,0.5,0.176026852484828,0.499844456803683,-0.5,-0.00897250973560704,0.5,0.0179450194712141,0.967664480010104,2.79610699472802,2.38406703504296,0.5,80.9121103971584
CBC_1034,CBC_1034_MSI_AV_v3_Vset2_Aset3_2023-12-13_14h05.28.139.csv,2,7,3,1,b,1,0,0,aud,D,27,1,3D,1D,1,0,b,2.4947803,1,0,1,1,3D,1D,D31,3.09104245335832,0.5,0.491027490264393,0.491027490264393,0.5,0.491027490264393,0.508972509735607,0.5,0.5,0.5,0.5,0.5,0.491027490264393,0.5,0.5,0.491027490264393,0.5,0.5,0.5,0.5,0.5,0.146625145913489,0.499483222775853,0.5,0.00897250973560704,0.5,0.0179450194712141,0.967664480010104,2.79610699472802,2.38406703504296,0.5,80.9121103971584
CBC_1034,CBC_1034_MSI_AV_v3_Vset2_Aset3_2023-12-13_14h05.28.139.csv,2,8,0,1,b,1,0,1,aud,A,63,1,0A,1A,1,0,b,2.4631330999996,1,0,1,1,0A,1A,A01,3.13549421592915,0.5,0.491027490264393,0.491027490264393,0.5,0.491027490264393,0.508972509735607,0.5,0.5,0.5,0.5,0.5,0.491027490264393,0.5,0.5,0.491027490264393,0.508972509735607,0.504526872273348,0.495473127726652,0.5,0.491027490264393,0.15520727240434,0.514409327640991,0.5,0.00897250973560704,0.5,0.0179450194712141,0.967664480010104,2.79610699472802,2.38406703504296,0.5,80.9121103971584
CBC_1034,CBC_1034_MSI_AV_v3_Vset2_Aset3_2023-12-13_14h05.28.139.csv,2,9,0,2,z,0,1,2,aud,C,27,1,0C,2C,0,1,b,2.50319140000011,1,0,0,0,0C,2C,C02,3.17805383034795,0.508972509735607,0.491027490264393,0.491027490264393,0.5,0.491027490264393,0.508972509735607,0.5,0.5,0.5,0.5,0.5,0.491027490264393,0.5,0.5,0.491027490264393,0.508972509735607,0.5,0.5,0.5,0.5,0.145677305818578,0.499889530435788,-0.5,-0.00897250973560704,0.5,0.0179450194712141,0.967664480010104,2.79610699472802,2.38406703504296,0.5,80.9121103971584
CBC_1034,CBC_1034_MSI_AV_v3_Vset2_Aset3_2023-12-13_14h05.28.139.csv,2,10,3,2,b,1,0,0,aud,D,63,1,3D,2D,1,0,z,2.33055939999986,0,1,0,0,2D,3D,D32,2.52572864430826,0.508972509735607,0.491027490264393,0.491027490264393,0.5,0.491027490264393,0.508972509735607,0.5,0.5,0.491027490264393,0.5,0.5,0.491027490264393,0.5,0.5,0.491027490264393,0.508972509735607,0.491027490264393,0.508972509735607,0.491027490264393,0.508972509735607,0.15944481967322,0.471020636219404,-0.491027490264393,-0.00881149787369591,0.5,0.0179450194712141,0.967664480010104,2.79610699472802,2.38406703504296,0.5,80.9121103971584
CBC_1034,CBC_1034_MSI_AV_v3_Vset2_Aset3_2023-12-13_14h05.28.139.csv,2,11,0,1,z,0,1,3,aud,B,63,1,0B,1B,0,1,z,2.26835630000005,0,1,1,1,1B,0B,B01,3.25809653802148,0.508972509735607,0.491027490264393,0.491027490264393,0.5,0.491027490264393,0.508972509735607,0.5,0.5,0.491027490264393,0.5,0.5,0.491027490264393,0.5,0.5,0.482215992390697,0.508972509735607,0.508972509735607,0.491027490264393,0.508972509735607,0.491027490264393,0.188921852528451,0.528786528798146,0.491027490264393,0.00881149787369591,0.5,0.0179450194712141,0.967664480010104,2.79610699472802,2.38406703504296,0.5,80.9121103971584
CBC_1034,CBC_1034_MSI_AV_v3_Vset2_Aset3_2023-12-13_14h05.28.139.csv,2,12,1,0,z,0,1,1,aud,A,63,1,1A,0A,0,1,b,2.7541599000001,1,0,0,0,1A,0A,A10,2.60268968544438,0.508972509735607,0.491027490264393,0.491027490264393,0.5,0.491027490264393,0.517784007609303,0.5,0.5,0.491027490264393,0.5,0.5,0.491027490264393,0.5,0.5,0.482215992390697,0.508972509735607,0.491027490264393,0.508972509735607,0.491027490264393,0.508972509735607,0.1102102088256,0.470442589420741,-0.491027490264393,-0.00881149787369591,0.5,0.0179450194712141,0.967664480010104,2.79610699472802,2.38406703504296,0.5,80.9121103971584
CBC_1034,CBC_1034_MSI_AV_v3_Vset2_Aset3_2023-12-13_14h05.28.139.csv,2,13,3,2,b,1,0,0,aud,D,63,1,3D,2D,1,0,z,2.40060780000022,0,1,0,0,2D,3D,D32,2.23359222150709,0.508972509735607,0.482215992390697,0.491027490264393,0.5,0.491027490264393,0.517784007609303,0.5,0.5,0.491027490264393,0.5,0.5,0.491027490264393,0.5,0.5,0.482215992390697,0.508972509735607,0.486502810874263,0.513497189125737,0.482215992390697,0.508972509735607,0.144633801147305,0.454068039980985,-0.482215992390697,-0.00865337537278188,0.5,0.0179450194712141,0.967664480010104,2.79610699472802,2.38406703504296,0.5,80.9121103971584
CBC_1034,CBC_1034_MSI_AV_v3_Vset2_Aset3_2023-12-13_14h05.28.139.csv,2,14,0,2,z,0,1,2,aud,C,27,1,0C,2C,0,1,b,2.90377209999997,1,0,0,0,0C,2C,C02,2.67414864942653,0.508972509735607,0.482215992390697,0.491027490264393,0.5,0.491027490264393,0.517784007609303,0.5,0.5,0.491027490264393,0.5,0.5,0.491027490264393,0.5,0.5,0.473562617017915,0.508972509735607,0.495473127726652,0.504526872273348,0.491027490264393,0.5,0.0997901423531106,0.484906880658205,-0.491027490264393,-0.00881149787369591,0.5,0.0179450194712141,0.967664480010104,2.79610699472802,2.38406703504296,0.5,80.9121103971584
CBC_1034,CBC_1034_MSI_AV_v3_Vset2_Aset3_2023-12-13_14h05.28.139.csv,2,15,1,0,z,0,1,1,aud,A,63,1,1A,0A,0,1,z,3.58911490000037,0,1,1,1,0A,1A,A10,2.30258509299405,0.508972509735607,0.482215992390697,0.491027490264393,0.5,0.491027490264393,0.517784007609303,0.5,0.5,0.482215992390697,0.5,0.5,0.491027490264393,0.5,0.5,0.473562617017915,0.508972509735607,0.513497189125737,0.486502810874263,0.508972509735607,0.482215992390697,0.0616114958379,0.544559377825361,0.491027490264393,0.00881149787369591,0.5,0.0179450194712141,0.967664480010104,2.79610699472802,2.38406703504296,0.5,80.9121103971584
CBC_1034,CBC_1034_MSI_AV_v3_Vset2_Aset3_2023-12-13_14h05.28.139.csv,2,16,3,1,z,0,1,3,aud,B,27,1,3B,1B,0,1,z,2.91639110000006,0,1,1,1,1B,3B,B31,3.43398720448515,0.517784007609303,0.482215992390697,0.491027490264393,0.5,0.491027490264393,0.517784007609303,0.5,0.5,0.482215992390697,0.5,0.5,0.491027490264393,0.5,0.5,0.473562617017915,0.508972509735607,0.508736631483863,0.491263368516137,0.517784007609303,0.5,0.107911645165427,0.530426426210114,0.482215992390697,0.00865337537278188,0.5,0.0179450194712141,0.967664480010104,2.79610699472802,2.38406703504296,0.5,80.9121103971584
CBC_1034,CBC_1034_MSI_AV_v3_Vset2_Aset3_2023-12-13_14h05.28.139.csv,2,17,2,3,b,1,0,2,aud,C,63,1,2C,3C,1,0,z,2.63483589999987,0,1,0,0,3C,2C,C23,3.46573590279973,0.517784007609303,0.482215992390697,0.491027490264393,0.5,0.491027490264393,0.526437382982085,0.5,0.5,0.482215992390697,0.5,0.5,0.491027490264393,0.5,0.5,0.473562617017915,0.508972509735607,0.495473127726652,0.504526872273348,0.491027490264393,0.5,0.125992948781456,0.484712285429898,-0.491027490264393,-0.00881149787369591,0.5,0.0179450194712141,0.967664480010104,2.79610699472802,2.38406703504296,0.5,80.9121103971584
CBC_1034,CBC_1034_MSI_AV_v3_Vset2_Aset3_2023-12-13_14h05.28.139.csv,2,18,3,2,b,1,0,0,aud,D,63,0,3D,2D,0,1,z,1.79592709999952,0,1,0,1,2D,3D,D32,2.11021320034659,0.517784007609303,0.482215992390697,0.491027490264393,0.5,0.491027490264393,0.526437382982085,0.5,0.5,0.482215992390697,0.5,0.5,0.482215992390697,0.5,0.5,0.473562617017915,0.508972509735607,0.481980342608873,0.518019657391127,0.473562617017915,0.508972509735607,0.235639759197913,0.440432138041,0.526437382982085,0.00944692908798849,0.5,0.0179450194712141,0.967664480010104,2.79610699472802,2.38406703504296,0.5,80.9121103971584
CBC_1034,CBC_1034_MSI_AV_v3_Vset2_Aset3_2023-12-13_14h05.28.139.csv,2,19,0,1,z,0,1,3,aud,B,63,1,0B,1B,0,1,z,2.04275980000011,0,1,1,1,1B,0B,B01,2.83321334405622,0.517784007609303,0.482215992390697,0.491027490264393,0.5,0.491027490264393,0.526437382982085,0.5,0.5,0.482215992390697,0.5,0.5,0.482215992390697,0.5,0.5,0.483009546105904,0.508972509735607,0.517401039411173,0.482598960588827,0.526437382982085,0.491027490264393,0.242292692941653,0.55747574099826,0.473562617017915,0.00849809038322558,0.5,0.0179450194712141,0.967664480010104,2.79610699472802,2.38406703504296,0.5,80.9121103971584
CBC_1034,CBC_1034_MSI_AV_v3_Vset2_Aset3_2023-12-13_14h05.28.139.csv,2,20,0,2,b,1,0,1,aud,A,27,1,0A,2A,1,0,b,2.3162970999997,1,0,1,1,0A,2A,A02,3.55534806148941,0.517784007609303,0.482215992390697,0.491027490264393,0.5,0.491027490264393,0.53493547336531,0.5,0.5,0.482215992390697,0.5,0.5,0.482215992390697,0.5,0.5,0.483009546105904,0.508972509735607,0.513261405823241,0.486738594176759,0.517784007609303,0.491027490264393,0.186210702477943,0.543269307247735,0.482215992390697,0.00865337537278188,0.5,0.0179450194712141,0.967664480010104,2.79610699472802,2.38406703504296,0.5,80.9121103971584
CBC_1034,CBC_1034_MSI_AV_v3_Vset2_Aset3_2023-12-13_14h05.28.139.csv,2,21,3,0,b,1,0,0,aud,D,9,1,3D,0D,1,0,b,2.00761350000039,1,0,1,1,3D,0D,D30,3.58351893845611,0.526437382982085,0.482215992390697,0.491027490264393,0.5,0.491027490264393,0.53493547336531,0.5,0.5,0.482215992390697,0.5,0.5,0.482215992390697,0.5,0.5,0.483009546105904,0.508972509735607,0.504446359860666,0.495553640139334,0.508972509735607,0.5,0.229576471730218,0.513361648146117,0.491027490264393,0.00881149787369591,0.5,0.0179450194712141,0.967664480010104,2.79610699472802,2.38406703504296,0.5,80.9121103971584
CBC_1034,CBC_1034_MSI_AV_v3_Vset2_Aset3_2023-12-13_14h05.28.139.csv,2,22,3,2,z,0,1,2,aud,C,63,1,3C,2C,0,1,b,2.18233780000037,1,0,0,0,3C,2C,C32,2.91777073208428,0.526437382982085,0.482215992390697,0.491027490264393,0.5,0.491027490264393,0.53493547336531,0.5,0.5,0.482215992390697,0.5,0.5,0.482215992390697,0.5,0.5,0.483009546105904,0.517784007609303,0.490946997530545,0.509053002469455,0.482215992390697,0.5,0.181067312047681,0.470414990717485,-0.482215992390697,-0.00865337537278188,0.5,0.0179450194712141,0.967664480010104,2.79610699472802,2.38406703504296,0.5,80.9121103971584
CBC_1034,CBC_1034_MSI_AV_v3_Vset2_Aset3_2023-12-13_14h05.28.139.csv,2,23,1,3,b,1,0,3,aud,B,27,1,1B,3B,1,0,z,1.88132640000049,0,1,0,0,3B,1B,B13,3.63758615972639,0.526437382982085,0.482215992390697,0.491027490264393,0.5,0.491027490264393,0.53493547336531,0.5,0.5,0.482215992390697,0.5,0.5,0.473562617017915,0.5,0.5,0.483009546105904,0.517784007609303,0.483121907469405,0.516878092530595,0.5,0.53493547336531,0.221423182228602,0.444131078062905,-0.5,-0.00897250973560704,0.5,0.0179450194712141,0.967664480010104,2.79610699472802,2.38406703504296,0.5,80.9121103971584
CBC_1034,CBC_1034_MSI_AV_v3_Vset2_Aset3_2023-12-13_14h05.28.139.csv,2,24,2,3,b,1,0,2,aud,C,63,1,2C,3C,1,0,z,2.2206386999992,0,1,0,0,3C,2C,C23,2.9704144655697,0.526437382982085,0.482215992390697,0.491027490264393,0.5,0.491027490264393,0.53493547336531,0.5,0.491027490264393,0.482215992390697,0.5,0.5,0.473562617017915,0.5,0.5,0.483009546105904,0.517784007609303,0.486422351002412,0.513577648997588,0.473562617017915,0.5,0.169098471667801,0.453994920256911,-0.473562617017915,-0.00849809038322558,0.5,0.0179450194712141,0.967664480010104,2.79610699472802,2.38406703504296,0.5,80.9121103971584
CBC_1034,CBC_1034_MSI_AV_v3_Vset2_Aset3_2023-12-13_14h05.28.139.csv,2,25,3,2,b,1,0,0,aud,D,63,1,3D,2D,1,0,b,2.27367399999957,1,0,1,1,3D,2D,D32,2.07944154167984,0.526437382982085,0.482215992390697,0.491027490264393,0.5,0.491027490264393,0.53493547336531,0.5,0.491027490264393,0.482215992390697,0.5,0.5,0.46506452663469,0.5,0.5,0.483009546105904,0.517784007609303,0.517373443990675,0.482626556009325,0.517784007609303,0.483009546105904,0.198176228223215,0.557038892131516,0.482215992390697,0.00865337537278188,0.5,0.0179450194712141,0.967664480010104,2.79610699472802,2.38406703504296,0.5,80.9121103971584
CBC_1034,CBC_1034_MSI_AV_v3_Vset2_Aset3_2023-12-13_14h05.28.139.csv,2,26,0,1,z,0,1,3,aud,B,63,1,0B,1B,0,1,b,2.41871250000031,1,0,0,0,0B,1B,B01,2.6149597780362,0.526437382982085,0.482215992390697,0.491027490264393,0.5,0.491027490264393,0.53493547336531,0.5,0.491027490264393,0.482215992390697,0.5,0.5,0.46506452663469,0.5,0.5,0.483009546105904,0.526437382982085,0.478601574980067,0.521398425019933,0.491027490264393,0.53493547336531,0.134690670124746,0.429632044241029,-0.491027490264393,-0.00881149787369591,0.5,0.0179450194712141,0.967664480010104,2.79610699472802,2.38406703504296,0.5,80.9121103971584
CBC_1034,CBC_1034_MSI_AV_v3_Vset2_Aset3_2023-12-13_14h05.28.139.csv,2,27,3,0,z,0,1,1,aud,A,9,1,3A,0A,0,1,z,1.66887879999967,0,1,1,1,0A,3A,A30,3.73766961828337,0.526437382982085,0.482215992390697,0.491027490264393,0.5,0.482215992390697,0.53493547336531,0.5,0.491027490264393,0.482215992390697,0.5,0.5,0.46506452663469,0.5,0.5,0.483009546105904,0.526437382982085,0.51287822492653,0.48712177507347,0.526437382982085,0.5,0.319668897622103,0.543064786578851,0.473562617017915,0.00849809038322558,0.5,0.0179450194712141,0.967664480010104,2.79610699472802,2.38406703504296,0.5,80.9121103971584
CBC_1034,CBC_1034_MSI_AV_v3_Vset2_Aset3_2023-12-13_14h05.28.139.csv,2,28,3,2,b,1,0,0,aud,D,63,1,3D,2D,1,0,b,2.67463089999956,1,0,1,1,3D,2D,D32,1.96944064646551,0.53493547336531,0.482215992390697,0.491027490264393,0.5,0.482215992390697,0.53493547336531,0.5,0.491027490264393,0.482215992390697,0.5,0.5,0.46506452663469,0.5,0.5,0.483009546105904,0.526437382982085,0.521510708302128,0.478489291697872,0.526437382982085,0.483009546105904,0.14301013835102,0.570651609379066,0.473562617017915,0.00849809038322558,0.5,0.0179450194712141,0.967664480010104,2.79610699472802,2.38406703504296,0.5,80.9121103971584
CBC_1034,CBC_1034_MSI_AV_v3_Vset2_Aset3_2023-12-13_14h05.28.139.csv,2,29,0,2,z,0,1,2,aud,C,27,1,0C,2C,0,1,z,1.94249199999967,0,1,1,1,2C,0C,C02,2.68557734525015,0.53493547336531,0.482215992390697,0.491027490264393,0.5,0.482215992390697,0.53493547336531,0.5,0.491027490264393,0.482215992390697,0.5,0.5,0.46506452663469,0.5,0.5,0.483009546105904,0.53493547336531,0.509053002469455,0.490946997530545,0.5,0.482215992390697,0.250420858147566,0.529613263517299,0.5,0.00897250973560704,0.5,0.0179450194712141,0.967664480010104,2.79610699472802,2.38406703504296,0.5,80.9121103971584
CBC_1034,CBC_1034_MSI_AV_v3_Vset2_Aset3_2023-12-13_14h05.28.139.csv,2,30,0,1,b,1,0,1,aud,A,63,1,0A,1A,1,0,b,1.09593929999983,1,0,1,1,0A,1A,A01,3.11351530921037,0.53493547336531,0.482215992390697,0.491027490264393,0.5,0.482215992390697,0.53493547336531,0.5,0.491027490264393,0.482215992390697,0.5,0.508972509735607,0.46506452663469,0.5,0.5,0.483009546105904,0.53493547336531,0.525915255863801,0.474084744136199,0.53493547336531,0.482215992390697,0.0484044539904418,0.586517412741407,0.46506452663469,0.00834559198583046,0.5,0.0179450194712141,0.967664480010104,2.79610699472802,2.38406703504296,0.5,80.9121103971584
CBC_1034,CBC_1034_MSI_AV_v3_Vset2_Aset3_2023-12-13_14h05.28.139.csv,2,31,0,1,z,0,1,3,aud,B,63,1,0B,1B,0,1,z,2.37320899999986,0,1,1,1,1B,0B,B01,2.4423470353692,0.543281065351141,0.482215992390697,0.491027490264393,0.5,0.482215992390697,0.53493547336531,0.5,0.491027490264393,0.482215992390697,0.5,0.508972509735607,0.46506452663469,0.5,0.5,0.483009546105904,0.53493547336531,0.525915255863801,0.474084744136199,0.53493547336531,0.482215992390697,0.191165378053404,0.585983975449634,0.46506452663469,0.00834559198583046,0.5,0.0179450194712141,0.967664480010104,2.79610699472802,2.38406703504296,0.5,80.9121103971584
CBC_1034,CBC_1034_MSI_AV_v3_Vset2_Aset3_2023-12-13_14h05.28.139.csv,2,32,1,3,z,0,1,0,aud,D,27,1,1D,3D,0,1,b,2.17365550000022,1,0,0,0,1D,3D,D13,3.85014760171006,0.543281065351141,0.482215992390697,0.491027490264393,0.5,0.482215992390697,0.543281065351141,0.5,0.491027490264393,0.482215992390697,0.5,0.508972509735607,0.46506452663469,0.5,0.5,0.483009546105904,0.53493547336531,0.483121907469405,0.516878092530595,0.5,0.53493547336531,0.17236311229765,0.444152196031699,-0.5,-0.00897250973560704,0.5,0.0179450194712141,0.967664480010104,2.79610699472802,2.38406703504296,0.5,80.9121103971584
CBC_1034,CBC_1034_MSI_AV_v3_Vset2_Aset3_2023-12-13_14h05.28.139.csv,2,33,2,3,b,1,0,2,aud,C,63,1,2C,3C,1,0,z,2.17807439999933,0,1,0,0,3C,2C,C23,2.77258872223978,0.543281065351141,0.482215992390697,0.491027490264393,0.5,0.482215992390697,0.543281065351141,0.5,0.491027490264393,0.482215992390697,0.5,0.508972509735607,0.46506452663469,0.5,0.491027490264393,0.483009546105904,0.53493547336531,0.477460824659944,0.522539175340056,0.46506452663469,0.508972509735607,0.164576760436555,0.425414526935506,-0.46506452663469,-0.00834559198583046,0.5,0.0179450194712141,0.967664480010104,2.79610699472802,2.38406703504296,0.5,80.9121103971584
CBC_1034,CBC_1034_MSI_AV_v3_Vset2_Aset3_2023-12-13_14h05.28.139.csv,2,34,0,1,z,0,1,3,aud,B,63,1,0B,1B,0,1,z,1.30187459999934,0,1,1,1,1B,0B,B01,2.28238238567653,0.543281065351141,0.482215992390697,0.491027490264393,0.5,0.482215992390697,0.543281065351141,0.5,0.491027490264393,0.482215992390697,0.5,0.508972509735607,0.456718934648859,0.5,0.491027490264393,0.483009546105904,0.53493547336531,0.529773402322046,0.470226597677954,0.543281065351141,0.482215992390697,0.356636891878376,0.59807797930569,0.456718934648859,0.00819583017514592,0.5,0.0179450194712141,0.967664480010104,2.79610699472802,2.38406703504296,0.5,80.9121103971584
CBC_1034,CBC_1034_MSI_AV_v3_Vset2_Aset3_2023-12-13_14h05.28.139.csv,2,35,1,0,z,0,1,1,aud,A,63,1,1A,0A,0,1,b,2.56001900000001,1,0,0,0,1A,0A,A10,2.52572864430826,0.543281065351141,0.482215992390697,0.491027490264393,0.5,0.482215992390697,0.551476895526287,0.5,0.491027490264393,0.482215992390697,0.5,0.508972509735607,0.456718934648859,0.5,0.491027490264393,0.483009546105904,0.53493547336531,0.470226597677954,0.529773402322046,0.482215992390697,0.543281065351141,0.11104656671954,0.4013373563068,-0.482215992390697,-0.00865337537278188,0.5,0.0179450194712141,0.967664480010104,2.79610699472802,2.38406703504296,0.5,80.9121103971584
CBC_1034,CBC_1034_MSI_AV_v3_Vset2_Aset3_2023-12-13_14h05.28.139.csv,2,36,2,1,b,1,0,2,aud,C,9,1,2C,1C,1,0,z,3.47075449999966,0,1,0,0,1C,2C,C21,3.93182563272433,0.543281065351141,0.473562617017915,0.491027490264393,0.5,0.482215992390697,0.551476895526287,0.5,0.491027490264393,0.482215992390697,0.5,0.508972509735607,0.456718934648859,0.5,0.491027490264393,0.483009546105904,0.53493547336531,0.495553640139334,0.504446359860666,0.5,0.508972509735607,0.0610707506237001,0.485576533956756,-0.5,-0.00897250973560704,0.5,0.0179450194712141,0.967664480010104,2.79610699472802,2.38406703504296,0.5,80.9121103971584
CBC_1034,CBC_1034_MSI_AV_v3_Vset2_Aset3_2023-12-13_14h05.28.139.csv,2,37,0,1,b,1,0,1,aud,A,63,1,0A,1A,1,0,b,2.6067223999994,1,0,1,1,0A,1A,A01,2.85263142991332,0.543281065351141,0.473562617017915,0.491027490264393,0.5,0.482215992390697,0.551476895526287,0.5,0.491027490264393,0.482215992390697,0.491027490264393,0.508972509735607,0.456718934648859,0.5,0.491027490264393,0.483009546105904,0.53493547336531,0.534281792541994,0.465718207458006,0.543281065351141,0.473562617017915,0.162441829892161,0.612412426417454,0.456718934648859,0.00819583017514592,0.5,0.0179450194712141,0.967664480010104,2.79610699472802,2.38406703504296,0.5,80.9121103971584
CBC_1034,CBC_1034_MSI_AV_v3_Vset2_Aset3_2023-12-13_14h05.28.139.csv,2,38,1,3,z,0,1,0,aud,D,27,1,1D,3D,0,1,b,3.72797510000009,1,0,0,0,1D,3D,D13,3.27714473299218,0.551476895526287,0.473562617017915,0.491027490264393,0.5,0.482215992390697,0.551476895526287,0.5,0.491027490264393,0.482215992390697,0.491027490264393,0.508972509735607,0.456718934648859,0.5,0.491027490264393,0.483009546105904,0.53493547336531,0.478601574980067,0.521398425019933,0.491027490264393,0.53493547336531,0.0426569984058959,0.428125018844763,-0.491027490264393,-0.00881149787369591,0.5,0.0179450194712141,0.967664480010104,2.79610699472802,2.38406703504296,0.5,80.9121103971584
CBC_1034,CBC_1034_MSI_AV_v3_Vset2_Aset3_2023-12-13_14h05.28.139.csv,2,39,1,0,b,1,0,3,aud,B,63,1,1B,0B,1,0,z,4.00411459999987,0,1,0,0,0B,1B,B10,3.29583686600433,0.551476895526287,0.473562617017915,0.491027490264393,0.5,0.482215992390697,0.551476895526287,0.5,0.491027490264393,0.482215992390697,0.491027490264393,0.508972509735607,0.456718934648859,0.5,0.482215992390697,0.483009546105904,0.53493547336531,0.466498316886382,0.533501683113617,0.482215992390697,0.551476895526287,0.0299978608411382,0.38989848364236,-0.482215992390697,-0.00865337537278188,0.5,0.0179450194712141,0.967664480010104,2.79610699472802,2.38406703504296,0.5,80.9121103971584
CBC_1034,CBC_1034_MSI_AV_v3_Vset2_Aset3_2023-12-13_14h05.28.139.csv,2,40,3,2,z,0,1,2,aud,C,63,0,3C,2C,1,0,z,1.45284059999949,0,1,1,0,2C,3C,C32,2.90872089656436,0.551476895526287,0.473562617017915,0.491027490264393,0.5,0.473562617017915,0.551476895526287,0.5,0.491027490264393,0.482215992390697,0.491027490264393,0.508972509735607,0.456718934648859,0.5,0.482215992390697,0.483009546105904,0.53493547336531,0.527055005711506,0.472944994288494,0.508972509735607,0.456718934648859,0.387608331583753,0.589333320200051,-0.508972509735607,-0.00913352159751816,0.5,0.0179450194712141,0.967664480010104,2.79610699472802,2.38406703504296,0.5,80.9121103971584
CBC_1034,CBC_1034_MSI_AV_v3_Vset2_Aset3_2023-12-13_14h05.28.139.csv,2,41,0,2,b,1,0,1,aud,A,27,1,0A,2A,1,0,b,3.09837760000073,1,0,1,1,0A,2A,A02,3.3322045101752,0.551476895526287,0.473562617017915,0.491027490264393,0.5,0.473562617017915,0.551476895526287,0.5,0.491027490264393,0.482215992390697,0.491027490264393,0.499838988138089,0.456718934648859,0.5,0.482215992390697,0.483009546105904,0.53493547336531,0.528992398538471,0.471007601461529,0.551476895526287,0.491027490264393,0.102513579762337,0.595316152097539,0.448523104473713,0.00804875584307017,0.5,0.0179450194712141,0.967664480010104,2.79610699472802,2.38406703504296,0.5,80.9121103971584
CBC_1034,CBC_1034_MSI_AV_v3_Vset2_Aset3_2023-12-13_14h05.28.139.csv,2,42,2,3,z,0,1,0,aud,D,63,1,2D,3D,0,1,z,1.6217830999999,0,1,1,1,3D,2D,D23,4.04305126783455,0.559525651369357,0.473562617017915,0.491027490264393,0.5,0.473562617017915,0.551476895526287,0.5,0.491027490264393,0.482215992390697,0.491027490264393,0.499838988138089,0.456718934648859,0.5,0.482215992390697,0.483009546105904,0.53493547336531,0.525505271044197,0.474494728955803,0.53493547336531,0.483009546105904,0.357143464105922,0.584332339692869,0.46506452663469,0.00834559198583046,0.5,0.0179450194712141,0.967664480010104,2.79610699472802,2.38406703504296,0.5,80.9121103971584
CBC_1034,CBC_1034_MSI_AV_v3_Vset2_Aset3_2023-12-13_14h05.28.139.csv,2,43,1,3,b,1,0,3,aud,B,27,1,1B,3B,1,0,b,1.46418230000063,1,0,1,1,1B,3B,B13,3.36729582998647,0.559525651369357,0.473562617017915,0.491027490264393,0.5,0.473562617017915,0.551476895526287,0.5,0.491027490264393,0.482215992390697,0.491027490264393,0.499838988138089,0.456718934648859,0.5,0.482215992390697,0.483009546105904,0.543281065351141,0.528992398538471,0.471007601461529,0.551476895526287,0.491027490264393,0.391704584222614,0.595461955217656,0.448523104473713,0.00804875584307017,0.5,0.0179450194712141,0.967664480010104,2.79610699472802,2.38406703504296,0.5,80.9121103971584
CBC_1034,CBC_1034_MSI_AV_v3_Vset2_Aset3_2023-12-13_14h05.28.139.csv,2,44,3,2,z,0,1,2,aud,C,63,1,3C,2C,0,1,b,1.69356389999984,1,0,0,0,3C,2C,C32,2.69124308278583,0.559525651369357,0.473562617017915,0.491027490264393,0.5,0.473562617017915,0.559525651369357,0.5,0.491027490264393,0.482215992390697,0.491027490264393,0.499838988138089,0.456718934648859,0.5,0.482215992390697,0.483009546105904,0.543281065351141,0.477460824659944,0.522539175340056,0.456718934648859,0.499838988138089,0.247112908383561,0.425802781230189,-0.456718934648859,-0.00819583017514592,0.5,0.0179450194712141,0.967664480010104,2.79610699472802,2.38406703504296,0.5,80.9121103971584
