ID,session,trialNr,mod2Stim,visStimLeft,visStimRight,correctKey,frequency,rewardAccurate,probFB,stimPairLeft,stimPairRight,leftCorrect,rightCorrect,pCorrectLeft,pCorrectRight,triplet,rt,surprise,0A belief,1A belief,2A belief,3A belief,0B belief,1B belief,2B belief,3B belief,0C belief,1C belief,2C belief,3C belief,0D belief,1D belief,2D belief,3D belief,reactionTime,choice,choiceLeft,choiceRight,chosenPair,otherPair,beliefPair,beliefOtherPair,beliefPairNorm,beliefOtherPairNorm,choiceAccurate,reward,rewardPE,update2,sim_CBCsimpleRW_CBCdriftDiffusionLR_startBelief,sim_CBCsimpleRW_CBCdriftDiffusionLR_alpha1,sim_CBCsimpleRW_CBCdriftDiffusionLR_nonDecisionTime,sim_CBCsimpleRW_CBCdriftDiffusionLR_weight,sim_CBCsimpleRW_CBCdriftDiffusionLR_startingBoundary,sim_CBCsimpleRW_CBCdriftDiffusionLR_startingPoint,lik,corrLik,fitCBCsimpleRW_CBCdriftDiffusionLR_startBelief,fitCBCsimpleRW_CBCdriftDiffusionLR_alpha1,fitCBCsimpleRW_CBCdriftDiffusionLR_nonDecisionTime,fitCBCsimpleRW_CBCdriftDiffusionLR_weight,fitCBCsimpleRW_CBCdriftDiffusionLR_startingBoundary,fitCBCsimpleRW_CBCdriftDiffusionLR_startingPoint,fit_CBCsimpleRW_CBCdriftDiffusionLR_NLL
133,1,1,B,1,0,a,63,1,1,1B,0B,1,0,1,0,B10,0.206807422890236,2.77258872223978,0.5,0.5,0.5,0.5,0.5,0.5,0.5,0.5,0.5,0.5,0.5,0.5,0.5,0.5,0.5,0.5,0.975791326546216,1,1,0,1B,0B,0.5,0.5,0.5,0.5,1,1,0.5,0.394408550857609,0.5,0.621356539875671,0.835791326546216,13.1877021280696,1.26898412735832,0.5,0.930933012959663,0.500486882587291,0.5,0.788817101715218,0.82967443895869,11.0101668286231,1.40309093930803,0.5,-43.3457415270124
133,1,2,A,0,1,a,63,1,1,0A,1A,1,0,1,0,A01,0.273782866304449,2.83321334405622,0.5,0.5,0.5,0.5,0.5,0.894408550857609,0.5,0.5,0.5,0.5,0.5,0.5,0.5,0.5,0.5,0.5,1.09879132654622,1,1,0,0A,1A,0.5,0.5,0.5,0.5,1,1,0.5,0.394408550857609,0.5,0.621356539875671,0.835791326546216,13.1877021280696,1.26898412735832,0.5,0.802081644091743,0.500178191870065,0.5,0.788817101715218,0.82967443895869,11.0101668286231,1.40309093930803,0.5,-43.3457415270124
133,1,3,C,1,2,l,9,1,1,1C,2C,0,1,0,1,C12,2.30358494932102,2.89037175789616,0.894408550857609,0.5,0.5,0.5,0.5,0.894408550857609,0.5,0.5,0.5,0.5,0.5,0.5,0.5,0.5,0.5,0.5,1.10279132654622,0,0,1,2C,1C,0.5,0.5,0.5,0.5,1,1,0.5,0.394408550857609,0.5,0.621356539875671,0.835791326546216,13.1877021280696,1.26898412735832,0.5,0.795222482065849,0.500366539894353,0.5,0.788817101715218,0.82967443895869,11.0101668286231,1.40309093930803,0.5,-43.3457415270124
133,1,4,A,1,0,l,63,1,1,1A,0A,0,1,0,1,A10,1.12823295170143,2.94443897916644,0.894408550857609,0.5,0.5,0.5,0.5,0.894408550857609,0.5,0.5,0.5,0.5,0.894408550857609,0.5,0.5,0.5,0.5,0.5,1.29679132654622,0,0,1,0A,1A,0.894408550857609,0.5,0.641425033077657,0.358574966922343,1,1,0.105591449142391,0.0832923408784107,0.5,0.621356539875671,0.835791326546216,13.1877021280696,1.26898412735832,0.5,0.456479032621834,0.987502254470681,0.5,0.788817101715218,0.82967443895869,11.0101668286231,1.40309093930803,0.5,-43.3457415270124
133,1,5,D,3,1,a,27,1,1,3D,1D,1,0,1,0,D31,0.750827425916142,2.99573227355399,0.97770089173602,0.5,0.5,0.5,0.5,0.894408550857609,0.5,0.5,0.5,0.5,0.894408550857609,0.5,0.5,0.5,0.5,0.5,1.48879132654622,0,0,1,1D,3D,0.5,0.5,0.5,0.5,0,0,-0.5,-0.394408550857609,0.5,0.621356539875671,0.835791326546216,13.1877021280696,1.26898412735832,0.5,0.305723159910168,0.499873840432524,0.5,0.788817101715218,0.82967443895869,11.0101668286231,1.40309093930803,0.5,-43.3457415270124
133,1,6,B,0,1,l,63,1,1,0B,1B,0,1,0,1,B01,1.87075031004838,3.04452243772342,0.97770089173602,0.5,0.5,0.5,0.5,0.894408550857609,0.5,0.5,0.5,0.5,0.894408550857609,0.5,0.5,0.105591449142391,0.5,0.5,1.03779132654622,0,0,1,1B,0B,0.894408550857609,0.5,0.641425033077657,0.358574966922343,1,1,0.105591449142391,0.0832923408784107,0.5,0.621356539875671,0.835791326546216,13.1877021280696,1.26898412735832,0.5,2.92690440332189,0.987488487356809,0.5,0.788817101715218,0.82967443895869,11.0101668286231,1.40309093930803,0.5,-43.3457415270124
133,1,7,C,2,3,a,63,1,1,2C,3C,1,0,1,0,C23,1.00514875752087,3.09104245335832,0.97770089173602,0.5,0.5,0.5,0.5,0.97770089173602,0.5,0.5,0.5,0.5,0.894408550857609,0.5,0.5,0.105591449142391,0.5,0.5,1.03379132654622,1,1,0,2C,3C,0.894408550857609,0.5,0.641425033077657,0.358574966922343,1,1,0.105591449142391,0.0832923408784107,0.5,0.621356539875671,0.835791326546216,13.1877021280696,1.26898412735832,0.5,3.00240882167442,0.987515629921868,0.5,0.788817101715218,0.82967443895869,11.0101668286231,1.40309093930803,0.5,-43.3457415270124
133,1,8,A,2,0,l,27,1,1,2A,0A,0,1,0,1,A20,2.65071117492996,3.13549421592915,0.97770089173602,0.5,0.5,0.5,0.5,0.97770089173602,0.5,0.5,0.5,0.5,0.97770089173602,0.5,0.5,0.105591449142391,0.5,0.5,1.04879132654622,0,0,1,0A,2A,0.97770089173602,0.5,0.66163653091351,0.33836346908649,1,1,0.0222991082639803,0.0175899179516268,0.5,0.621356539875671,0.835791326546216,13.1877021280696,1.26898412735832,0.5,2.68983813439074,0.993261205243442,0.5,0.788817101715218,0.82967443895869,11.0101668286231,1.40309093930803,0.5,-43.3457415270124
133,1,9,D,3,2,a,63,1,1,3D,2D,1,0,1,0,D32,3.02257290428289,3.17805383034795,0.995290809687646,0.5,0.5,0.5,0.5,0.97770089173602,0.5,0.5,0.5,0.5,0.97770089173602,0.5,0.5,0.105591449142391,0.5,0.5,0.964791326546216,0,0,1,2D,3D,0.5,0.5,0.5,0.5,0,0,-0.5,-0.394408550857609,0.5,0.621356539875671,0.835791326546216,13.1877021280696,1.26898412735832,0.5,0.91200682959807,0.500069723253608,0.5,0.788817101715218,0.82967443895869,11.0101668286231,1.40309093930803,0.5,-43.3457415270124
133,1,10,B,3,1,l,27,1,1,3B,1B,0,1,0,1,B31,0.214284935570518,3.2188758248682,0.995290809687646,0.5,0.5,0.5,0.5,0.97770089173602,0.5,0.5,0.5,0.5,0.97770089173602,0.5,0.5,0.105591449142391,0.105591449142391,0.5,1.05379132654622,0,0,1,1B,3B,0.97770089173602,0.5,0.66163653091351,0.33836346908649,1,1,0.0222991082639803,0.0175899179516268,0.5,0.621356539875671,0.835791326546216,13.1877021280696,1.26898412735832,0.5,2.58311877500094,0.993256485532413,0.5,0.788817101715218,0.82967443895869,11.0101668286231,1.40309093930803,0.5,-43.3457415270124
133,1,11,C,3,2,l,63,1,1,3C,2C,0,1,0,1,C32,2.44262505429055,3.25809653802148,0.995290809687646,0.5,0.5,0.5,0.5,0.995290809687646,0.5,0.5,0.5,0.5,0.97770089173602,0.5,0.5,0.105591449142391,0.105591449142391,0.5,0.886791326546216,0,0,1,2C,3C,0.97770089173602,0.5,0.66163653091351,0.33836346908649,1,1,0.0222991082639803,0.0175899179516268,0.5,0.621356539875671,0.835791326546216,13.1877021280696,1.26898412735832,0.5,2.33401252622558,0.99327123921291,0.5,0.788817101715218,0.82967443895869,11.0101668286231,1.40309093930803,0.5,-43.3457415270124
133,1,12,B,1,3,a,27,1,1,1B,3B,1,0,1,0,B13,0.460596504379845,3.29583686600433,0.995290809687646,0.5,0.5,0.5,0.5,0.995290809687646,0.5,0.5,0.5,0.5,0.995290809687646,0.5,0.5,0.105591449142391,0.105591449142391,0.5,0.998791326546216,1,1,0,1B,3B,0.995290809687646,0.5,0.665616884180245,0.334383115819755,1,1,0.00470919031235351,0.00371468985361608,0.5,0.621356539875671,0.835791326546216,13.1877021280696,1.26898412735832,0.5,3.93886767979504,0.994025382470542,0.5,0.788817101715218,0.82967443895869,11.0101668286231,1.40309093930803,0.5,-43.3457415270124
133,1,13,C,3,2,l,63,1,1,3C,2C,0,1,0,1,C32,0.0372637596339656,2.63905732961526,0.995290809687646,0.5,0.5,0.5,0.5,0.999005499541263,0.5,0.5,0.5,0.5,0.995290809687646,0.5,0.5,0.105591449142391,0.105591449142391,0.5,0.986791326546216,0,0,1,2C,3C,0.995290809687646,0.5,0.665616884180245,0.334383115819755,1,1,0.00470919031235351,0.00371468985361608,0.5,0.621356539875671,0.835791326546216,13.1877021280696,1.26898412735832,0.5,4.2641850209829,0.994048804023974,0.5,0.788817101715218,0.82967443895869,11.0101668286231,1.40309093930803,0.5,-43.3457415270124
133,1,14,D,3,2,a,63,1,1,3D,2D,1,0,1,0,D32,2.43426426188358,2.67414864942653,0.995290809687646,0.5,0.5,0.5,0.5,0.999005499541263,0.5,0.5,0.5,0.5,0.999005499541263,0.5,0.5,0.105591449142391,0.105591449142391,0.5,0.914791326546216,1,1,0,3D,2D,0.5,0.105591449142391,0.825639134614723,0.174360865385276,1,1,0.5,0.394408550857609,0.5,0.621356539875671,0.835791326546216,13.1877021280696,1.26898412735832,0.5,10.7332314762383,0.99995730427789,0.5,0.788817101715218,0.82967443895869,11.0101668286231,1.40309093930803,0.5,-43.3457415270124
133,1,15,A,0,3,a,9,1,1,0A,3A,1,0,1,0,A03,0.259527364050013,3.40119738166216,0.995290809687646,0.5,0.5,0.5,0.5,0.999005499541263,0.5,0.5,0.5,0.5,0.999005499541263,0.5,0.5,0.105591449142391,0.105591449142391,0.894408550857609,0.992791326546216,1,1,0,0A,3A,0.995290809687646,0.5,0.665616884180245,0.334383115819755,1,1,0.00470919031235351,0.00371468985361608,0.5,0.621356539875671,0.835791326546216,13.1877021280696,1.26898412735832,0.5,4.10357435928907,0.994059459660782,0.5,0.788817101715218,0.82967443895869,11.0101668286231,1.40309093930803,0.5,-43.3457415270124
133,1,16,B,0,1,l,63,1,1,0B,1B,0,1,0,1,B01,1.35048605288691,2.7408400239252,0.999005499541263,0.5,0.5,0.5,0.5,0.999005499541263,0.5,0.5,0.5,0.5,0.999005499541263,0.5,0.5,0.105591449142391,0.105591449142391,0.894408550857609,1.01679132654622,0,0,1,1B,0B,0.999005499541263,0.5,0.666445519944381,0.333554480055619,1,1,0.000994500458737391,0.000784478969515683,0.5,0.621356539875671,0.835791326546216,13.1877021280696,1.26898412735832,0.5,3.45512932314484,0.994179703076978,0.5,0.788817101715218,0.82967443895869,11.0101668286231,1.40309093930803,0.5,-43.3457415270124
133,1,17,D,2,3,l,63,1,1,2D,3D,0,1,0,1,D23,3.32190391781768,3.46573590279973,0.999005499541263,0.5,0.5,0.5,0.5,0.999789978510778,0.5,0.5,0.5,0.5,0.999005499541263,0.5,0.5,0.105591449142391,0.105591449142391,0.894408550857609,0.921791326546216,0,0,1,3D,2D,0.894408550857609,0.105591449142391,0.894408550857609,0.105591449142391,1,1,0.105591449142391,0.0832923408784107,0.5,0.621356539875671,0.835791326546216,13.1877021280696,1.26898412735832,0.5,9.49726371281006,0.999994896545819,0.5,0.788817101715218,0.82967443895869,11.0101668286231,1.40309093930803,0.5,-43.3457415270124
133,1,18,C,0,2,l,27,1,1,0C,2C,0,1,0,1,C02,2.17790861591629,3.49650756146648,0.999005499541263,0.5,0.5,0.5,0.5,0.999789978510778,0.5,0.5,0.5,0.5,0.999005499541263,0.5,0.5,0.105591449142391,0.105591449142391,0.97770089173602,1.00479132654622,0,0,1,2C,0C,0.999005499541263,0.5,0.666445519944381,0.333554480055619,1,1,0.000994500458737391,0.000784478969515683,0.5,0.621356539875671,0.835791326546216,13.1877021280696,1.26898412735832,0.5,3.7802447177849,0.994186422381359,0.5,0.788817101715218,0.82967443895869,11.0101668286231,1.40309093930803,0.5,-43.3457415270124
133,1,19,A,0,1,a,63,1,1,0A,1A,1,0,1,0,A01,1.58546480663474,2.83321334405622,0.999005499541263,0.5,0.5,0.5,0.5,0.999789978510778,0.5,0.5,0.5,0.5,0.999789978510778,0.5,0.5,0.105591449142391,0.105591449142391,0.97770089173602,1.05079132654622,1,1,0,0A,1A,0.999005499541263,0.5,0.666445519944381,0.333554480055619,1,1,0.000994500458737391,0.000784478969515683,0.5,0.621356539875671,0.835791326546216,13.1877021280696,1.26898412735832,0.5,2.61972993978803,0.994183737304854,0.5,0.788817101715218,0.82967443895869,11.0101668286231,1.40309093930803,0.5,-43.3457415270124
133,1,20,B,1,0,a,63,1,1,1B,0B,1,0,1,0,B10,3.39678606300679,2.86220088092947,0.999789978510778,0.5,0.5,0.5,0.5,0.999789978510778,0.5,0.5,0.5,0.5,0.999789978510778,0.5,0.5,0.105591449142391,0.105591449142391,0.97770089173602,1.00179132654622,1,1,0,1B,0B,0.999789978510778,0.5,0.666619988689032,0.333380011310968,1,1,0.000210021489221668,0.00016566854242575,0.5,0.621356539875671,0.835791326546216,13.1877021280696,1.26898412735832,0.5,3.864074265566,0.994227359163035,0.5,0.788817101715218,0.82967443895869,11.0101668286231,1.40309093930803,0.5,-43.3457415270124
133,1,21,D,1,3,l,27,1,1,1D,3D,0,1,0,1,D13,3.18092793398965,3.58351893845611,0.999789978510778,0.5,0.5,0.5,0.5,0.999955647053204,0.5,0.5,0.5,0.5,0.999789978510778,0.5,0.5,0.105591449142391,0.105591449142391,0.97770089173602,0.882791326546216,0,0,1,3D,1D,0.97770089173602,0.105591449142391,0.902527281733784,0.097472718266216,1,1,0.0222991082639803,0.0175899179516268,0.5,0.621356539875671,0.835791326546216,13.1877021280696,1.26898412735832,0.5,13.848286003702,0.999996024949471,0.5,0.788817101715218,0.82967443895869,11.0101668286231,1.40309093930803,0.5,-43.3457415270124
133,1,22,C,3,2,l,63,1,1,3C,2C,0,1,0,1,C32,1.81494682126623,2.51230562397611,0.999789978510778,0.5,0.5,0.5,0.5,0.999955647053204,0.5,0.5,0.5,0.5,0.999789978510778,0.5,0.5,0.105591449142391,0.105591449142391,0.995290809687646,1.11779132654622,0,0,1,2C,3C,0.999789978510778,0.5,0.666619988689032,0.333380011310968,1,1,0.000210021489221668,0.00016566854242575,0.5,0.621356539875671,0.835791326546216,13.1877021280696,1.26898412735832,0.5,1.44851626652367,0.994222390151614,0.5,0.788817101715218,0.82967443895869,11.0101668286231,1.40309093930803,0.5,-43.3457415270124
133,1,23,A,0,1,a,63,1,1,0A,1A,1,0,1,0,A01,2.7418206899038,2.53897387105828,0.999789978510778,0.5,0.5,0.5,0.5,0.999955647053204,0.5,0.5,0.5,0.5,0.999955647053204,0.5,0.5,0.105591449142391,0.105591449142391,0.995290809687646,0.955791326546216,1,1,0,0A,1A,0.999789978510778,0.5,0.666619988689032,0.333380011310968,1,1,0.000210021489221668,0.00016566854242575,0.5,0.621356539875671,0.835791326546216,13.1877021280696,1.26898412735832,0.5,4.98397428526353,0.994220243723015,0.5,0.788817101715218,0.82967443895869,11.0101668286231,1.40309093930803,0.5,-43.3457415270124
133,1,24,D,2,3,l,63,1,1,2D,3D,0,1,0,1,D23,2.46233225621276,2.9704144655697,0.999955647053204,0.5,0.5,0.5,0.5,0.999955647053204,0.5,0.5,0.5,0.5,0.999955647053204,0.5,0.5,0.105591449142391,0.105591449142391,0.995290809687646,0.887791326546216,0,0,1,3D,2D,0.995290809687646,0.105591449142391,0.904084702705076,0.0959152972949244,1,1,0.00470919031235351,0.00371468985361608,0.5,0.621356539875671,0.835791326546216,13.1877021280696,1.26898412735832,0.5,14.9044409263101,0.999996208125861,0.5,0.788817101715218,0.82967443895869,11.0101668286231,1.40309093930803,0.5,-43.3457415270124
133,1,25,C,2,0,a,27,1,1,2C,0C,1,0,1,0,C20,0.282546772007667,3.68887945411394,0.999955647053204,0.5,0.5,0.5,0.5,0.999955647053204,0.5,0.5,0.5,0.5,0.999955647053204,0.5,0.5,0.105591449142391,0.105591449142391,0.999005499541263,0.932791326546216,1,1,0,2C,0C,0.999955647053204,0.5,0.666656810164824,0.333343189835176,1,1,4.43529467959447e-05,3.49863629441064e-05,0.5,0.621356539875671,0.835791326546216,13.1877021280696,1.26898412735832,0.5,5.09733502710723,0.994242686620862,0.5,0.788817101715218,0.82967443895869,11.0101668286231,1.40309093930803,0.5,-43.3457415270124
133,1,26,A,0,1,a,63,1,1,0A,1A,1,0,1,0,A01,0.187322698109841,2.32727770558442,0.999955647053204,0.5,0.5,0.5,0.5,0.999955647053204,0.5,0.5,0.5,0.5,0.999990633416148,0.5,0.5,0.105591449142391,0.105591449142391,0.999005499541263,0.971791326546216,1,1,0,0A,1A,0.999955647053204,0.5,0.666656810164824,0.333343189835176,1,1,4.43529467959447e-05,3.49863629441064e-05,0.5,0.621356539875671,0.835791326546216,13.1877021280696,1.26898412735832,0.5,4.66072839177495,0.994225150585974,0.5,0.788817101715218,0.82967443895869,11.0101668286231,1.40309093930803,0.5,-43.3457415270124
133,1,27,B,1,3,a,27,1,1,1B,3B,1,0,1,0,B13,1.29938190989865,3.04452243772342,0.999990633416148,0.5,0.5,0.5,0.5,0.999955647053204,0.5,0.5,0.5,0.5,0.999990633416148,0.5,0.5,0.105591449142391,0.105591449142391,0.999005499541263,1.04079132654622,1,1,0,1B,3B,0.999955647053204,0.5,0.666656810164824,0.333343189835176,1,1,4.43529467959447e-05,3.49863629441064e-05,0.5,0.621356539875671,0.835791326546216,13.1877021280696,1.26898412735832,0.5,2.8478323870587,0.994238213689085,0.5,0.788817101715218,0.82967443895869,11.0101668286231,1.40309093930803,0.5,-43.3457415270124
133,1,28,C,3,2,l,63,1,1,3C,2C,0,1,0,1,C32,2.334062523415,2.37490575457367,0.999990633416148,0.5,0.5,0.5,0.5,0.999990633416148,0.5,0.5,0.5,0.5,0.999990633416148,0.5,0.5,0.105591449142391,0.105591449142391,0.999005499541263,0.923791326546216,0,0,1,2C,3C,0.999990633416148,0.5,0.666664585190591,0.333335414809409,1,1,9.36658385186639e-06,7.38852152700181e-06,0.5,0.621356539875671,0.835791326546216,13.1877021280696,1.26898412735832,0.5,4.94179102823596,0.994232893669407,0.5,0.788817101715218,0.82967443895869,11.0101668286231,1.40309093930803,0.5,-43.3457415270124
133,1,29,D,3,2,a,63,1,1,3D,2D,1,0,1,0,D32,2.36983673438451,2.68557734525015,0.999990633416148,0.5,0.5,0.5,0.5,0.999990633416148,0.5,0.5,0.5,0.5,0.999998021937675,0.5,0.5,0.105591449142391,0.105591449142391,0.999005499541263,0.888791326546216,1,1,0,3D,2D,0.999005499541263,0.105591449142391,0.904407259798948,0.0955927402010517,1,1,0.000994500458737391,0.000784478969515683,0.5,0.621356539875671,0.835791326546216,13.1877021280696,1.26898412735832,0.5,15.023140753517,0.99999625251328,0.5,0.788817101715218,0.82967443895869,11.0101668286231,1.40309093930803,0.5,-43.3457415270124
133,1,30,B,0,1,l,63,1,1,0B,1B,0,1,0,1,B01,1.35369545141609,2.70805020110221,0.999990633416148,0.5,0.5,0.5,0.5,0.999990633416148,0.5,0.5,0.5,0.5,0.999998021937675,0.5,0.5,0.105591449142391,0.105591449142391,0.999789978510778,0.907791326546216,0,0,1,1B,0B,0.999990633416148,0.5,0.666664585190591,0.333335414809409,1,1,9.36658385186639e-06,7.38852152700181e-06,0.5,0.621356539875671,0.835791326546216,13.1877021280696,1.26898412735832,0.5,4.25988856191039,0.994228714586336,0.5,0.788817101715218,0.82967443895869,11.0101668286231,1.40309093930803,0.5,-43.3457415270124
133,1,31,A,2,0,l,27,1,1,2A,0A,0,1,0,1,A20,2.97637131630717,3.13549421592915,0.999990633416148,0.5,0.5,0.5,0.5,0.999998021937675,0.5,0.5,0.5,0.5,0.999998021937675,0.5,0.5,0.105591449142391,0.105591449142391,0.999789978510778,0.886791326546216,0,0,1,0A,2A,0.999990633416148,0.5,0.666664585190591,0.333335414809409,1,1,9.36658385186639e-06,7.38852152700181e-06,0.5,0.621356539875671,0.835791326546216,13.1877021280696,1.26898412735832,0.5,2.46379011752462,0.994222341632557,0.5,0.788817101715218,0.82967443895869,11.0101668286231,1.40309093930803,0.5,-43.3457415270124
133,1,32,D,3,0,a,9,1,1,3D,0D,1,0,1,0,D30,1.30187834212883,3.85014760171006,0.999998021937675,0.5,0.5,0.5,0.5,0.999998021937675,0.5,0.5,0.5,0.5,0.999998021937675,0.5,0.5,0.105591449142391,0.105591449142391,0.999789978510778,1.01279132654622,0,0,1,0D,3D,0.5,0.999789978510778,0.333380011310968,0.666619988689032,0,0,-0.5,-0.394408550857609,0.5,0.621356539875671,0.835791326546216,13.1877021280696,1.26898412735832,0.5,0.0207235650550435,0.00578300987145174,0.5,0.788817101715218,0.82967443895869,11.0101668286231,1.40309093930803,0.5,-43.3457415270124
133,1,33,C,3,2,l,63,1,1,3C,2C,0,1,0,1,C32,1.48905979573346,2.26176309847379,0.999998021937675,0.5,0.5,0.5,0.5,0.999998021937675,0.5,0.5,0.5,0.5,0.999998021937675,0.5,0.105591449142391,0.105591449142391,0.105591449142391,0.999789978510778,0.938791326546216,0,0,1,2C,3C,0.999998021937675,0.5,0.666666227096681,0.333333772903319,1,1,1.97806232482556e-06,1.56032939008096e-06,0.5,0.621356539875671,0.835791326546216,13.1877021280696,1.26898412735832,0.5,5.12406790563487,0.994223523874091,0.5,0.788817101715218,0.82967443895869,11.0101668286231,1.40309093930803,0.5,-43.3457415270124
133,1,34,B,0,1,l,63,1,1,0B,1B,0,1,0,1,B01,0.826921356875512,2.50552593699074,0.999998021937675,0.5,0.5,0.5,0.5,0.999998021937675,0.5,0.5,0.5,0.5,0.999999582267065,0.5,0.105591449142391,0.105591449142391,0.105591449142391,0.999789978510778,0.941791326546216,0,0,1,1B,0B,0.999998021937675,0.5,0.666666227096681,0.333333772903319,1,1,1.97806232482556e-06,1.56032939008096e-06,0.5,0.621356539875671,0.835791326546216,13.1877021280696,1.26898412735832,0.5,5.12517514085132,0.994244292834934,0.5,0.788817101715218,0.82967443895869,11.0101668286231,1.40309093930803,0.5,-43.3457415270124
133,1,35,A,0,1,a,63,1,1,0A,1A,1,0,1,0,A01,1.78039465885823,2.30258509299405,0.999998021937675,0.5,0.5,0.5,0.5,0.999999582267065,0.5,0.5,0.5,0.5,0.999999582267065,0.5,0.105591449142391,0.105591449142391,0.105591449142391,0.999789978510778,1.07479132654622,1,1,0,0A,1A,0.999998021937675,0.5,0.666666227096681,0.333333772903319,1,1,1.97806232482556e-06,1.56032939008096e-06,0.5,0.621356539875671,0.835791326546216,13.1877021280696,1.26898412735832,0.5,2.12662500504251,0.994234865052987,0.5,0.788817101715218,0.82967443895869,11.0101668286231,1.40309093930803,0.5,-43.3457415270124
133,1,36,D,2,3,l,63,1,1,2D,3D,0,1,0,1,D23,3.03295625395265,2.83321334405622,0.999999582267065,0.5,0.5,0.5,0.5,0.999999582267065,0.5,0.5,0.5,0.5,0.999999582267065,0.5,0.105591449142391,0.105591449142391,0.105591449142391,0.999789978510778,0.980791326546216,0,0,1,3D,2D,0.999789978510778,0.105591449142391,0.904475101082011,0.0955248989179886,1,1,0.000210021489221668,0.00016566854242575,0.5,0.621356539875671,0.835791326546216,13.1877021280696,1.26898412735832,0.5,1.20638557272394,0.999996258056313,0.5,0.788817101715218,0.82967443895869,11.0101668286231,1.40309093930803,0.5,-43.3457415270124
133,1,37,B,1,2,a,9,1,1,1B,2B,1,0,1,0,B12,2.45705145895991,3.95124371858143,0.999999582267065,0.5,0.5,0.5,0.5,0.999999582267065,0.5,0.5,0.5,0.5,0.999999582267065,0.5,0.105591449142391,0.105591449142391,0.105591449142391,0.999955647053204,1.03379132654622,1,1,0,1B,2B,0.999999582267065,0.5,0.6666665738371,0.3333334261629,1,1,4.17732934798742e-07,3.29514882918936e-07,0.5,0.621356539875671,0.835791326546216,13.1877021280696,1.26898412735832,0.5,3.01755615045026,0.994230672986878,0.5,0.788817101715218,0.82967443895869,11.0101668286231,1.40309093930803,0.5,-43.3457415270124
133,1,38,A,2,0,l,27,1,1,2A,0A,0,1,0,1,A20,2.56622947159121,2.87167962488401,0.999999582267065,0.5,0.5,0.5,0.5,0.999999911781948,0.5,0.5,0.5,0.5,0.999999582267065,0.5,0.105591449142391,0.105591449142391,0.105591449142391,0.999955647053204,1.15179132654622,0,0,1,0A,2A,0.999999582267065,0.5,0.6666665738371,0.3333334261629,1,1,4.17732934798742e-07,3.29514882918936e-07,0.5,0.621356539875671,0.835791326546216,13.1877021280696,1.26898412735832,0.5,1.06329008840571,0.994217664276364,0.5,0.788817101715218,0.82967443895869,11.0101668286231,1.40309093930803,0.5,-43.3457415270124
133,1,39,C,2,3,a,63,1,1,2C,3C,1,0,1,0,C23,0.0726961249597086,3.29583686600433,0.999999911781948,0.5,0.5,0.5,0.5,0.999999911781948,0.5,0.5,0.5,0.5,0.999999582267065,0.5,0.105591449142391,0.105591449142391,0.105591449142391,0.999955647053204,1.32879132654622,1,1,0,2C,3C,0.999999582267065,0.5,0.6666665738371,0.3333334261629,1,1,4.17732934798742e-07,3.29514882918936e-07,0.5,0.621356539875671,0.835791326546216,13.1877021280696,1.26898412735832,0.5,0.207753421800774,0.994236769128819,0.5,0.788817101715218,0.82967443895869,11.0101668286231,1.40309093930803,0.5,-43.3457415270124
133,1,40,D,1,3,l,27,1,1,1D,3D,0,1,0,1,D13,1.84764104770457,3.31418600467253,0.999999911781948,0.5,0.5,0.5,0.5,0.999999911781948,0.5,0.5,0.5,0.5,0.999999911781948,0.5,0.105591449142391,0.105591449142391,0.105591449142391,0.999955647053204,0.905791326546216,0,0,1,3D,1D,0.999955647053204,0.105591449142391,0.904489415687715,0.0955105843122847,1,1,4.43529467959447e-05,3.49863629441064e-05,0.5,0.621356539875671,0.835791326546216,13.1877021280696,1.26898412735832,0.5,13.2789133339086,0.999996265122681,0.5,0.788817101715218,0.82967443895869,11.0101668286231,1.40309093930803,0.5,-43.3457415270124
133,1,41,A,0,1,a,63,1,1,0A,1A,1,0,1,0,A01,1.90336534303341,2.23359222150709,0.999999911781948,0.5,0.5,0.5,0.5,0.999999911781948,0.5,0.5,0.5,0.5,0.999999911781948,0.5,0.105591449142391,0.105591449142391,0.105591449142391,0.999990633416148,0.908791326546216,1,1,0,0A,1A,0.999999911781948,0.5,0.666666647062654,0.333333352937346,1,1,8.82180518635423e-08,6.95879079899622e-08,0.5,0.621356539875671,0.835791326546216,13.1877021280696,1.26898412735832,0.5,4.32077416017052,0.994232405174314,0.5,0.788817101715218,0.82967443895869,11.0101668286231,1.40309093930803,0.5,-43.3457415270124
133,1,42,C,0,2,l,27,1,1,0C,2C,0,1,0,1,C02,0.746940650381089,3.3499040872746,0.999999981369856,0.5,0.5,0.5,0.5,0.999999911781948,0.5,0.5,0.5,0.5,0.999999911781948,0.5,0.105591449142391,0.105591449142391,0.105591449142391,0.999990633416148,1.05879132654622,0,0,1,2C,0C,0.999999911781948,0.5,0.666666647062654,0.333333352937346,1,1,8.82180518635423e-08,6.95879079899622e-08,0.5,0.621356539875671,0.835791326546216,13.1877021280696,1.26898412735832,0.5,2.44516774477299,0.994221676495924,0.5,0.788817101715218,0.82967443895869,11.0101668286231,1.40309093930803,0.5,-43.3457415270124
133,1,43,D,3,2,a,63,1,1,3D,2D,1,0,1,0,D32,1.03240007419408,2.67414864942653,0.999999981369856,0.5,0.5,0.5,0.5,0.999999911781948,0.5,0.5,0.5,0.5,0.999999981369856,0.5,0.105591449142391,0.105591449142391,0.105591449142391,0.999990633416148,0.879791326546216,1,1,0,3D,2D,0.999990633416148,0.105591449142391,0.904492438138984,0.0955075618610163,1,1,9.36658385186639e-06,7.38852152700181e-06,0.5,0.621356539875671,0.835791326546216,13.1877021280696,1.26898412735832,0.5,13.0268034790474,0.999996260118009,0.5,0.788817101715218,0.82967443895869,11.0101668286231,1.40309093930803,0.5,-43.3457415270124
133,1,44,B,1,0,a,63,1,1,1B,0B,1,0,1,0,B10,1.28567089381135,2.97892515523761,0.999999981369856,0.5,0.5,0.5,0.5,0.999999911781948,0.5,0.5,0.5,0.5,0.999999981369856,0.5,0.105591449142391,0.105591449142391,0.105591449142391,0.999998021937675,0.956791326546216,1,1,0,1B,0B,0.999999911781948,0.5,0.666666647062654,0.333333352937346,1,1,8.82180518635423e-08,6.95879079899622e-08,0.5,0.621356539875671,0.835791326546216,13.1877021280696,1.26898412735832,0.5,4.96896484024567,0.994227467633079,0.5,0.788817101715218,0.82967443895869,11.0101668286231,1.40309093930803,0.5,-43.3457415270124
