ID,session,trialNr,mod2Stim,visStimLeft,visStimRight,correctKey,frequency,rewardAccurate,probFB,stimPairLeft,stimPairRight,leftCorrect,rightCorrect,pCorrectLeft,pCorrectRight,triplet,rt,surprise,0A belief,1A belief,2A belief,3A belief,0B belief,1B belief,2B belief,3B belief,0C belief,1C belief,2C belief,3C belief,0D belief,1D belief,2D belief,3D belief,reactionTime,choice,choiceLeft,choiceRight,chosenPair,otherPair,beliefPair,beliefOtherPair,beliefPairNorm,beliefOtherPairNorm,choiceAccurate,reward,rewardPE,update2,sim_CBCsimpleRW_CBCdriftDiffusionLR_startBelief,sim_CBCsimpleRW_CBCdriftDiffusionLR_alpha1,sim_CBCsimpleRW_CBCdriftDiffusionLR_nonDecisionTime,sim_CBCsimpleRW_CBCdriftDiffusionLR_weight,sim_CBCsimpleRW_CBCdriftDiffusionLR_startingBoundary,sim_CBCsimpleRW_CBCdriftDiffusionLR_startingPoint,lik,corrLik,fitCBCsimpleRW_CBCdriftDiffusionLR_startBelief,fitCBCsimpleRW_CBCdriftDiffusionLR_alpha1,fitCBCsimpleRW_CBCdriftDiffusionLR_nonDecisionTime,fitCBCsimpleRW_CBCdriftDiffusionLR_weight,fitCBCsimpleRW_CBCdriftDiffusionLR_startingBoundary,fitCBCsimpleRW_CBCdriftDiffusionLR_startingPoint,fit_CBCsimpleRW_CBCdriftDiffusionLR_NLL
163,1,1,A,0,1,a,63,1,0.73,0A,1A,1,0,1,0,A01,0.0905833549914657,2.77258872223978,0.5,0.5,0.5,0.5,0.5,0.5,0.5,0.5,0.5,0.5,0.5,0.5,0.5,0.5,0.5,0.5,1.58975545322087,0,0,1,1A,0A,0.5,0.5,0.5,0.5,0,0,-0.5,-0.286239386360522,0.5,0.544269951246206,1.00675545322087,10.8674491085599,3.37281230563209,0.5,0.154943581080039,0.50060189356215,0.5,0.572478772721045,1.01637632436287,9.16521723452873,3.21737701380499,0.5,25.66635327579
163,1,2,D,2,3,l,63,1,0.73,2D,3D,0,1,0,1,D23,2.99802351961125,2.83321334405622,0.5,0.213760613639478,0.5,0.5,0.5,0.5,0.5,0.5,0.5,0.5,0.5,0.5,0.5,0.5,0.5,0.5,9.75975545322087,0,0,1,3D,2D,0.5,0.5,0.5,0.5,1,1,0.5,0.286239386360522,0.5,0.544269951246206,1.00675545322087,10.8674491085599,3.37281230563209,0.5,0.00472057048269952,0.502391681740708,0.5,0.572478772721045,1.01637632436287,9.16521723452873,3.21737701380499,0.5,25.66635327579
163,1,3,C,0,2,l,27,1,0.73,0C,2C,0,1,0,1,C02,0.243936933001652,2.89037175789616,0.5,0.213760613639478,0.5,0.5,0.5,0.5,0.5,0.5,0.5,0.5,0.5,0.5,0.5,0.5,0.5,0.786239386360522,1.88075545322087,1,1,0,0C,2C,0.5,0.5,0.5,0.5,0,0,-0.5,-0.286239386360522,0.5,0.544269951246206,1.00675545322087,10.8674491085599,3.37281230563209,0.5,0.178684708213581,0.499874081713038,0.5,0.572478772721045,1.01637632436287,9.16521723452873,3.21737701380499,0.5,25.66635327579
163,1,4,A,0,1,a,63,1,0.73,0A,1A,1,0,1,0,A01,1.50204700244618,2.2512917986065,0.5,0.213760613639478,0.5,0.5,0.5,0.5,0.5,0.5,0.213760613639478,0.5,0.5,0.5,0.5,0.5,0.5,0.786239386360522,1.39975545322087,1,1,0,0A,1A,0.5,0.213760613639478,0.700514977214127,0.299485022785873,1,1,0.5,0.286239386360522,0.5,0.544269951246206,1.00675545322087,10.8674491085599,3.37281230563209,0.5,2.56567548895058,0.999992636127364,0.5,0.572478772721045,1.01637632436287,9.16521723452873,3.21737701380499,0.5,25.66635327579
163,1,5,B,1,3,a,27,1,0.73,1B,3B,1,0,1,0,B13,3.06852329194341,2.99573227355399,0.786239386360522,0.213760613639478,0.5,0.5,0.5,0.5,0.5,0.5,0.213760613639478,0.5,0.5,0.5,0.5,0.5,0.5,0.786239386360522,4.21175545322087,1,1,0,1B,3B,0.5,0.5,0.5,0.5,1,1,0.5,0.286239386360522,0.5,0.544269951246206,1.00675545322087,10.8674491085599,3.37281230563209,0.5,0.0660313135984727,0.499052048561279,0.5,0.572478772721045,1.01637632436287,9.16521723452873,3.21737701380499,0.5,25.66635327579
163,1,6,C,3,2,l,63,1,0.73,3C,2C,0,1,0,1,C32,1.40103771254157,3.04452243772342,0.786239386360522,0.213760613639478,0.5,0.5,0.5,0.786239386360522,0.5,0.5,0.213760613639478,0.5,0.5,0.5,0.5,0.5,0.5,0.786239386360522,1.76975545322087,1,1,0,3C,2C,0.5,0.5,0.5,0.5,0,0,-0.5,-0.286239386360522,0.5,0.544269951246206,1.00675545322087,10.8674491085599,3.37281230563209,0.5,0.17630038577561,0.500345378352576,0.5,0.572478772721045,1.01637632436287,9.16521723452873,3.21737701380499,0.5,25.66635327579
163,1,7,D,3,2,a,63,0,0.73,3D,2D,1,0,0,1,D32,0.824761434835492,3.09104245335832,0.786239386360522,0.213760613639478,0.5,0.5,0.5,0.786239386360522,0.5,0.5,0.213760613639478,0.5,0.5,0.213760613639478,0.5,0.5,0.5,0.786239386360522,1.55775545322087,1,1,0,3D,2D,0.786239386360522,0.5,0.611269873009584,0.388730126990416,1,0,-0.786239386360522,-0.450105358968619,0.5,0.544269951246206,1.00675545322087,10.8674491085599,3.37281230563209,0.5,1.27388621702954,0.998590935904611,0.5,0.572478772721045,1.01637632436287,9.16521723452873,3.21737701380499,0.5,25.66635327579
163,1,8,B,0,1,l,63,1,0.73,0B,1B,0,1,0,1,B01,2.7337927316198,3.13549421592915,0.786239386360522,0.213760613639478,0.5,0.5,0.5,0.786239386360522,0.5,0.5,0.213760613639478,0.5,0.5,0.213760613639478,0.5,0.5,0.5,0.336134027391903,1.56175545322087,0,0,1,1B,0B,0.786239386360522,0.5,0.611269873009584,0.388730126990416,1,1,0.213760613639478,0.122373413752426,0.5,0.544269951246206,1.00675545322087,10.8674491085599,3.37281230563209,0.5,1.27083200731911,0.998585774839049,0.5,0.572478772721045,1.01637632436287,9.16521723452873,3.21737701380499,0.5,25.66635327579
163,1,9,A,2,0,l,27,0,0.73,2A,0A,0,1,1,0,A20,3.04848094676338,3.17805383034795,0.786239386360522,0.213760613639478,0.5,0.5,0.5,0.908612800112948,0.5,0.5,0.213760613639478,0.5,0.5,0.213760613639478,0.5,0.5,0.5,0.336134027391903,1.36875545322087,0,0,1,0A,2A,0.786239386360522,0.5,0.611269873009584,0.388730126990416,1,0,-0.786239386360522,-0.450105358968619,0.5,0.544269951246206,1.00675545322087,10.8674491085599,3.37281230563209,0.5,0.995365162085372,0.998579834618188,0.5,0.572478772721045,1.01637632436287,9.16521723452873,3.21737701380499,0.5,25.66635327579
163,1,10,D,3,0,a,9,1,0.73,3D,0D,1,0,1,0,D30,0.581260973697604,3.2188758248682,0.336134027391903,0.213760613639478,0.5,0.5,0.5,0.908612800112948,0.5,0.5,0.213760613639478,0.5,0.5,0.213760613639478,0.5,0.5,0.5,0.336134027391903,2.16175545322087,0,0,1,0D,3D,0.5,0.336134027391903,0.597990254695909,0.402009745304091,0,0,-0.5,-0.286239386360522,0.5,0.544269951246206,1.00675545322087,10.8674491085599,3.37281230563209,0.5,0.479379459384784,0.996916069379975,0.5,0.572478772721045,1.01637632436287,9.16521723452873,3.21737701380499,0.5,25.66635327579
163,1,11,C,2,3,a,63,0,0.73,2C,3C,1,0,0,1,C23,3.4518988758467,3.25809653802148,0.336134027391903,0.213760613639478,0.5,0.5,0.5,0.908612800112948,0.5,0.5,0.213760613639478,0.5,0.5,0.213760613639478,0.213760613639478,0.5,0.5,0.336134027391903,1.65575545322087,1,1,0,2C,3C,0.5,0.213760613639478,0.700514977214127,0.299485022785873,1,0,-0.5,-0.286239386360522,0.5,0.544269951246206,1.00675545322087,10.8674491085599,3.37281230563209,0.5,0.816088790867962,0.999992709810207,0.5,0.572478772721045,1.01637632436287,9.16521723452873,3.21737701380499,0.5,25.66635327579
163,1,12,B,0,1,l,63,1,0.73,0B,1B,0,1,0,1,B01,2.59037772279924,2.60268968544438,0.336134027391903,0.213760613639478,0.5,0.5,0.5,0.908612800112948,0.5,0.5,0.213760613639478,0.5,0.213760613639478,0.213760613639478,0.213760613639478,0.5,0.5,0.336134027391903,1.49775545322087,0,0,1,1B,0B,0.908612800112948,0.5,0.64504085156694,0.35495914843306,1,1,0.091387199887052,0.0523172320337523,0.5,0.544269951246206,1.00675545322087,10.8674491085599,3.37281230563209,0.5,1.71706887523423,0.999806914960624,0.5,0.572478772721045,1.01637632436287,9.16521723452873,3.21737701380499,0.5,25.66635327579
163,1,13,D,2,3,l,63,0,0.73,2D,3D,0,1,1,0,D23,3.12674142035084,2.63905732961526,0.336134027391903,0.213760613639478,0.5,0.5,0.5,0.9609300321467,0.5,0.5,0.213760613639478,0.5,0.213760613639478,0.213760613639478,0.213760613639478,0.5,0.5,0.336134027391903,1.52575545322087,1,1,0,2D,3D,0.5,0.336134027391903,0.597990254695909,0.402009745304091,0,1,0.5,0.286239386360522,0.5,0.544269951246206,1.00675545322087,10.8674491085599,3.37281230563209,0.5,1.10000518311992,0.99690941248899,0.5,0.572478772721045,1.01637632436287,9.16521723452873,3.21737701380499,0.5,25.66635327579
163,1,14,C,2,3,a,63,1,0.73,2C,3C,1,0,1,0,C23,0.901327355628361,2.67414864942653,0.336134027391903,0.213760613639478,0.5,0.5,0.5,0.9609300321467,0.5,0.5,0.213760613639478,0.5,0.213760613639478,0.213760613639478,0.213760613639478,0.5,0.786239386360522,0.336134027391903,2.60775545322087,1,1,0,2C,3C,0.213760613639478,0.213760613639478,0.5,0.5,1,1,0.786239386360522,0.450105358968619,0.5,0.544269951246206,1.00675545322087,10.8674491085599,3.37281230563209,0.5,0.140927853436553,0.499253214881856,0.5,0.572478772721045,1.01637632436287,9.16521723452873,3.21737701380499,0.5,25.66635327579
163,1,15,B,3,1,l,27,1,0.73,3B,1B,0,1,0,1,B31,0.464312137340132,3.40119738166216,0.336134027391903,0.213760613639478,0.5,0.5,0.5,0.9609300321467,0.5,0.5,0.213760613639478,0.5,0.663865972608097,0.213760613639478,0.213760613639478,0.5,0.786239386360522,0.336134027391903,1.58975545322087,0,0,1,1B,3B,0.9609300321467,0.5,0.657752261232322,0.342247738767678,1,1,0.0390699678532996,0.0223667272469076,0.5,0.544269951246206,1.00675545322087,10.8674491085599,3.37281230563209,0.5,1.47499920947807,0.999908988887519,0.5,0.572478772721045,1.01637632436287,9.16521723452873,3.21737701380499,0.5,25.66635327579
163,1,16,A,0,3,a,9,1,0.73,0A,3A,1,0,1,0,A03,0.719233571212351,3.43398720448515,0.336134027391903,0.213760613639478,0.5,0.5,0.5,0.983296759393608,0.5,0.5,0.213760613639478,0.5,0.663865972608097,0.213760613639478,0.213760613639478,0.5,0.786239386360522,0.336134027391903,2.17675545322087,0,0,1,3A,0A,0.5,0.336134027391903,0.597990254695909,0.402009745304091,0,0,-0.5,-0.286239386360522,0.5,0.544269951246206,1.00675545322087,10.8674491085599,3.37281230563209,0.5,0.465271643897736,0.996931010890292,0.5,0.572478772721045,1.01637632436287,9.16521723452873,3.21737701380499,0.5,25.66635327579
163,1,17,D,2,3,l,63,1,0.73,2D,3D,0,1,0,1,D23,0.108440456032195,2.36712361413162,0.336134027391903,0.213760613639478,0.5,0.213760613639478,0.5,0.983296759393608,0.5,0.5,0.213760613639478,0.5,0.663865972608097,0.213760613639478,0.213760613639478,0.5,0.786239386360522,0.336134027391903,1.39175545322087,1,1,0,2D,3D,0.786239386360522,0.336134027391903,0.700514977214127,0.299485022785873,0,0,-0.786239386360522,-0.450105358968619,0.5,0.544269951246206,1.00675545322087,10.8674491085599,3.37281230563209,0.5,2.60233718738025,0.99999268844729,0.5,0.572478772721045,1.01637632436287,9.16521723452873,3.21737701380499,0.5,25.66635327579
163,1,18,C,0,2,l,27,0,0.73,0C,2C,0,1,1,0,C02,2.99094723840668,2.80336038090653,0.336134027391903,0.213760613639478,0.5,0.213760613639478,0.5,0.983296759393608,0.5,0.5,0.213760613639478,0.5,0.663865972608097,0.213760613639478,0.213760613639478,0.5,0.336134027391903,0.336134027391903,1.31575545322087,0,0,1,2C,0C,0.663865972608097,0.213760613639478,0.756433297499061,0.243566702500939,1,0,-0.663865972608097,-0.380049177249946,0.5,0.544269951246206,1.00675545322087,10.8674491085599,3.37281230563209,0.5,3.66264128025406,0.999999731383154,0.5,0.572478772721045,1.01637632436287,9.16521723452873,3.21737701380499,0.5,25.66635327579
163,1,19,A,0,1,a,63,1,0.73,0A,1A,1,0,1,0,A01,0.915684029707242,2.42774823594805,0.336134027391903,0.213760613639478,0.5,0.213760613639478,0.5,0.983296759393608,0.5,0.5,0.213760613639478,0.5,0.283816795358151,0.213760613639478,0.213760613639478,0.5,0.336134027391903,0.336134027391903,1.27875545322087,1,1,0,0A,1A,0.336134027391903,0.213760613639478,0.611269873009585,0.388730126990416,1,1,0.663865972608097,0.380049177249946,0.5,0.544269951246206,1.00675545322087,10.8674491085599,3.37281230563209,0.5,0.530867707546473,0.998587292384146,0.5,0.572478772721045,1.01637632436287,9.16521723452873,3.21737701380499,0.5,25.66635327579
163,1,20,B,1,0,a,63,0,0.73,1B,0B,1,0,0,1,B10,1.31509415409925,3.55534806148941,0.716183204641849,0.213760613639478,0.5,0.213760613639478,0.5,0.983296759393608,0.5,0.5,0.213760613639478,0.5,0.283816795358151,0.213760613639478,0.213760613639478,0.5,0.336134027391903,0.336134027391903,1.42075545322087,1,1,0,1B,0B,0.983296759393608,0.5,0.662913036900042,0.337086963099958,1,0,-0.983296759393608,-0.562916522038233,0.5,0.544269951246206,1.00675545322087,10.8674491085599,3.37281230563209,0.5,2.04620139316985,0.999932988967594,0.5,0.572478772721045,1.01637632436287,9.16521723452873,3.21737701380499,0.5,25.66635327579
163,1,21,D,3,1,a,27,1,0.73,3D,1D,1,0,1,0,D31,0.21267676138563,3.58351893845611,0.716183204641849,0.213760613639478,0.5,0.213760613639478,0.5,0.420380237355375,0.5,0.5,0.213760613639478,0.5,0.283816795358151,0.213760613639478,0.213760613639478,0.5,0.336134027391903,0.336134027391903,1.87475545322087,0,0,1,1D,3D,0.5,0.336134027391903,0.597990254695909,0.402009745304091,0,0,-0.5,-0.286239386360522,0.5,0.544269951246206,1.00675545322087,10.8674491085599,3.37281230563209,0.5,0.804918017293158,0.996927124496035,0.5,0.572478772721045,1.01637632436287,9.16521723452873,3.21737701380499,0.5,25.66635327579
163,1,22,C,3,2,l,63,1,0.73,3C,2C,0,1,0,1,C32,1.17951060195702,2.91777073208428,0.716183204641849,0.213760613639478,0.5,0.213760613639478,0.5,0.420380237355375,0.5,0.5,0.213760613639478,0.5,0.283816795358151,0.213760613639478,0.213760613639478,0.213760613639478,0.336134027391903,0.336134027391903,2.38475545322087,0,0,1,2C,3C,0.283816795358151,0.213760613639478,0.570397269301074,0.429602730698926,1,1,0.716183204641849,0.409999682036791,0.5,0.544269951246206,1.00675545322087,10.8674491085599,3.37281230563209,0.5,0.396804438196832,0.98443733263142,0.5,0.572478772721045,1.01637632436287,9.16521723452873,3.21737701380499,0.5,25.66635327579
163,1,23,B,0,1,l,63,1,0.73,0B,1B,0,1,0,1,B01,2.10693926499619,2.53897387105828,0.716183204641849,0.213760613639478,0.5,0.213760613639478,0.5,0.420380237355375,0.5,0.5,0.213760613639478,0.5,0.693816477394942,0.213760613639478,0.213760613639478,0.213760613639478,0.336134027391903,0.336134027391903,1.25575545322087,1,1,0,0B,1B,0.5,0.420380237355375,0.543253733301252,0.456746266698748,0,0,-0.5,-0.286239386360522,0.5,0.544269951246206,1.00675545322087,10.8674491085599,3.37281230563209,0.5,0.0818111996818206,0.927756252673995,0.5,0.572478772721045,1.01637632436287,9.16521723452873,3.21737701380499,0.5,25.66635327579
163,1,24,A,0,2,a,27,1,0.73,0A,2A,1,0,1,0,A02,1.22037239625252,3.66356164612965,0.716183204641849,0.213760613639478,0.5,0.213760613639478,0.213760613639478,0.420380237355375,0.5,0.5,0.213760613639478,0.5,0.693816477394942,0.213760613639478,0.213760613639478,0.213760613639478,0.336134027391903,0.336134027391903,1.59175545322087,1,1,0,0A,2A,0.716183204641849,0.5,0.588877729858764,0.411122270141236,1,1,0.283816795358151,0.162479090684254,0.5,0.544269951246206,1.00675545322087,10.8674491085599,3.37281230563209,0.5,0.994875839985128,0.994758817705935,0.5,0.572478772721045,1.01637632436287,9.16521723452873,3.21737701380499,0.5,25.66635327579
163,1,25,D,3,2,a,63,1,0.73,3D,2D,1,0,1,0,D32,3.24274678428344,2.99573227355399,0.878662295326103,0.213760613639478,0.5,0.213760613639478,0.213760613639478,0.420380237355375,0.5,0.5,0.213760613639478,0.5,0.693816477394942,0.213760613639478,0.213760613639478,0.213760613639478,0.336134027391903,0.336134027391903,8.43875545322087,1,1,0,3D,2D,0.336134027391903,0.336134027391903,0.5,0.5,1,1,0.663865972608097,0.380049177249946,0.5,0.544269951246206,1.00675545322087,10.8674491085599,3.37281230563209,0.5,0.00883267457386689,0.500762796538932,0.5,0.572478772721045,1.01637632436287,9.16521723452873,3.21737701380499,0.5,25.66635327579
163,1,26,C,0,2,l,27,1,0.73,0C,2C,0,1,0,1,C02,0.295506703422293,2.6149597780362,0.878662295326103,0.213760613639478,0.5,0.213760613639478,0.213760613639478,0.420380237355375,0.5,0.5,0.213760613639478,0.5,0.693816477394942,0.213760613639478,0.213760613639478,0.213760613639478,0.336134027391903,0.716183204641849,1.34575545322087,0,0,1,2C,0C,0.693816477394942,0.213760613639478,0.764471122341969,0.235528877658031,1,1,0.306183522605058,0.17528356724835,0.5,0.544269951246206,1.00675545322087,10.8674491085599,3.37281230563209,0.5,3.39421181055985,0.999999831106246,0.5,0.572478772721045,1.01637632436287,9.16521723452873,3.21737701380499,0.5,25.66635327579
163,1,27,B,0,1,l,63,0,0.73,0B,1B,0,1,1,0,B01,3.03174995806302,2.35137525716348,0.878662295326103,0.213760613639478,0.5,0.213760613639478,0.213760613639478,0.420380237355375,0.5,0.5,0.213760613639478,0.5,0.869100044643292,0.213760613639478,0.213760613639478,0.213760613639478,0.336134027391903,0.716183204641849,1.46475545322087,0,0,1,1B,0B,0.420380237355375,0.213760613639478,0.662913036900042,0.337086963099958,1,0,-0.420380237355375,-0.240658762357387,0.5,0.544269951246206,1.00675545322087,10.8674491085599,3.37281230563209,0.5,1.97081226529306,0.999932738402739,0.5,0.572478772721045,1.01637632436287,9.16521723452873,3.21737701380499,0.5,25.66635327579
163,1,28,A,1,0,l,63,1,0.73,1A,0A,0,1,0,1,A10,2.72003090979537,3.76120011569356,0.878662295326103,0.213760613639478,0.5,0.213760613639478,0.213760613639478,0.179721474997988,0.5,0.5,0.213760613639478,0.5,0.869100044643292,0.213760613639478,0.213760613639478,0.213760613639478,0.336134027391903,0.716183204641849,1.19175545322087,0,0,1,0A,1A,0.878662295326103,0.213760613639478,0.804324303449579,0.195675696550421,1,1,0.121337704673897,0.069463260256501,0.5,0.544269951246206,1.00675545322087,10.8674491085599,3.37281230563209,0.5,2.81443473501227,0.999999983945304,0.5,0.572478772721045,1.01637632436287,9.16521723452873,3.21737701380499,0.5,25.66635327579
163,1,29,C,2,3,a,63,0,0.73,2C,3C,1,0,0,1,C23,3.4932974981656,2.68557734525015,0.948125555582604,0.213760613639478,0.5,0.213760613639478,0.213760613639478,0.179721474997988,0.5,0.5,0.213760613639478,0.5,0.869100044643292,0.213760613639478,0.213760613639478,0.213760613639478,0.336134027391903,0.716183204641849,1.26775545322087,1,1,0,2C,3C,0.869100044643292,0.213760613639478,0.802596380241143,0.197403619758857,1,0,-0.869100044643292,-0.497541326929197,0.5,0.544269951246206,1.00675545322087,10.8674491085599,3.37281230563209,0.5,4.64725178484257,0.999999982232687,0.5,0.572478772721045,1.01637632436287,9.16521723452873,3.21737701380499,0.5,25.66635327579
163,1,30,D,1,3,l,27,1,0.73,1D,3D,0,1,0,1,D13,2.61883997067905,3.80666248977032,0.948125555582604,0.213760613639478,0.5,0.213760613639478,0.213760613639478,0.179721474997988,0.5,0.5,0.213760613639478,0.5,0.371558717714095,0.213760613639478,0.213760613639478,0.213760613639478,0.336134027391903,0.716183204641849,1.31875545322087,0,0,1,3D,1D,0.716183204641849,0.213760613639478,0.770135991618785,0.229864008381215,1,1,0.283816795358151,0.162479090684254,0.5,0.544269951246206,1.00675545322087,10.8674491085599,3.37281230563209,0.5,3.78104722814684,0.999999879238953,0.5,0.572478772721045,1.01637632436287,9.16521723452873,3.21737701380499,0.5,25.66635327579
163,1,31,A,0,1,a,63,0,0.73,0A,1A,1,0,0,1,A01,2.73752583578428,2.4423470353692,0.948125555582604,0.213760613639478,0.5,0.213760613639478,0.213760613639478,0.179721474997988,0.5,0.5,0.213760613639478,0.5,0.371558717714095,0.213760613639478,0.213760613639478,0.213760613639478,0.336134027391903,0.878662295326103,1.28075545322087,1,1,0,0A,1A,0.948125555582604,0.213760613639478,0.8160227573906,0.1839772426094,1,0,-0.948125555582604,-0.542781754445388,0.5,0.544269951246206,1.00675545322087,10.8674491085599,3.37281230563209,0.5,4.66755214010015,0.999999991905524,0.5,0.572478772721045,1.01637632436287,9.16521723452873,3.21737701380499,0.5,25.66635327579
163,1,32,D,2,3,l,63,1,0.73,2D,3D,0,1,0,1,D23,3.28583617267333,2.46385324059017,0.405343801137216,0.213760613639478,0.5,0.213760613639478,0.213760613639478,0.179721474997988,0.5,0.5,0.213760613639478,0.5,0.371558717714095,0.213760613639478,0.213760613639478,0.213760613639478,0.336134027391903,0.878662295326103,1.31975545322087,0,0,1,3D,2D,0.878662295326103,0.336134027391903,0.723300094751825,0.276699905248174,1,1,0.121337704673897,0.069463260256501,0.5,0.544269951246206,1.00675545322087,10.8674491085599,3.37281230563209,0.5,3.07896114965921,0.999998105360337,0.5,0.572478772721045,1.01637632436287,9.16521723452873,3.21737701380499,0.5,25.66635327579
163,1,33,B,1,2,a,9,1,0.73,1B,2B,1,0,1,0,B12,2.51673252868474,3.87120101090789,0.405343801137216,0.213760613639478,0.5,0.213760613639478,0.213760613639478,0.179721474997988,0.5,0.5,0.213760613639478,0.5,0.371558717714095,0.213760613639478,0.213760613639478,0.213760613639478,0.336134027391903,0.948125555582604,1.78575545322087,0,0,1,2B,1B,0.5,0.179721474997988,0.735595414285652,0.264404585714348,0,0,-0.5,-0.286239386360522,0.5,0.544269951246206,1.00675545322087,10.8674491085599,3.37281230563209,0.5,0.140861090952945,0.999999077088604,0.5,0.572478772721045,1.01637632436287,9.16521723452873,3.21737701380499,0.5,25.66635327579
163,1,34,A,0,1,a,63,1,0.73,0A,1A,1,0,1,0,A01,1.26491376553105,2.28238238567653,0.405343801137216,0.213760613639478,0.5,0.213760613639478,0.213760613639478,0.179721474997988,0.213760613639478,0.5,0.213760613639478,0.5,0.371558717714095,0.213760613639478,0.213760613639478,0.213760613639478,0.336134027391903,0.948125555582604,1.27275545322087,1,1,0,0A,1A,0.405343801137216,0.213760613639478,0.65472607118045,0.34527392881955,1,1,0.594656198862784,0.340428050915928,0.5,0.544269951246206,1.00675545322087,10.8674491085599,3.37281230563209,0.5,1.08524373378981,0.999890818895415,0.5,0.572478772721045,1.01637632436287,9.16521723452873,3.21737701380499,0.5,25.66635327579
163,1,35,C,1,2,l,9,1,0.73,1C,2C,0,1,0,1,C12,0.43303706045998,3.91202300542815,0.745771852053144,0.213760613639478,0.5,0.213760613639478,0.213760613639478,0.179721474997988,0.213760613639478,0.5,0.213760613639478,0.5,0.371558717714095,0.213760613639478,0.213760613639478,0.213760613639478,0.336134027391903,0.948125555582604,2.14675545322087,1,1,0,1C,2C,0.5,0.371558717714095,0.573684813011095,0.426315186988905,0,0,-0.5,-0.286239386360522,0.5,0.544269951246206,1.00675545322087,10.8674491085599,3.37281230563209,0.5,0.532199434886757,0.98715140332976,0.5,0.572478772721045,1.01637632436287,9.16521723452873,3.21737701380499,0.5,25.66635327579
163,1,36,B,0,1,l,63,1,0.73,0B,1B,0,1,0,1,B01,1.99533343011852,2.32238772029023,0.745771852053144,0.213760613639478,0.5,0.213760613639478,0.213760613639478,0.179721474997988,0.213760613639478,0.5,0.213760613639478,0.213760613639478,0.371558717714095,0.213760613639478,0.213760613639478,0.213760613639478,0.336134027391903,0.948125555582604,6.21175545322087,1,1,0,0B,1B,0.213760613639478,0.179721474997988,0.543253733301252,0.456746266698748,0,0,-0.213760613639478,-0.122373413752426,0.5,0.544269951246206,1.00675545322087,10.8674491085599,3.37281230563209,0.5,0.0178930020197171,0.927348927383091,0.5,0.572478772721045,1.01637632436287,9.16521723452873,3.21737701380499,0.5,25.66635327579
163,1,37,A,1,0,l,63,0,0.73,1A,0A,0,1,1,0,A10,2.64305563317137,3.25809653802148,0.745771852053144,0.213760613639478,0.5,0.213760613639478,0.0913871998870521,0.179721474997988,0.213760613639478,0.5,0.213760613639478,0.213760613639478,0.371558717714095,0.213760613639478,0.213760613639478,0.213760613639478,0.336134027391903,0.948125555582604,1.47175545322087,0,0,1,0A,1A,0.745771852053144,0.213760613639478,0.777224198990309,0.222775801009691,1,0,-0.745771852053144,-0.426938554593285,0.5,0.544269951246206,1.00675545322087,10.8674491085599,3.37281230563209,0.5,1.20882127091594,0.999999920825159,0.5,0.572478772721045,1.01637632436287,9.16521723452873,3.21737701380499,0.5,25.66635327579
163,1,38,B,1,0,a,63,1,0.73,1B,0B,1,0,1,0,B10,2.80776857560499,3.27714473299218,0.31883329745986,0.213760613639478,0.5,0.213760613639478,0.0913871998870521,0.179721474997988,0.213760613639478,0.5,0.213760613639478,0.213760613639478,0.371558717714095,0.213760613639478,0.213760613639478,0.213760613639478,0.336134027391903,0.948125555582604,2.52675545322087,1,1,0,1B,0B,0.179721474997988,0.0913871998870521,0.662913036900042,0.337086963099958,1,1,0.820278525002012,0.46959204328258,0.5,0.544269951246206,1.00675545322087,10.8674491085599,3.37281230563209,0.5,0.0212374386478052,0.99993276790286,0.5,0.572478772721045,1.01637632436287,9.16521723452873,3.21737701380499,0.5,25.66635327579
163,1,39,D,3,1,a,27,0,0.73,3D,1D,1,0,0,1,D31,2.36002281182495,3.29583686600433,0.31883329745986,0.213760613639478,0.5,0.213760613639478,0.0913871998870521,0.649313518280569,0.213760613639478,0.5,0.213760613639478,0.213760613639478,0.371558717714095,0.213760613639478,0.213760613639478,0.213760613639478,0.336134027391903,0.948125555582604,1.27075545322087,1,1,0,3D,1D,0.948125555582604,0.213760613639478,0.8160227573906,0.1839772426094,1,0,-0.948125555582604,-0.542781754445388,0.5,0.544269951246206,1.00675545322087,10.8674491085599,3.37281230563209,0.5,4.82576704232503,0.999999991946686,0.5,0.572478772721045,1.01637632436287,9.16521723452873,3.21737701380499,0.5,25.66635327579
163,1,40,C,2,3,a,63,1,0.73,2C,3C,1,0,1,0,C23,2.75932731038725,2.62103882411258,0.31883329745986,0.213760613639478,0.5,0.213760613639478,0.0913871998870521,0.649313518280569,0.213760613639478,0.5,0.213760613639478,0.213760613639478,0.371558717714095,0.213760613639478,0.213760613639478,0.213760613639478,0.336134027391903,0.405343801137216,1.73275545322087,1,1,0,2C,3C,0.371558717714095,0.213760613639478,0.634796593604472,0.365203406395528,1,1,0.628441282285905,0.359769294010275,0.5,0.544269951246206,1.00675545322087,10.8674491085599,3.37281230563209,0.5,1.0395537649671,0.99964613925644,0.5,0.572478772721045,1.01637632436287,9.16521723452873,3.21737701380499,0.5,25.66635327579
163,1,41,A,2,0,l,27,1,0.73,2A,0A,0,1,0,1,A20,0.632135387835048,3.3322045101752,0.31883329745986,0.213760613639478,0.5,0.213760613639478,0.0913871998870521,0.649313518280569,0.213760613639478,0.5,0.213760613639478,0.213760613639478,0.731328011724369,0.213760613639478,0.213760613639478,0.213760613639478,0.336134027391903,0.405343801137216,1.42275545322087,1,1,0,2A,0A,0.5,0.31883329745986,0.610624899538249,0.389375100461751,0,0,-0.5,-0.286239386360522,0.5,0.544269951246206,1.00675545322087,10.8674491085599,3.37281230563209,0.5,1.16270772273146,0.998540933183018,0.5,0.572478772721045,1.01637632436287,9.16521723452873,3.21737701380499,0.5,25.66635327579
163,1,42,D,3,2,a,63,1,0.73,3D,2D,1,0,1,0,D32,1.34790760135096,2.94443897916644,0.31883329745986,0.213760613639478,0.213760613639478,0.213760613639478,0.0913871998870521,0.649313518280569,0.213760613639478,0.5,0.213760613639478,0.213760613639478,0.731328011724369,0.213760613639478,0.213760613639478,0.213760613639478,0.336134027391903,0.405343801137216,8.01175545322087,1,1,0,3D,2D,0.405343801137216,0.336134027391903,0.546670157274025,0.453329842725975,1,1,0.594656198862784,0.340428050915928,0.5,0.544269951246206,1.00675545322087,10.8674491085599,3.37281230563209,0.5,0.00330938560271915,0.940055651480529,0.5,0.572478772721045,1.01637632436287,9.16521723452873,3.21737701380499,0.5,25.66635327579
163,1,43,B,3,1,l,27,0,0.73,3B,1B,0,1,1,0,B31,2.27901696620769,3.36729582998647,0.31883329745986,0.213760613639478,0.213760613639478,0.213760613639478,0.0913871998870521,0.649313518280569,0.213760613639478,0.5,0.213760613639478,0.213760613639478,0.731328011724369,0.213760613639478,0.213760613639478,0.213760613639478,0.336134027391903,0.745771852053144,1.39975545322087,0,0,1,1B,3B,0.649313518280569,0.5,0.564957696879764,0.435042303120236,1,0,-0.649313518280569,-0.371718206056444,0.5,0.544269951246206,1.00675545322087,10.8674491085599,3.37281230563209,0.5,0.478661168833445,0.978774335959671,0.5,0.572478772721045,1.01637632436287,9.16521723452873,3.21737701380499,0.5,25.66635327579
163,1,44,C,2,3,a,63,1,0.73,2C,3C,1,0,1,0,C23,1.53780767333962,2.46809953147162,0.31883329745986,0.213760613639478,0.213760613639478,0.213760613639478,0.0913871998870521,0.277595312224125,0.213760613639478,0.5,0.213760613639478,0.213760613639478,0.731328011724369,0.213760613639478,0.213760613639478,0.213760613639478,0.336134027391903,0.745771852053144,1.26575545322087,1,1,0,2C,3C,0.731328011724369,0.213760613639478,0.773819504433055,0.226180495566945,1,1,0.268671988275631,0.153809010112556,0.5,0.544269951246206,1.00675545322087,10.8674491085599,3.37281230563209,0.5,3.99119289094652,0.999999902990406,0.5,0.572478772721045,1.01637632436287,9.16521723452873,3.21737701380499,0.5,25.66635327579
