ID,session,trialNr,mod2Stim,visStimLeft,visStimRight,correctKey,frequency,rewardAccurate,probFB,stimPairLeft,stimPairRight,leftCorrect,rightCorrect,pCorrectLeft,pCorrectRight,triplet,rt,surprise,0A belief,1A belief,2A belief,3A belief,0B belief,1B belief,2B belief,3B belief,0C belief,1C belief,2C belief,3C belief,0D belief,1D belief,2D belief,3D belief,reactionTime,choice,choiceLeft,choiceRight,chosenPair,otherPair,beliefPair,beliefOtherPair,beliefPairNorm,beliefOtherPairNorm,choiceAccurate,reward,rewardPE,update2,sim_CBCsimpleRW_CBCdriftDiffusionLR_startBelief,sim_CBCsimpleRW_CBCdriftDiffusionLR_alpha1,sim_CBCsimpleRW_CBCdriftDiffusionLR_nonDecisionTime,sim_CBCsimpleRW_CBCdriftDiffusionLR_weight,sim_CBCsimpleRW_CBCdriftDiffusionLR_startingBoundary,sim_CBCsimpleRW_CBCdriftDiffusionLR_startingPoint,lik,corrLik,fitCBCsimpleRW_CBCdriftDiffusionLR_startBelief,fitCBCsimpleRW_CBCdriftDiffusionLR_alpha1,fitCBCsimpleRW_CBCdriftDiffusionLR_nonDecisionTime,fitCBCsimpleRW_CBCdriftDiffusionLR_weight,fitCBCsimpleRW_CBCdriftDiffusionLR_startingBoundary,fitCBCsimpleRW_CBCdriftDiffusionLR_startingPoint,fit_CBCsimpleRW_CBCdriftDiffusionLR_NLL
140,1,1,C,2,0,a,27,1,1,2C,0C,1,0,1,0,C20,2.94215986402387,2.77258872223978,0.5,0.5,0.5,0.5,0.5,0.5,0.5,0.5,0.5,0.5,0.5,0.5,0.5,0.5,0.5,0.5,3.49529763201251,1,1,0,2C,0C,0.5,0.5,0.5,0.5,1,1,0.5,0.489645769532419,0.5,0.940764776842629,0.638297632012512,2.20415509081536,2.78981399854952,0.5,0.0402151787090235,0.499682623870711,0.5,0.979291539064838,0.703911141775344,1.74866541479028,2.24043061380986,0.5,47.6246192266703
140,1,2,D,3,2,a,63,1,1,3D,2D,1,0,1,0,D32,0.756852724315027,2.83321334405622,0.5,0.5,0.5,0.5,0.5,0.5,0.5,0.5,0.5,0.5,0.989645769532419,0.5,0.5,0.5,0.5,0.5,1.00829763201251,0,0,1,2D,3D,0.5,0.5,0.5,0.5,0,0,-0.5,-0.489645769532419,0.5,0.940764776842629,0.638297632012512,2.20415509081536,2.78981399854952,0.5,0.338680419514589,0.499932243769996,0.5,0.979291539064838,0.703911141775344,1.74866541479028,2.24043061380986,0.5,47.6246192266703
140,1,3,A,1,0,l,63,1,1,1A,0A,0,1,0,1,A10,3.4817226849582,2.89037175789616,0.5,0.5,0.5,0.5,0.5,0.5,0.5,0.5,0.5,0.5,0.989645769532419,0.5,0.5,0.5,0.0103542304675809,0.5,1.83229763201251,0,0,1,0A,1A,0.5,0.5,0.5,0.5,1,1,0.5,0.489645769532419,0.5,0.940764776842629,0.638297632012512,2.20415509081536,2.78981399854952,0.5,0.206240915191403,0.499827830119946,0.5,0.979291539064838,0.703911141775344,1.74866541479028,2.24043061380986,0.5,47.6246192266703
140,1,4,C,2,3,a,63,1,1,2C,3C,1,0,1,0,C23,2.03801873681286,2.94443897916644,0.989645769532419,0.5,0.5,0.5,0.5,0.5,0.5,0.5,0.5,0.5,0.989645769532419,0.5,0.5,0.5,0.0103542304675809,0.5,1.66429763201251,1,1,0,2C,3C,0.989645769532419,0.5,0.664349733187277,0.335650266812723,1,1,0.010354230467581,0.0101398102904294,0.5,0.940764776842629,0.638297632012512,2.20415509081536,2.78981399854952,0.5,0.394277723500311,0.782712674795521,0.5,0.979291539064838,0.703911141775344,1.74866541479028,2.24043061380986,0.5,47.6246192266703
140,1,5,A,0,2,a,27,1,1,0A,2A,1,0,1,0,A02,0.825780129119806,2.99573227355399,0.989645769532419,0.5,0.5,0.5,0.5,0.5,0.5,0.5,0.5,0.5,0.999785579822848,0.5,0.5,0.5,0.0103542304675809,0.5,1.04829763201251,1,1,0,0A,2A,0.989645769532419,0.5,0.664349733187277,0.335650266812723,1,1,0.010354230467581,0.0101398102904294,0.5,0.940764776842629,0.638297632012512,2.20415509081536,2.78981399854952,0.5,0.644060232698694,0.78433891549185,0.5,0.979291539064838,0.703911141775344,1.74866541479028,2.24043061380986,0.5,47.6246192266703
140,1,6,D,2,3,l,63,1,1,2D,3D,0,1,0,1,D23,2.133558615577,3.04452243772342,0.999785579822848,0.5,0.5,0.5,0.5,0.5,0.5,0.5,0.5,0.5,0.999785579822848,0.5,0.5,0.5,0.0103542304675809,0.5,1.13029763201251,0,0,1,3D,2D,0.5,0.0103542304675809,0.979711678968362,0.0202883210316382,1,1,0.5,0.489645769532419,0.5,0.940764776842629,0.638297632012512,2.20415509081536,2.78981399854952,0.5,1.32391779337238,0.977174206121023,0.5,0.979291539064838,0.703911141775344,1.74866541479028,2.24043061380986,0.5,47.6246192266703
140,1,7,D,3,2,a,63,1,1,3D,2D,1,0,1,0,D32,3.39797823310909,2.39789527279837,0.999785579822848,0.5,0.5,0.5,0.5,0.5,0.5,0.5,0.5,0.5,0.999785579822848,0.5,0.5,0.5,0.0103542304675809,0.989645769532419,0.964297632012513,1,1,0,3D,2D,0.989645769532419,0.0103542304675809,0.989645769532419,0.0103542304675809,1,1,0.010354230467581,0.0101398102904294,0.5,0.940764776842629,0.638297632012512,2.20415509081536,2.78981399854952,0.5,1.40500050282788,0.978902981348676,0.5,0.979291539064838,0.703911141775344,1.74866541479028,2.24043061380986,0.5,47.6246192266703
140,1,8,B,3,1,l,27,1,1,3B,1B,0,1,0,1,B31,1.08843797587971,3.13549421592915,0.999785579822848,0.5,0.5,0.5,0.5,0.5,0.5,0.5,0.5,0.5,0.999785579822848,0.5,0.5,0.5,0.0103542304675809,0.999785579822848,1.76229763201251,1,1,0,3B,1B,0.5,0.5,0.5,0.5,0,0,-0.5,-0.489645769532419,0.5,0.940764776842629,0.638297632012512,2.20415509081536,2.78981399854952,0.5,0.220679239573841,0.499405656744091,0.5,0.979291539064838,0.703911141775344,1.74866541479028,2.24043061380986,0.5,47.6246192266703
140,1,9,D,0,3,l,9,1,1,0D,3D,0,1,0,1,D03,1.21736854335723,3.17805383034795,0.999785579822848,0.5,0.5,0.5,0.5,0.5,0.5,0.0103542304675809,0.5,0.5,0.999785579822848,0.5,0.5,0.5,0.0103542304675809,0.999785579822848,1.22929763201251,1,1,0,0D,3D,0.5,0.999785579822848,0.333380989073824,0.666619010926176,0,0,-0.5,-0.489645769532419,0.5,0.940764776842629,0.638297632012512,2.20415509081536,2.78981399854952,0.5,0.169346879477728,0.213394857204057,0.5,0.979291539064838,0.703911141775344,1.74866541479028,2.24043061380986,0.5,47.6246192266703
140,1,10,B,1,0,a,63,1,1,1B,0B,1,0,1,0,B10,0.59376587441643,3.2188758248682,0.999785579822848,0.5,0.5,0.5,0.5,0.5,0.5,0.0103542304675809,0.5,0.5,0.999785579822848,0.5,0.0103542304675809,0.5,0.0103542304675809,0.999785579822848,4.53529763201251,0,0,1,0B,1B,0.5,0.5,0.5,0.5,0,0,-0.5,-0.489645769532419,0.5,0.940764776842629,0.638297632012512,2.20415509081536,2.78981399854952,0.5,0.0144538944304242,0.499266396515761,0.5,0.979291539064838,0.703911141775344,1.74866541479028,2.24043061380986,0.5,47.6246192266703
140,1,11,A,1,0,l,63,1,1,1A,0A,0,1,0,1,A10,1.22604335684082,2.56494935746154,0.999785579822848,0.5,0.5,0.5,0.0103542304675809,0.5,0.5,0.0103542304675809,0.5,0.5,0.999785579822848,0.5,0.0103542304675809,0.5,0.0103542304675809,0.999785579822848,1.75429763201251,0,0,1,0A,1A,0.999785579822848,0.5,0.666619010926176,0.333380989073824,1,1,0.000214420177151564,0.00020997986528931,0.5,0.940764776842629,0.638297632012512,2.20415509081536,2.78981399854952,0.5,0.357740206769134,0.786510614905278,0.5,0.979291539064838,0.703911141775344,1.74866541479028,2.24043061380986,0.5,47.6246192266703
140,1,12,B,0,1,l,63,1,1,0B,1B,0,1,0,1,B01,0.847247660929486,3.29583686600433,0.999995559688138,0.5,0.5,0.5,0.0103542304675809,0.5,0.5,0.0103542304675809,0.5,0.5,0.999785579822848,0.5,0.0103542304675809,0.5,0.0103542304675809,0.999785579822848,1.02929763201251,0,0,1,1B,0B,0.5,0.0103542304675809,0.979711678968362,0.0202883210316382,1,1,0.5,0.489645769532419,0.5,0.940764776842629,0.638297632012512,2.20415509081536,2.78981399854952,0.5,1.45010697539596,0.977199760823512,0.5,0.979291539064838,0.703911141775344,1.74866541479028,2.24043061380986,0.5,47.6246192266703
140,1,13,D,2,3,l,63,1,1,2D,3D,0,1,0,1,D23,0.323158757923828,2.63905732961526,0.999995559688138,0.5,0.5,0.5,0.0103542304675809,0.989645769532419,0.5,0.0103542304675809,0.5,0.5,0.999785579822848,0.5,0.0103542304675809,0.5,0.0103542304675809,0.999785579822848,0.883297632012512,0,0,1,3D,2D,0.999785579822848,0.0103542304675809,0.989749705573327,0.0102502944266734,1,1,0.000214420177151564,0.00020997986528931,0.5,0.940764776842629,0.638297632012512,2.20415509081536,2.78981399854952,0.5,0.933017398706251,0.978956383706664,0.5,0.979291539064838,0.703911141775344,1.74866541479028,2.24043061380986,0.5,47.6246192266703
140,1,14,B,1,3,a,27,1,1,1B,3B,1,0,1,0,B13,2.07822148629691,3.36729582998647,0.999995559688138,0.5,0.5,0.5,0.0103542304675809,0.989645769532419,0.5,0.0103542304675809,0.5,0.5,0.999785579822848,0.5,0.0103542304675809,0.5,0.0103542304675809,0.999995559688138,2.01429763201251,1,1,0,1B,3B,0.989645769532419,0.0103542304675809,0.989645769532419,0.0103542304675809,1,1,0.010354230467581,0.0101398102904294,0.5,0.940764776842629,0.638297632012512,2.20415509081536,2.78981399854952,0.5,0.172269639441848,0.978834881338838,0.5,0.979291539064838,0.703911141775344,1.74866541479028,2.24043061380986,0.5,47.6246192266703
140,1,15,C,3,2,l,63,1,1,3C,2C,0,1,0,1,C32,3.41352784546763,3.40119738166216,0.999995559688138,0.5,0.5,0.5,0.0103542304675809,0.999785579822848,0.5,0.0103542304675809,0.5,0.5,0.999785579822848,0.5,0.0103542304675809,0.5,0.0103542304675809,0.999995559688138,1.77529763201251,1,1,0,3C,2C,0.5,0.999785579822848,0.333380989073824,0.666619010926176,0,0,-0.5,-0.489645769532419,0.5,0.940764776842629,0.638297632012512,2.20415509081536,2.78981399854952,0.5,0.0945803246566298,0.213003736674449,0.5,0.979291539064838,0.703911141775344,1.74866541479028,2.24043061380986,0.5,47.6246192266703
140,1,16,C,2,0,a,27,1,1,2C,0C,1,0,1,0,C20,1.70015136513508,2.7408400239252,0.999995559688138,0.5,0.5,0.5,0.0103542304675809,0.999785579822848,0.5,0.0103542304675809,0.5,0.5,0.999785579822848,0.0103542304675809,0.0103542304675809,0.5,0.0103542304675809,0.999995559688138,2.67029763201251,1,1,0,2C,0C,0.999785579822848,0.5,0.666619010926176,0.333380989073824,1,1,0.000214420177151564,0.00020997986528931,0.5,0.940764776842629,0.638297632012512,2.20415509081536,2.78981399854952,0.5,0.124575464350346,0.786106932312456,0.5,0.979291539064838,0.703911141775344,1.74866541479028,2.24043061380986,0.5,47.6246192266703
140,1,17,A,0,3,a,9,1,1,0A,3A,1,0,1,0,A03,2.27581353310832,3.46573590279973,0.999995559688138,0.5,0.5,0.5,0.0103542304675809,0.999785579822848,0.5,0.0103542304675809,0.5,0.5,0.999995559688138,0.0103542304675809,0.0103542304675809,0.5,0.0103542304675809,0.999995559688138,1.27229763201251,1,1,0,0A,3A,0.999995559688138,0.5,0.666665679927776,0.333334320072224,1,1,4.4403118623082e-06,4.34835983756765e-06,0.5,0.940764776842629,0.638297632012512,2.20415509081536,2.78981399854952,0.5,0.602718110748334,0.786646554949142,0.5,0.979291539064838,0.703911141775344,1.74866541479028,2.24043061380986,0.5,47.6246192266703
140,1,18,C,2,3,a,63,1,1,2C,3C,1,0,1,0,C23,0.242419571438412,2.80336038090653,0.999999908047975,0.5,0.5,0.5,0.0103542304675809,0.999785579822848,0.5,0.0103542304675809,0.5,0.5,0.999995559688138,0.0103542304675809,0.0103542304675809,0.5,0.0103542304675809,0.999995559688138,1.32529763201251,1,1,0,2C,3C,0.999995559688138,0.0103542304675809,0.989751835880537,0.0102481641194631,1,1,4.4403118623082e-06,4.34835983756765e-06,0.5,0.940764776842629,0.638297632012512,2.20415509081536,2.78981399854952,0.5,0.909253526343949,0.978929633030716,0.5,0.979291539064838,0.703911141775344,1.74866541479028,2.24043061380986,0.5,47.6246192266703
140,1,19,A,1,0,l,63,1,1,1A,0A,0,1,0,1,A10,1.72233850378285,2.42774823594805,0.999999908047975,0.5,0.5,0.5,0.0103542304675809,0.999785579822848,0.5,0.0103542304675809,0.5,0.5,0.999999908047975,0.0103542304675809,0.0103542304675809,0.5,0.0103542304675809,0.999995559688138,1.32929763201251,0,0,1,0A,1A,0.999999908047975,0.5,0.666666646232882,0.333333353767118,1,1,9.19520247721906e-08,9.00478398592866e-08,0.5,0.940764776842629,0.638297632012512,2.20415509081536,2.78981399854952,0.5,0.571873228328575,0.786853437279556,0.5,0.979291539064838,0.703911141775344,1.74866541479028,2.24043061380986,0.5,47.6246192266703
140,1,20,D,3,2,a,63,1,1,3D,2D,1,0,1,0,D32,1.82189848232379,2.4567357728213,0.999999998095815,0.5,0.5,0.5,0.0103542304675809,0.999785579822848,0.5,0.0103542304675809,0.5,0.5,0.999999908047975,0.0103542304675809,0.0103542304675809,0.5,0.0103542304675809,0.999995559688138,0.850297632012512,1,1,0,3D,2D,0.999995559688138,0.0103542304675809,0.989751835880537,0.0102481641194631,1,1,4.4403118623082e-06,4.34835983756765e-06,0.5,0.940764776842629,0.638297632012512,2.20415509081536,2.78981399854952,0.5,0.603509428882617,0.978925623039313,0.5,0.979291539064838,0.703911141775344,1.74866541479028,2.24043061380986,0.5,47.6246192266703
140,1,21,C,3,2,l,63,1,1,3C,2C,0,1,0,1,C32,0.555724650678885,2.89037175789616,0.999999998095815,0.5,0.5,0.5,0.0103542304675809,0.999785579822848,0.5,0.0103542304675809,0.5,0.5,0.999999908047975,0.0103542304675809,0.0103542304675809,0.5,0.0103542304675809,0.999999908047975,1.30329763201251,0,0,1,2C,3C,0.999999908047975,0.0103542304675809,0.989751879986562,0.0102481200134378,1,1,9.19520247721906e-08,9.00478398592866e-08,0.5,0.940764776842629,0.638297632012512,2.20415509081536,2.78981399854952,0.5,0.955372631108958,0.978899898285119,0.5,0.979291539064838,0.703911141775344,1.74866541479028,2.24043061380986,0.5,47.6246192266703
140,1,22,D,3,1,a,27,1,1,3D,1D,1,0,1,0,D31,2.96534269187658,3.61091791264422,0.999999998095815,0.5,0.5,0.5,0.0103542304675809,0.999785579822848,0.5,0.0103542304675809,0.5,0.5,0.999999998095815,0.0103542304675809,0.0103542304675809,0.5,0.0103542304675809,0.999999908047975,1.17229763201251,1,1,0,3D,1D,0.999999908047975,0.5,0.666666646232882,0.333333353767118,1,1,9.19520247721906e-08,9.00478398592866e-08,0.5,0.940764776842629,0.638297632012512,2.20415509081536,2.78981399854952,0.5,0.648082241024084,0.786937545834653,0.5,0.979291539064838,0.703911141775344,1.74866541479028,2.24043061380986,0.5,47.6246192266703
140,1,23,A,0,1,a,63,1,1,0A,1A,1,0,1,0,A01,2.63975335292794,3.63758615972639,0.999999998095815,0.5,0.5,0.5,0.0103542304675809,0.999785579822848,0.5,0.0103542304675809,0.5,0.5,0.999999998095815,0.0103542304675809,0.0103542304675809,0.5,0.0103542304675809,0.999999998095815,1.70729763201251,1,1,0,0A,1A,0.999999998095815,0.5,0.666666666243514,0.333333333756485,1,1,1.90418492085342e-09,1.86475218180661e-09,0.5,0.940764776842629,0.638297632012512,2.20415509081536,2.78981399854952,0.5,0.377897869404249,0.787209854118267,0.5,0.979291539064838,0.703911141775344,1.74866541479028,2.24043061380986,0.5,47.6246192266703
140,1,24,C,3,2,l,63,1,1,3C,2C,0,1,0,1,C32,2.67783059561367,2.56494935746154,0.999999999960567,0.5,0.5,0.5,0.0103542304675809,0.999785579822848,0.5,0.0103542304675809,0.5,0.5,0.999999998095815,0.0103542304675809,0.0103542304675809,0.5,0.0103542304675809,0.999999998095815,2.10629763201251,0,0,1,2C,3C,0.999999998095815,0.0103542304675809,0.989751880899926,0.0102481191000739,1,1,1.90418492085342e-09,1.86475218180661e-09,0.5,0.940764776842629,0.638297632012512,2.20415509081536,2.78981399854952,0.5,0.137351221843237,0.978886071086775,0.5,0.979291539064838,0.703911141775344,1.74866541479028,2.24043061380986,0.5,47.6246192266703
140,1,25,A,0,2,a,27,1,1,0A,2A,1,0,1,0,A02,2.59847513325676,2.99573227355399,0.999999999960567,0.5,0.5,0.5,0.0103542304675809,0.999785579822848,0.5,0.0103542304675809,0.5,0.5,0.999999999960567,0.0103542304675809,0.0103542304675809,0.5,0.0103542304675809,0.999999998095815,1.18129763201251,1,1,0,0A,2A,0.999999999960567,0.5,0.666666666657904,0.333333333342096,1,1,3.94327903663338e-11,3.86161979674682e-11,0.5,0.940764776842629,0.638297632012512,2.20415509081536,2.78981399854952,0.5,0.644172277054997,0.786396529674688,0.5,0.979291539064838,0.703911141775344,1.74866541479028,2.24043061380986,0.5,47.6246192266703
140,1,26,B,1,0,a,63,1,1,1B,0B,1,0,1,0,B10,1.50360104723499,3.02042488614436,0.999999999999183,0.5,0.5,0.5,0.0103542304675809,0.999785579822848,0.5,0.0103542304675809,0.5,0.5,0.999999999960567,0.0103542304675809,0.0103542304675809,0.5,0.0103542304675809,0.999999998095815,1.21029763201251,1,1,0,1B,0B,0.999785579822848,0.0103542304675809,0.989749705573327,0.0102502944266734,1,1,0.000214420177151564,0.00020997986528931,0.5,0.940764776842629,0.638297632012512,2.20415509081536,2.78981399854952,0.5,1.16372324064589,0.97884087216305,0.5,0.979291539064838,0.703911141775344,1.74866541479028,2.24043061380986,0.5,47.6246192266703
140,1,27,B,0,1,l,63,1,1,0B,1B,0,1,0,1,B01,3.15043168447934,3.04452243772342,0.999999999999183,0.5,0.5,0.5,0.0103542304675809,0.999995559688138,0.5,0.0103542304675809,0.5,0.5,0.999999999960567,0.0103542304675809,0.0103542304675809,0.5,0.0103542304675809,0.999999998095815,1.09729763201251,0,0,1,1B,0B,0.999995559688138,0.0103542304675809,0.989751835880537,0.0102481641194631,1,1,4.4403118623082e-06,4.34835983756765e-06,0.5,0.940764776842629,0.638297632012512,2.20415509081536,2.78981399854952,0.5,1.40635653275903,0.978935205516467,0.5,0.979291539064838,0.703911141775344,1.74866541479028,2.24043061380986,0.5,47.6246192266703
140,1,28,C,3,2,l,63,1,1,3C,2C,0,1,0,1,C32,3.059215160066,2.37490575457367,0.999999999999183,0.5,0.5,0.5,0.0103542304675809,0.999999908047975,0.5,0.0103542304675809,0.5,0.5,0.999999999960567,0.0103542304675809,0.0103542304675809,0.5,0.0103542304675809,0.999999998095815,0.996297632012512,0,0,1,2C,3C,0.999999999960567,0.0103542304675809,0.989751880918841,0.0102481190811595,1,1,3.94327903663338e-11,3.86161979674682e-11,0.5,0.940764776842629,0.638297632012512,2.20415509081536,2.78981399854952,0.5,1.46734317063093,0.978939843489043,0.5,0.979291539064838,0.703911141775344,1.74866541479028,2.24043061380986,0.5,47.6246192266703
140,1,29,D,3,1,a,27,1,1,3D,1D,1,0,1,0,D31,0.964973191475038,3.09104245335832,0.999999999999183,0.5,0.5,0.5,0.0103542304675809,0.999999908047975,0.5,0.0103542304675809,0.5,0.5,0.999999999999183,0.0103542304675809,0.0103542304675809,0.5,0.0103542304675809,0.999999998095815,1.28429763201251,1,1,0,3D,1D,0.999999998095815,0.5,0.666666666243514,0.333333333756485,1,1,1.90418492085342e-09,1.86475218180661e-09,0.5,0.940764776842629,0.638297632012512,2.20415509081536,2.78981399854952,0.5,0.595875482011714,0.786271467809501,0.5,0.979291539064838,0.703911141775344,1.74866541479028,2.24043061380986,0.5,47.6246192266703
140,1,30,C,1,2,l,9,1,1,1C,2C,0,1,0,1,C12,2.73839553370697,3.80666248977032,0.999999999999183,0.5,0.5,0.5,0.0103542304675809,0.999999908047975,0.5,0.0103542304675809,0.5,0.5,0.999999999999183,0.0103542304675809,0.0103542304675809,0.5,0.0103542304675809,0.999999999960567,2.76829763201251,1,1,0,1C,2C,0.5,0.999999999999183,0.333333333333515,0.666666666666485,0,0,-0.5,-0.489645769532419,0.5,0.940764776842629,0.638297632012512,2.20415509081536,2.78981399854952,0.5,0.0301888094404384,0.213416308571838,0.5,0.979291539064838,0.703911141775344,1.74866541479028,2.24043061380986,0.5,47.6246192266703
140,1,31,B,3,1,l,27,1,1,3B,1B,0,1,0,1,B31,3.39664038460872,3.13549421592915,0.999999999999183,0.5,0.5,0.5,0.0103542304675809,0.999999908047975,0.5,0.0103542304675809,0.5,0.0103542304675809,0.999999999999183,0.0103542304675809,0.0103542304675809,0.5,0.0103542304675809,0.999999999960567,2.04529763201251,0,0,1,1B,3B,0.999999908047975,0.0103542304675809,0.989751879986562,0.0102481200134378,1,1,9.19520247721906e-08,9.00478398592866e-08,0.5,0.940764776842629,0.638297632012512,2.20415509081536,2.78981399854952,0.5,0.159508319030785,0.978878976594979,0.5,0.979291539064838,0.703911141775344,1.74866541479028,2.24043061380986,0.5,47.6246192266703
140,1,32,D,3,2,a,63,1,1,3D,2D,1,0,1,0,D32,1.19634932120634,2.46385324059017,0.999999999999183,0.5,0.5,0.5,0.0103542304675809,0.999999998095815,0.5,0.0103542304675809,0.5,0.0103542304675809,0.999999999999183,0.0103542304675809,0.0103542304675809,0.5,0.0103542304675809,0.999999999960567,0.889297632012512,1,1,0,3D,2D,0.999999999960567,0.0103542304675809,0.989751880918841,0.0102481190811595,1,1,3.94327903663338e-11,3.86161979674682e-11,0.5,0.940764776842629,0.638297632012512,2.20415509081536,2.78981399854952,0.5,0.985872511114016,0.978960020129715,0.5,0.979291539064838,0.703911141775344,1.74866541479028,2.24043061380986,0.5,47.6246192266703
140,1,33,B,0,1,l,63,1,1,0B,1B,0,1,0,1,B01,0.765568379111227,2.77258872223978,0.999999999999183,0.5,0.5,0.5,0.0103542304675809,0.999999998095815,0.5,0.0103542304675809,0.5,0.0103542304675809,0.999999999999183,0.0103542304675809,0.0103542304675809,0.5,0.0103542304675809,0.999999999999183,1.00129763201251,0,0,1,1B,0B,0.999999998095815,0.0103542304675809,0.989751880899926,0.0102481191000739,1,1,1.90418492085342e-09,1.86475218180661e-09,0.5,0.940764776842629,0.638297632012512,2.20415509081536,2.78981399854952,0.5,1.4711346708229,0.978884989096138,0.5,0.979291539064838,0.703911141775344,1.74866541479028,2.24043061380986,0.5,47.6246192266703
140,1,34,A,1,0,l,63,1,1,1A,0A,0,1,0,1,A10,3.18287129993865,2.50552593699074,0.999999999999183,0.5,0.5,0.5,0.0103542304675809,0.999999999960567,0.5,0.0103542304675809,0.5,0.0103542304675809,0.999999999999183,0.0103542304675809,0.0103542304675809,0.5,0.0103542304675809,0.999999999999183,2.26929763201251,0,0,1,0A,1A,0.999999999999183,0.5,0.666666666666485,0.333333333333515,1,1,8.16569034611803e-13,7.99659146657681e-13,0.5,0.940764776842629,0.638297632012512,2.20415509081536,2.78981399854952,0.5,0.197841632029612,0.787304463460195,0.5,0.979291539064838,0.703911141775344,1.74866541479028,2.24043061380986,0.5,47.6246192266703
140,1,35,C,2,3,a,63,1,1,2C,3C,1,0,1,0,C23,0.581907172568585,2.81341071676004,0.999999999999983,0.5,0.5,0.5,0.0103542304675809,0.999999999960567,0.5,0.0103542304675809,0.5,0.0103542304675809,0.999999999999183,0.0103542304675809,0.0103542304675809,0.5,0.0103542304675809,0.999999999999183,1.77229763201251,0,0,1,3C,2C,0.0103542304675809,0.999999999999183,0.0102481190807678,0.989751880919232,0,0,-0.0103542304675809,-0.0101398102904294,0.5,0.940764776842629,0.638297632012512,2.20415509081536,2.78981399854952,0.5,0.0067058154723511,0.0211059198152446,0.5,0.979291539064838,0.703911141775344,1.74866541479028,2.24043061380986,0.5,47.6246192266703
140,1,36,A,0,2,a,27,1,1,0A,2A,1,0,1,0,A02,0.901715138623383,2.83321334405622,0.999999999999983,0.5,0.5,0.5,0.0103542304675809,0.999999999960567,0.5,0.0103542304675809,0.5,0.0103542304675809,0.999999999999183,0.000214420177151562,0.0103542304675809,0.5,0.0103542304675809,0.999999999999183,2.29329763201251,0,0,1,2A,0A,0.5,0.999999999999983,0.333333333333337,0.666666666666663,0,0,-0.5,-0.489645769532419,0.5,0.940764776842629,0.638297632012512,2.20415509081536,2.78981399854952,0.5,0.0520409579174282,0.212879653274286,0.5,0.979291539064838,0.703911141775344,1.74866541479028,2.24043061380986,0.5,47.6246192266703
140,1,37,B,0,1,l,63,1,1,0B,1B,0,1,0,1,B01,3.17154274883508,2.56494935746154,0.999999999999983,0.5,0.0103542304675809,0.5,0.0103542304675809,0.999999999960567,0.5,0.0103542304675809,0.5,0.0103542304675809,0.999999999999183,0.000214420177151562,0.0103542304675809,0.5,0.0103542304675809,0.999999999999183,1.81429763201251,0,0,1,1B,0B,0.999999999960567,0.0103542304675809,0.989751880918841,0.0102481190811595,1,1,3.94327903663338e-11,3.86161979674682e-11,0.5,0.940764776842629,0.638297632012512,2.20415509081536,2.78981399854952,0.5,0.28087118512213,0.978849998240189,0.5,0.979291539064838,0.703911141775344,1.74866541479028,2.24043061380986,0.5,47.6246192266703
140,1,38,D,2,3,l,63,1,1,2D,3D,0,1,0,1,D23,1.5108728385586,2.87167962488401,0.999999999999983,0.5,0.0103542304675809,0.5,0.0103542304675809,0.999999999999183,0.5,0.0103542304675809,0.5,0.0103542304675809,0.999999999999183,0.000214420177151562,0.0103542304675809,0.5,0.0103542304675809,0.999999999999183,1.38829763201251,0,0,1,3D,2D,0.999999999999183,0.0103542304675809,0.989751880919232,0.0102481190807678,1,1,8.16569034611803e-13,7.99659146657681e-13,0.5,0.940764776842629,0.638297632012512,2.20415509081536,2.78981399854952,0.5,0.786207361662942,0.978931844917316,0.5,0.979291539064838,0.703911141775344,1.74866541479028,2.24043061380986,0.5,47.6246192266703
140,1,39,B,1,2,a,9,1,1,1B,2B,1,0,1,0,B12,2.20613361383004,3.98898404656427,0.999999999999983,0.5,0.0103542304675809,0.5,0.0103542304675809,0.999999999999183,0.5,0.0103542304675809,0.5,0.0103542304675809,0.999999999999183,0.000214420177151562,0.0103542304675809,0.5,0.0103542304675809,0.999999999999983,1.54529763201251,1,1,0,1B,2B,0.999999999999183,0.5,0.666666666666485,0.333333333333515,1,1,8.16569034611803e-13,7.99659146657681e-13,0.5,0.940764776842629,0.638297632012512,2.20415509081536,2.78981399854952,0.5,0.453985702269706,0.786885429747422,0.5,0.979291539064838,0.703911141775344,1.74866541479028,2.24043061380986,0.5,47.6246192266703
140,1,40,D,1,3,l,27,1,1,1D,3D,0,1,0,1,D13,0.324474060675185,4.00733318523247,0.999999999999983,0.5,0.0103542304675809,0.5,0.0103542304675809,0.999999999999983,0.5,0.0103542304675809,0.5,0.0103542304675809,0.999999999999183,0.000214420177151562,0.0103542304675809,0.5,0.0103542304675809,0.999999999999983,1.69829763201251,0,0,1,3D,1D,0.999999999999983,0.5,0.666666666666663,0.333333333333337,1,1,1.68753899743024e-14,1.65259266202539e-14,0.5,0.940764776842629,0.638297632012512,2.20415509081536,2.78981399854952,0.5,0.381507603645957,0.786658438214121,0.5,0.979291539064838,0.703911141775344,1.74866541479028,2.24043061380986,0.5,47.6246192266703
140,1,41,A,1,0,l,63,1,1,1A,0A,0,1,0,1,A10,2.91333766583483,2.41591377830105,0.999999999999983,0.5,0.0103542304675809,0.5,0.0103542304675809,0.999999999999983,0.5,0.0103542304675809,0.5,0.0103542304675809,0.999999999999183,0.000214420177151562,0.0103542304675809,0.5,0.0103542304675809,1,0.925297632012512,0,0,1,0A,1A,0.999999999999983,0.5,0.666666666666663,0.333333333333337,1,1,1.68753899743024e-14,1.65259266202539e-14,0.5,0.940764776842629,0.638297632012512,2.20415509081536,2.78981399854952,0.5,0.465895167860986,0.786316633408644,0.5,0.979291539064838,0.703911141775344,1.74866541479028,2.24043061380986,0.5,47.6246192266703
140,1,42,A,0,1,a,63,1,1,0A,1A,1,0,1,0,A01,2.8757991447765,3.3499040872746,1,0.5,0.0103542304675809,0.5,0.0103542304675809,0.999999999999983,0.5,0.0103542304675809,0.5,0.0103542304675809,0.999999999999183,0.000214420177151562,0.0103542304675809,0.5,0.0103542304675809,1,1.83429763201251,1,1,0,0A,1A,1,0.5,0.666666666666667,0.333333333333333,1,1,3.33066907387547e-16,3.26169604347117e-16,0.5,0.940764776842629,0.638297632012512,2.20415509081536,2.78981399854952,0.5,0.326532087611908,0.78696623167865,0.5,0.979291539064838,0.703911141775344,1.74866541479028,2.24043061380986,0.5,47.6246192266703
140,1,43,C,2,0,a,27,1,1,2C,0C,1,0,1,0,C20,3.03762640913119,2.96183072187831,1,0.5,0.0103542304675809,0.5,0.0103542304675809,0.999999999999983,0.5,0.0103542304675809,0.5,0.0103542304675809,0.999999999999183,0.000214420177151562,0.0103542304675809,0.5,0.0103542304675809,1,2.66329763201251,1,1,0,2C,0C,0.999999999999183,0.5,0.666666666666485,0.333333333333515,1,1,8.16569034611803e-13,7.99659146657681e-13,0.5,0.940764776842629,0.638297632012512,2.20415509081536,2.78981399854952,0.5,0.125584060582787,0.786095955029092,0.5,0.979291539064838,0.703911141775344,1.74866541479028,2.24043061380986,0.5,47.6246192266703
140,1,44,B,0,1,l,63,1,1,0B,1B,0,1,0,1,B01,0.433134554156414,2.46809953147162,1,0.5,0.0103542304675809,0.5,0.0103542304675809,0.999999999999983,0.5,0.0103542304675809,0.5,0.0103542304675809,0.999999999999983,0.000214420177151562,0.0103542304675809,0.5,0.0103542304675809,1,0.997297632012512,0,0,1,1B,0B,0.999999999999983,0.0103542304675809,0.98975188091924,0.0102481190807597,1,1,1.68753899743024e-14,1.65259266202539e-14,0.5,0.940764776842629,0.638297632012512,2.20415509081536,2.78981399854952,0.5,1.46748893153063,0.97889301842687,0.5,0.979291539064838,0.703911141775344,1.74866541479028,2.24043061380986,0.5,47.6246192266703
