ID,session,trialNr,mod2Stim,visStimLeft,visStimRight,correctKey,frequency,rewardAccurate,probFB,stimPairLeft,stimPairRight,leftCorrect,rightCorrect,pCorrectLeft,pCorrectRight,triplet,rt,surprise,0A belief,1A belief,2A belief,3A belief,0B belief,1B belief,2B belief,3B belief,0C belief,1C belief,2C belief,3C belief,0D belief,1D belief,2D belief,3D belief,reactionTime,choice,choiceLeft,choiceRight,chosenPair,otherPair,beliefPair,beliefOtherPair,beliefPairNorm,beliefOtherPairNorm,choiceAccurate,reward,rewardPE,update2,sim_CBCsimpleRW_CBCdriftDiffusionLR_startBelief,sim_CBCsimpleRW_CBCdriftDiffusionLR_alpha1,sim_CBCsimpleRW_CBCdriftDiffusionLR_nonDecisionTime,sim_CBCsimpleRW_CBCdriftDiffusionLR_weight,sim_CBCsimpleRW_CBCdriftDiffusionLR_startingBoundary,sim_CBCsimpleRW_CBCdriftDiffusionLR_startingPoint,lik,corrLik,fitCBCsimpleRW_CBCdriftDiffusionLR_startBelief,fitCBCsimpleRW_CBCdriftDiffusionLR_alpha1,fitCBCsimpleRW_CBCdriftDiffusionLR_nonDecisionTime,fitCBCsimpleRW_CBCdriftDiffusionLR_weight,fitCBCsimpleRW_CBCdriftDiffusionLR_startingBoundary,fitCBCsimpleRW_CBCdriftDiffusionLR_startingPoint,fit_CBCsimpleRW_CBCdriftDiffusionLR_NLL
198,1,1,A,1,0,l,63,1,0.95,1A,0A,0,1,0,1,A10,0.243500960239586,2.77258872223978,0.5,0.5,0.5,0.5,0.5,0.5,0.5,0.5,0.5,0.5,0.5,0.5,0.5,0.5,0.5,0.5,1.05983396866694,0,0,1,0A,1A,0.5,0.5,0.5,0.5,1,1,0.5,0.241168662866387,0.5,0.528287654151807,0.33083396866694,5.14651003708874,1.42194100798902,0.5,0.274783294205011,0.500140233761056,0.5,0.482337325732775,0.340574252146045,7.40723079364585,1.4443046780168,0.5,-10.9487033628591
198,1,2,C,2,3,a,63,1,0.95,2C,3C,1,0,1,0,C23,1.80864514480415,2.83321334405622,0.741168662866387,0.5,0.5,0.5,0.5,0.5,0.5,0.5,0.5,0.5,0.5,0.5,0.5,0.5,0.5,0.5,0.51783396866694,0,0,1,3C,2C,0.5,0.5,0.5,0.5,0,0,-0.5,-0.241168662866387,0.5,0.528287654151807,0.33083396866694,5.14651003708874,1.42194100798902,0.5,0.885947728355287,0.49959573244495,0.5,0.482337325732775,0.340574252146045,7.40723079364585,1.4443046780168,0.5,-10.9487033628591
198,1,3,A,2,0,l,27,1,0.95,2A,0A,0,1,0,1,A20,1.50308048432195,2.89037175789616,0.741168662866387,0.5,0.5,0.5,0.5,0.5,0.5,0.5,0.5,0.5,0.5,0.258831337133613,0.5,0.5,0.5,0.5,0.74483396866694,0,0,1,0A,2A,0.741168662866387,0.5,0.597153863967781,0.402846136032219,1,1,0.258831337133613,0.124844014968865,0.5,0.528287654151807,0.33083396866694,5.14651003708874,1.42194100798902,0.5,1.07516739008276,0.888932615043988,0.5,0.482337325732775,0.340574252146045,7.40723079364585,1.4443046780168,0.5,-10.9487033628591
198,1,4,B,0,1,l,63,1,0.95,0B,1B,0,1,0,1,B01,3.44996266784468,2.94443897916644,0.866012677835252,0.5,0.5,0.5,0.5,0.5,0.5,0.5,0.5,0.5,0.5,0.258831337133613,0.5,0.5,0.5,0.5,0.80783396866694,0,0,1,1B,0B,0.5,0.5,0.5,0.5,1,1,0.5,0.241168662866387,0.5,0.528287654151807,0.33083396866694,5.14651003708874,1.42194100798902,0.5,0.497652725667416,0.499242360922985,0.5,0.482337325732775,0.340574252146045,7.40723079364585,1.4443046780168,0.5,-10.9487033628591
198,1,5,B,1,0,a,63,1,0.95,1B,0B,1,0,1,0,B10,2.74109421622913,2.99573227355399,0.866012677835252,0.5,0.5,0.5,0.5,0.741168662866387,0.5,0.5,0.5,0.5,0.5,0.258831337133613,0.5,0.5,0.5,0.5,0.81483396866694,1,1,0,1B,0B,0.741168662866387,0.5,0.597153863967781,0.402846136032219,1,1,0.258831337133613,0.124844014968865,0.5,0.528287654151807,0.33083396866694,5.14651003708874,1.42194100798902,0.5,0.848182352685428,0.888908893467228,0.5,0.482337325732775,0.340574252146045,7.40723079364585,1.4443046780168,0.5,-10.9487033628591
198,1,6,C,2,3,a,63,1,0.95,2C,3C,1,0,1,0,C23,1.60755882866394,2.35137525716348,0.866012677835252,0.5,0.5,0.5,0.5,0.866012677835252,0.5,0.5,0.5,0.5,0.5,0.258831337133613,0.5,0.5,0.5,0.5,0.55483396866694,1,1,0,2C,3C,0.5,0.258831337133613,0.658907949016293,0.341092050983707,1,1,0.5,0.241168662866387,0.5,0.528287654151807,0.33083396866694,5.14651003708874,1.42194100798902,0.5,2.59994666699806,0.967693022924496,0.5,0.482337325732775,0.340574252146045,7.40723079364585,1.4443046780168,0.5,-10.9487033628591
198,1,7,D,1,3,l,27,1,0.95,1D,3D,0,1,0,1,D13,0.866191633570655,3.09104245335832,0.866012677835252,0.5,0.5,0.5,0.5,0.866012677835252,0.5,0.5,0.5,0.5,0.741168662866387,0.258831337133613,0.5,0.5,0.5,0.5,0.49983396866694,0,0,1,3D,1D,0.5,0.5,0.5,0.5,1,1,0.5,0.241168662866387,0.5,0.528287654151807,0.33083396866694,5.14651003708874,1.42194100798902,0.5,0.881822575199739,0.500073143898929,0.5,0.482337325732775,0.340574252146045,7.40723079364585,1.4443046780168,0.5,-10.9487033628591
198,1,8,C,2,1,a,9,1,0.95,2C,1C,1,0,1,0,C21,1.88197657312571,3.13549421592915,0.866012677835252,0.5,0.5,0.5,0.5,0.866012677835252,0.5,0.5,0.5,0.5,0.741168662866387,0.258831337133613,0.5,0.5,0.5,0.741168662866387,0.72883396866694,1,1,0,2C,1C,0.741168662866387,0.5,0.597153863967781,0.402846136032219,1,1,0.258831337133613,0.124844014968865,0.5,0.528287654151807,0.33083396866694,5.14651003708874,1.42194100798902,0.5,1.13438859536752,0.888655075120343,0.5,0.482337325732775,0.340574252146045,7.40723079364585,1.4443046780168,0.5,-10.9487033628591
198,1,9,B,1,3,a,27,1,0.95,1B,3B,1,0,1,0,B13,3.15601880249321,3.17805383034795,0.866012677835252,0.5,0.5,0.5,0.5,0.866012677835252,0.5,0.5,0.5,0.5,0.866012677835252,0.258831337133613,0.5,0.5,0.5,0.741168662866387,1.02783396866694,1,1,0,1B,3B,0.866012677835252,0.5,0.633971186275987,0.366028813724013,1,1,0.133987322164748,0.0646270866550401,0.5,0.528287654151807,0.33083396866694,5.14651003708874,1.42194100798902,0.5,0.320936957809427,0.946147783191965,0.5,0.482337325732775,0.340574252146045,7.40723079364585,1.4443046780168,0.5,-10.9487033628591
198,1,10,D,2,3,l,63,1,0.95,2D,3D,0,1,0,1,D23,2.59458378824404,3.2188758248682,0.866012677835252,0.5,0.5,0.5,0.5,0.930639764490292,0.5,0.5,0.5,0.5,0.866012677835252,0.258831337133613,0.5,0.5,0.5,0.741168662866387,0.60183396866694,0,0,1,3D,2D,0.741168662866387,0.5,0.597153863967781,0.402846136032219,1,1,0.258831337133613,0.124844014968865,0.5,0.528287654151807,0.33083396866694,5.14651003708874,1.42194100798902,0.5,1.71372326497937,0.888849817493402,0.5,0.482337325732775,0.340574252146045,7.40723079364585,1.4443046780168,0.5,-10.9487033628591
198,1,11,B,0,1,l,63,1,0.95,0B,1B,0,1,0,1,B01,0.623922004588368,2.56494935746154,0.866012677835252,0.5,0.5,0.5,0.5,0.930639764490292,0.5,0.5,0.5,0.5,0.866012677835252,0.258831337133613,0.5,0.5,0.5,0.866012677835252,0.67783396866694,0,0,1,1B,0B,0.930639764490292,0.5,0.650506009681522,0.349493990318478,1,1,0.0693602355097076,0.0334550305079478,0.5,0.528287654151807,0.33083396866694,5.14651003708874,1.42194100798902,0.5,1.45996173660095,0.961534273991412,0.5,0.482337325732775,0.340574252146045,7.40723079364585,1.4443046780168,0.5,-10.9487033628591
198,1,12,C,2,0,a,27,1,0.95,2C,0C,1,0,1,0,C20,1.56900678267128,3.29583686600433,0.866012677835252,0.5,0.5,0.5,0.5,0.96409479499824,0.5,0.5,0.5,0.5,0.866012677835252,0.258831337133613,0.5,0.5,0.5,0.866012677835252,0.54283396866694,1,1,0,2C,0C,0.866012677835252,0.5,0.633971186275987,0.366028813724013,1,1,0.133987322164748,0.0646270866550401,0.5,0.528287654151807,0.33083396866694,5.14651003708874,1.42194100798902,0.5,2.45647928963523,0.946228883019504,0.5,0.482337325732775,0.340574252146045,7.40723079364585,1.4443046780168,0.5,-10.9487033628591
198,1,13,D,2,3,l,63,0,0.95,2D,3D,0,1,1,0,D23,1.91623390621013,2.63905732961526,0.866012677835252,0.5,0.5,0.5,0.5,0.96409479499824,0.5,0.5,0.5,0.5,0.930639764490292,0.258831337133613,0.5,0.5,0.5,0.866012677835252,0.71883396866694,0,0,1,3D,2D,0.866012677835252,0.5,0.633971186275987,0.366028813724013,1,0,-0.866012677835252,-0.417710239077735,0.5,0.528287654151807,0.33083396866694,5.14651003708874,1.42194100798902,0.5,1.2221433086556,0.946072606548496,0.5,0.482337325732775,0.340574252146045,7.40723079364585,1.4443046780168,0.5,-10.9487033628591
198,1,14,A,0,1,a,63,1,0.95,0A,1A,1,0,1,0,A01,0.863309332866333,3.36729582998647,0.866012677835252,0.5,0.5,0.5,0.5,0.96409479499824,0.5,0.5,0.5,0.5,0.930639764490292,0.258831337133613,0.5,0.5,0.5,0.448302438757518,0.72383396866694,1,1,0,0A,1A,0.866012677835252,0.5,0.633971186275987,0.366028813724013,1,1,0.133987322164748,0.0646270866550401,0.5,0.528287654151807,0.33083396866694,5.14651003708874,1.42194100798902,0.5,1.19620024051358,0.946080318969268,0.5,0.482337325732775,0.340574252146045,7.40723079364585,1.4443046780168,0.5,-10.9487033628591
198,1,15,C,3,2,l,63,1,0.95,3C,2C,0,1,0,1,C32,1.84362982919526,3.40119738166216,0.930639764490292,0.5,0.5,0.5,0.5,0.96409479499824,0.5,0.5,0.5,0.5,0.930639764490292,0.258831337133613,0.5,0.5,0.5,0.448302438757518,0.45383396866694,0,0,1,2C,3C,0.930639764490292,0.258831337133613,0.78239796092545,0.21760203907455,1,1,0.0693602355097076,0.0334550305079478,0.5,0.528287654151807,0.33083396866694,5.14651003708874,1.42194100798902,0.5,5.75647373755725,0.997628275100453,0.5,0.482337325732775,0.340574252146045,7.40723079364585,1.4443046780168,0.5,-10.9487033628591
198,1,16,A,2,0,l,27,1,0.95,2A,0A,0,1,0,1,A20,1.3589507720848,2.7408400239252,0.930639764490292,0.5,0.5,0.5,0.5,0.96409479499824,0.5,0.5,0.5,0.5,0.96409479499824,0.258831337133613,0.5,0.5,0.5,0.448302438757518,0.48583396866694,0,0,1,0A,2A,0.930639764490292,0.5,0.650506009681522,0.349493990318478,1,1,0.0693602355097076,0.0334550305079478,0.5,0.528287654151807,0.33083396866694,5.14651003708874,1.42194100798902,0.5,3.0136640192707,0.961559143646186,0.5,0.482337325732775,0.340574252146045,7.40723079364585,1.4443046780168,0.5,-10.9487033628591
198,1,17,D,3,2,a,63,1,0.95,3D,2D,1,0,1,0,D32,0.68795255125344,3.46573590279973,0.96409479499824,0.5,0.5,0.5,0.5,0.96409479499824,0.5,0.5,0.5,0.5,0.96409479499824,0.258831337133613,0.5,0.5,0.5,0.448302438757518,0.64483396866694,1,1,0,3D,2D,0.448302438757518,0.5,0.472742049830528,0.527257950169472,1,1,0.551697561242482,0.266104326302993,0.5,0.528287654151807,0.33083396866694,5.14651003708874,1.42194100798902,0.5,0.529322206582022,0.358221292734367,0.5,0.482337325732775,0.340574252146045,7.40723079364585,1.4443046780168,0.5,-10.9487033628591
198,1,18,D,2,3,l,63,1,0.95,2D,3D,0,1,0,1,D23,0.516941810878309,2.39789527279837,0.96409479499824,0.5,0.5,0.5,0.5,0.96409479499824,0.5,0.5,0.5,0.5,0.96409479499824,0.258831337133613,0.5,0.5,0.5,0.71440676506051,0.44683396866694,0,0,1,3D,2D,0.71440676506051,0.5,0.58827633838561,0.41172366161439,1,1,0.28559323493949,0.137752277188085,0.5,0.528287654151807,0.33083396866694,5.14651003708874,1.42194100798902,0.5,1.67852885436936,0.868604005238185,0.5,0.482337325732775,0.340574252146045,7.40723079364585,1.4443046780168,0.5,-10.9487033628591
198,1,19,B,1,3,a,27,1,0.95,1B,3B,1,0,1,0,B13,2.33802768497548,2.83321334405622,0.96409479499824,0.5,0.5,0.5,0.5,0.96409479499824,0.5,0.5,0.5,0.5,0.96409479499824,0.258831337133613,0.5,0.5,0.5,0.852159042248596,0.68883396866694,1,1,0,1B,3B,0.96409479499824,0.5,0.658492058227281,0.341507941772719,1,1,0.0359052050017598,0.0173184205604358,0.5,0.528287654151807,0.33083396866694,5.14651003708874,1.42194100798902,0.5,1.37330969316278,0.967370633272726,0.5,0.482337325732775,0.340574252146045,7.40723079364585,1.4443046780168,0.5,-10.9487033628591
198,1,20,D,3,0,a,9,1,0.95,3D,0D,1,0,1,0,D30,0.71935321871394,3.55534806148941,0.96409479499824,0.5,0.5,0.5,0.5,0.981413215558676,0.5,0.5,0.5,0.5,0.96409479499824,0.258831337133613,0.5,0.5,0.5,0.852159042248596,0.55683396866694,1,1,0,3D,0D,0.852159042248596,0.5,0.630221013669726,0.369778986330274,1,1,0.147840957751404,0.0713092121955844,0.5,0.528287654151807,0.33083396866694,5.14651003708874,1.42194100798902,0.5,2.3094708767289,0.941870554846015,0.5,0.482337325732775,0.340574252146045,7.40723079364585,1.4443046780168,0.5,-10.9487033628591
198,1,21,B,0,1,l,63,1,0.95,0B,1B,0,1,0,1,B01,0.927909166876163,2.484906649788,0.96409479499824,0.5,0.5,0.5,0.5,0.981413215558676,0.5,0.5,0.5,0.5,0.96409479499824,0.258831337133613,0.5,0.5,0.5,0.92346825444418,0.50783396866694,0,0,1,1B,0B,0.981413215558676,0.5,0.662484447452807,0.337515552547193,1,1,0.0185867844413239,0.00896509990139971,0.5,0.528287654151807,0.33083396866694,5.14651003708874,1.42194100798902,0.5,3.10396475447826,0.970023684690752,0.5,0.482337325732775,0.340574252146045,7.40723079364585,1.4443046780168,0.5,-10.9487033628591
198,1,22,A,0,1,a,63,1,0.95,0A,1A,1,0,1,0,A01,0.391386702680557,2.91777073208428,0.96409479499824,0.5,0.5,0.5,0.5,0.990378315460076,0.5,0.5,0.5,0.5,0.96409479499824,0.258831337133613,0.5,0.5,0.5,0.92346825444418,0.80083396866694,1,1,0,0A,1A,0.96409479499824,0.5,0.658492058227281,0.341507941772719,1,1,0.0359052050017598,0.0173184205604358,0.5,0.528287654151807,0.33083396866694,5.14651003708874,1.42194100798902,0.5,0.776294469583602,0.967463347535437,0.5,0.482337325732775,0.340574252146045,7.40723079364585,1.4443046780168,0.5,-10.9487033628591
198,1,23,C,3,2,l,63,1,0.95,3C,2C,0,1,0,1,C32,0.945565771505483,2.94443897916644,0.981413215558676,0.5,0.5,0.5,0.5,0.990378315460076,0.5,0.5,0.5,0.5,0.96409479499824,0.258831337133613,0.5,0.5,0.5,0.92346825444418,0.58083396866694,0,0,1,2C,3C,0.96409479499824,0.258831337133613,0.788350800319879,0.211649199680121,1,1,0.0359052050017598,0.0173184205604358,0.5,0.528287654151807,0.33083396866694,5.14651003708874,1.42194100798902,0.5,2.0176063558135,0.997908801681392,0.5,0.482337325732775,0.340574252146045,7.40723079364585,1.4443046780168,0.5,-10.9487033628591
198,1,24,A,2,0,l,27,1,0.95,2A,0A,0,1,0,1,A20,1.00266816802029,2.56494935746154,0.981413215558676,0.5,0.5,0.5,0.5,0.990378315460076,0.5,0.5,0.5,0.5,0.981413215558676,0.258831337133613,0.5,0.5,0.5,0.92346825444418,0.76483396866694,1,1,0,2A,0A,0.5,0.981413215558676,0.337515552547193,0.662484447452807,0,0,-0.5,-0.241168662866387,0.5,0.528287654151807,0.33083396866694,5.14651003708874,1.42194100798902,0.5,0.0283851165064208,0.0300019395178967,0.5,0.482337325732775,0.340574252146045,7.40723079364585,1.4443046780168,0.5,-10.9487033628591
198,1,25,B,0,1,l,63,1,0.95,0B,1B,0,1,0,1,B01,1.61323774643703,2.30258509299405,0.981413215558676,0.5,0.258831337133613,0.5,0.5,0.990378315460076,0.5,0.5,0.5,0.5,0.981413215558676,0.258831337133613,0.5,0.5,0.5,0.92346825444418,0.51983396866694,0,0,1,1B,0B,0.990378315460076,0.5,0.664514710920461,0.335485289079539,1,1,0.00962168453992418,0.00464089759003141,0.5,0.528287654151807,0.33083396866694,5.14651003708874,1.42194100798902,0.5,3.0252789067845,0.97126437053435,0.5,0.482337325732775,0.340574252146045,7.40723079364585,1.4443046780168,0.5,-10.9487033628591
198,1,26,D,3,2,a,63,1,0.95,3D,2D,1,0,1,0,D32,0.402901515076272,3.02042488614436,0.981413215558676,0.5,0.258831337133613,0.5,0.5,0.995019213050107,0.5,0.5,0.5,0.5,0.981413215558676,0.258831337133613,0.5,0.5,0.5,0.92346825444418,0.55683396866694,1,1,0,3D,2D,0.92346825444418,0.5,0.648745240057893,0.351254759942107,1,1,0.0765317455558198,0.0369141174850553,0.5,0.528287654151807,0.33083396866694,5.14651003708874,1.42194100798902,0.5,2.49077845839388,0.960131335123356,0.5,0.482337325732775,0.340574252146045,7.40723079364585,1.4443046780168,0.5,-10.9487033628591
198,1,27,B,2,1,l,9,1,0.95,2B,1B,0,1,0,1,B21,1.47453728221222,3.73766961828337,0.981413215558676,0.5,0.258831337133613,0.5,0.5,0.995019213050107,0.5,0.5,0.5,0.5,0.981413215558676,0.258831337133613,0.5,0.5,0.5,0.960382371929235,0.52683396866694,0,0,1,1B,2B,0.995019213050107,0.5,0.665556137583068,0.334443862416932,1,1,0.00498078694989279,0.00240241945745599,0.5,0.528287654151807,0.33083396866694,5.14651003708874,1.42194100798902,0.5,2.96608248152035,0.971838960208557,0.5,0.482337325732775,0.340574252146045,7.40723079364585,1.4443046780168,0.5,-10.9487033628591
198,1,28,D,3,1,a,27,1,0.95,3D,1D,1,0,1,0,D31,1.1824568746735,3.76120011569356,0.981413215558676,0.5,0.258831337133613,0.5,0.5,0.997421632507563,0.5,0.5,0.5,0.5,0.981413215558676,0.258831337133613,0.5,0.5,0.5,0.960382371929235,0.41983396866694,1,1,0,3D,1D,0.960382371929235,0.5,0.657623914386562,0.342376085613438,1,1,0.0396176280707645,0.0191090607755283,0.5,0.528287654151807,0.33083396866694,5.14651003708874,1.42194100798902,0.5,2.09460525377385,0.966916191507768,0.5,0.482337325732775,0.340574252146045,7.40723079364585,1.4443046780168,0.5,-10.9487033628591
198,1,29,A,0,1,a,63,1,0.95,0A,1A,1,0,1,0,A01,3.07823089460265,2.68557734525015,0.981413215558676,0.5,0.258831337133613,0.5,0.5,0.997421632507563,0.5,0.5,0.5,0.5,0.981413215558676,0.258831337133613,0.5,0.5,0.5,0.979491432704764,0.46783396866694,1,1,0,0A,1A,0.981413215558676,0.5,0.662484447452807,0.337515552547193,1,1,0.0185867844413239,0.00896509990139971,0.5,0.528287654151807,0.33083396866694,5.14651003708874,1.42194100798902,0.5,3.21796323837096,0.970042512763841,0.5,0.482337325732775,0.340574252146045,7.40723079364585,1.4443046780168,0.5,-10.9487033628591
198,1,30,A,1,0,l,63,1,0.95,1A,0A,0,1,0,1,A10,0.165320864427846,3.11351530921037,0.990378315460076,0.5,0.258831337133613,0.5,0.5,0.997421632507563,0.5,0.5,0.5,0.5,0.981413215558676,0.258831337133613,0.5,0.5,0.5,0.979491432704764,0.51083396866694,0,0,1,0A,1A,0.990378315460076,0.5,0.664514710920461,0.335485289079539,1,1,0.00962168453992418,0.00464089759003141,0.5,0.528287654151807,0.33083396866694,5.14651003708874,1.42194100798902,0.5,3.10893237443713,0.971284455794028,0.5,0.482337325732775,0.340574252146045,7.40723079364585,1.4443046780168,0.5,-10.9487033628591
198,1,31,C,2,0,a,27,1,0.95,2C,0C,1,0,1,0,C20,1.9345461363815,3.13549421592915,0.995019213050107,0.5,0.258831337133613,0.5,0.5,0.997421632507563,0.5,0.5,0.5,0.5,0.981413215558676,0.258831337133613,0.5,0.5,0.5,0.979491432704764,0.40683396866694,1,1,0,2C,0C,0.981413215558676,0.5,0.662484447452807,0.337515552547193,1,1,0.0185867844413239,0.00896509990139971,0.5,0.528287654151807,0.33083396866694,5.14651003708874,1.42194100798902,0.5,1.54858290358657,0.969977276674434,0.5,0.482337325732775,0.340574252146045,7.40723079364585,1.4443046780168,0.5,-10.9487033628591
198,1,32,A,0,1,a,63,1,0.95,0A,1A,1,0,1,0,A01,0.687051048570058,2.46385324059017,0.995019213050107,0.5,0.258831337133613,0.5,0.5,0.997421632507563,0.5,0.5,0.5,0.5,0.990378315460076,0.258831337133613,0.5,0.5,0.5,0.979491432704764,0.73283396866694,1,1,0,0A,1A,0.995019213050107,0.5,0.665556137583068,0.334443862416932,1,1,0.00498078694989279,0.00240241945745599,0.5,0.528287654151807,0.33083396866694,5.14651003708874,1.42194100798902,0.5,1.07362108521045,0.97187969406415,0.5,0.482337325732775,0.340574252146045,7.40723079364585,1.4443046780168,0.5,-10.9487033628591
198,1,33,B,0,1,l,63,1,0.95,0B,1B,0,1,0,1,B01,2.41759474775708,2.26176309847379,0.997421632507563,0.5,0.258831337133613,0.5,0.5,0.997421632507563,0.5,0.5,0.5,0.5,0.990378315460076,0.258831337133613,0.5,0.5,0.5,0.979491432704764,0.62083396866694,0,0,1,1B,0B,0.997421632507563,0.5,0.666092709531178,0.333907290468822,1,1,0.00257836749243678,0.00124364288105828,0.5,0.528287654151807,0.33083396866694,5.14651003708874,1.42194100798902,0.5,1.93476671151492,0.972223051616722,0.5,0.482337325732775,0.340574252146045,7.40723079364585,1.4443046780168,0.5,-10.9487033628591
198,1,34,D,2,3,l,63,1,0.95,2D,3D,0,1,0,1,D23,0.232737890009821,2.50552593699074,0.997421632507563,0.5,0.258831337133613,0.5,0.5,0.998665275388621,0.5,0.5,0.5,0.5,0.990378315460076,0.258831337133613,0.5,0.5,0.5,0.979491432704764,0.75483396866694,0,0,1,3D,2D,0.979491432704764,0.5,0.662046032205868,0.337953967794132,1,1,0.0205085672952363,0.00989204750379493,0.5,0.528287654151807,0.33083396866694,5.14651003708874,1.42194100798902,0.5,0.968769192290287,0.969733385610186,0.5,0.482337325732775,0.340574252146045,7.40723079364585,1.4443046780168,0.5,-10.9487033628591
198,1,35,B,1,3,a,27,1,0.95,1B,3B,1,0,1,0,B13,0.745184947142882,2.81341071676004,0.997421632507563,0.5,0.258831337133613,0.5,0.5,0.998665275388621,0.5,0.5,0.5,0.5,0.990378315460076,0.258831337133613,0.5,0.5,0.5,0.989383480208559,0.47483396866694,1,1,0,1B,3B,0.998665275388621,0.5,0.666369797038005,0.333630202961995,1,1,0.00133472461137851,0.000643787499642029,0.5,0.528287654151807,0.33083396866694,5.14651003708874,1.42194100798902,0.5,3.31208634569785,0.972353708608514,0.5,0.482337325732775,0.340574252146045,7.40723079364585,1.4443046780168,0.5,-10.9487033628591
198,1,36,C,2,3,a,63,1,0.95,2C,3C,1,0,1,0,C23,2.70337938132298,2.83321334405622,0.997421632507563,0.5,0.258831337133613,0.5,0.5,0.999309062888263,0.5,0.5,0.5,0.5,0.990378315460076,0.258831337133613,0.5,0.5,0.5,0.989383480208559,0.44283396866694,1,1,0,2C,3C,0.990378315460076,0.258831337133613,0.792803924788597,0.207196075211403,1,1,0.00962168453992418,0.00464089759003141,0.5,0.528287654151807,0.33083396866694,5.14651003708874,1.42194100798902,0.5,6.02850019345144,0.998102382423532,0.5,0.482337325732775,0.340574252146045,7.40723079364585,1.4443046780168,0.5,-10.9487033628591
198,1,37,C,0,2,l,27,1,0.95,0C,2C,0,1,0,1,C02,2.09732720447618,3.95124371858143,0.997421632507563,0.5,0.258831337133613,0.5,0.5,0.999309062888263,0.5,0.5,0.5,0.5,0.995019213050107,0.258831337133613,0.5,0.5,0.5,0.989383480208559,0.40383396866694,0,0,1,2C,0C,0.995019213050107,0.5,0.665556137583068,0.334443862416932,1,1,0.00498078694989279,0.00240241945745599,0.5,0.528287654151807,0.33083396866694,5.14651003708874,1.42194100798902,0.5,1.42755341267269,0.971916325571888,0.5,0.482337325732775,0.340574252146045,7.40723079364585,1.4443046780168,0.5,-10.9487033628591
198,1,38,B,0,1,l,63,1,0.95,0B,1B,0,1,0,1,B01,2.32434338245026,2.17853244432407,0.997421632507563,0.5,0.258831337133613,0.5,0.5,0.999309062888263,0.5,0.5,0.5,0.5,0.997421632507563,0.258831337133613,0.5,0.5,0.5,0.989383480208559,0.69883396866694,0,0,1,1B,0B,0.999309062888263,0.5,0.666513054328637,0.333486945671363,1,1,0.000690937111736512,0.000333264758724516,0.5,0.528287654151807,0.33083396866694,5.14651003708874,1.42194100798902,0.5,1.28381004859656,0.972444395231223,0.5,0.482337325732775,0.340574252146045,7.40723079364585,1.4443046780168,0.5,-10.9487033628591
198,1,39,A,0,3,a,9,1,0.95,0A,3A,1,0,1,0,A03,0.946292050895424,3.98898404656427,0.997421632507563,0.5,0.258831337133613,0.5,0.5,0.999642327646988,0.5,0.5,0.5,0.5,0.997421632507563,0.258831337133613,0.5,0.5,0.5,0.989383480208559,0.58583396866694,0,0,1,3A,0A,0.5,0.997421632507563,0.333907290468822,0.666092709531178,0,0,-0.5,-0.241168662866387,0.5,0.528287654151807,0.33083396866694,5.14651003708874,1.42194100798902,0.5,0.0658851356003335,0.027807200863924,0.5,0.482337325732775,0.340574252146045,7.40723079364585,1.4443046780168,0.5,-10.9487033628591
198,1,40,C,2,3,a,63,0,0.95,2C,3C,1,0,0,1,C23,0.304550132481349,2.62103882411258,0.997421632507563,0.5,0.258831337133613,0.258831337133613,0.5,0.999642327646988,0.5,0.5,0.5,0.5,0.997421632507563,0.258831337133613,0.5,0.5,0.5,0.989383480208559,0.52183396866694,1,1,0,2C,3C,0.997421632507563,0.258831337133613,0.793965591812656,0.206034408187344,1,0,-0.997421632507563,-0.481093682851716,0.5,0.528287654151807,0.33083396866694,5.14651003708874,1.42194100798902,0.5,3.68715214779946,0.998145592141465,0.5,0.482337325732775,0.340574252146045,7.40723079364585,1.4443046780168,0.5,-10.9487033628591
198,1,41,A,0,1,a,63,1,0.95,0A,1A,1,0,1,0,A01,2.57491285523752,2.41591377830105,0.997421632507563,0.5,0.258831337133613,0.258831337133613,0.5,0.999642327646988,0.5,0.5,0.5,0.5,0.516327949655847,0.258831337133613,0.5,0.5,0.5,0.989383480208559,0.56183396866694,1,1,0,0A,1A,0.997421632507563,0.5,0.666092709531178,0.333907290468822,1,1,0.00257836749243678,0.00124364288105828,0.5,0.528287654151807,0.33083396866694,5.14651003708874,1.42194100798902,0.5,2.57713418852786,0.972209271543184,0.5,0.482337325732775,0.340574252146045,7.40723079364585,1.4443046780168,0.5,-10.9487033628591
198,1,42,D,2,3,l,63,1,0.95,2D,3D,0,1,0,1,D23,2.98735898647514,2.43361335540045,0.998665275388621,0.5,0.258831337133613,0.258831337133613,0.5,0.999642327646988,0.5,0.5,0.5,0.5,0.516327949655847,0.258831337133613,0.5,0.5,0.5,0.989383480208559,1.30183396866694,0,0,1,3D,2D,0.989383480208559,0.5,0.664290623171149,0.335709376828851,1,1,0.0106165197914414,0.00512074376479292,0.5,0.528287654151807,0.33083396866694,5.14651003708874,1.42194100798902,0.5,0.0522769603549814,0.971047509860343,0.5,0.482337325732775,0.340574252146045,7.40723079364585,1.4443046780168,0.5,-10.9487033628591
198,1,43,C,3,2,l,63,1,0.95,3C,2C,0,1,0,1,C32,0.809166446968096,2.96183072187831,0.998665275388621,0.5,0.258831337133613,0.258831337133613,0.5,0.999642327646988,0.5,0.5,0.5,0.5,0.516327949655847,0.258831337133613,0.5,0.5,0.5,0.994504223973351,0.63483396866694,0,0,1,2C,3C,0.516327949655847,0.258831337133613,0.666092709531178,0.333907290468822,1,1,0.483672050344153,0.233293083294687,0.5,0.528287654151807,0.33083396866694,5.14651003708874,1.42194100798902,0.5,1.80032501948135,0.972219101408785,0.5,0.482337325732775,0.340574252146045,7.40723079364585,1.4443046780168,0.5,-10.9487033628591
198,1,44,D,3,1,a,27,1,0.95,3D,1D,1,0,1,0,D31,3.36002955214839,3.38439026334577,0.998665275388621,0.5,0.258831337133613,0.258831337133613,0.5,0.999642327646988,0.5,0.5,0.5,0.5,0.749621032950534,0.258831337133613,0.5,0.5,0.5,0.994504223973351,0.45883396866694,1,1,0,3D,1D,0.994504223973351,0.5,0.665440892050021,0.334559107949979,1,1,0.00549577602664852,0.00265081791151994,0.5,0.528287654151807,0.33083396866694,5.14651003708874,1.42194100798902,0.5,3.21470638327389,0.971805995664589,0.5,0.482337325732775,0.340574252146045,7.40723079364585,1.4443046780168,0.5,-10.9487033628591
