ID,filename,session,trial,visStimLeft,visStimRight,correctKey,leftCorrect,rightCorrect,secondStim,mod2Type,mod2Stim,frequency,rewardAccurate,stimPairLeft,stimPairRight,pCorrectLeft,pCorrectRight,key,reactionTime,choiceLeft,choiceRight,choiceAccurate,reward,chosenPair,otherPair,triplet,surprise,0A belief,1A belief,2A belief,3A belief,0B belief,1B belief,2B belief,3B belief,0C belief,1C belief,2C belief,3C belief,0D belief,1D belief,2D belief,3D belief,beliefPairNorm,beliefOtherPairNorm,beliefPair,beliefOtherPair,lik,corrLik,rewardPE,update2,fitCBCsimpleRW_CBCdriftDiffusionLR_pwBelief_startBelief,fitCBCsimpleRW_CBCdriftDiffusionLR_pwBelief_alpha1,fitCBCsimpleRW_CBCdriftDiffusionLR_pwBelief_nonDecisionTime,fitCBCsimpleRW_CBCdriftDiffusionLR_pwBelief_weight,fitCBCsimpleRW_CBCdriftDiffusionLR_pwBelief_startingBoundary,fitCBCsimpleRW_CBCdriftDiffusionLR_pwBelief_startingPoint,fit_CBCsimpleRW_CBCdriftDiffusionLR_pwBelief_NLL
CBC_1031,CBC_1031_MSI_AV_v3_Vset1_Aset1_2023-10-20_10h25.09.885.csv,1,1,0,1,b,1,0,0,aud,A,63,1,0A,1A,1,0,b,2.23747240000193,1,0,1,1,0A,1A,A01,2.77258872223978,0.5,0.5,0.5,0.5,0.5,0.5,0.5,0.5,0.5,0.5,0.5,0.5,0.5,0.5,0.5,0.5,0.5,0.5,0.5,0.5,0.121274208792274,0.499777892975147,0.5,0.0103887179861782,0.5,0.0207774359723564,0.31139089383386,0.99937963466023,2.99920406154664,0.5,97.0339054533771
CBC_1031,CBC_1031_MSI_AV_v3_Vset1_Aset1_2023-10-20_10h25.09.885.csv,1,2,3,2,z,0,1,1,aud,C,63,1,3C,2C,0,1,z,1.32212889999937,0,1,1,1,2C,3C,C32,2.83321334405622,0.510388717986178,0.5,0.5,0.5,0.5,0.5,0.5,0.5,0.5,0.5,0.5,0.5,0.5,0.5,0.5,0.5,0.5,0.5,0.5,0.5,0.193647264709235,0.50045502229678,0.5,0.0103887179861782,0.5,0.0207774359723564,0.31139089383386,0.99937963466023,2.99920406154664,0.5,97.0339054533771
CBC_1031,CBC_1031_MSI_AV_v3_Vset1_Aset1_2023-10-20_10h25.09.885.csv,1,3,0,2,b,1,0,0,aud,A,27,1,0A,2A,1,0,b,1.81188900000052,1,0,1,1,0A,2A,A02,2.89037175789616,0.510388717986178,0.5,0.5,0.5,0.5,0.5,0.5,0.5,0.5,0.5,0.510388717986178,0.5,0.5,0.5,0.5,0.5,0.510388717986178,0.489611282013822,0.510388717986178,0.5,0.157314567041538,0.515037775021738,0.489611282013822,0.0101728670633855,0.5,0.0207774359723564,0.31139089383386,0.99937963466023,2.99920406154664,0.5,97.0339054533771
CBC_1031,CBC_1031_MSI_AV_v3_Vset1_Aset1_2023-10-20_10h25.09.885.csv,1,4,1,0,b,1,0,3,aud,B,63,1,1B,0B,1,0,z,3.1904013000003,0,1,0,0,0B,1B,B10,2.94443897916644,0.520561585049564,0.5,0.5,0.5,0.5,0.5,0.5,0.5,0.5,0.5,0.510388717986178,0.5,0.5,0.5,0.5,0.5,0.5,0.5,0.5,0.5,0.0720354597339366,0.500404734055183,-0.5,-0.0103887179861782,0.5,0.0207774359723564,0.31139089383386,0.99937963466023,2.99920406154664,0.5,97.0339054533771
CBC_1031,CBC_1031_MSI_AV_v3_Vset1_Aset1_2023-10-20_10h25.09.885.csv,1,5,0,1,z,0,1,3,aud,B,63,1,0B,1B,0,1,b,2.06485919999977,1,0,0,0,0B,1B,B01,2.99573227355399,0.520561585049564,0.5,0.5,0.5,0.489611282013822,0.5,0.5,0.5,0.5,0.5,0.510388717986178,0.5,0.5,0.5,0.5,0.5,0.489611282013822,0.510388717986178,0.489611282013822,0.5,0.129245001286863,0.484805234973424,-0.489611282013822,-0.0101728670633855,0.5,0.0207774359723564,0.31139089383386,0.99937963466023,2.99920406154664,0.5,97.0339054533771
CBC_1031,CBC_1031_MSI_AV_v3_Vset1_Aset1_2023-10-20_10h25.09.885.csv,1,6,3,2,z,0,1,1,aud,C,63,1,3C,2C,0,1,z,1.70574160000069,0,1,1,1,2C,3C,C32,2.35137525716348,0.520561585049564,0.5,0.5,0.5,0.479438414950436,0.5,0.5,0.5,0.5,0.5,0.510388717986178,0.5,0.5,0.5,0.5,0.5,0.510388717986178,0.489611282013822,0.510388717986178,0.5,0.166441821384682,0.515350796910383,0.489611282013822,0.0101728670633855,0.5,0.0207774359723564,0.31139089383386,0.99937963466023,2.99920406154664,0.5,97.0339054533771
CBC_1031,CBC_1031_MSI_AV_v3_Vset1_Aset1_2023-10-20_10h25.09.885.csv,1,7,3,1,b,1,0,2,aud,D,27,1,3D,1D,1,0,b,2.17132569999922,1,0,1,1,3D,1D,D31,3.09104245335832,0.520561585049564,0.5,0.5,0.5,0.479438414950436,0.5,0.5,0.5,0.5,0.5,0.520561585049564,0.5,0.5,0.5,0.5,0.5,0.5,0.5,0.5,0.5,0.1260812518321,0.501178877432193,0.5,0.0103887179861782,0.5,0.0207774359723564,0.31139089383386,0.99937963466023,2.99920406154664,0.5,97.0339054533771
CBC_1031,CBC_1031_MSI_AV_v3_Vset1_Aset1_2023-10-20_10h25.09.885.csv,1,8,1,2,z,0,1,1,aud,C,9,1,1C,2C,0,1,b,5.08116520000112,1,0,0,0,1C,2C,C12,3.13549421592915,0.520561585049564,0.5,0.5,0.5,0.479438414950436,0.5,0.5,0.5,0.5,0.5,0.520561585049564,0.5,0.5,0.5,0.5,0.510388717986178,0.479438414950436,0.520561585049564,0.5,0.520561585049564,0.0238854726222855,0.469156554370082,-0.5,-0.0103887179861782,0.5,0.0207774359723564,0.31139089383386,0.99937963466023,2.99920406154664,0.5,97.0339054533771
CBC_1031,CBC_1031_MSI_AV_v3_Vset1_Aset1_2023-10-20_10h25.09.885.csv,1,9,3,1,z,0,1,3,aud,B,27,1,3B,1B,0,1,b,1.30998390000059,1,0,0,0,3B,1B,B31,3.17805383034795,0.520561585049564,0.5,0.5,0.5,0.479438414950436,0.5,0.5,0.5,0.5,0.489611282013822,0.520561585049564,0.5,0.5,0.5,0.5,0.510388717986178,0.5,0.5,0.5,0.5,0.194518880157328,0.500377819525878,-0.5,-0.0103887179861782,0.5,0.0207774359723564,0.31139089383386,0.99937963466023,2.99920406154664,0.5,97.0339054533771
CBC_1031,CBC_1031_MSI_AV_v3_Vset1_Aset1_2023-10-20_10h25.09.885.csv,1,10,3,2,b,1,0,2,aud,D,63,1,3D,2D,NaN,NaN,[],NaN,NaN,NaN,NaN,NaN,,,D32,3.2188758248682,0.520561585049564,0.5,0.5,0.5,0.479438414950436,0.5,0.5,0.489611282013822,0.5,0.489611282013822,0.520561585049564,0.5,0.5,0.5,0.5,0.510388717986178,0,0,0,0,NaN,0,0,0,0.5,0.0207774359723564,0.31139089383386,0.99937963466023,2.99920406154664,0.5,97.0339054533771
CBC_1031,CBC_1031_MSI_AV_v3_Vset1_Aset1_2023-10-20_10h25.09.885.csv,1,11,1,0,b,1,0,3,aud,B,63,1,1B,0B,1,0,z,0.846583200000168,0,1,0,0,0B,1B,B10,2.56494935746154,0.520561585049564,0.5,0.5,0.5,0.479438414950436,0.5,0.5,0.489611282013822,0.5,0.489611282013822,0.520561585049564,0.5,0.5,0.5,0.5,0.510388717986178,0.479438414950436,0.520561585049564,0.479438414950436,0.5,0.175954457400463,0.469975241635995,-0.479438414950436,-0.00996150096932072,0.5,0.0207774359723564,0.31139089383386,0.99937963466023,2.99920406154664,0.5,97.0339054533771
CBC_1031,CBC_1031_MSI_AV_v3_Vset1_Aset1_2023-10-20_10h25.09.885.csv,1,12,0,2,z,0,1,1,aud,C,27,1,0C,2C,0,1,b,1.05026329999964,1,0,0,0,0C,2C,C02,3.29583686600433,0.520561585049564,0.5,0.5,0.5,0.469476913981116,0.5,0.5,0.489611282013822,0.5,0.489611282013822,0.520561585049564,0.5,0.5,0.5,0.5,0.510388717986178,0.479438414950436,0.520561585049564,0.5,0.520561585049564,0.192735354027516,0.467959440956515,-0.5,-0.0103887179861782,0.5,0.0207774359723564,0.31139089383386,0.99937963466023,2.99920406154664,0.5,97.0339054533771
CBC_1031,CBC_1031_MSI_AV_v3_Vset1_Aset1_2023-10-20_10h25.09.885.csv,1,13,3,2,b,1,0,2,aud,D,63,0,3D,2D,0,1,z,5.77476779999961,0,1,0,1,2D,3D,D32,2.63905732961526,0.520561585049564,0.5,0.5,0.5,0.469476913981116,0.5,0.5,0.489611282013822,0.489611282013822,0.489611282013822,0.520561585049564,0.5,0.5,0.5,0.5,0.510388717986178,0.489611282013822,0.510388717986178,0.5,0.510388717986178,0.016917111947049,0.485400361593258,0.5,0.0103887179861782,0.5,0.0207774359723564,0.31139089383386,0.99937963466023,2.99920406154664,0.5,97.0339054533771
CBC_1031,CBC_1031_MSI_AV_v3_Vset1_Aset1_2023-10-20_10h25.09.885.csv,1,14,1,0,z,0,1,0,aud,A,63,1,1A,0A,0,1,b,3.54580329999953,1,0,0,0,1A,0A,A10,3.36729582998647,0.520561585049564,0.5,0.5,0.5,0.469476913981116,0.5,0.5,0.489611282013822,0.489611282013822,0.489611282013822,0.520561585049564,0.5,0.5,0.5,0.510388717986178,0.510388717986178,0.479438414950436,0.520561585049564,0.5,0.520561585049564,0.0557199909060182,0.470745313881057,-0.5,-0.0103887179861782,0.5,0.0207774359723564,0.31139089383386,0.99937963466023,2.99920406154664,0.5,97.0339054533771
CBC_1031,CBC_1031_MSI_AV_v3_Vset1_Aset1_2023-10-20_10h25.09.885.csv,1,15,2,3,b,1,0,1,aud,C,63,1,2C,3C,1,0,z,3.13303540000197,0,1,0,0,3C,2C,C23,3.40119738166216,0.520561585049564,0.489611282013822,0.5,0.5,0.469476913981116,0.5,0.5,0.489611282013822,0.489611282013822,0.489611282013822,0.520561585049564,0.5,0.5,0.5,0.510388717986178,0.510388717986178,0.479438414950436,0.520561585049564,0.5,0.520561585049564,0.0695333965201621,0.468301431200631,-0.5,-0.0103887179861782,0.5,0.0207774359723564,0.31139089383386,0.99937963466023,2.99920406154664,0.5,97.0339054533771
CBC_1031,CBC_1031_MSI_AV_v3_Vset1_Aset1_2023-10-20_10h25.09.885.csv,1,16,0,2,b,1,0,0,aud,A,27,1,0A,2A,1,0,z,1.11289510000097,0,1,0,0,2A,0A,A02,2.7408400239252,0.520561585049564,0.489611282013822,0.5,0.5,0.469476913981116,0.5,0.5,0.489611282013822,0.489611282013822,0.489611282013822,0.520561585049564,0.489611282013822,0.5,0.5,0.510388717986178,0.510388717986178,0.479438414950436,0.520561585049564,0.5,0.520561585049564,0.192231296586596,0.468248802131073,-0.5,-0.0103887179861782,0.5,0.0207774359723564,0.31139089383386,0.99937963466023,2.99920406154664,0.5,97.0339054533771
CBC_1031,CBC_1031_MSI_AV_v3_Vset1_Aset1_2023-10-20_10h25.09.885.csv,1,17,2,3,z,0,1,2,aud,D,63,1,2D,3D,0,1,b,1.17194650000056,1,0,0,0,2D,3D,D23,3.46573590279973,0.520561585049564,0.489611282013822,0.489611282013822,0.5,0.469476913981116,0.5,0.5,0.489611282013822,0.489611282013822,0.489611282013822,0.520561585049564,0.489611282013822,0.5,0.5,0.510388717986178,0.510388717986178,0.5,0.5,0.510388717986178,0.510388717986178,0.203031953897485,0.500384690025699,-0.510388717986178,-0.0106045689089709,0.5,0.0207774359723564,0.31139089383386,0.99937963466023,2.99920406154664,0.5,97.0339054533771
CBC_1031,CBC_1031_MSI_AV_v3_Vset1_Aset1_2023-10-20_10h25.09.885.csv,1,18,3,2,b,1,0,2,aud,D,63,1,3D,2D,1,0,b,1.64930420000019,1,0,1,1,3D,2D,D32,2.39789527279837,0.520561585049564,0.489611282013822,0.489611282013822,0.5,0.469476913981116,0.5,0.5,0.489611282013822,0.489611282013822,0.489611282013822,0.520561585049564,0.489611282013822,0.5,0.5,0.499784149077207,0.510388717986178,0.510604473790473,0.489395526209527,0.510388717986178,0.499784149077207,0.171326402296712,0.515259080527073,0.489611282013822,0.0101728670633855,0.5,0.0207774359723564,0.31139089383386,0.99937963466023,2.99920406154664,0.5,97.0339054533771
CBC_1031,CBC_1031_MSI_AV_v3_Vset1_Aset1_2023-10-20_10h25.09.885.csv,1,19,3,1,z,0,1,3,aud,B,27,1,3B,1B,0,1,z,2.55687640000178,0,1,1,1,1B,3B,B31,2.83321334405622,0.520561585049564,0.489611282013822,0.489611282013822,0.5,0.469476913981116,0.5,0.5,0.489611282013822,0.489611282013822,0.489611282013822,0.520561585049564,0.489611282013822,0.5,0.5,0.499784149077207,0.520561585049564,0.510388717986178,0.489611282013822,0.5,0.489611282013822,0.104909885491708,0.51489047861333,0.5,0.0103887179861782,0.5,0.0207774359723564,0.31139089383386,0.99937963466023,2.99920406154664,0.5,97.0339054533771
CBC_1031,CBC_1031_MSI_AV_v3_Vset1_Aset1_2023-10-20_10h25.09.885.csv,1,20,0,3,z,0,1,2,aud,D,9,1,0D,3D,0,1,z,1.9261361000008,0,1,1,1,3D,0D,D03,3.55534806148941,0.520561585049564,0.489611282013822,0.489611282013822,0.5,0.469476913981116,0.510388717986178,0.5,0.489611282013822,0.489611282013822,0.489611282013822,0.520561585049564,0.489611282013822,0.5,0.5,0.499784149077207,0.520561585049564,0.520561585049564,0.479438414950436,0.520561585049564,0.5,0.152507512436762,0.530526262424014,0.479438414950436,0.00996150096932072,0.5,0.0207774359723564,0.31139089383386,0.99937963466023,2.99920406154664,0.5,97.0339054533771
CBC_1031,CBC_1031_MSI_AV_v3_Vset1_Aset1_2023-10-20_10h25.09.885.csv,1,21,1,0,b,1,0,3,aud,B,63,1,1B,0B,1,0,b,2.43895520000115,1,0,1,1,1B,0B,B10,2.484906649788,0.520561585049564,0.489611282013822,0.489611282013822,0.5,0.469476913981116,0.510388717986178,0.5,0.489611282013822,0.489611282013822,0.489611282013822,0.520561585049564,0.489611282013822,0.5,0.5,0.499784149077207,0.530523086018884,0.54085997790653,0.45914002209347,0.510388717986178,0.469476913981116,0.121945856620379,0.560853867042896,0.489611282013822,0.0101728670633855,0.5,0.0207774359723564,0.31139089383386,0.99937963466023,2.99920406154664,0.5,97.0339054533771
CBC_1031,CBC_1031_MSI_AV_v3_Vset1_Aset1_2023-10-20_10h25.09.885.csv,1,22,1,0,z,0,1,0,aud,A,63,1,1A,0A,0,1,z,1.12174670000059,0,1,1,1,0A,1A,A10,2.91777073208428,0.520561585049564,0.489611282013822,0.489611282013822,0.5,0.469476913981116,0.520561585049564,0.5,0.489611282013822,0.489611282013822,0.489611282013822,0.520561585049564,0.489611282013822,0.5,0.5,0.499784149077207,0.530523086018884,0.530923880619686,0.469076119380314,0.520561585049564,0.489611282013822,0.224216195942834,0.546016434886691,0.479438414950436,0.00996150096932072,0.5,0.0207774359723564,0.31139089383386,0.99937963466023,2.99920406154664,0.5,97.0339054533771
CBC_1031,CBC_1031_MSI_AV_v3_Vset1_Aset1_2023-10-20_10h25.09.885.csv,1,23,2,3,b,1,0,1,aud,C,63,1,2C,3C,1,0,b,2.36111449999953,1,0,1,1,2C,3C,C23,2.94443897916644,0.530523086018884,0.489611282013822,0.489611282013822,0.5,0.469476913981116,0.520561585049564,0.5,0.489611282013822,0.489611282013822,0.489611282013822,0.520561585049564,0.489611282013822,0.5,0.5,0.499784149077207,0.530523086018884,0.530923880619686,0.469076119380314,0.520561585049564,0.489611282013822,0.123836625605538,0.545808094032038,0.479438414950436,0.00996150096932072,0.5,0.0207774359723564,0.31139089383386,0.99937963466023,2.99920406154664,0.5,97.0339054533771
CBC_1031,CBC_1031_MSI_AV_v3_Vset1_Aset1_2023-10-20_10h25.09.885.csv,1,24,0,2,b,1,0,0,aud,A,27,1,0A,2A,1,0,z,5.16000040000108,0,1,0,0,2A,0A,A02,2.56494935746154,0.530523086018884,0.489611282013822,0.489611282013822,0.5,0.469476913981116,0.520561585049564,0.5,0.489611282013822,0.489611282013822,0.489611282013822,0.530523086018884,0.489611282013822,0.5,0.5,0.499784149077207,0.530523086018884,0.45914002209347,0.54085997790653,0.489611282013822,0.530523086018884,0.0212787197038373,0.439269915080478,-0.489611282013822,-0.0101728670633855,0.5,0.0207774359723564,0.31139089383386,0.99937963466023,2.99920406154664,0.5,97.0339054533771
CBC_1031,CBC_1031_MSI_AV_v3_Vset1_Aset1_2023-10-20_10h25.09.885.csv,1,25,1,0,b,1,0,3,aud,B,63,1,1B,0B,1,0,b,2.44494910000139,1,0,1,1,1B,0B,B10,2.30258509299405,0.530523086018884,0.489611282013822,0.479438414950436,0.5,0.469476913981116,0.520561585049564,0.5,0.489611282013822,0.489611282013822,0.489611282013822,0.530523086018884,0.489611282013822,0.5,0.5,0.499784149077207,0.530523086018884,0.550956748629266,0.449043251370734,0.520561585049564,0.469476913981116,0.124780825960672,0.575682783927054,0.479438414950436,0.00996150096932072,0.5,0.0207774359723564,0.31139089383386,0.99937963466023,2.99920406154664,0.5,97.0339054533771
CBC_1031,CBC_1031_MSI_AV_v3_Vset1_Aset1_2023-10-20_10h25.09.885.csv,1,26,2,3,z,0,1,2,aud,D,63,1,2D,3D,0,1,z,4.05066750000151,0,1,1,1,3D,2D,D23,3.02042488614436,0.530523086018884,0.489611282013822,0.479438414950436,0.5,0.469476913981116,0.530523086018884,0.5,0.489611282013822,0.489611282013822,0.489611282013822,0.530523086018884,0.489611282013822,0.5,0.5,0.499784149077207,0.530523086018884,0.530738126876915,0.469261873123085,0.530523086018884,0.499784149077207,0.0488397321120429,0.545383029205894,0.469476913981116,0.00975452652074209,0.5,0.0207774359723564,0.31139089383386,0.99937963466023,2.99920406154664,0.5,97.0339054533771
CBC_1031,CBC_1031_MSI_AV_v3_Vset1_Aset1_2023-10-20_10h25.09.885.csv,1,27,1,2,b,1,0,3,aud,B,9,1,1B,2B,1,0,b,2.67873720000171,1,0,1,1,1B,2B,B12,3.73766961828337,0.530523086018884,0.489611282013822,0.479438414950436,0.5,0.469476913981116,0.530523086018884,0.5,0.489611282013822,0.489611282013822,0.489611282013822,0.530523086018884,0.489611282013822,0.5,0.5,0.499784149077207,0.540277612539626,0.530523086018884,0.469476913981116,0.530523086018884,0.5,0.103972162043682,0.545657228409387,0.469476913981116,0.00975452652074209,0.5,0.0207774359723564,0.31139089383386,0.99937963466023,2.99920406154664,0.5,97.0339054533771
CBC_1031,CBC_1031_MSI_AV_v3_Vset1_Aset1_2023-10-20_10h25.09.885.csv,1,28,1,3,z,0,1,2,aud,D,27,1,1D,3D,NaN,NaN,[],NaN,NaN,NaN,NaN,NaN,,,D13,3.76120011569356,0.530523086018884,0.489611282013822,0.479438414950436,0.5,0.469476913981116,0.540277612539626,0.5,0.489611282013822,0.489611282013822,0.489611282013822,0.530523086018884,0.489611282013822,0.5,0.5,0.499784149077207,0.540277612539626,0,0,0,0,NaN,0,0,0,0.5,0.0207774359723564,0.31139089383386,0.99937963466023,2.99920406154664,0.5,97.0339054533771
CBC_1031,CBC_1031_MSI_AV_v3_Vset1_Aset1_2023-10-20_10h25.09.885.csv,1,29,1,0,z,0,1,0,aud,A,63,1,1A,0A,0,1,b,1.44215570000233,1,0,0,0,1A,0A,A10,2.68557734525015,0.530523086018884,0.489611282013822,0.479438414950436,0.5,0.469476913981116,0.540277612539626,0.5,0.489611282013822,0.489611282013822,0.489611282013822,0.530523086018884,0.489611282013822,0.5,0.5,0.499784149077207,0.540277612539626,0.45914002209347,0.54085997790653,0.489611282013822,0.530523086018884,0.162332200740157,0.439829735155465,-0.489611282013822,-0.0101728670633855,0.5,0.0207774359723564,0.31139089383386,0.99937963466023,2.99920406154664,0.5,97.0339054533771
CBC_1031,CBC_1031_MSI_AV_v3_Vset1_Aset1_2023-10-20_10h25.09.885.csv,1,30,0,1,b,1,0,0,aud,A,63,1,0A,1A,1,0,z,2.21747910000158,0,1,0,0,1A,0A,A01,3.11351530921037,0.530523086018884,0.479438414950436,0.479438414950436,0.5,0.469476913981116,0.540277612539626,0.5,0.489611282013822,0.489611282013822,0.489611282013822,0.530523086018884,0.489611282013822,0.5,0.5,0.499784149077207,0.540277612539626,0.449043251370734,0.550956748629266,0.479438414950436,0.530523086018884,0.104272269094483,0.42431544964656,-0.479438414950436,-0.00996150096932072,0.5,0.0207774359723564,0.31139089383386,0.99937963466023,2.99920406154664,0.5,97.0339054533771
CBC_1031,CBC_1031_MSI_AV_v3_Vset1_Aset1_2023-10-20_10h25.09.885.csv,1,31,0,2,z,0,1,1,aud,C,27,1,0C,2C,0,1,z,1.49603350000143,0,1,1,1,2C,0C,C02,3.13549421592915,0.530523086018884,0.469476913981116,0.479438414950436,0.5,0.469476913981116,0.540277612539626,0.5,0.489611282013822,0.489611282013822,0.489611282013822,0.530523086018884,0.489611282013822,0.5,0.5,0.499784149077207,0.540277612539626,0.54085997790653,0.45914002209347,0.530523086018884,0.489611282013822,0.201957346199729,0.561112198560968,0.469476913981116,0.00975452652074209,0.5,0.0207774359723564,0.31139089383386,0.99937963466023,2.99920406154664,0.5,97.0339054533771
CBC_1031,CBC_1031_MSI_AV_v3_Vset1_Aset1_2023-10-20_10h25.09.885.csv,1,32,1,0,z,0,1,0,aud,A,63,1,1A,0A,0,1,z,2.51593220000177,0,1,1,1,0A,1A,A10,2.46385324059017,0.530523086018884,0.469476913981116,0.479438414950436,0.5,0.469476913981116,0.540277612539626,0.5,0.489611282013822,0.489611282013822,0.489611282013822,0.540277612539626,0.489611282013822,0.5,0.5,0.499784149077207,0.540277612539626,0.560819519878978,0.439180480121022,0.530523086018884,0.469476913981116,0.123024166036352,0.590262038536088,0.469476913981116,0.00975452652074209,0.5,0.0207774359723564,0.31139089383386,0.99937963466023,2.99920406154664,0.5,97.0339054533771
CBC_1031,CBC_1031_MSI_AV_v3_Vset1_Aset1_2023-10-20_10h25.09.885.csv,1,33,1,0,b,1,0,3,aud,B,63,1,1B,0B,1,0,b,3.24788110000009,1,0,1,1,1B,0B,B10,2.26176309847379,0.540277612539626,0.469476913981116,0.479438414950436,0.5,0.469476913981116,0.540277612539626,0.5,0.489611282013822,0.489611282013822,0.489611282013822,0.540277612539626,0.489611282013822,0.5,0.5,0.499784149077207,0.540277612539626,0.570454233655468,0.429545766344532,0.540277612539626,0.469476913981116,0.0837476462872455,0.60466089332274,0.459722387460374,0.00955185247051672,0.5,0.0207774359723564,0.31139089383386,0.99937963466023,2.99920406154664,0.5,97.0339054533771
CBC_1031,CBC_1031_MSI_AV_v3_Vset1_Aset1_2023-10-20_10h25.09.885.csv,1,34,3,2,b,1,0,2,aud,D,63,1,3D,2D,1,0,z,4.04010180000114,0,1,0,0,2D,3D,D32,2.50552593699074,0.540277612539626,0.469476913981116,0.479438414950436,0.5,0.469476913981116,0.549829465010143,0.5,0.489611282013822,0.489611282013822,0.489611282013822,0.540277612539626,0.489611282013822,0.5,0.5,0.499784149077207,0.540277612539626,0.459507944682791,0.540492055317209,0.499784149077207,0.540277612539626,0.0395637494430668,0.440138508212933,-0.499784149077207,-0.0103842331574503,0.5,0.0207774359723564,0.31139089383386,0.99937963466023,2.99920406154664,0.5,97.0339054533771
CBC_1031,CBC_1031_MSI_AV_v3_Vset1_Aset1_2023-10-20_10h25.09.885.csv,1,35,3,1,z,0,1,3,aud,B,27,1,3B,1B,0,1,b,3.97338400000081,1,0,0,0,3B,1B,B31,2.81341071676004,0.540277612539626,0.469476913981116,0.479438414950436,0.5,0.469476913981116,0.549829465010143,0.5,0.489611282013822,0.489611282013822,0.489611282013822,0.540277612539626,0.489611282013822,0.5,0.5,0.489399915919757,0.540277612539626,0.439906250548894,0.560093749451106,0.489611282013822,0.549829465010143,0.0379513274435204,0.409418063549355,-0.489611282013822,-0.0101728670633855,0.5,0.0207774359723564,0.31139089383386,0.99937963466023,2.99920406154664,0.5,97.0339054533771
CBC_1031,CBC_1031_MSI_AV_v3_Vset1_Aset1_2023-10-20_10h25.09.885.csv,1,36,3,2,z,0,1,1,aud,C,63,1,3C,2C,0,1,b,1.32757250000031,1,0,0,0,3C,2C,C32,2.83321334405622,0.540277612539626,0.469476913981116,0.479438414950436,0.5,0.469476913981116,0.549829465010143,0.5,0.479438414950436,0.489611282013822,0.489611282013822,0.540277612539626,0.489611282013822,0.5,0.5,0.489399915919757,0.540277612539626,0.449418329585584,0.550581670414416,0.489611282013822,0.540277612539626,0.164735972818911,0.423918809233524,-0.489611282013822,-0.0101728670633855,0.5,0.0207774359723564,0.31139089383386,0.99937963466023,2.99920406154664,0.5,97.0339054533771
CBC_1031,CBC_1031_MSI_AV_v3_Vset1_Aset1_2023-10-20_10h25.09.885.csv,1,37,2,0,b,1,0,1,aud,C,27,1,2C,0C,1,0,z,1.91633929999989,0,1,0,0,0C,2C,C20,3.95124371858143,0.540277612539626,0.469476913981116,0.479438414950436,0.5,0.469476913981116,0.549829465010143,0.5,0.479438414950436,0.489611282013822,0.489611282013822,0.540277612539626,0.479438414950436,0.5,0.5,0.489399915919757,0.540277612539626,0.449418329585584,0.550581670414416,0.489611282013822,0.540277612539626,0.123294264047022,0.425518599432531,-0.489611282013822,-0.0101728670633855,0.5,0.0207774359723564,0.31139089383386,0.99937963466023,2.99920406154664,0.5,97.0339054533771
CBC_1031,CBC_1031_MSI_AV_v3_Vset1_Aset1_2023-10-20_10h25.09.885.csv,1,38,1,0,b,1,0,3,aud,B,63,1,1B,0B,1,0,b,0.592424000000392,1,0,1,1,1B,0B,B10,2.17853244432407,0.540277612539626,0.469476913981116,0.479438414950436,0.5,0.469476913981116,0.549829465010143,0.5,0.479438414950436,0.479438414950436,0.489611282013822,0.540277612539626,0.479438414950436,0.5,0.5,0.489399915919757,0.540277612539626,0.579866658556225,0.420133341443775,0.549829465010143,0.469476913981116,0.0933660290622129,0.619280292493072,0.450170534989857,0.00935338946739317,0.5,0.0207774359723564,0.31139089383386,0.99937963466023,2.99920406154664,0.5,97.0339054533771
CBC_1031,CBC_1031_MSI_AV_v3_Vset1_Aset1_2023-10-20_10h25.09.885.csv,1,39,3,0,z,0,1,0,aud,A,9,1,3A,0A,0,1,z,6.17670710000129,0,1,1,1,0A,3A,A30,3.98898404656427,0.540277612539626,0.469476913981116,0.479438414950436,0.5,0.469476913981116,0.559182854477536,0.5,0.479438414950436,0.479438414950436,0.489611282013822,0.540277612539626,0.479438414950436,0.5,0.5,0.489399915919757,0.540277612539626,0.540277612539626,0.459722387460374,0.540277612539626,0.5,0.0154983627411946,0.560756910787741,0.459722387460374,0.00955185247051672,0.5,0.0207774359723564,0.31139089383386,0.99937963466023,2.99920406154664,0.5,97.0339054533771
CBC_1031,CBC_1031_MSI_AV_v3_Vset1_Aset1_2023-10-20_10h25.09.885.csv,1,40,3,2,z,0,1,1,aud,C,63,0,3C,2C,1,0,b,4.26755720000074,1,0,0,1,3C,2C,C32,2.62103882411258,0.549829465010143,0.469476913981116,0.479438414950436,0.5,0.469476913981116,0.559182854477536,0.5,0.479438414950436,0.479438414950436,0.489611282013822,0.540277612539626,0.479438414950436,0.5,0.5,0.489399915919757,0.540277612539626,0.439361678144226,0.560638321855774,0.479438414950436,0.540277612539626,0.0323529970141507,0.410877722153075,0.520561585049564,0.0108159350030357,0.5,0.0207774359723564,0.31139089383386,0.99937963466023,2.99920406154664,0.5,97.0339054533771
CBC_1031,CBC_1031_MSI_AV_v3_Vset1_Aset1_2023-10-20_10h25.09.885.csv,1,41,1,0,z,0,1,0,aud,A,63,1,1A,0A,0,1,z,0.614748300000429,0,1,1,1,0A,1A,A10,2.41591377830105,0.549829465010143,0.469476913981116,0.479438414950436,0.5,0.469476913981116,0.559182854477536,0.5,0.479438414950436,0.479438414950436,0.489611282013822,0.540277612539626,0.490254349953472,0.5,0.5,0.489399915919757,0.540277612539626,0.579866658556225,0.420133341443775,0.549829465010143,0.469476913981116,0.111443258984598,0.618064122403005,0.450170534989857,0.00935338946739317,0.5,0.0207774359723564,0.31139089383386,0.99937963466023,2.99920406154664,0.5,97.0339054533771
CBC_1031,CBC_1031_MSI_AV_v3_Vset1_Aset1_2023-10-20_10h25.09.885.csv,1,42,3,2,b,1,0,2,aud,D,63,1,3D,2D,1,0,b,1.67754310000055,1,0,1,1,3D,2D,D32,2.43361335540045,0.559182854477536,0.469476913981116,0.479438414950436,0.5,0.469476913981116,0.559182854477536,0.5,0.479438414950436,0.479438414950436,0.489611282013822,0.540277612539626,0.490254349953472,0.5,0.5,0.489399915919757,0.540277612539626,0.550790956620662,0.449209043379338,0.540277612539626,0.489399915919757,0.189545684323548,0.575865109124516,0.459722387460374,0.00955185247051672,0.5,0.0207774359723564,0.31139089383386,0.99937963466023,2.99920406154664,0.5,97.0339054533771
CBC_1031,CBC_1031_MSI_AV_v3_Vset1_Aset1_2023-10-20_10h25.09.885.csv,1,43,2,3,b,1,0,1,aud,C,63,1,2C,3C,1,0,z,2.16309740000179,0,1,0,0,3C,2C,C23,2.96183072187831,0.559182854477536,0.469476913981116,0.479438414950436,0.5,0.469476913981116,0.559182854477536,0.5,0.479438414950436,0.479438414950436,0.489611282013822,0.540277612539626,0.490254349953472,0.5,0.5,0.489399915919757,0.549829465010143,0.450055157113528,0.549944842886472,0.490254349953472,0.540277612539626,0.107648371855269,0.425157235844994,-0.490254349953472,-0.0101862283663275,0.5,0.0207774359723564,0.31139089383386,0.99937963466023,2.99920406154664,0.5,97.0339054533771
CBC_1031,CBC_1031_MSI_AV_v3_Vset1_Aset1_2023-10-20_10h25.09.885.csv,1,44,1,3,z,0,1,2,aud,D,27,1,1D,3D,0,1,z,1.85988330000146,0,1,1,1,3D,1D,D13,3.38439026334577,0.559182854477536,0.469476913981116,0.479438414950436,0.5,0.469476913981116,0.559182854477536,0.5,0.479438414950436,0.479438414950436,0.489611282013822,0.540277612539626,0.480068121587145,0.5,0.5,0.489399915919757,0.549829465010143,0.549829465010143,0.450170534989857,0.549829465010143,0.5,0.171813178915072,0.575113290576477,0.450170534989857,0.00935338946739317,0.5,0.0207774359723564,0.31139089383386,0.99937963466023,2.99920406154664,0.5,97.0339054533771
CBC_1031,CBC_1031_MSI_TV_v3_Vset3_Tset1_2023-10-20_12h11.47.981.csv,2,1,0,1,z,0,1,3,tac,B,63,1,0B,1B,0,1,z,2.34579049999957,0,1,1,1,1B,0B,B01,2.77258872223978,0.5,0.5,0.5,0.5,0.5,0.5,0.5,0.5,0.5,0.5,0.5,0.5,0.5,0.5,0.5,0.5,0.5,0.5,0.5,0.5,0.156997508788713,0.500689236625916,0.5,0.00273197954047449,0.5,0.00546395908094899,0.875282400421867,0.0126973600802326,2.92055839061781,0.5,130.211974430652
CBC_1031,CBC_1031_MSI_TV_v3_Vset3_Tset1_2023-10-20_12h11.47.981.csv,2,2,2,3,z,0,1,2,tac,D,63,1,2D,3D,0,1,b,2.47541169999931,1,0,0,0,2D,3D,D23,2.83321334405622,0.5,0.5,0.5,0.5,0.5,0.502731979540475,0.5,0.5,0.5,0.5,0.5,0.5,0.5,0.5,0.5,0.5,0.5,0.5,0.5,0.5,0.145788790661501,0.500398342534021,-0.5,-0.00273197954047449,0.5,0.00546395908094899,0.875282400421867,0.0126973600802326,2.92055839061781,0.5,130.211974430652
CBC_1031,CBC_1031_MSI_TV_v3_Vset3_Tset1_2023-10-20_12h11.47.981.csv,2,3,1,3,b,1,0,3,tac,B,27,1,1B,3B,1,0,z,1.07859070000086,0,1,0,0,3B,1B,B13,2.89037175789616,0.5,0.5,0.5,0.5,0.5,0.502731979540475,0.5,0.5,0.5,0.5,0.5,0.5,0.5,0.5,0.497268020459526,0.5,0.497268020459525,0.502731979540475,0.5,0.502731979540475,0.0334688030070492,0.498955938614212,-0.5,-0.00273197954047449,0.5,0.00546395908094899,0.875282400421867,0.0126973600802326,2.92055839061781,0.5,130.211974430652
CBC_1031,CBC_1031_MSI_TV_v3_Vset3_Tset1_2023-10-20_12h11.47.981.csv,2,4,3,2,z,0,1,1,tac,C,63,1,3C,2C,0,1,z,3.88432180000018,0,1,1,1,2C,3C,C32,2.94443897916644,0.5,0.5,0.5,0.5,0.5,0.502731979540475,0.5,0.497268020459526,0.5,0.5,0.5,0.5,0.5,0.5,0.497268020459526,0.5,0.5,0.5,0.5,0.5,0.0645169124898441,0.499431731733808,0.5,0.00273197954047449,0.5,0.00546395908094899,0.875282400421867,0.0126973600802326,2.92055839061781,0.5,130.211974430652
CBC_1031,CBC_1031_MSI_TV_v3_Vset3_Tset1_2023-10-20_12h11.47.981.csv,2,5,2,0,b,1,0,1,tac,C,27,1,2C,0C,1,0,z,2.45832010000049,0,1,0,0,0C,2C,C20,2.99573227355399,0.5,0.5,0.5,0.5,0.5,0.502731979540475,0.5,0.497268020459526,0.5,0.5,0.502731979540475,0.5,0.5,0.5,0.497268020459526,0.5,0.497268020459525,0.502731979540475,0.5,0.502731979540475,0.14688088998372,0.499261184395169,-0.5,-0.00273197954047449,0.5,0.00546395908094899,0.875282400421867,0.0126973600802326,2.92055839061781,0.5,130.211974430652
CBC_1031,CBC_1031_MSI_TV_v3_Vset3_Tset1_2023-10-20_12h11.47.981.csv,2,6,3,0,z,0,1,0,tac,A,9,1,3A,0A,0,1,b,1.43770810000024,1,0,0,0,3A,0A,A30,3.04452243772342,0.5,0.5,0.5,0.5,0.5,0.502731979540475,0.5,0.497268020459526,0.497268020459526,0.5,0.502731979540475,0.5,0.5,0.5,0.497268020459526,0.5,0.5,0.5,0.5,0.5,0.207708284587599,0.500588758757559,-0.5,-0.00273197954047449,0.5,0.00546395908094899,0.875282400421867,0.0126973600802326,2.92055839061781,0.5,130.211974430652
CBC_1031,CBC_1031_MSI_TV_v3_Vset3_Tset1_2023-10-20_12h11.47.981.csv,2,7,3,2,z,0,1,1,tac,C,63,1,3C,2C,0,1,z,3.49742979999974,0,1,1,1,2C,3C,C32,2.39789527279837,0.5,0.5,0.5,0.497268020459526,0.5,0.502731979540475,0.5,0.497268020459526,0.497268020459526,0.5,0.502731979540475,0.5,0.5,0.5,0.497268020459526,0.5,0.502731979540475,0.497268020459525,0.502731979540475,0.5,0.0808583762756986,0.500406645027076,0.497268020459525,0.00271705211605535,0.5,0.00546395908094899,0.875282400421867,0.0126973600802326,2.92055839061781,0.5,130.211974430652
CBC_1031,CBC_1031_MSI_TV_v3_Vset3_Tset1_2023-10-20_12h11.47.981.csv,2,8,0,1,b,1,0,0,tac,A,63,1,0A,1A,1,0,z,3.21850429999904,0,1,0,0,1A,0A,A01,3.13549421592915,0.5,0.5,0.5,0.497268020459526,0.5,0.502731979540475,0.5,0.497268020459526,0.497268020459526,0.5,0.50544903165653,0.5,0.5,0.5,0.497268020459526,0.5,0.5,0.5,0.5,0.5,0.0951699149249162,0.50122600945337,-0.5,-0.00273197954047449,0.5,0.00546395908094899,0.875282400421867,0.0126973600802326,2.92055839061781,0.5,130.211974430652
CBC_1031,CBC_1031_MSI_TV_v3_Vset3_Tset1_2023-10-20_12h11.47.981.csv,2,9,3,2,b,1,0,2,tac,D,63,1,3D,2D,1,0,z,2.77153720000024,0,1,0,0,2D,3D,D32,3.17805383034795,0.5,0.497268020459526,0.5,0.497268020459526,0.5,0.502731979540475,0.5,0.497268020459526,0.497268020459526,0.5,0.50544903165653,0.5,0.5,0.5,0.497268020459526,0.5,0.497268020459525,0.502731979540475,0.497268020459526,0.5,0.122859265418954,0.499818946693303,-0.497268020459526,-0.00271705211605535,0.5,0.00546395908094899,0.875282400421867,0.0126973600802326,2.92055839061781,0.5,130.211974430652
CBC_1031,CBC_1031_MSI_TV_v3_Vset3_Tset1_2023-10-20_12h11.47.981.csv,2,10,2,3,b,1,0,1,tac,C,63,1,2C,3C,1,0,b,2.78660270000182,1,0,1,1,2C,3C,C23,3.2188758248682,0.5,0.497268020459526,0.5,0.497268020459526,0.5,0.502731979540475,0.5,0.497268020459526,0.497268020459526,0.5,0.50544903165653,0.5,0.5,0.5,0.49455096834347,0.5,0.50544903165653,0.49455096834347,0.50544903165653,0.5,0.121716321454374,0.499488392046489,0.49455096834347,0.00270220625447242,0.5,0.00546395908094899,0.875282400421867,0.0126973600802326,2.92055839061781,0.5,130.211974430652
CBC_1031,CBC_1031_MSI_TV_v3_Vset3_Tset1_2023-10-20_12h11.47.981.csv,2,11,1,3,z,0,1,2,tac,D,27,1,1D,3D,0,1,z,2.57680160000018,0,1,1,1,3D,1D,D13,3.25809653802148,0.5,0.497268020459526,0.5,0.497268020459526,0.5,0.502731979540475,0.5,0.497268020459526,0.497268020459526,0.5,0.508151237911002,0.5,0.5,0.5,0.49455096834347,0.5,0.5,0.5,0.5,0.5,0.137547610275689,0.500291380970603,0.5,0.00273197954047449,0.5,0.00546395908094899,0.875282400421867,0.0126973600802326,2.92055839061781,0.5,130.211974430652
CBC_1031,CBC_1031_MSI_TV_v3_Vset3_Tset1_2023-10-20_12h11.47.981.csv,2,12,1,0,z,0,1,0,tac,A,63,0,1A,0A,1,0,z,3.1894601999993,0,1,1,0,0A,1A,A10,3.29583686600433,0.5,0.497268020459526,0.5,0.497268020459526,0.5,0.502731979540475,0.5,0.497268020459526,0.497268020459526,0.5,0.508151237911002,0.5,0.5,0.5,0.49455096834347,0.502731979540475,0.502731979540475,0.497268020459526,0.5,0.497268020459526,0.0966917266825917,0.500759503393692,-0.5,-0.00273197954047449,0.5,0.00546395908094899,0.875282400421867,0.0126973600802326,2.92055839061781,0.5,130.211974430652
CBC_1031,CBC_1031_MSI_TV_v3_Vset3_Tset1_2023-10-20_12h11.47.981.csv,2,13,2,3,b,1,0,1,tac,C,63,1,2C,3C,1,0,z,3.41390169999977,0,1,0,0,3C,2C,C23,2.63905732961526,0.497268020459526,0.497268020459526,0.5,0.497268020459526,0.5,0.502731979540475,0.5,0.497268020459526,0.497268020459526,0.5,0.508151237911002,0.5,0.5,0.5,0.49455096834347,0.502731979540475,0.491848762088998,0.508151237911002,0.5,0.508151237911002,0.0848059829319125,0.50008127278119,-0.5,-0.00273197954047449,0.5,0.00546395908094899,0.875282400421867,0.0126973600802326,2.92055839061781,0.5,130.211974430652
CBC_1031,CBC_1031_MSI_TV_v3_Vset3_Tset1_2023-10-20_12h11.47.981.csv,2,14,0,2,b,1,0,0,tac,A,27,1,0A,2A,1,0,b,3.30358680000063,1,0,1,1,0A,2A,A02,3.36729582998647,0.497268020459526,0.497268020459526,0.5,0.497268020459526,0.5,0.502731979540475,0.5,0.497268020459526,0.497268020459526,0.5,0.508151237911002,0.497268020459526,0.5,0.5,0.49455096834347,0.502731979540475,0.497268020459526,0.502731979540475,0.497268020459526,0.5,0.0902978049075199,0.499551782857322,0.502731979540475,0.00274690696489364,0.5,0.00546395908094899,0.875282400421867,0.0126973600802326,2.92055839061781,0.5,130.211974430652
CBC_1031,CBC_1031_MSI_TV_v3_Vset3_Tset1_2023-10-20_12h11.47.981.csv,2,15,0,1,z,0,1,3,tac,B,63,1,0B,1B,0,1,b,3.12576199999967,1,0,0,0,0B,1B,B01,2.70805020110221,0.500014927424419,0.497268020459526,0.5,0.497268020459526,0.5,0.502731979540475,0.5,0.497268020459526,0.497268020459526,0.5,0.508151237911002,0.497268020459526,0.5,0.5,0.49455096834347,0.502731979540475,0.497268020459525,0.502731979540475,0.5,0.502731979540475,0.100125833814182,0.499794166802701,-0.5,-0.00273197954047449,0.5,0.00546395908094899,0.875282400421867,0.0126973600802326,2.92055839061781,0.5,130.211974430652
CBC_1031,CBC_1031_MSI_TV_v3_Vset3_Tset1_2023-10-20_12h11.47.981.csv,2,16,3,2,b,1,0,2,tac,D,63,1,3D,2D,1,0,b,3.33755430000019,1,0,1,1,3D,2D,D32,2.7408400239252,0.500014927424419,0.497268020459526,0.5,0.497268020459526,0.497268020459526,0.502731979540475,0.5,0.497268020459526,0.497268020459526,0.5,0.508151237911002,0.497268020459526,0.5,0.5,0.49455096834347,0.502731979540475,0.508180524074839,0.491819475925161,0.502731979540475,0.49455096834347,0.0887053655449453,0.500478444194029,0.497268020459525,0.00271705211605535,0.5,0.00546395908094899,0.875282400421867,0.0126973600802326,2.92055839061781,0.5,130.211974430652
CBC_1031,CBC_1031_MSI_TV_v3_Vset3_Tset1_2023-10-20_12h11.47.981.csv,2,17,1,2,b,1,0,3,tac,B,9,1,1B,2B,NaN,NaN,None,NaN,NaN,NaN,NaN,NaN,,,B12,3.46573590279973,0.500014927424419,0.497268020459526,0.5,0.497268020459526,0.497268020459526,0.502731979540475,0.5,0.497268020459526,0.497268020459526,0.5,0.508151237911002,0.497268020459526,0.5,0.5,0.49455096834347,0.50544903165653,0,0,0,0,NaN,0,0,0,0.5,0.00546395908094899,0.875282400421867,0.0126973600802326,2.92055839061781,0.5,130.211974430652
CBC_1031,CBC_1031_MSI_TV_v3_Vset3_Tset1_2023-10-20_12h11.47.981.csv,2,18,1,3,z,0,1,2,tac,D,27,1,1D,3D,0,1,z,3.45043810000061,0,1,1,1,3D,1D,D13,2.80336038090653,0.500014927424419,0.497268020459526,0.5,0.497268020459526,0.497268020459526,0.502731979540475,0.5,0.497268020459526,0.497268020459526,0.5,0.508151237911002,0.497268020459526,0.5,0.5,0.49455096834347,0.50544903165653,0.50544903165653,0.49455096834347,0.50544903165653,0.5,0.083255519585433,0.501425034447867,0.49455096834347,0.00270220625447242,0.5,0.00546395908094899,0.875282400421867,0.0126973600802326,2.92055839061781,0.5,130.211974430652
CBC_1031,CBC_1031_MSI_TV_v3_Vset3_Tset1_2023-10-20_12h11.47.981.csv,2,19,0,1,b,1,0,0,tac,A,63,1,0A,1A,NaN,NaN,None,NaN,NaN,NaN,NaN,NaN,,,A01,2.83321334405622,0.500014927424419,0.497268020459526,0.5,0.497268020459526,0.497268020459526,0.502731979540475,0.5,0.497268020459526,0.497268020459526,0.5,0.508151237911002,0.497268020459526,0.5,0.5,0.49455096834347,0.508151237911002,0,0,0,0,NaN,0,0,0,0.5,0.00546395908094899,0.875282400421867,0.0126973600802326,2.92055839061781,0.5,130.211974430652
CBC_1031,CBC_1031_MSI_TV_v3_Vset3_Tset1_2023-10-20_12h11.47.981.csv,2,20,1,0,z,0,1,0,tac,A,63,1,1A,0A,0,1,b,2.40135250000094,1,0,0,0,1A,0A,A10,2.86220088092947,0.500014927424419,0.497268020459526,0.5,0.497268020459526,0.497268020459526,0.502731979540475,0.5,0.497268020459526,0.497268020459526,0.5,0.508151237911002,0.497268020459526,0.5,0.5,0.49455096834347,0.508151237911002,0.497253093483197,0.502746906516803,0.497268020459526,0.500014927424419,0.152020574161441,0.500276860753101,-0.497268020459526,-0.00271705211605535,0.5,0.00546395908094899,0.875282400421867,0.0126973600802326,2.92055839061781,0.5,130.211974430652
CBC_1031,CBC_1031_MSI_TV_v3_Vset3_Tset1_2023-10-20_12h11.47.981.csv,2,21,2,0,b,1,0,1,tac,C,27,1,2C,0C,1,0,z,2.56654900000103,0,1,0,0,0C,2C,C20,2.89037175789616,0.500014927424419,0.49455096834347,0.5,0.497268020459526,0.497268020459526,0.502731979540475,0.5,0.497268020459526,0.497268020459526,0.5,0.508151237911002,0.497268020459526,0.5,0.5,0.49455096834347,0.508151237911002,0.489117751896317,0.510882248103683,0.497268020459526,0.508151237911002,0.138622757160679,0.501247555323788,-0.497268020459526,-0.00271705211605535,0.5,0.00546395908094899,0.875282400421867,0.0126973600802326,2.92055839061781,0.5,130.211974430652
CBC_1031,CBC_1031_MSI_TV_v3_Vset3_Tset1_2023-10-20_12h11.47.981.csv,2,22,0,1,z,0,1,3,tac,B,63,1,0B,1B,0,1,b,2.34900209999978,1,0,0,0,0B,1B,B01,2.51230562397611,0.500014927424419,0.49455096834347,0.5,0.497268020459526,0.497268020459526,0.502731979540475,0.5,0.497268020459526,0.49455096834347,0.5,0.508151237911002,0.497268020459526,0.5,0.5,0.49455096834347,0.508151237911002,0.494536204039853,0.505463795960147,0.497268020459526,0.502731979540475,0.156658815780885,0.500513716565929,-0.497268020459526,-0.00271705211605535,0.5,0.00546395908094899,0.875282400421867,0.0126973600802326,2.92055839061781,0.5,130.211974430652
CBC_1031,CBC_1031_MSI_TV_v3_Vset3_Tset1_2023-10-20_12h11.47.981.csv,2,23,2,0,b,1,0,1,tac,C,27,1,2C,0C,1,0,b,2.35167220000039,1,0,1,1,2C,0C,C20,2.53897387105828,0.500014927424419,0.49455096834347,0.5,0.497268020459526,0.49455096834347,0.502731979540475,0.5,0.497268020459526,0.49455096834347,0.5,0.508151237911002,0.497268020459526,0.5,0.5,0.49455096834347,0.508151237911002,0.51359785369923,0.48640214630077,0.508151237911002,0.49455096834347,0.156143249663143,0.499617643708383,0.491848762088998,0.0026874415100697,0.5,0.00546395908094899,0.875282400421867,0.0126973600802326,2.92055839061781,0.5,130.211974430652
CBC_1031,CBC_1031_MSI_TV_v3_Vset3_Tset1_2023-10-20_12h11.47.981.csv,2,24,3,2,b,1,0,2,tac,D,63,1,3D,2D,1,0,b,1.82530390000102,1,0,1,1,3D,2D,D32,2.56494935746154,0.500014927424419,0.49455096834347,0.5,0.497268020459526,0.49455096834347,0.502731979540475,0.5,0.497268020459526,0.49455096834347,0.5,0.510838679421072,0.497268020459526,0.5,0.5,0.49455096834347,0.508151237911002,0.51359785369923,0.48640214630077,0.508151237911002,0.49455096834347,0.204474621202296,0.499385331444444,0.491848762088998,0.0026874415100697,0.5,0.00546395908094899,0.875282400421867,0.0126973600802326,2.92055839061781,0.5,130.211974430652
CBC_1031,CBC_1031_MSI_TV_v3_Vset3_Tset1_2023-10-20_12h11.47.981.csv,2,25,1,0,z,0,1,0,tac,A,63,1,1A,0A,0,1,b,2.96160250000139,1,0,0,0,1A,0A,A10,2.59026716544583,0.500014927424419,0.49455096834347,0.5,0.497268020459526,0.49455096834347,0.502731979540475,0.5,0.497268020459526,0.49455096834347,0.5,0.510838679421072,0.497268020459526,0.5,0.5,0.49455096834347,0.510838679421072,0.494536042696804,0.505463957303196,0.49455096834347,0.500014927424419,0.110102870872011,0.499852038476476,-0.49455096834347,-0.00270220625447242,0.5,0.00546395908094899,0.875282400421867,0.0126973600802326,2.92055839061781,0.5,130.211974430652
CBC_1031,CBC_1031_MSI_TV_v3_Vset3_Tset1_2023-10-20_12h11.47.981.csv,2,26,3,2,z,0,1,1,tac,C,63,1,3C,2C,0,1,b,4.24684440000055,1,0,0,0,3C,2C,C32,2.6149597780362,0.500014927424419,0.491848762088998,0.5,0.497268020459526,0.49455096834347,0.502731979540475,0.5,0.497268020459526,0.49455096834347,0.5,0.510838679421072,0.497268020459526,0.5,0.5,0.49455096834347,0.510838679421072,0.48643094821396,0.51356905178604,0.497268020459526,0.510838679421072,0.0524135783648008,0.500417620746385,-0.497268020459526,-0.00271705211605535,0.5,0.00546395908094899,0.875282400421867,0.0126973600802326,2.92055839061781,0.5,130.211974430652
CBC_1031,CBC_1031_MSI_TV_v3_Vset3_Tset1_2023-10-20_12h11.47.981.csv,2,27,2,0,z,0,1,0,tac,A,27,1,2A,0A,0,1,b,1.75651239999934,1,0,0,0,2A,0A,A20,3.73766961828337,0.500014927424419,0.491848762088998,0.5,0.497268020459526,0.49455096834347,0.502731979540475,0.5,0.497268020459526,0.49455096834347,0.5,0.510838679421072,0.49455096834347,0.5,0.5,0.49455096834347,0.510838679421072,0.499985072575581,0.500014927424419,0.5,0.500014927424419,0.210906093958228,0.502206935747369,-0.5,-0.00273197954047449,0.5,0.00546395908094899,0.875282400421867,0.0126973600802326,2.92055839061781,0.5,130.211974430652
CBC_1031,CBC_1031_MSI_TV_v3_Vset3_Tset1_2023-10-20_12h11.47.981.csv,2,28,3,2,b,1,0,2,tac,D,63,1,3D,2D,1,0,b,2.54700880000019,1,0,1,1,3D,2D,D32,2.37490575457367,0.500014927424419,0.491848762088998,0.497268020459526,0.497268020459526,0.49455096834347,0.502731979540475,0.5,0.497268020459526,0.49455096834347,0.5,0.510838679421072,0.49455096834347,0.5,0.5,0.49455096834347,0.510838679421072,0.516283864157518,0.483716135842482,0.510838679421072,0.49455096834347,0.140351665568444,0.501850649494209,0.489161320578928,0.00267275743962623,0.5,0.00546395908094899,0.875282400421867,0.0126973600802326,2.92055839061781,0.5,130.211974430652
CBC_1031,CBC_1031_MSI_TV_v3_Vset3_Tset1_2023-10-20_12h11.47.981.csv,2,29,3,2,b,1,0,2,tac,D,63,1,3D,2D,1,0,z,2.66937490000055,0,1,0,0,2D,3D,D32,2.17475172148416,0.500014927424419,0.491848762088998,0.497268020459526,0.497268020459526,0.49455096834347,0.502731979540475,0.5,0.497268020459526,0.49455096834347,0.5,0.510838679421072,0.49455096834347,0.5,0.5,0.49455096834347,0.513511436860698,0.481045113639726,0.518954886360274,0.49455096834347,0.513511436860698,0.130456509249594,0.500406467246542,-0.49455096834347,-0.00270220625447242,0.5,0.00546395908094899,0.875282400421867,0.0126973600802326,2.92055839061781,0.5,130.211974430652
CBC_1031,CBC_1031_MSI_TV_v3_Vset3_Tset1_2023-10-20_12h11.47.981.csv,2,30,3,1,z,0,1,3,tac,B,27,1,3B,1B,0,1,b,2.38612879999891,1,0,0,0,3B,1B,B31,3.80666248977032,0.500014927424419,0.491848762088998,0.497268020459526,0.497268020459526,0.49455096834347,0.502731979540475,0.5,0.497268020459526,0.49455096834347,0.5,0.510838679421072,0.49455096834347,0.5,0.5,0.491848762088998,0.513511436860698,0.494536204039853,0.505463795960147,0.497268020459526,0.502731979540475,0.153371478822216,0.500390633811605,-0.497268020459526,-0.00271705211605535,0.5,0.00546395908094899,0.875282400421867,0.0126973600802326,2.92055839061781,0.5,130.211974430652
CBC_1031,CBC_1031_MSI_TV_v3_Vset3_Tset1_2023-10-20_12h11.47.981.csv,2,31,0,3,z,0,1,2,tac,D,9,1,0D,3D,0,1,z,2.87222790000123,0,1,1,1,3D,0D,D03,3.8286413964891,0.500014927424419,0.491848762088998,0.497268020459526,0.497268020459526,0.49455096834347,0.502731979540475,0.5,0.49455096834347,0.49455096834347,0.5,0.510838679421072,0.49455096834347,0.5,0.5,0.491848762088998,0.513511436860698,0.513511436860698,0.486488563139302,0.513511436860698,0.5,0.115839805706948,0.499444424810363,0.486488563139302,0.00265815360234281,0.5,0.00546395908094899,0.875282400421867,0.0126973600802326,2.92055839061781,0.5,130.211974430652
CBC_1031,CBC_1031_MSI_TV_v3_Vset3_Tset1_2023-10-20_12h11.47.981.csv,2,32,1,0,b,1,0,3,tac,B,63,1,1B,0B,1,0,b,2.86933470000076,1,0,1,1,1B,0B,B10,3.85014760171006,0.500014927424419,0.491848762088998,0.497268020459526,0.497268020459526,0.49455096834347,0.502731979540475,0.5,0.49455096834347,0.49455096834347,0.5,0.510838679421072,0.49455096834347,0.5,0.5,0.491848762088998,0.516169590463041,0.508180524074839,0.491819475925161,0.502731979540475,0.49455096834347,0.115711344122577,0.498057918886411,0.497268020459525,0.00271705211605535,0.5,0.00546395908094899,0.875282400421867,0.0126973600802326,2.92055839061781,0.5,130.211974430652
CBC_1031,CBC_1031_MSI_TV_v3_Vset3_Tset1_2023-10-20_12h11.47.981.csv,2,33,1,0,z,0,1,0,tac,A,63,1,1A,0A,0,1,b,3.72516910000013,1,0,0,0,1A,0A,A10,2.484906649788,0.500014927424419,0.491848762088998,0.497268020459526,0.497268020459526,0.49455096834347,0.50544903165653,0.5,0.49455096834347,0.49455096834347,0.5,0.510838679421072,0.49455096834347,0.5,0.5,0.491848762088998,0.516169590463041,0.491833838639114,0.508166161360886,0.491848762088998,0.500014927424419,0.0708044738395615,0.49989156142442,-0.491848762088998,-0.0026874415100697,0.5,0.00546395908094899,0.875282400421867,0.0126973600802326,2.92055839061781,0.5,130.211974430652
CBC_1031,CBC_1031_MSI_TV_v3_Vset3_Tset1_2023-10-20_12h11.47.981.csv,2,34,1,0,b,1,0,3,tac,B,63,1,1B,0B,1,0,z,3.2535057999994,0,1,0,0,0B,1B,B10,3.19867311755068,0.500014927424419,0.489161320578928,0.497268020459526,0.497268020459526,0.49455096834347,0.50544903165653,0.5,0.49455096834347,0.49455096834347,0.5,0.510838679421072,0.49455096834347,0.5,0.5,0.491848762088998,0.516169590463041,0.489103230872062,0.510896769127938,0.49455096834347,0.50544903165653,0.092940145104575,0.499491172047388,-0.49455096834347,-0.00270220625447242,0.5,0.00546395908094899,0.875282400421867,0.0126973600802326,2.92055839061781,0.5,130.211974430652
CBC_1031,CBC_1031_MSI_TV_v3_Vset3_Tset1_2023-10-20_12h11.47.981.csv,2,35,3,2,z,0,1,1,tac,C,63,1,3C,2C,0,1,b,2.98768950000158,1,0,0,0,3C,2C,C32,2.52572864430826,0.500014927424419,0.489161320578928,0.497268020459526,0.497268020459526,0.491848762088998,0.50544903165653,0.5,0.49455096834347,0.49455096834347,0.5,0.510838679421072,0.49455096834347,0.5,0.5,0.491848762088998,0.516169590463041,0.483716135842482,0.516283864157518,0.49455096834347,0.510838679421072,0.108319514760338,0.499223062394464,-0.49455096834347,-0.00270220625447242,0.5,0.00546395908094899,0.875282400421867,0.0126973600802326,2.92055839061781,0.5,130.211974430652
CBC_1031,CBC_1031_MSI_TV_v3_Vset3_Tset1_2023-10-20_12h11.47.981.csv,2,36,0,2,b,1,0,0,tac,A,27,1,0A,2A,NaN,NaN,None,NaN,NaN,NaN,NaN,NaN,,,A02,3.23867845216438,0.500014927424419,0.489161320578928,0.497268020459526,0.497268020459526,0.491848762088998,0.50544903165653,0.5,0.49455096834347,0.49455096834347,0.5,0.510838679421072,0.491848762088998,0.5,0.5,0.491848762088998,0.516169590463041,0,0,0,0,NaN,0,0,0,0.5,0.00546395908094899,0.875282400421867,0.0126973600802326,2.92055839061781,0.5,130.211974430652
CBC_1031,CBC_1031_MSI_TV_v3_Vset3_Tset1_2023-10-20_12h11.47.981.csv,2,37,1,0,b,1,0,3,tac,B,63,1,1B,0B,1,0,b,4.85879380000006,1,0,1,1,1B,0B,B10,2.85263142991332,0.500014927424419,0.489161320578928,0.497268020459526,0.497268020459526,0.491848762088998,0.50544903165653,0.5,0.49455096834347,0.49455096834347,0.5,0.510838679421072,0.491848762088998,0.5,0.5,0.491848762088998,0.516169590463041,0.51359785369923,0.48640214630077,0.50544903165653,0.491848762088998,0.0367089460854729,0.499365727908074,0.49455096834347,0.00270220625447242,0.5,0.00546395908094899,0.875282400421867,0.0126973600802326,2.92055839061781,0.5,130.211974430652
CBC_1031,CBC_1031_MSI_TV_v3_Vset3_Tset1_2023-10-20_12h11.47.981.csv,2,38,3,1,z,0,1,3,tac,B,27,1,3B,1B,NaN,NaN,None,NaN,NaN,NaN,NaN,NaN,,,B31,3.27714473299218,0.500014927424419,0.489161320578928,0.497268020459526,0.497268020459526,0.491848762088998,0.508151237911002,0.5,0.49455096834347,0.49455096834347,0.5,0.510838679421072,0.491848762088998,0.5,0.5,0.491848762088998,0.516169590463041,0,0,0,0,NaN,0,0,0,0.5,0.00546395908094899,0.875282400421867,0.0126973600802326,2.92055839061781,0.5,130.211974430652
CBC_1031,CBC_1031_MSI_TV_v3_Vset3_Tset1_2023-10-20_12h11.47.981.csv,2,39,3,2,z,0,1,1,tac,C,63,1,3C,2C,0,1,b,2.34634430000006,1,0,0,0,3C,2C,C32,2.37954613413017,0.500014927424419,0.489161320578928,0.497268020459526,0.497268020459526,0.491848762088998,0.508151237911002,0.5,0.49455096834347,0.49455096834347,0.5,0.510838679421072,0.491848762088998,0.5,0.5,0.491848762088998,0.516169590463041,0.481016791231745,0.518983208768255,0.491848762088998,0.510838679421072,0.15648569215931,0.499212594331085,-0.491848762088998,-0.0026874415100697,0.5,0.00546395908094899,0.875282400421867,0.0126973600802326,2.92055839061781,0.5,130.211974430652
CBC_1031,CBC_1031_MSI_TV_v3_Vset3_Tset1_2023-10-20_12h11.47.981.csv,2,40,3,1,b,1,0,2,tac,D,27,1,3D,1D,1,0,b,4.26049750000129,1,0,1,1,3D,1D,D31,4.00733318523247,0.500014927424419,0.489161320578928,0.497268020459526,0.497268020459526,0.491848762088998,0.508151237911002,0.5,0.49455096834347,0.49455096834347,0.5,0.510838679421072,0.489161320578928,0.5,0.5,0.491848762088998,0.516169590463041,0.516169590463041,0.483830409536959,0.516169590463041,0.5,0.0519885683835136,0.500296027021651,0.483830409536959,0.00264362955982873,0.5,0.00546395908094899,0.875282400421867,0.0126973600802326,2.92055839061781,0.5,130.211974430652
CBC_1031,CBC_1031_MSI_TV_v3_Vset3_Tset1_2023-10-20_12h11.47.981.csv,2,41,1,2,z,0,1,1,tac,C,9,1,1C,2C,0,1,b,2.89398480000091,1,0,0,0,1C,2C,C12,4.02535169073515,0.500014927424419,0.489161320578928,0.497268020459526,0.497268020459526,0.491848762088998,0.508151237911002,0.5,0.49455096834347,0.49455096834347,0.5,0.510838679421072,0.489161320578928,0.5,0.5,0.491848762088998,0.51881322002287,0.489161320578928,0.510838679421072,0.5,0.510838679421072,0.114347506526247,0.499241380326053,-0.5,-0.00273197954047449,0.5,0.00546395908094899,0.875282400421867,0.0126973600802326,2.92055839061781,0.5,130.211974430652
CBC_1031,CBC_1031_MSI_TV_v3_Vset3_Tset1_2023-10-20_12h11.47.981.csv,2,42,0,1,z,0,1,3,tac,B,63,0,0B,1B,1,0,z,2.08678380000129,0,1,1,0,1B,0B,B01,2.65675690671466,0.500014927424419,0.489161320578928,0.497268020459526,0.497268020459526,0.491848762088998,0.508151237911002,0.5,0.49455096834347,0.49455096834347,0.497268020459526,0.510838679421072,0.489161320578928,0.5,0.5,0.491848762088998,0.51881322002287,0.516298144252506,0.483701855747494,0.508151237911002,0.491848762088998,0.180810285594451,0.500248156863291,-0.508151237911002,-0.00277651757087929,0.5,0.00546395908094899,0.875282400421867,0.0126973600802326,2.92055839061781,0.5,130.211974430652
CBC_1031,CBC_1031_MSI_TV_v3_Vset3_Tset1_2023-10-20_12h11.47.981.csv,2,43,3,2,b,1,0,2,tac,D,63,1,3D,2D,NaN,NaN,None,NaN,NaN,NaN,NaN,NaN,,,D32,2.26868354131836,0.500014927424419,0.489161320578928,0.497268020459526,0.497268020459526,0.491848762088998,0.505374720340123,0.5,0.49455096834347,0.49455096834347,0.497268020459526,0.510838679421072,0.489161320578928,0.5,0.5,0.491848762088998,0.51881322002287,0,0,0,0,NaN,0,0,0,0.5,0.00546395908094899,0.875282400421867,0.0126973600802326,2.92055839061781,0.5,130.211974430652
CBC_1031,CBC_1031_MSI_TV_v3_Vset3_Tset1_2023-10-20_12h11.47.981.csv,2,44,0,1,b,1,0,0,tac,A,63,1,0A,1A,1,0,z,0.262746000000334,0,1,0,0,1A,0A,A01,2.97892515523761,0.500014927424419,0.489161320578928,0.497268020459526,0.497268020459526,0.491848762088998,0.505374720340123,0.5,0.49455096834347,0.49455096834347,0.497268020459526,0.510838679421072,0.489161320578928,0.5,0.5,0.491848762088998,0.51881322002287,0.489146400178679,0.510853599821321,0.489161320578928,0.500014927424419,1e-20,0.5,-0.489161320578928,-0.00267275743962623,0.5,0.00546395908094899,0.875282400421867,0.0126973600802326,2.92055839061781,0.5,130.211974430652
CBC_1031,CBC_1031_MSI_AV_v3_Vset6_Aset2_2023-10-20_12h20.15.905.csv,3,1,1,0,z,0,1,0,aud,A,63,1,1A,0A,0,1,b,1.45231429999876,1,0,0,0,1A,0A,A10,2.77258872223978,0.5,0.5,0.5,0.5,0.5,0.5,0.5,0.5,0.5,0.5,0.5,0.5,0.5,0.5,0.5,0.5,0.5,0.5,0.5,0.5,0.332430895588483,0.499610588340909,-0.5,-0.137848605501679,0.5,0.275697211003358,0.83411467730976,0.371656025128662,2.24197342555306,0.5,74.4147693262419
CBC_1031,CBC_1031_MSI_AV_v3_Vset6_Aset2_2023-10-20_12h20.15.905.csv,3,2,3,2,z,0,1,1,aud,C,63,1,3C,2C,0,1,z,1.13799969999855,0,1,1,1,2C,3C,C32,2.83321334405622,0.5,0.362151394498321,0.5,0.5,0.5,0.5,0.5,0.5,0.5,0.5,0.5,0.5,0.5,0.5,0.5,0.5,0.5,0.5,0.5,0.5,0.337415994855155,0.499604378409154,0.5,0.137848605501679,0.5,0.275697211003358,0.83411467730976,0.371656025128662,2.24197342555306,0.5,74.4147693262419
CBC_1031,CBC_1031_MSI_AV_v3_Vset6_Aset2_2023-10-20_12h20.15.905.csv,3,3,0,2,b,1,0,0,aud,A,27,1,0A,2A,1,0,b,2.27413149999848,1,0,1,1,0A,2A,A02,2.89037175789616,0.5,0.362151394498321,0.5,0.5,0.5,0.5,0.5,0.5,0.5,0.5,0.637848605501679,0.5,0.5,0.5,0.5,0.5,0.5,0.5,0.5,0.5,0.152050987593838,0.500121380583439,0.5,0.137848605501679,0.5,0.275697211003358,0.83411467730976,0.371656025128662,2.24197342555306,0.5,74.4147693262419
CBC_1031,CBC_1031_MSI_AV_v3_Vset6_Aset2_2023-10-20_12h20.15.905.csv,3,4,1,0,b,1,0,3,aud,B,63,1,1B,0B,1,0,b,1.58470159999888,1,0,1,1,1B,0B,B10,2.94443897916644,0.637848605501679,0.362151394498321,0.5,0.5,0.5,0.5,0.5,0.5,0.5,0.5,0.637848605501679,0.5,0.5,0.5,0.5,0.5,0.5,0.5,0.5,0.5,0.296788163429266,0.500220263947073,0.5,0.137848605501679,0.5,0.275697211003358,0.83411467730976,0.371656025128662,2.24197342555306,0.5,74.4147693262419
CBC_1031,CBC_1031_MSI_AV_v3_Vset6_Aset2_2023-10-20_12h20.15.905.csv,3,5,2,3,z,0,1,2,aud,D,63,1,2D,3D,0,1,z,2.12832009999875,0,1,1,1,3D,2D,D23,2.99573227355399,0.637848605501679,0.362151394498321,0.5,0.5,0.5,0.637848605501679,0.5,0.5,0.5,0.5,0.637848605501679,0.5,0.5,0.5,0.5,0.5,0.5,0.5,0.5,0.5,0.175240654242593,0.499556612558015,0.5,0.137848605501679,0.5,0.275697211003358,0.83411467730976,0.371656025128662,2.24197342555306,0.5,74.4147693262419
CBC_1031,CBC_1031_MSI_AV_v3_Vset6_Aset2_2023-10-20_12h20.15.905.csv,3,6,1,2,b,1,0,3,aud,B,9,1,1B,2B,1,0,b,1.46430819999841,1,0,1,1,1B,2B,B12,3.04452243772342,0.637848605501679,0.362151394498321,0.5,0.5,0.5,0.637848605501679,0.5,0.5,0.5,0.5,0.637848605501679,0.5,0.5,0.5,0.5,0.637848605501679,0.637848605501679,0.362151394498321,0.637848605501679,0.5,0.368880398086462,0.557879324933298,0.362151394498321,0.099844129424164,0.5,0.275697211003358,0.83411467730976,0.371656025128662,2.24197342555306,0.5,74.4147693262419
CBC_1031,CBC_1031_MSI_AV_v3_Vset6_Aset2_2023-10-20_12h20.15.905.csv,3,7,1,3,z,0,1,2,aud,D,27,1,1D,3D,0,1,z,1.23827579999852,0,1,1,1,3D,1D,D13,3.09104245335832,0.637848605501679,0.362151394498321,0.5,0.5,0.5,0.737692734925843,0.5,0.5,0.5,0.5,0.637848605501679,0.5,0.5,0.5,0.5,0.637848605501679,0.637848605501679,0.362151394498321,0.637848605501679,0.5,0.412327321337994,0.558072651236566,0.362151394498321,0.099844129424164,0.5,0.275697211003358,0.83411467730976,0.371656025128662,2.24197342555306,0.5,74.4147693262419
CBC_1031,CBC_1031_MSI_AV_v3_Vset6_Aset2_2023-10-20_12h20.15.905.csv,3,8,1,0,z,0,1,0,aud,A,63,1,1A,0A,0,1,z,3.22375159999865,0,1,1,1,0A,1A,A10,2.4423470353692,0.637848605501679,0.362151394498321,0.5,0.5,0.5,0.737692734925843,0.5,0.5,0.5,0.5,0.637848605501679,0.5,0.5,0.5,0.5,0.737692734925843,0.756222042066836,0.243777957933164,0.637848605501679,0.362151394498321,0.0708745281867198,0.604393273654188,0.362151394498321,0.099844129424164,0.5,0.275697211003358,0.83411467730976,0.371656025128662,2.24197342555306,0.5,74.4147693262419
CBC_1031,CBC_1031_MSI_AV_v3_Vset6_Aset2_2023-10-20_12h20.15.905.csv,3,9,0,1,b,1,0,0,aud,A,63,1,0A,1A,1,0,z,2.32448459999796,0,1,0,0,1A,0A,A01,3.17805383034795,0.737692734925843,0.362151394498321,0.5,0.5,0.5,0.737692734925843,0.5,0.5,0.5,0.5,0.637848605501679,0.5,0.5,0.5,0.5,0.737692734925843,0.167974707295242,0.832025292704758,0.362151394498321,0.737692734925843,0.105152458298126,0.366112107178239,-0.362151394498321,-0.099844129424164,0.5,0.275697211003358,0.83411467730976,0.371656025128662,2.24197342555306,0.5,74.4147693262419
CBC_1031,CBC_1031_MSI_AV_v3_Vset6_Aset2_2023-10-20_12h20.15.905.csv,3,10,2,0,b,1,0,1,aud,C,27,1,2C,0C,1,0,b,1.6357242999984,1,0,1,1,2C,0C,C20,3.2188758248682,0.737692734925843,0.262307265074157,0.5,0.5,0.5,0.737692734925843,0.5,0.5,0.5,0.5,0.637848605501679,0.5,0.5,0.5,0.5,0.737692734925843,0.637848605501679,0.362151394498321,0.637848605501679,0.5,0.315747608089405,0.556678390802572,0.362151394498321,0.099844129424164,0.5,0.275697211003358,0.83411467730976,0.371656025128662,2.24197342555306,0.5,74.4147693262419
CBC_1031,CBC_1031_MSI_AV_v3_Vset6_Aset2_2023-10-20_12h20.15.905.csv,3,11,0,1,z,0,1,3,aud,B,63,1,0B,1B,0,1,b,2.65202749999844,1,0,0,0,0B,1B,B01,3.25809653802148,0.737692734925843,0.262307265074157,0.5,0.5,0.5,0.737692734925843,0.5,0.5,0.5,0.5,0.737692734925843,0.5,0.5,0.5,0.5,0.737692734925843,0.262307265074157,0.737692734925843,0.5,0.737692734925843,0.0835659882869676,0.401897367321746,-0.5,-0.137848605501679,0.5,0.275697211003358,0.83411467730976,0.371656025128662,2.24197342555306,0.5,74.4147693262419
CBC_1031,CBC_1031_MSI_AV_v3_Vset6_Aset2_2023-10-20_12h20.15.905.csv,3,12,0,1,b,1,0,0,aud,A,63,1,0A,1A,1,0,z,3.43390509999881,0,1,0,0,1A,0A,A01,2.60268968544438,0.737692734925843,0.262307265074157,0.5,0.5,0.362151394498321,0.737692734925843,0.5,0.5,0.5,0.5,0.737692734925843,0.5,0.5,0.5,0.5,0.737692734925843,0.112244024550938,0.887755975449062,0.262307265074157,0.737692734925843,0.031519782767043,0.342854073959376,-0.262307265074157,-0.0723173814068636,0.5,0.275697211003358,0.83411467730976,0.371656025128662,2.24197342555306,0.5,74.4147693262419
CBC_1031,CBC_1031_MSI_AV_v3_Vset6_Aset2_2023-10-20_12h20.15.905.csv,3,13,3,2,z,0,1,1,aud,C,63,1,3C,2C,0,1,b,2.54562649999934,1,0,0,0,3C,2C,C32,2.63905732961526,0.737692734925843,0.189989883667293,0.5,0.5,0.362151394498321,0.737692734925843,0.5,0.5,0.5,0.5,0.737692734925843,0.5,0.5,0.5,0.5,0.737692734925843,0.262307265074157,0.737692734925843,0.5,0.737692734925843,0.0929833846758759,0.402144388362811,-0.5,-0.137848605501679,0.5,0.275697211003358,0.83411467730976,0.371656025128662,2.24197342555306,0.5,74.4147693262419
CBC_1031,CBC_1031_MSI_AV_v3_Vset6_Aset2_2023-10-20_12h20.15.905.csv,3,14,0,2,b,1,0,0,aud,A,27,1,0A,2A,1,0,z,2.40674069999841,0,1,0,0,2A,0A,A02,2.67414864942653,0.737692734925843,0.189989883667293,0.5,0.5,0.362151394498321,0.737692734925843,0.5,0.5,0.5,0.5,0.737692734925843,0.362151394498321,0.5,0.5,0.5,0.737692734925843,0.262307265074157,0.737692734925843,0.5,0.737692734925843,0.106841827680204,0.402302873966288,-0.5,-0.137848605501679,0.5,0.275697211003358,0.83411467730976,0.371656025128662,2.24197342555306,0.5,74.4147693262419
CBC_1031,CBC_1031_MSI_AV_v3_Vset6_Aset2_2023-10-20_12h20.15.905.csv,3,15,1,0,b,1,0,3,aud,B,63,1,1B,0B,1,0,b,1.60573469999872,1,0,1,1,1B,0B,B10,2.70805020110221,0.737692734925843,0.189989883667293,0.362151394498321,0.5,0.362151394498321,0.737692734925843,0.5,0.5,0.5,0.5,0.737692734925843,0.362151394498321,0.5,0.5,0.5,0.737692734925843,0.832025292704758,0.167974707295242,0.737692734925843,0.362151394498321,0.374759130052187,0.634865172034738,0.262307265074157,0.0723173814068637,0.5,0.275697211003358,0.83411467730976,0.371656025128662,2.24197342555306,0.5,74.4147693262419
CBC_1031,CBC_1031_MSI_AV_v3_Vset6_Aset2_2023-10-20_12h20.15.905.csv,3,16,0,1,z,0,1,3,aud,B,63,1,0B,1B,0,1,z,1.60892049999893,0,1,1,1,1B,0B,B01,2.7408400239252,0.737692734925843,0.189989883667293,0.362151394498321,0.5,0.362151394498321,0.810010116332707,0.5,0.5,0.5,0.5,0.737692734925843,0.362151394498321,0.5,0.5,0.5,0.737692734925843,0.882478645002987,0.117521354997013,0.810010116332707,0.362151394498321,0.38709122479619,0.654746364530072,0.189989883667293,0.0523796810459252,0.5,0.275697211003358,0.83411467730976,0.371656025128662,2.24197342555306,0.5,74.4147693262419
CBC_1031,CBC_1031_MSI_AV_v3_Vset6_Aset2_2023-10-20_12h20.15.905.csv,3,17,3,2,z,0,1,1,aud,C,63,1,3C,2C,0,1,z,3.4069387999989,0,1,1,1,2C,3C,C32,2.36712361413162,0.737692734925843,0.189989883667293,0.362151394498321,0.5,0.362151394498321,0.862389797378632,0.5,0.5,0.5,0.5,0.737692734925843,0.362151394498321,0.5,0.5,0.5,0.737692734925843,0.832025292704758,0.167974707295242,0.737692734925843,0.362151394498321,0.0609526040062721,0.634837568488737,0.262307265074157,0.0723173814068637,0.5,0.275697211003358,0.83411467730976,0.371656025128662,2.24197342555306,0.5,74.4147693262419
CBC_1031,CBC_1031_MSI_AV_v3_Vset6_Aset2_2023-10-20_12h20.15.905.csv,3,18,3,1,b,1,0,2,aud,D,27,1,3D,1D,1,0,b,1.87065179999809,1,0,1,1,3D,1D,D31,3.49650756146648,0.737692734925843,0.189989883667293,0.362151394498321,0.5,0.362151394498321,0.862389797378632,0.5,0.5,0.5,0.5,0.810010116332707,0.362151394498321,0.5,0.5,0.5,0.737692734925843,0.737692734925843,0.262307265074157,0.737692734925843,0.5,0.270869829044328,0.59804149933183,0.262307265074157,0.0723173814068637,0.5,0.275697211003358,0.83411467730976,0.371656025128662,2.24197342555306,0.5,74.4147693262419
CBC_1031,CBC_1031_MSI_AV_v3_Vset6_Aset2_2023-10-20_12h20.15.905.csv,3,19,1,2,z,0,1,1,aud,C,9,1,1C,2C,0,1,z,1.05602679999902,0,1,1,1,2C,1C,C12,3.52636052461616,0.737692734925843,0.189989883667293,0.362151394498321,0.5,0.362151394498321,0.862389797378632,0.5,0.5,0.5,0.5,0.810010116332707,0.362151394498321,0.5,0.5,0.5,0.810010116332707,0.810010116332707,0.189989883667293,0.810010116332707,0.5,0.325081712561676,0.62721390596364,0.189989883667293,0.0523796810459252,0.5,0.275697211003358,0.83411467730976,0.371656025128662,2.24197342555306,0.5,74.4147693262419
CBC_1031,CBC_1031_MSI_AV_v3_Vset6_Aset2_2023-10-20_12h20.15.905.csv,3,20,3,1,z,0,1,3,aud,B,27,1,3B,1B,0,1,z,4.78891039999871,0,1,1,1,1B,3B,B31,3.55534806148941,0.737692734925843,0.189989883667293,0.362151394498321,0.5,0.362151394498321,0.862389797378632,0.5,0.5,0.5,0.5,0.862389797378632,0.362151394498321,0.5,0.5,0.5,0.810010116332707,0.862389797378632,0.137610202621368,0.862389797378632,0.5,0.0150818844755576,0.645966977783071,0.137610202621368,0.0379387490683182,0.5,0.275697211003358,0.83411467730976,0.371656025128662,2.24197342555306,0.5,74.4147693262419
CBC_1031,CBC_1031_MSI_AV_v3_Vset6_Aset2_2023-10-20_12h20.15.905.csv,3,21,3,2,b,1,0,2,aud,D,63,1,3D,2D,1,0,b,1.5492781999983,1,0,1,1,3D,2D,D32,3.58351893845611,0.737692734925843,0.189989883667293,0.362151394498321,0.5,0.362151394498321,0.90032854644695,0.5,0.5,0.5,0.5,0.862389797378632,0.362151394498321,0.5,0.5,0.5,0.810010116332707,0.810010116332707,0.189989883667293,0.810010116332707,0.5,0.388894682890027,0.62597531716878,0.189989883667293,0.0523796810459252,0.5,0.275697211003358,0.83411467730976,0.371656025128662,2.24197342555306,0.5,74.4147693262419
CBC_1031,CBC_1031_MSI_AV_v3_Vset6_Aset2_2023-10-20_12h20.15.905.csv,3,22,1,0,b,1,0,3,aud,B,63,0,1B,0B,0,1,z,1.77230429999872,0,1,0,1,0B,1B,B10,2.51230562397611,0.737692734925843,0.189989883667293,0.362151394498321,0.5,0.362151394498321,0.90032854644695,0.5,0.5,0.5,0.5,0.862389797378632,0.362151394498321,0.5,0.5,0.5,0.862389797378632,0.0591382073321755,0.940861792667825,0.362151394498321,0.90032854644695,0.16362998265361,0.324349705610768,0.637848605501679,0.175853081579194,0.5,0.275697211003358,0.83411467730976,0.371656025128662,2.24197342555306,0.5,74.4147693262419
CBC_1031,CBC_1031_MSI_AV_v3_Vset6_Aset2_2023-10-20_12h20.15.905.csv,3,23,3,0,z,0,1,0,aud,A,9,1,3A,0A,0,1,b,2.63485429999855,1,0,0,0,3A,0A,A30,3.63758615972639,0.737692734925843,0.189989883667293,0.362151394498321,0.5,0.538004476077515,0.90032854644695,0.5,0.5,0.5,0.5,0.862389797378632,0.362151394498321,0.5,0.5,0.5,0.862389797378632,0.262307265074157,0.737692734925843,0.5,0.737692734925843,0.0851086089640701,0.402332357051592,-0.5,-0.137848605501679,0.5,0.275697211003358,0.83411467730976,0.371656025128662,2.24197342555306,0.5,74.4147693262419
CBC_1031,CBC_1031_MSI_AV_v3_Vset6_Aset2_2023-10-20_12h20.15.905.csv,3,24,2,3,z,0,1,2,aud,D,63,1,2D,3D,0,1,z,1.2965054999986,0,1,1,1,3D,2D,D23,2.9704144655697,0.737692734925843,0.189989883667293,0.362151394498321,0.362151394498321,0.538004476077515,0.90032854644695,0.5,0.5,0.5,0.5,0.862389797378632,0.362151394498321,0.5,0.5,0.5,0.862389797378632,0.862389797378632,0.137610202621368,0.862389797378632,0.5,0.486551118913204,0.647061962864915,0.137610202621368,0.0379387490683182,0.5,0.275697211003358,0.83411467730976,0.371656025128662,2.24197342555306,0.5,74.4147693262419
CBC_1031,CBC_1031_MSI_AV_v3_Vset6_Aset2_2023-10-20_12h20.15.905.csv,3,25,1,3,b,1,0,3,aud,B,27,1,1B,3B,1,0,z,1.30060439999943,0,1,0,0,3B,1B,B13,3.68887945411394,0.737692734925843,0.189989883667293,0.362151394498321,0.362151394498321,0.538004476077515,0.90032854644695,0.5,0.5,0.5,0.5,0.862389797378632,0.362151394498321,0.5,0.5,0.5,0.90032854644695,0.09967145355305,0.90032854644695,0.5,0.90032854644695,0.255976250396555,0.338916378979368,-0.5,-0.137848605501679,0.5,0.275697211003358,0.83411467730976,0.371656025128662,2.24197342555306,0.5,74.4147693262419
CBC_1031,CBC_1031_MSI_AV_v3_Vset6_Aset2_2023-10-20_12h20.15.905.csv,3,26,2,3,b,1,0,1,aud,C,63,1,2C,3C,1,0,b,1.94045899999765,1,0,1,1,2C,3C,C23,3.71357206670431,0.737692734925843,0.189989883667293,0.362151394498321,0.362151394498321,0.538004476077515,0.90032854644695,0.5,0.362151394498321,0.5,0.5,0.862389797378632,0.362151394498321,0.5,0.5,0.5,0.90032854644695,0.916927974691376,0.0830720253086237,0.862389797378632,0.362151394498321,0.282965184645355,0.667006765913721,0.137610202621368,0.0379387490683182,0.5,0.275697211003358,0.83411467730976,0.371656025128662,2.24197342555306,0.5,74.4147693262419
CBC_1031,CBC_1031_MSI_AV_v3_Vset6_Aset2_2023-10-20_12h20.15.905.csv,3,27,2,0,b,1,0,1,aud,C,27,1,2C,0C,1,0,b,2.22592619999887,1,0,1,1,2C,0C,C20,3.04452243772342,0.737692734925843,0.189989883667293,0.362151394498321,0.362151394498321,0.538004476077515,0.90032854644695,0.5,0.362151394498321,0.5,0.5,0.90032854644695,0.362151394498321,0.5,0.5,0.5,0.90032854644695,0.90032854644695,0.09967145355305,0.90032854644695,0.5,0.209187097401445,0.660860060346853,0.09967145355305,0.0274791417612266,0.5,0.275697211003358,0.83411467730976,0.371656025128662,2.24197342555306,0.5,74.4147693262419
CBC_1031,CBC_1031_MSI_AV_v3_Vset6_Aset2_2023-10-20_12h20.15.905.csv,3,28,0,1,z,0,1,3,aud,B,63,1,0B,1B,0,1,b,2.63246789999903,1,0,0,0,0B,1B,B01,2.66258782702545,0.737692734925843,0.189989883667293,0.362151394498321,0.362151394498321,0.538004476077515,0.90032854644695,0.5,0.362151394498321,0.5,0.5,0.927807688208177,0.362151394498321,0.5,0.5,0.5,0.90032854644695,0.114197080187333,0.885802919812667,0.538004476077515,0.90032854644695,0.0719242807916533,0.344219634202396,-0.538004476077515,-0.148326333561894,0.5,0.275697211003358,0.83411467730976,0.371656025128662,2.24197342555306,0.5,74.4147693262419
CBC_1031,CBC_1031_MSI_AV_v3_Vset6_Aset2_2023-10-20_12h20.15.905.csv,3,29,2,3,b,1,0,1,aud,C,63,1,2C,3C,1,0,z,2.20263609999893,0,1,0,0,3C,2C,C23,3.09104245335832,0.737692734925843,0.189989883667293,0.362151394498321,0.362151394498321,0.389678142515621,0.90032854644695,0.5,0.362151394498321,0.5,0.5,0.927807688208177,0.362151394498321,0.5,0.5,0.5,0.90032854644695,0.0423088301317224,0.957691169868278,0.362151394498321,0.927807688208177,0.102939549638255,0.31822718156248,-0.362151394498321,-0.099844129424164,0.5,0.275697211003358,0.83411467730976,0.371656025128662,2.24197342555306,0.5,74.4147693262419
CBC_1031,CBC_1031_MSI_AV_v3_Vset6_Aset2_2023-10-20_12h20.15.905.csv,3,30,1,0,z,0,1,0,aud,A,63,1,1A,0A,0,1,z,2.09751809999943,0,1,1,1,0A,1A,A10,2.70805020110221,0.737692734925843,0.189989883667293,0.362151394498321,0.362151394498321,0.389678142515621,0.90032854644695,0.5,0.362151394498321,0.5,0.5,0.927807688208177,0.262307265074157,0.5,0.5,0.5,0.90032854644695,0.923018682690799,0.0769813173092007,0.737692734925843,0.189989883667293,0.241701395692859,0.669577180588248,0.262307265074157,0.0723173814068637,0.5,0.275697211003358,0.83411467730976,0.371656025128662,2.24197342555306,0.5,74.4147693262419
CBC_1031,CBC_1031_MSI_AV_v3_Vset6_Aset2_2023-10-20_12h20.15.905.csv,3,31,2,3,z,0,1,2,aud,D,63,1,2D,3D,0,1,z,1.04518119999921,0,1,1,1,3D,2D,D23,2.73002910782099,0.810010116332707,0.189989883667293,0.362151394498321,0.362151394498321,0.389678142515621,0.90032854644695,0.5,0.362151394498321,0.5,0.5,0.927807688208177,0.262307265074157,0.5,0.5,0.5,0.90032854644695,0.90032854644695,0.09967145355305,0.90032854644695,0.5,0.324196804622498,0.659693450907227,0.09967145355305,0.0274791417612266,0.5,0.275697211003358,0.83411467730976,0.371656025128662,2.24197342555306,0.5,74.4147693262419
CBC_1031,CBC_1031_MSI_AV_v3_Vset6_Aset2_2023-10-20_12h20.15.905.csv,3,32,2,3,b,1,0,1,aud,C,63,1,2C,3C,1,0,z,1.12149630000022,0,1,0,0,3C,2C,C23,2.75153531304195,0.810010116332707,0.189989883667293,0.362151394498321,0.362151394498321,0.389678142515621,0.90032854644695,0.5,0.362151394498321,0.5,0.5,0.927807688208177,0.262307265074157,0.5,0.5,0.5,0.927807688208177,0.026922490370623,0.973077509629377,0.262307265074157,0.927807688208177,0.21555030378755,0.311737250170201,-0.262307265074157,-0.0723173814068636,0.5,0.275697211003358,0.83411467730976,0.371656025128662,2.24197342555306,0.5,74.4147693262419
CBC_1031,CBC_1031_MSI_AV_v3_Vset6_Aset2_2023-10-20_12h20.15.905.csv,3,33,3,1,b,1,0,2,aud,D,27,1,3D,1D,1,0,b,1.06440689999908,1,0,1,1,3D,1D,D31,3.17805383034795,0.810010116332707,0.189989883667293,0.362151394498321,0.362151394498321,0.389678142515621,0.90032854644695,0.5,0.362151394498321,0.5,0.5,0.927807688208177,0.189989883667293,0.5,0.5,0.5,0.927807688208177,0.927807688208177,0.0721923117918234,0.927807688208177,0.5,0.37267130241489,0.670356947164336,0.0721923117918234,0.0199032190168906,0.5,0.275697211003358,0.83411467730976,0.371656025128662,2.24197342555306,0.5,74.4147693262419
CBC_1031,CBC_1031_MSI_AV_v3_Vset6_Aset2_2023-10-20_12h20.15.905.csv,3,34,0,2,z,0,1,1,aud,C,27,1,0C,2C,0,1,z,2.43196169999828,0,1,1,1,2C,0C,C02,3.89182029811063,0.810010116332707,0.189989883667293,0.362151394498321,0.362151394498321,0.389678142515621,0.90032854644695,0.5,0.362151394498321,0.5,0.5,0.927807688208177,0.189989883667293,0.5,0.5,0.5,0.947710907225067,0.927807688208177,0.0721923117918234,0.927807688208177,0.5,0.17135849527516,0.670268159752296,0.0721923117918234,0.0199032190168906,0.5,0.275697211003358,0.83411467730976,0.371656025128662,2.24197342555306,0.5,74.4147693262419
CBC_1031,CBC_1031_MSI_AV_v3_Vset6_Aset2_2023-10-20_12h20.15.905.csv,3,35,2,3,z,0,1,2,aud,D,63,0,2D,3D,1,0,z,3.20059269999729,0,1,1,0,3D,2D,D23,2.52572864430826,0.810010116332707,0.189989883667293,0.362151394498321,0.362151394498321,0.389678142515621,0.90032854644695,0.5,0.362151394498321,0.5,0.5,0.947710907225067,0.189989883667293,0.5,0.5,0.5,0.947710907225067,0.947710907225067,0.0522890927749329,0.947710907225067,0.5,0.0779853104186773,0.678432510094767,-0.947710907225067,-0.261281253959413,0.5,0.275697211003358,0.83411467730976,0.371656025128662,2.24197342555306,0.5,74.4147693262419
CBC_1031,CBC_1031_MSI_AV_v3_Vset6_Aset2_2023-10-20_12h20.15.905.csv,3,36,1,0,z,0,1,0,aud,A,63,1,1A,0A,0,1,z,1.91601119999905,0,1,1,1,0A,1A,A10,2.54553127160444,0.810010116332707,0.189989883667293,0.362151394498321,0.362151394498321,0.389678142515621,0.90032854644695,0.5,0.362151394498321,0.5,0.5,0.947710907225067,0.189989883667293,0.5,0.5,0.5,0.686429653265654,0.947853941415906,0.0521460585840938,0.810010116332707,0.189989883667293,0.294981762537978,0.677546544399814,0.189989883667293,0.0523796810459252,0.5,0.275697211003358,0.83411467730976,0.371656025128662,2.24197342555306,0.5,74.4147693262419
CBC_1031,CBC_1031_MSI_AV_v3_Vset6_Aset2_2023-10-20_12h20.15.905.csv,3,37,2,3,b,1,0,1,aud,C,63,1,2C,3C,1,0,b,2.50043729999925,1,0,1,1,2C,3C,C23,2.56494935746154,0.862389797378632,0.189989883667293,0.362151394498321,0.362151394498321,0.389678142515621,0.90032854644695,0.5,0.362151394498321,0.5,0.5,0.947710907225067,0.189989883667293,0.5,0.5,0.5,0.686429653265654,0.98722411432504,0.0127758856749599,0.947710907225067,0.189989883667293,0.163699761775561,0.692074822984425,0.0522890927749329,0.0144159570439448,0.5,0.275697211003358,0.83411467730976,0.371656025128662,2.24197342555306,0.5,74.4147693262419
CBC_1031,CBC_1031_MSI_AV_v3_Vset6_Aset2_2023-10-20_12h20.15.905.csv,3,38,0,2,b,1,0,0,aud,A,27,1,0A,2A,1,0,b,2.91116509999847,1,0,1,1,0A,2A,A02,2.87167962488401,0.862389797378632,0.189989883667293,0.362151394498321,0.362151394498321,0.389678142515621,0.90032854644695,0.5,0.362151394498321,0.5,0.5,0.962126864269012,0.189989883667293,0.5,0.5,0.5,0.686429653265654,0.916927974691376,0.0830720253086237,0.862389797378632,0.362151394498321,0.104227261589196,0.667372962809088,0.137610202621368,0.0379387490683182,0.5,0.275697211003358,0.83411467730976,0.371656025128662,2.24197342555306,0.5,74.4147693262419
CBC_1031,CBC_1031_MSI_AV_v3_Vset6_Aset2_2023-10-20_12h20.15.905.csv,3,39,2,3,z,0,1,2,aud,D,63,1,2D,3D,0,1,z,1.54984699999841,0,1,1,1,3D,2D,D23,2.37954613413017,0.90032854644695,0.189989883667293,0.362151394498321,0.362151394498321,0.389678142515621,0.90032854644695,0.5,0.362151394498321,0.5,0.5,0.962126864269012,0.189989883667293,0.5,0.5,0.5,0.686429653265654,0.686429653265654,0.313570346734346,0.686429653265654,0.5,0.355629889471862,0.577721058087815,0.313570346734346,0.0864504700480152,0.5,0.275697211003358,0.83411467730976,0.371656025128662,2.24197342555306,0.5,74.4147693262419
CBC_1031,CBC_1031_MSI_AV_v3_Vset6_Aset2_2023-10-20_12h20.15.905.csv,3,40,3,2,b,1,0,2,aud,D,63,1,3D,2D,1,0,z,1.03593249999903,0,1,0,0,2D,3D,D32,3.31418600467253,0.90032854644695,0.189989883667293,0.362151394498321,0.362151394498321,0.389678142515621,0.90032854644695,0.5,0.362151394498321,0.5,0.5,0.962126864269012,0.189989883667293,0.5,0.5,0.5,0.772880123313669,0.227119876686331,0.772880123313669,0.5,0.772880123313669,0.173930507925814,0.388141783058894,-0.5,-0.137848605501679,0.5,0.275697211003358,0.83411467730976,0.371656025128662,2.24197342555306,0.5,74.4147693262419
CBC_1031,CBC_1031_MSI_AV_v3_Vset6_Aset2_2023-10-20_12h20.15.905.csv,3,41,3,1,z,0,1,3,aud,B,27,1,3B,1B,0,1,z,2.77038969999921,0,1,1,1,1B,3B,B31,3.3322045101752,0.90032854644695,0.189989883667293,0.362151394498321,0.362151394498321,0.389678142515621,0.90032854644695,0.5,0.362151394498321,0.5,0.5,0.962126864269012,0.189989883667293,0.5,0.5,0.362151394498321,0.772880123313669,0.940861792667824,0.0591382073321755,0.90032854644695,0.362151394498321,0.121515287421632,0.675692933915576,0.09967145355305,0.0274791417612266,0.5,0.275697211003358,0.83411467730976,0.371656025128662,2.24197342555306,0.5,74.4147693262419
CBC_1031,CBC_1031_MSI_AV_v3_Vset6_Aset2_2023-10-20_12h20.15.905.csv,3,42,3,0,b,1,0,2,aud,D,9,1,3D,0D,1,0,b,4.70598749999954,1,0,1,1,3D,0D,D30,4.04305126783455,0.90032854644695,0.189989883667293,0.362151394498321,0.362151394498321,0.389678142515621,0.927807688208177,0.5,0.362151394498321,0.5,0.5,0.962126864269012,0.189989883667293,0.5,0.5,0.362151394498321,0.772880123313669,0.772880123313669,0.227119876686331,0.772880123313669,0.5,0.0161905615399773,0.612102018292406,0.227119876686331,0.0626163165658481,0.5,0.275697211003358,0.83411467730976,0.371656025128662,2.24197342555306,0.5,74.4147693262419
CBC_1031,CBC_1031_MSI_AV_v3_Vset6_Aset2_2023-10-20_12h20.15.905.csv,3,43,0,1,z,0,1,3,aud,B,63,1,0B,1B,0,1,b,1.60974149999856,1,0,0,0,0B,1B,B01,2.67414864942653,0.90032854644695,0.189989883667293,0.362151394498321,0.362151394498321,0.389678142515621,0.927807688208177,0.5,0.362151394498321,0.5,0.5,0.962126864269012,0.189989883667293,0.5,0.5,0.362151394498321,0.835496439879517,0.0473285558365884,0.952671444163412,0.389678142515621,0.927807688208177,0.189864918641097,0.319138020261045,-0.389678142515621,-0.107433177080526,0.5,0.275697211003358,0.83411467730976,0.371656025128662,2.24197342555306,0.5,74.4147693262419
CBC_1031,CBC_1031_MSI_AV_v3_Vset6_Aset2_2023-10-20_12h20.15.905.csv,3,44,0,1,b,1,0,0,aud,A,63,1,0A,1A,1,0,b,2.09040689999892,1,0,1,1,0A,1A,A01,2.97892515523761,0.90032854644695,0.189989883667293,0.362151394498321,0.362151394498321,0.282244965435095,0.927807688208177,0.5,0.362151394498321,0.5,0.5,0.962126864269012,0.189989883667293,0.5,0.5,0.362151394498321,0.835496439879517,0.97469089915023,0.0253091008497704,0.90032854644695,0.189989883667293,0.249991500263145,0.687966435663266,0.09967145355305,0.0274791417612266,0.5,0.275697211003358,0.83411467730976,0.371656025128662,2.24197342555306,0.5,74.4147693262419
