ID,filename,session,trial,visStimLeft,visStimRight,correctKey,leftCorrect,rightCorrect,secondStim,mod2Type,mod2Stim,frequency,rewardAccurate,stimPairLeft,stimPairRight,pCorrectLeft,pCorrectRight,key,reactionTime,choiceLeft,choiceRight,choiceAccurate,reward,chosenPair,otherPair,triplet,surprise,0A belief,1A belief,2A belief,3A belief,0B belief,1B belief,2B belief,3B belief,0C belief,1C belief,2C belief,3C belief,0D belief,1D belief,2D belief,3D belief,beliefPairNorm,beliefOtherPairNorm,beliefPair,beliefOtherPair,lik,corrLik,rewardPE,update2,fitCBCsimpleRW_CBCdriftDiffusionLR_startBelief,fitCBCsimpleRW_CBCdriftDiffusionLR_alpha1,fitCBCsimpleRW_CBCdriftDiffusionLR_nonDecisionTime,fitCBCsimpleRW_CBCdriftDiffusionLR_weight,fitCBCsimpleRW_CBCdriftDiffusionLR_startingBoundary,fitCBCsimpleRW_CBCdriftDiffusionLR_startingPoint,fit_CBCsimpleRW_CBCdriftDiffusionLR_NLL
CBC_1031,CBC_1031_MSI_AV_v3_Vset1_Aset1_2023-10-20_10h25.09.885.csv,1,1,0,1,b,1,0,0,aud,A,63,1,0A,1A,1,0,b,2.23747240000193,1,0,1,1,0A,1A,A01,2.77258872223978,0.5,0.5,0.5,0.5,0.5,0.5,0.5,0.5,0.5,0.5,0.5,0.5,0.5,0.5,0.5,0.5,0.5,0.5,0.5,0.5,0.122098160178411,0.499467251605043,0.5,0.187575957683604,0.5,0.375151915367208,0.326164098380006,0.232087221475256,2.97925766609394,0.5,96.8655533089841
CBC_1031,CBC_1031_MSI_AV_v3_Vset1_Aset1_2023-10-20_10h25.09.885.csv,1,2,3,2,z,0,1,1,aud,C,63,1,3C,2C,0,1,z,1.32212889999937,0,1,1,1,2C,3C,C32,2.83321334405622,0.687575957683604,0.5,0.5,0.5,0.5,0.5,0.5,0.5,0.5,0.5,0.5,0.5,0.5,0.5,0.5,0.5,0.5,0.5,0.5,0.5,0.195676696970601,0.498726542023791,0.5,0.187575957683604,0.5,0.375151915367208,0.326164098380006,0.232087221475256,2.97925766609394,0.5,96.8655533089841
CBC_1031,CBC_1031_MSI_AV_v3_Vset1_Aset1_2023-10-20_10h25.09.885.csv,1,3,0,2,b,1,0,0,aud,A,27,1,0A,2A,1,0,b,1.81188900000052,1,0,1,1,0A,2A,A02,2.89037175789616,0.687575957683604,0.5,0.5,0.5,0.5,0.5,0.5,0.5,0.5,0.5,0.687575957683604,0.5,0.5,0.5,0.5,0.5,0.578974299062721,0.421025700937279,0.687575957683604,0.5,0.16266521147222,0.526773305450725,0.312424042316396,0.117206477881762,0.5,0.375151915367208,0.326164098380006,0.232087221475256,2.97925766609394,0.5,96.8655533089841
CBC_1031,CBC_1031_MSI_AV_v3_Vset1_Aset1_2023-10-20_10h25.09.885.csv,1,4,1,0,b,1,0,3,aud,B,63,1,1B,0B,1,0,z,3.1904013000003,0,1,0,0,0B,1B,B10,2.94443897916644,0.804782435565366,0.5,0.5,0.5,0.5,0.5,0.5,0.5,0.5,0.5,0.687575957683604,0.5,0.5,0.5,0.5,0.5,0.5,0.5,0.5,0.5,0.0719232104520717,0.499455002445336,-0.5,-0.187575957683604,0.5,0.375151915367208,0.326164098380006,0.232087221475256,2.97925766609394,0.5,96.8655533089841
CBC_1031,CBC_1031_MSI_AV_v3_Vset1_Aset1_2023-10-20_10h25.09.885.csv,1,5,0,1,z,0,1,3,aud,B,63,1,0B,1B,0,1,b,2.06485919999977,1,0,0,0,0B,1B,B01,2.99573227355399,0.804782435565366,0.5,0.5,0.5,0.312424042316396,0.5,0.5,0.5,0.5,0.5,0.687575957683604,0.5,0.5,0.5,0.5,0.5,0.384557849156713,0.615442150843287,0.312424042316396,0.5,0.123788483352897,0.460050991231826,-0.312424042316396,-0.117206477881762,0.5,0.375151915367208,0.326164098380006,0.232087221475256,2.97925766609394,0.5,96.8655533089841
CBC_1031,CBC_1031_MSI_AV_v3_Vset1_Aset1_2023-10-20_10h25.09.885.csv,1,6,3,2,z,0,1,1,aud,C,63,1,3C,2C,0,1,z,1.70574160000069,0,1,1,1,2C,3C,C32,2.35137525716348,0.804782435565366,0.5,0.5,0.5,0.195217564434634,0.5,0.5,0.5,0.5,0.5,0.687575957683604,0.5,0.5,0.5,0.5,0.5,0.578974299062721,0.421025700937279,0.687575957683604,0.5,0.172212606544063,0.526983330201785,0.312424042316396,0.117206477881762,0.5,0.375151915367208,0.326164098380006,0.232087221475256,2.97925766609394,0.5,96.8655533089841
CBC_1031,CBC_1031_MSI_AV_v3_Vset1_Aset1_2023-10-20_10h25.09.885.csv,1,7,3,1,b,1,0,2,aud,D,27,1,3D,1D,1,0,b,2.17132569999922,1,0,1,1,3D,1D,D31,3.09104245335832,0.804782435565366,0.5,0.5,0.5,0.195217564434634,0.5,0.5,0.5,0.5,0.5,0.804782435565366,0.5,0.5,0.5,0.5,0.5,0.5,0.5,0.5,0.5,0.126872244191122,0.500361246339704,0.5,0.187575957683604,0.5,0.375151915367208,0.326164098380006,0.232087221475256,2.97925766609394,0.5,96.8655533089841
CBC_1031,CBC_1031_MSI_AV_v3_Vset1_Aset1_2023-10-20_10h25.09.885.csv,1,8,1,2,z,0,1,1,aud,C,9,1,1C,2C,0,1,b,5.08116520000112,1,0,0,0,1C,2C,C12,3.13549421592915,0.804782435565366,0.5,0.5,0.5,0.195217564434634,0.5,0.5,0.5,0.5,0.5,0.804782435565366,0.5,0.5,0.5,0.5,0.687575957683604,0.383205648981126,0.616794351018874,0.5,0.804782435565366,0.0230518420570313,0.459711218904787,-0.5,-0.187575957683604,0.5,0.375151915367208,0.326164098380006,0.232087221475256,2.97925766609394,0.5,96.8655533089841
CBC_1031,CBC_1031_MSI_AV_v3_Vset1_Aset1_2023-10-20_10h25.09.885.csv,1,9,3,1,z,0,1,3,aud,B,27,1,3B,1B,0,1,b,1.30998390000059,1,0,0,0,3B,1B,B31,3.17805383034795,0.804782435565366,0.5,0.5,0.5,0.195217564434634,0.5,0.5,0.5,0.5,0.312424042316396,0.804782435565366,0.5,0.5,0.5,0.5,0.687575957683604,0.5,0.5,0.5,0.5,0.196703699866087,0.498996660149481,-0.5,-0.187575957683604,0.5,0.375151915367208,0.326164098380006,0.232087221475256,2.97925766609394,0.5,96.8655533089841
CBC_1031,CBC_1031_MSI_AV_v3_Vset1_Aset1_2023-10-20_10h25.09.885.csv,1,10,3,2,b,1,0,2,aud,D,63,1,3D,2D,NaN,NaN,[],NaN,NaN,NaN,NaN,NaN,,,D32,3.2188758248682,0.804782435565366,0.5,0.5,0.5,0.195217564434634,0.5,0.5,0.312424042316396,0.5,0.312424042316396,0.804782435565366,0.5,0.5,0.5,0.5,0.687575957683604,0,0,0,0,NaN,0,0,0,0.5,0.375151915367208,0.326164098380006,0.232087221475256,2.97925766609394,0.5,96.8655533089841
CBC_1031,CBC_1031_MSI_AV_v3_Vset1_Aset1_2023-10-20_10h25.09.885.csv,1,11,1,0,b,1,0,3,aud,B,63,1,1B,0B,1,0,z,0.846583200000168,0,1,0,0,0B,1B,B10,2.56494935746154,0.804782435565366,0.5,0.5,0.5,0.195217564434634,0.5,0.5,0.312424042316396,0.5,0.312424042316396,0.804782435565366,0.5,0.5,0.5,0.5,0.687575957683604,0.280800679415212,0.719199320584788,0.195217564434634,0.5,0.160727095442958,0.424260195103413,-0.195217564434634,-0.0732362432109744,0.5,0.375151915367208,0.326164098380006,0.232087221475256,2.97925766609394,0.5,96.8655533089841
CBC_1031,CBC_1031_MSI_AV_v3_Vset1_Aset1_2023-10-20_10h25.09.885.csv,1,12,0,2,z,0,1,1,aud,C,27,1,0C,2C,0,1,b,1.05026329999964,1,0,0,0,0C,2C,C02,3.29583686600433,0.804782435565366,0.5,0.5,0.5,0.12198132122366,0.5,0.5,0.312424042316396,0.5,0.312424042316396,0.804782435565366,0.5,0.5,0.5,0.5,0.687575957683604,0.383205648981126,0.616794351018874,0.5,0.804782435565366,0.192302942414865,0.460468111908621,-0.5,-0.187575957683604,0.5,0.375151915367208,0.326164098380006,0.232087221475256,2.97925766609394,0.5,96.8655533089841
CBC_1031,CBC_1031_MSI_AV_v3_Vset1_Aset1_2023-10-20_10h25.09.885.csv,1,13,3,2,b,1,0,2,aud,D,63,0,3D,2D,0,1,z,5.77476779999961,0,1,0,1,2D,3D,D32,2.63905732961526,0.804782435565366,0.5,0.5,0.5,0.12198132122366,0.5,0.5,0.312424042316396,0.312424042316396,0.312424042316396,0.804782435565366,0.5,0.5,0.5,0.5,0.687575957683604,0.421025700937279,0.578974299062721,0.5,0.687575957683604,0.0161778567433139,0.473626826487361,0.5,0.187575957683604,0.5,0.375151915367208,0.326164098380006,0.232087221475256,2.97925766609394,0.5,96.8655533089841
CBC_1031,CBC_1031_MSI_AV_v3_Vset1_Aset1_2023-10-20_10h25.09.885.csv,1,14,1,0,z,0,1,0,aud,A,63,1,1A,0A,0,1,b,3.54580329999953,1,0,0,0,1A,0A,A10,3.36729582998647,0.804782435565366,0.5,0.5,0.5,0.12198132122366,0.5,0.5,0.312424042316396,0.312424042316396,0.312424042316396,0.804782435565366,0.5,0.5,0.5,0.687575957683604,0.687575957683604,0.383205648981126,0.616794351018874,0.5,0.804782435565366,0.0542134648488977,0.459404474386144,-0.5,-0.187575957683604,0.5,0.375151915367208,0.326164098380006,0.232087221475256,2.97925766609394,0.5,96.8655533089841
CBC_1031,CBC_1031_MSI_AV_v3_Vset1_Aset1_2023-10-20_10h25.09.885.csv,1,15,2,3,b,1,0,1,aud,C,63,1,2C,3C,1,0,z,3.13303540000197,0,1,0,0,3C,2C,C23,3.40119738166216,0.804782435565366,0.312424042316396,0.5,0.5,0.12198132122366,0.5,0.5,0.312424042316396,0.312424042316396,0.312424042316396,0.804782435565366,0.5,0.5,0.5,0.687575957683604,0.687575957683604,0.383205648981126,0.616794351018874,0.5,0.804782435565366,0.0682485950537691,0.459464604758764,-0.5,-0.187575957683604,0.5,0.375151915367208,0.326164098380006,0.232087221475256,2.97925766609394,0.5,96.8655533089841
CBC_1031,CBC_1031_MSI_AV_v3_Vset1_Aset1_2023-10-20_10h25.09.885.csv,1,16,0,2,b,1,0,0,aud,A,27,1,0A,2A,1,0,z,1.11289510000097,0,1,0,0,2A,0A,A02,2.7408400239252,0.804782435565366,0.312424042316396,0.5,0.5,0.12198132122366,0.5,0.5,0.312424042316396,0.312424042316396,0.312424042316396,0.804782435565366,0.312424042316396,0.5,0.5,0.687575957683604,0.687575957683604,0.383205648981126,0.616794351018874,0.5,0.804782435565366,0.191471357155859,0.459614551401498,-0.5,-0.187575957683604,0.5,0.375151915367208,0.326164098380006,0.232087221475256,2.97925766609394,0.5,96.8655533089841
CBC_1031,CBC_1031_MSI_AV_v3_Vset1_Aset1_2023-10-20_10h25.09.885.csv,1,17,2,3,z,0,1,2,aud,D,63,1,2D,3D,0,1,b,1.17194650000056,1,0,0,0,2D,3D,D23,3.46573590279973,0.804782435565366,0.312424042316396,0.312424042316396,0.5,0.12198132122366,0.5,0.5,0.312424042316396,0.312424042316396,0.312424042316396,0.804782435565366,0.312424042316396,0.5,0.5,0.687575957683604,0.687575957683604,0.5,0.5,0.687575957683604,0.687575957683604,0.205398668297544,0.499126310206026,-0.687575957683604,-0.257945437485446,0.5,0.375151915367208,0.326164098380006,0.232087221475256,2.97925766609394,0.5,96.8655533089841
CBC_1031,CBC_1031_MSI_AV_v3_Vset1_Aset1_2023-10-20_10h25.09.885.csv,1,18,3,2,b,1,0,2,aud,D,63,1,3D,2D,1,0,b,1.64930420000019,1,0,1,1,3D,2D,D32,2.39789527279837,0.804782435565366,0.312424042316396,0.312424042316396,0.5,0.12198132122366,0.5,0.5,0.312424042316396,0.312424042316396,0.312424042316396,0.804782435565366,0.312424042316396,0.5,0.5,0.429630520198158,0.687575957683604,0.615442150843287,0.384557849156713,0.687575957683604,0.429630520198158,0.181941024336007,0.540155397998246,0.312424042316396,0.117206477881762,0.5,0.375151915367208,0.326164098380006,0.232087221475256,2.97925766609394,0.5,96.8655533089841
CBC_1031,CBC_1031_MSI_AV_v3_Vset1_Aset1_2023-10-20_10h25.09.885.csv,1,19,3,1,z,0,1,3,aud,B,27,1,3B,1B,0,1,z,2.55687640000178,0,1,1,1,1B,3B,B31,2.83321334405622,0.804782435565366,0.312424042316396,0.312424042316396,0.5,0.12198132122366,0.5,0.5,0.312424042316396,0.312424042316396,0.312424042316396,0.804782435565366,0.312424042316396,0.5,0.5,0.429630520198158,0.804782435565366,0.615442150843287,0.384557849156713,0.5,0.312424042316396,0.110690583109325,0.540553699802555,0.5,0.187575957683604,0.5,0.375151915367208,0.326164098380006,0.232087221475256,2.97925766609394,0.5,96.8655533089841
CBC_1031,CBC_1031_MSI_AV_v3_Vset1_Aset1_2023-10-20_10h25.09.885.csv,1,20,0,3,z,0,1,2,aud,D,9,1,0D,3D,0,1,z,1.9261361000008,0,1,1,1,3D,0D,D03,3.55534806148941,0.804782435565366,0.312424042316396,0.312424042316396,0.5,0.12198132122366,0.687575957683604,0.5,0.312424042316396,0.312424042316396,0.312424042316396,0.804782435565366,0.312424042316396,0.5,0.5,0.429630520198158,0.804782435565366,0.616794351018874,0.383205648981126,0.804782435565366,0.5,0.156845525263754,0.540131675064776,0.195217564434634,0.0732362432109744,0.5,0.375151915367208,0.326164098380006,0.232087221475256,2.97925766609394,0.5,96.8655533089841
CBC_1031,CBC_1031_MSI_AV_v3_Vset1_Aset1_2023-10-20_10h25.09.885.csv,1,21,1,0,b,1,0,3,aud,B,63,1,1B,0B,1,0,b,2.43895520000115,1,0,1,1,1B,0B,B10,2.484906649788,0.804782435565366,0.312424042316396,0.312424042316396,0.5,0.12198132122366,0.687575957683604,0.5,0.312424042316396,0.312424042316396,0.312424042316396,0.804782435565366,0.312424042316396,0.5,0.5,0.429630520198158,0.87801867877634,0.849323421082311,0.150676578917689,0.687575957683604,0.12198132122366,0.135421467414502,0.618715925531344,0.312424042316396,0.117206477881762,0.5,0.375151915367208,0.326164098380006,0.232087221475256,2.97925766609394,0.5,96.8655533089841
CBC_1031,CBC_1031_MSI_AV_v3_Vset1_Aset1_2023-10-20_10h25.09.885.csv,1,22,1,0,z,0,1,0,aud,A,63,1,1A,0A,0,1,z,1.12174670000059,0,1,1,1,0A,1A,A10,2.91777073208428,0.804782435565366,0.312424042316396,0.312424042316396,0.5,0.12198132122366,0.804782435565366,0.5,0.312424042316396,0.312424042316396,0.312424042316396,0.804782435565366,0.312424042316396,0.5,0.5,0.429630520198158,0.87801867877634,0.720352460801377,0.279647539198623,0.804782435565366,0.312424042316396,0.240421566984333,0.574792534291492,0.195217564434634,0.0732362432109744,0.5,0.375151915367208,0.326164098380006,0.232087221475256,2.97925766609394,0.5,96.8655533089841
CBC_1031,CBC_1031_MSI_AV_v3_Vset1_Aset1_2023-10-20_10h25.09.885.csv,1,23,2,3,b,1,0,1,aud,C,63,1,2C,3C,1,0,b,2.36111449999953,1,0,1,1,2C,3C,C23,2.94443897916644,0.87801867877634,0.312424042316396,0.312424042316396,0.5,0.12198132122366,0.804782435565366,0.5,0.312424042316396,0.312424042316396,0.312424042316396,0.804782435565366,0.312424042316396,0.5,0.5,0.429630520198158,0.87801867877634,0.720352460801377,0.279647539198623,0.804782435565366,0.312424042316396,0.131519008188803,0.575611747505163,0.195217564434634,0.0732362432109744,0.5,0.375151915367208,0.326164098380006,0.232087221475256,2.97925766609394,0.5,96.8655533089841
CBC_1031,CBC_1031_MSI_AV_v3_Vset1_Aset1_2023-10-20_10h25.09.885.csv,1,24,0,2,b,1,0,0,aud,A,27,1,0A,2A,1,0,z,5.16000040000108,0,1,0,0,2A,0A,A02,2.56494935746154,0.87801867877634,0.312424042316396,0.312424042316396,0.5,0.12198132122366,0.804782435565366,0.5,0.312424042316396,0.312424042316396,0.312424042316396,0.87801867877634,0.312424042316396,0.5,0.5,0.429630520198158,0.87801867877634,0.262443573958447,0.737556426041553,0.312424042316396,0.87801867877634,0.0198823754994895,0.419256480448207,-0.312424042316396,-0.117206477881762,0.5,0.375151915367208,0.326164098380006,0.232087221475256,2.97925766609394,0.5,96.8655533089841
CBC_1031,CBC_1031_MSI_AV_v3_Vset1_Aset1_2023-10-20_10h25.09.885.csv,1,25,1,0,b,1,0,3,aud,B,63,1,1B,0B,1,0,b,2.44494910000139,1,0,1,1,1B,0B,B10,2.30258509299405,0.87801867877634,0.312424042316396,0.195217564434634,0.5,0.12198132122366,0.804782435565366,0.5,0.312424042316396,0.312424042316396,0.312424042316396,0.87801867877634,0.312424042316396,0.5,0.5,0.429630520198158,0.87801867877634,0.868379271060091,0.131620728939909,0.804782435565366,0.12198132122366,0.136270914014125,0.624671198927596,0.195217564434634,0.0732362432109744,0.5,0.375151915367208,0.326164098380006,0.232087221475256,2.97925766609394,0.5,96.8655533089841
CBC_1031,CBC_1031_MSI_AV_v3_Vset1_Aset1_2023-10-20_10h25.09.885.csv,1,26,2,3,z,0,1,2,aud,D,63,1,2D,3D,0,1,z,4.05066750000151,0,1,1,1,3D,2D,D23,3.02042488614436,0.87801867877634,0.312424042316396,0.195217564434634,0.5,0.12198132122366,0.87801867877634,0.5,0.312424042316396,0.312424042316396,0.312424042316396,0.87801867877634,0.312424042316396,0.5,0.5,0.429630520198158,0.87801867877634,0.671448183094451,0.328551816905549,0.87801867877634,0.429630520198158,0.0498114211879016,0.560898528855454,0.12198132122366,0.0457615262960787,0.5,0.375151915367208,0.326164098380006,0.232087221475256,2.97925766609394,0.5,96.8655533089841
CBC_1031,CBC_1031_MSI_AV_v3_Vset1_Aset1_2023-10-20_10h25.09.885.csv,1,27,1,2,b,1,0,3,aud,B,9,1,1B,2B,1,0,b,2.67873720000171,1,0,1,1,1B,2B,B12,3.73766961828337,0.87801867877634,0.312424042316396,0.195217564434634,0.5,0.12198132122366,0.87801867877634,0.5,0.312424042316396,0.312424042316396,0.312424042316396,0.87801867877634,0.312424042316396,0.5,0.5,0.429630520198158,0.923780205072419,0.637160215822334,0.362839784177666,0.87801867877634,0.5,0.104540097586105,0.546405578855776,0.12198132122366,0.0457615262960787,0.5,0.375151915367208,0.326164098380006,0.232087221475256,2.97925766609394,0.5,96.8655533089841
CBC_1031,CBC_1031_MSI_AV_v3_Vset1_Aset1_2023-10-20_10h25.09.885.csv,1,28,1,3,z,0,1,2,aud,D,27,1,1D,3D,NaN,NaN,[],NaN,NaN,NaN,NaN,NaN,,,D13,3.76120011569356,0.87801867877634,0.312424042316396,0.195217564434634,0.5,0.12198132122366,0.923780205072419,0.5,0.312424042316396,0.312424042316396,0.312424042316396,0.87801867877634,0.312424042316396,0.5,0.5,0.429630520198158,0.923780205072419,0,0,0,0,NaN,0,0,0,0.5,0.375151915367208,0.326164098380006,0.232087221475256,2.97925766609394,0.5,96.8655533089841
CBC_1031,CBC_1031_MSI_AV_v3_Vset1_Aset1_2023-10-20_10h25.09.885.csv,1,29,1,0,z,0,1,0,aud,A,63,1,1A,0A,0,1,b,1.44215570000233,1,0,0,0,1A,0A,A10,2.68557734525015,0.87801867877634,0.312424042316396,0.195217564434634,0.5,0.12198132122366,0.923780205072419,0.5,0.312424042316396,0.312424042316396,0.312424042316396,0.87801867877634,0.312424042316396,0.5,0.5,0.429630520198158,0.923780205072419,0.262443573958447,0.737556426041553,0.312424042316396,0.87801867877634,0.157415874130743,0.419699975681426,-0.312424042316396,-0.117206477881762,0.5,0.375151915367208,0.326164098380006,0.232087221475256,2.97925766609394,0.5,96.8655533089841
CBC_1031,CBC_1031_MSI_AV_v3_Vset1_Aset1_2023-10-20_10h25.09.885.csv,1,30,0,1,b,1,0,0,aud,A,63,1,0A,1A,1,0,z,2.21747910000158,0,1,0,0,1A,0A,A01,3.11351530921037,0.87801867877634,0.195217564434634,0.195217564434634,0.5,0.12198132122366,0.923780205072419,0.5,0.312424042316396,0.312424042316396,0.312424042316396,0.87801867877634,0.312424042316396,0.5,0.5,0.429630520198158,0.923780205072419,0.181896172133146,0.818103827866854,0.195217564434634,0.87801867877634,0.0972986979077402,0.392327979116498,-0.195217564434634,-0.0732362432109744,0.5,0.375151915367208,0.326164098380006,0.232087221475256,2.97925766609394,0.5,96.8655533089841
CBC_1031,CBC_1031_MSI_AV_v3_Vset1_Aset1_2023-10-20_10h25.09.885.csv,1,31,0,2,z,0,1,1,aud,C,27,1,0C,2C,0,1,z,1.49603350000143,0,1,1,1,2C,0C,C02,3.13549421592915,0.87801867877634,0.12198132122366,0.195217564434634,0.5,0.12198132122366,0.923780205072419,0.5,0.312424042316396,0.312424042316396,0.312424042316396,0.87801867877634,0.312424042316396,0.5,0.5,0.429630520198158,0.923780205072419,0.737556426041553,0.262443573958447,0.87801867877634,0.312424042316396,0.213019167297765,0.582542533632961,0.12198132122366,0.0457615262960787,0.5,0.375151915367208,0.326164098380006,0.232087221475256,2.97925766609394,0.5,96.8655533089841
CBC_1031,CBC_1031_MSI_AV_v3_Vset1_Aset1_2023-10-20_10h25.09.885.csv,1,32,1,0,z,0,1,0,aud,A,63,1,1A,0A,0,1,z,2.51593220000177,0,1,1,1,0A,1A,A10,2.46385324059017,0.87801867877634,0.12198132122366,0.195217564434634,0.5,0.12198132122366,0.923780205072419,0.5,0.312424042316396,0.312424042316396,0.312424042316396,0.923780205072419,0.312424042316396,0.5,0.5,0.429630520198158,0.923780205072419,0.87801867877634,0.12198132122366,0.87801867877634,0.12198132122366,0.131611308549612,0.628217793782815,0.12198132122366,0.0457615262960787,0.5,0.375151915367208,0.326164098380006,0.232087221475256,2.97925766609394,0.5,96.8655533089841
CBC_1031,CBC_1031_MSI_AV_v3_Vset1_Aset1_2023-10-20_10h25.09.885.csv,1,33,1,0,b,1,0,3,aud,B,63,1,1B,0B,1,0,b,3.24788110000009,1,0,1,1,1B,0B,B10,2.26176309847379,0.923780205072419,0.12198132122366,0.195217564434634,0.5,0.12198132122366,0.923780205072419,0.5,0.312424042316396,0.312424042316396,0.312424042316396,0.923780205072419,0.312424042316396,0.5,0.5,0.429630520198158,0.923780205072419,0.883356464971801,0.116643535028199,0.923780205072419,0.12198132122366,0.0867579196738828,0.629210447161568,0.0762197949275812,0.0285940020559779,0.5,0.375151915367208,0.326164098380006,0.232087221475256,2.97925766609394,0.5,96.8655533089841
CBC_1031,CBC_1031_MSI_AV_v3_Vset1_Aset1_2023-10-20_10h25.09.885.csv,1,34,3,2,b,1,0,2,aud,D,63,1,3D,2D,1,0,z,4.04010180000114,0,1,0,0,2D,3D,D32,2.50552593699074,0.923780205072419,0.12198132122366,0.195217564434634,0.5,0.12198132122366,0.952374207128397,0.5,0.312424042316396,0.312424042316396,0.312424042316396,0.923780205072419,0.312424042316396,0.5,0.5,0.429630520198158,0.923780205072419,0.317442822179693,0.682557177820307,0.429630520198158,0.923780205072419,0.0391085627664014,0.437876143268486,-0.429630520198158,-0.161176712552549,0.5,0.375151915367208,0.326164098380006,0.232087221475256,2.97925766609394,0.5,96.8655533089841
CBC_1031,CBC_1031_MSI_AV_v3_Vset1_Aset1_2023-10-20_10h25.09.885.csv,1,35,3,1,z,0,1,3,aud,B,27,1,3B,1B,0,1,b,3.97338400000081,1,0,0,0,3B,1B,B31,2.81341071676004,0.923780205072419,0.12198132122366,0.195217564434634,0.5,0.12198132122366,0.952374207128397,0.5,0.312424042316396,0.312424042316396,0.312424042316396,0.923780205072419,0.312424042316396,0.5,0.5,0.268453807645609,0.923780205072419,0.247014923094288,0.752985076905712,0.312424042316396,0.952374207128397,0.0381753884095019,0.413751035806375,-0.312424042316396,-0.117206477881762,0.5,0.375151915367208,0.326164098380006,0.232087221475256,2.97925766609394,0.5,96.8655533089841
CBC_1031,CBC_1031_MSI_AV_v3_Vset1_Aset1_2023-10-20_10h25.09.885.csv,1,36,3,2,z,0,1,1,aud,C,63,1,3C,2C,0,1,b,1.32757250000031,1,0,0,0,3C,2C,C32,2.83321334405622,0.923780205072419,0.12198132122366,0.195217564434634,0.5,0.12198132122366,0.952374207128397,0.5,0.195217564434634,0.312424042316396,0.312424042316396,0.923780205072419,0.312424042316396,0.5,0.5,0.268453807645609,0.923780205072419,0.252728497718979,0.747271502281021,0.312424042316396,0.923780205072419,0.163873623512906,0.415243524693838,-0.312424042316396,-0.117206477881762,0.5,0.375151915367208,0.326164098380006,0.232087221475256,2.97925766609394,0.5,96.8655533089841
CBC_1031,CBC_1031_MSI_AV_v3_Vset1_Aset1_2023-10-20_10h25.09.885.csv,1,37,2,0,b,1,0,1,aud,C,27,1,2C,0C,1,0,z,1.91633929999989,0,1,0,0,0C,2C,C20,3.95124371858143,0.923780205072419,0.12198132122366,0.195217564434634,0.5,0.12198132122366,0.952374207128397,0.5,0.195217564434634,0.312424042316396,0.312424042316396,0.923780205072419,0.195217564434634,0.5,0.5,0.268453807645609,0.923780205072419,0.252728497718979,0.747271502281021,0.312424042316396,0.923780205072419,0.121820437043528,0.415986062017992,-0.312424042316396,-0.117206477881762,0.5,0.375151915367208,0.326164098380006,0.232087221475256,2.97925766609394,0.5,96.8655533089841
CBC_1031,CBC_1031_MSI_AV_v3_Vset1_Aset1_2023-10-20_10h25.09.885.csv,1,38,1,0,b,1,0,3,aud,B,63,1,1B,0B,1,0,b,0.592424000000392,1,0,1,1,1B,0B,B10,2.17853244432407,0.923780205072419,0.12198132122366,0.195217564434634,0.5,0.12198132122366,0.952374207128397,0.5,0.195217564434634,0.195217564434634,0.312424042316396,0.923780205072419,0.195217564434634,0.5,0.5,0.268453807645609,0.923780205072419,0.886460935877748,0.113539064122252,0.952374207128397,0.12198132122366,0.0871082838913634,0.629997511206963,0.0476257928716033,0.0178669074166639,0.5,0.375151915367208,0.326164098380006,0.232087221475256,2.97925766609394,0.5,96.8655533089841
CBC_1031,CBC_1031_MSI_AV_v3_Vset1_Aset1_2023-10-20_10h25.09.885.csv,1,39,3,0,z,0,1,0,aud,A,9,1,3A,0A,0,1,z,6.17670710000129,0,1,1,1,0A,3A,A30,3.98898404656427,0.923780205072419,0.12198132122366,0.195217564434634,0.5,0.12198132122366,0.970241114545061,0.5,0.195217564434634,0.195217564434634,0.312424042316396,0.923780205072419,0.195217564434634,0.5,0.5,0.268453807645609,0.923780205072419,0.648822200070854,0.351177799929146,0.923780205072419,0.5,0.0149634377075415,0.551455864353966,0.0762197949275812,0.0285940020559779,0.5,0.375151915367208,0.326164098380006,0.232087221475256,2.97925766609394,0.5,96.8655533089841
CBC_1031,CBC_1031_MSI_AV_v3_Vset1_Aset1_2023-10-20_10h25.09.885.csv,1,40,3,2,z,0,1,1,aud,C,63,0,3C,2C,1,0,b,4.26755720000074,1,0,0,1,3C,2C,C32,2.62103882411258,0.952374207128397,0.12198132122366,0.195217564434634,0.5,0.12198132122366,0.970241114545061,0.5,0.195217564434634,0.195217564434634,0.312424042316396,0.923780205072419,0.195217564434634,0.5,0.5,0.268453807645609,0.923780205072419,0.174457509884611,0.825542490115389,0.195217564434634,0.923780205072419,0.0300604483599952,0.387782578119018,0.804782435565366,0.301915672156234,0.5,0.375151915367208,0.326164098380006,0.232087221475256,2.97925766609394,0.5,96.8655533089841
CBC_1031,CBC_1031_MSI_AV_v3_Vset1_Aset1_2023-10-20_10h25.09.885.csv,1,41,1,0,z,0,1,0,aud,A,63,1,1A,0A,0,1,z,0.614748300000429,0,1,1,1,0A,1A,A10,2.41591377830105,0.952374207128397,0.12198132122366,0.195217564434634,0.5,0.12198132122366,0.970241114545061,0.5,0.195217564434634,0.195217564434634,0.312424042316396,0.923780205072419,0.497133236590868,0.5,0.5,0.268453807645609,0.923780205072419,0.886460935877748,0.113539064122252,0.952374207128397,0.12198132122366,0.106332363511095,0.629126208707915,0.0476257928716033,0.0178669074166639,0.5,0.375151915367208,0.326164098380006,0.232087221475256,2.97925766609394,0.5,96.8655533089841
CBC_1031,CBC_1031_MSI_AV_v3_Vset1_Aset1_2023-10-20_10h25.09.885.csv,1,42,3,2,b,1,0,2,aud,D,63,1,3D,2D,1,0,b,1.67754310000055,1,0,1,1,3D,2D,D32,2.43361335540045,0.970241114545061,0.12198132122366,0.195217564434634,0.5,0.12198132122366,0.970241114545061,0.5,0.195217564434634,0.195217564434634,0.312424042316396,0.923780205072419,0.497133236590868,0.5,0.5,0.268453807645609,0.923780205072419,0.774831279109716,0.225168720890284,0.923780205072419,0.268453807645609,0.198022605602334,0.59330135064462,0.0762197949275812,0.0285940020559779,0.5,0.375151915367208,0.326164098380006,0.232087221475256,2.97925766609394,0.5,96.8655533089841
CBC_1031,CBC_1031_MSI_AV_v3_Vset1_Aset1_2023-10-20_10h25.09.885.csv,1,43,2,3,b,1,0,1,aud,C,63,1,2C,3C,1,0,z,2.16309740000179,0,1,0,0,3C,2C,C23,2.96183072187831,0.970241114545061,0.12198132122366,0.195217564434634,0.5,0.12198132122366,0.970241114545061,0.5,0.195217564434634,0.195217564434634,0.312424042316396,0.923780205072419,0.497133236590868,0.5,0.5,0.268453807645609,0.952374207128397,0.349868768930031,0.650131231069969,0.497133236590868,0.923780205072419,0.11433493830223,0.448462968836957,-0.497133236590868,-0.186500485899764,0.5,0.375151915367208,0.326164098380006,0.232087221475256,2.97925766609394,0.5,96.8655533089841
CBC_1031,CBC_1031_MSI_AV_v3_Vset1_Aset1_2023-10-20_10h25.09.885.csv,1,44,1,3,z,0,1,2,aud,D,27,1,1D,3D,0,1,z,1.85988330000146,0,1,1,1,3D,1D,D13,3.38439026334577,0.970241114545061,0.12198132122366,0.195217564434634,0.5,0.12198132122366,0.970241114545061,0.5,0.195217564434634,0.195217564434634,0.312424042316396,0.923780205072419,0.310632750691104,0.5,0.5,0.268453807645609,0.952374207128397,0.655736106062783,0.344263893937217,0.952374207128397,0.5,0.166724719524978,0.553374316839817,0.0476257928716033,0.0178669074166639,0.5,0.375151915367208,0.326164098380006,0.232087221475256,2.97925766609394,0.5,96.8655533089841
CBC_1031,CBC_1031_MSI_TV_v3_Vset3_Tset1_2023-10-20_12h11.47.981.csv,2,1,0,1,z,0,1,3,tac,B,63,1,0B,1B,0,1,z,2.34579049999957,0,1,1,1,1B,0B,B01,2.77258872223978,0.5,0.5,0.5,0.5,0.5,0.5,0.5,0.5,0.5,0.5,0.5,0.5,0.5,0.5,0.5,0.5,0.5,0.5,0.5,0.5,0.154911808086756,0.500246904129986,0.5,0.00157917711900174,0.5,0.00315835423800348,0.867002968027059,0.0625,2.98232912904846,0.5,130.235531748268
CBC_1031,CBC_1031_MSI_TV_v3_Vset3_Tset1_2023-10-20_12h11.47.981.csv,2,2,2,3,z,0,1,2,tac,D,63,1,2D,3D,0,1,b,2.47541169999931,1,0,0,0,2D,3D,D23,2.83321334405622,0.5,0.5,0.5,0.5,0.5,0.501579177119002,0.5,0.5,0.5,0.5,0.5,0.5,0.5,0.5,0.5,0.5,0.5,0.5,0.5,0.5,0.144161238542463,0.499315463098254,-0.5,-0.00157917711900174,0.5,0.00315835423800348,0.867002968027059,0.0625,2.98232912904846,0.5,130.235531748268
CBC_1031,CBC_1031_MSI_TV_v3_Vset3_Tset1_2023-10-20_12h11.47.981.csv,2,3,1,3,b,1,0,3,tac,B,27,1,1B,3B,1,0,z,1.07859070000086,0,1,0,0,3B,1B,B13,2.89037175789616,0.5,0.5,0.5,0.5,0.5,0.501579177119002,0.5,0.5,0.5,0.5,0.5,0.5,0.5,0.5,0.498420822880998,0.5,0.499211656374714,0.500788343625286,0.5,0.501579177119002,0.031872929406074,0.499100464884445,-0.5,-0.00157917711900174,0.5,0.00315835423800348,0.867002968027059,0.0625,2.98232912904846,0.5,130.235531748268
CBC_1031,CBC_1031_MSI_TV_v3_Vset3_Tset1_2023-10-20_12h11.47.981.csv,2,4,3,2,z,0,1,1,tac,C,63,1,3C,2C,0,1,z,3.88432180000018,0,1,1,1,2C,3C,C32,2.94443897916644,0.5,0.5,0.5,0.5,0.5,0.501579177119002,0.5,0.498420822880998,0.5,0.5,0.5,0.5,0.5,0.5,0.498420822880998,0.5,0.5,0.5,0.5,0.5,0.0661724855782263,0.499643783488046,0.5,0.00157917711900174,0.5,0.00315835423800348,0.867002968027059,0.0625,2.98232912904846,0.5,130.235531748268
CBC_1031,CBC_1031_MSI_TV_v3_Vset3_Tset1_2023-10-20_12h11.47.981.csv,2,5,2,0,b,1,0,1,tac,C,27,1,2C,0C,1,0,z,2.45832010000049,0,1,0,0,0C,2C,C20,2.99573227355399,0.5,0.5,0.5,0.5,0.5,0.501579177119002,0.5,0.498420822880998,0.5,0.5,0.501579177119002,0.5,0.5,0.5,0.498420822880998,0.5,0.499211656374714,0.500788343625286,0.5,0.501579177119002,0.145483334923926,0.499232708493956,-0.5,-0.00157917711900174,0.5,0.00315835423800348,0.867002968027059,0.0625,2.98232912904846,0.5,130.235531748268
CBC_1031,CBC_1031_MSI_TV_v3_Vset3_Tset1_2023-10-20_12h11.47.981.csv,2,6,3,0,z,0,1,0,tac,A,9,1,3A,0A,0,1,b,1.43770810000024,1,0,0,0,3A,0A,A30,3.04452243772342,0.5,0.5,0.5,0.5,0.5,0.501579177119002,0.5,0.498420822880998,0.498420822880998,0.5,0.501579177119002,0.5,0.5,0.5,0.498420822880998,0.5,0.5,0.5,0.5,0.5,0.196672290646529,0.499966452546599,-0.5,-0.00157917711900174,0.5,0.00315835423800348,0.867002968027059,0.0625,2.98232912904846,0.5,130.235531748268
CBC_1031,CBC_1031_MSI_TV_v3_Vset3_Tset1_2023-10-20_12h11.47.981.csv,2,7,3,2,z,0,1,1,tac,C,63,1,3C,2C,0,1,z,3.49742979999974,0,1,1,1,2C,3C,C32,2.39789527279837,0.5,0.5,0.5,0.498420822880998,0.5,0.501579177119002,0.5,0.498420822880998,0.498420822880998,0.5,0.501579177119002,0.5,0.5,0.5,0.498420822880998,0.5,0.500788343625286,0.499211656374714,0.501579177119002,0.5,0.0821121166783616,0.50023524035534,0.498420822880998,0.00157418951825538,0.5,0.00315835423800348,0.867002968027059,0.0625,2.98232912904846,0.5,130.235531748268
CBC_1031,CBC_1031_MSI_TV_v3_Vset3_Tset1_2023-10-20_12h11.47.981.csv,2,8,0,1,b,1,0,0,tac,A,63,1,0A,1A,1,0,z,3.21850429999904,0,1,0,0,1A,0A,A01,3.13549421592915,0.5,0.5,0.5,0.498420822880998,0.5,0.501579177119002,0.5,0.498420822880998,0.498420822880998,0.5,0.503153366637257,0.5,0.5,0.5,0.498420822880998,0.5,0.5,0.5,0.5,0.5,0.0958716035228786,0.500350768920436,-0.5,-0.00157917711900174,0.5,0.00315835423800348,0.867002968027059,0.0625,2.98232912904846,0.5,130.235531748268
CBC_1031,CBC_1031_MSI_TV_v3_Vset3_Tset1_2023-10-20_12h11.47.981.csv,2,9,3,2,b,1,0,2,tac,D,63,1,3D,2D,1,0,z,2.77153720000024,0,1,0,0,2D,3D,D32,3.17805383034795,0.5,0.498420822880998,0.5,0.498420822880998,0.5,0.501579177119002,0.5,0.498420822880998,0.498420822880998,0.5,0.503153366637257,0.5,0.5,0.5,0.498420822880998,0.5,0.499209162568122,0.500790837431878,0.498420822880998,0.5,0.122763813503552,0.500257780378452,-0.498420822880998,-0.00157418951825538,0.5,0.00315835423800348,0.867002968027059,0.0625,2.98232912904846,0.5,130.235531748268
CBC_1031,CBC_1031_MSI_TV_v3_Vset3_Tset1_2023-10-20_12h11.47.981.csv,2,10,2,3,b,1,0,1,tac,C,63,1,2C,3C,1,0,b,2.78660270000182,1,0,1,1,2C,3C,C23,3.2188758248682,0.5,0.498420822880998,0.5,0.498420822880998,0.5,0.501579177119002,0.5,0.498420822880998,0.498420822880998,0.5,0.503153366637257,0.5,0.5,0.5,0.496846633362743,0.5,0.50157172708687,0.49842827291313,0.503153366637257,0.5,0.121615835698039,0.4997189284137,0.496846633362743,0.00156921767011898,0.5,0.00315835423800348,0.867002968027059,0.0625,2.98232912904846,0.5,130.235531748268
CBC_1031,CBC_1031_MSI_TV_v3_Vset3_Tset1_2023-10-20_12h11.47.981.csv,2,11,1,3,z,0,1,2,tac,D,27,1,1D,3D,0,1,z,2.57680160000018,0,1,1,1,3D,1D,D13,3.25809653802148,0.5,0.498420822880998,0.5,0.498420822880998,0.5,0.501579177119002,0.5,0.498420822880998,0.498420822880998,0.5,0.504722584307376,0.5,0.5,0.5,0.496846633362743,0.5,0.5,0.5,0.5,0.5,0.136674183192854,0.500343800232569,0.5,0.00157917711900174,0.5,0.00315835423800348,0.867002968027059,0.0625,2.98232912904846,0.5,130.235531748268
CBC_1031,CBC_1031_MSI_TV_v3_Vset3_Tset1_2023-10-20_12h11.47.981.csv,2,12,1,0,z,0,1,0,tac,A,63,0,1A,0A,1,0,z,3.1894601999993,0,1,1,0,0A,1A,A10,3.29583686600433,0.5,0.498420822880998,0.5,0.498420822880998,0.5,0.501579177119002,0.5,0.498420822880998,0.498420822880998,0.5,0.504722584307376,0.5,0.5,0.5,0.496846633362743,0.501579177119002,0.500790837431878,0.499209162568122,0.5,0.498420822880998,0.0972863735973329,0.499624143471338,-0.5,-0.00157917711900174,0.5,0.00315835423800348,0.867002968027059,0.0625,2.98232912904846,0.5,130.235531748268
CBC_1031,CBC_1031_MSI_TV_v3_Vset3_Tset1_2023-10-20_12h11.47.981.csv,2,13,2,3,b,1,0,1,tac,C,63,1,2C,3C,1,0,z,3.41390169999977,0,1,0,0,3C,2C,C23,2.63905732961526,0.498420822880998,0.498420822880998,0.5,0.498420822880998,0.5,0.501579177119002,0.5,0.498420822880998,0.498420822880998,0.5,0.504722584307376,0.5,0.5,0.5,0.496846633362743,0.501579177119002,0.497649806831688,0.502350193168312,0.5,0.504722584307376,0.085811026992614,0.499100911138024,-0.5,-0.00157917711900174,0.5,0.00315835423800348,0.867002968027059,0.0625,2.98232912904846,0.5,130.235531748268
CBC_1031,CBC_1031_MSI_TV_v3_Vset3_Tset1_2023-10-20_12h11.47.981.csv,2,14,0,2,b,1,0,0,tac,A,27,1,0A,2A,1,0,b,3.30358680000063,1,0,1,1,0A,2A,A02,3.36729582998647,0.498420822880998,0.498420822880998,0.5,0.498420822880998,0.5,0.501579177119002,0.5,0.498420822880998,0.498420822880998,0.5,0.504722584307376,0.498420822880998,0.5,0.5,0.496846633362743,0.501579177119002,0.499209162568122,0.500790837431878,0.498420822880998,0.5,0.0914286289829764,0.500214359434886,0.501579177119002,0.0015841647197481,0.5,0.00315835423800348,0.867002968027059,0.0625,2.98232912904846,0.5,130.235531748268
CBC_1031,CBC_1031_MSI_TV_v3_Vset3_Tset1_2023-10-20_12h11.47.981.csv,2,15,0,1,z,0,1,3,tac,B,63,1,0B,1B,0,1,b,3.12576199999967,1,0,0,0,0B,1B,B01,2.70805020110221,0.500004987600746,0.498420822880998,0.5,0.498420822880998,0.5,0.501579177119002,0.5,0.498420822880998,0.498420822880998,0.5,0.504722584307376,0.498420822880998,0.5,0.5,0.496846633362743,0.501579177119002,0.499211656374714,0.500788343625286,0.5,0.501579177119002,0.101006352338261,0.500732342031073,-0.5,-0.00157917711900174,0.5,0.00315835423800348,0.867002968027059,0.0625,2.98232912904846,0.5,130.235531748268
CBC_1031,CBC_1031_MSI_TV_v3_Vset3_Tset1_2023-10-20_12h11.47.981.csv,2,16,3,2,b,1,0,2,tac,D,63,1,3D,2D,1,0,b,3.33755430000019,1,0,1,1,3D,2D,D32,2.7408400239252,0.500004987600746,0.498420822880998,0.5,0.498420822880998,0.498420822880998,0.501579177119002,0.5,0.498420822880998,0.498420822880998,0.5,0.504722584307376,0.498420822880998,0.5,0.5,0.496846633362743,0.501579177119002,0.502370002711556,0.497629997288444,0.501579177119002,0.496846633362743,0.0899338825588009,0.501393361890507,0.498420822880998,0.00157418951825538,0.5,0.00315835423800348,0.867002968027059,0.0625,2.98232912904846,0.5,130.235531748268
CBC_1031,CBC_1031_MSI_TV_v3_Vset3_Tset1_2023-10-20_12h11.47.981.csv,2,17,1,2,b,1,0,3,tac,B,9,1,1B,2B,NaN,NaN,None,NaN,NaN,NaN,NaN,NaN,,,B12,3.46573590279973,0.500004987600746,0.498420822880998,0.5,0.498420822880998,0.498420822880998,0.501579177119002,0.5,0.498420822880998,0.498420822880998,0.5,0.504722584307376,0.498420822880998,0.5,0.5,0.496846633362743,0.503153366637257,0,0,0,0,NaN,0,0,0,0.5,0.00315835423800348,0.867002968027059,0.0625,2.98232912904846,0.5,130.235531748268
CBC_1031,CBC_1031_MSI_TV_v3_Vset3_Tset1_2023-10-20_12h11.47.981.csv,2,18,1,3,z,0,1,2,tac,D,27,1,1D,3D,0,1,z,3.45043810000061,0,1,1,1,3D,1D,D13,2.80336038090653,0.500004987600746,0.498420822880998,0.5,0.498420822880998,0.498420822880998,0.501579177119002,0.5,0.498420822880998,0.498420822880998,0.5,0.504722584307376,0.498420822880998,0.5,0.5,0.496846633362743,0.503153366637257,0.50157172708687,0.49842827291313,0.503153366637257,0.5,0.0842943900792244,0.50031694884037,0.496846633362743,0.00156921767011898,0.5,0.00315835423800348,0.867002968027059,0.0625,2.98232912904846,0.5,130.235531748268
CBC_1031,CBC_1031_MSI_TV_v3_Vset3_Tset1_2023-10-20_12h11.47.981.csv,2,19,0,1,b,1,0,0,tac,A,63,1,0A,1A,NaN,NaN,None,NaN,NaN,NaN,NaN,NaN,,,A01,2.83321334405622,0.500004987600746,0.498420822880998,0.5,0.498420822880998,0.498420822880998,0.501579177119002,0.5,0.498420822880998,0.498420822880998,0.5,0.504722584307376,0.498420822880998,0.5,0.5,0.496846633362743,0.504722584307376,0,0,0,0,NaN,0,0,0,0.5,0.00315835423800348,0.867002968027059,0.0625,2.98232912904846,0.5,130.235531748268
CBC_1031,CBC_1031_MSI_TV_v3_Vset3_Tset1_2023-10-20_12h11.47.981.csv,2,20,1,0,z,0,1,0,tac,A,63,1,1A,0A,0,1,b,2.40135250000094,1,0,0,0,1A,0A,A10,2.86220088092947,0.500004987600746,0.498420822880998,0.5,0.498420822880998,0.498420822880998,0.501579177119002,0.5,0.498420822880998,0.498420822880998,0.5,0.504722584307376,0.498420822880998,0.5,0.5,0.496846633362743,0.504722584307376,0.499206668786445,0.500793331213555,0.498420822880998,0.500004987600746,0.150201724155696,0.49975803140293,-0.498420822880998,-0.00157418951825538,0.5,0.00315835423800348,0.867002968027059,0.0625,2.98232912904846,0.5,130.235531748268
CBC_1031,CBC_1031_MSI_TV_v3_Vset3_Tset1_2023-10-20_12h11.47.981.csv,2,21,2,0,b,1,0,1,tac,C,27,1,2C,0C,1,0,z,2.56654900000103,0,1,0,0,0C,2C,C20,2.89037175789616,0.500004987600746,0.496846633362743,0.5,0.498420822880998,0.498420822880998,0.501579177119002,0.5,0.498420822880998,0.498420822880998,0.5,0.504722584307376,0.498420822880998,0.5,0.5,0.496846633362743,0.504722584307376,0.496858992751575,0.503141007248425,0.498420822880998,0.504722584307376,0.136406176580115,0.496562544851316,-0.498420822880998,-0.00157418951825538,0.5,0.00315835423800348,0.867002968027059,0.0625,2.98232912904846,0.5,130.235531748268
CBC_1031,CBC_1031_MSI_TV_v3_Vset3_Tset1_2023-10-20_12h11.47.981.csv,2,22,0,1,z,0,1,3,tac,B,63,1,0B,1B,0,1,b,2.34900209999978,1,0,0,0,0B,1B,B01,2.51230562397611,0.500004987600746,0.496846633362743,0.5,0.498420822880998,0.498420822880998,0.501579177119002,0.5,0.498420822880998,0.496846633362743,0.5,0.504722584307376,0.498420822880998,0.5,0.5,0.496846633362743,0.504722584307376,0.498420822880998,0.501579177119002,0.498420822880998,0.501579177119002,0.154592382216158,0.500075680568046,-0.498420822880998,-0.00157418951825538,0.5,0.00315835423800348,0.867002968027059,0.0625,2.98232912904846,0.5,130.235531748268
CBC_1031,CBC_1031_MSI_TV_v3_Vset3_Tset1_2023-10-20_12h11.47.981.csv,2,23,2,0,b,1,0,1,tac,C,27,1,2C,0C,1,0,b,2.35167220000039,1,0,1,1,2C,0C,C20,2.53897387105828,0.500004987600746,0.496846633362743,0.5,0.498420822880998,0.496846633362743,0.501579177119002,0.5,0.498420822880998,0.496846633362743,0.5,0.504722584307376,0.498420822880998,0.5,0.5,0.496846633362743,0.504722584307376,0.503931805613472,0.496068194386527,0.504722584307376,0.496846633362743,0.154767732153801,0.501359769610122,0.495277415692624,0.00156426152484021,0.5,0.00315835423800348,0.867002968027059,0.0625,2.98232912904846,0.5,130.235531748268
CBC_1031,CBC_1031_MSI_TV_v3_Vset3_Tset1_2023-10-20_12h11.47.981.csv,2,24,3,2,b,1,0,2,tac,D,63,1,3D,2D,1,0,b,1.82530390000102,1,0,1,1,3D,2D,D32,2.56494935746154,0.500004987600746,0.496846633362743,0.5,0.498420822880998,0.496846633362743,0.501579177119002,0.5,0.498420822880998,0.496846633362743,0.5,0.506286845832216,0.498420822880998,0.5,0.5,0.496846633362743,0.504722584307376,0.503931805613472,0.496068194386527,0.504722584307376,0.496846633362743,0.199301292254093,0.501499230966041,0.495277415692624,0.00156426152484021,0.5,0.00315835423800348,0.867002968027059,0.0625,2.98232912904846,0.5,130.235531748268
CBC_1031,CBC_1031_MSI_TV_v3_Vset3_Tset1_2023-10-20_12h11.47.981.csv,2,25,1,0,z,0,1,0,tac,A,63,1,1A,0A,0,1,b,2.96160250000139,1,0,0,0,1A,0A,A10,2.59026716544583,0.500004987600746,0.496846633362743,0.5,0.498420822880998,0.496846633362743,0.501579177119002,0.5,0.498420822880998,0.496846633362743,0.5,0.506286845832216,0.498420822880998,0.5,0.5,0.496846633362743,0.506286845832216,0.498415835330161,0.501584164669839,0.496846633362743,0.500004987600746,0.110537599833951,0.500349082527133,-0.496846633362743,-0.00156921767011898,0.5,0.00315835423800348,0.867002968027059,0.0625,2.98232912904846,0.5,130.235531748268
CBC_1031,CBC_1031_MSI_TV_v3_Vset3_Tset1_2023-10-20_12h11.47.981.csv,2,26,3,2,z,0,1,1,tac,C,63,1,3C,2C,0,1,b,4.24684440000055,1,0,0,0,3C,2C,C32,2.6149597780362,0.500004987600746,0.495277415692624,0.5,0.498420822880998,0.496846633362743,0.501579177119002,0.5,0.498420822880998,0.496846633362743,0.5,0.506286845832216,0.498420822880998,0.5,0.5,0.496846633362743,0.506286845832216,0.49608541708391,0.50391458291609,0.498420822880998,0.506286845832216,0.0540922082729694,0.499423884671506,-0.498420822880998,-0.00157418951825538,0.5,0.00315835423800348,0.867002968027059,0.0625,2.98232912904846,0.5,130.235531748268
CBC_1031,CBC_1031_MSI_TV_v3_Vset3_Tset1_2023-10-20_12h11.47.981.csv,2,27,2,0,z,0,1,0,tac,A,27,1,2A,0A,0,1,b,1.75651239999934,1,0,0,0,2A,0A,A20,3.73766961828337,0.500004987600746,0.495277415692624,0.5,0.498420822880998,0.496846633362743,0.501579177119002,0.5,0.498420822880998,0.496846633362743,0.5,0.506286845832216,0.496846633362743,0.5,0.5,0.496846633362743,0.506286845832216,0.499997506212065,0.500002493787935,0.5,0.500004987600746,0.203422873957168,0.500654132254789,-0.5,-0.00157917711900174,0.5,0.00315835423800348,0.867002968027059,0.0625,2.98232912904846,0.5,130.235531748268
CBC_1031,CBC_1031_MSI_TV_v3_Vset3_Tset1_2023-10-20_12h11.47.981.csv,2,28,3,2,b,1,0,2,tac,D,63,1,3D,2D,1,0,b,2.54700880000019,1,0,1,1,3D,2D,D32,2.37490575457367,0.500004987600746,0.495277415692624,0.498420822880998,0.498420822880998,0.496846633362743,0.501579177119002,0.5,0.498420822880998,0.496846633362743,0.5,0.506286845832216,0.496846633362743,0.5,0.5,0.496846633362743,0.506286845832216,0.504705362080553,0.495294637919448,0.506286845832216,0.496846633362743,0.139046554360831,0.500791166427092,0.493713154167784,0.00155932103282389,0.5,0.00315835423800348,0.867002968027059,0.0625,2.98232912904846,0.5,130.235531748268
CBC_1031,CBC_1031_MSI_TV_v3_Vset3_Tset1_2023-10-20_12h11.47.981.csv,2,29,3,2,b,1,0,2,tac,D,63,1,3D,2D,1,0,z,2.66937490000055,0,1,0,0,2D,3D,D32,2.17475172148416,0.500004987600746,0.495277415692624,0.498420822880998,0.498420822880998,0.496846633362743,0.501579177119002,0.5,0.498420822880998,0.496846633362743,0.5,0.506286845832216,0.496846633362743,0.5,0.5,0.496846633362743,0.50784616686504,0.494525922003321,0.505474077996679,0.496846633362743,0.50784616686504,0.129511577094908,0.498855103317076,-0.496846633362743,-0.00156921767011898,0.5,0.00315835423800348,0.867002968027059,0.0625,2.98232912904846,0.5,130.235531748268
CBC_1031,CBC_1031_MSI_TV_v3_Vset3_Tset1_2023-10-20_12h11.47.981.csv,2,30,3,1,z,0,1,3,tac,B,27,1,3B,1B,0,1,b,2.38612879999891,1,0,0,0,3B,1B,B31,3.80666248977032,0.500004987600746,0.495277415692624,0.498420822880998,0.498420822880998,0.496846633362743,0.501579177119002,0.5,0.498420822880998,0.496846633362743,0.5,0.506286845832216,0.496846633362743,0.5,0.5,0.495277415692624,0.50784616686504,0.498420822880998,0.501579177119002,0.498420822880998,0.501579177119002,0.15154357851418,0.500097713162556,-0.498420822880998,-0.00157418951825538,0.5,0.00315835423800348,0.867002968027059,0.0625,2.98232912904846,0.5,130.235531748268
CBC_1031,CBC_1031_MSI_TV_v3_Vset3_Tset1_2023-10-20_12h11.47.981.csv,2,31,0,3,z,0,1,2,tac,D,9,1,0D,3D,0,1,z,2.87222790000123,0,1,1,1,3D,0D,D03,3.8286413964891,0.500004987600746,0.495277415692624,0.498420822880998,0.498420822880998,0.496846633362743,0.501579177119002,0.5,0.496846633362743,0.496846633362743,0.5,0.506286845832216,0.496846633362743,0.5,0.5,0.495277415692624,0.50784616686504,0.503892541899249,0.496107458100751,0.50784616686504,0.5,0.116077561783478,0.500073616040812,0.49215383313496,0.00155439614463146,0.5,0.00315835423800348,0.867002968027059,0.0625,2.98232912904846,0.5,130.235531748268
CBC_1031,CBC_1031_MSI_TV_v3_Vset3_Tset1_2023-10-20_12h11.47.981.csv,2,32,1,0,b,1,0,3,tac,B,63,1,1B,0B,1,0,b,2.86933470000076,1,0,1,1,1B,0B,B10,3.85014760171006,0.500004987600746,0.495277415692624,0.498420822880998,0.498420822880998,0.496846633362743,0.501579177119002,0.5,0.496846633362743,0.496846633362743,0.5,0.506286845832216,0.496846633362743,0.5,0.5,0.495277415692624,0.509400563009672,0.502370002711556,0.497629997288444,0.501579177119002,0.496846633362743,0.116530436694432,0.501221929897917,0.498420822880998,0.00157418951825538,0.5,0.00315835423800348,0.867002968027059,0.0625,2.98232912904846,0.5,130.235531748268
CBC_1031,CBC_1031_MSI_TV_v3_Vset3_Tset1_2023-10-20_12h11.47.981.csv,2,33,1,0,z,0,1,0,tac,A,63,1,1A,0A,0,1,b,3.72516910000013,1,0,0,0,1A,0A,A10,2.484906649788,0.500004987600746,0.495277415692624,0.498420822880998,0.498420822880998,0.496846633362743,0.503153366637257,0.5,0.496846633362743,0.496846633362743,0.5,0.506286845832216,0.496846633362743,0.5,0.5,0.495277415692624,0.509400563009672,0.497625009799993,0.502374990200007,0.495277415692624,0.500004987600746,0.0723059074743935,0.499815335518145,-0.495277415692624,-0.00156426152484021,0.5,0.00315835423800348,0.867002968027059,0.0625,2.98232912904846,0.5,130.235531748268
CBC_1031,CBC_1031_MSI_TV_v3_Vset3_Tset1_2023-10-20_12h11.47.981.csv,2,34,1,0,b,1,0,3,tac,B,63,1,1B,0B,1,0,z,3.2535057999994,0,1,0,0,0B,1B,B10,3.19867311755068,0.500004987600746,0.493713154167784,0.498420822880998,0.498420822880998,0.496846633362743,0.503153366637257,0.5,0.496846633362743,0.496846633362743,0.5,0.506286845832216,0.496846633362743,0.5,0.5,0.495277415692624,0.509400563009672,0.496846633362743,0.503153366637257,0.496846633362743,0.503153366637257,0.0937634887813941,0.49893828504951,-0.496846633362743,-0.00156921767011898,0.5,0.00315835423800348,0.867002968027059,0.0625,2.98232912904846,0.5,130.235531748268
CBC_1031,CBC_1031_MSI_TV_v3_Vset3_Tset1_2023-10-20_12h11.47.981.csv,2,35,3,2,z,0,1,1,tac,C,63,1,3C,2C,0,1,b,2.98768950000158,1,0,0,0,3C,2C,C32,2.52572864430826,0.500004987600746,0.493713154167784,0.498420822880998,0.498420822880998,0.495277415692624,0.503153366637257,0.5,0.496846633362743,0.496846633362743,0.5,0.506286845832216,0.496846633362743,0.5,0.5,0.495277415692624,0.509400563009672,0.495294637919448,0.504705362080553,0.496846633362743,0.506286845832216,0.108619268311548,0.498818704513826,-0.496846633362743,-0.00156921767011898,0.5,0.00315835423800348,0.867002968027059,0.0625,2.98232912904846,0.5,130.235531748268
CBC_1031,CBC_1031_MSI_TV_v3_Vset3_Tset1_2023-10-20_12h11.47.981.csv,2,36,0,2,b,1,0,0,tac,A,27,1,0A,2A,NaN,NaN,None,NaN,NaN,NaN,NaN,NaN,,,A02,3.23867845216438,0.500004987600746,0.493713154167784,0.498420822880998,0.498420822880998,0.495277415692624,0.503153366637257,0.5,0.496846633362743,0.496846633362743,0.5,0.506286845832216,0.495277415692624,0.5,0.5,0.495277415692624,0.509400563009672,0,0,0,0,NaN,0,0,0,0.5,0.00315835423800348,0.867002968027059,0.0625,2.98232912904846,0.5,130.235531748268
CBC_1031,CBC_1031_MSI_TV_v3_Vset3_Tset1_2023-10-20_12h11.47.981.csv,2,37,1,0,b,1,0,3,tac,B,63,1,1B,0B,1,0,b,4.85879380000006,1,0,1,1,1B,0B,B10,2.85263142991332,0.500004987600746,0.493713154167784,0.498420822880998,0.498420822880998,0.495277415692624,0.503153366637257,0.5,0.496846633362743,0.496846633362743,0.5,0.506286845832216,0.495277415692624,0.5,0.5,0.495277415692624,0.509400563009672,0.503944164725297,0.496055835274703,0.503153366637257,0.495277415692624,0.0386415162042294,0.501006742996492,0.496846633362743,0.00156921767011898,0.5,0.00315835423800348,0.867002968027059,0.0625,2.98232912904846,0.5,130.235531748268
CBC_1031,CBC_1031_MSI_TV_v3_Vset3_Tset1_2023-10-20_12h11.47.981.csv,2,38,3,1,z,0,1,3,tac,B,27,1,3B,1B,NaN,NaN,None,NaN,NaN,NaN,NaN,NaN,,,B31,3.27714473299218,0.500004987600746,0.493713154167784,0.498420822880998,0.498420822880998,0.495277415692624,0.504722584307376,0.5,0.496846633362743,0.496846633362743,0.5,0.506286845832216,0.495277415692624,0.5,0.5,0.495277415692624,0.509400563009672,0,0,0,0,NaN,0,0,0,0.5,0.00315835423800348,0.867002968027059,0.0625,2.98232912904846,0.5,130.235531748268
CBC_1031,CBC_1031_MSI_TV_v3_Vset3_Tset1_2023-10-20_12h11.47.981.csv,2,39,3,2,z,0,1,1,tac,C,63,1,3C,2C,0,1,b,2.34634430000006,1,0,0,0,3C,2C,C32,2.37954613413017,0.500004987600746,0.493713154167784,0.498420822880998,0.498420822880998,0.495277415692624,0.504722584307376,0.5,0.496846633362743,0.496846633362743,0.5,0.506286845832216,0.495277415692624,0.5,0.5,0.495277415692624,0.509400563009672,0.494503882295665,0.505496117704335,0.495277415692624,0.506286845832216,0.15497304820522,0.500593135030055,-0.495277415692624,-0.00156426152484021,0.5,0.00315835423800348,0.867002968027059,0.0625,2.98232912904846,0.5,130.235531748268
CBC_1031,CBC_1031_MSI_TV_v3_Vset3_Tset1_2023-10-20_12h11.47.981.csv,2,40,3,1,b,1,0,2,tac,D,27,1,3D,1D,1,0,b,4.26049750000129,1,0,1,1,3D,1D,D31,4.00733318523247,0.500004987600746,0.493713154167784,0.498420822880998,0.498420822880998,0.495277415692624,0.504722584307376,0.5,0.496846633362743,0.496846633362743,0.5,0.506286845832216,0.493713154167784,0.5,0.5,0.495277415692624,0.509400563009672,0.504656507710696,0.495343492289304,0.509400563009672,0.5,0.0538774865194526,0.501224476877099,0.490599436990328,0.00154948681098053,0.5,0.00315835423800348,0.867002968027059,0.0625,2.98232912904846,0.5,130.235531748268
CBC_1031,CBC_1031_MSI_TV_v3_Vset3_Tset1_2023-10-20_12h11.47.981.csv,2,41,1,2,z,0,1,1,tac,C,9,1,1C,2C,0,1,b,2.89398480000091,1,0,0,0,1C,2C,C12,4.02535169073515,0.500004987600746,0.493713154167784,0.498420822880998,0.498420822880998,0.495277415692624,0.504722584307376,0.5,0.496846633362743,0.496846633362743,0.5,0.506286845832216,0.493713154167784,0.5,0.5,0.495277415692624,0.510950049820652,0.496876215833361,0.503123784166639,0.5,0.506286845832216,0.114929076132217,0.501119895320489,-0.5,-0.00157917711900174,0.5,0.00315835423800348,0.867002968027059,0.0625,2.98232912904846,0.5,130.235531748268
CBC_1031,CBC_1031_MSI_TV_v3_Vset3_Tset1_2023-10-20_12h11.47.981.csv,2,42,0,1,z,0,1,3,tac,B,63,0,0B,1B,1,0,z,2.08678380000129,0,1,1,0,1B,0B,B01,2.65675690671466,0.500004987600746,0.493713154167784,0.498420822880998,0.498420822880998,0.495277415692624,0.504722584307376,0.5,0.496846633362743,0.496846633362743,0.498420822880998,0.506286845832216,0.493713154167784,0.5,0.5,0.495277415692624,0.510950049820652,0.504722584307376,0.495277415692624,0.504722584307376,0.495277415692624,0.177542994257967,0.501178093138199,-0.504722584307376,-0.00159409271316327,0.5,0.00315835423800348,0.867002968027059,0.0625,2.98232912904846,0.5,130.235531748268
CBC_1031,CBC_1031_MSI_TV_v3_Vset3_Tset1_2023-10-20_12h11.47.981.csv,2,43,3,2,b,1,0,2,tac,D,63,1,3D,2D,NaN,NaN,None,NaN,NaN,NaN,NaN,NaN,,,D32,2.26868354131836,0.500004987600746,0.493713154167784,0.498420822880998,0.498420822880998,0.495277415692624,0.503128491594213,0.5,0.496846633362743,0.496846633362743,0.498420822880998,0.506286845832216,0.493713154167784,0.5,0.5,0.495277415692624,0.510950049820652,0,0,0,0,NaN,0,0,0,0.5,0.00315835423800348,0.867002968027059,0.0625,2.98232912904846,0.5,130.235531748268
CBC_1031,CBC_1031_MSI_TV_v3_Vset3_Tset1_2023-10-20_12h11.47.981.csv,2,44,0,1,b,1,0,0,tac,A,63,1,0A,1A,1,0,z,0.262746000000334,0,1,0,0,1A,0A,A01,2.97892515523761,0.500004987600746,0.493713154167784,0.498420822880998,0.498420822880998,0.495277415692624,0.503128491594213,0.5,0.496846633362743,0.496846633362743,0.498420822880998,0.506286845832216,0.493713154167784,0.5,0.5,0.495277415692624,0.510950049820652,0.49683419615256,0.50316580384744,0.493713154167784,0.500004987600746,1e-20,0.5,-0.493713154167784,-0.00155932103282389,0.5,0.00315835423800348,0.867002968027059,0.0625,2.98232912904846,0.5,130.235531748268
CBC_1031,CBC_1031_MSI_AV_v3_Vset6_Aset2_2023-10-20_12h20.15.905.csv,3,1,1,0,z,0,1,0,aud,A,63,1,1A,0A,0,1,b,1.45231429999876,1,0,0,0,1A,0A,A10,2.77258872223978,0.5,0.5,0.5,0.5,0.5,0.5,0.5,0.5,0.5,0.5,0.5,0.5,0.5,0.5,0.5,0.5,0.5,0.5,0.5,0.5,0.338043423830814,0.500444450248454,-0.5,-0.129542849882669,0.5,0.259085699765338,0.846494641612188,0.73479146991842,2.23055595740713,0.5,74.3932115239118
CBC_1031,CBC_1031_MSI_AV_v3_Vset6_Aset2_2023-10-20_12h20.15.905.csv,3,2,3,2,z,0,1,1,aud,C,63,1,3C,2C,0,1,z,1.13799969999855,0,1,1,1,2C,3C,C32,2.83321334405622,0.5,0.370457150117331,0.5,0.5,0.5,0.5,0.5,0.5,0.5,0.5,0.5,0.5,0.5,0.5,0.5,0.5,0.5,0.5,0.5,0.5,0.334988512834584,0.500308445251028,0.5,0.129542849882669,0.5,0.259085699765338,0.846494641612188,0.73479146991842,2.23055595740713,0.5,74.3932115239118
CBC_1031,CBC_1031_MSI_AV_v3_Vset6_Aset2_2023-10-20_12h20.15.905.csv,3,3,0,2,b,1,0,0,aud,A,27,1,0A,2A,1,0,b,2.27413149999848,1,0,1,1,0A,2A,A02,2.89037175789616,0.5,0.370457150117331,0.5,0.5,0.5,0.5,0.5,0.5,0.5,0.5,0.629542849882669,0.5,0.5,0.5,0.5,0.5,0.5,0.5,0.5,0.5,0.153145986117746,0.499718975280809,0.5,0.129542849882669,0.5,0.259085699765338,0.846494641612188,0.73479146991842,2.23055595740713,0.5,74.3932115239118
CBC_1031,CBC_1031_MSI_AV_v3_Vset6_Aset2_2023-10-20_12h20.15.905.csv,3,4,1,0,b,1,0,3,aud,B,63,1,1B,0B,1,0,b,1.58470159999888,1,0,1,1,1B,0B,B10,2.94443897916644,0.629542849882669,0.370457150117331,0.5,0.5,0.5,0.5,0.5,0.5,0.5,0.5,0.629542849882669,0.5,0.5,0.5,0.5,0.5,0.5,0.5,0.5,0.5,0.301275200346286,0.500419675961055,0.5,0.129542849882669,0.5,0.259085699765338,0.846494641612188,0.73479146991842,2.23055595740713,0.5,74.3932115239118
CBC_1031,CBC_1031_MSI_AV_v3_Vset6_Aset2_2023-10-20_12h20.15.905.csv,3,5,2,3,z,0,1,2,aud,D,63,1,2D,3D,0,1,z,2.12832009999875,0,1,1,1,3D,2D,D23,2.99573227355399,0.629542849882669,0.370457150117331,0.5,0.5,0.5,0.629542849882669,0.5,0.5,0.5,0.5,0.629542849882669,0.5,0.5,0.5,0.5,0.5,0.5,0.5,0.5,0.5,0.176937720125133,0.499650351561443,0.5,0.129542849882669,0.5,0.259085699765338,0.846494641612188,0.73479146991842,2.23055595740713,0.5,74.3932115239118
CBC_1031,CBC_1031_MSI_AV_v3_Vset6_Aset2_2023-10-20_12h20.15.905.csv,3,6,1,2,b,1,0,3,aud,B,9,1,1B,2B,1,0,b,1.46430819999841,1,0,1,1,1B,2B,B12,3.04452243772342,0.629542849882669,0.370457150117331,0.5,0.5,0.5,0.629542849882669,0.5,0.5,0.5,0.5,0.629542849882669,0.5,0.5,0.5,0.5,0.629542849882669,0.55734304364643,0.44265695635357,0.629542849882669,0.5,0.366370915085327,0.546432099770092,0.370457150117331,0.0959801499712215,0.5,0.259085699765338,0.846494641612188,0.73479146991842,2.23055595740713,0.5,74.3932115239118
CBC_1031,CBC_1031_MSI_AV_v3_Vset6_Aset2_2023-10-20_12h20.15.905.csv,3,7,1,3,z,0,1,2,aud,D,27,1,1D,3D,0,1,z,1.23827579999852,0,1,1,1,3D,1D,D13,3.09104245335832,0.629542849882669,0.370457150117331,0.5,0.5,0.5,0.72552299985389,0.5,0.5,0.5,0.5,0.629542849882669,0.5,0.5,0.5,0.5,0.629542849882669,0.55734304364643,0.44265695635357,0.629542849882669,0.5,0.407410829429359,0.547448290872676,0.370457150117331,0.0959801499712215,0.5,0.259085699765338,0.846494641612188,0.73479146991842,2.23055595740713,0.5,74.3932115239118
CBC_1031,CBC_1031_MSI_AV_v3_Vset6_Aset2_2023-10-20_12h20.15.905.csv,3,8,1,0,z,0,1,0,aud,A,63,1,1A,0A,0,1,z,3.22375159999865,0,1,1,1,0A,1A,A10,2.4423470353692,0.629542849882669,0.370457150117331,0.5,0.5,0.5,0.72552299985389,0.5,0.5,0.5,0.5,0.629542849882669,0.5,0.5,0.5,0.5,0.72552299985389,0.629542849882669,0.370457150117331,0.629542849882669,0.370457150117331,0.0708960899111204,0.606095648663606,0.370457150117331,0.0959801499712215,0.5,0.259085699765338,0.846494641612188,0.73479146991842,2.23055595740713,0.5,74.3932115239118
CBC_1031,CBC_1031_MSI_AV_v3_Vset6_Aset2_2023-10-20_12h20.15.905.csv,3,9,0,1,b,1,0,0,aud,A,63,1,0A,1A,1,0,z,2.32448459999796,0,1,0,0,1A,0A,A01,3.17805383034795,0.72552299985389,0.370457150117331,0.5,0.5,0.5,0.72552299985389,0.5,0.5,0.5,0.5,0.629542849882669,0.5,0.5,0.5,0.5,0.72552299985389,0.338014470542244,0.661985529457756,0.370457150117331,0.72552299985389,0.107043296133947,0.369784155961049,-0.370457150117331,-0.0959801499712215,0.5,0.259085699765338,0.846494641612188,0.73479146991842,2.23055595740713,0.5,74.3932115239118
CBC_1031,CBC_1031_MSI_AV_v3_Vset6_Aset2_2023-10-20_12h20.15.905.csv,3,10,2,0,b,1,0,1,aud,C,27,1,2C,0C,1,0,b,1.6357242999984,1,0,1,1,2C,0C,C20,3.2188758248682,0.72552299985389,0.27447700014611,0.5,0.5,0.5,0.72552299985389,0.5,0.5,0.5,0.5,0.629542849882669,0.5,0.5,0.5,0.5,0.72552299985389,0.55734304364643,0.44265695635357,0.629542849882669,0.5,0.314086645397879,0.54634481851782,0.370457150117331,0.0959801499712215,0.5,0.259085699765338,0.846494641612188,0.73479146991842,2.23055595740713,0.5,74.3932115239118
CBC_1031,CBC_1031_MSI_AV_v3_Vset6_Aset2_2023-10-20_12h20.15.905.csv,3,11,0,1,z,0,1,3,aud,B,63,1,0B,1B,0,1,b,2.65202749999844,1,0,0,0,0B,1B,B01,3.25809653802148,0.72552299985389,0.27447700014611,0.5,0.5,0.5,0.72552299985389,0.5,0.5,0.5,0.5,0.72552299985389,0.5,0.5,0.5,0.5,0.72552299985389,0.407989078996976,0.592010921003024,0.5,0.72552299985389,0.0893092334914152,0.426064133336014,-0.5,-0.129542849882669,0.5,0.259085699765338,0.846494641612188,0.73479146991842,2.23055595740713,0.5,74.3932115239118
CBC_1031,CBC_1031_MSI_AV_v3_Vset6_Aset2_2023-10-20_12h20.15.905.csv,3,12,0,1,b,1,0,0,aud,A,63,1,0A,1A,1,0,z,3.43390509999881,0,1,0,0,1A,0A,A01,2.60268968544438,0.72552299985389,0.27447700014611,0.5,0.5,0.370457150117331,0.72552299985389,0.5,0.5,0.5,0.5,0.72552299985389,0.5,0.5,0.5,0.5,0.72552299985389,0.27447700014611,0.72552299985389,0.27447700014611,0.72552299985389,0.0290677693955684,0.323088824979675,-0.27447700014611,-0.0711130656523455,0.5,0.259085699765338,0.846494641612188,0.73479146991842,2.23055595740713,0.5,74.3932115239118
CBC_1031,CBC_1031_MSI_AV_v3_Vset6_Aset2_2023-10-20_12h20.15.905.csv,3,13,3,2,z,0,1,1,aud,C,63,1,3C,2C,0,1,b,2.54562649999934,1,0,0,0,3C,2C,C32,2.63905732961526,0.72552299985389,0.203363934493764,0.5,0.5,0.370457150117331,0.72552299985389,0.5,0.5,0.5,0.5,0.72552299985389,0.5,0.5,0.5,0.5,0.72552299985389,0.407989078996976,0.592010921003024,0.5,0.72552299985389,0.0990364003277375,0.42480776116079,-0.5,-0.129542849882669,0.5,0.259085699765338,0.846494641612188,0.73479146991842,2.23055595740713,0.5,74.3932115239118
CBC_1031,CBC_1031_MSI_AV_v3_Vset6_Aset2_2023-10-20_12h20.15.905.csv,3,14,0,2,b,1,0,0,aud,A,27,1,0A,2A,1,0,z,2.40674069999841,0,1,0,0,2A,0A,A02,2.67414864942653,0.72552299985389,0.203363934493764,0.5,0.5,0.370457150117331,0.72552299985389,0.5,0.5,0.5,0.5,0.72552299985389,0.370457150117331,0.5,0.5,0.5,0.72552299985389,0.407989078996976,0.592010921003024,0.5,0.72552299985389,0.114182746578785,0.426159683776041,-0.5,-0.129542849882669,0.5,0.259085699765338,0.846494641612188,0.73479146991842,2.23055595740713,0.5,74.3932115239118
CBC_1031,CBC_1031_MSI_AV_v3_Vset6_Aset2_2023-10-20_12h20.15.905.csv,3,15,1,0,b,1,0,3,aud,B,63,1,1B,0B,1,0,b,1.60573469999872,1,0,1,1,1B,0B,B10,2.70805020110221,0.72552299985389,0.203363934493764,0.370457150117331,0.5,0.370457150117331,0.72552299985389,0.5,0.5,0.5,0.5,0.72552299985389,0.370457150117331,0.5,0.5,0.5,0.72552299985389,0.661985529457756,0.338014470542244,0.72552299985389,0.370457150117331,0.376343444322618,0.629084003544073,0.27447700014611,0.0711130656523455,0.5,0.259085699765338,0.846494641612188,0.73479146991842,2.23055595740713,0.5,74.3932115239118
CBC_1031,CBC_1031_MSI_AV_v3_Vset6_Aset2_2023-10-20_12h20.15.905.csv,3,16,0,1,z,0,1,3,aud,B,63,1,0B,1B,0,1,z,1.60892049999893,0,1,1,1,1B,0B,B01,2.7408400239252,0.72552299985389,0.203363934493764,0.370457150117331,0.5,0.370457150117331,0.796636065506236,0.5,0.5,0.5,0.5,0.72552299985389,0.370457150117331,0.5,0.5,0.5,0.72552299985389,0.682581352407743,0.317418647592257,0.796636065506236,0.370457150117331,0.38656524380997,0.645773591012216,0.203363934493764,0.0526886872753492,0.5,0.259085699765338,0.846494641612188,0.73479146991842,2.23055595740713,0.5,74.3932115239118
CBC_1031,CBC_1031_MSI_AV_v3_Vset6_Aset2_2023-10-20_12h20.15.905.csv,3,17,3,2,z,0,1,1,aud,C,63,1,3C,2C,0,1,z,3.4069387999989,0,1,1,1,2C,3C,C32,2.36712361413162,0.72552299985389,0.203363934493764,0.370457150117331,0.5,0.370457150117331,0.849324752781585,0.5,0.5,0.5,0.5,0.72552299985389,0.370457150117331,0.5,0.5,0.5,0.72552299985389,0.661985529457756,0.338014470542244,0.72552299985389,0.370457150117331,0.0604206554573782,0.629676558135586,0.27447700014611,0.0711130656523455,0.5,0.259085699765338,0.846494641612188,0.73479146991842,2.23055595740713,0.5,74.3932115239118
CBC_1031,CBC_1031_MSI_AV_v3_Vset6_Aset2_2023-10-20_12h20.15.905.csv,3,18,3,1,b,1,0,2,aud,D,27,1,3D,1D,1,0,b,1.87065179999809,1,0,1,1,3D,1D,D31,3.49650756146648,0.72552299985389,0.203363934493764,0.370457150117331,0.5,0.370457150117331,0.849324752781585,0.5,0.5,0.5,0.5,0.796636065506236,0.370457150117331,0.5,0.5,0.5,0.72552299985389,0.592010921003024,0.407989078996976,0.72552299985389,0.5,0.263028116071011,0.574572060729458,0.27447700014611,0.0711130656523455,0.5,0.259085699765338,0.846494641612188,0.73479146991842,2.23055595740713,0.5,74.3932115239118
CBC_1031,CBC_1031_MSI_AV_v3_Vset6_Aset2_2023-10-20_12h20.15.905.csv,3,19,1,2,z,0,1,1,aud,C,9,1,1C,2C,0,1,z,1.05602679999902,0,1,1,1,2C,1C,C12,3.52636052461616,0.72552299985389,0.203363934493764,0.370457150117331,0.5,0.370457150117331,0.849324752781585,0.5,0.5,0.5,0.5,0.796636065506236,0.370457150117331,0.5,0.5,0.5,0.796636065506236,0.61438678646904,0.38561321353096,0.796636065506236,0.5,0.286462668607501,0.592157993947986,0.203363934493764,0.0526886872753492,0.5,0.259085699765338,0.846494641612188,0.73479146991842,2.23055595740713,0.5,74.3932115239118
CBC_1031,CBC_1031_MSI_AV_v3_Vset6_Aset2_2023-10-20_12h20.15.905.csv,3,20,3,1,z,0,1,3,aud,B,27,1,3B,1B,0,1,z,4.78891039999871,0,1,1,1,1B,3B,B31,3.55534806148941,0.72552299985389,0.203363934493764,0.370457150117331,0.5,0.370457150117331,0.849324752781585,0.5,0.5,0.5,0.5,0.849324752781585,0.370457150117331,0.5,0.5,0.5,0.796636065506236,0.629444283913663,0.370555716086337,0.849324752781585,0.5,0.0145669348653966,0.604819365827283,0.150675247218415,0.0390378018628983,0.5,0.259085699765338,0.846494641612188,0.73479146991842,2.23055595740713,0.5,74.3932115239118
CBC_1031,CBC_1031_MSI_AV_v3_Vset6_Aset2_2023-10-20_12h20.15.905.csv,3,21,3,2,b,1,0,2,aud,D,63,1,3D,2D,1,0,b,1.5492781999983,1,0,1,1,3D,2D,D32,3.58351893845611,0.72552299985389,0.203363934493764,0.370457150117331,0.5,0.370457150117331,0.888362554644483,0.5,0.5,0.5,0.5,0.849324752781585,0.370457150117331,0.5,0.5,0.5,0.796636065506236,0.61438678646904,0.38561321353096,0.796636065506236,0.5,0.370635001568935,0.591662973139224,0.203363934493764,0.0526886872753492,0.5,0.259085699765338,0.846494641612188,0.73479146991842,2.23055595740713,0.5,74.3932115239118
CBC_1031,CBC_1031_MSI_AV_v3_Vset6_Aset2_2023-10-20_12h20.15.905.csv,3,22,1,0,b,1,0,3,aud,B,63,0,1B,0B,0,1,z,1.77230429999872,0,1,0,1,0B,1B,B10,2.51230562397611,0.72552299985389,0.203363934493764,0.370457150117331,0.5,0.370457150117331,0.888362554644483,0.5,0.5,0.5,0.5,0.849324752781585,0.370457150117331,0.5,0.5,0.5,0.849324752781585,0.294289284411406,0.705710715588594,0.370457150117331,0.888362554644483,0.172226476923512,0.337704961055383,0.629542849882669,0.163105549794116,0.5,0.259085699765338,0.846494641612188,0.73479146991842,2.23055595740713,0.5,74.3932115239118
CBC_1031,CBC_1031_MSI_AV_v3_Vset6_Aset2_2023-10-20_12h20.15.905.csv,3,23,3,0,z,0,1,0,aud,A,9,1,3A,0A,0,1,b,2.63485429999855,1,0,0,0,3A,0A,A30,3.63758615972639,0.72552299985389,0.203363934493764,0.370457150117331,0.5,0.533562699911447,0.888362554644483,0.5,0.5,0.5,0.5,0.849324752781585,0.370457150117331,0.5,0.5,0.5,0.849324752781585,0.407989078996976,0.592010921003024,0.5,0.72552299985389,0.0907396429898027,0.42554227649392,-0.5,-0.129542849882669,0.5,0.259085699765338,0.846494641612188,0.73479146991842,2.23055595740713,0.5,74.3932115239118
CBC_1031,CBC_1031_MSI_AV_v3_Vset6_Aset2_2023-10-20_12h20.15.905.csv,3,24,2,3,z,0,1,2,aud,D,63,1,2D,3D,0,1,z,1.2965054999986,0,1,1,1,3D,2D,D23,2.9704144655697,0.72552299985389,0.203363934493764,0.370457150117331,0.370457150117331,0.533562699911447,0.888362554644483,0.5,0.5,0.5,0.5,0.849324752781585,0.370457150117331,0.5,0.5,0.5,0.849324752781585,0.629444283913663,0.370555716086337,0.849324752781585,0.5,0.454132468805437,0.604925444407972,0.150675247218415,0.0390378018628983,0.5,0.259085699765338,0.846494641612188,0.73479146991842,2.23055595740713,0.5,74.3932115239118
CBC_1031,CBC_1031_MSI_AV_v3_Vset6_Aset2_2023-10-20_12h20.15.905.csv,3,25,1,3,b,1,0,3,aud,B,27,1,1B,3B,1,0,z,1.30060439999943,0,1,0,0,3B,1B,B13,3.68887945411394,0.72552299985389,0.203363934493764,0.370457150117331,0.370457150117331,0.533562699911447,0.888362554644483,0.5,0.5,0.5,0.5,0.849324752781585,0.370457150117331,0.5,0.5,0.5,0.888362554644483,0.360136477555774,0.639863522444226,0.5,0.888362554644483,0.290579531584772,0.38658477264227,-0.5,-0.129542849882669,0.5,0.259085699765338,0.846494641612188,0.73479146991842,2.23055595740713,0.5,74.3932115239118
CBC_1031,CBC_1031_MSI_AV_v3_Vset6_Aset2_2023-10-20_12h20.15.905.csv,3,26,2,3,b,1,0,1,aud,C,63,1,2C,3C,1,0,b,1.94045899999765,1,0,1,1,2C,3C,C23,3.71357206670431,0.72552299985389,0.203363934493764,0.370457150117331,0.370457150117331,0.533562699911447,0.888362554644483,0.5,0.370457150117331,0.5,0.5,0.849324752781585,0.370457150117331,0.5,0.5,0.5,0.888362554644483,0.696292305012144,0.303707694987856,0.849324752781585,0.370457150117331,0.281264755386482,0.655947096929934,0.150675247218415,0.0390378018628983,0.5,0.259085699765338,0.846494641612188,0.73479146991842,2.23055595740713,0.5,74.3932115239118
CBC_1031,CBC_1031_MSI_AV_v3_Vset6_Aset2_2023-10-20_12h20.15.905.csv,3,27,2,0,b,1,0,1,aud,C,27,1,2C,0C,1,0,b,2.22592619999887,1,0,1,1,2C,0C,C20,3.04452243772342,0.72552299985389,0.203363934493764,0.370457150117331,0.370457150117331,0.533562699911447,0.888362554644483,0.5,0.370457150117331,0.5,0.5,0.888362554644483,0.370457150117331,0.5,0.5,0.5,0.888362554644483,0.639863522444226,0.360136477555774,0.888362554644483,0.5,0.196286261067914,0.612478291365098,0.111637445355517,0.0289236656499487,0.5,0.259085699765338,0.846494641612188,0.73479146991842,2.23055595740713,0.5,74.3932115239118
CBC_1031,CBC_1031_MSI_AV_v3_Vset6_Aset2_2023-10-20_12h20.15.905.csv,3,28,0,1,z,0,1,3,aud,B,63,1,0B,1B,0,1,b,2.63246789999903,1,0,0,0,0B,1B,B01,2.66258782702545,0.72552299985389,0.203363934493764,0.370457150117331,0.370457150117331,0.533562699911447,0.888362554644483,0.5,0.370457150117331,0.5,0.5,0.917286220294432,0.370457150117331,0.5,0.5,0.5,0.888362554644483,0.375239625431704,0.624760374568296,0.533562699911447,0.888362554644483,0.0849734636719697,0.399259050172565,-0.533562699911447,-0.13823846547524,0.5,0.259085699765338,0.846494641612188,0.73479146991842,2.23055595740713,0.5,74.3932115239118
CBC_1031,CBC_1031_MSI_AV_v3_Vset6_Aset2_2023-10-20_12h20.15.905.csv,3,29,2,3,b,1,0,1,aud,C,63,1,2C,3C,1,0,z,2.20263609999893,0,1,0,0,3C,2C,C23,3.09104245335832,0.72552299985389,0.203363934493764,0.370457150117331,0.370457150117331,0.395324234436207,0.888362554644483,0.5,0.370457150117331,0.5,0.5,0.917286220294432,0.370457150117331,0.5,0.5,0.5,0.888362554644483,0.287679330081797,0.712320669918203,0.370457150117331,0.917286220294432,0.10827159842525,0.33135810993801,-0.370457150117331,-0.0959801499712215,0.5,0.259085699765338,0.846494641612188,0.73479146991842,2.23055595740713,0.5,74.3932115239118
CBC_1031,CBC_1031_MSI_AV_v3_Vset6_Aset2_2023-10-20_12h20.15.905.csv,3,30,1,0,z,0,1,0,aud,A,63,1,1A,0A,0,1,z,2.09751809999943,0,1,1,1,0A,1A,A10,2.70805020110221,0.72552299985389,0.203363934493764,0.370457150117331,0.370457150117331,0.395324234436207,0.888362554644483,0.5,0.370457150117331,0.5,0.5,0.917286220294432,0.27447700014611,0.5,0.5,0.5,0.888362554644483,0.781067073963545,0.218932926036455,0.72552299985389,0.203363934493764,0.260158832720569,0.715563130815337,0.27447700014611,0.0711130656523455,0.5,0.259085699765338,0.846494641612188,0.73479146991842,2.23055595740713,0.5,74.3932115239118
CBC_1031,CBC_1031_MSI_AV_v3_Vset6_Aset2_2023-10-20_12h20.15.905.csv,3,31,2,3,z,0,1,2,aud,D,63,1,2D,3D,0,1,z,1.04518119999921,0,1,1,1,3D,2D,D23,2.73002910782099,0.796636065506236,0.203363934493764,0.370457150117331,0.370457150117331,0.395324234436207,0.888362554644483,0.5,0.370457150117331,0.5,0.5,0.917286220294432,0.27447700014611,0.5,0.5,0.5,0.888362554644483,0.639863522444226,0.360136477555774,0.888362554644483,0.5,0.274926172784206,0.612489973526739,0.111637445355517,0.0289236656499487,0.5,0.259085699765338,0.846494641612188,0.73479146991842,2.23055595740713,0.5,74.3932115239118
CBC_1031,CBC_1031_MSI_AV_v3_Vset6_Aset2_2023-10-20_12h20.15.905.csv,3,32,2,3,b,1,0,1,aud,C,63,1,2C,3C,1,0,z,1.12149630000022,0,1,0,0,3C,2C,C23,2.75153531304195,0.796636065506236,0.203363934493764,0.370457150117331,0.370457150117331,0.395324234436207,0.888362554644483,0.5,0.370457150117331,0.5,0.5,0.917286220294432,0.27447700014611,0.5,0.5,0.5,0.917286220294432,0.230311688965068,0.769688311034932,0.27447700014611,0.917286220294432,0.20215991205121,0.292270644908874,-0.27447700014611,-0.0711130656523455,0.5,0.259085699765338,0.846494641612188,0.73479146991842,2.23055595740713,0.5,74.3932115239118
CBC_1031,CBC_1031_MSI_AV_v3_Vset6_Aset2_2023-10-20_12h20.15.905.csv,3,33,3,1,b,1,0,2,aud,D,27,1,3D,1D,1,0,b,1.06440689999908,1,0,1,1,3D,1D,D31,3.17805383034795,0.796636065506236,0.203363934493764,0.370457150117331,0.370457150117331,0.395324234436207,0.888362554644483,0.5,0.370457150117331,0.5,0.5,0.917286220294432,0.203363934493764,0.5,0.5,0.5,0.917286220294432,0.647213108516551,0.352786891483449,0.917286220294432,0.5,0.31884369195926,0.617913543465482,0.082713779705568,0.0214299574952531,0.5,0.259085699765338,0.846494641612188,0.73479146991842,2.23055595740713,0.5,74.3932115239118
CBC_1031,CBC_1031_MSI_AV_v3_Vset6_Aset2_2023-10-20_12h20.15.905.csv,3,34,0,2,z,0,1,1,aud,C,27,1,0C,2C,0,1,z,2.43196169999828,0,1,1,1,2C,0C,C02,3.89182029811063,0.796636065506236,0.203363934493764,0.370457150117331,0.370457150117331,0.395324234436207,0.888362554644483,0.5,0.370457150117331,0.5,0.5,0.917286220294432,0.203363934493764,0.5,0.5,0.5,0.938716177789685,0.647213108516551,0.352786891483449,0.917286220294432,0.5,0.16084406415258,0.618912422291159,0.082713779705568,0.0214299574952531,0.5,0.259085699765338,0.846494641612188,0.73479146991842,2.23055595740713,0.5,74.3932115239118
CBC_1031,CBC_1031_MSI_AV_v3_Vset6_Aset2_2023-10-20_12h20.15.905.csv,3,35,2,3,z,0,1,2,aud,D,63,0,2D,3D,1,0,z,3.20059269999729,0,1,1,0,3D,2D,D23,2.52572864430826,0.796636065506236,0.203363934493764,0.370457150117331,0.370457150117331,0.395324234436207,0.888362554644483,0.5,0.370457150117331,0.5,0.5,0.938716177789685,0.203363934493764,0.5,0.5,0.5,0.938716177789685,0.652467937930499,0.347532062069501,0.938716177789685,0.5,0.0739977444010688,0.622542878119991,-0.938716177789685,-0.243207937803684,0.5,0.259085699765338,0.846494641612188,0.73479146991842,2.23055595740713,0.5,74.3932115239118
CBC_1031,CBC_1031_MSI_AV_v3_Vset6_Aset2_2023-10-20_12h20.15.905.csv,3,36,1,0,z,0,1,0,aud,A,63,1,1A,0A,0,1,z,1.91601119999905,0,1,1,1,0A,1A,A10,2.54553127160444,0.796636065506236,0.203363934493764,0.370457150117331,0.370457150117331,0.395324234436207,0.888362554644483,0.5,0.370457150117331,0.5,0.5,0.938716177789685,0.203363934493764,0.5,0.5,0.5,0.695508239986002,0.796636065506236,0.203363934493764,0.796636065506236,0.203363934493764,0.320737908393064,0.725244325762468,0.203363934493764,0.0526886872753492,0.5,0.259085699765338,0.846494641612188,0.73479146991842,2.23055595740713,0.5,74.3932115239118
CBC_1031,CBC_1031_MSI_AV_v3_Vset6_Aset2_2023-10-20_12h20.15.905.csv,3,37,2,3,b,1,0,1,aud,C,63,1,2C,3C,1,0,b,2.50043729999925,1,0,1,1,2C,3C,C23,2.56494935746154,0.849324752781585,0.203363934493764,0.370457150117331,0.370457150117331,0.395324234436207,0.888362554644483,0.5,0.370457150117331,0.5,0.5,0.938716177789685,0.203363934493764,0.5,0.5,0.5,0.695508239986002,0.821935490946285,0.178064509053715,0.938716177789685,0.203363934493764,0.172396147504372,0.741439229167104,0.0612838222103149,0.015877761961654,0.5,0.259085699765338,0.846494641612188,0.73479146991842,2.23055595740713,0.5,74.3932115239118
CBC_1031,CBC_1031_MSI_AV_v3_Vset6_Aset2_2023-10-20_12h20.15.905.csv,3,38,0,2,b,1,0,0,aud,A,27,1,0A,2A,1,0,b,2.91116509999847,1,0,1,1,0A,2A,A02,2.87167962488401,0.849324752781585,0.203363934493764,0.370457150117331,0.370457150117331,0.395324234436207,0.888362554644483,0.5,0.370457150117331,0.5,0.5,0.954593939751339,0.203363934493764,0.5,0.5,0.5,0.695508239986002,0.696292305012144,0.303707694987856,0.849324752781585,0.370457150117331,0.10309374378384,0.655211727934486,0.150675247218415,0.0390378018628983,0.5,0.259085699765338,0.846494641612188,0.73479146991842,2.23055595740713,0.5,74.3932115239118
CBC_1031,CBC_1031_MSI_AV_v3_Vset6_Aset2_2023-10-20_12h20.15.905.csv,3,39,2,3,z,0,1,2,aud,D,63,1,2D,3D,0,1,z,1.54984699999841,0,1,1,1,3D,2D,D23,2.37954613413017,0.888362554644483,0.203363934493764,0.370457150117331,0.370457150117331,0.395324234436207,0.888362554644483,0.5,0.370457150117331,0.5,0.5,0.954593939751339,0.203363934493764,0.5,0.5,0.5,0.695508239986002,0.581767834568957,0.418232165431043,0.695508239986002,0.5,0.353294243700254,0.566273450590958,0.304491760013998,0.078889460716006,0.5,0.259085699765338,0.846494641612188,0.73479146991842,2.23055595740713,0.5,74.3932115239118
CBC_1031,CBC_1031_MSI_AV_v3_Vset6_Aset2_2023-10-20_12h20.15.905.csv,3,40,3,2,b,1,0,2,aud,D,63,1,3D,2D,1,0,z,1.03593249999903,0,1,0,0,2D,3D,D32,3.31418600467253,0.888362554644483,0.203363934493764,0.370457150117331,0.370457150117331,0.395324234436207,0.888362554644483,0.5,0.370457150117331,0.5,0.5,0.954593939751339,0.203363934493764,0.5,0.5,0.5,0.774397700702008,0.392342201908064,0.607657798091936,0.5,0.774397700702008,0.169308844975772,0.412713854561381,-0.5,-0.129542849882669,0.5,0.259085699765338,0.846494641612188,0.73479146991842,2.23055595740713,0.5,74.3932115239118
CBC_1031,CBC_1031_MSI_AV_v3_Vset6_Aset2_2023-10-20_12h20.15.905.csv,3,41,3,1,z,0,1,3,aud,B,27,1,3B,1B,0,1,z,2.77038969999921,0,1,1,1,1B,3B,B31,3.3322045101752,0.888362554644483,0.203363934493764,0.370457150117331,0.370457150117331,0.395324234436207,0.888362554644483,0.5,0.370457150117331,0.5,0.5,0.954593939751339,0.203363934493764,0.5,0.5,0.370457150117331,0.774397700702008,0.705710715588594,0.294289284411406,0.888362554644483,0.370457150117331,0.120297335751483,0.663352379428335,0.111637445355517,0.0289236656499487,0.5,0.259085699765338,0.846494641612188,0.73479146991842,2.23055595740713,0.5,74.3932115239118
CBC_1031,CBC_1031_MSI_AV_v3_Vset6_Aset2_2023-10-20_12h20.15.905.csv,3,42,3,0,b,1,0,2,aud,D,9,1,3D,0D,1,0,b,4.70598749999954,1,0,1,1,3D,0D,D30,4.04305126783455,0.888362554644483,0.203363934493764,0.370457150117331,0.370457150117331,0.395324234436207,0.917286220294432,0.5,0.370457150117331,0.5,0.5,0.954593939751339,0.203363934493764,0.5,0.5,0.370457150117331,0.774397700702008,0.607657798091936,0.392342201908064,0.774397700702008,0.5,0.0156186065670193,0.587695315722633,0.225602299297992,0.0584503295822895,0.5,0.259085699765338,0.846494641612188,0.73479146991842,2.23055595740713,0.5,74.3932115239118
CBC_1031,CBC_1031_MSI_AV_v3_Vset6_Aset2_2023-10-20_12h20.15.905.csv,3,43,0,1,z,0,1,3,aud,B,63,1,0B,1B,0,1,b,1.60974149999856,1,0,0,0,0B,1B,B01,2.67414864942653,0.888362554644483,0.203363934493764,0.370457150117331,0.370457150117331,0.395324234436207,0.917286220294432,0.5,0.370457150117331,0.5,0.5,0.954593939751339,0.203363934493764,0.5,0.5,0.370457150117331,0.832848030284297,0.301174071112615,0.698825928887385,0.395324234436207,0.917286220294432,0.205575123398184,0.342730981866723,-0.395324234436207,-0.102422855913101,0.5,0.259085699765338,0.846494641612188,0.73479146991842,2.23055595740713,0.5,74.3932115239118
CBC_1031,CBC_1031_MSI_AV_v3_Vset6_Aset2_2023-10-20_12h20.15.905.csv,3,44,0,1,b,1,0,0,aud,A,63,1,0A,1A,1,0,b,2.09040689999892,1,0,1,1,0A,1A,A01,2.97892515523761,0.888362554644483,0.203363934493764,0.370457150117331,0.370457150117331,0.292901378523106,0.917286220294432,0.5,0.370457150117331,0.5,0.5,0.954593939751339,0.203363934493764,0.5,0.5,0.370457150117331,0.832848030284297,0.813722634270522,0.186277365729478,0.888362554644483,0.203363934493764,0.269722078227957,0.73767683624713,0.111637445355517,0.0289236656499487,0.5,0.259085699765338,0.846494641612188,0.73479146991842,2.23055595740713,0.5,74.3932115239118
