ID,session,trialNr,mod2Stim,visStimLeft,visStimRight,correctKey,frequency,rewardAccurate,probFB,stimPairLeft,stimPairRight,leftCorrect,rightCorrect,pCorrectLeft,pCorrectRight,triplet,rt,surprise,0A belief,1A belief,2A belief,3A belief,0B belief,1B belief,2B belief,3B belief,0C belief,1C belief,2C belief,3C belief,0D belief,1D belief,2D belief,3D belief,reactionTime,choice,choiceLeft,choiceRight,chosenPair,otherPair,beliefPair,beliefOtherPair,beliefPairNorm,beliefOtherPairNorm,choiceAccurate,reward,rewardPE,update2,sim_CBCsimpleRW_CBCdriftDiffusionLR_startBelief,sim_CBCsimpleRW_CBCdriftDiffusionLR_alpha1,sim_CBCsimpleRW_CBCdriftDiffusionLR_nonDecisionTime,sim_CBCsimpleRW_CBCdriftDiffusionLR_weight,sim_CBCsimpleRW_CBCdriftDiffusionLR_startingBoundary,sim_CBCsimpleRW_CBCdriftDiffusionLR_startingPoint,lik,corrLik,fitCBCsimpleRW_CBCdriftDiffusionLR_startBelief,fitCBCsimpleRW_CBCdriftDiffusionLR_alpha1,fitCBCsimpleRW_CBCdriftDiffusionLR_nonDecisionTime,fitCBCsimpleRW_CBCdriftDiffusionLR_weight,fitCBCsimpleRW_CBCdriftDiffusionLR_startingBoundary,fitCBCsimpleRW_CBCdriftDiffusionLR_startingPoint,fit_CBCsimpleRW_CBCdriftDiffusionLR_NLL
107,1,1,B,0,1,l,63,1,0.95,0B,1B,0,1,0,1,B01,3.242054720442,2.77258872223978,0.5,0.5,0.5,0.5,0.5,0.5,0.5,0.5,0.5,0.5,0.5,0.5,0.5,0.5,0.5,0.5,2.97412959012047,0,0,1,1B,0B,0.5,0.5,0.5,0.5,1,1,0.5,0.249802650031654,0.5,0.443835528258099,0.451129590120469,10.6649644321632,2.64804826950982,0.5,0.0493678422912501,0.49996981580285,0.5,0.499605300063307,0.486938220060734,8.81456106320291,2.17192121941259,0.5,-5.17093233632881
107,1,2,D,2,3,l,63,1,0.95,2D,3D,0,1,0,1,D23,1.32644365269153,2.83321334405622,0.5,0.5,0.5,0.5,0.5,0.749802650031654,0.5,0.5,0.5,0.5,0.5,0.5,0.5,0.5,0.5,0.5,1.88012959012047,1,1,0,2D,3D,0.5,0.5,0.5,0.5,0,0,-0.5,-0.249802650031654,0.5,0.443835528258099,0.451129590120469,10.6649644321632,2.64804826950982,0.5,0.155142394557734,0.500277136923879,0.5,0.499605300063307,0.486938220060734,8.81456106320291,2.17192121941259,0.5,-5.17093233632881
107,1,3,B,1,3,a,27,1,0.95,1B,3B,1,0,1,0,B13,0.214852789375078,2.89037175789616,0.5,0.5,0.5,0.5,0.5,0.749802650031654,0.5,0.5,0.5,0.5,0.5,0.5,0.5,0.5,0.250197349968346,0.5,1.00812959012047,1,1,0,1B,3B,0.749802650031654,0.5,0.59993683803812,0.40006316196188,1,1,0.250197349968346,0.12499992210598,0.5,0.443835528258099,0.451129590120469,10.6649644321632,2.64804826950982,0.5,1.12029185149924,0.978663936873564,0.5,0.499605300063307,0.486938220060734,8.81456106320291,2.17192121941259,0.5,-5.17093233632881
107,1,4,C,3,2,l,63,1,0.95,3C,2C,0,1,0,1,C32,0.728544618503027,2.94443897916644,0.5,0.5,0.5,0.5,0.5,0.874802572137634,0.5,0.5,0.5,0.5,0.5,0.5,0.5,0.5,0.250197349968346,0.5,2.20912959012047,0,0,1,2C,3C,0.5,0.5,0.5,0.5,1,1,0.5,0.249802650031654,0.5,0.443835528258099,0.451129590120469,10.6649644321632,2.64804826950982,0.5,0.109878357480859,0.499866997428515,0.5,0.499605300063307,0.486938220060734,8.81456106320291,2.17192121941259,0.5,-5.17093233632881
107,1,5,C,2,0,a,27,1,0.95,2C,0C,1,0,1,0,C20,3.28804655307362,2.99573227355399,0.5,0.5,0.5,0.5,0.5,0.874802572137634,0.5,0.5,0.5,0.5,0.749802650031654,0.5,0.5,0.5,0.250197349968346,0.5,0.672129590120469,1,1,0,2C,0C,0.749802650031654,0.5,0.59993683803812,0.40006316196188,1,1,0.250197349968346,0.12499992210598,0.5,0.443835528258099,0.451129590120469,10.6649644321632,2.64804826950982,0.5,1.14502653984022,0.978711418092796,0.5,0.499605300063307,0.486938220060734,8.81456106320291,2.17192121941259,0.5,-5.17093233632881
107,1,6,A,3,0,l,9,1,0.95,3A,0A,0,1,0,1,A30,3.02519105642842,3.04452243772342,0.5,0.5,0.5,0.5,0.5,0.874802572137634,0.5,0.5,0.5,0.5,0.874802572137634,0.5,0.5,0.5,0.250197349968346,0.5,0.778129590120469,1,1,0,3A,0A,0.5,0.5,0.5,0.5,0,0,-0.5,-0.249802650031654,0.5,0.443835528258099,0.451129590120469,10.6649644321632,2.64804826950982,0.5,0.363897922139652,0.499952501909424,0.5,0.499605300063307,0.486938220060734,8.81456106320291,2.17192121941259,0.5,-5.17093233632881
107,1,7,C,3,2,l,63,1,0.95,3C,2C,0,1,0,1,C32,1.6734231685627,2.39789527279837,0.5,0.5,0.5,0.250197349968346,0.5,0.874802572137634,0.5,0.5,0.5,0.5,0.874802572137634,0.5,0.5,0.5,0.250197349968346,0.5,1.01312959012047,0,0,1,2C,3C,0.874802572137634,0.5,0.636311416538473,0.363688583461527,1,1,0.125197427862366,0.0625492985143318,0.5,0.443835528258099,0.451129590120469,10.6649644321632,2.64804826950982,0.5,1.10073873316558,0.99461891822134,0.5,0.499605300063307,0.486938220060734,8.81456106320291,2.17192121941259,0.5,-5.17093233632881
107,1,8,A,0,1,a,63,1,0.95,0A,1A,1,0,1,0,A01,2.30917145800595,3.13549421592915,0.5,0.5,0.5,0.250197349968346,0.5,0.874802572137634,0.5,0.5,0.5,0.5,0.937351870651965,0.5,0.5,0.5,0.250197349968346,0.5,2.19112959012047,1,1,0,0A,1A,0.5,0.5,0.5,0.5,1,1,0.5,0.249802650031654,0.5,0.443835528258099,0.451129590120469,10.6649644321632,2.64804826950982,0.5,0.111589155087173,0.49818178664767,0.5,0.499605300063307,0.486938220060734,8.81456106320291,2.17192121941259,0.5,-5.17093233632881
107,1,9,D,3,2,a,63,1,0.95,3D,2D,1,0,1,0,D32,2.94604737901289,3.17805383034795,0.749802650031654,0.5,0.5,0.250197349968346,0.5,0.874802572137634,0.5,0.5,0.5,0.5,0.937351870651965,0.5,0.5,0.5,0.250197349968346,0.5,0.691129590120469,1,1,0,3D,2D,0.5,0.250197349968346,0.666491290619857,0.333508709380143,1,1,0.5,0.249802650031654,0.5,0.443835528258099,0.451129590120469,10.6649644321632,2.64804826950982,0.5,2.63003762525387,0.998301335972993,0.5,0.499605300063307,0.486938220060734,8.81456106320291,2.17192121941259,0.5,-5.17093233632881
107,1,10,C,2,3,a,63,1,0.95,2C,3C,1,0,1,0,C23,1.81308017118643,3.2188758248682,0.749802650031654,0.5,0.5,0.250197349968346,0.5,0.874802572137634,0.5,0.5,0.5,0.5,0.937351870651965,0.5,0.5,0.5,0.250197349968346,0.749802650031654,0.594129590120469,1,1,0,2C,3C,0.937351870651965,0.5,0.652138067087772,0.347861932912228,1,1,0.0626481293480345,0.0312993374613297,0.5,0.443835528258099,0.451129590120469,10.6649644321632,2.64804826950982,0.5,0.630456599444196,0.99705125023988,0.5,0.499605300063307,0.486938220060734,8.81456106320291,2.17192121941259,0.5,-5.17093233632881
107,1,11,D,1,3,l,27,1,0.95,1D,3D,0,1,0,1,D13,2.54981878590771,3.25809653802148,0.749802650031654,0.5,0.5,0.250197349968346,0.5,0.874802572137634,0.5,0.5,0.5,0.5,0.968651208113295,0.5,0.5,0.5,0.250197349968346,0.749802650031654,0.715129590120469,0,0,1,3D,1D,0.749802650031654,0.5,0.59993683803812,0.40006316196188,1,1,0.250197349968346,0.12499992210598,0.5,0.443835528258099,0.451129590120469,10.6649644321632,2.64804826950982,0.5,1.42647094769789,0.978695798959828,0.5,0.499605300063307,0.486938220060734,8.81456106320291,2.17192121941259,0.5,-5.17093233632881
107,1,12,A,1,0,l,63,0,0.95,1A,0A,0,1,1,0,A10,0.468200022055328,3.29583686600433,0.749802650031654,0.5,0.5,0.250197349968346,0.5,0.874802572137634,0.5,0.5,0.5,0.5,0.968651208113295,0.5,0.5,0.5,0.250197349968346,0.874802572137634,1.09612959012047,0,0,1,0A,1A,0.749802650031654,0.5,0.59993683803812,0.40006316196188,1,0,-0.749802650031654,-0.374605377957327,0.5,0.443835528258099,0.451129590120469,10.6649644321632,2.64804826950982,0.5,0.909860956796993,0.978713279822095,0.5,0.499605300063307,0.486938220060734,8.81456106320291,2.17192121941259,0.5,-5.17093233632881
107,1,13,C,2,3,a,63,1,0.95,2C,3C,1,0,1,0,C23,2.66847509480394,2.63905732961526,0.375197272074326,0.5,0.5,0.250197349968346,0.5,0.874802572137634,0.5,0.5,0.5,0.5,0.968651208113295,0.5,0.5,0.5,0.250197349968346,0.874802572137634,1.03412959012047,1,1,0,2C,3C,0.968651208113295,0.5,0.659551568651671,0.340448431348329,1,1,0.0313487918867048,0.0156620225771793,0.5,0.443835528258099,0.451129590120469,10.6649644321632,2.64804826950982,0.5,0.886606763440317,0.997783768833073,0.5,0.499605300063307,0.486938220060734,8.81456106320291,2.17192121941259,0.5,-5.17093233632881
107,1,14,A,0,2,a,27,1,0.95,0A,2A,1,0,1,0,A02,0.767948049020411,3.36729582998647,0.375197272074326,0.5,0.5,0.250197349968346,0.5,0.874802572137634,0.5,0.5,0.5,0.5,0.984313230690474,0.5,0.5,0.5,0.250197349968346,0.874802572137634,1.15012959012047,0,0,1,2A,0A,0.5,0.375197272074326,0.571299769724988,0.428700230275012,0,0,-0.5,-0.249802650031654,0.5,0.443835528258099,0.451129590120469,10.6649644321632,2.64804826950982,0.5,0.762511796945103,0.938655216211911,0.5,0.499605300063307,0.486938220060734,8.81456106320291,2.17192121941259,0.5,-5.17093233632881
107,1,15,B,0,1,l,63,1,0.95,0B,1B,0,1,0,1,B01,0.140325067277571,2.70805020110221,0.375197272074326,0.5,0.250197349968346,0.250197349968346,0.5,0.874802572137634,0.5,0.5,0.5,0.5,0.984313230690474,0.5,0.5,0.5,0.250197349968346,0.874802572137634,0.689129590120469,0,0,1,1B,0B,0.874802572137634,0.5,0.636311416538473,0.363688583461527,1,1,0.125197427862366,0.0625492985143318,0.5,0.443835528258099,0.451129590120469,10.6649644321632,2.64804826950982,0.5,1.95551246781056,0.994614012727249,0.5,0.499605300063307,0.486938220060734,8.81456106320291,2.17192121941259,0.5,-5.17093233632881
107,1,16,D,3,2,a,63,1,0.95,3D,2D,1,0,1,0,D32,2.44594783262016,2.7408400239252,0.375197272074326,0.5,0.250197349968346,0.250197349968346,0.5,0.937351870651965,0.5,0.5,0.5,0.5,0.984313230690474,0.5,0.5,0.5,0.250197349968346,0.874802572137634,0.854129590120469,1,1,0,3D,2D,0.874802572137634,0.250197349968346,0.777602340185072,0.222397659814928,1,1,0.125197427862366,0.0625492985143318,0.5,0.443835528258099,0.451129590120469,10.6649644321632,2.64804826950982,0.5,0.977657868153619,0.999975836825194,0.5,0.499605300063307,0.486938220060734,8.81456106320291,2.17192121941259,0.5,-5.17093233632881
107,1,17,B,1,2,a,9,1,0.95,1B,2B,1,0,1,0,B12,1.4338468472726,3.46573590279973,0.375197272074326,0.5,0.250197349968346,0.250197349968346,0.5,0.937351870651965,0.5,0.5,0.5,0.5,0.984313230690474,0.5,0.5,0.5,0.250197349968346,0.937351870651965,0.650129590120469,1,1,0,1B,2B,0.937351870651965,0.5,0.652138067087772,0.347861932912228,1,1,0.0626481293480345,0.0312993374613297,0.5,0.443835528258099,0.451129590120469,10.6649644321632,2.64804826950982,0.5,1.81361026207883,0.997058142774754,0.5,0.499605300063307,0.486938220060734,8.81456106320291,2.17192121941259,0.5,-5.17093233632881
107,1,18,D,1,3,l,27,1,0.95,1D,3D,0,1,0,1,D13,1.91481804389118,2.80336038090653,0.375197272074326,0.5,0.250197349968346,0.250197349968346,0.5,0.968651208113295,0.5,0.5,0.5,0.5,0.984313230690474,0.5,0.5,0.5,0.250197349968346,0.937351870651965,0.953129590120469,0,0,1,3D,1D,0.937351870651965,0.5,0.652138067087772,0.347861932912228,1,1,0.0626481293480345,0.0312993374613297,0.5,0.443835528258099,0.451129590120469,10.6649644321632,2.64804826950982,0.5,1.32159250478341,0.997068960231825,0.5,0.499605300063307,0.486938220060734,8.81456106320291,2.17192121941259,0.5,-5.17093233632881
107,1,19,A,0,1,a,63,1,0.95,0A,1A,1,0,1,0,A01,0.00290712948659827,2.83321334405622,0.375197272074326,0.5,0.250197349968346,0.250197349968346,0.5,0.968651208113295,0.5,0.5,0.5,0.5,0.984313230690474,0.5,0.5,0.5,0.250197349968346,0.968651208113295,1.98012959012047,0,0,1,1A,0A,0.5,0.375197272074326,0.571299769724988,0.428700230275012,0,0,-0.5,-0.249802650031654,0.5,0.443835528258099,0.451129590120469,10.6649644321632,2.64804826950982,0.5,0.168230228370216,0.938661808082663,0.5,0.499605300063307,0.486938220060734,8.81456106320291,2.17192121941259,0.5,-5.17093233632881
107,1,20,A,1,0,l,63,1,0.95,1A,0A,0,1,0,1,A10,3.38471093563135,2.86220088092947,0.375197272074326,0.250197349968346,0.250197349968346,0.250197349968346,0.5,0.968651208113295,0.5,0.5,0.5,0.5,0.984313230690474,0.5,0.5,0.5,0.250197349968346,0.968651208113295,0.663129590120469,0,0,1,0A,1A,0.375197272074326,0.250197349968346,0.59993683803812,0.40006316196188,1,1,0.624802727925674,0.312154754365679,0.5,0.443835528258099,0.451129590120469,10.6649644321632,2.64804826950982,0.5,1.06097773629916,0.978576723719056,0.5,0.499605300063307,0.486938220060734,8.81456106320291,2.17192121941259,0.5,-5.17093233632881
107,1,21,C,2,0,a,27,1,0.95,2C,0C,1,0,1,0,C20,1.36877628838514,2.89037175789616,0.687352026440005,0.250197349968346,0.250197349968346,0.250197349968346,0.5,0.968651208113295,0.5,0.5,0.5,0.5,0.984313230690474,0.5,0.5,0.5,0.250197349968346,0.968651208113295,0.890129590120469,1,1,0,2C,0C,0.984313230690474,0.5,0.663143877140131,0.336856122859869,1,1,0.0156867693095255,0.00783719308790937,0.5,0.443835528258099,0.451129590120469,10.6649644321632,2.64804826950982,0.5,1.68106300422368,0.998058982702887,0.5,0.499605300063307,0.486938220060734,8.81456106320291,2.17192121941259,0.5,-5.17093233632881
107,1,22,B,0,1,l,63,1,0.95,0B,1B,0,1,0,1,B01,3.3624601500567,2.51230562397611,0.687352026440005,0.250197349968346,0.250197349968346,0.250197349968346,0.5,0.968651208113295,0.5,0.5,0.5,0.5,0.992150423778384,0.5,0.5,0.5,0.250197349968346,0.968651208113295,0.638129590120469,0,0,1,1B,0B,0.968651208113295,0.5,0.659551568651671,0.340448431348329,1,1,0.0313487918867048,0.0156620225771793,0.5,0.443835528258099,0.451129590120469,10.6649644321632,2.64804826950982,0.5,1.74033313011753,0.997784785880765,0.5,0.499605300063307,0.486938220060734,8.81456106320291,2.17192121941259,0.5,-5.17093233632881
107,1,23,C,2,0,a,27,1,0.95,2C,0C,1,0,1,0,C20,2.25269365455491,2.53897387105828,0.687352026440005,0.250197349968346,0.250197349968346,0.250197349968346,0.5,0.984313230690474,0.5,0.5,0.5,0.5,0.992150423778384,0.5,0.5,0.5,0.250197349968346,0.968651208113295,1.35212959012047,1,1,0,2C,0C,0.992150423778384,0.5,0.664913140101577,0.335086859898423,1,1,0.00784957622161608,0.00392168988357031,0.5,0.443835528258099,0.451129590120469,10.6649644321632,2.64804826950982,0.5,0.162884892602349,0.998197957777798,0.5,0.499605300063307,0.486938220060734,8.81456106320291,2.17192121941259,0.5,-5.17093233632881
107,1,24,D,3,2,a,63,1,0.95,3D,2D,1,0,1,0,D32,3.28511440804476,2.56494935746154,0.687352026440005,0.250197349968346,0.250197349968346,0.250197349968346,0.5,0.984313230690474,0.5,0.5,0.5,0.5,0.996072113661954,0.5,0.5,0.5,0.250197349968346,0.968651208113295,0.734129590120469,1,1,0,3D,2D,0.968651208113295,0.250197349968346,0.794726466787527,0.205273533212473,1,1,0.0313487918867048,0.0156620225771793,0.5,0.443835528258099,0.451129590120469,10.6649644321632,2.64804826950982,0.5,3.25625377168186,0.999987400136769,0.5,0.499605300063307,0.486938220060734,8.81456106320291,2.17192121941259,0.5,-5.17093233632881
107,1,25,A,1,0,l,63,1,0.95,1A,0A,0,1,0,1,A10,3.05818472481515,2.59026716544583,0.687352026440005,0.250197349968346,0.250197349968346,0.250197349968346,0.5,0.984313230690474,0.5,0.5,0.5,0.5,0.996072113661954,0.5,0.5,0.5,0.250197349968346,0.984313230690474,0.627129590120469,0,0,1,0A,1A,0.687352026440005,0.250197349968346,0.733136881892211,0.26686311810779,1,1,0.312647973559995,0.156200584644626,0.5,0.443835528258099,0.451129590120469,10.6649644321632,2.64804826950982,0.5,3.26934731346139,0.999867650329737,0.5,0.499605300063307,0.486938220060734,8.81456106320291,2.17192121941259,0.5,-5.17093233632881
107,1,26,C,3,2,l,63,1,0.95,3C,2C,0,1,0,1,C32,2.67855162264728,2.6149597780362,0.843552611084632,0.250197349968346,0.250197349968346,0.250197349968346,0.5,0.984313230690474,0.5,0.5,0.5,0.5,0.996072113661954,0.5,0.5,0.5,0.250197349968346,0.984313230690474,0.623129590120469,0,0,1,2C,3C,0.996072113661954,0.5,0.665791511362281,0.334208488637719,1,1,0.00392788633804575,0.00196239283253391,0.5,0.443835528258099,0.451129590120469,10.6649644321632,2.64804826950982,0.5,1.51486551899855,0.998244951080446,0.5,0.499605300063307,0.486938220060734,8.81456106320291,2.17192121941259,0.5,-5.17093233632881
107,1,27,A,2,0,l,27,1,0.95,2A,0A,0,1,0,1,A20,3.28570183373619,3.73766961828337,0.843552611084632,0.250197349968346,0.250197349968346,0.250197349968346,0.5,0.984313230690474,0.5,0.5,0.5,0.5,0.998034506494488,0.5,0.5,0.5,0.250197349968346,0.984313230690474,0.664129590120469,0,0,1,0A,2A,0.843552611084632,0.250197349968346,0.77124812902624,0.22875187097376,1,1,0.156447388915368,0.0781619446831836,0.5,0.443835528258099,0.451129590120469,10.6649644321632,2.64804826950982,0.5,4.94623101260077,0.999969143300997,0.5,0.499605300063307,0.486938220060734,8.81456106320291,2.17192121941259,0.5,-5.17093233632881
107,1,28,D,3,2,a,63,1,0.95,3D,2D,1,0,1,0,D32,0.723399893029442,2.37490575457367,0.921714555767815,0.250197349968346,0.250197349968346,0.250197349968346,0.5,0.984313230690474,0.5,0.5,0.5,0.5,0.998034506494488,0.5,0.5,0.5,0.250197349968346,0.984313230690474,0.740129590120469,1,1,0,3D,2D,0.984313230690474,0.250197349968346,0.797330736659362,0.202669263340638,1,1,0.0156867693095255,0.00783719308790937,0.5,0.443835528258099,0.451129590120469,10.6649644321632,2.64804826950982,0.5,3.03109794215484,0.999988644223948,0.5,0.499605300063307,0.486938220060734,8.81456106320291,2.17192121941259,0.5,-5.17093233632881
107,1,29,D,3,2,a,63,1,0.95,3D,2D,1,0,1,0,D32,1.23789261547429,2.17475172148416,0.921714555767815,0.250197349968346,0.250197349968346,0.250197349968346,0.5,0.984313230690474,0.5,0.5,0.5,0.5,0.998034506494488,0.5,0.5,0.5,0.250197349968346,0.992150423778384,0.861129590120469,1,1,0,3D,2D,0.992150423778384,0.250197349968346,0.798609249957611,0.201390750042389,1,1,0.00784957622161608,0.00392168988357031,0.5,0.443835528258099,0.451129590120469,10.6649644321632,2.64804826950982,0.5,0.666262394072046,0.999989178360636,0.5,0.499605300063307,0.486938220060734,8.81456106320291,2.17192121941259,0.5,-5.17093233632881
107,1,30,B,3,1,l,27,1,0.95,3B,1B,0,1,0,1,B31,0.516786726356753,3.80666248977032,0.921714555767815,0.250197349968346,0.250197349968346,0.250197349968346,0.5,0.984313230690474,0.5,0.5,0.5,0.5,0.998034506494488,0.5,0.5,0.5,0.250197349968346,0.996072113661954,0.812129590120469,0,0,1,1B,3B,0.984313230690474,0.5,0.663143877140131,0.336856122859869,1,1,0.0156867693095255,0.00783719308790937,0.5,0.443835528258099,0.451129590120469,10.6649644321632,2.64804826950982,0.5,2.25616764748846,0.998067918577556,0.5,0.499605300063307,0.486938220060734,8.81456106320291,2.17192121941259,0.5,-5.17093233632881
107,1,31,D,0,3,l,9,1,0.95,0D,3D,0,1,0,1,D03,0.739734309716261,3.8286413964891,0.921714555767815,0.250197349968346,0.250197349968346,0.250197349968346,0.5,0.992150423778384,0.5,0.5,0.5,0.5,0.998034506494488,0.5,0.5,0.5,0.250197349968346,0.996072113661954,0.936129590120469,0,0,1,3D,0D,0.996072113661954,0.5,0.665791511362281,0.334208488637719,1,1,0.00392788633804575,0.00196239283253391,0.5,0.443835528258099,0.451129590120469,10.6649644321632,2.64804826950982,0.5,1.35901187652373,0.99824996935435,0.5,0.499605300063307,0.486938220060734,8.81456106320291,2.17192121941259,0.5,-5.17093233632881
107,1,32,B,1,0,a,63,1,0.95,1B,0B,1,0,1,0,B10,3.38845980630645,3.85014760171006,0.921714555767815,0.250197349968346,0.250197349968346,0.250197349968346,0.5,0.992150423778384,0.5,0.5,0.5,0.5,0.998034506494488,0.5,0.5,0.5,0.250197349968346,0.998034506494488,0.867129590120469,1,1,0,1B,0B,0.992150423778384,0.5,0.664913140101577,0.335086859898423,1,1,0.00784957622161608,0.00392168988357031,0.5,0.443835528258099,0.451129590120469,10.6649644321632,2.64804826950982,0.5,1.84712531320557,0.998195479606219,0.5,0.499605300063307,0.486938220060734,8.81456106320291,2.17192121941259,0.5,-5.17093233632881
107,1,33,A,1,0,l,63,1,0.95,1A,0A,0,1,0,1,A10,0.620816449324008,2.484906649788,0.921714555767815,0.250197349968346,0.250197349968346,0.250197349968346,0.5,0.996072113661954,0.5,0.5,0.5,0.5,0.998034506494488,0.5,0.5,0.5,0.250197349968346,0.998034506494488,0.843129590120469,0,0,1,0A,1A,0.921714555767815,0.250197349968346,0.786504984936406,0.213495015063593,1,1,0.0782854442321849,0.03911182285621,0.5,0.443835528258099,0.451129590120469,10.6649644321632,2.64804826950982,0.5,0.99749791896774,0.999982823340801,0.5,0.499605300063307,0.486938220060734,8.81456106320291,2.17192121941259,0.5,-5.17093233632881
107,1,34,B,1,0,a,63,1,0.95,1B,0B,1,0,1,0,B10,2.72377660764385,3.19867311755068,0.960826378624025,0.250197349968346,0.250197349968346,0.250197349968346,0.5,0.996072113661954,0.5,0.5,0.5,0.5,0.998034506494488,0.5,0.5,0.5,0.250197349968346,0.998034506494488,0.723129590120469,1,1,0,1B,0B,0.996072113661954,0.5,0.665791511362281,0.334208488637719,1,1,0.00392788633804575,0.00196239283253391,0.5,0.443835528258099,0.451129590120469,10.6649644321632,2.64804826950982,0.5,2.70924311487514,0.998251111318961,0.5,0.499605300063307,0.486938220060734,8.81456106320291,2.17192121941259,0.5,-5.17093233632881
107,1,35,C,3,2,l,63,1,0.95,3C,2C,0,1,0,1,C32,1.60192314724812,2.52572864430826,0.960826378624025,0.250197349968346,0.250197349968346,0.250197349968346,0.5,0.998034506494488,0.5,0.5,0.5,0.5,0.998034506494488,0.5,0.5,0.5,0.250197349968346,0.998034506494488,0.842129590120469,0,0,1,2C,3C,0.998034506494488,0.5,0.666229317260497,0.333770682739503,1,1,0.00196549350551178,0.000981970972593697,0.5,0.443835528258099,0.451129590120469,10.6649644321632,2.64804826950982,0.5,2.04068580215663,0.998279960452573,0.5,0.499605300063307,0.486938220060734,8.81456106320291,2.17192121941259,0.5,-5.17093233632881
107,1,36,A,0,2,a,27,1,0.95,0A,2A,1,0,1,0,A02,0.790287486713679,3.23867845216438,0.960826378624025,0.250197349968346,0.250197349968346,0.250197349968346,0.5,0.998034506494488,0.5,0.5,0.5,0.5,0.999016477467082,0.5,0.5,0.5,0.250197349968346,0.998034506494488,0.741129590120469,1,1,0,0A,2A,0.960826378624025,0.250197349968346,0.793400125809952,0.206599874190048,1,1,0.0391736213759748,0.0195713488621103,0.5,0.443835528258099,0.451129590120469,10.6649644321632,2.64804826950982,0.5,3.05031361848329,0.999986757847462,0.5,0.499605300063307,0.486938220060734,8.81456106320291,2.17192121941259,0.5,-5.17093233632881
107,1,37,B,1,0,a,63,1,0.95,1B,0B,1,0,1,0,B10,2.08445374405043,2.85263142991332,0.980397727486136,0.250197349968346,0.250197349968346,0.250197349968346,0.5,0.998034506494488,0.5,0.5,0.5,0.5,0.999016477467082,0.5,0.5,0.5,0.250197349968346,0.998034506494488,0.595129590120469,1,1,0,1B,0B,0.998034506494488,0.5,0.666229317260497,0.333770682739503,1,1,0.00196549350551178,0.000981970972593697,0.5,0.443835528258099,0.451129590120469,10.6649644321632,2.64804826950982,0.5,0.79220744992665,0.998282049269025,0.5,0.499605300063307,0.486938220060734,8.81456106320291,2.17192121941259,0.5,-5.17093233632881
107,1,38,B,3,1,l,27,1,0.95,3B,1B,0,1,0,1,B31,0.913506316677252,3.27714473299218,0.980397727486136,0.250197349968346,0.250197349968346,0.250197349968346,0.5,0.999016477467082,0.5,0.5,0.5,0.5,0.999016477467082,0.5,0.5,0.5,0.250197349968346,0.998034506494488,0.868129590120469,0,0,1,1B,3B,0.999016477467082,0.5,0.666447962703612,0.333552037296388,1,1,0.000983522532918113,0.000491373070177578,0.5,0.443835528258099,0.451129590120469,10.6649644321632,2.64804826950982,0.5,1.83824407743172,0.998295107484223,0.5,0.499605300063307,0.486938220060734,8.81456106320291,2.17192121941259,0.5,-5.17093233632881
107,1,39,C,3,2,l,63,1,0.95,3C,2C,0,1,0,1,C32,1.1477691465079,2.37954613413017,0.980397727486136,0.250197349968346,0.250197349968346,0.250197349968346,0.5,0.999507850537259,0.5,0.5,0.5,0.5,0.999016477467082,0.5,0.5,0.5,0.250197349968346,0.998034506494488,0.876129590120469,0,0,1,2C,3C,0.999016477467082,0.5,0.666447962703612,0.333552037296388,1,1,0.000983522532918113,0.000491373070177578,0.5,0.443835528258099,0.451129590120469,10.6649644321632,2.64804826950982,0.5,1.77714144126198,0.99829566152945,0.5,0.499605300063307,0.486938220060734,8.81456106320291,2.17192121941259,0.5,-5.17093233632881
107,1,40,D,3,1,a,27,1,0.95,3D,1D,1,0,1,0,D31,3.08864989926398,4.00733318523247,0.980397727486136,0.250197349968346,0.250197349968346,0.250197349968346,0.5,0.999507850537259,0.5,0.5,0.5,0.5,0.999507850537259,0.5,0.5,0.5,0.250197349968346,0.998034506494488,0.860129590120469,1,1,0,3D,1D,0.998034506494488,0.5,0.666229317260497,0.333770682739503,1,1,0.00196549350551178,0.000981970972593697,0.5,0.443835528258099,0.451129590120469,10.6649644321632,2.64804826950982,0.5,1.90013229885688,0.998286658302418,0.5,0.499605300063307,0.486938220060734,8.81456106320291,2.17192121941259,0.5,-5.17093233632881
107,1,41,C,1,2,l,9,1,0.95,1C,2C,0,1,0,1,C12,0.904980569114454,4.02535169073515,0.980397727486136,0.250197349968346,0.250197349968346,0.250197349968346,0.5,0.999507850537259,0.5,0.5,0.5,0.5,0.999507850537259,0.5,0.5,0.5,0.250197349968346,0.999016477467082,0.655129590120469,0,0,1,2C,1C,0.999507850537259,0.5,0.666557264224489,0.333442735775511,1,1,0.000492149462740565,0.000245880480008496,0.5,0.443835528258099,0.451129590120469,10.6649644321632,2.64804826950982,0.5,2.21608153730479,0.998306154345415,0.5,0.499605300063307,0.486938220060734,8.81456106320291,2.17192121941259,0.5,-5.17093233632881
107,1,42,B,0,1,l,63,0,0.95,0B,1B,0,1,1,0,B01,0.720068630344569,2.65675690671466,0.980397727486136,0.250197349968346,0.250197349968346,0.250197349968346,0.5,0.999507850537259,0.5,0.5,0.5,0.5,0.999753731017268,0.5,0.5,0.5,0.250197349968346,0.999016477467082,0.797129590120469,0,0,1,1B,0B,0.999507850537259,0.5,0.666557264224489,0.333442735775511,1,0,-0.999507850537259,-0.499359419583299,0.5,0.443835528258099,0.451129590120469,10.6649644321632,2.64804826950982,0.5,2.38658065354554,0.998301984544393,0.5,0.499605300063307,0.486938220060734,8.81456106320291,2.17192121941259,0.5,-5.17093233632881
107,1,43,D,3,2,a,63,1,0.95,3D,2D,1,0,1,0,D32,1.85610224461927,2.26868354131836,0.980397727486136,0.250197349968346,0.250197349968346,0.250197349968346,0.5,0.500148430953961,0.5,0.5,0.5,0.5,0.999753731017268,0.5,0.5,0.5,0.250197349968346,0.999016477467082,0.745129590120469,1,1,0,3D,2D,0.999016477467082,0.250197349968346,0.799716153893374,0.200283846106626,1,1,0.000983522532918113,0.000491373070177578,0.5,0.443835528258099,0.451129590120469,10.6649644321632,2.64804826950982,0.5,2.8444617320445,0.999989565200087,0.5,0.499605300063307,0.486938220060734,8.81456106320291,2.17192121941259,0.5,-5.17093233632881
107,1,44,A,0,1,a,63,1,0.95,0A,1A,1,0,1,0,A01,1.24996087892531,2.97892515523761,0.980397727486136,0.250197349968346,0.250197349968346,0.250197349968346,0.5,0.500148430953961,0.5,0.5,0.5,0.5,0.999753731017268,0.5,0.5,0.5,0.250197349968346,0.999507850537259,0.647129590120469,1,1,0,0A,1A,0.980397727486136,0.250197349968346,0.79668588429113,0.20331411570887,1,1,0.0196022725138645,0.00979339924121199,0.5,0.443835528258099,0.451129590120469,10.6649644321632,2.64804826950982,0.5,5.57519147461156,0.999988331579921,0.5,0.499605300063307,0.486938220060734,8.81456106320291,2.17192121941259,0.5,-5.17093233632881
