ID,filename,session,trial,visStimLeft,visStimRight,correctKey,leftCorrect,rightCorrect,secondStim,mod2Type,mod2Stim,frequency,rewardAccurate,stimPairLeft,stimPairRight,pCorrectLeft,pCorrectRight,key,reactionTime,choiceLeft,choiceRight,choiceAccurate,reward,chosenPair,otherPair,triplet,surprise,0A belief,1A belief,2A belief,3A belief,0B belief,1B belief,2B belief,3B belief,0C belief,1C belief,2C belief,3C belief,0D belief,1D belief,2D belief,3D belief,beliefPairNorm,beliefOtherPairNorm,beliefPair,beliefOtherPair,lik,corrLik,rewardPE,update2,fitCBCsimpleRW_CBCdriftDiffusionLR_pwBelief_startBelief,fitCBCsimpleRW_CBCdriftDiffusionLR_pwBelief_alpha1,fitCBCsimpleRW_CBCdriftDiffusionLR_pwBelief_nonDecisionTime,fitCBCsimpleRW_CBCdriftDiffusionLR_pwBelief_weight,fitCBCsimpleRW_CBCdriftDiffusionLR_pwBelief_startingBoundary,fitCBCsimpleRW_CBCdriftDiffusionLR_pwBelief_startingPoint,fit_CBCsimpleRW_CBCdriftDiffusionLR_pwBelief_NLL
CBC_1071,CBC_1071_MSI_TV_v3_Vset2_Tset3_2024-02-02_15h20.49.299.csv,1,1,0,1,z,0,1,1,tac,B,63,1,0B,1B,NaN,NaN,None,NaN,NaN,NaN,NaN,NaN,,,B01,2.77258872223978,0.5,0.5,0.5,0.5,0.5,0.5,0.5,0.5,0.5,0.5,0.5,0.5,0.5,0.5,0.5,0.5,0,0,0,0,NaN,0,0,0,0.5,0.81164353891423,1.08836166425016,0.606794954615055,3.28962893844865,0.5,121.961784603586
CBC_1071,CBC_1071_MSI_TV_v3_Vset2_Tset3_2024-02-02_15h20.49.299.csv,1,2,0,1,b,1,0,0,tac,A,63,1,0A,1A,1,0,b,3.10873580000225,1,0,1,1,0A,1A,A01,2.83321334405622,0.5,0.5,0.5,0.5,0.5,0.5,0.5,0.5,0.5,0.5,0.5,0.5,0.5,0.5,0.5,0.5,0.5,0.5,0.5,0.5,0.114982641445354,0.498526668818265,0.5,0.405821769457115,0.5,0.81164353891423,1.08836166425016,0.606794954615055,3.28962893844865,0.5,121.961784603586
CBC_1071,CBC_1071_MSI_TV_v3_Vset2_Tset3_2024-02-02_15h20.49.299.csv,1,3,2,3,z,0,1,3,tac,D,63,1,2D,3D,0,1,b,2.50170200000139,1,0,0,0,2D,3D,D23,2.89037175789616,0.905821769457115,0.5,0.5,0.5,0.5,0.5,0.5,0.5,0.5,0.5,0.5,0.5,0.5,0.5,0.5,0.5,0.5,0.5,0.5,0.5,0.149942937219448,0.500631871393608,-0.5,-0.405821769457115,0.5,0.81164353891423,1.08836166425016,0.606794954615055,3.28962893844865,0.5,121.961784603586
CBC_1071,CBC_1071_MSI_TV_v3_Vset2_Tset3_2024-02-02_15h20.49.299.csv,1,4,2,1,z,0,1,1,tac,B,9,1,2B,1B,0,1,b,2.89003120000052,1,0,0,0,2B,1B,B21,2.94443897916644,0.905821769457115,0.5,0.5,0.5,0.5,0.5,0.5,0.5,0.5,0.5,0.5,0.5,0.5,0.5,0.0941782305428852,0.5,0.5,0.5,0.5,0.5,0.127128679553786,0.500024743095723,-0.5,-0.405821769457115,0.5,0.81164353891423,1.08836166425016,0.606794954615055,3.28962893844865,0.5,121.961784603586
CBC_1071,CBC_1071_MSI_TV_v3_Vset2_Tset3_2024-02-02_15h20.49.299.csv,1,5,0,2,b,1,0,0,tac,A,27,1,0A,2A,1,0,b,2.55265040000086,1,0,1,1,0A,2A,A02,2.99573227355399,0.905821769457115,0.5,0.5,0.5,0.5,0.5,0.0941782305428852,0.5,0.5,0.5,0.5,0.5,0.5,0.5,0.0941782305428852,0.5,0.905821769457115,0.0941782305428852,0.905821769457115,0.5,0.276245958260832,0.834848232843792,0.0941782305428852,0.0764391523265075,0.5,0.81164353891423,1.08836166425016,0.606794954615055,3.28962893844865,0.5,121.961784603586
CBC_1071,CBC_1071_MSI_TV_v3_Vset2_Tset3_2024-02-02_15h20.49.299.csv,1,6,2,3,b,1,0,2,tac,C,63,1,2C,3C,1,0,b,3.03153290000228,1,0,1,1,2C,3C,C23,3.04452243772342,0.982260921783622,0.5,0.5,0.5,0.5,0.5,0.0941782305428852,0.5,0.5,0.5,0.5,0.5,0.5,0.5,0.0941782305428852,0.5,0.5,0.5,0.5,0.5,0.119801041478664,0.501758016306208,0.5,0.405821769457115,0.5,0.81164353891423,1.08836166425016,0.606794954615055,3.28962893844865,0.5,121.961784603586
CBC_1071,CBC_1071_MSI_TV_v3_Vset2_Tset3_2024-02-02_15h20.49.299.csv,1,7,1,3,z,0,1,3,tac,D,27,1,1D,3D,0,1,z,4.46940670000185,0,1,1,1,3D,1D,D13,3.09104245335832,0.982260921783622,0.5,0.5,0.5,0.5,0.5,0.0941782305428852,0.5,0.5,0.5,0.905821769457115,0.5,0.5,0.5,0.0941782305428852,0.5,0.5,0.5,0.5,0.5,0.062089189144651,0.499722763288964,0.5,0.405821769457115,0.5,0.81164353891423,1.08836166425016,0.606794954615055,3.28962893844865,0.5,121.961784603586
CBC_1071,CBC_1071_MSI_TV_v3_Vset2_Tset3_2024-02-02_15h20.49.299.csv,1,8,1,0,z,0,1,0,tac,A,63,1,1A,0A,0,1,z,2.64165820000198,0,1,1,1,0A,1A,A10,3.13549421592915,0.982260921783622,0.5,0.5,0.5,0.5,0.5,0.0941782305428852,0.5,0.5,0.5,0.905821769457115,0.5,0.5,0.5,0.0941782305428852,0.905821769457115,0.982260921783622,0.0177390782163777,0.982260921783622,0.5,0.283828768469915,0.872513707145511,0.0177390782163777,0.0143978082206171,0.5,0.81164353891423,1.08836166425016,0.606794954615055,3.28962893844865,0.5,121.961784603586
CBC_1071,CBC_1071_MSI_TV_v3_Vset2_Tset3_2024-02-02_15h20.49.299.csv,1,9,2,0,b,1,0,2,tac,C,27,1,2C,0C,1,0,b,2.76820830000179,1,0,1,1,2C,0C,C20,3.17805383034795,0.996658730004239,0.5,0.5,0.5,0.5,0.5,0.0941782305428852,0.5,0.5,0.5,0.905821769457115,0.5,0.5,0.5,0.0941782305428852,0.905821769457115,0.905821769457115,0.0941782305428852,0.905821769457115,0.5,0.24587507385053,0.834891210536753,0.0941782305428852,0.0764391523265075,0.5,0.81164353891423,1.08836166425016,0.606794954615055,3.28962893844865,0.5,121.961784603586
CBC_1071,CBC_1071_MSI_TV_v3_Vset2_Tset3_2024-02-02_15h20.49.299.csv,1,10,2,3,z,0,1,3,tac,D,63,1,2D,3D,0,1,z,3.15338780000093,0,1,1,1,3D,2D,D23,2.52572864430826,0.996658730004239,0.5,0.5,0.5,0.5,0.5,0.0941782305428852,0.5,0.5,0.5,0.982260921783622,0.5,0.5,0.5,0.0941782305428852,0.905821769457115,0.989305853625345,0.0106941463746546,0.905821769457115,0.0941782305428852,0.208608728505414,0.875967474126314,0.0941782305428852,0.0764391523265075,0.5,0.81164353891423,1.08836166425016,0.606794954615055,3.28962893844865,0.5,121.961784603586
CBC_1071,CBC_1071_MSI_TV_v3_Vset2_Tset3_2024-02-02_15h20.49.299.csv,1,11,1,0,b,1,0,1,tac,B,63,1,1B,0B,1,0,b,2.58456740000292,1,0,1,1,1B,0B,B10,3.25809653802148,0.996658730004239,0.5,0.5,0.5,0.5,0.5,0.0941782305428852,0.5,0.5,0.5,0.982260921783622,0.5,0.5,0.5,0.0941782305428852,0.982260921783622,0.5,0.5,0.5,0.5,0.145226660068334,0.501256727481461,0.5,0.405821769457115,0.5,0.81164353891423,1.08836166425016,0.606794954615055,3.28962893844865,0.5,121.961784603586
CBC_1071,CBC_1071_MSI_TV_v3_Vset2_Tset3_2024-02-02_15h20.49.299.csv,1,12,0,1,b,1,0,0,tac,A,63,1,0A,1A,1,0,b,4.40042730000278,1,0,1,1,0A,1A,A01,2.60268968544438,0.996658730004239,0.5,0.5,0.5,0.5,0.905821769457115,0.0941782305428852,0.5,0.5,0.5,0.982260921783622,0.5,0.5,0.5,0.0941782305428852,0.982260921783622,0.996658730004239,0.00334126999576057,0.996658730004239,0.5,0.0947217511882855,0.878375586591532,0.00334126999576057,0.00271192020382704,0.5,0.81164353891423,1.08836166425016,0.606794954615055,3.28962893844865,0.5,121.961784603586
CBC_1071,CBC_1071_MSI_TV_v3_Vset2_Tset3_2024-02-02_15h20.49.299.csv,1,13,2,3,z,0,1,3,tac,D,63,1,2D,3D,0,1,z,2.70555960000274,0,1,1,1,3D,2D,D23,2.23359222150709,0.999370650208066,0.5,0.5,0.5,0.5,0.905821769457115,0.0941782305428852,0.5,0.5,0.5,0.982260921783622,0.5,0.5,0.5,0.0941782305428852,0.982260921783622,0.998125880534372,0.00187411946562772,0.982260921783622,0.0941782305428852,0.277193522286123,0.879950163934439,0.0177390782163777,0.0143978082206171,0.5,0.81164353891423,1.08836166425016,0.606794954615055,3.28962893844865,0.5,121.961784603586
CBC_1071,CBC_1071_MSI_TV_v3_Vset2_Tset3_2024-02-02_15h20.49.299.csv,1,14,2,0,b,1,0,2,tac,C,27,1,2C,0C,1,0,b,2.39523500000178,1,0,1,1,2C,0C,C20,2.67414864942653,0.999370650208066,0.5,0.5,0.5,0.5,0.905821769457115,0.0941782305428852,0.5,0.5,0.5,0.982260921783622,0.5,0.5,0.5,0.0941782305428852,0.996658730004239,0.982260921783622,0.0177390782163777,0.982260921783622,0.5,0.326060422084118,0.872354598681609,0.0177390782163777,0.0143978082206171,0.5,0.81164353891423,1.08836166425016,0.606794954615055,3.28962893844865,0.5,121.961784603586
CBC_1071,CBC_1071_MSI_TV_v3_Vset2_Tset3_2024-02-02_15h20.49.299.csv,1,15,0,1,b,1,0,0,tac,A,63,1,0A,1A,1,0,b,0.320673900001566,1,0,1,1,0A,1A,A01,2.30258509299405,0.999370650208066,0.5,0.5,0.5,0.5,0.905821769457115,0.0941782305428852,0.5,0.5,0.5,0.996658730004239,0.5,0.5,0.5,0.0941782305428852,0.996658730004239,0.999370650208066,0.00062934979193352,0.999370650208066,0.5,1e-20,0.5,0.00062934979193352,0.000510807692339856,0.5,0.81164353891423,1.08836166425016,0.606794954615055,3.28962893844865,0.5,121.961784603586
CBC_1071,CBC_1071_MSI_TV_v3_Vset2_Tset3_2024-02-02_15h20.49.299.csv,1,16,1,3,b,1,0,1,tac,B,27,1,1B,3B,1,0,b,2.72400710000147,1,0,1,1,1B,3B,B13,3.43398720448515,0.999881457900406,0.5,0.5,0.5,0.5,0.905821769457115,0.0941782305428852,0.5,0.5,0.5,0.996658730004239,0.5,0.5,0.5,0.0941782305428852,0.996658730004239,0.905821769457115,0.0941782305428852,0.905821769457115,0.5,0.252112911186527,0.835261764382365,0.0941782305428852,0.0764391523265075,0.5,0.81164353891423,1.08836166425016,0.606794954615055,3.28962893844865,0.5,121.961784603586
CBC_1071,CBC_1071_MSI_TV_v3_Vset2_Tset3_2024-02-02_15h20.49.299.csv,1,17,3,2,z,0,1,2,tac,C,63,1,3C,2C,0,1,z,3.616566900002,0,1,1,1,2C,3C,C32,3.46573590279973,0.999881457900406,0.5,0.5,0.5,0.5,0.982260921783622,0.0941782305428852,0.5,0.5,0.5,0.996658730004239,0.5,0.5,0.5,0.0941782305428852,0.996658730004239,0.996658730004239,0.00334126999576057,0.996658730004239,0.5,0.155988895708215,0.878645033204926,0.00334126999576057,0.00271192020382704,0.5,0.81164353891423,1.08836166425016,0.606794954615055,3.28962893844865,0.5,121.961784603586
CBC_1071,CBC_1071_MSI_TV_v3_Vset2_Tset3_2024-02-02_15h20.49.299.csv,1,18,2,3,z,0,1,3,tac,D,63,0,2D,3D,1,0,z,2.7052560000011,0,1,1,0,3D,2D,D23,2.11021320034659,0.999881457900406,0.5,0.5,0.5,0.5,0.982260921783622,0.0941782305428852,0.5,0.5,0.5,0.999370650208066,0.5,0.5,0.5,0.0941782305428852,0.996658730004239,0.999651565204137,0.000348434795863365,0.996658730004239,0.0941782305428852,0.277154173062203,0.879779530781901,-0.996658730004239,-0.808931618710403,0.5,0.81164353891423,1.08836166425016,0.606794954615055,3.28962893844865,0.5,121.961784603586
CBC_1071,CBC_1071_MSI_TV_v3_Vset2_Tset3_2024-02-02_15h20.49.299.csv,1,19,1,0,b,1,0,1,tac,B,63,1,1B,0B,1,0,b,3.27803470000254,1,0,1,1,1B,0B,B10,2.83321334405622,0.999881457900406,0.5,0.5,0.5,0.5,0.982260921783622,0.0941782305428852,0.5,0.5,0.5,0.999370650208066,0.5,0.5,0.5,0.0941782305428852,0.187727111293837,0.982260921783622,0.0177390782163777,0.982260921783622,0.5,0.192442030728166,0.873498430765201,0.0177390782163777,0.0143978082206171,0.5,0.81164353891423,1.08836166425016,0.606794954615055,3.28962893844865,0.5,121.961784603586
CBC_1071,CBC_1071_MSI_TV_v3_Vset2_Tset3_2024-02-02_15h20.49.299.csv,1,20,2,0,z,0,1,0,tac,A,27,1,2A,0A,0,1,b,4.75687160000052,1,0,0,0,2A,0A,A20,3.55534806148941,0.999881457900406,0.5,0.5,0.5,0.5,0.996658730004239,0.0941782305428852,0.5,0.5,0.5,0.999370650208066,0.5,0.5,0.5,0.0941782305428852,0.187727111293837,0.00011854209959361,0.999881457900406,0.5,0.999881457900406,0.0102525666868244,0.119871325802338,-0.5,-0.405821769457115,0.5,0.81164353891423,1.08836166425016,0.606794954615055,3.28962893844865,0.5,121.961784603586
CBC_1071,CBC_1071_MSI_TV_v3_Vset2_Tset3_2024-02-02_15h20.49.299.csv,1,21,0,3,z,0,1,3,tac,D,9,1,0D,3D,0,1,z,2.39167340000131,0,1,1,1,3D,0D,D03,3.58351893845611,0.999881457900406,0.5,0.0941782305428852,0.5,0.5,0.996658730004239,0.0941782305428852,0.5,0.5,0.5,0.999370650208066,0.5,0.5,0.5,0.0941782305428852,0.187727111293837,0.187727111293837,0.812272888706163,0.187727111293837,0.5,0.0757480092973126,0.221655225727859,0.812272888706163,0.659276041953554,0.5,0.81164353891423,1.08836166425016,0.606794954615055,3.28962893844865,0.5,121.961784603586
CBC_1071,CBC_1071_MSI_TV_v3_Vset2_Tset3_2024-02-02_15h20.49.299.csv,1,22,2,3,b,1,0,2,tac,C,63,1,2C,3C,1,0,b,2.5296767000018,1,0,1,1,2C,3C,C23,2.91777073208428,0.999881457900406,0.5,0.0941782305428852,0.5,0.5,0.996658730004239,0.0941782305428852,0.5,0.5,0.5,0.999370650208066,0.5,0.5,0.5,0.0941782305428852,0.847003153247391,0.999370650208066,0.00062934979193352,0.999370650208066,0.5,0.308005610549485,0.880146670612119,0.00062934979193352,0.000510807692339856,0.5,0.81164353891423,1.08836166425016,0.606794954615055,3.28962893844865,0.5,121.961784603586
CBC_1071,CBC_1071_MSI_TV_v3_Vset2_Tset3_2024-02-02_15h20.49.299.csv,1,23,3,1,z,0,1,1,tac,B,27,1,3B,1B,0,1,z,2.35420790000171,0,1,1,1,1B,3B,B31,3.63758615972639,0.999881457900406,0.5,0.0941782305428852,0.5,0.5,0.996658730004239,0.0941782305428852,0.5,0.5,0.5,0.999881457900406,0.5,0.5,0.5,0.0941782305428852,0.847003153247391,0.996658730004239,0.00334126999576057,0.996658730004239,0.5,0.338144287192826,0.878335952649737,0.00334126999576057,0.00271192020382704,0.5,0.81164353891423,1.08836166425016,0.606794954615055,3.28962893844865,0.5,121.961784603586
CBC_1071,CBC_1071_MSI_TV_v3_Vset2_Tset3_2024-02-02_15h20.49.299.csv,1,24,3,2,z,0,1,2,tac,C,63,1,3C,2C,0,1,b,2.97440070000266,1,0,0,0,3C,2C,C32,2.9704144655697,0.999881457900406,0.5,0.0941782305428852,0.5,0.5,0.999370650208066,0.0941782305428852,0.5,0.5,0.5,0.999881457900406,0.5,0.5,0.5,0.0941782305428852,0.847003153247391,0.00011854209959361,0.999881457900406,0.5,0.999881457900406,0.0318196051892883,0.119309136834657,-0.5,-0.405821769457115,0.5,0.81164353891423,1.08836166425016,0.606794954615055,3.28962893844865,0.5,121.961784603586
CBC_1071,CBC_1071_MSI_TV_v3_Vset2_Tset3_2024-02-02_15h20.49.299.csv,1,25,2,3,z,0,1,3,tac,D,63,1,2D,3D,0,1,z,2.72000830000252,0,1,1,1,3D,2D,D23,2.07944154167984,0.999881457900406,0.5,0.0941782305428852,0.5,0.5,0.999370650208066,0.0941782305428852,0.5,0.5,0.5,0.999881457900406,0.0941782305428852,0.5,0.5,0.0941782305428852,0.847003153247391,0.981565785465072,0.0184342145349283,0.847003153247391,0.0941782305428852,0.270782015160936,0.872227423778698,0.152996846752609,0.124178902141005,0.5,0.81164353891423,1.08836166425016,0.606794954615055,3.28962893844865,0.5,121.961784603586
CBC_1071,CBC_1071_MSI_TV_v3_Vset2_Tset3_2024-02-02_15h20.49.299.csv,1,26,1,0,b,1,0,1,tac,B,63,1,1B,0B,1,0,b,2.93730070000129,1,0,1,1,1B,0B,B10,2.6149597780362,0.999881457900406,0.5,0.0941782305428852,0.5,0.5,0.999370650208066,0.0941782305428852,0.5,0.5,0.5,0.999881457900406,0.0941782305428852,0.5,0.5,0.0941782305428852,0.971182055388397,0.999370650208066,0.00062934979193352,0.999370650208066,0.5,0.24027030321999,0.880275874900904,0.00062934979193352,0.000510807692339856,0.5,0.81164353891423,1.08836166425016,0.606794954615055,3.28962893844865,0.5,121.961784603586
CBC_1071,CBC_1071_MSI_TV_v3_Vset2_Tset3_2024-02-02_15h20.49.299.csv,1,27,0,3,b,1,0,0,tac,A,9,1,0A,3A,1,0,b,2.10642330000155,1,0,1,1,0A,3A,A03,3.73766961828337,0.999881457900406,0.5,0.0941782305428852,0.5,0.5,0.999881457900406,0.0941782305428852,0.5,0.5,0.5,0.999881457900406,0.0941782305428852,0.5,0.5,0.0941782305428852,0.971182055388397,0.999881457900406,0.00011854209959361,0.999881457900406,0.5,0.380886001337141,0.880743308662779,0.00011854209959361,9.6213929224481e-05,0.5,0.81164353891423,1.08836166425016,0.606794954615055,3.28962893844865,0.5,121.961784603586
CBC_1071,CBC_1071_MSI_TV_v3_Vset2_Tset3_2024-02-02_15h20.49.299.csv,1,28,2,3,z,0,1,3,tac,D,63,1,2D,3D,0,1,z,2.44091290000142,0,1,1,1,3D,2D,D23,1.96944064646551,0.999977671829631,0.5,0.0941782305428852,0.5,0.5,0.999881457900406,0.0941782305428852,0.5,0.5,0.5,0.999881457900406,0.0941782305428852,0.5,0.5,0.0941782305428852,0.971182055388397,0.996924382356442,0.00307561764355818,0.971182055388397,0.0941782305428852,0.323528788906017,0.87950381301516,0.0288179446116034,0.023389898548796,0.5,0.81164353891423,1.08836166425016,0.606794954615055,3.28962893844865,0.5,121.961784603586
CBC_1071,CBC_1071_MSI_TV_v3_Vset2_Tset3_2024-02-02_15h20.49.299.csv,1,29,2,0,b,1,0,2,tac,C,27,1,2C,0C,1,0,z,2.64667710000322,0,1,0,0,0C,2C,C20,2.68557734525015,0.999977671829631,0.5,0.0941782305428852,0.5,0.5,0.999881457900406,0.0941782305428852,0.5,0.5,0.5,0.999881457900406,0.0941782305428852,0.5,0.5,0.0941782305428852,0.994571953937193,0.00011854209959361,0.999881457900406,0.5,0.999881457900406,0.0388412538318567,0.118856976564798,-0.5,-0.405821769457115,0.5,0.81164353891423,1.08836166425016,0.606794954615055,3.28962893844865,0.5,121.961784603586
CBC_1071,CBC_1071_MSI_TV_v3_Vset2_Tset3_2024-02-02_15h20.49.299.csv,1,30,1,0,z,0,1,0,tac,A,63,1,1A,0A,0,1,z,2.9537074000018,0,1,1,1,0A,1A,A10,3.11351530921037,0.999977671829631,0.5,0.0941782305428852,0.5,0.5,0.999881457900406,0.0941782305428852,0.5,0.0941782305428852,0.5,0.999881457900406,0.0941782305428852,0.5,0.5,0.0941782305428852,0.994571953937193,0.999977671829631,2.23281703691791e-05,0.999977671829631,0.5,0.23794486382195,0.880659224549971,2.23281703691791e-05,1.81225152159204e-05,0.5,0.81164353891423,1.08836166425016,0.606794954615055,3.28962893844865,0.5,121.961784603586
CBC_1071,CBC_1071_MSI_TV_v3_Vset2_Tset3_2024-02-02_15h20.49.299.csv,1,31,1,0,b,1,0,1,tac,B,63,1,1B,0B,1,0,b,2.31304230000205,1,0,1,1,1B,0B,B10,2.4423470353692,0.999995794344847,0.5,0.0941782305428852,0.5,0.5,0.999881457900406,0.0941782305428852,0.5,0.0941782305428852,0.5,0.999881457900406,0.0941782305428852,0.5,0.5,0.0941782305428852,0.994571953937193,0.999881457900406,0.00011854209959361,0.999881457900406,0.5,0.347235275336501,0.880371757798514,0.00011854209959361,9.6213929224481e-05,0.5,0.81164353891423,1.08836166425016,0.606794954615055,3.28962893844865,0.5,121.961784603586
CBC_1071,CBC_1071_MSI_TV_v3_Vset2_Tset3_2024-02-02_15h20.49.299.csv,1,32,3,1,b,1,0,3,tac,D,27,1,3D,1D,1,0,z,2.52237410000089,0,1,0,0,1D,3D,D31,3.85014760171006,0.999995794344847,0.5,0.0941782305428852,0.5,0.5,0.999977671829631,0.0941782305428852,0.5,0.0941782305428852,0.5,0.999881457900406,0.0941782305428852,0.5,0.5,0.0941782305428852,0.994571953937193,0.00542804606280733,0.994571953937193,0.5,0.994571953937193,0.0426995492736412,0.121752926214274,-0.5,-0.405821769457115,0.5,0.81164353891423,1.08836166425016,0.606794954615055,3.28962893844865,0.5,121.961784603586
CBC_1071,CBC_1071_MSI_TV_v3_Vset2_Tset3_2024-02-02_15h20.49.299.csv,1,33,3,2,z,0,1,2,tac,C,63,1,3C,2C,0,1,z,2.52878960000271,0,1,1,1,2C,3C,C32,2.77258872223978,0.999995794344847,0.5,0.0941782305428852,0.5,0.5,0.999977671829631,0.0941782305428852,0.5,0.0941782305428852,0.5,0.999881457900406,0.0941782305428852,0.5,0.0941782305428852,0.0941782305428852,0.994571953937193,0.999987673876356,1.23261236435554e-05,0.999881457900406,0.0941782305428852,0.308427226738262,0.880529566870151,0.00011854209959361,9.6213929224481e-05,0.5,0.81164353891423,1.08836166425016,0.606794954615055,3.28962893844865,0.5,121.961784603586
CBC_1071,CBC_1071_MSI_TV_v3_Vset2_Tset3_2024-02-02_15h20.49.299.csv,1,34,1,0,b,1,0,1,tac,B,63,1,1B,0B,1,0,b,2.63206080000236,1,0,1,1,1B,0B,B10,2.28238238567653,0.999995794344847,0.5,0.0941782305428852,0.5,0.5,0.999977671829631,0.0941782305428852,0.5,0.0941782305428852,0.5,0.999977671829631,0.0941782305428852,0.5,0.0941782305428852,0.0941782305428852,0.994571953937193,0.999977671829631,2.23281703691791e-05,0.999977671829631,0.5,0.290235846563308,0.880703177980996,2.23281703691791e-05,1.81225152159204e-05,0.5,0.81164353891423,1.08836166425016,0.606794954615055,3.28962893844865,0.5,121.961784603586
CBC_1071,CBC_1071_MSI_TV_v3_Vset2_Tset3_2024-02-02_15h20.49.299.csv,1,35,0,1,b,1,0,0,tac,A,63,1,0A,1A,1,0,b,2.77963560000171,1,0,1,1,0A,1A,A01,2.52572864430826,0.999995794344847,0.5,0.0941782305428852,0.5,0.5,0.999995794344847,0.0941782305428852,0.5,0.0941782305428852,0.5,0.999977671829631,0.0941782305428852,0.5,0.0941782305428852,0.0941782305428852,0.994571953937193,0.999995794344847,4.20565515324434e-06,0.999995794344847,0.5,0.26510844006554,0.880410526630092,4.20565515324434e-06,3.4134928320321e-06,0.5,0.81164353891423,1.08836166425016,0.606794954615055,3.28962893844865,0.5,121.961784603586
CBC_1071,CBC_1071_MSI_TV_v3_Vset2_Tset3_2024-02-02_15h20.49.299.csv,1,36,1,2,z,0,1,2,tac,C,9,1,1C,2C,0,1,b,2.46729350000169,1,0,0,0,1C,2C,C12,3.93182563272433,0.999999207837679,0.5,0.0941782305428852,0.5,0.5,0.999995794344847,0.0941782305428852,0.5,0.0941782305428852,0.5,0.999977671829631,0.0941782305428852,0.5,0.0941782305428852,0.0941782305428852,0.994571953937193,2.23281703691791e-05,0.999977671829631,0.5,0.999977671829631,0.0433182943236166,0.119355413508224,-0.5,-0.405821769457115,0.5,0.81164353891423,1.08836166425016,0.606794954615055,3.28962893844865,0.5,121.961784603586
CBC_1071,CBC_1071_MSI_TV_v3_Vset2_Tset3_2024-02-02_15h20.49.299.csv,1,37,1,0,z,0,1,0,tac,A,63,1,1A,0A,0,1,z,3.19745220000186,0,1,1,1,0A,1A,A10,2.85263142991332,0.999999207837679,0.5,0.0941782305428852,0.5,0.5,0.999995794344847,0.0941782305428852,0.5,0.0941782305428852,0.0941782305428852,0.999977671829631,0.0941782305428852,0.5,0.0941782305428852,0.0941782305428852,0.994571953937193,0.999999207837679,7.92162321183731e-07,0.999999207837679,0.5,0.203786845493438,0.879911752098937,7.92162321183731e-07,6.42953429760074e-07,0.5,0.81164353891423,1.08836166425016,0.606794954615055,3.28962893844865,0.5,121.961784603586
CBC_1071,CBC_1071_MSI_TV_v3_Vset2_Tset3_2024-02-02_15h20.49.299.csv,1,38,3,1,b,1,0,3,tac,D,27,1,3D,1D,1,0,b,2.52306030000182,1,0,1,1,3D,1D,D31,3.27714473299218,0.999999850791109,0.5,0.0941782305428852,0.5,0.5,0.999995794344847,0.0941782305428852,0.5,0.0941782305428852,0.0941782305428852,0.999977671829631,0.0941782305428852,0.5,0.0941782305428852,0.0941782305428852,0.994571953937193,0.999432888145715,0.00056711185428493,0.994571953937193,0.0941782305428852,0.309132814875674,0.880060803575043,0.00542804606280733,0.0044056385158064,0.5,0.81164353891423,1.08836166425016,0.606794954615055,3.28962893844865,0.5,121.961784603586
CBC_1071,CBC_1071_MSI_TV_v3_Vset2_Tset3_2024-02-02_15h20.49.299.csv,1,39,0,1,z,0,1,1,tac,B,63,1,0B,1B,0,1,b,2.63841520000096,1,0,0,0,0B,1B,B01,3.29583686600433,0.999999850791109,0.5,0.0941782305428852,0.5,0.5,0.999995794344847,0.0941782305428852,0.5,0.0941782305428852,0.0941782305428852,0.999977671829631,0.0941782305428852,0.5,0.0941782305428852,0.0941782305428852,0.998977592452999,4.20565515324434e-06,0.999995794344847,0.5,0.999995794344847,0.039236051782354,0.119541626985683,-0.5,-0.405821769457115,0.5,0.81164353891423,1.08836166425016,0.606794954615055,3.28962893844865,0.5,121.961784603586
CBC_1071,CBC_1071_MSI_TV_v3_Vset2_Tset3_2024-02-02_15h20.49.299.csv,1,40,2,3,b,1,0,2,tac,C,63,0,2C,3C,0,1,b,2.43003320000207,1,0,1,0,2C,3C,C23,2.90872089656436,0.999999850791109,0.5,0.0941782305428852,0.5,0.0941782305428852,0.999995794344847,0.0941782305428852,0.5,0.0941782305428852,0.0941782305428852,0.999977671829631,0.0941782305428852,0.5,0.0941782305428852,0.0941782305428852,0.998977592452999,0.999997678495131,2.32150486889626e-06,0.999977671829631,0.0941782305428852,0.326800493506317,0.881175343435992,-0.999977671829631,-0.811625416399014,0.5,0.81164353891423,1.08836166425016,0.606794954615055,3.28962893844865,0.5,121.961784603586
CBC_1071,CBC_1071_MSI_TV_v3_Vset2_Tset3_2024-02-02_15h20.49.299.csv,1,41,2,0,z,0,1,0,tac,A,27,1,2A,0A,0,1,z,2.42844820000209,0,1,1,1,0A,2A,A20,3.3322045101752,0.999999850791109,0.5,0.0941782305428852,0.5,0.0941782305428852,0.999995794344847,0.0941782305428852,0.5,0.0941782305428852,0.0941782305428852,0.188352255430617,0.0941782305428852,0.5,0.0941782305428852,0.0941782305428852,0.998977592452999,0.999999984486759,1.55132408294167e-08,0.999999850791109,0.0941782305428852,0.32644355579915,0.880352925075966,1.49208891464525e-07,1.21104432705736e-07,0.5,0.81164353891423,1.08836166425016,0.606794954615055,3.28962893844865,0.5,121.961784603586
CBC_1071,CBC_1071_MSI_TV_v3_Vset2_Tset3_2024-02-02_15h20.49.299.csv,1,42,3,2,b,1,0,3,tac,D,63,1,3D,2D,1,0,b,2.28598840000086,1,0,1,1,3D,2D,D32,4.04305126783455,0.999999971895541,0.5,0.0941782305428852,0.5,0.0941782305428852,0.999995794344847,0.0941782305428852,0.5,0.0941782305428852,0.0941782305428852,0.188352255430617,0.0941782305428852,0.5,0.0941782305428852,0.0941782305428852,0.998977592452999,0.999893602882497,0.000106397117502599,0.998977592452999,0.0941782305428852,0.35185848010926,0.880225135820857,0.00102240754700089,0.00082983047966042,0.5,0.81164353891423,1.08836166425016,0.606794954615055,3.28962893844865,0.5,121.961784603586
CBC_1071,CBC_1071_MSI_TV_v3_Vset2_Tset3_2024-02-02_15h20.49.299.csv,1,43,3,1,z,0,1,1,tac,B,27,1,3B,1B,0,1,z,2.48964260000321,0,1,1,1,1B,3B,B31,3.36729582998647,0.999999971895541,0.5,0.0941782305428852,0.5,0.0941782305428852,0.999995794344847,0.0941782305428852,0.5,0.0941782305428852,0.0941782305428852,0.188352255430617,0.0941782305428852,0.5,0.0941782305428852,0.0941782305428852,0.99980742293266,0.999995794344847,4.20565515324434e-06,0.999995794344847,0.5,0.315092822861802,0.879988470184405,4.20565515324434e-06,3.4134928320321e-06,0.5,0.81164353891423,1.08836166425016,0.606794954615055,3.28962893844865,0.5,121.961784603586
CBC_1071,CBC_1071_MSI_TV_v3_Vset2_Tset3_2024-02-02_15h20.49.299.csv,1,44,2,3,b,1,0,2,tac,C,63,1,2C,3C,1,0,z,3.20534090000183,0,1,0,0,3C,2C,C23,2.69124308278583,0.999999971895541,0.5,0.0941782305428852,0.5,0.0941782305428852,0.999999207837679,0.0941782305428852,0.5,0.0941782305428852,0.0941782305428852,0.188352255430617,0.0941782305428852,0.5,0.0941782305428852,0.0941782305428852,0.99980742293266,0.309405312836081,0.690594687163919,0.0941782305428852,0.188352255430617,0.071341826881247,0.31855898266054,-0.0941782305428852,-0.0764391523265075,0.5,0.81164353891423,1.08836166425016,0.606794954615055,3.28962893844865,0.5,121.961784603586
CBC_1071,CBC_1071_MSI_AV_v3_Vset3_Aset2_2024-02-02_16h36.55.631.csv,2,1,1,0,b,1,0,1,aud,B,63,1,1B,0B,1,0,z,2.47862580000037,0,1,0,0,0B,1B,B10,2.77258872223978,0.5,0.5,0.5,0.5,0.5,0.5,0.5,0.5,0.5,0.5,0.5,0.5,0.5,0.5,0.5,0.5,0.5,0.5,0.5,0.5,0.127240702652237,0.49940168549523,-0.5,-0.218700327508324,0.5,0.437400655016648,0.727728897343398,0.162841909639192,2.5342126686213,0.5,84.8105853903133
CBC_1071,CBC_1071_MSI_AV_v3_Vset3_Aset2_2024-02-02_16h36.55.631.csv,2,2,0,1,b,1,0,0,aud,A,63,1,0A,1A,1,0,b,2.43031900000096,1,0,1,1,0A,1A,A01,2.83321334405622,0.5,0.5,0.5,0.5,0.281299672491676,0.5,0.5,0.5,0.5,0.5,0.5,0.5,0.5,0.5,0.5,0.5,0.5,0.5,0.5,0.5,0.132156863991416,0.499807495315251,0.5,0.218700327508324,0.5,0.437400655016648,0.727728897343398,0.162841909639192,2.5342126686213,0.5,84.8105853903133
CBC_1071,CBC_1071_MSI_AV_v3_Vset3_Aset2_2024-02-02_16h36.55.631.csv,2,3,1,2,z,0,1,2,aud,C,9,1,1C,2C,0,1,z,1.57883469999979,0,1,1,1,2C,1C,C12,2.89037175789616,0.718700327508324,0.5,0.5,0.5,0.281299672491676,0.5,0.5,0.5,0.5,0.5,0.5,0.5,0.5,0.5,0.5,0.5,0.5,0.5,0.5,0.5,0.250092167698505,0.499627118321574,0.5,0.218700327508324,0.5,0.437400655016648,0.727728897343398,0.162841909639192,2.5342126686213,0.5,84.8105853903133
CBC_1071,CBC_1071_MSI_AV_v3_Vset3_Aset2_2024-02-02_16h36.55.631.csv,2,4,1,0,z,0,1,0,aud,A,63,1,1A,0A,0,1,b,2.30841160000091,1,0,0,0,1A,0A,A10,2.94443897916644,0.718700327508324,0.5,0.5,0.5,0.281299672491676,0.5,0.5,0.5,0.5,0.5,0.718700327508324,0.5,0.5,0.5,0.5,0.5,0.281299672491676,0.718700327508324,0.5,0.718700327508324,0.132466385518441,0.456199429452943,-0.5,-0.218700327508324,0.5,0.437400655016648,0.727728897343398,0.162841909639192,2.5342126686213,0.5,84.8105853903133
CBC_1071,CBC_1071_MSI_AV_v3_Vset3_Aset2_2024-02-02_16h36.55.631.csv,2,5,3,1,b,1,0,3,aud,D,27,1,3D,1D,1,0,b,2.39552680000088,1,0,1,1,3D,1D,D31,2.99573227355399,0.718700327508324,0.281299672491676,0.5,0.5,0.281299672491676,0.5,0.5,0.5,0.5,0.5,0.718700327508324,0.5,0.5,0.5,0.5,0.5,0.5,0.5,0.5,0.5,0.136003371081332,0.500796302024822,0.5,0.218700327508324,0.5,0.437400655016648,0.727728897343398,0.162841909639192,2.5342126686213,0.5,84.8105853903133
CBC_1071,CBC_1071_MSI_AV_v3_Vset3_Aset2_2024-02-02_16h36.55.631.csv,2,6,0,1,z,0,1,1,aud,B,63,1,0B,1B,0,1,b,2.48537969999961,1,0,0,0,0B,1B,B01,3.04452243772342,0.718700327508324,0.281299672491676,0.5,0.5,0.281299672491676,0.5,0.5,0.5,0.5,0.5,0.718700327508324,0.5,0.5,0.5,0.5,0.718700327508324,0.281299672491676,0.718700327508324,0.281299672491676,0.5,0.115373387164135,0.455354336469569,-0.281299672491676,-0.123040661003828,0.5,0.437400655016648,0.727728897343398,0.162841909639192,2.5342126686213,0.5,84.8105853903133
CBC_1071,CBC_1071_MSI_AV_v3_Vset3_Aset2_2024-02-02_16h36.55.631.csv,2,7,2,3,b,1,0,2,aud,C,63,1,2C,3C,1,0,z,1.68532190000224,0,1,0,0,3C,2C,C23,3.09104245335832,0.718700327508324,0.281299672491676,0.5,0.5,0.158259011487848,0.5,0.5,0.5,0.5,0.5,0.718700327508324,0.5,0.5,0.5,0.5,0.718700327508324,0.281299672491676,0.718700327508324,0.5,0.718700327508324,0.211646183842844,0.454549710270573,-0.5,-0.218700327508324,0.5,0.437400655016648,0.727728897343398,0.162841909639192,2.5342126686213,0.5,84.8105853903133
CBC_1071,CBC_1071_MSI_AV_v3_Vset3_Aset2_2024-02-02_16h36.55.631.csv,2,8,2,0,z,0,1,0,aud,A,27,1,2A,0A,0,1,b,2.39182559999972,1,0,0,0,2A,0A,A20,3.13549421592915,0.718700327508324,0.281299672491676,0.5,0.5,0.158259011487848,0.5,0.5,0.5,0.5,0.5,0.718700327508324,0.281299672491676,0.5,0.5,0.5,0.718700327508324,0.281299672491676,0.718700327508324,0.5,0.718700327508324,0.123580520376705,0.453834915681644,-0.5,-0.218700327508324,0.5,0.437400655016648,0.727728897343398,0.162841909639192,2.5342126686213,0.5,84.8105853903133
CBC_1071,CBC_1071_MSI_AV_v3_Vset3_Aset2_2024-02-02_16h36.55.631.csv,2,9,3,2,b,1,0,3,aud,D,63,1,3D,2D,1,0,b,2.88887640000212,1,0,1,1,3D,2D,D32,3.17805383034795,0.718700327508324,0.281299672491676,0.281299672491676,0.5,0.158259011487848,0.5,0.5,0.5,0.5,0.5,0.718700327508324,0.281299672491676,0.5,0.5,0.5,0.718700327508324,0.718700327508324,0.281299672491676,0.718700327508324,0.5,0.101286766980758,0.545615918751258,0.281299672491676,0.123040661003828,0.5,0.437400655016648,0.727728897343398,0.162841909639192,2.5342126686213,0.5,84.8105853903133
CBC_1071,CBC_1071_MSI_AV_v3_Vset3_Aset2_2024-02-02_16h36.55.631.csv,2,10,3,1,z,0,1,1,aud,B,27,1,3B,1B,0,1,z,2.37622999999985,0,1,1,1,1B,3B,B31,3.2188758248682,0.718700327508324,0.281299672491676,0.281299672491676,0.5,0.158259011487848,0.5,0.5,0.5,0.5,0.5,0.718700327508324,0.281299672491676,0.5,0.5,0.5,0.841740988512152,0.5,0.5,0.5,0.5,0.137377974257256,0.498419308441919,0.5,0.218700327508324,0.5,0.437400655016648,0.727728897343398,0.162841909639192,2.5342126686213,0.5,84.8105853903133
CBC_1071,CBC_1071_MSI_AV_v3_Vset3_Aset2_2024-02-02_16h36.55.631.csv,2,11,3,2,z,0,1,2,aud,C,63,1,3C,2C,0,1,z,2.34992440000133,0,1,1,1,2C,3C,C32,3.25809653802148,0.718700327508324,0.281299672491676,0.281299672491676,0.5,0.158259011487848,0.718700327508324,0.5,0.5,0.5,0.5,0.718700327508324,0.281299672491676,0.5,0.5,0.5,0.841740988512152,0.867156515383559,0.132843484616441,0.718700327508324,0.281299672491676,0.16158151663359,0.574604822845284,0.281299672491676,0.123040661003828,0.5,0.437400655016648,0.727728897343398,0.162841909639192,2.5342126686213,0.5,84.8105853903133
CBC_1071,CBC_1071_MSI_AV_v3_Vset3_Aset2_2024-02-02_16h36.55.631.csv,2,12,1,3,b,1,0,1,aud,B,27,1,1B,3B,1,0,b,2.53499670000019,1,0,1,1,1B,3B,B13,3.29583686600433,0.718700327508324,0.281299672491676,0.281299672491676,0.5,0.158259011487848,0.718700327508324,0.5,0.5,0.5,0.5,0.841740988512152,0.281299672491676,0.5,0.5,0.5,0.841740988512152,0.718700327508324,0.281299672491676,0.718700327508324,0.5,0.132721085927066,0.544232025952029,0.281299672491676,0.123040661003828,0.5,0.437400655016648,0.727728897343398,0.162841909639192,2.5342126686213,0.5,84.8105853903133
CBC_1071,CBC_1071_MSI_AV_v3_Vset3_Aset2_2024-02-02_16h36.55.631.csv,2,13,3,2,z,0,1,2,aud,C,63,1,3C,2C,0,1,b,1.81638960000237,1,0,0,0,3C,2C,C32,2.63905732961526,0.718700327508324,0.281299672491676,0.281299672491676,0.5,0.158259011487848,0.841740988512152,0.5,0.5,0.5,0.5,0.841740988512152,0.281299672491676,0.5,0.5,0.5,0.841740988512152,0.0685446257689748,0.931455374231025,0.281299672491676,0.841740988512152,0.17493967533761,0.412236219540137,-0.281299672491676,-0.123040661003828,0.5,0.437400655016648,0.727728897343398,0.162841909639192,2.5342126686213,0.5,84.8105853903133
CBC_1071,CBC_1071_MSI_AV_v3_Vset3_Aset2_2024-02-02_16h36.55.631.csv,2,14,3,2,b,1,0,3,aud,D,63,1,3D,2D,1,0,b,2.65126930000224,1,0,1,1,3D,2D,D32,2.67414864942653,0.718700327508324,0.281299672491676,0.281299672491676,0.5,0.158259011487848,0.841740988512152,0.5,0.5,0.5,0.5,0.841740988512152,0.158259011487848,0.5,0.5,0.5,0.841740988512152,0.841740988512152,0.158259011487848,0.841740988512152,0.5,0.126916044787049,0.569902980139623,0.158259011487848,0.0692225952870721,0.5,0.437400655016648,0.727728897343398,0.162841909639192,2.5342126686213,0.5,84.8105853903133
CBC_1071,CBC_1071_MSI_AV_v3_Vset3_Aset2_2024-02-02_16h36.55.631.csv,2,15,0,3,b,1,0,0,aud,A,9,1,0A,3A,1,0,b,2.35647490000156,1,0,1,1,0A,3A,A03,3.40119738166216,0.718700327508324,0.281299672491676,0.281299672491676,0.5,0.158259011487848,0.841740988512152,0.5,0.5,0.5,0.5,0.841740988512152,0.158259011487848,0.5,0.5,0.5,0.910963583799224,0.718700327508324,0.281299672491676,0.718700327508324,0.5,0.152647653764868,0.545520027370087,0.281299672491676,0.123040661003828,0.5,0.437400655016648,0.727728897343398,0.162841909639192,2.5342126686213,0.5,84.8105853903133
CBC_1071,CBC_1071_MSI_AV_v3_Vset3_Aset2_2024-02-02_16h36.55.631.csv,2,16,0,1,z,0,1,1,aud,B,63,0,0B,1B,1,0,z,2.2906350000012,0,1,1,0,1B,0B,B01,2.7408400239252,0.841740988512152,0.281299672491676,0.281299672491676,0.5,0.158259011487848,0.841740988512152,0.5,0.5,0.5,0.5,0.841740988512152,0.158259011487848,0.5,0.5,0.5,0.910963583799224,0.965857675810393,0.0341423241896069,0.841740988512152,0.158259011487848,0.175110798490934,0.594701493629638,-0.841740988512152,-0.368178059729576,0.5,0.437400655016648,0.727728897343398,0.162841909639192,2.5342126686213,0.5,84.8105853903133
CBC_1071,CBC_1071_MSI_AV_v3_Vset3_Aset2_2024-02-02_16h36.55.631.csv,2,17,2,3,z,0,1,3,aud,D,63,1,2D,3D,0,1,z,2.28337530000135,0,1,1,1,3D,2D,D23,3.46573590279973,0.841740988512152,0.281299672491676,0.281299672491676,0.5,0.158259011487848,0.473562928782576,0.5,0.5,0.5,0.5,0.841740988512152,0.158259011487848,0.5,0.5,0.5,0.910963583799224,0.910963583799224,0.0890364162007763,0.910963583799224,0.5,0.172735908870059,0.58337964728261,0.0890364162007763,0.0389445867665544,0.5,0.437400655016648,0.727728897343398,0.162841909639192,2.5342126686213,0.5,84.8105853903133
CBC_1071,CBC_1071_MSI_AV_v3_Vset3_Aset2_2024-02-02_16h36.55.631.csv,2,18,0,2,z,0,1,2,aud,C,27,1,0C,2C,0,1,z,2.01383850000093,0,1,1,1,2C,0C,C02,3.49650756146648,0.841740988512152,0.281299672491676,0.281299672491676,0.5,0.158259011487848,0.473562928782576,0.5,0.5,0.5,0.5,0.841740988512152,0.158259011487848,0.5,0.5,0.5,0.949908170565778,0.841740988512152,0.158259011487848,0.841740988512152,0.5,0.207800769418859,0.570129194669143,0.158259011487848,0.0692225952870721,0.5,0.437400655016648,0.727728897343398,0.162841909639192,2.5342126686213,0.5,84.8105853903133
CBC_1071,CBC_1071_MSI_AV_v3_Vset3_Aset2_2024-02-02_16h36.55.631.csv,2,19,0,1,b,1,0,0,aud,A,63,1,0A,1A,1,0,b,2.49003600000106,1,0,1,1,0A,1A,A01,2.83321334405622,0.841740988512152,0.281299672491676,0.281299672491676,0.5,0.158259011487848,0.473562928782576,0.5,0.5,0.5,0.5,0.910963583799224,0.158259011487848,0.5,0.5,0.5,0.949908170565778,0.931455374231025,0.0685446257689749,0.841740988512152,0.281299672491676,0.148310087152257,0.588179669374685,0.158259011487848,0.0692225952870721,0.5,0.437400655016648,0.727728897343398,0.162841909639192,2.5342126686213,0.5,84.8105853903133
CBC_1071,CBC_1071_MSI_AV_v3_Vset3_Aset2_2024-02-02_16h36.55.631.csv,2,20,1,0,b,1,0,1,aud,B,63,1,1B,0B,1,0,z,2.28109790000235,0,1,0,0,0B,1B,B10,2.86220088092947,0.910963583799224,0.281299672491676,0.281299672491676,0.5,0.158259011487848,0.473562928782576,0.5,0.5,0.5,0.5,0.910963583799224,0.158259011487848,0.5,0.5,0.5,0.949908170565778,0.172874240800103,0.827125759199897,0.158259011487848,0.473562928782576,0.128537806476917,0.433399237471018,-0.158259011487848,-0.0692225952870721,0.5,0.437400655016648,0.727728897343398,0.162841909639192,2.5342126686213,0.5,84.8105853903133
CBC_1071,CBC_1071_MSI_AV_v3_Vset3_Aset2_2024-02-02_16h36.55.631.csv,2,21,1,3,z,0,1,3,aud,D,27,1,1D,3D,0,1,z,2.51112300000204,0,1,1,1,3D,1D,D13,3.58351893845611,0.910963583799224,0.281299672491676,0.281299672491676,0.5,0.0890364162007763,0.473562928782576,0.5,0.5,0.5,0.5,0.910963583799224,0.158259011487848,0.5,0.5,0.5,0.949908170565778,0.949908170565778,0.0500918294342219,0.949908170565778,0.5,0.146941356282492,0.592507964496983,0.0500918294342219,0.0219101990055108,0.5,0.437400655016648,0.727728897343398,0.162841909639192,2.5342126686213,0.5,84.8105853903133
CBC_1071,CBC_1071_MSI_AV_v3_Vset3_Aset2_2024-02-02_16h36.55.631.csv,2,22,3,2,z,0,1,2,aud,C,63,1,3C,2C,0,1,b,2.40694810000059,1,0,0,0,3C,2C,C32,2.51230562397611,0.910963583799224,0.281299672491676,0.281299672491676,0.5,0.0890364162007763,0.473562928782576,0.5,0.5,0.5,0.5,0.910963583799224,0.158259011487848,0.5,0.5,0.5,0.971818369571289,0.0180446461531932,0.981955353846807,0.158259011487848,0.910963583799224,0.108020402900225,0.401677398162804,-0.158259011487848,-0.0692225952870721,0.5,0.437400655016648,0.727728897343398,0.162841909639192,2.5342126686213,0.5,84.8105853903133
CBC_1071,CBC_1071_MSI_AV_v3_Vset3_Aset2_2024-02-02_16h36.55.631.csv,2,23,0,1,b,1,0,0,aud,A,63,1,0A,1A,1,0,b,2.40434690000075,1,0,1,1,0A,1A,A01,2.53897387105828,0.910963583799224,0.281299672491676,0.281299672491676,0.5,0.0890364162007763,0.473562928782576,0.5,0.5,0.5,0.5,0.910963583799224,0.0890364162007763,0.5,0.5,0.5,0.971818369571289,0.963154537408128,0.0368454625918717,0.910963583799224,0.281299672491676,0.160200972800933,0.594451913906391,0.0890364162007763,0.0389445867665544,0.5,0.437400655016648,0.727728897343398,0.162841909639192,2.5342126686213,0.5,84.8105853903133
CBC_1071,CBC_1071_MSI_AV_v3_Vset3_Aset2_2024-02-02_16h36.55.631.csv,2,24,2,3,z,0,1,3,aud,D,63,1,2D,3D,0,1,z,1.58249850000175,0,1,1,1,3D,2D,D23,2.9704144655697,0.949908170565778,0.281299672491676,0.281299672491676,0.5,0.0890364162007763,0.473562928782576,0.5,0.5,0.5,0.5,0.910963583799224,0.0890364162007763,0.5,0.5,0.5,0.971818369571289,0.971818369571289,0.028181630428711,0.971818369571289,0.5,0.300809664981339,0.597076182161741,0.028181630428711,0.0123266636089553,0.5,0.437400655016648,0.727728897343398,0.162841909639192,2.5342126686213,0.5,84.8105853903133
CBC_1071,CBC_1071_MSI_AV_v3_Vset3_Aset2_2024-02-02_16h36.55.631.csv,2,25,2,0,b,1,0,2,aud,C,27,1,2C,0C,1,0,z,0.855174800000896,0,1,0,0,0C,2C,C20,3.68887945411394,0.949908170565778,0.281299672491676,0.281299672491676,0.5,0.0890364162007763,0.473562928782576,0.5,0.5,0.5,0.5,0.910963583799224,0.0890364162007763,0.5,0.5,0.5,0.984145033180244,0.0890364162007763,0.910963583799224,0.5,0.910963583799224,0.0172219067109553,0.416126864444804,-0.5,-0.218700327508324,0.5,0.437400655016648,0.727728897343398,0.162841909639192,2.5342126686213,0.5,84.8105853903133
CBC_1071,CBC_1071_MSI_AV_v3_Vset3_Aset2_2024-02-02_16h36.55.631.csv,2,26,0,1,b,1,0,0,aud,A,63,1,0A,1A,1,0,b,1.11266450000039,1,0,1,1,0A,1A,A01,2.32727770558442,0.949908170565778,0.281299672491676,0.281299672491676,0.5,0.0890364162007763,0.473562928782576,0.5,0.5,0.281299672491676,0.5,0.910963583799224,0.0890364162007763,0.5,0.5,0.5,0.984145033180244,0.979777533237114,0.0202224667628864,0.949908170565778,0.281299672491676,0.319099475595406,0.597787307385634,0.0500918294342219,0.0219101990055108,0.5,0.437400655016648,0.727728897343398,0.162841909639192,2.5342126686213,0.5,84.8105853903133
CBC_1071,CBC_1071_MSI_AV_v3_Vset3_Aset2_2024-02-02_16h36.55.631.csv,2,27,1,3,b,1,0,1,aud,B,27,1,1B,3B,1,0,z,1.21553240000139,0,1,0,0,3B,1B,B13,3.04452243772342,0.971818369571289,0.281299672491676,0.281299672491676,0.5,0.0890364162007763,0.473562928782576,0.5,0.5,0.281299672491676,0.5,0.910963583799224,0.0890364162007763,0.5,0.5,0.5,0.984145033180244,0.526437071217424,0.473562928782576,0.5,0.473562928782576,0.288999022753065,0.504914494233207,-0.5,-0.218700327508324,0.5,0.437400655016648,0.727728897343398,0.162841909639192,2.5342126686213,0.5,84.8105853903133
CBC_1071,CBC_1071_MSI_AV_v3_Vset3_Aset2_2024-02-02_16h36.55.631.csv,2,28,3,2,z,0,1,2,aud,C,63,1,3C,2C,0,1,b,1.75157430000036,1,0,0,0,3C,2C,C32,2.37490575457367,0.971818369571289,0.281299672491676,0.281299672491676,0.5,0.0890364162007763,0.473562928782576,0.5,0.281299672491676,0.281299672491676,0.5,0.910963583799224,0.0890364162007763,0.5,0.5,0.5,0.984145033180244,0.0094624641469385,0.990537535853061,0.0890364162007763,0.910963583799224,0.178554329420403,0.40012157580615,-0.0890364162007763,-0.0389445867665544,0.5,0.437400655016648,0.727728897343398,0.162841909639192,2.5342126686213,0.5,84.8105853903133
CBC_1071,CBC_1071_MSI_AV_v3_Vset3_Aset2_2024-02-02_16h36.55.631.csv,2,29,3,2,b,1,0,3,aud,D,63,1,3D,2D,1,0,z,2.42051619999984,0,1,0,0,2D,3D,D32,2.68557734525015,0.971818369571289,0.281299672491676,0.281299672491676,0.5,0.0890364162007763,0.473562928782576,0.5,0.281299672491676,0.281299672491676,0.5,0.910963583799224,0.0500918294342219,0.5,0.5,0.5,0.984145033180244,0.0158549668197557,0.984145033180244,0.5,0.984145033180244,0.106668421827607,0.400880021418767,-0.5,-0.218700327508324,0.5,0.437400655016648,0.727728897343398,0.162841909639192,2.5342126686213,0.5,84.8105853903133
CBC_1071,CBC_1071_MSI_AV_v3_Vset3_Aset2_2024-02-02_16h36.55.631.csv,2,30,0,1,z,0,1,1,aud,B,63,1,0B,1B,0,1,b,2.58588140000029,1,0,0,0,0B,1B,B01,2.70805020110221,0.971818369571289,0.281299672491676,0.281299672491676,0.5,0.0890364162007763,0.473562928782576,0.5,0.281299672491676,0.281299672491676,0.5,0.910963583799224,0.0500918294342219,0.5,0.5,0.281299672491676,0.984145033180244,0.0980032328741597,0.90199676712584,0.0890364162007763,0.473562928782576,0.0979268475859195,0.418273585069547,-0.0890364162007763,-0.0389445867665544,0.5,0.437400655016648,0.727728897343398,0.162841909639192,2.5342126686213,0.5,84.8105853903133
CBC_1071,CBC_1071_MSI_AV_v3_Vset3_Aset2_2024-02-02_16h36.55.631.csv,2,31,2,0,z,0,1,0,aud,A,27,1,2A,0A,0,1,b,2.35593770000014,1,0,0,0,2A,0A,A20,3.13549421592915,0.971818369571289,0.281299672491676,0.281299672491676,0.5,0.0500918294342219,0.473562928782576,0.5,0.281299672491676,0.281299672491676,0.5,0.910963583799224,0.0500918294342219,0.5,0.5,0.281299672491676,0.984145033180244,0.0112227901676233,0.988777209832377,0.281299672491676,0.971818369571289,0.112094037046228,0.400570412627482,-0.281299672491676,-0.123040661003828,0.5,0.437400655016648,0.727728897343398,0.162841909639192,2.5342126686213,0.5,84.8105853903133
CBC_1071,CBC_1071_MSI_AV_v3_Vset3_Aset2_2024-02-02_16h36.55.631.csv,2,32,3,0,b,1,0,3,aud,D,9,1,3D,0D,1,0,b,2.93230460000086,1,0,1,1,3D,0D,D30,3.85014760171006,0.971818369571289,0.281299672491676,0.158259011487848,0.5,0.0500918294342219,0.473562928782576,0.5,0.281299672491676,0.281299672491676,0.5,0.910963583799224,0.0500918294342219,0.5,0.5,0.281299672491676,0.984145033180244,0.984145033180244,0.0158549668197557,0.984145033180244,0.5,0.106679743036915,0.59773469023449,0.0158549668197557,0.00693497287222838,0.5,0.437400655016648,0.727728897343398,0.162841909639192,2.5342126686213,0.5,84.8105853903133
CBC_1071,CBC_1071_MSI_AV_v3_Vset3_Aset2_2024-02-02_16h36.55.631.csv,2,33,3,2,z,0,1,2,aud,C,63,1,3C,2C,0,1,z,2.52305060000072,0,1,1,1,2C,3C,C32,2.26176309847379,0.971818369571289,0.281299672491676,0.158259011487848,0.5,0.0500918294342219,0.473562928782576,0.5,0.281299672491676,0.281299672491676,0.5,0.910963583799224,0.0500918294342219,0.5,0.5,0.281299672491676,0.991080006052473,0.994872339289932,0.00512766071006819,0.910963583799224,0.0500918294342219,0.147528989517458,0.600691867440495,0.0890364162007763,0.0389445867665544,0.5,0.437400655016648,0.727728897343398,0.162841909639192,2.5342126686213,0.5,84.8105853903133
CBC_1071,CBC_1071_MSI_AV_v3_Vset3_Aset2_2024-02-02_16h36.55.631.csv,2,34,0,1,z,0,1,1,aud,B,63,1,0B,1B,0,1,b,2.54841710000073,1,0,0,0,0B,1B,B01,2.50552593699074,0.971818369571289,0.281299672491676,0.158259011487848,0.5,0.0500918294342219,0.473562928782576,0.5,0.281299672491676,0.281299672491676,0.5,0.949908170565778,0.0500918294342219,0.5,0.5,0.281299672491676,0.991080006052473,0.0553749677625477,0.944625032237452,0.0500918294342219,0.473562928782576,0.0983965981398941,0.408436642393239,-0.0500918294342219,-0.0219101990055108,0.5,0.437400655016648,0.727728897343398,0.162841909639192,2.5342126686213,0.5,84.8105853903133
CBC_1071,CBC_1071_MSI_AV_v3_Vset3_Aset2_2024-02-02_16h36.55.631.csv,2,35,0,1,b,1,0,0,aud,A,63,0,0A,1A,0,1,b,2.60228600000119,1,0,1,0,0A,1A,A01,2.30258509299405,0.971818369571289,0.281299672491676,0.158259011487848,0.5,0.028181630428711,0.473562928782576,0.5,0.281299672491676,0.281299672491676,0.5,0.949908170565778,0.0500918294342219,0.5,0.5,0.281299672491676,0.991080006052473,0.988777209832377,0.0112227901676232,0.971818369571289,0.281299672491676,0.138587196299772,0.600294589721693,-0.971818369571289,-0.425073991407693,0.5,0.437400655016648,0.727728897343398,0.162841909639192,2.5342126686213,0.5,84.8105853903133
CBC_1071,CBC_1071_MSI_AV_v3_Vset3_Aset2_2024-02-02_16h36.55.631.csv,2,36,2,3,z,0,1,3,aud,D,63,1,2D,3D,0,1,z,2.44765810000172,0,1,1,1,3D,2D,D23,2.83321334405622,0.546744378163596,0.281299672491676,0.158259011487848,0.5,0.028181630428711,0.473562928782576,0.5,0.281299672491676,0.281299672491676,0.5,0.949908170565778,0.0500918294342219,0.5,0.5,0.281299672491676,0.991080006052473,0.99648965321453,0.00351034678547002,0.991080006052473,0.281299672491676,0.156754808717499,0.60178406011658,0.0089199939475274,0.00390161119539302,0.5,0.437400655016648,0.727728897343398,0.162841909639192,2.5342126686213,0.5,84.8105853903133
CBC_1071,CBC_1071_MSI_AV_v3_Vset3_Aset2_2024-02-02_16h36.55.631.csv,2,37,1,2,b,1,0,1,aud,B,9,1,1B,2B,1,0,b,2.33206590000191,1,0,1,1,1B,2B,B12,3.95124371858143,0.546744378163596,0.281299672491676,0.158259011487848,0.5,0.028181630428711,0.473562928782576,0.5,0.281299672491676,0.281299672491676,0.5,0.949908170565778,0.0500918294342219,0.5,0.5,0.281299672491676,0.994981617247866,0.473562928782576,0.526437071217424,0.473562928782576,0.5,0.140922525367129,0.494238160368479,0.526437071217424,0.230263919775547,0.5,0.437400655016648,0.727728897343398,0.162841909639192,2.5342126686213,0.5,84.8105853903133
CBC_1071,CBC_1071_MSI_AV_v3_Vset3_Aset2_2024-02-02_16h36.55.631.csv,2,38,2,0,z,0,1,0,aud,A,27,1,2A,0A,0,1,b,2.34623509999983,1,0,0,0,2A,0A,A20,2.87167962488401,0.546744378163596,0.281299672491676,0.158259011487848,0.5,0.028181630428711,0.703826848558123,0.5,0.281299672491676,0.281299672491676,0.5,0.949908170565778,0.0500918294342219,0.5,0.5,0.281299672491676,0.994981617247866,0.134847127739113,0.865152872260887,0.158259011487848,0.546744378163596,0.11993815070384,0.425298745508183,-0.158259011487848,-0.0692225952870721,0.5,0.437400655016648,0.727728897343398,0.162841909639192,2.5342126686213,0.5,84.8105853903133
CBC_1071,CBC_1071_MSI_AV_v3_Vset3_Aset2_2024-02-02_16h36.55.631.csv,2,39,2,3,b,1,0,2,aud,C,63,1,2C,3C,1,0,z,1.7259122000014,0,1,0,0,3C,2C,C23,3.29583686600433,0.546744378163596,0.281299672491676,0.0890364162007763,0.5,0.028181630428711,0.703826848558123,0.5,0.281299672491676,0.281299672491676,0.5,0.949908170565778,0.0500918294342219,0.5,0.5,0.281299672491676,0.994981617247866,0.00277309359359834,0.997226906406402,0.0500918294342219,0.949908170565778,0.18116044160661,0.398162730035489,-0.0500918294342219,-0.0219101990055108,0.5,0.437400655016648,0.727728897343398,0.162841909639192,2.5342126686213,0.5,84.8105853903133
CBC_1071,CBC_1071_MSI_AV_v3_Vset3_Aset2_2024-02-02_16h36.55.631.csv,2,40,1,3,z,0,1,3,aud,D,27,1,1D,3D,0,1,z,2.47592850000183,0,1,1,1,3D,1D,D13,3.31418600467253,0.546744378163596,0.281299672491676,0.0890364162007763,0.5,0.028181630428711,0.703826848558123,0.5,0.281299672491676,0.281299672491676,0.5,0.949908170565778,0.028181630428711,0.5,0.5,0.281299672491676,0.994981617247866,0.994981617247866,0.0050183827521344,0.994981617247866,0.5,0.153206278969839,0.601282395231828,0.0050183827521344,0.00219504390290783,0.5,0.437400655016648,0.727728897343398,0.162841909639192,2.5342126686213,0.5,84.8105853903133
CBC_1071,CBC_1071_MSI_AV_v3_Vset3_Aset2_2024-02-02_16h36.55.631.csv,2,41,0,1,b,1,0,0,aud,A,63,1,0A,1A,1,0,b,2.02682780000032,1,0,1,1,0A,1A,A01,2.23359222150709,0.546744378163596,0.281299672491676,0.0890364162007763,0.5,0.028181630428711,0.703826848558123,0.5,0.281299672491676,0.281299672491676,0.5,0.949908170565778,0.028181630428711,0.5,0.5,0.281299672491676,0.997176661150773,0.755016557569259,0.244983442430741,0.546744378163596,0.281299672491676,0.198782353852803,0.551331478539377,0.453255621836404,0.198254305881221,0.5,0.437400655016648,0.727728897343398,0.162841909639192,2.5342126686213,0.5,84.8105853903133
CBC_1071,CBC_1071_MSI_AV_v3_Vset3_Aset2_2024-02-02_16h36.55.631.csv,2,42,0,2,z,0,1,2,aud,C,27,1,0C,2C,0,1,z,2.37305600000218,0,1,1,1,2C,0C,C02,3.3499040872746,0.744998684044817,0.281299672491676,0.0890364162007763,0.5,0.028181630428711,0.703826848558123,0.5,0.281299672491676,0.281299672491676,0.5,0.949908170565778,0.028181630428711,0.5,0.5,0.281299672491676,0.997176661150773,0.979777533237114,0.0202224667628864,0.949908170565778,0.281299672491676,0.164812466458407,0.596856161511616,0.0500918294342219,0.0219101990055108,0.5,0.437400655016648,0.727728897343398,0.162841909639192,2.5342126686213,0.5,84.8105853903133
CBC_1071,CBC_1071_MSI_AV_v3_Vset3_Aset2_2024-02-02_16h36.55.631.csv,2,43,3,2,b,1,0,3,aud,D,63,1,3D,2D,1,0,b,1.23367370000051,1,0,1,1,3D,2D,D32,2.67414864942653,0.744998684044817,0.281299672491676,0.0890364162007763,0.5,0.028181630428711,0.703826848558123,0.5,0.281299672491676,0.281299672491676,0.5,0.971818369571289,0.028181630428711,0.5,0.5,0.281299672491676,0.997176661150773,0.99889304167606,0.00110695832393959,0.997176661150773,0.281299672491676,0.351012175150916,0.601908521807735,0.00282333884922659,0.00123493026198566,0.5,0.437400655016648,0.727728897343398,0.162841909639192,2.5342126686213,0.5,84.8105853903133
CBC_1071,CBC_1071_MSI_AV_v3_Vset3_Aset2_2024-02-02_16h36.55.631.csv,2,44,1,0,b,1,0,1,aud,B,63,1,1B,0B,1,0,z,2.35427720000007,0,1,0,0,0B,1B,B10,2.97892515523761,0.744998684044817,0.281299672491676,0.0890364162007763,0.5,0.028181630428711,0.703826848558123,0.5,0.281299672491676,0.281299672491676,0.5,0.971818369571289,0.028181630428711,0.5,0.5,0.281299672491676,0.998411591412759,0.0120557245682752,0.987944275431725,0.028181630428711,0.703826848558123,0.112381264362551,0.401074650408888,-0.028181630428711,-0.0123266636089553,0.5,0.437400655016648,0.727728897343398,0.162841909639192,2.5342126686213,0.5,84.8105853903133
