ID,filename,session,trial,visStimLeft,visStimRight,correctKey,leftCorrect,rightCorrect,secondStim,mod2Type,mod2Stim,frequency,rewardAccurate,stimPairLeft,stimPairRight,pCorrectLeft,pCorrectRight,key,reactionTime,choiceLeft,choiceRight,choiceAccurate,reward,chosenPair,otherPair,triplet,surprise,0A belief,1A belief,2A belief,3A belief,0B belief,1B belief,2B belief,3B belief,0C belief,1C belief,2C belief,3C belief,0D belief,1D belief,2D belief,3D belief,beliefPairNorm,beliefOtherPairNorm,beliefPair,beliefOtherPair,lik,corrLik,rewardPE,update2,fitCBCsimpleRW_CBCdriftDiffusionLR_startBelief,fitCBCsimpleRW_CBCdriftDiffusionLR_alpha1,fitCBCsimpleRW_CBCdriftDiffusionLR_nonDecisionTime,fitCBCsimpleRW_CBCdriftDiffusionLR_weight,fitCBCsimpleRW_CBCdriftDiffusionLR_startingBoundary,fitCBCsimpleRW_CBCdriftDiffusionLR_startingPoint,fit_CBCsimpleRW_CBCdriftDiffusionLR_NLL
CBC_1071,CBC_1071_MSI_TV_v3_Vset2_Tset3_2024-02-02_15h20.49.299.csv,1,1,0,1,z,0,1,1,tac,B,63,1,0B,1B,NaN,NaN,None,NaN,NaN,NaN,NaN,NaN,,,B01,2.77258872223978,0.5,0.5,0.5,0.5,0.5,0.5,0.5,0.5,0.5,0.5,0.5,0.5,0.5,0.5,0.5,0.5,0,0,0,0,NaN,0,0,0,0.5,0.623544028623842,1.08526590278263,1.49233487783356,3.28044264939848,0.5,120.412035989168
CBC_1071,CBC_1071_MSI_TV_v3_Vset2_Tset3_2024-02-02_15h20.49.299.csv,1,2,0,1,b,1,0,0,tac,A,63,1,0A,1A,1,0,b,3.10873580000225,1,0,1,1,0A,1A,A01,2.83321334405622,0.5,0.5,0.5,0.5,0.5,0.5,0.5,0.5,0.5,0.5,0.5,0.5,0.5,0.5,0.5,0.5,0.5,0.5,0.5,0.5,0.115005215110443,0.499072272953581,0.5,0.311772014311921,0.5,0.623544028623842,1.08526590278263,1.49233487783356,3.28044264939848,0.5,120.412035989168
CBC_1071,CBC_1071_MSI_TV_v3_Vset2_Tset3_2024-02-02_15h20.49.299.csv,1,3,2,3,z,0,1,3,tac,D,63,1,2D,3D,0,1,b,2.50170200000139,1,0,0,0,2D,3D,D23,2.89037175789616,0.811772014311921,0.5,0.5,0.5,0.5,0.5,0.5,0.5,0.5,0.5,0.5,0.5,0.5,0.5,0.5,0.5,0.5,0.5,0.5,0.5,0.14983073708716,0.499631021807178,-0.5,-0.311772014311921,0.5,0.623544028623842,1.08526590278263,1.49233487783356,3.28044264939848,0.5,120.412035989168
CBC_1071,CBC_1071_MSI_TV_v3_Vset2_Tset3_2024-02-02_15h20.49.299.csv,1,4,2,1,z,0,1,1,tac,B,9,1,2B,1B,0,1,b,2.89003120000052,1,0,0,0,2B,1B,B21,2.94443897916644,0.811772014311921,0.5,0.5,0.5,0.5,0.5,0.5,0.5,0.5,0.5,0.5,0.5,0.5,0.5,0.188227985688079,0.5,0.5,0.5,0.5,0.5,0.126817884539638,0.498919857359042,-0.5,-0.311772014311921,0.5,0.623544028623842,1.08526590278263,1.49233487783356,3.28044264939848,0.5,120.412035989168
CBC_1071,CBC_1071_MSI_TV_v3_Vset2_Tset3_2024-02-02_15h20.49.299.csv,1,5,0,2,b,1,0,0,tac,A,27,1,0A,2A,1,0,b,2.55265040000086,1,0,1,1,0A,2A,A02,2.99573227355399,0.811772014311921,0.5,0.5,0.5,0.5,0.5,0.188227985688079,0.5,0.5,0.5,0.5,0.5,0.5,0.5,0.188227985688079,0.5,0.618836204351965,0.381163795648035,0.811772014311921,0.5,0.239340781821541,0.76126547609034,0.188227985688079,0.117368436495696,0.5,0.623544028623842,1.08526590278263,1.49233487783356,3.28044264939848,0.5,120.412035989168
CBC_1071,CBC_1071_MSI_TV_v3_Vset2_Tset3_2024-02-02_15h20.49.299.csv,1,6,2,3,b,1,0,2,tac,C,63,1,2C,3C,1,0,b,3.03153290000228,1,0,1,1,2C,3C,C23,3.04452243772342,0.929140450807616,0.5,0.5,0.5,0.5,0.5,0.188227985688079,0.5,0.5,0.5,0.5,0.5,0.5,0.5,0.188227985688079,0.5,0.5,0.5,0.5,0.5,0.119259033049412,0.499824324939672,0.5,0.311772014311921,0.5,0.623544028623842,1.08526590278263,1.49233487783356,3.28044264939848,0.5,120.412035989168
CBC_1071,CBC_1071_MSI_TV_v3_Vset2_Tset3_2024-02-02_15h20.49.299.csv,1,7,1,3,z,0,1,3,tac,D,27,1,1D,3D,0,1,z,4.46940670000185,0,1,1,1,3D,1D,D13,3.09104245335832,0.929140450807616,0.5,0.5,0.5,0.5,0.5,0.188227985688079,0.5,0.5,0.5,0.811772014311921,0.5,0.5,0.5,0.188227985688079,0.5,0.5,0.5,0.5,0.5,0.0617657961530183,0.499348594370704,0.5,0.311772014311921,0.5,0.623544028623842,1.08526590278263,1.49233487783356,3.28044264939848,0.5,120.412035989168
CBC_1071,CBC_1071_MSI_TV_v3_Vset2_Tset3_2024-02-02_15h20.49.299.csv,1,8,1,0,z,0,1,0,tac,A,63,1,1A,0A,0,1,z,2.64165820000198,0,1,1,1,0A,1A,A10,3.13549421592915,0.929140450807616,0.5,0.5,0.5,0.5,0.5,0.188227985688079,0.5,0.5,0.5,0.811772014311921,0.5,0.5,0.5,0.188227985688079,0.811772014311921,0.650139354940624,0.349860645059376,0.929140450807616,0.5,0.252589028592164,0.81316490461705,0.0708595491923836,0.0441840487698881,0.5,0.623544028623842,1.08526590278263,1.49233487783356,3.28044264939848,0.5,120.412035989168
CBC_1071,CBC_1071_MSI_TV_v3_Vset2_Tset3_2024-02-02_15h20.49.299.csv,1,9,2,0,b,1,0,2,tac,C,27,1,2C,0C,1,0,b,2.76820830000179,1,0,1,1,2C,0C,C20,3.17805383034795,0.973324499577505,0.5,0.5,0.5,0.5,0.5,0.188227985688079,0.5,0.5,0.5,0.811772014311921,0.5,0.5,0.5,0.188227985688079,0.811772014311921,0.618836204351965,0.381163795648035,0.811772014311921,0.5,0.215909166421791,0.762223164752724,0.188227985688079,0.117368436495696,0.5,0.623544028623842,1.08526590278263,1.49233487783356,3.28044264939848,0.5,120.412035989168
CBC_1071,CBC_1071_MSI_TV_v3_Vset2_Tset3_2024-02-02_15h20.49.299.csv,1,10,2,3,z,0,1,3,tac,D,63,1,2D,3D,0,1,z,3.15338780000093,0,1,1,1,3D,2D,D23,2.52572864430826,0.973324499577505,0.5,0.5,0.5,0.5,0.5,0.188227985688079,0.5,0.5,0.5,0.929140450807616,0.5,0.5,0.5,0.188227985688079,0.811772014311921,0.811772014311921,0.188227985688079,0.811772014311921,0.188227985688079,0.212086772319875,0.955153511492288,0.188227985688079,0.117368436495696,0.5,0.623544028623842,1.08526590278263,1.49233487783356,3.28044264939848,0.5,120.412035989168
CBC_1071,CBC_1071_MSI_TV_v3_Vset2_Tset3_2024-02-02_15h20.49.299.csv,1,11,1,0,b,1,0,1,tac,B,63,1,1B,0B,1,0,b,2.58456740000292,1,0,1,1,1B,0B,B10,3.25809653802148,0.973324499577505,0.5,0.5,0.5,0.5,0.5,0.188227985688079,0.5,0.5,0.5,0.929140450807616,0.5,0.5,0.5,0.188227985688079,0.929140450807616,0.5,0.5,0.5,0.5,0.144640344329504,0.498794668290915,0.5,0.311772014311921,0.5,0.623544028623842,1.08526590278263,1.49233487783356,3.28044264939848,0.5,120.412035989168
CBC_1071,CBC_1071_MSI_TV_v3_Vset2_Tset3_2024-02-02_15h20.49.299.csv,1,12,0,1,b,1,0,0,tac,A,63,1,0A,1A,1,0,b,4.40042730000278,1,0,1,1,0A,1A,A01,2.60268968544438,0.973324499577505,0.5,0.5,0.5,0.5,0.811772014311921,0.188227985688079,0.5,0.5,0.5,0.929140450807616,0.5,0.5,0.5,0.188227985688079,0.929140450807616,0.660631449389879,0.339368550610121,0.973324499577505,0.5,0.0957475264907396,0.828763806664802,0.0266755004224954,0.0166333489989998,0.5,0.623544028623842,1.08526590278263,1.49233487783356,3.28044264939848,0.5,120.412035989168
CBC_1071,CBC_1071_MSI_TV_v3_Vset2_Tset3_2024-02-02_15h20.49.299.csv,1,13,2,3,z,0,1,3,tac,D,63,1,2D,3D,0,1,z,2.70555960000274,0,1,1,1,3D,2D,D23,2.23359222150709,0.989957848576504,0.5,0.5,0.5,0.5,0.811772014311921,0.188227985688079,0.5,0.5,0.5,0.929140450807616,0.5,0.5,0.5,0.188227985688079,0.929140450807616,0.831543491349727,0.168456508650273,0.929140450807616,0.188227985688079,0.315894336551123,0.962576407405143,0.0708595491923836,0.0441840487698881,0.5,0.623544028623842,1.08526590278263,1.49233487783356,3.28044264939848,0.5,120.412035989168
CBC_1071,CBC_1071_MSI_TV_v3_Vset2_Tset3_2024-02-02_15h20.49.299.csv,1,14,2,0,b,1,0,2,tac,C,27,1,2C,0C,1,0,b,2.39523500000178,1,0,1,1,2C,0C,C20,2.67414864942653,0.989957848576504,0.5,0.5,0.5,0.5,0.811772014311921,0.188227985688079,0.5,0.5,0.5,0.929140450807616,0.5,0.5,0.5,0.188227985688079,0.973324499577505,0.650139354940624,0.349860645059376,0.929140450807616,0.5,0.285338256661574,0.81269452075298,0.0708595491923836,0.0441840487698881,0.5,0.623544028623842,1.08526590278263,1.49233487783356,3.28044264939848,0.5,120.412035989168
CBC_1071,CBC_1071_MSI_TV_v3_Vset2_Tset3_2024-02-02_15h20.49.299.csv,1,15,0,1,b,1,0,0,tac,A,63,1,0A,1A,1,0,b,0.320673900001566,1,0,1,1,0A,1A,A01,2.30258509299405,0.989957848576504,0.5,0.5,0.5,0.5,0.811772014311921,0.188227985688079,0.5,0.5,0.5,0.973324499577505,0.5,0.5,0.5,0.188227985688079,0.973324499577505,0.664420036796547,0.335579963203453,0.989957848576504,0.5,1e-20,0.5,0.0100421514234956,0.00626172355465711,0.5,0.623544028623842,1.08526590278263,1.49233487783356,3.28044264939848,0.5,120.412035989168
CBC_1071,CBC_1071_MSI_TV_v3_Vset2_Tset3_2024-02-02_15h20.49.299.csv,1,16,1,3,b,1,0,1,tac,B,27,1,1B,3B,1,0,b,2.72400710000147,1,0,1,1,1B,3B,B13,3.43398720448515,0.996219572131162,0.5,0.5,0.5,0.5,0.811772014311921,0.188227985688079,0.5,0.5,0.5,0.973324499577505,0.5,0.5,0.5,0.188227985688079,0.973324499577505,0.618836204351965,0.381163795648035,0.811772014311921,0.5,0.220927980452724,0.762801953000657,0.188227985688079,0.117368436495696,0.5,0.623544028623842,1.08526590278263,1.49233487783356,3.28044264939848,0.5,120.412035989168
CBC_1071,CBC_1071_MSI_TV_v3_Vset2_Tset3_2024-02-02_15h20.49.299.csv,1,17,3,2,z,0,1,2,tac,C,63,1,3C,2C,0,1,z,3.616566900002,0,1,1,1,2C,3C,C32,3.46573590279973,0.996219572131162,0.5,0.5,0.5,0.5,0.929140450807616,0.188227985688079,0.5,0.5,0.5,0.973324499577505,0.5,0.5,0.5,0.188227985688079,0.973324499577505,0.660631449389879,0.339368550610121,0.973324499577505,0.5,0.150051163534768,0.828223505010126,0.0266755004224954,0.0166333489989998,0.5,0.623544028623842,1.08526590278263,1.49233487783356,3.28044264939848,0.5,120.412035989168
CBC_1071,CBC_1071_MSI_TV_v3_Vset2_Tset3_2024-02-02_15h20.49.299.csv,1,18,2,3,z,0,1,3,tac,D,63,0,2D,3D,1,0,z,2.7052560000011,0,1,1,0,3D,2D,D23,2.11021320034659,0.996219572131162,0.5,0.5,0.5,0.5,0.929140450807616,0.188227985688079,0.5,0.5,0.5,0.989957848576504,0.5,0.5,0.5,0.188227985688079,0.973324499577505,0.837951372774135,0.162048627225865,0.973324499577505,0.188227985688079,0.316111365304815,0.964864421749106,-0.973324499577505,-0.606910679624842,0.5,0.623544028623842,1.08526590278263,1.49233487783356,3.28044264939848,0.5,120.412035989168
CBC_1071,CBC_1071_MSI_TV_v3_Vset2_Tset3_2024-02-02_15h20.49.299.csv,1,19,1,0,b,1,0,1,tac,B,63,1,1B,0B,1,0,b,3.27803470000254,1,0,1,1,1B,0B,B10,2.83321334405622,0.996219572131162,0.5,0.5,0.5,0.5,0.929140450807616,0.188227985688079,0.5,0.5,0.5,0.989957848576504,0.5,0.5,0.5,0.188227985688079,0.366413819952663,0.650139354940624,0.349860645059376,0.929140450807616,0.5,0.17866318133672,0.813535659581229,0.0708595491923836,0.0441840487698881,0.5,0.623544028623842,1.08526590278263,1.49233487783356,3.28044264939848,0.5,120.412035989168
CBC_1071,CBC_1071_MSI_TV_v3_Vset2_Tset3_2024-02-02_15h20.49.299.csv,1,20,2,0,z,0,1,0,tac,A,27,1,2A,0A,0,1,b,4.75687160000052,1,0,0,0,2A,0A,A20,3.55534806148941,0.996219572131162,0.5,0.5,0.5,0.5,0.973324499577505,0.188227985688079,0.5,0.5,0.5,0.989957848576504,0.5,0.5,0.5,0.188227985688079,0.366413819952663,0.334175551044168,0.665824448955832,0.5,0.996219572131162,0.015391946268822,0.165035921094647,-0.5,-0.311772014311921,0.5,0.623544028623842,1.08526590278263,1.49233487783356,3.28044264939848,0.5,120.412035989168
CBC_1071,CBC_1071_MSI_TV_v3_Vset2_Tset3_2024-02-02_15h20.49.299.csv,1,21,0,3,z,0,1,3,tac,D,9,1,0D,3D,0,1,z,2.39167340000131,0,1,1,1,3D,0D,D03,3.58351893845611,0.996219572131162,0.5,0.188227985688079,0.5,0.5,0.973324499577505,0.188227985688079,0.5,0.5,0.5,0.989957848576504,0.5,0.5,0.5,0.188227985688079,0.366413819952663,0.422908558837026,0.577091441162974,0.366413819952663,0.5,0.103382058166129,0.319095483382749,0.633586180047337,0.395068879187107,0.5,0.623544028623842,1.08526590278263,1.49233487783356,3.28044264939848,0.5,120.412035989168
CBC_1071,CBC_1071_MSI_TV_v3_Vset2_Tset3_2024-02-02_15h20.49.299.csv,1,22,2,3,b,1,0,2,tac,C,63,1,2C,3C,1,0,b,2.5296767000018,1,0,1,1,2C,3C,C23,2.91777073208428,0.996219572131162,0.5,0.188227985688079,0.5,0.5,0.973324499577505,0.188227985688079,0.5,0.5,0.5,0.989957848576504,0.5,0.5,0.5,0.188227985688079,0.76148269913977,0.664420036796547,0.335579963203453,0.989957848576504,0.5,0.278307131932689,0.832737456778569,0.0100421514234956,0.00626172355465711,0.5,0.623544028623842,1.08526590278263,1.49233487783356,3.28044264939848,0.5,120.412035989168
CBC_1071,CBC_1071_MSI_TV_v3_Vset2_Tset3_2024-02-02_15h20.49.299.csv,1,23,3,1,z,0,1,1,tac,B,27,1,3B,1B,0,1,z,2.35420790000171,0,1,1,1,1B,3B,B31,3.63758615972639,0.996219572131162,0.5,0.188227985688079,0.5,0.5,0.973324499577505,0.188227985688079,0.5,0.5,0.5,0.996219572131162,0.5,0.5,0.5,0.188227985688079,0.76148269913977,0.660631449389879,0.339368550610121,0.973324499577505,0.5,0.300416313787662,0.827698775375654,0.0266755004224954,0.0166333489989998,0.5,0.623544028623842,1.08526590278263,1.49233487783356,3.28044264939848,0.5,120.412035989168
CBC_1071,CBC_1071_MSI_TV_v3_Vset2_Tset3_2024-02-02_15h20.49.299.csv,1,24,3,2,z,0,1,2,tac,C,63,1,3C,2C,0,1,b,2.97440070000266,1,0,0,0,3C,2C,C32,2.9704144655697,0.996219572131162,0.5,0.188227985688079,0.5,0.5,0.989957848576504,0.188227985688079,0.5,0.5,0.5,0.996219572131162,0.5,0.5,0.5,0.188227985688079,0.76148269913977,0.334175551044168,0.665824448955832,0.5,0.996219572131162,0.0430158638332002,0.164263925070419,-0.5,-0.311772014311921,0.5,0.623544028623842,1.08526590278263,1.49233487783356,3.28044264939848,0.5,120.412035989168
CBC_1071,CBC_1071_MSI_TV_v3_Vset2_Tset3_2024-02-02_15h20.49.299.csv,1,25,2,3,z,0,1,3,tac,D,63,1,2D,3D,0,1,z,2.72000830000252,0,1,1,1,3D,2D,D23,2.07944154167984,0.996219572131162,0.5,0.188227985688079,0.5,0.5,0.989957848576504,0.188227985688079,0.5,0.5,0.5,0.996219572131162,0.188227985688079,0.5,0.5,0.188227985688079,0.76148269913977,0.801804919440073,0.198195080559927,0.76148269913977,0.188227985688079,0.309079643702455,0.950440838959477,0.23851730086023,0.148726038674873,0.5,0.623544028623842,1.08526590278263,1.49233487783356,3.28044264939848,0.5,120.412035989168
CBC_1071,CBC_1071_MSI_TV_v3_Vset2_Tset3_2024-02-02_15h20.49.299.csv,1,26,1,0,b,1,0,1,tac,B,63,1,1B,0B,1,0,b,2.93730070000129,1,0,1,1,1B,0B,B10,2.6149597780362,0.996219572131162,0.5,0.188227985688079,0.5,0.5,0.989957848576504,0.188227985688079,0.5,0.5,0.5,0.996219572131162,0.188227985688079,0.5,0.5,0.188227985688079,0.910208737814643,0.664420036796547,0.335579963203453,0.989957848576504,0.5,0.222637857140348,0.833238359996287,0.0100421514234956,0.00626172355465711,0.5,0.623544028623842,1.08526590278263,1.49233487783356,3.28044264939848,0.5,120.412035989168
CBC_1071,CBC_1071_MSI_TV_v3_Vset2_Tset3_2024-02-02_15h20.49.299.csv,1,27,0,3,b,1,0,0,tac,A,9,1,0A,3A,1,0,b,2.10642330000155,1,0,1,1,0A,3A,A03,3.73766961828337,0.996219572131162,0.5,0.188227985688079,0.5,0.5,0.996219572131162,0.188227985688079,0.5,0.5,0.5,0.996219572131162,0.188227985688079,0.5,0.5,0.188227985688079,0.910208737814643,0.665824448955832,0.334175551044168,0.996219572131162,0.5,0.337145847626449,0.834859445495141,0.00378042786883848,0.00235726322325739,0.5,0.623544028623842,1.08526590278263,1.49233487783356,3.28044264939848,0.5,120.412035989168
CBC_1071,CBC_1071_MSI_TV_v3_Vset2_Tset3_2024-02-02_15h20.49.299.csv,1,28,2,3,z,0,1,3,tac,D,63,1,2D,3D,0,1,z,2.44091290000142,0,1,1,1,3D,2D,D23,1.96944064646551,0.998576835354419,0.5,0.188227985688079,0.5,0.5,0.996219572131162,0.188227985688079,0.5,0.5,0.5,0.996219572131162,0.188227985688079,0.5,0.5,0.188227985688079,0.910208737814643,0.82864011948922,0.17135988051078,0.910208737814643,0.188227985688079,0.399736133590659,0.961575394609341,0.0897912621853573,0.0559888053582773,0.5,0.623544028623842,1.08526590278263,1.49233487783356,3.28044264939848,0.5,120.412035989168
CBC_1071,CBC_1071_MSI_TV_v3_Vset2_Tset3_2024-02-02_15h20.49.299.csv,1,29,2,0,b,1,0,2,tac,C,27,1,2C,0C,1,0,z,2.64667710000322,0,1,0,0,0C,2C,C20,2.68557734525015,0.998576835354419,0.5,0.188227985688079,0.5,0.5,0.996219572131162,0.188227985688079,0.5,0.5,0.5,0.996219572131162,0.188227985688079,0.5,0.5,0.188227985688079,0.96619754317292,0.334175551044168,0.665824448955832,0.5,0.996219572131162,0.0518477068274039,0.16482974398537,-0.5,-0.311772014311921,0.5,0.623544028623842,1.08526590278263,1.49233487783356,3.28044264939848,0.5,120.412035989168
CBC_1071,CBC_1071_MSI_TV_v3_Vset2_Tset3_2024-02-02_15h20.49.299.csv,1,30,1,0,z,0,1,0,tac,A,63,1,1A,0A,0,1,z,2.9537074000018,0,1,1,1,0A,1A,A10,3.11351530921037,0.998576835354419,0.5,0.188227985688079,0.5,0.5,0.996219572131162,0.188227985688079,0.5,0.188227985688079,0.5,0.996219572131162,0.188227985688079,0.5,0.5,0.188227985688079,0.96619754317292,0.666350107512673,0.333649892487327,0.998576835354419,0.5,0.221334407005698,0.835398756211668,0.00142316464558112,0.000887405816500674,0.5,0.623544028623842,1.08526590278263,1.49233487783356,3.28044264939848,0.5,120.412035989168
CBC_1071,CBC_1071_MSI_TV_v3_Vset2_Tset3_2024-02-02_15h20.49.299.csv,1,31,1,0,b,1,0,1,tac,B,63,1,1B,0B,1,0,b,2.31304230000205,1,0,1,1,1B,0B,B10,2.4423470353692,0.99946424117092,0.5,0.188227985688079,0.5,0.5,0.996219572131162,0.188227985688079,0.5,0.188227985688079,0.5,0.996219572131162,0.188227985688079,0.5,0.5,0.188227985688079,0.96619754317292,0.665824448955832,0.334175551044168,0.996219572131162,0.5,0.311435531058445,0.835293836655552,0.00378042786883848,0.00235726322325739,0.5,0.623544028623842,1.08526590278263,1.49233487783356,3.28044264939848,0.5,120.412035989168
CBC_1071,CBC_1071_MSI_TV_v3_Vset2_Tset3_2024-02-02_15h20.49.299.csv,1,32,3,1,b,1,0,3,tac,D,27,1,3D,1D,1,0,z,2.52237410000089,0,1,0,0,1D,3D,D31,3.85014760171006,0.99946424117092,0.5,0.188227985688079,0.5,0.5,0.998576835354419,0.188227985688079,0.5,0.188227985688079,0.5,0.996219572131162,0.188227985688079,0.5,0.5,0.188227985688079,0.96619754317292,0.341018167932526,0.658981832067474,0.5,0.96619754317292,0.058041514394011,0.173982743199787,-0.5,-0.311772014311921,0.5,0.623544028623842,1.08526590278263,1.49233487783356,3.28044264939848,0.5,120.412035989168
CBC_1071,CBC_1071_MSI_TV_v3_Vset2_Tset3_2024-02-02_15h20.49.299.csv,1,33,3,2,z,0,1,2,tac,C,63,1,3C,2C,0,1,z,2.52878960000271,0,1,1,1,2C,3C,C32,2.77258872223978,0.99946424117092,0.5,0.188227985688079,0.5,0.5,0.998576835354419,0.188227985688079,0.5,0.188227985688079,0.5,0.996219572131162,0.188227985688079,0.5,0.188227985688079,0.188227985688079,0.96619754317292,0.841083731866831,0.158916268133169,0.996219572131162,0.188227985688079,0.372866182568989,0.965780753245631,0.00378042786883848,0.00235726322325739,0.5,0.623544028623842,1.08526590278263,1.49233487783356,3.28044264939848,0.5,120.412035989168
CBC_1071,CBC_1071_MSI_TV_v3_Vset2_Tset3_2024-02-02_15h20.49.299.csv,1,34,1,0,b,1,0,1,tac,B,63,1,1B,0B,1,0,b,2.63206080000236,1,0,1,1,1B,0B,B10,2.28238238567653,0.99946424117092,0.5,0.188227985688079,0.5,0.5,0.998576835354419,0.188227985688079,0.5,0.188227985688079,0.5,0.998576835354419,0.188227985688079,0.5,0.188227985688079,0.188227985688079,0.96619754317292,0.666350107512673,0.333649892487327,0.998576835354419,0.5,0.264922539147662,0.83540576953158,0.00142316464558112,0.000887405816500674,0.5,0.623544028623842,1.08526590278263,1.49233487783356,3.28044264939848,0.5,120.412035989168
CBC_1071,CBC_1071_MSI_TV_v3_Vset2_Tset3_2024-02-02_15h20.49.299.csv,1,35,0,1,b,1,0,0,tac,A,63,1,0A,1A,1,0,b,2.77963560000171,1,0,1,1,0A,1A,A01,2.52572864430826,0.99946424117092,0.5,0.188227985688079,0.5,0.5,0.99946424117092,0.188227985688079,0.5,0.188227985688079,0.5,0.998576835354419,0.188227985688079,0.5,0.188227985688079,0.188227985688079,0.96619754317292,0.666547566609822,0.333452433390178,0.99946424117092,0.5,0.24422660713211,0.835454038745588,0.000535758829080413,0.000334069218655593,0.5,0.623544028623842,1.08526590278263,1.49233487783356,3.28044264939848,0.5,120.412035989168
CBC_1071,CBC_1071_MSI_TV_v3_Vset2_Tset3_2024-02-02_15h20.49.299.csv,1,36,1,2,z,0,1,2,tac,C,9,1,1C,2C,0,1,b,2.46729350000169,1,0,0,0,1C,2C,C12,3.93182563272433,0.999798310389575,0.5,0.188227985688079,0.5,0.5,0.99946424117092,0.188227985688079,0.5,0.188227985688079,0.5,0.998576835354419,0.188227985688079,0.5,0.188227985688079,0.188227985688079,0.96619754317292,0.333649892487327,0.666350107512673,0.5,0.998576835354419,0.0569123240090757,0.164482679333748,-0.5,-0.311772014311921,0.5,0.623544028623842,1.08526590278263,1.49233487783356,3.28044264939848,0.5,120.412035989168
CBC_1071,CBC_1071_MSI_TV_v3_Vset2_Tset3_2024-02-02_15h20.49.299.csv,1,37,1,0,z,0,1,0,tac,A,63,1,1A,0A,0,1,z,3.19745220000186,0,1,1,1,0A,1A,A10,2.85263142991332,0.999798310389575,0.5,0.188227985688079,0.5,0.5,0.99946424117092,0.188227985688079,0.5,0.188227985688079,0.188227985688079,0.998576835354419,0.188227985688079,0.5,0.188227985688079,0.188227985688079,0.96619754317292,0.666621840725955,0.333378159274045,0.999798310389575,0.5,0.192825934288712,0.836840313857593,0.000201689610424771,0.000125762352215835,0.5,0.623544028623842,1.08526590278263,1.49233487783356,3.28044264939848,0.5,120.412035989168
CBC_1071,CBC_1071_MSI_TV_v3_Vset2_Tset3_2024-02-02_15h20.49.299.csv,1,38,3,1,b,1,0,3,tac,D,27,1,3D,1D,1,0,b,2.52306030000182,1,0,1,1,3D,1D,D31,3.27714473299218,0.999924072741791,0.5,0.188227985688079,0.5,0.5,0.99946424117092,0.188227985688079,0.5,0.188227985688079,0.188227985688079,0.998576835354419,0.188227985688079,0.5,0.188227985688079,0.188227985688079,0.96619754317292,0.836950950076622,0.163049049923378,0.96619754317292,0.188227985688079,0.373876539893007,0.964254139657005,0.0338024568270801,0.021077320107341,0.5,0.623544028623842,1.08526590278263,1.49233487783356,3.28044264939848,0.5,120.412035989168
CBC_1071,CBC_1071_MSI_TV_v3_Vset2_Tset3_2024-02-02_15h20.49.299.csv,1,39,0,1,z,0,1,1,tac,B,63,1,0B,1B,0,1,b,2.63841520000096,1,0,0,0,0B,1B,B01,3.29583686600433,0.999924072741791,0.5,0.188227985688079,0.5,0.5,0.99946424117092,0.188227985688079,0.5,0.188227985688079,0.188227985688079,0.998576835354419,0.188227985688079,0.5,0.188227985688079,0.188227985688079,0.987274863280261,0.333452433390178,0.666547566609822,0.5,0.99946424117092,0.0517375911241764,0.163592936885735,-0.5,-0.311772014311921,0.5,0.623544028623842,1.08526590278263,1.49233487783356,3.28044264939848,0.5,120.412035989168
CBC_1071,CBC_1071_MSI_TV_v3_Vset2_Tset3_2024-02-02_15h20.49.299.csv,1,40,2,3,b,1,0,2,tac,C,63,0,2C,3C,0,1,b,2.43003320000207,1,0,1,0,2C,3C,C23,2.90872089656436,0.999924072741791,0.5,0.188227985688079,0.5,0.188227985688079,0.99946424117092,0.188227985688079,0.5,0.188227985688079,0.188227985688079,0.998576835354419,0.188227985688079,0.5,0.188227985688079,0.188227985688079,0.987274863280261,0.841399375574883,0.158600624425117,0.998576835354419,0.188227985688079,0.407904778504788,0.9657902393582,-0.998576835354419,-0.622656622807341,0.5,0.623544028623842,1.08526590278263,1.49233487783356,3.28044264939848,0.5,120.412035989168
CBC_1071,CBC_1071_MSI_TV_v3_Vset2_Tset3_2024-02-02_15h20.49.299.csv,1,41,2,0,z,0,1,0,tac,A,27,1,2A,0A,0,1,z,2.42844820000209,0,1,1,1,0A,2A,A20,3.3322045101752,0.999924072741791,0.5,0.188227985688079,0.5,0.188227985688079,0.99946424117092,0.188227985688079,0.5,0.188227985688079,0.188227985688079,0.375920212547078,0.188227985688079,0.5,0.188227985688079,0.188227985688079,0.987274863280261,0.841579211724112,0.158420788275888,0.999924072741791,0.188227985688079,0.408556951447557,0.965860981927665,7.59272582089299e-05,4.73439884659588e-05,0.5,0.623544028623842,1.08526590278263,1.49233487783356,3.28044264939848,0.5,120.412035989168
CBC_1071,CBC_1071_MSI_TV_v3_Vset2_Tset3_2024-02-02_15h20.49.299.csv,1,42,3,2,b,1,0,3,tac,D,63,1,3D,2D,1,0,b,2.28598840000086,1,0,1,1,3D,2D,D32,4.04305126783455,0.999971416730257,0.5,0.188227985688079,0.5,0.188227985688079,0.99946424117092,0.188227985688079,0.5,0.188227985688079,0.188227985688079,0.375920212547078,0.188227985688079,0.5,0.188227985688079,0.188227985688079,0.987274863280261,0.83987449638827,0.16012550361173,0.987274863280261,0.188227985688079,0.461946971744211,0.965574657742215,0.0127251367197391,0.00793468301501528,0.5,0.623544028623842,1.08526590278263,1.49233487783356,3.28044264939848,0.5,120.412035989168
CBC_1071,CBC_1071_MSI_TV_v3_Vset2_Tset3_2024-02-02_15h20.49.299.csv,1,43,3,1,z,0,1,1,tac,B,27,1,3B,1B,0,1,z,2.48964260000321,0,1,1,1,1B,3B,B31,3.36729582998647,0.999971416730257,0.5,0.188227985688079,0.5,0.188227985688079,0.99946424117092,0.188227985688079,0.5,0.188227985688079,0.188227985688079,0.375920212547078,0.188227985688079,0.5,0.188227985688079,0.188227985688079,0.995209546295276,0.666547566609822,0.333452433390178,0.99946424117092,0.5,0.286198996606465,0.836190246698715,0.000535758829080413,0.000334069218655593,0.5,0.623544028623842,1.08526590278263,1.49233487783356,3.28044264939848,0.5,120.412035989168
CBC_1071,CBC_1071_MSI_TV_v3_Vset2_Tset3_2024-02-02_15h20.49.299.csv,1,44,2,3,b,1,0,2,tac,C,63,1,2C,3C,1,0,z,3.20534090000183,0,1,0,0,3C,2C,C23,2.69124308278583,0.999971416730257,0.5,0.188227985688079,0.5,0.188227985688079,0.999798310389575,0.188227985688079,0.5,0.188227985688079,0.188227985688079,0.375920212547078,0.188227985688079,0.5,0.188227985688079,0.188227985688079,0.995209546295276,0.333649892487327,0.666350107512673,0.188227985688079,0.375920212547078,0.0374774171053871,0.163394849576932,-0.188227985688079,-0.117368436495696,0.5,0.623544028623842,1.08526590278263,1.49233487783356,3.28044264939848,0.5,120.412035989168
CBC_1071,CBC_1071_MSI_AV_v3_Vset3_Aset2_2024-02-02_16h36.55.631.csv,2,1,1,0,b,1,0,1,aud,B,63,1,1B,0B,1,0,z,2.47862580000037,0,1,0,0,0B,1B,B10,2.77258872223978,0.5,0.5,0.5,0.5,0.5,0.5,0.5,0.5,0.5,0.5,0.5,0.5,0.5,0.5,0.5,0.5,0.5,0.5,0.5,0.5,0.126644201888309,0.498865997015515,-0.5,-0.00263140597398659,0.5,0.00526281194797318,0.712137944135594,9.97806276251053,2.56550595722035,0.5,84.8341887594785
CBC_1071,CBC_1071_MSI_AV_v3_Vset3_Aset2_2024-02-02_16h36.55.631.csv,2,2,0,1,b,1,0,0,aud,A,63,1,0A,1A,1,0,b,2.43031900000096,1,0,1,1,0A,1A,A01,2.83321334405622,0.5,0.5,0.5,0.5,0.497368594026013,0.5,0.5,0.5,0.5,0.5,0.5,0.5,0.5,0.5,0.5,0.5,0.5,0.5,0.5,0.5,0.131707369524717,0.500368546174165,0.5,0.00263140597398659,0.5,0.00526281194797318,0.712137944135594,9.97806276251053,2.56550595722035,0.5,84.8341887594785
CBC_1071,CBC_1071_MSI_AV_v3_Vset3_Aset2_2024-02-02_16h36.55.631.csv,2,3,1,2,z,0,1,2,aud,C,9,1,1C,2C,0,1,z,1.57883469999979,0,1,1,1,2C,1C,C12,2.89037175789616,0.502631405973987,0.5,0.5,0.5,0.497368594026013,0.5,0.5,0.5,0.5,0.5,0.5,0.5,0.5,0.5,0.5,0.5,0.5,0.5,0.5,0.5,0.244975432132044,0.499756478567144,0.5,0.00263140597398659,0.5,0.00526281194797318,0.712137944135594,9.97806276251053,2.56550595722035,0.5,84.8341887594785
CBC_1071,CBC_1071_MSI_AV_v3_Vset3_Aset2_2024-02-02_16h36.55.631.csv,2,4,1,0,z,0,1,0,aud,A,63,1,1A,0A,0,1,b,2.30841160000091,1,0,0,0,1A,0A,A10,2.94443897916644,0.502631405973987,0.5,0.5,0.5,0.497368594026013,0.5,0.5,0.5,0.5,0.5,0.502631405973987,0.5,0.5,0.5,0.5,0.5,0.498687750075298,0.501312249924702,0.5,0.502631405973987,0.139606401274839,0.484094851354239,-0.5,-0.00263140597398659,0.5,0.00526281194797318,0.712137944135594,9.97806276251053,2.56550595722035,0.5,84.8341887594785
CBC_1071,CBC_1071_MSI_AV_v3_Vset3_Aset2_2024-02-02_16h36.55.631.csv,2,5,3,1,b,1,0,3,aud,D,27,1,3D,1D,1,0,b,2.39552680000088,1,0,1,1,3D,1D,D31,2.99573227355399,0.502631405973987,0.497368594026013,0.5,0.5,0.497368594026013,0.5,0.5,0.5,0.5,0.5,0.502631405973987,0.5,0.5,0.5,0.5,0.5,0.5,0.5,0.5,0.5,0.134960238465217,0.499536143050332,0.5,0.00263140597398659,0.5,0.00526281194797318,0.712137944135594,9.97806276251053,2.56550595722035,0.5,84.8341887594785
CBC_1071,CBC_1071_MSI_AV_v3_Vset3_Aset2_2024-02-02_16h36.55.631.csv,2,6,0,1,z,0,1,1,aud,B,63,1,0B,1B,0,1,b,2.48537969999961,1,0,0,0,0B,1B,B01,3.04452243772342,0.502631405973987,0.497368594026013,0.5,0.5,0.497368594026013,0.5,0.5,0.5,0.5,0.5,0.502631405973987,0.5,0.5,0.5,0.5,0.502631405973987,0.498680825729952,0.501319174270048,0.497368594026013,0.5,0.12189534710977,0.482618517596881,-0.497368594026013,-0.00261755737918672,0.5,0.00526281194797318,0.712137944135594,9.97806276251053,2.56550595722035,0.5,84.8341887594785
CBC_1071,CBC_1071_MSI_AV_v3_Vset3_Aset2_2024-02-02_16h36.55.631.csv,2,7,2,3,b,1,0,2,aud,C,63,1,2C,3C,1,0,z,1.68532190000224,0,1,0,0,3C,2C,C23,3.09104245335832,0.502631405973987,0.497368594026013,0.5,0.5,0.494751036646827,0.5,0.5,0.5,0.5,0.5,0.502631405973987,0.5,0.5,0.5,0.5,0.502631405973987,0.498687750075298,0.501312249924702,0.5,0.502631405973987,0.220589042794784,0.48345476661848,-0.5,-0.00263140597398659,0.5,0.00526281194797318,0.712137944135594,9.97806276251053,2.56550595722035,0.5,84.8341887594785
CBC_1071,CBC_1071_MSI_AV_v3_Vset3_Aset2_2024-02-02_16h36.55.631.csv,2,8,2,0,z,0,1,0,aud,A,27,1,2A,0A,0,1,b,2.39182559999972,1,0,0,0,2A,0A,A20,3.13549421592915,0.502631405973987,0.497368594026013,0.5,0.5,0.494751036646827,0.5,0.5,0.5,0.5,0.5,0.502631405973987,0.497368594026013,0.5,0.5,0.5,0.502631405973987,0.498687750075298,0.501312249924702,0.5,0.502631405973987,0.130744801161271,0.482599715486871,-0.5,-0.00263140597398659,0.5,0.00526281194797318,0.712137944135594,9.97806276251053,2.56550595722035,0.5,84.8341887594785
CBC_1071,CBC_1071_MSI_AV_v3_Vset3_Aset2_2024-02-02_16h36.55.631.csv,2,9,3,2,b,1,0,3,aud,D,63,1,3D,2D,1,0,b,2.88887640000212,1,0,1,1,3D,2D,D32,3.17805383034795,0.502631405973987,0.497368594026013,0.497368594026013,0.5,0.494751036646827,0.5,0.5,0.5,0.5,0.5,0.502631405973987,0.497368594026013,0.5,0.5,0.5,0.502631405973987,0.501312249924702,0.498687750075298,0.502631405973987,0.5,0.0965953265340345,0.517602881779562,0.497368594026013,0.00261755737918672,0.5,0.00526281194797318,0.712137944135594,9.97806276251053,2.56550595722035,0.5,84.8341887594785
CBC_1071,CBC_1071_MSI_AV_v3_Vset3_Aset2_2024-02-02_16h36.55.631.csv,2,10,3,1,z,0,1,1,aud,B,27,1,3B,1B,0,1,z,2.37622999999985,0,1,1,1,1B,3B,B31,3.2188758248682,0.502631405973987,0.497368594026013,0.497368594026013,0.5,0.494751036646827,0.5,0.5,0.5,0.5,0.5,0.502631405973987,0.497368594026013,0.5,0.5,0.5,0.505248963353173,0.5,0.5,0.5,0.5,0.137249779283668,0.500721157541524,0.5,0.00263140597398659,0.5,0.00526281194797318,0.712137944135594,9.97806276251053,2.56550595722035,0.5,84.8341887594785
CBC_1071,CBC_1071_MSI_AV_v3_Vset3_Aset2_2024-02-02_16h36.55.631.csv,2,11,3,2,z,0,1,2,aud,C,63,1,3C,2C,0,1,z,2.34992440000133,0,1,1,1,2C,3C,C32,3.25809653802148,0.502631405973987,0.497368594026013,0.497368594026013,0.5,0.494751036646827,0.502631405973987,0.5,0.5,0.5,0.5,0.502631405973987,0.497368594026013,0.5,0.5,0.5,0.505248963353173,0.502631405973987,0.497368594026013,0.502631405973987,0.497368594026013,0.149443386610456,0.534566444683877,0.497368594026013,0.00261755737918672,0.5,0.00526281194797318,0.712137944135594,9.97806276251053,2.56550595722035,0.5,84.8341887594785
CBC_1071,CBC_1071_MSI_AV_v3_Vset3_Aset2_2024-02-02_16h36.55.631.csv,2,12,1,3,b,1,0,1,aud,B,27,1,1B,3B,1,0,b,2.53499670000019,1,0,1,1,1B,3B,B13,3.29583686600433,0.502631405973987,0.497368594026013,0.497368594026013,0.5,0.494751036646827,0.502631405973987,0.5,0.5,0.5,0.5,0.505248963353173,0.497368594026013,0.5,0.5,0.5,0.505248963353173,0.501312249924702,0.498687750075298,0.502631405973987,0.5,0.125396774918264,0.515291319557175,0.497368594026013,0.00261755737918672,0.5,0.00526281194797318,0.712137944135594,9.97806276251053,2.56550595722035,0.5,84.8341887594785
CBC_1071,CBC_1071_MSI_AV_v3_Vset3_Aset2_2024-02-02_16h36.55.631.csv,2,13,3,2,z,0,1,2,aud,C,63,1,3C,2C,0,1,b,1.81638960000237,1,0,0,0,3C,2C,C32,2.63905732961526,0.502631405973987,0.497368594026013,0.497368594026013,0.5,0.494751036646827,0.505248963353173,0.5,0.5,0.5,0.5,0.505248963353173,0.497368594026013,0.5,0.5,0.5,0.505248963353173,0.496070102069747,0.503929897930253,0.497368594026013,0.505248963353173,0.187039297622655,0.449434198611039,-0.497368594026013,-0.00261755737918672,0.5,0.00526281194797318,0.712137944135594,9.97806276251053,2.56550595722035,0.5,84.8341887594785
CBC_1071,CBC_1071_MSI_AV_v3_Vset3_Aset2_2024-02-02_16h36.55.631.csv,2,14,3,2,b,1,0,3,aud,D,63,1,3D,2D,1,0,b,2.65126930000224,1,0,1,1,3D,2D,D32,2.67414864942653,0.502631405973987,0.497368594026013,0.497368594026013,0.5,0.494751036646827,0.505248963353173,0.5,0.5,0.5,0.5,0.505248963353173,0.494751036646827,0.5,0.5,0.5,0.505248963353173,0.502610777799593,0.497389222200407,0.505248963353173,0.5,0.118786847384495,0.532756925627536,0.494751036646827,0.00260378166693704,0.5,0.00526281194797318,0.712137944135594,9.97806276251053,2.56550595722035,0.5,84.8341887594785
CBC_1071,CBC_1071_MSI_AV_v3_Vset3_Aset2_2024-02-02_16h36.55.631.csv,2,15,0,3,b,1,0,0,aud,A,9,1,0A,3A,1,0,b,2.35647490000156,1,0,1,1,0A,3A,A03,3.40119738166216,0.502631405973987,0.497368594026013,0.497368594026013,0.5,0.494751036646827,0.505248963353173,0.5,0.5,0.5,0.5,0.505248963353173,0.494751036646827,0.5,0.5,0.5,0.50785274502011,0.501312249924702,0.498687750075298,0.502631405973987,0.5,0.143691446800619,0.516523462936254,0.497368594026013,0.00261755737918672,0.5,0.00526281194797318,0.712137944135594,9.97806276251053,2.56550595722035,0.5,84.8341887594785
CBC_1071,CBC_1071_MSI_AV_v3_Vset3_Aset2_2024-02-02_16h36.55.631.csv,2,16,0,1,z,0,1,1,aud,B,63,0,0B,1B,1,0,z,2.2906350000012,0,1,1,0,1B,0B,B01,2.7408400239252,0.505248963353173,0.497368594026013,0.497368594026013,0.5,0.494751036646827,0.505248963353173,0.5,0.5,0.5,0.5,0.505248963353173,0.494751036646827,0.5,0.5,0.5,0.50785274502011,0.505248963353173,0.494751036646827,0.505248963353173,0.494751036646827,0.165908229343805,0.567506202072196,-0.505248963353173,-0.00265903028103614,0.5,0.00526281194797318,0.712137944135594,9.97806276251053,2.56550595722035,0.5,84.8341887594785
CBC_1071,CBC_1071_MSI_AV_v3_Vset3_Aset2_2024-02-02_16h36.55.631.csv,2,17,2,3,z,0,1,3,aud,D,63,1,2D,3D,0,1,z,2.28337530000135,0,1,1,1,3D,2D,D23,3.46573590279973,0.505248963353173,0.497368594026013,0.497368594026013,0.5,0.494751036646827,0.502589933072137,0.5,0.5,0.5,0.5,0.505248963353173,0.494751036646827,0.5,0.5,0.5,0.50785274502011,0.503895779943504,0.496104220056496,0.50785274502011,0.5,0.161269069960199,0.54872512463743,0.49214725497989,0.00259007845367037,0.5,0.00526281194797318,0.712137944135594,9.97806276251053,2.56550595722035,0.5,84.8341887594785
CBC_1071,CBC_1071_MSI_AV_v3_Vset3_Aset2_2024-02-02_16h36.55.631.csv,2,18,0,2,z,0,1,2,aud,C,27,1,0C,2C,0,1,z,2.01383850000093,0,1,1,1,2C,0C,C02,3.49650756146648,0.505248963353173,0.497368594026013,0.497368594026013,0.5,0.494751036646827,0.502589933072137,0.5,0.5,0.5,0.5,0.505248963353173,0.494751036646827,0.5,0.5,0.5,0.510442823473781,0.502610777799593,0.497389222200407,0.505248963353173,0.5,0.191638820440276,0.533135195060271,0.494751036646827,0.00260378166693704,0.5,0.00526281194797318,0.712137944135594,9.97806276251053,2.56550595722035,0.5,84.8341887594785
CBC_1071,CBC_1071_MSI_AV_v3_Vset3_Aset2_2024-02-02_16h36.55.631.csv,2,19,0,1,b,1,0,0,aud,A,63,1,0A,1A,1,0,b,2.49003600000106,1,0,1,1,0A,1A,A01,2.83321334405622,0.505248963353173,0.497368594026013,0.497368594026013,0.5,0.494751036646827,0.502589933072137,0.5,0.5,0.5,0.5,0.50785274502011,0.494751036646827,0.5,0.5,0.5,0.510442823473781,0.503929897930253,0.496070102069747,0.505248963353173,0.497368594026013,0.138376399965723,0.549988070621797,0.494751036646827,0.00260378166693704,0.5,0.00526281194797318,0.712137944135594,9.97806276251053,2.56550595722035,0.5,84.8341887594785
CBC_1071,CBC_1071_MSI_AV_v3_Vset3_Aset2_2024-02-02_16h36.55.631.csv,2,20,1,0,b,1,0,1,aud,B,63,1,1B,0B,1,0,z,2.28109790000235,0,1,0,0,0B,1B,B10,2.86220088092947,0.50785274502011,0.497368594026013,0.497368594026013,0.5,0.494751036646827,0.502589933072137,0.5,0.5,0.5,0.5,0.50785274502011,0.494751036646827,0.5,0.5,0.5,0.510442823473781,0.496070102069747,0.503929897930253,0.494751036646827,0.502589933072137,0.132379212020822,0.449649843607203,-0.494751036646827,-0.00260378166693704,0.5,0.00526281194797318,0.712137944135594,9.97806276251053,2.56550595722035,0.5,84.8341887594785
CBC_1071,CBC_1071_MSI_AV_v3_Vset3_Aset2_2024-02-02_16h36.55.631.csv,2,21,1,3,z,0,1,3,aud,D,27,1,1D,3D,0,1,z,2.51112300000204,0,1,1,1,3D,1D,D13,3.58351893845611,0.50785274502011,0.497368594026013,0.497368594026013,0.5,0.49214725497989,0.502589933072137,0.5,0.5,0.5,0.5,0.50785274502011,0.494751036646827,0.5,0.5,0.5,0.510442823473781,0.505167448979389,0.494832551020611,0.510442823473781,0.5,0.140011196999814,0.565588770464256,0.489557176526219,0.0025764473578382,0.5,0.00526281194797318,0.712137944135594,9.97806276251053,2.56550595722035,0.5,84.8341887594785
CBC_1071,CBC_1071_MSI_AV_v3_Vset3_Aset2_2024-02-02_16h36.55.631.csv,2,22,3,2,z,0,1,2,aud,C,63,1,3C,2C,0,1,b,2.40694810000059,1,0,0,0,3C,2C,C32,2.51230562397611,0.50785274502011,0.497368594026013,0.497368594026013,0.5,0.49214725497989,0.502589933072137,0.5,0.5,0.5,0.5,0.50785274502011,0.494751036646827,0.5,0.5,0.5,0.513019270831619,0.493466158510044,0.506533841489956,0.494751036646827,0.50785274502011,0.11207904834612,0.418603459515469,-0.494751036646827,-0.00260378166693704,0.5,0.00526281194797318,0.712137944135594,9.97806276251053,2.56550595722035,0.5,84.8341887594785
CBC_1071,CBC_1071_MSI_AV_v3_Vset3_Aset2_2024-02-02_16h36.55.631.csv,2,23,0,1,b,1,0,0,aud,A,63,1,0A,1A,1,0,b,2.40434690000075,1,0,1,1,0A,1A,A01,2.53897387105828,0.50785274502011,0.497368594026013,0.497368594026013,0.5,0.49214725497989,0.502589933072137,0.5,0.5,0.5,0.5,0.50785274502011,0.49214725497989,0.5,0.5,0.5,0.513019270831619,0.505214847012721,0.494785152987279,0.50785274502011,0.497368594026013,0.152084113490138,0.566809852020171,0.49214725497989,0.00259007845367037,0.5,0.00526281194797318,0.712137944135594,9.97806276251053,2.56550595722035,0.5,84.8341887594785
CBC_1071,CBC_1071_MSI_AV_v3_Vset3_Aset2_2024-02-02_16h36.55.631.csv,2,24,2,3,z,0,1,3,aud,D,63,1,2D,3D,0,1,z,1.58249850000175,0,1,1,1,3D,2D,D23,2.9704144655697,0.510442823473781,0.497368594026013,0.497368594026013,0.5,0.49214725497989,0.502589933072137,0.5,0.5,0.5,0.5,0.50785274502011,0.49214725497989,0.5,0.5,0.5,0.513019270831619,0.506425973920975,0.493574026079025,0.513019270831619,0.5,0.286027724522355,0.581239503248892,0.486980729168381,0.00256288799990005,0.5,0.00526281194797318,0.712137944135594,9.97806276251053,2.56550595722035,0.5,84.8341887594785
CBC_1071,CBC_1071_MSI_AV_v3_Vset3_Aset2_2024-02-02_16h36.55.631.csv,2,25,2,0,b,1,0,2,aud,C,27,1,2C,0C,1,0,z,0.855174800000896,0,1,0,0,0C,2C,C20,3.68887945411394,0.510442823473781,0.497368594026013,0.497368594026013,0.5,0.49214725497989,0.502589933072137,0.5,0.5,0.5,0.5,0.50785274502011,0.49214725497989,0.5,0.5,0.5,0.515582158831519,0.496104220056496,0.503895779943504,0.5,0.50785274502011,0.0271669101058959,0.449914288134253,-0.5,-0.00263140597398659,0.5,0.00526281194797318,0.712137944135594,9.97806276251053,2.56550595722035,0.5,84.8341887594785
CBC_1071,CBC_1071_MSI_AV_v3_Vset3_Aset2_2024-02-02_16h36.55.631.csv,2,26,0,1,b,1,0,0,aud,A,63,1,0A,1A,1,0,b,1.11266450000039,1,0,1,1,0A,1A,A01,2.32727770558442,0.510442823473781,0.497368594026013,0.497368594026013,0.5,0.49214725497989,0.502589933072137,0.5,0.5,0.497368594026013,0.5,0.50785274502011,0.49214725497989,0.5,0.5,0.5,0.515582158831519,0.506486446383095,0.493513553616905,0.510442823473781,0.497368594026013,0.304517524714303,0.582200054158939,0.489557176526219,0.0025764473578382,0.5,0.00526281194797318,0.712137944135594,9.97806276251053,2.56550595722035,0.5,84.8341887594785
CBC_1071,CBC_1071_MSI_AV_v3_Vset3_Aset2_2024-02-02_16h36.55.631.csv,2,27,1,3,b,1,0,1,aud,B,27,1,1B,3B,1,0,z,1.21553240000139,0,1,0,0,3B,1B,B13,3.04452243772342,0.513019270831619,0.497368594026013,0.497368594026013,0.5,0.49214725497989,0.502589933072137,0.5,0.5,0.497368594026013,0.5,0.50785274502011,0.49214725497989,0.5,0.5,0.5,0.515582158831519,0.498708378676713,0.501291621323287,0.5,0.502589933072137,0.270536928785576,0.483775035362796,-0.5,-0.00263140597398659,0.5,0.00526281194797318,0.712137944135594,9.97806276251053,2.56550595722035,0.5,84.8341887594785
CBC_1071,CBC_1071_MSI_AV_v3_Vset3_Aset2_2024-02-02_16h36.55.631.csv,2,28,3,2,z,0,1,2,aud,C,63,1,3C,2C,0,1,b,1.75157430000036,1,0,0,0,3C,2C,C32,2.37490575457367,0.513019270831619,0.497368594026013,0.497368594026013,0.5,0.49214725497989,0.502589933072137,0.5,0.497368594026013,0.497368594026013,0.5,0.50785274502011,0.49214725497989,0.5,0.5,0.5,0.515582158831519,0.49214725497989,0.50785274502011,0.49214725497989,0.50785274502011,0.176004591571417,0.401397265413927,-0.49214725497989,-0.00259007845367037,0.5,0.00526281194797318,0.712137944135594,9.97806276251053,2.56550595722035,0.5,84.8341887594785
CBC_1071,CBC_1071_MSI_AV_v3_Vset3_Aset2_2024-02-02_16h36.55.631.csv,2,29,3,2,b,1,0,3,aud,D,63,1,3D,2D,1,0,z,2.42051619999984,0,1,0,0,2D,3D,D32,2.68557734525015,0.513019270831619,0.497368594026013,0.497368594026013,0.5,0.49214725497989,0.502589933072137,0.5,0.497368594026013,0.497368594026013,0.5,0.50785274502011,0.489557176526219,0.5,0.5,0.5,0.515582158831519,0.492328459743007,0.507671540256993,0.5,0.515582158831519,0.106739613092504,0.402894341918178,-0.5,-0.00263140597398659,0.5,0.00526281194797318,0.712137944135594,9.97806276251053,2.56550595722035,0.5,84.8341887594785
CBC_1071,CBC_1071_MSI_AV_v3_Vset3_Aset2_2024-02-02_16h36.55.631.csv,2,30,0,1,z,0,1,1,aud,B,63,1,0B,1B,0,1,b,2.58588140000029,1,0,0,0,0B,1B,B01,2.70805020110221,0.513019270831619,0.497368594026013,0.497368594026013,0.5,0.49214725497989,0.502589933072137,0.5,0.497368594026013,0.497368594026013,0.5,0.50785274502011,0.489557176526219,0.5,0.5,0.497368594026013,0.515582158831519,0.494751036646827,0.505248963353173,0.49214725497989,0.502589933072137,0.101440061304639,0.433577131576401,-0.49214725497989,-0.00259007845367037,0.5,0.00526281194797318,0.712137944135594,9.97806276251053,2.56550595722035,0.5,84.8341887594785
CBC_1071,CBC_1071_MSI_AV_v3_Vset3_Aset2_2024-02-02_16h36.55.631.csv,2,31,2,0,z,0,1,0,aud,A,27,1,2A,0A,0,1,b,2.35593770000014,1,0,0,0,2A,0A,A20,3.13549421592915,0.513019270831619,0.497368594026013,0.497368594026013,0.5,0.489557176526219,0.502589933072137,0.5,0.497368594026013,0.497368594026013,0.5,0.50785274502011,0.489557176526219,0.5,0.5,0.497368594026013,0.515582158831519,0.49225511442192,0.50774488557808,0.497368594026013,0.513019270831619,0.111655092035312,0.401246988429832,-0.497368594026013,-0.00261755737918672,0.5,0.00526281194797318,0.712137944135594,9.97806276251053,2.56550595722035,0.5,84.8341887594785
CBC_1071,CBC_1071_MSI_AV_v3_Vset3_Aset2_2024-02-02_16h36.55.631.csv,2,32,3,0,b,1,0,3,aud,D,9,1,3D,0D,1,0,b,2.93230460000086,1,0,1,1,3D,0D,D30,3.85014760171006,0.513019270831619,0.497368594026013,0.494751036646827,0.5,0.489557176526219,0.502589933072137,0.5,0.497368594026013,0.497368594026013,0.5,0.50785274502011,0.489557176526219,0.5,0.5,0.497368594026013,0.515582158831519,0.507671540256993,0.492328459743007,0.515582158831519,0.5,0.106953694849198,0.595941715147447,0.484417841168481,0.00254940000231286,0.5,0.00526281194797318,0.712137944135594,9.97806276251053,2.56550595722035,0.5,84.8341887594785
CBC_1071,CBC_1071_MSI_AV_v3_Vset3_Aset2_2024-02-02_16h36.55.631.csv,2,33,3,2,z,0,1,2,aud,C,63,1,3C,2C,0,1,z,2.52305060000072,0,1,1,1,2C,3C,C32,2.26176309847379,0.513019270831619,0.497368594026013,0.494751036646827,0.5,0.489557176526219,0.502589933072137,0.5,0.497368594026013,0.497368594026013,0.5,0.50785274502011,0.489557176526219,0.5,0.5,0.497368594026013,0.518131558833832,0.509171539253152,0.490828460746848,0.50785274502011,0.489557176526219,0.150637964992867,0.61532408912395,0.49214725497989,0.00259007845367037,0.5,0.00526281194797318,0.712137944135594,9.97806276251053,2.56550595722035,0.5,84.8341887594785
CBC_1071,CBC_1071_MSI_AV_v3_Vset3_Aset2_2024-02-02_16h36.55.631.csv,2,34,0,1,z,0,1,1,aud,B,63,1,0B,1B,0,1,b,2.54841710000073,1,0,0,0,0B,1B,B01,2.50552593699074,0.513019270831619,0.497368594026013,0.494751036646827,0.5,0.489557176526219,0.502589933072137,0.5,0.497368594026013,0.497368594026013,0.5,0.510442823473781,0.489557176526219,0.5,0.5,0.497368594026013,0.518131558833832,0.493432044290693,0.506567955709307,0.489557176526219,0.502589933072137,0.100159429361072,0.416437972681698,-0.489557176526219,-0.0025764473578382,0.5,0.00526281194797318,0.712137944135594,9.97806276251053,2.56550595722035,0.5,84.8341887594785
CBC_1071,CBC_1071_MSI_AV_v3_Vset3_Aset2_2024-02-02_16h36.55.631.csv,2,35,0,1,b,1,0,0,aud,A,63,0,0A,1A,0,1,b,2.60228600000119,1,0,1,0,0A,1A,A01,2.30258509299405,0.513019270831619,0.497368594026013,0.494751036646827,0.5,0.486980729168381,0.502589933072137,0.5,0.497368594026013,0.497368594026013,0.5,0.510442823473781,0.489557176526219,0.5,0.5,0.497368594026013,0.518131558833832,0.50774488557808,0.49225511442192,0.513019270831619,0.497368594026013,0.137938810504556,0.597944940918451,-0.513019270831619,-0.00269992394807313,0.5,0.00526281194797318,0.712137944135594,9.97806276251053,2.56550595722035,0.5,84.8341887594785
CBC_1071,CBC_1071_MSI_AV_v3_Vset3_Aset2_2024-02-02_16h36.55.631.csv,2,36,2,3,z,0,1,3,aud,D,63,1,2D,3D,0,1,z,2.44765810000172,0,1,1,1,3D,2D,D23,2.83321334405622,0.510319346883546,0.497368594026013,0.494751036646827,0.5,0.486980729168381,0.502589933072137,0.5,0.497368594026013,0.497368594026013,0.5,0.510442823473781,0.489557176526219,0.5,0.5,0.497368594026013,0.518131558833832,0.510223023969689,0.489776976030311,0.518131558833832,0.497368594026013,0.16270344562306,0.62761438194716,0.481868441166168,0.00253598298952052,0.5,0.00526281194797318,0.712137944135594,9.97806276251053,2.56550595722035,0.5,84.8341887594785
CBC_1071,CBC_1071_MSI_AV_v3_Vset3_Aset2_2024-02-02_16h36.55.631.csv,2,37,1,2,b,1,0,1,aud,B,9,1,1B,2B,1,0,b,2.33206590000191,1,0,1,1,1B,2B,B12,3.95124371858143,0.510319346883546,0.497368594026013,0.494751036646827,0.5,0.486980729168381,0.502589933072137,0.5,0.497368594026013,0.497368594026013,0.5,0.510442823473781,0.489557176526219,0.5,0.5,0.497368594026013,0.520667541823352,0.501291621323287,0.498708378676713,0.502589933072137,0.5,0.146474895245726,0.516988999823257,0.497410066927863,0.00261777564327009,0.5,0.00526281194797318,0.712137944135594,9.97806276251053,2.56550595722035,0.5,84.8341887594785
CBC_1071,CBC_1071_MSI_AV_v3_Vset3_Aset2_2024-02-02_16h36.55.631.csv,2,38,2,0,z,0,1,0,aud,A,27,1,2A,0A,0,1,b,2.34623509999983,1,0,0,0,2A,0A,A20,2.87167962488401,0.510319346883546,0.497368594026013,0.494751036646827,0.5,0.486980729168381,0.505207708715407,0.5,0.497368594026013,0.497368594026013,0.5,0.510442823473781,0.489557176526219,0.5,0.5,0.497368594026013,0.520667541823352,0.49225511442192,0.50774488557808,0.494751036646827,0.510319346883546,0.113077080566606,0.403365766731593,-0.494751036646827,-0.00260378166693704,0.5,0.00526281194797318,0.712137944135594,9.97806276251053,2.56550595722035,0.5,84.8341887594785
CBC_1071,CBC_1071_MSI_AV_v3_Vset3_Aset2_2024-02-02_16h36.55.631.csv,2,39,2,3,b,1,0,2,aud,C,63,1,2C,3C,1,0,z,1.7259122000014,0,1,0,0,3C,2C,C23,3.29583686600433,0.510319346883546,0.497368594026013,0.49214725497989,0.5,0.486980729168381,0.505207708715407,0.5,0.497368594026013,0.497368594026013,0.5,0.510442823473781,0.489557176526219,0.5,0.5,0.497368594026013,0.520667541823352,0.489557176526219,0.510442823473781,0.489557176526219,0.510442823473781,0.16629097513978,0.370184762521817,-0.489557176526219,-0.0025764473578382,0.5,0.00526281194797318,0.712137944135594,9.97806276251053,2.56550595722035,0.5,84.8341887594785
CBC_1071,CBC_1071_MSI_AV_v3_Vset3_Aset2_2024-02-02_16h36.55.631.csv,2,40,1,3,z,0,1,3,aud,D,27,1,1D,3D,0,1,z,2.47592850000183,0,1,1,1,3D,1D,D13,3.31418600467253,0.510319346883546,0.497368594026013,0.49214725497989,0.5,0.486980729168381,0.505207708715407,0.5,0.497368594026013,0.497368594026013,0.5,0.510442823473781,0.486980729168381,0.5,0.5,0.497368594026013,0.520667541823352,0.510124521931221,0.489875478068779,0.520667541823352,0.5,0.158997370160654,0.626788035518107,0.479332458176648,0.00252263658794342,0.5,0.00526281194797318,0.712137944135594,9.97806276251053,2.56550595722035,0.5,84.8341887594785
CBC_1071,CBC_1071_MSI_AV_v3_Vset3_Aset2_2024-02-02_16h36.55.631.csv,2,41,0,1,b,1,0,0,aud,A,63,1,0A,1A,1,0,b,2.02682780000032,1,0,1,1,0A,1A,A01,2.23359222150709,0.510319346883546,0.497368594026013,0.49214725497989,0.5,0.486980729168381,0.505207708715407,0.5,0.497368594026013,0.497368594026013,0.5,0.510442823473781,0.486980729168381,0.5,0.5,0.497368594026013,0.523190178411296,0.506425973920975,0.493574026079025,0.510319346883546,0.497368594026013,0.207440013445741,0.581411183234138,0.489680653116454,0.00257709719191258,0.5,0.00526281194797318,0.712137944135594,9.97806276251053,2.56550595722035,0.5,84.8341887594785
CBC_1071,CBC_1071_MSI_AV_v3_Vset3_Aset2_2024-02-02_16h36.55.631.csv,2,42,0,2,z,0,1,2,aud,C,27,1,0C,2C,0,1,z,2.37305600000218,0,1,1,1,2C,0C,C02,3.3499040872746,0.512896444075458,0.497368594026013,0.49214725497989,0.5,0.486980729168381,0.505207708715407,0.5,0.497368594026013,0.497368594026013,0.5,0.510442823473781,0.486980729168381,0.5,0.5,0.497368594026013,0.523190178411296,0.506486446383095,0.493513553616905,0.510442823473781,0.497368594026013,0.159939646860223,0.58222589900844,0.489557176526219,0.0025764473578382,0.5,0.00526281194797318,0.712137944135594,9.97806276251053,2.56550595722035,0.5,84.8341887594785
CBC_1071,CBC_1071_MSI_AV_v3_Vset3_Aset2_2024-02-02_16h36.55.631.csv,2,43,3,2,b,1,0,3,aud,D,63,1,3D,2D,1,0,b,1.23367370000051,1,0,1,1,3D,2D,D32,2.67414864942653,0.512896444075458,0.497368594026013,0.49214725497989,0.5,0.486980729168381,0.505207708715407,0.5,0.497368594026013,0.497368594026013,0.5,0.513019270831619,0.486980729168381,0.5,0.5,0.497368594026013,0.523190178411296,0.512650709142216,0.487349290857784,0.523190178411296,0.497368594026013,0.381901896068686,0.657076241636222,0.476809821588704,0.00250936042596799,0.5,0.00526281194797318,0.712137944135594,9.97806276251053,2.56550595722035,0.5,84.8341887594785
CBC_1071,CBC_1071_MSI_AV_v3_Vset3_Aset2_2024-02-02_16h36.55.631.csv,2,44,1,0,b,1,0,1,aud,B,63,1,1B,0B,1,0,z,2.35427720000007,0,1,0,0,0B,1B,B10,2.97892515523761,0.512896444075458,0.497368594026013,0.49214725497989,0.5,0.486980729168381,0.505207708715407,0.5,0.497368594026013,0.497368594026013,0.5,0.513019270831619,0.486980729168381,0.5,0.5,0.497368594026013,0.525699538837264,0.490814759147011,0.509185240852989,0.486980729168381,0.505207708715407,0.107004471348976,0.384089920890914,-0.486980729168381,-0.00256288799990005,0.5,0.00526281194797318,0.712137944135594,9.97806276251053,2.56550595722035,0.5,84.8341887594785
