ID,session,trialNr,mod2Stim,visStimLeft,visStimRight,correctKey,frequency,rewardAccurate,probFB,stimPairLeft,stimPairRight,leftCorrect,rightCorrect,pCorrectLeft,pCorrectRight,triplet,rt,surprise,0A belief,1A belief,2A belief,3A belief,0B belief,1B belief,2B belief,3B belief,0C belief,1C belief,2C belief,3C belief,0D belief,1D belief,2D belief,3D belief,reactionTime,choice,choiceLeft,choiceRight,chosenPair,otherPair,beliefPair,beliefOtherPair,beliefPairNorm,beliefOtherPairNorm,choiceAccurate,reward,rewardPE,update2,sim_CBCsimpleRW_CBCdriftDiffusionLR_startBelief,sim_CBCsimpleRW_CBCdriftDiffusionLR_alpha1,sim_CBCsimpleRW_CBCdriftDiffusionLR_nonDecisionTime,sim_CBCsimpleRW_CBCdriftDiffusionLR_weight,sim_CBCsimpleRW_CBCdriftDiffusionLR_startingBoundary,sim_CBCsimpleRW_CBCdriftDiffusionLR_startingPoint,lik,corrLik,fitCBCsimpleRW_CBCdriftDiffusionLR_startBelief,fitCBCsimpleRW_CBCdriftDiffusionLR_alpha1,fitCBCsimpleRW_CBCdriftDiffusionLR_nonDecisionTime,fitCBCsimpleRW_CBCdriftDiffusionLR_weight,fitCBCsimpleRW_CBCdriftDiffusionLR_startingBoundary,fitCBCsimpleRW_CBCdriftDiffusionLR_startingPoint,fit_CBCsimpleRW_CBCdriftDiffusionLR_NLL
135,1,1,A,0,1,a,63,1,0.82,0A,1A,1,0,1,0,A01,0.416939475955539,2.77258872223978,0.5,0.5,0.5,0.5,0.5,0.5,0.5,0.5,0.5,0.5,0.5,0.5,0.5,0.5,0.5,0.5,0.859079841998349,0,0,1,1A,0A,0.5,0.5,0.5,0.5,0,0,-0.5,-0.394349692897581,0.5,0.765780955831248,0.821079841998349,8.60771676232797,1.24376349806603,0.5,0.590969537832251,0.500183585074039,0.5,0.788699385795163,0.810088917423659,7.98559534388815,1.18985409814865,0.5,-39.172026947653
135,1,2,D,2,3,l,63,1,0.82,2D,3D,0,1,0,1,D23,3.40820562764331,2.83321334405622,0.5,0.105650307102419,0.5,0.5,0.5,0.5,0.5,0.5,0.5,0.5,0.5,0.5,0.5,0.5,0.5,0.5,1.34107984199835,0,0,1,3D,2D,0.5,0.5,0.5,0.5,1,1,0.5,0.394349692897581,0.5,0.765780955831248,0.821079841998349,8.60771676232797,1.24376349806603,0.5,0.348773611693943,0.50022142966295,0.5,0.788699385795163,0.810088917423659,7.98559534388815,1.18985409814865,0.5,-39.172026947653
135,1,3,C,0,2,l,27,1,0.82,0C,2C,0,1,0,1,C02,2.13840647049962,2.89037175789616,0.5,0.105650307102419,0.5,0.5,0.5,0.5,0.5,0.5,0.5,0.5,0.5,0.5,0.5,0.5,0.5,0.894349692897581,1.14007984199835,0,0,1,2C,0C,0.5,0.5,0.5,0.5,1,1,0.5,0.394349692897581,0.5,0.765780955831248,0.821079841998349,8.60771676232797,1.24376349806603,0.5,0.702363571218203,0.500079524801693,0.5,0.788699385795163,0.810088917423659,7.98559534388815,1.18985409814865,0.5,-39.172026947653
135,1,4,A,0,1,a,63,1,0.82,0A,1A,1,0,1,0,A01,2.27671316289779,2.2512917986065,0.5,0.105650307102419,0.5,0.5,0.5,0.5,0.5,0.5,0.5,0.5,0.894349692897581,0.5,0.5,0.5,0.5,0.894349692897581,0.858079841998349,1,1,0,0A,1A,0.5,0.105650307102419,0.825558897826906,0.174441102173094,1,1,0.5,0.394349692897581,0.5,0.765780955831248,0.821079841998349,8.60771676232797,1.24376349806603,0.5,6.51705317347103,0.997951069522632,0.5,0.788699385795163,0.810088917423659,7.98559534388815,1.18985409814865,0.5,-39.172026947653
135,1,5,B,1,3,a,27,1,0.82,1B,3B,1,0,1,0,B13,0.374523380768753,2.99573227355399,0.894349692897581,0.105650307102419,0.5,0.5,0.5,0.5,0.5,0.5,0.5,0.5,0.894349692897581,0.5,0.5,0.5,0.5,0.894349692897581,1.05107984199835,1,1,0,1B,3B,0.5,0.5,0.5,0.5,1,1,0.5,0.394349692897581,0.5,0.765780955831248,0.821079841998349,8.60771676232797,1.24376349806603,0.5,0.954102028186235,0.499790036059002,0.5,0.788699385795163,0.810088917423659,7.98559534388815,1.18985409814865,0.5,-39.172026947653
135,1,6,C,3,2,l,63,1,0.82,3C,2C,0,1,0,1,C32,2.65220628637186,3.04452243772342,0.894349692897581,0.105650307102419,0.5,0.5,0.5,0.894349692897581,0.5,0.5,0.5,0.5,0.894349692897581,0.5,0.5,0.5,0.5,0.894349692897581,1.08107984199835,0,0,1,2C,3C,0.894349692897581,0.5,0.641409896995813,0.358590103004187,1,1,0.105650307102419,0.083326332320748,0.5,0.765780955831248,0.821079841998349,8.60771676232797,1.24376349806603,0.5,1.65435889297487,0.936329453640177,0.5,0.788699385795163,0.810088917423659,7.98559534388815,1.18985409814865,0.5,-39.172026947653
135,1,7,D,3,2,a,63,0,0.82,3D,2D,1,0,0,1,D32,0.584510910585136,3.09104245335832,0.894349692897581,0.105650307102419,0.5,0.5,0.5,0.894349692897581,0.5,0.5,0.5,0.5,0.977676025218329,0.5,0.5,0.5,0.5,0.894349692897581,1.01807984199835,1,1,0,3D,2D,0.894349692897581,0.5,0.641409896995813,0.358590103004187,1,0,-0.894349692897581,-0.705373053474415,0.5,0.765780955831248,0.821079841998349,8.60771676232797,1.24376349806603,0.5,2.40200219063831,0.936363166165914,0.5,0.788699385795163,0.810088917423659,7.98559534388815,1.18985409814865,0.5,-39.172026947653
135,1,8,B,0,1,l,63,1,0.82,0B,1B,0,1,0,1,B01,0.845260239594317,3.13549421592915,0.894349692897581,0.105650307102419,0.5,0.5,0.5,0.894349692897581,0.5,0.5,0.5,0.5,0.977676025218329,0.5,0.5,0.5,0.5,0.188976639423167,0.966079841998349,0,0,1,1B,0B,0.894349692897581,0.5,0.641409896995813,0.358590103004187,1,1,0.105650307102419,0.083326332320748,0.5,0.765780955831248,0.821079841998349,8.60771676232797,1.24376349806603,0.5,3.18917575202634,0.936303257113912,0.5,0.788699385795163,0.810088917423659,7.98559534388815,1.18985409814865,0.5,-39.172026947653
135,1,9,A,2,0,l,27,1,0.82,2A,0A,0,1,0,1,A20,2.36225744864328,3.17805383034795,0.894349692897581,0.105650307102419,0.5,0.5,0.5,0.977676025218329,0.5,0.5,0.5,0.5,0.977676025218329,0.5,0.5,0.5,0.5,0.188976639423167,1.00807984199835,0,0,1,0A,2A,0.894349692897581,0.5,0.641409896995813,0.358590103004187,1,1,0.105650307102419,0.083326332320748,0.5,0.765780955831248,0.821079841998349,8.60771676232797,1.24376349806603,0.5,2.54403876829803,0.936369541524718,0.5,0.788699385795163,0.810088917423659,7.98559534388815,1.18985409814865,0.5,-39.172026947653
135,1,10,D,3,0,a,9,1,0.82,3D,0D,1,0,1,0,D30,0.154792684991538,3.2188758248682,0.977676025218329,0.105650307102419,0.5,0.5,0.5,0.977676025218329,0.5,0.5,0.5,0.5,0.977676025218329,0.5,0.5,0.5,0.5,0.188976639423167,0.950079841998349,0,0,1,0D,3D,0.5,0.188976639423167,0.725714010301737,0.274285989698263,0,0,-0.5,-0.394349692897581,0.5,0.765780955831248,0.821079841998349,8.60771676232797,1.24376349806603,0.5,4.40121980807279,0.986488432882446,0.5,0.788699385795163,0.810088917423659,7.98559534388815,1.18985409814865,0.5,-39.172026947653
135,1,11,C,2,3,a,63,0,0.82,2C,3C,1,0,0,1,C23,1.28415795294288,3.25809653802148,0.977676025218329,0.105650307102419,0.5,0.5,0.5,0.977676025218329,0.5,0.5,0.5,0.5,0.977676025218329,0.5,0.105650307102419,0.5,0.5,0.188976639423167,0.935079841998349,1,1,0,2C,3C,0.977676025218329,0.5,0.661630836890567,0.338369163109433,1,0,-0.977676025218329,-0.771092480596352,0.5,0.765780955831248,0.821079841998349,8.60771676232797,1.24376349806603,0.5,3.99291259011625,0.955719425335545,0.5,0.788699385795163,0.810088917423659,7.98559534388815,1.18985409814865,0.5,-39.172026947653
135,1,12,B,0,1,l,63,1,0.82,0B,1B,0,1,0,1,B01,3.42261494855324,2.60268968544438,0.977676025218329,0.105650307102419,0.5,0.5,0.5,0.977676025218329,0.5,0.5,0.5,0.5,0.206583544621977,0.5,0.105650307102419,0.5,0.5,0.188976639423167,0.839079841998349,0,0,1,1B,0B,0.977676025218329,0.5,0.661630836890567,0.338369163109433,1,1,0.0223239747816708,0.0176069051988105,0.5,0.765780955831248,0.821079841998349,8.60771676232797,1.24376349806603,0.5,0.4528970596626,0.955715462077874,0.5,0.788699385795163,0.810088917423659,7.98559534388815,1.18985409814865,0.5,-39.172026947653
135,1,13,D,2,3,l,63,0,0.82,2D,3D,0,1,1,0,D23,3.09397119681357,2.63905732961526,0.977676025218329,0.105650307102419,0.5,0.5,0.5,0.99528293041714,0.5,0.5,0.5,0.5,0.206583544621977,0.5,0.105650307102419,0.5,0.5,0.188976639423167,0.952079841998349,1,1,0,2D,3D,0.5,0.188976639423167,0.725714010301737,0.274285989698263,0,1,0.5,0.394349692897581,0.5,0.765780955831248,0.821079841998349,8.60771676232797,1.24376349806603,0.5,4.32868617887745,0.986464808194861,0.5,0.788699385795163,0.810088917423659,7.98559534388815,1.18985409814865,0.5,-39.172026947653
135,1,14,C,2,3,a,63,1,0.82,2C,3C,1,0,1,0,C23,2.36548699491879,2.67414864942653,0.977676025218329,0.105650307102419,0.5,0.5,0.5,0.99528293041714,0.5,0.5,0.5,0.5,0.206583544621977,0.5,0.105650307102419,0.5,0.894349692897581,0.188976639423167,0.885079841998349,0,0,1,3C,2C,0.5,0.206583544621977,0.707630405216273,0.292369594783727,0,0,-0.5,-0.394349692897581,0.5,0.765780955831248,0.821079841998349,8.60771676232797,1.24376349806603,0.5,5.19656586047792,0.981030394297022,0.5,0.788699385795163,0.810088917423659,7.98559534388815,1.18985409814865,0.5,-39.172026947653
135,1,15,B,3,1,l,27,1,0.82,3B,1B,0,1,0,1,B31,2.98161928860021,3.40119738166216,0.977676025218329,0.105650307102419,0.5,0.5,0.5,0.99528293041714,0.5,0.5,0.5,0.5,0.206583544621977,0.105650307102419,0.105650307102419,0.5,0.894349692897581,0.188976639423167,1.24407984199835,0,0,1,1B,3B,0.99528293041714,0.5,0.665615122175898,0.334384877824102,1,1,0.00471706958286033,0.00372034988275499,0.5,0.765780955831248,0.821079841998349,8.60771676232797,1.24376349806603,0.5,0.516922537099275,0.958767493544578,0.5,0.788699385795163,0.810088917423659,7.98559534388815,1.18985409814865,0.5,-39.172026947653
135,1,16,A,0,3,a,9,1,0.82,0A,3A,1,0,1,0,A03,1.84713971843997,3.43398720448515,0.977676025218329,0.105650307102419,0.5,0.5,0.5,0.999003280299895,0.5,0.5,0.5,0.5,0.206583544621977,0.105650307102419,0.105650307102419,0.5,0.894349692897581,0.188976639423167,0.910079841998349,1,1,0,0A,3A,0.977676025218329,0.5,0.661630836890567,0.338369163109433,1,1,0.0223239747816708,0.0176069051988105,0.5,0.765780955831248,0.821079841998349,8.60771676232797,1.24376349806603,0.5,4.25466422825421,0.955629018028037,0.5,0.788699385795163,0.810088917423659,7.98559534388815,1.18985409814865,0.5,-39.172026947653
135,1,17,D,2,3,l,63,1,0.82,2D,3D,0,1,0,1,D23,1.47191723328254,2.36712361413162,0.99528293041714,0.105650307102419,0.5,0.5,0.5,0.999003280299895,0.5,0.5,0.5,0.5,0.206583544621977,0.105650307102419,0.105650307102419,0.5,0.894349692897581,0.188976639423167,0.961079841998349,1,1,0,2D,3D,0.894349692897581,0.188976639423167,0.825558897826906,0.174441102173094,0,0,-0.894349692897581,-0.705373053474415,0.5,0.765780955831248,0.821079841998349,8.60771676232797,1.24376349806603,0.5,3.58838045648287,0.997945718563023,0.5,0.788699385795163,0.810088917423659,7.98559534388815,1.18985409814865,0.5,-39.172026947653
135,1,18,C,0,2,l,27,1,0.82,0C,2C,0,1,0,1,C02,3.44454527274282,2.80336038090653,0.99528293041714,0.105650307102419,0.5,0.5,0.5,0.999003280299895,0.5,0.5,0.5,0.5,0.206583544621977,0.105650307102419,0.105650307102419,0.5,0.188976639423167,0.188976639423167,1.24307984199835,1,1,0,0C,2C,0.5,0.206583544621977,0.707630405216273,0.292369594783727,0,0,-0.5,-0.394349692897581,0.5,0.765780955831248,0.821079841998349,8.60771676232797,1.24376349806603,0.5,0.326305216710156,0.981025152559035,0.5,0.788699385795163,0.810088917423659,7.98559534388815,1.18985409814865,0.5,-39.172026947653
135,1,19,A,0,1,a,63,1,0.82,0A,1A,1,0,1,0,A01,0.16420076575791,2.42774823594805,0.99528293041714,0.105650307102419,0.5,0.5,0.5,0.999003280299895,0.5,0.5,0.105650307102419,0.5,0.206583544621977,0.105650307102419,0.105650307102419,0.5,0.188976639423167,0.188976639423167,0.869079841998349,1,1,0,0A,1A,0.99528293041714,0.105650307102419,0.904035682181371,0.0959643178186287,1,1,0.00471706958286033,0.00372034988275499,0.5,0.765780955831248,0.821079841998349,8.60771676232797,1.24376349806603,0.5,11.2269110931182,0.999537659632062,0.5,0.788699385795163,0.810088917423659,7.98559534388815,1.18985409814865,0.5,-39.172026947653
135,1,20,B,1,0,a,63,0,0.82,1B,0B,1,0,0,1,B10,0.993721266266061,3.55534806148941,0.999003280299895,0.105650307102419,0.5,0.5,0.5,0.999003280299895,0.5,0.5,0.105650307102419,0.5,0.206583544621977,0.105650307102419,0.105650307102419,0.5,0.188976639423167,0.188976639423167,1.00407984199835,1,1,0,1B,0B,0.999003280299895,0.5,0.666445026124313,0.333554973875687,1,0,-0.999003280299895,-0.78791327357988,0.5,0.765780955831248,0.821079841998349,8.60771676232797,1.24376349806603,0.5,2.72776481717518,0.9594399740973,0.5,0.788699385795163,0.810088917423659,7.98559534388815,1.18985409814865,0.5,-39.172026947653
135,1,21,D,3,1,a,27,1,0.82,3D,1D,1,0,1,0,D31,1.86594402166385,3.58351893845611,0.999003280299895,0.105650307102419,0.5,0.5,0.5,0.211090006720015,0.5,0.5,0.105650307102419,0.5,0.206583544621977,0.105650307102419,0.105650307102419,0.5,0.188976639423167,0.188976639423167,1.06107984199835,0,0,1,1D,3D,0.5,0.188976639423167,0.725714010301737,0.274285989698263,0,0,-0.5,-0.394349692897581,0.5,0.765780955831248,0.821079841998349,8.60771676232797,1.24376349806603,0.5,1.54250368136616,0.986463730786762,0.5,0.788699385795163,0.810088917423659,7.98559534388815,1.18985409814865,0.5,-39.172026947653
135,1,22,C,3,2,l,63,1,0.82,3C,2C,0,1,0,1,C32,0.142150786642158,2.91777073208428,0.999003280299895,0.105650307102419,0.5,0.5,0.5,0.211090006720015,0.5,0.5,0.105650307102419,0.5,0.206583544621977,0.105650307102419,0.105650307102419,0.105650307102419,0.188976639423167,0.188976639423167,1.51407984199835,0,0,1,2C,3C,0.206583544621977,0.105650307102419,0.661630836890567,0.338369163109433,1,1,0.793416455378023,0.625767071036422,0.5,0.765780955831248,0.821079841998349,8.60771676232797,1.24376349806603,0.5,0.0849580216942401,0.955659506904066,0.5,0.788699385795163,0.810088917423659,7.98559534388815,1.18985409814865,0.5,-39.172026947653
135,1,23,B,0,1,l,63,1,0.82,0B,1B,0,1,0,1,B01,0.255064912558222,2.53897387105828,0.999003280299895,0.105650307102419,0.5,0.5,0.5,0.211090006720015,0.5,0.5,0.105650307102419,0.5,0.832350615658399,0.105650307102419,0.105650307102419,0.105650307102419,0.188976639423167,0.188976639423167,0.865079841998349,1,1,0,0B,1B,0.5,0.211090006720015,0.703145867998213,0.296854132001787,0,0,-0.5,-0.394349692897581,0.5,0.765780955831248,0.821079841998349,8.60771676232797,1.24376349806603,0.5,3.80160051045611,0.979384818535661,0.5,0.788699385795163,0.810088917423659,7.98559534388815,1.18985409814865,0.5,-39.172026947653
135,1,24,A,0,2,a,27,1,0.82,0A,2A,1,0,1,0,A02,2.3485074680887,3.66356164612965,0.999003280299895,0.105650307102419,0.5,0.5,0.105650307102419,0.211090006720015,0.5,0.5,0.105650307102419,0.5,0.832350615658399,0.105650307102419,0.105650307102419,0.105650307102419,0.188976639423167,0.188976639423167,0.935079841998349,1,1,0,0A,2A,0.999003280299895,0.5,0.666445026124313,0.333554973875687,1,1,0.000996719700105397,0.000786112215283066,0.5,0.765780955831248,0.821079841998349,8.60771676232797,1.24376349806603,0.5,4.07603777382207,0.959441152871307,0.5,0.788699385795163,0.810088917423659,7.98559534388815,1.18985409814865,0.5,-39.172026947653
135,1,25,D,3,2,a,63,1,0.82,3D,2D,1,0,1,0,D32,2.83252963385467,2.99573227355399,0.999789392515178,0.105650307102419,0.5,0.5,0.105650307102419,0.211090006720015,0.5,0.5,0.105650307102419,0.5,0.832350615658399,0.105650307102419,0.105650307102419,0.105650307102419,0.188976639423167,0.188976639423167,1.14107984199835,1,1,0,3D,2D,0.188976639423167,0.188976639423167,0.5,0.5,1,1,0.811023360576833,0.639653626352477,0.5,0.765780955831248,0.821079841998349,8.60771676232797,1.24376349806603,0.5,0.699894452406795,0.500057361558012,0.5,0.788699385795163,0.810088917423659,7.98559534388815,1.18985409814865,0.5,-39.172026947653
135,1,26,C,0,2,l,27,1,0.82,0C,2C,0,1,0,1,C02,2.49000051981021,2.6149597780362,0.999789392515178,0.105650307102419,0.5,0.5,0.105650307102419,0.211090006720015,0.5,0.5,0.105650307102419,0.5,0.832350615658399,0.105650307102419,0.105650307102419,0.105650307102419,0.188976639423167,0.828630265775644,0.926079841998349,0,0,1,2C,0C,0.832350615658399,0.105650307102419,0.887366521142156,0.112633478857844,1,1,0.167649384341601,0.132224966459158,0.5,0.765780955831248,0.821079841998349,8.60771676232797,1.24376349806603,0.5,5.62978890495394,0.999365946685232,0.5,0.788699385795163,0.810088917423659,7.98559534388815,1.18985409814865,0.5,-39.172026947653
135,1,27,B,0,1,l,63,1,0.82,0B,1B,0,1,0,1,B01,2.88765159069551,2.35137525716348,0.999789392515178,0.105650307102419,0.5,0.5,0.105650307102419,0.211090006720015,0.5,0.5,0.105650307102419,0.5,0.964575582117557,0.105650307102419,0.105650307102419,0.105650307102419,0.188976639423167,0.828630265775644,1.10907984199835,0,0,1,1B,0B,0.211090006720015,0.105650307102419,0.666445026124313,0.333554973875687,1,1,0.788909993279985,0.62221282714759,0.5,0.765780955831248,0.821079841998349,8.60771676232797,1.24376349806603,0.5,1.32225383151449,0.959397586899289,0.5,0.788699385795163,0.810088917423659,7.98559534388815,1.18985409814865,0.5,-39.172026947653
135,1,28,A,1,0,l,63,1,0.82,1A,0A,0,1,0,1,A10,3.23587849697771,3.76120011569356,0.999789392515178,0.105650307102419,0.5,0.5,0.105650307102419,0.833302833867605,0.5,0.5,0.105650307102419,0.5,0.964575582117557,0.105650307102419,0.105650307102419,0.105650307102419,0.188976639423167,0.828630265775644,0.856079841998349,0,0,1,0A,1A,0.999789392515178,0.105650307102419,0.904426892630176,0.0955731073698242,1,1,0.000210607484822378,0.000166105993923274,0.5,0.765780955831248,0.821079841998349,8.60771676232797,1.24376349806603,0.5,9.17464444696629,0.999541308207221,0.5,0.788699385795163,0.810088917423659,7.98559534388815,1.18985409814865,0.5,-39.172026947653
135,1,29,C,2,3,a,63,0,0.82,2C,3C,1,0,0,1,C23,0.546261418141692,2.68557734525015,0.999955498509101,0.105650307102419,0.5,0.5,0.105650307102419,0.833302833867605,0.5,0.5,0.105650307102419,0.5,0.964575582117557,0.105650307102419,0.105650307102419,0.105650307102419,0.188976639423167,0.828630265775644,0.934079841998349,1,1,0,2C,3C,0.964575582117557,0.105650307102419,0.901282235678842,0.0987177643211575,1,0,-0.964575582117557,-0.760760169169128,0.5,0.765780955831248,0.821079841998349,8.60771676232797,1.24376349806603,0.5,4.62771248536484,0.999512815075975,0.5,0.788699385795163,0.810088917423659,7.98559534388815,1.18985409814865,0.5,-39.172026947653
135,1,30,D,1,3,l,27,1,0.82,1D,3D,0,1,0,1,D13,0.418206297382266,3.80666248977032,0.999955498509101,0.105650307102419,0.5,0.5,0.105650307102419,0.833302833867605,0.5,0.5,0.105650307102419,0.5,0.203815412948428,0.105650307102419,0.105650307102419,0.105650307102419,0.188976639423167,0.828630265775644,0.892079841998349,0,0,1,3D,1D,0.828630265775644,0.105650307102419,0.88691800924752,0.11308199075248,1,1,0.171369734224356,0.13515920412663,0.5,0.765780955831248,0.821079841998349,8.60771676232797,1.24376349806603,0.5,9.64076360884595,0.999359932663548,0.5,0.788699385795163,0.810088917423659,7.98559534388815,1.18985409814865,0.5,-39.172026947653
135,1,31,A,0,1,a,63,0,0.82,0A,1A,1,0,0,1,A01,2.4882393406683,2.4423470353692,0.999955498509101,0.105650307102419,0.5,0.5,0.105650307102419,0.833302833867605,0.5,0.5,0.105650307102419,0.5,0.203815412948428,0.105650307102419,0.105650307102419,0.105650307102419,0.188976639423167,0.963789469902274,0.873079841998349,1,1,0,0A,1A,0.999955498509101,0.105650307102419,0.90444125151461,0.0955587484853905,1,0,-0.999955498509101,-0.788664287496623,0.5,0.765780955831248,0.821079841998349,8.60771676232797,1.24376349806603,0.5,11.3387058283652,0.999540906066362,0.5,0.788699385795163,0.810088917423659,7.98559534388815,1.18985409814865,0.5,-39.172026947653
135,1,32,D,2,3,l,63,1,0.82,2D,3D,0,1,0,1,D23,3.48404304316455,2.46385324059017,0.211291211012477,0.105650307102419,0.5,0.5,0.105650307102419,0.833302833867605,0.5,0.5,0.105650307102419,0.5,0.203815412948428,0.105650307102419,0.105650307102419,0.105650307102419,0.188976639423167,0.963789469902274,0.964079841998349,0,0,1,3D,2D,0.963789469902274,0.188976639423167,0.836066798030912,0.163933201969088,1,1,0.0362105300977262,0.0285592228473939,0.5,0.765780955831248,0.821079841998349,8.60771676232797,1.24376349806603,0.5,3.29957328369232,0.998316593429569,0.5,0.788699385795163,0.810088917423659,7.98559534388815,1.18985409814865,0.5,-39.172026947653
135,1,33,B,1,2,a,9,1,0.82,1B,2B,1,0,1,0,B12,1.48561393358801,3.87120101090789,0.211291211012477,0.105650307102419,0.5,0.5,0.105650307102419,0.833302833867605,0.5,0.5,0.105650307102419,0.5,0.203815412948428,0.105650307102419,0.105650307102419,0.105650307102419,0.188976639423167,0.992348692749668,1.09107984199835,1,1,0,1B,2B,0.833302833867605,0.5,0.624991421829042,0.375008578170958,1,1,0.166697166132395,0.131473952542414,0.5,0.765780955831248,0.821079841998349,8.60771676232797,1.24376349806603,0.5,1.55924121991049,0.914930778322844,0.5,0.788699385795163,0.810088917423659,7.98559534388815,1.18985409814865,0.5,-39.172026947653
135,1,34,A,0,1,a,63,1,0.82,0A,1A,1,0,1,0,A01,0.366515462531576,2.28238238567653,0.211291211012477,0.105650307102419,0.5,0.5,0.105650307102419,0.964776786410019,0.5,0.5,0.105650307102419,0.5,0.203815412948428,0.105650307102419,0.105650307102419,0.105650307102419,0.188976639423167,0.992348692749668,0.925079841998349,1,1,0,0A,1A,0.211291211012477,0.105650307102419,0.666656777153068,0.333343222846932,1,1,0.788708788987523,0.622054137445705,0.5,0.765780955831248,0.821079841998349,8.60771676232797,1.24376349806603,0.5,4.23318443655278,0.959522093210485,0.5,0.788699385795163,0.810088917423659,7.98559534388815,1.18985409814865,0.5,-39.172026947653
135,1,35,C,1,2,l,9,1,0.82,1C,2C,0,1,0,1,C12,0.170203157344131,3.91202300542815,0.833345348458183,0.105650307102419,0.5,0.5,0.105650307102419,0.964776786410019,0.5,0.5,0.105650307102419,0.5,0.203815412948428,0.105650307102419,0.105650307102419,0.105650307102419,0.188976639423167,0.992348692749668,0.969079841998349,1,1,0,1C,2C,0.5,0.203815412948428,0.710413541393469,0.289586458606531,0,0,-0.5,-0.394349692897581,0.5,0.765780955831248,0.821079841998349,8.60771676232797,1.24376349806603,0.5,3.69926424908775,0.981986515785444,0.5,0.788699385795163,0.810088917423659,7.98559534388815,1.18985409814865,0.5,-39.172026947653
135,1,36,B,0,1,l,63,1,0.82,0B,1B,0,1,0,1,B01,0.502732357986782,2.32238772029023,0.833345348458183,0.105650307102419,0.5,0.5,0.105650307102419,0.964776786410019,0.5,0.5,0.105650307102419,0.105650307102419,0.203815412948428,0.105650307102419,0.105650307102419,0.105650307102419,0.188976639423167,0.992348692749668,0.868079841998349,0,0,1,1B,0B,0.964776786410019,0.105650307102419,0.901300791298412,0.0986992087015884,1,1,0.0352232135899809,0.0277805269241498,0.5,0.765780955831248,0.821079841998349,8.60771676232797,1.24376349806603,0.5,11.0546789401211,0.999511698964675,0.5,0.788699385795163,0.810088917423659,7.98559534388815,1.18985409814865,0.5,-39.172026947653
135,1,37,A,1,0,l,63,0,0.82,1A,0A,0,1,1,0,A10,0.480276052372993,3.25809653802148,0.833345348458183,0.105650307102419,0.5,0.5,0.105650307102419,0.992557313334169,0.5,0.5,0.105650307102419,0.105650307102419,0.203815412948428,0.105650307102419,0.105650307102419,0.105650307102419,0.188976639423167,0.992348692749668,0.900079841998349,0,0,1,0A,1A,0.833345348458183,0.105650307102419,0.887485840347852,0.112514159652148,1,0,-0.833345348458183,-0.657258964484225,0.5,0.765780955831248,0.821079841998349,8.60771676232797,1.24376349806603,0.5,8.72155347995952,0.999366645506911,0.5,0.788699385795163,0.810088917423659,7.98559534388815,1.18985409814865,0.5,-39.172026947653
135,1,38,B,1,0,a,63,1,0.82,1B,0B,1,0,1,0,B10,1.86461266411387,3.27714473299218,0.176086383973958,0.105650307102419,0.5,0.5,0.105650307102419,0.992557313334169,0.5,0.5,0.105650307102419,0.105650307102419,0.203815412948428,0.105650307102419,0.105650307102419,0.105650307102419,0.188976639423167,0.992348692749668,0.861079841998349,1,1,0,1B,0B,0.992557313334169,0.105650307102419,0.903797510474005,0.096202489525995,1,1,0.00744268666583114,0.00587004240200687,0.5,0.765780955831248,0.821079841998349,8.60771676232797,1.24376349806603,0.5,10.2971026786111,0.999535619704491,0.5,0.788699385795163,0.810088917423659,7.98559534388815,1.18985409814865,0.5,-39.172026947653
135,1,39,D,3,1,a,27,1,0.82,3D,1D,1,0,1,0,D31,0.857914542218985,3.29583686600433,0.176086383973958,0.105650307102419,0.5,0.5,0.105650307102419,0.998427355736176,0.5,0.5,0.105650307102419,0.105650307102419,0.203815412948428,0.105650307102419,0.105650307102419,0.105650307102419,0.188976639423167,0.992348692749668,1.00607984199835,1,1,0,3D,1D,0.992348692749668,0.105650307102419,0.903779231933134,0.0962207680668663,1,1,0.00765130725033236,0.00603458132886721,0.5,0.765780955831248,0.821079841998349,8.60771676232797,1.24376349806603,0.5,0.871143137100681,0.999535317595949,0.5,0.788699385795163,0.810088917423659,7.98559534388815,1.18985409814865,0.5,-39.172026947653
135,1,40,C,2,3,a,63,1,0.82,2C,3C,1,0,1,0,C23,2.23591456975277,2.62103882411258,0.176086383973958,0.105650307102419,0.5,0.5,0.105650307102419,0.998427355736176,0.5,0.5,0.105650307102419,0.105650307102419,0.203815412948428,0.105650307102419,0.105650307102419,0.105650307102419,0.188976639423167,0.998383274078535,0.894079841998349,1,1,0,2C,3C,0.203815412948428,0.105650307102419,0.658604167579337,0.341395832420663,1,1,0.796184587051572,0.62795029478715,0.5,0.765780955831248,0.821079841998349,8.60771676232797,1.24376349806603,0.5,4.08788483404555,0.953227613299457,0.5,0.788699385795163,0.810088917423659,7.98559534388815,1.18985409814865,0.5,-39.172026947653
135,1,41,A,2,0,l,27,1,0.82,2A,0A,0,1,0,1,A20,2.55224985104398,3.3322045101752,0.176086383973958,0.105650307102419,0.5,0.5,0.105650307102419,0.998427355736176,0.5,0.5,0.105650307102419,0.105650307102419,0.831765707735578,0.105650307102419,0.105650307102419,0.105650307102419,0.188976639423167,0.998383274078535,0.930079841998349,1,1,0,2A,0A,0.5,0.176086383973958,0.739550465520482,0.260449534479518,0,0,-0.5,-0.394349692897581,0.5,0.765780955831248,0.821079841998349,8.60771676232797,1.24376349806603,0.5,5.28694238703912,0.989559061484647,0.5,0.788699385795163,0.810088917423659,7.98559534388815,1.18985409814865,0.5,-39.172026947653
135,1,42,D,3,2,a,63,1,0.82,3D,2D,1,0,1,0,D32,0.163144256457572,2.94443897916644,0.176086383973958,0.105650307102419,0.105650307102419,0.5,0.105650307102419,0.998427355736176,0.5,0.5,0.105650307102419,0.105650307102419,0.831765707735578,0.105650307102419,0.105650307102419,0.105650307102419,0.188976639423167,0.998383274078535,0.854079841998349,1,1,0,3D,2D,0.998383274078535,0.188976639423167,0.840843001962357,0.159156998037643,1,1,0.00161672592146511,0.00127511074125865,0.5,0.765780955831248,0.821079841998349,8.60771676232797,1.24376349806603,0.5,6.12153829956021,0.998466682754018,0.5,0.788699385795163,0.810088917423659,7.98559534388815,1.18985409814865,0.5,-39.172026947653
135,1,43,B,3,1,l,27,0,0.82,3B,1B,0,1,1,0,B31,1.4516444762866,3.36729582998647,0.176086383973958,0.105650307102419,0.105650307102419,0.5,0.105650307102419,0.998427355736176,0.5,0.5,0.105650307102419,0.105650307102419,0.831765707735578,0.105650307102419,0.105650307102419,0.105650307102419,0.188976639423167,0.999658384819794,1.23807984199835,0,0,1,1B,3B,0.998427355736176,0.5,0.666316823377567,0.333683176622433,1,0,-0.998427355736176,-0.78745904223021,0.5,0.765780955831248,0.821079841998349,8.60771676232797,1.24376349806603,0.5,0.535572355582126,0.959325958603198,0.5,0.788699385795163,0.810088917423659,7.98559534388815,1.18985409814865,0.5,-39.172026947653
135,1,44,C,2,3,a,63,1,0.82,2C,3C,1,0,1,0,C23,1.97859262250144,2.46809953147162,0.176086383973958,0.105650307102419,0.105650307102419,0.5,0.105650307102419,0.210968313505966,0.5,0.5,0.105650307102419,0.105650307102419,0.831765707735578,0.105650307102419,0.105650307102419,0.105650307102419,0.188976639423167,0.999658384819794,1.00607984199835,1,1,0,2C,3C,0.831765707735578,0.105650307102419,0.887296242617876,0.112703757382124,1,1,0.168234292264422,0.132686282978633,0.5,0.765780955831248,0.821079841998349,8.60771676232797,1.24376349806603,0.5,1.03342384302228,0.999362679871243,0.5,0.788699385795163,0.810088917423659,7.98559534388815,1.18985409814865,0.5,-39.172026947653
