ID,session,trialNr,mod2Stim,visStimLeft,visStimRight,correctKey,frequency,rewardAccurate,probFB,stimPairLeft,stimPairRight,leftCorrect,rightCorrect,pCorrectLeft,pCorrectRight,triplet,rt,surprise,0A belief,1A belief,2A belief,3A belief,0B belief,1B belief,2B belief,3B belief,0C belief,1C belief,2C belief,3C belief,0D belief,1D belief,2D belief,3D belief,reactionTime,choice,choiceLeft,choiceRight,chosenPair,otherPair,beliefPair,beliefOtherPair,beliefPairNorm,beliefOtherPairNorm,choiceAccurate,reward,rewardPE,update2,sim_CBCsimpleRW_CBCdriftDiffusionLR_startBelief,sim_CBCsimpleRW_CBCdriftDiffusionLR_alpha1,sim_CBCsimpleRW_CBCdriftDiffusionLR_nonDecisionTime,sim_CBCsimpleRW_CBCdriftDiffusionLR_weight,sim_CBCsimpleRW_CBCdriftDiffusionLR_startingBoundary,sim_CBCsimpleRW_CBCdriftDiffusionLR_startingPoint,lik,corrLik,fitCBCsimpleRW_CBCdriftDiffusionLR_startBelief,fitCBCsimpleRW_CBCdriftDiffusionLR_alpha1,fitCBCsimpleRW_CBCdriftDiffusionLR_nonDecisionTime,fitCBCsimpleRW_CBCdriftDiffusionLR_weight,fitCBCsimpleRW_CBCdriftDiffusionLR_startingBoundary,fitCBCsimpleRW_CBCdriftDiffusionLR_startingPoint,fit_CBCsimpleRW_CBCdriftDiffusionLR_NLL
139,1,1,B,1,0,a,63,1,1,1B,0B,1,0,1,0,B10,2.10239004318447,2.77258872223978,0.5,0.5,0.5,0.5,0.5,0.5,0.5,0.5,0.5,0.5,0.5,0.5,0.5,0.5,0.5,0.5,5.24153693869078,0,0,1,0B,1B,0.5,0.5,0.5,0.5,0,0,-0.5,-0.137903574198479,0.5,0.387905150580936,1.01453693869078,11.1580276804276,2.69935371709444,0.5,0.0361963383489326,0.500790523253009,0.5,0.275807148396957,1.01063842152138,13.8308673421409,3.06185762061985,0.5,-5.66214960116879
139,1,2,A,1,0,l,63,1,1,1A,0A,0,1,0,1,A10,2.08150696004075,2.83321334405622,0.5,0.5,0.5,0.5,0.362096425801521,0.5,0.5,0.5,0.5,0.5,0.5,0.5,0.5,0.5,0.5,0.5,2.91253693869078,1,1,0,1A,0A,0.5,0.5,0.5,0.5,0,0,-0.5,-0.137903574198479,0.5,0.387905150580936,1.01453693869078,11.1580276804276,2.69935371709444,0.5,0.123091676052834,0.500304057261418,0.5,0.275807148396957,1.01063842152138,13.8308673421409,3.06185762061985,0.5,-5.66214960116879
139,1,3,D,3,2,a,63,1,1,3D,2D,1,0,1,0,D32,0.258845643442356,2.89037175789616,0.5,0.362096425801521,0.5,0.5,0.362096425801521,0.5,0.5,0.5,0.5,0.5,0.5,0.5,0.5,0.5,0.5,0.5,2.48853693869078,1,1,0,3D,2D,0.5,0.5,0.5,0.5,1,1,0.5,0.137903574198479,0.5,0.387905150580936,1.01453693869078,11.1580276804276,2.69935371709444,0.5,0.152803224137375,0.499305778205324,0.5,0.275807148396957,1.01063842152138,13.8308673421409,3.06185762061985,0.5,-5.66214960116879
139,1,4,B,1,2,a,9,1,1,1B,2B,1,0,1,0,B12,1.34836379058434,2.94443897916644,0.5,0.362096425801521,0.5,0.5,0.362096425801521,0.5,0.5,0.5,0.5,0.5,0.5,0.5,0.5,0.5,0.5,0.637903574198479,2.95653693869078,0,0,1,2B,1B,0.5,0.5,0.5,0.5,0,0,-0.5,-0.137903574198479,0.5,0.387905150580936,1.01453693869078,11.1580276804276,2.69935371709444,0.5,0.120119817151357,0.499580230426408,0.5,0.275807148396957,1.01063842152138,13.8308673421409,3.06185762061985,0.5,-5.66214960116879
139,1,5,A,2,0,l,27,1,1,2A,0A,0,1,0,1,A20,2.02897166552707,2.99573227355399,0.5,0.362096425801521,0.5,0.5,0.362096425801521,0.5,0.362096425801521,0.5,0.5,0.5,0.5,0.5,0.5,0.5,0.5,0.637903574198479,2.78653693869078,1,1,0,2A,0A,0.5,0.5,0.5,0.5,0,0,-0.5,-0.137903574198479,0.5,0.387905150580936,1.01453693869078,11.1580276804276,2.69935371709444,0.5,0.131216275795223,0.499450523783405,0.5,0.275807148396957,1.01063842152138,13.8308673421409,3.06185762061985,0.5,-5.66214960116879
139,1,6,C,3,2,l,63,1,1,3C,2C,0,1,0,1,C32,2.8601804654902,3.04452243772342,0.5,0.362096425801521,0.362096425801521,0.5,0.362096425801521,0.5,0.362096425801521,0.5,0.5,0.5,0.5,0.5,0.5,0.5,0.5,0.637903574198479,2.49553693869078,0,0,1,2C,3C,0.5,0.5,0.5,0.5,1,1,0.5,0.137903574198479,0.5,0.387905150580936,1.01453693869078,11.1580276804276,2.69935371709444,0.5,0.152221266339674,0.499153475097321,0.5,0.275807148396957,1.01063842152138,13.8308673421409,3.06185762061985,0.5,-5.66214960116879
139,1,7,D,3,1,a,27,1,1,3D,1D,1,0,1,0,D31,1.44438675637349,3.09104245335832,0.5,0.362096425801521,0.362096425801521,0.5,0.362096425801521,0.5,0.362096425801521,0.5,0.5,0.5,0.637903574198479,0.5,0.5,0.5,0.5,0.637903574198479,1.32953693869078,1,1,0,3D,1D,0.637903574198479,0.5,0.560595456998901,0.439404543001099,1,1,0.362096425801521,0.099868782645048,0.5,0.387905150580936,1.01453693869078,11.1580276804276,2.69935371709444,0.5,0.714507433160878,0.994116856634444,0.5,0.275807148396957,1.01063842152138,13.8308673421409,3.06185762061985,0.5,-5.66214960116879
139,1,8,A,0,1,a,63,1,1,0A,1A,1,0,1,0,A01,0.0635476392180117,3.13549421592915,0.5,0.362096425801521,0.362096425801521,0.5,0.362096425801521,0.5,0.362096425801521,0.5,0.5,0.5,0.637903574198479,0.5,0.5,0.5,0.5,0.737772356843526,1.26653693869078,1,1,0,0A,1A,0.5,0.362096425801521,0.579981525309228,0.420018474690772,1,1,0.5,0.137903574198479,0.5,0.387905150580936,1.01453693869078,11.1580276804276,2.69935371709444,0.5,0.766511134766595,0.99886324881789,0.5,0.275807148396957,1.01063842152138,13.8308673421409,3.06185762061985,0.5,-5.66214960116879
139,1,9,C,0,2,l,27,1,1,0C,2C,0,1,0,1,C02,1.33954387759141,3.17805383034795,0.637903574198479,0.362096425801521,0.362096425801521,0.5,0.362096425801521,0.5,0.362096425801521,0.5,0.5,0.5,0.637903574198479,0.5,0.5,0.5,0.5,0.737772356843526,2.97653693869078,0,0,1,2C,0C,0.637903574198479,0.5,0.560595456998901,0.439404543001099,1,1,0.362096425801521,0.099868782645048,0.5,0.387905150580936,1.01453693869078,11.1580276804276,2.69935371709444,0.5,0.0980237793439101,0.994111921537441,0.5,0.275807148396957,1.01063842152138,13.8308673421409,3.06185762061985,0.5,-5.66214960116879
139,1,10,D,3,2,a,63,1,1,3D,2D,1,0,1,0,D32,2.04499261203504,2.52572864430826,0.637903574198479,0.362096425801521,0.362096425801521,0.5,0.362096425801521,0.5,0.362096425801521,0.5,0.5,0.5,0.737772356843526,0.5,0.5,0.5,0.5,0.737772356843526,1.64653693869078,1,1,0,3D,2D,0.737772356843526,0.5,0.596048500166006,0.403951499833994,1,1,0.262227643156474,0.0723242584898418,0.5,0.387905150580936,1.01453693869078,11.1580276804276,2.69935371709444,0.5,1.18079194491316,0.999707273664576,0.5,0.275807148396957,1.01063842152138,13.8308673421409,3.06185762061985,0.5,-5.66214960116879
139,1,11,B,0,1,l,63,1,1,0B,1B,0,1,0,1,B01,2.72858141182889,3.25809653802148,0.637903574198479,0.362096425801521,0.362096425801521,0.5,0.362096425801521,0.5,0.362096425801521,0.5,0.5,0.5,0.737772356843526,0.5,0.5,0.5,0.5,0.810096615333368,1.87453693869078,0,0,1,1B,0B,0.5,0.362096425801521,0.579981525309228,0.420018474690772,1,1,0.5,0.137903574198479,0.5,0.387905150580936,1.01453693869078,11.1580276804276,2.69935371709444,0.5,0.699147903842278,0.9988627158788,0.5,0.275807148396957,1.01063842152138,13.8308673421409,3.06185762061985,0.5,-5.66214960116879
139,1,12,A,1,0,l,63,1,1,1A,0A,0,1,0,1,A10,3.17786609489327,2.60268968544438,0.637903574198479,0.362096425801521,0.362096425801521,0.5,0.362096425801521,0.637903574198479,0.362096425801521,0.5,0.5,0.5,0.737772356843526,0.5,0.5,0.5,0.5,0.810096615333368,1.17953693869078,0,0,1,0A,1A,0.637903574198479,0.362096425801521,0.637903574198479,0.362096425801521,1,1,0.362096425801521,0.099868782645048,0.5,0.387905150580936,1.01453693869078,11.1580276804276,2.69935371709444,0.5,0.85847990004251,0.999991538391944,0.5,0.275807148396957,1.01063842152138,13.8308673421409,3.06185762061985,0.5,-5.66214960116879
139,1,13,D,3,2,a,63,1,1,3D,2D,1,0,1,0,D32,0.54138842988973,2.23359222150709,0.737772356843526,0.362096425801521,0.362096425801521,0.5,0.362096425801521,0.637903574198479,0.362096425801521,0.5,0.5,0.5,0.737772356843526,0.5,0.5,0.5,0.5,0.810096615333368,2.11453693869078,1,1,0,3D,2D,0.810096615333368,0.5,0.618348758291563,0.381651241708437,1,1,0.189903384666632,0.0523767109958341,0.5,0.387905150580936,1.01453693869078,11.1580276804276,2.69935371709444,0.5,0.0740939825878382,0.999955359702398,0.5,0.275807148396957,1.01063842152138,13.8308673421409,3.06185762061985,0.5,-5.66214960116879
139,1,14,C,0,2,l,27,1,1,0C,2C,0,1,0,1,C02,2.16331979078367,2.67414864942653,0.737772356843526,0.362096425801521,0.362096425801521,0.5,0.362096425801521,0.637903574198479,0.362096425801521,0.5,0.5,0.5,0.737772356843526,0.5,0.5,0.5,0.5,0.862473326329202,2.00953693869078,0,0,1,2C,0C,0.737772356843526,0.5,0.596048500166006,0.403951499833994,1,1,0.262227643156474,0.0723242584898418,0.5,0.387905150580936,1.01453693869078,11.1580276804276,2.69935371709444,0.5,0.324882468690549,0.999708052342577,0.5,0.275807148396957,1.01063842152138,13.8308673421409,3.06185762061985,0.5,-5.66214960116879
139,1,15,A,1,0,l,63,1,1,1A,0A,0,1,0,1,A10,1.78541026931685,2.30258509299405,0.737772356843526,0.362096425801521,0.362096425801521,0.5,0.362096425801521,0.637903574198479,0.362096425801521,0.5,0.5,0.5,0.810096615333368,0.5,0.5,0.5,0.5,0.862473326329202,1.27653693869078,0,0,1,0A,1A,0.737772356843526,0.362096425801521,0.67078215918564,0.32921784081436,1,1,0.262227643156474,0.0723242584898418,0.5,0.387905150580936,1.01453693869078,11.1580276804276,2.69935371709444,0.5,3.86309734418694,0.999999474928111,0.5,0.275807148396957,1.01063842152138,13.8308673421409,3.06185762061985,0.5,-5.66214960116879
139,1,16,B,3,1,l,27,1,1,3B,1B,0,1,0,1,B31,0.913785852629913,3.43398720448515,0.810096615333368,0.362096425801521,0.362096425801521,0.5,0.362096425801521,0.637903574198479,0.362096425801521,0.5,0.5,0.5,0.810096615333368,0.5,0.5,0.5,0.5,0.862473326329202,2.35353693869078,0,0,1,1B,3B,0.637903574198479,0.5,0.560595456998901,0.439404543001099,1,1,0.362096425801521,0.099868782645048,0.5,0.387905150580936,1.01453693869078,11.1580276804276,2.69935371709444,0.5,0.322789145866822,0.99412213497275,0.5,0.275807148396957,1.01063842152138,13.8308673421409,3.06185762061985,0.5,-5.66214960116879
139,1,17,C,2,3,a,63,1,1,2C,3C,1,0,1,0,C23,1.03000884499326,3.46573590279973,0.810096615333368,0.362096425801521,0.362096425801521,0.5,0.362096425801521,0.737772356843526,0.362096425801521,0.5,0.5,0.5,0.810096615333368,0.5,0.5,0.5,0.5,0.862473326329202,1.29553693869078,1,1,0,2C,3C,0.810096615333368,0.5,0.618348758291563,0.381651241708437,1,1,0.189903384666632,0.0523767109958341,0.5,0.387905150580936,1.01453693869078,11.1580276804276,2.69935371709444,0.5,2.14493055364487,0.999955859302664,0.5,0.275807148396957,1.01063842152138,13.8308673421409,3.06185762061985,0.5,-5.66214960116879
139,1,18,D,3,2,a,63,1,1,3D,2D,1,0,1,0,D32,2.02746678151325,2.11021320034659,0.810096615333368,0.362096425801521,0.362096425801521,0.5,0.362096425801521,0.737772356843526,0.362096425801521,0.5,0.5,0.5,0.862473326329202,0.5,0.5,0.5,0.5,0.862473326329202,1.43753693869078,1,1,0,3D,2D,0.862473326329202,0.5,0.633020338572713,0.366979661427287,1,1,0.137526673670798,0.0379308396936616,0.5,0.387905150580936,1.01453693869078,11.1580276804276,2.69935371709444,0.5,2.18555435813831,0.99998722085603,0.5,0.275807148396957,1.01063842152138,13.8308673421409,3.06185762061985,0.5,-5.66214960116879
139,1,19,B,0,1,l,63,1,1,0B,1B,0,1,0,1,B01,3.01740539224421,2.83321334405622,0.810096615333368,0.362096425801521,0.362096425801521,0.5,0.362096425801521,0.737772356843526,0.362096425801521,0.5,0.5,0.5,0.862473326329202,0.5,0.5,0.5,0.5,0.900404166022864,1.16753693869078,0,0,1,1B,0B,0.737772356843526,0.362096425801521,0.67078215918564,0.32921784081436,1,1,0.262227643156474,0.0723242584898418,0.5,0.387905150580936,1.01453693869078,11.1580276804276,2.69935371709444,0.5,1.347105220916,0.999999477977053,0.5,0.275807148396957,1.01063842152138,13.8308673421409,3.06185762061985,0.5,-5.66214960116879
139,1,20,A,0,2,a,27,1,1,0A,2A,1,0,1,0,A02,1.3437279467258,3.55534806148941,0.810096615333368,0.362096425801521,0.362096425801521,0.5,0.362096425801521,0.810096615333368,0.362096425801521,0.5,0.5,0.5,0.862473326329202,0.5,0.5,0.5,0.5,0.900404166022864,1.19753693869078,1,1,0,0A,2A,0.810096615333368,0.362096425801521,0.691094885317739,0.308905114682261,1,1,0.189903384666632,0.0523767109958341,0.5,0.387905150580936,1.01453693869078,11.1580276804276,2.69935371709444,0.5,3.43343313993696,0.999999906251069,0.5,0.275807148396957,1.01063842152138,13.8308673421409,3.06185762061985,0.5,-5.66214960116879
139,1,21,D,3,0,a,9,1,1,3D,0D,1,0,1,0,D30,0.634482034671688,3.58351893845611,0.862473326329202,0.362096425801521,0.362096425801521,0.5,0.362096425801521,0.810096615333368,0.362096425801521,0.5,0.5,0.5,0.862473326329202,0.5,0.5,0.5,0.5,0.900404166022864,1.26653693869078,1,1,0,3D,0D,0.900404166022864,0.5,0.642960216678021,0.357039783321979,1,1,0.099595833977136,0.0274692429614506,0.5,0.387905150580936,1.01453693869078,11.1580276804276,2.69935371709444,0.5,2.78732098376005,0.99999448361063,0.5,0.275807148396957,1.01063842152138,13.8308673421409,3.06185762061985,0.5,-5.66214960116879
139,1,22,C,3,2,l,63,1,1,3C,2C,0,1,0,1,C32,0.869400645308698,2.91777073208428,0.862473326329202,0.362096425801521,0.362096425801521,0.5,0.362096425801521,0.810096615333368,0.362096425801521,0.5,0.5,0.5,0.862473326329202,0.5,0.5,0.5,0.5,0.927873408984315,1.60953693869078,0,0,1,2C,3C,0.862473326329202,0.5,0.633020338572713,0.366979661427287,1,1,0.137526673670798,0.0379308396936616,0.5,0.387905150580936,1.01453693869078,11.1580276804276,2.69935371709444,0.5,0.903413521932657,0.999987182401843,0.5,0.275807148396957,1.01063842152138,13.8308673421409,3.06185762061985,0.5,-5.66214960116879
139,1,23,B,1,3,a,27,1,1,1B,3B,1,0,1,0,B13,0.0278220966399644,3.63758615972639,0.862473326329202,0.362096425801521,0.362096425801521,0.5,0.362096425801521,0.810096615333368,0.362096425801521,0.5,0.5,0.5,0.900404166022864,0.5,0.5,0.5,0.5,0.927873408984315,1.59453693869078,1,1,0,1B,3B,0.810096615333368,0.5,0.618348758291563,0.381651241708437,1,1,0.189903384666632,0.0523767109958341,0.5,0.387905150580936,1.01453693869078,11.1580276804276,2.69935371709444,0.5,1.20903711009086,0.999955705417236,0.5,0.275807148396957,1.01063842152138,13.8308673421409,3.06185762061985,0.5,-5.66214960116879
139,1,24,C,2,3,a,63,1,1,2C,3C,1,0,1,0,C23,0.237344546864393,2.9704144655697,0.862473326329202,0.362096425801521,0.362096425801521,0.5,0.362096425801521,0.862473326329202,0.362096425801521,0.5,0.5,0.5,0.900404166022864,0.5,0.5,0.5,0.5,0.927873408984315,1.47753693869078,1,1,0,2C,3C,0.900404166022864,0.5,0.642960216678021,0.357039783321979,1,1,0.099595833977136,0.0274692429614506,0.5,0.387905150580936,1.01453693869078,11.1580276804276,2.69935371709444,0.5,1.72004616687358,0.999994512432288,0.5,0.275807148396957,1.01063842152138,13.8308673421409,3.06185762061985,0.5,-5.66214960116879
139,1,25,D,3,2,a,63,1,1,3D,2D,1,0,1,0,D32,2.96013373486627,2.07944154167984,0.862473326329202,0.362096425801521,0.362096425801521,0.5,0.362096425801521,0.862473326329202,0.362096425801521,0.5,0.5,0.5,0.927873408984315,0.5,0.5,0.5,0.5,0.927873408984315,1.31753693869078,1,1,0,3D,2D,0.927873408984315,0.5,0.649828901600133,0.350171098399867,1,1,0.0721265910156853,0.0198930293916297,0.5,0.387905150580936,1.01453693869078,11.1580276804276,2.69935371709444,0.5,3.22078251136214,0.999996921800496,0.5,0.275807148396957,1.01063842152138,13.8308673421409,3.06185762061985,0.5,-5.66214960116879
139,1,26,B,0,1,l,63,1,1,0B,1B,0,1,0,1,B01,0.403024672419624,2.6149597780362,0.862473326329202,0.362096425801521,0.362096425801521,0.5,0.362096425801521,0.862473326329202,0.362096425801521,0.5,0.5,0.5,0.927873408984315,0.5,0.5,0.5,0.5,0.947766438375944,1.28053693869078,0,0,1,1B,0B,0.862473326329202,0.362096425801521,0.704307226949317,0.295692773050683,1,1,0.137526673670798,0.0379308396936616,0.5,0.387905150580936,1.01453693869078,11.1580276804276,2.69935371709444,0.5,4.35550734226228,0.999999969442026,0.5,0.275807148396957,1.01063842152138,13.8308673421409,3.06185762061985,0.5,-5.66214960116879
139,1,27,A,3,0,l,9,1,1,3A,0A,0,1,0,1,A30,1.84911074930509,3.73766961828337,0.862473326329202,0.362096425801521,0.362096425801521,0.5,0.362096425801521,0.900404166022864,0.362096425801521,0.5,0.5,0.5,0.927873408984315,0.5,0.5,0.5,0.5,0.947766438375944,1.37953693869078,0,0,1,0A,3A,0.862473326329202,0.5,0.633020338572713,0.366979661427287,1,1,0.137526673670798,0.0379308396936616,0.5,0.387905150580936,1.01453693869078,11.1580276804276,2.69935371709444,0.5,2.61664636118641,0.999987186766041,0.5,0.275807148396957,1.01063842152138,13.8308673421409,3.06185762061985,0.5,-5.66214960116879
139,1,28,D,3,2,a,63,1,1,3D,2D,1,0,1,0,D32,1.30229520977789,1.96944064646551,0.900404166022864,0.362096425801521,0.362096425801521,0.5,0.362096425801521,0.900404166022864,0.362096425801521,0.5,0.5,0.5,0.927873408984315,0.5,0.5,0.5,0.5,0.947766438375944,1.32153693869078,1,1,0,3D,2D,0.947766438375944,0.5,0.654640426282513,0.345359573717487,1,1,0.0522335616240556,0.0144063896821475,0.5,0.387905150580936,1.01453693869078,11.1580276804276,2.69935371709444,0.5,3.30136665268734,0.999997948231219,0.5,0.275807148396957,1.01063842152138,13.8308673421409,3.06185762061985,0.5,-5.66214960116879
139,1,29,C,0,2,l,27,1,1,0C,2C,0,1,0,1,C02,1.96220311593663,2.68557734525015,0.900404166022864,0.362096425801521,0.362096425801521,0.5,0.362096425801521,0.900404166022864,0.362096425801521,0.5,0.5,0.5,0.927873408984315,0.5,0.5,0.5,0.5,0.962172828058092,1.48053693869078,0,0,1,2C,0C,0.927873408984315,0.5,0.649828901600133,0.350171098399867,1,1,0.0721265910156853,0.0198930293916297,0.5,0.387905150580936,1.01453693869078,11.1580276804276,2.69935371709444,0.5,1.57674480207063,0.999996913017947,0.5,0.275807148396957,1.01063842152138,13.8308673421409,3.06185762061985,0.5,-5.66214960116879
139,1,30,A,0,1,a,63,1,1,0A,1A,1,0,1,0,A01,0.236543698454991,3.11351530921037,0.900404166022864,0.362096425801521,0.362096425801521,0.5,0.362096425801521,0.900404166022864,0.362096425801521,0.5,0.5,0.5,0.947766438375944,0.5,0.5,0.5,0.5,0.962172828058092,1.45453693869078,1,1,0,0A,1A,0.900404166022864,0.362096425801521,0.71319108430811,0.28680891569189,1,1,0.099595833977136,0.0274692429614506,0.5,0.387905150580936,1.01453693869078,11.1580276804276,2.69935371709444,0.5,0.547189394503575,0.999999985509482,0.5,0.275807148396957,1.01063842152138,13.8308673421409,3.06185762061985,0.5,-5.66214960116879
139,1,31,B,0,1,l,63,1,1,0B,1B,0,1,0,1,B01,1.86139869251287,2.4423470353692,0.927873408984315,0.362096425801521,0.362096425801521,0.5,0.362096425801521,0.900404166022864,0.362096425801521,0.5,0.5,0.5,0.947766438375944,0.5,0.5,0.5,0.5,0.962172828058092,1.32153693869078,0,0,1,1B,0B,0.900404166022864,0.362096425801521,0.71319108430811,0.28680891569189,1,1,0.099595833977136,0.0274692429614506,0.5,0.387905150580936,1.01453693869078,11.1580276804276,2.69935371709444,0.5,3.04170809584731,0.999999985573494,0.5,0.275807148396957,1.01063842152138,13.8308673421409,3.06185762061985,0.5,-5.66214960116879
139,1,32,D,1,3,l,27,1,1,1D,3D,0,1,0,1,D13,0.768771899333679,3.85014760171006,0.927873408984315,0.362096425801521,0.362096425801521,0.5,0.362096425801521,0.927873408984315,0.362096425801521,0.5,0.5,0.5,0.947766438375944,0.5,0.5,0.5,0.5,0.962172828058092,1.28853693869078,0,0,1,3D,1D,0.962172828058092,0.5,0.658043159874576,0.341956840125424,1,1,0.0378271719419081,0.0104330044252191,0.5,0.387905150580936,1.01453693869078,11.1580276804276,2.69935371709444,0.5,3.48287145409465,0.999998460977817,0.5,0.275807148396957,1.01063842152138,13.8308673421409,3.06185762061985,0.5,-5.66214960116879
139,1,33,C,2,3,a,63,1,1,2C,3C,1,0,1,0,C23,2.04513077257787,2.77258872223978,0.927873408984315,0.362096425801521,0.362096425801521,0.5,0.362096425801521,0.927873408984315,0.362096425801521,0.5,0.5,0.5,0.947766438375944,0.5,0.5,0.5,0.5,0.972605832483311,1.38253693869078,1,1,0,2C,3C,0.947766438375944,0.5,0.654640426282513,0.345359573717487,1,1,0.0522335616240556,0.0144063896821475,0.5,0.387905150580936,1.01453693869078,11.1580276804276,2.69935371709444,0.5,2.68022954472755,0.999997940001054,0.5,0.275807148396957,1.01063842152138,13.8308673421409,3.06185762061985,0.5,-5.66214960116879
139,1,34,B,0,1,l,63,1,1,0B,1B,0,1,0,1,B01,2.23994761926845,2.28238238567653,0.927873408984315,0.362096425801521,0.362096425801521,0.5,0.362096425801521,0.927873408984315,0.362096425801521,0.5,0.5,0.5,0.962172828058092,0.5,0.5,0.5,0.5,0.972605832483311,1.31053693869078,0,0,1,1B,0B,0.927873408984315,0.362096425801521,0.719298532386505,0.280701467613495,1,1,0.0721265910156853,0.0198930293916297,0.5,0.387905150580936,1.01453693869078,11.1580276804276,2.69935371709444,0.5,3.23830167124363,0.999999991398515,0.5,0.275807148396957,1.01063842152138,13.8308673421409,3.06185762061985,0.5,-5.66214960116879
139,1,35,A,1,0,l,63,1,1,1A,0A,0,1,0,1,A10,0.59412814574824,2.52572864430826,0.927873408984315,0.362096425801521,0.362096425801521,0.5,0.362096425801521,0.947766438375944,0.362096425801521,0.5,0.5,0.5,0.962172828058092,0.5,0.5,0.5,0.5,0.972605832483311,1.20253693869078,0,0,1,0A,1A,0.927873408984315,0.362096425801521,0.719298532386505,0.280701467613495,1,1,0.0721265910156853,0.0198930293916297,0.5,0.387905150580936,1.01453693869078,11.1580276804276,2.69935371709444,0.5,5.11980453982142,0.99999999146424,0.5,0.275807148396957,1.01063842152138,13.8308673421409,3.06185762061985,0.5,-5.66214960116879
139,1,36,C,2,1,a,9,1,1,2C,1C,1,0,1,0,C21,1.506250814759,3.93182563272433,0.947766438375944,0.362096425801521,0.362096425801521,0.5,0.362096425801521,0.947766438375944,0.362096425801521,0.5,0.5,0.5,0.962172828058092,0.5,0.5,0.5,0.5,0.972605832483311,1.32953693869078,1,1,0,2C,1C,0.962172828058092,0.5,0.658043159874576,0.341956840125424,1,1,0.0378271719419081,0.0104330044252191,0.5,0.387905150580936,1.01453693869078,11.1580276804276,2.69935371709444,0.5,3.29329498797953,0.999998461767174,0.5,0.275807148396957,1.01063842152138,13.8308673421409,3.06185762061985,0.5,-5.66214960116879
139,1,37,A,0,1,a,63,1,1,0A,1A,1,0,1,0,A01,3.4506912722845,2.85263142991332,0.947766438375944,0.362096425801521,0.362096425801521,0.5,0.362096425801521,0.947766438375944,0.362096425801521,0.5,0.5,0.5,0.972605832483311,0.5,0.5,0.5,0.5,0.972605832483311,1.21253693869078,1,1,0,0A,1A,0.947766438375944,0.362096425801521,0.723561576021241,0.276438423978759,1,1,0.0522335616240556,0.0144063896821475,0.5,0.387905150580936,1.01453693869078,11.1580276804276,2.69935371709444,0.5,5.52547064778167,0.999999994013595,0.5,0.275807148396957,1.01063842152138,13.8308673421409,3.06185762061985,0.5,-5.66214960116879
139,1,38,D,1,3,l,27,1,1,1D,3D,0,1,0,1,D13,1.43631734638692,3.27714473299218,0.962172828058092,0.362096425801521,0.362096425801521,0.5,0.362096425801521,0.947766438375944,0.362096425801521,0.5,0.5,0.5,0.972605832483311,0.5,0.5,0.5,0.5,0.972605832483311,1.32353693869078,0,0,1,3D,1D,0.972605832483311,0.5,0.660465829368046,0.339534170631955,1,1,0.027394167516689,0.00755550722548654,0.5,0.387905150580936,1.01453693869078,11.1580276804276,2.69935371709444,0.5,3.37853724593319,0.999998746351817,0.5,0.275807148396957,1.01063842152138,13.8308673421409,3.06185762061985,0.5,-5.66214960116879
139,1,39,B,1,0,a,63,1,1,1B,0B,1,0,1,0,B10,3.24624449384683,3.29583686600433,0.962172828058092,0.362096425801521,0.362096425801521,0.5,0.362096425801521,0.947766438375944,0.362096425801521,0.5,0.5,0.5,0.972605832483311,0.5,0.5,0.5,0.5,0.980161339708798,1.30253693869078,1,1,0,1B,0B,0.947766438375944,0.362096425801521,0.723561576021241,0.276438423978759,1,1,0.0522335616240556,0.0144063896821475,0.5,0.387905150580936,1.01453693869078,11.1580276804276,2.69935371709444,0.5,3.40604752180032,0.999999993994424,0.5,0.275807148396957,1.01063842152138,13.8308673421409,3.06185762061985,0.5,-5.66214960116879
139,1,40,C,3,2,l,63,1,1,3C,2C,0,1,0,1,C32,0.890505489360519,2.90872089656436,0.962172828058092,0.362096425801521,0.362096425801521,0.5,0.362096425801521,0.962172828058092,0.362096425801521,0.5,0.5,0.5,0.972605832483311,0.5,0.5,0.5,0.5,0.980161339708798,1.24453693869078,0,0,1,2C,3C,0.972605832483311,0.5,0.660465829368046,0.339534170631955,1,1,0.027394167516689,0.00755550722548654,0.5,0.387905150580936,1.01453693869078,11.1580276804276,2.69935371709444,0.5,3.21471433461322,0.999998751594425,0.5,0.275807148396957,1.01063842152138,13.8308673421409,3.06185762061985,0.5,-5.66214960116879
139,1,41,A,0,2,a,27,1,1,0A,2A,1,0,1,0,A02,1.40900612271014,3.3322045101752,0.962172828058092,0.362096425801521,0.362096425801521,0.5,0.362096425801521,0.962172828058092,0.362096425801521,0.5,0.5,0.5,0.980161339708798,0.5,0.5,0.5,0.5,0.980161339708798,1.21253693869078,1,1,0,0A,2A,0.962172828058092,0.362096425801521,0.7265688795944,0.2734311204056,1,1,0.0378271719419081,0.0104330044252191,0.5,0.387905150580936,1.01453693869078,11.1580276804276,2.69935371709444,0.5,5.65434539210088,0.99999999537353,0.5,0.275807148396957,1.01063842152138,13.8308673421409,3.06185762061985,0.5,-5.66214960116879
139,1,42,D,2,3,l,63,1,1,2D,3D,0,1,0,1,D23,2.0095219444568,4.04305126783455,0.972605832483311,0.362096425801521,0.362096425801521,0.5,0.362096425801521,0.962172828058092,0.362096425801521,0.5,0.5,0.5,0.980161339708798,0.5,0.5,0.5,0.5,0.980161339708798,1.18453693869078,0,0,1,3D,2D,0.980161339708798,0.5,0.662198986970996,0.337801013029004,1,1,0.0198386602912024,0.00547164432293248,0.5,0.387905150580936,1.01453693869078,11.1580276804276,2.69935371709444,0.5,1.6638850831426,0.999998912958481,0.5,0.275807148396957,1.01063842152138,13.8308673421409,3.06185762061985,0.5,-5.66214960116879
139,1,43,B,1,3,a,27,1,1,1B,3B,1,0,1,0,B13,1.103565864744,3.36729582998647,0.972605832483311,0.362096425801521,0.362096425801521,0.5,0.362096425801521,0.962172828058092,0.362096425801521,0.5,0.5,0.5,0.980161339708798,0.5,0.5,0.5,0.5,0.98563298403173,1.34853693869078,1,1,0,1B,3B,0.962172828058092,0.5,0.658043159874576,0.341956840125424,1,1,0.0378271719419081,0.0104330044252191,0.5,0.387905150580936,1.01453693869078,11.1580276804276,2.69935371709444,0.5,3.09603120652019,0.999998457828354,0.5,0.275807148396957,1.01063842152138,13.8308673421409,3.06185762061985,0.5,-5.66214960116879
139,1,44,C,3,2,l,63,1,1,3C,2C,0,1,0,1,C32,3.12322707001934,2.69124308278583,0.972605832483311,0.362096425801521,0.362096425801521,0.5,0.362096425801521,0.972605832483311,0.362096425801521,0.5,0.5,0.5,0.980161339708798,0.5,0.5,0.5,0.5,0.98563298403173,1.47453693869078,0,0,1,2C,3C,0.980161339708798,0.5,0.662198986970996,0.337801013029004,1,1,0.0198386602912024,0.00547164432293248,0.5,0.387905150580936,1.01453693869078,11.1580276804276,2.69935371709444,0.5,1.39279953105675,0.999998926115986,0.5,0.275807148396957,1.01063842152138,13.8308673421409,3.06185762061985,0.5,-5.66214960116879
