ID,session,trialNr,mod2Stim,visStimLeft,visStimRight,correctKey,frequency,rewardAccurate,probFB,stimPairLeft,stimPairRight,leftCorrect,rightCorrect,pCorrectLeft,pCorrectRight,triplet,rt,surprise,0A belief,1A belief,2A belief,3A belief,0B belief,1B belief,2B belief,3B belief,0C belief,1C belief,2C belief,3C belief,0D belief,1D belief,2D belief,3D belief,reactionTime,choice,choiceLeft,choiceRight,chosenPair,otherPair,beliefPair,beliefOtherPair,beliefPairNorm,beliefOtherPairNorm,choiceAccurate,reward,rewardPE,update2,sim_CBCsimpleRW_CBCdriftDiffusionLR_startBelief,sim_CBCsimpleRW_CBCdriftDiffusionLR_alpha1,sim_CBCsimpleRW_CBCdriftDiffusionLR_nonDecisionTime,sim_CBCsimpleRW_CBCdriftDiffusionLR_weight,sim_CBCsimpleRW_CBCdriftDiffusionLR_startingBoundary,sim_CBCsimpleRW_CBCdriftDiffusionLR_startingPoint,lik,corrLik,fitCBCsimpleRW_CBCdriftDiffusionLR_startBelief,fitCBCsimpleRW_CBCdriftDiffusionLR_alpha1,fitCBCsimpleRW_CBCdriftDiffusionLR_nonDecisionTime,fitCBCsimpleRW_CBCdriftDiffusionLR_weight,fitCBCsimpleRW_CBCdriftDiffusionLR_startingBoundary,fitCBCsimpleRW_CBCdriftDiffusionLR_startingPoint,fit_CBCsimpleRW_CBCdriftDiffusionLR_NLL
111,1,1,B,1,0,a,63,1,0.82,1B,0B,1,0,1,0,B10,0.158025778907595,2.77258872223978,0.5,0.5,0.5,0.5,0.5,0.5,0.5,0.5,0.5,0.5,0.5,0.5,0.5,0.5,0.5,0.5,2.38718452452597,0,0,1,0B,1B,0.5,0.5,0.5,0.5,0,0,-0.5,-0.0534090843686978,0.5,0.124270646338035,1.09718452452597,10.8046017596026,3.11024375075888,0.5,0.15401046884527,0.500458094253072,0.5,0.106818168737396,1.08773365456822,12.6934778608361,3.33692529616872,0.5,50.61666259891
111,1,2,A,1,0,l,63,1,0.82,1A,0A,0,1,0,1,A10,2.49039750646202,2.83321334405622,0.5,0.5,0.5,0.5,0.446590915631302,0.5,0.5,0.5,0.5,0.5,0.5,0.5,0.5,0.5,0.5,0.5,2.35718452452597,0,0,1,0A,1A,0.5,0.5,0.5,0.5,1,1,0.5,0.0534090843686978,0.5,0.124270646338035,1.09718452452597,10.8046017596026,3.11024375075888,0.5,0.155177382781639,0.499318741229727,0.5,0.106818168737396,1.08773365456822,12.6934778608361,3.33692529616872,0.5,50.61666259891
111,1,3,D,3,2,a,63,1,0.82,3D,2D,1,0,1,0,D32,2.91741033589024,2.89037175789616,0.553409084368698,0.5,0.5,0.5,0.446590915631302,0.5,0.5,0.5,0.5,0.5,0.5,0.5,0.5,0.5,0.5,0.5,8.14118452452597,1,1,0,3D,2D,0.5,0.5,0.5,0.5,1,1,0.5,0.0534090843686978,0.5,0.124270646338035,1.09718452452597,10.8046017596026,3.11024375075888,0.5,0.012375519006126,0.499629745251961,0.5,0.106818168737396,1.08773365456822,12.6934778608361,3.33692529616872,0.5,50.61666259891
111,1,4,B,1,2,a,9,1,0.82,1B,2B,1,0,1,0,B12,0.857385488386496,2.94443897916644,0.553409084368698,0.5,0.5,0.5,0.446590915631302,0.5,0.5,0.5,0.5,0.5,0.5,0.5,0.5,0.5,0.5,0.553409084368698,4.51218452452597,0,0,1,2B,1B,0.5,0.5,0.5,0.5,0,0,-0.5,-0.0534090843686978,0.5,0.124270646338035,1.09718452452597,10.8046017596026,3.11024375075888,0.5,0.0618760829818707,0.500200322120928,0.5,0.106818168737396,1.08773365456822,12.6934778608361,3.33692529616872,0.5,50.61666259891
111,1,5,A,2,0,l,27,1,0.82,2A,0A,0,1,0,1,A20,2.11560503939514,2.99573227355399,0.553409084368698,0.5,0.5,0.5,0.446590915631302,0.5,0.446590915631302,0.5,0.5,0.5,0.5,0.5,0.5,0.5,0.5,0.553409084368698,2.11618452452597,0,0,1,0A,2A,0.553409084368698,0.5,0.525350590364761,0.474649409635239,1,1,0.446590915631302,0.0477040237824924,0.5,0.124270646338035,1.09718452452597,10.8046017596026,3.11024375075888,0.5,0.390203588858622,0.895649747887968,0.5,0.106818168737396,1.08773365456822,12.6934778608361,3.33692529616872,0.5,50.61666259891
111,1,6,C,3,2,l,63,1,0.82,3C,2C,0,1,0,1,C32,0.808902511154588,3.04452243772342,0.60111310815119,0.5,0.5,0.5,0.446590915631302,0.5,0.446590915631302,0.5,0.5,0.5,0.5,0.5,0.5,0.5,0.5,0.553409084368698,1.65118452452597,1,1,0,3C,2C,0.5,0.5,0.5,0.5,0,0,-0.5,-0.0534090843686978,0.5,0.124270646338035,1.09718452452597,10.8046017596026,3.11024375075888,0.5,0.132988071416487,0.499655824156696,0.5,0.106818168737396,1.08773365456822,12.6934778608361,3.33692529616872,0.5,50.61666259891
111,1,7,D,3,1,a,27,1,0.82,3D,1D,1,0,1,0,D31,0.0675599905901173,3.09104245335832,0.60111310815119,0.5,0.5,0.5,0.446590915631302,0.5,0.446590915631302,0.5,0.5,0.5,0.5,0.446590915631302,0.5,0.5,0.5,0.553409084368698,5.40818452452597,1,1,0,3D,1D,0.553409084368698,0.5,0.525350590364761,0.474649409635239,1,1,0.446590915631302,0.0477040237824924,0.5,0.124270646338035,1.09718452452597,10.8046017596026,3.11024375075888,0.5,0.0497700196303531,0.895240609455286,0.5,0.106818168737396,1.08773365456822,12.6934778608361,3.33692529616872,0.5,50.61666259891
111,1,8,A,0,1,a,63,0,0.82,0A,1A,1,0,0,1,A01,0.66210514207953,3.13549421592915,0.60111310815119,0.5,0.5,0.5,0.446590915631302,0.5,0.446590915631302,0.5,0.5,0.5,0.5,0.446590915631302,0.5,0.5,0.5,0.60111310815119,1.66818452452597,1,1,0,0A,1A,0.60111310815119,0.5,0.545914042527821,0.454085957472179,1,0,-0.60111310815119,-0.0642098014167542,0.5,0.124270646338035,1.09718452452597,10.8046017596026,3.11024375075888,0.5,0.644920041366574,0.979952513823673,0.5,0.106818168737396,1.08773365456822,12.6934778608361,3.33692529616872,0.5,50.61666259891
111,1,9,C,0,2,l,27,1,0.82,0C,2C,0,1,0,1,C02,3.07403376209595,3.17805383034795,0.536903306734436,0.5,0.5,0.5,0.446590915631302,0.5,0.446590915631302,0.5,0.5,0.5,0.5,0.446590915631302,0.5,0.5,0.5,0.60111310815119,6.88318452452597,0,0,1,2C,0C,0.5,0.5,0.5,0.5,1,1,0.5,0.0534090843686978,0.5,0.124270646338035,1.09718452452597,10.8046017596026,3.11024375075888,0.5,0.0215834298498852,0.498976344957411,0.5,0.106818168737396,1.08773365456822,12.6934778608361,3.33692529616872,0.5,50.61666259891
111,1,10,D,3,2,a,63,1,0.82,3D,2D,1,0,1,0,D32,2.99377514371846,2.52572864430826,0.536903306734436,0.5,0.5,0.5,0.446590915631302,0.5,0.446590915631302,0.5,0.5,0.5,0.553409084368698,0.446590915631302,0.5,0.5,0.5,0.60111310815119,3.42318452452597,1,1,0,3D,2D,0.60111310815119,0.5,0.545914042527821,0.454085957472179,1,1,0.39888689184881,0.0426083673206414,0.5,0.124270646338035,1.09718452452597,10.8046017596026,3.11024375075888,0.5,0.143566759726731,0.979834118217484,0.5,0.106818168737396,1.08773365456822,12.6934778608361,3.33692529616872,0.5,50.61666259891
111,1,11,B,0,1,l,63,0,0.82,0B,1B,0,1,1,0,B01,0.825786087799708,3.25809653802148,0.536903306734436,0.5,0.5,0.5,0.446590915631302,0.5,0.446590915631302,0.5,0.5,0.5,0.553409084368698,0.446590915631302,0.5,0.5,0.5,0.643721475471832,2.89418452452597,0,0,1,1B,0B,0.5,0.446590915631302,0.528211280864173,0.471788719135828,1,0,-0.5,-0.0534090843686978,0.5,0.124270646338035,1.09718452452597,10.8046017596026,3.11024375075888,0.5,0.262088122862034,0.916188432321985,0.5,0.106818168737396,1.08773365456822,12.6934778608361,3.33692529616872,0.5,50.61666259891
111,1,12,A,1,0,l,63,1,0.82,1A,0A,0,1,0,1,A10,2.35238471922611,2.60268968544438,0.536903306734436,0.5,0.5,0.5,0.446590915631302,0.446590915631302,0.446590915631302,0.5,0.5,0.5,0.553409084368698,0.446590915631302,0.5,0.5,0.5,0.643721475471832,2.65318452452597,0,0,1,0A,1A,0.536903306734436,0.5,0.517794960482216,0.482205039517784,1,1,0.463096693265564,0.0494671407229709,0.5,0.124270646338035,1.09718452452597,10.8046017596026,3.11024375075888,0.5,0.252685018276607,0.819336554237464,0.5,0.106818168737396,1.08773365456822,12.6934778608361,3.33692529616872,0.5,50.61666259891
111,1,13,D,3,2,a,63,1,0.82,3D,2D,1,0,1,0,D32,1.6820230140953,2.23359222150709,0.586370447457407,0.5,0.5,0.5,0.446590915631302,0.446590915631302,0.446590915631302,0.5,0.5,0.5,0.553409084368698,0.446590915631302,0.5,0.5,0.5,0.643721475471832,1.50718452452597,1,1,0,3D,2D,0.643721475471832,0.5,0.562830627278613,0.437169372721387,1,1,0.356278524528168,0.0380570195505602,0.5,0.124270646338035,1.09718452452597,10.8046017596026,3.11024375075888,0.5,0.744961783496734,0.995144223719014,0.5,0.106818168737396,1.08773365456822,12.6934778608361,3.33692529616872,0.5,50.61666259891
111,1,14,C,0,2,l,27,0,0.82,0C,2C,0,1,1,0,C02,1.68779599054062,2.67414864942653,0.586370447457407,0.5,0.5,0.5,0.446590915631302,0.446590915631302,0.446590915631302,0.5,0.5,0.5,0.553409084368698,0.446590915631302,0.5,0.5,0.5,0.681778495022392,3.47018452452597,0,0,1,2C,0C,0.553409084368698,0.5,0.525350590364761,0.474649409635239,1,0,-0.553409084368698,-0.0591141449549032,0.5,0.124270646338035,1.09718452452597,10.8046017596026,3.11024375075888,0.5,0.17524530063066,0.895217469674272,0.5,0.106818168737396,1.08773365456822,12.6934778608361,3.33692529616872,0.5,50.61666259891
111,1,15,A,1,0,l,63,1,0.82,1A,0A,0,1,0,1,A10,2.43744908176091,2.30258509299405,0.586370447457407,0.5,0.5,0.5,0.446590915631302,0.446590915631302,0.446590915631302,0.5,0.5,0.5,0.494294939413795,0.446590915631302,0.5,0.5,0.5,0.681778495022392,3.04318452452597,0,0,1,0A,1A,0.586370447457407,0.5,0.539751839558758,0.460248160441242,1,1,0.413629552542593,0.0441831513382681,0.5,0.124270646338035,1.09718452452597,10.8046017596026,3.11024375075888,0.5,0.235400926595377,0.966524596569071,0.5,0.106818168737396,1.08773365456822,12.6934778608361,3.33692529616872,0.5,50.61666259891
111,1,16,B,3,1,l,27,1,0.82,3B,1B,0,1,0,1,B31,3.2417008316887,3.43398720448515,0.630553598795675,0.5,0.5,0.5,0.446590915631302,0.446590915631302,0.446590915631302,0.5,0.5,0.5,0.494294939413795,0.446590915631302,0.5,0.5,0.5,0.681778495022392,2.92018452452597,1,1,0,3B,1B,0.5,0.446590915631302,0.528211280864173,0.471788719135828,0,0,-0.5,-0.0534090843686978,0.5,0.124270646338035,1.09718452452597,10.8046017596026,3.11024375075888,0.5,0.257561985631758,0.916434914821138,0.5,0.106818168737396,1.08773365456822,12.6934778608361,3.33692529616872,0.5,50.61666259891
111,1,17,C,2,3,a,63,1,0.82,2C,3C,1,0,1,0,C23,0.807617891348647,3.46573590279973,0.630553598795675,0.5,0.5,0.5,0.446590915631302,0.446590915631302,0.446590915631302,0.446590915631302,0.5,0.5,0.494294939413795,0.446590915631302,0.5,0.5,0.5,0.681778495022392,1.39918452452597,1,1,0,2C,3C,0.494294939413795,0.446590915631302,0.525350590364761,0.474649409635239,1,1,0.505705060586205,0.0540184884930521,0.5,0.124270646338035,1.09718452452597,10.8046017596026,3.11024375075888,0.5,0.120438815786396,0.895526346995477,0.5,0.106818168737396,1.08773365456822,12.6934778608361,3.33692529616872,0.5,50.61666259891
111,1,18,D,3,2,a,63,0,0.82,3D,2D,1,0,0,1,D32,3.47819107124916,2.11021320034659,0.630553598795675,0.5,0.5,0.5,0.446590915631302,0.446590915631302,0.446590915631302,0.446590915631302,0.5,0.5,0.548313427906847,0.446590915631302,0.5,0.5,0.5,0.681778495022392,1.53718452452597,1,1,0,3D,2D,0.681778495022392,0.5,0.576908869042734,0.423091130957266,1,0,-0.681778495022392,-0.0728263303228295,0.5,0.124270646338035,1.09718452452597,10.8046017596026,3.11024375075888,0.5,1.10141313486872,0.998521201613414,0.5,0.106818168737396,1.08773365456822,12.6934778608361,3.33692529616872,0.5,50.61666259891
111,1,19,B,0,1,l,63,1,0.82,0B,1B,0,1,0,1,B01,3.24396382421833,2.83321334405622,0.630553598795675,0.5,0.5,0.5,0.446590915631302,0.446590915631302,0.446590915631302,0.446590915631302,0.5,0.5,0.548313427906847,0.446590915631302,0.5,0.5,0.5,0.608952164699562,1.97818452452597,0,0,1,1B,0B,0.446590915631302,0.446590915631302,0.5,0.5,1,1,0.553409084368698,0.0591141449549032,0.5,0.124270646338035,1.09718452452597,10.8046017596026,3.11024375075888,0.5,0.165721867401657,0.499342200787941,0.5,0.106818168737396,1.08773365456822,12.6934778608361,3.33692529616872,0.5,50.61666259891
111,1,20,A,0,2,a,27,1,0.82,0A,2A,1,0,1,0,A02,0.945504197552825,3.55534806148941,0.630553598795675,0.5,0.5,0.5,0.446590915631302,0.505705060586205,0.446590915631302,0.446590915631302,0.5,0.5,0.548313427906847,0.446590915631302,0.5,0.5,0.5,0.608952164699562,1.86018452452597,1,1,0,0A,2A,0.630553598795675,0.5,0.557738792276079,0.442261207723921,1,1,0.369446401204325,0.0394635880232671,0.5,0.124270646338035,1.09718452452597,10.8046017596026,3.11024375075888,0.5,0.813810938944613,0.992536524541981,0.5,0.106818168737396,1.08773365456822,12.6934778608361,3.33692529616872,0.5,50.61666259891
111,1,21,D,3,0,a,9,1,0.82,3D,0D,1,0,1,0,D30,1.87364813701461,3.58351893845611,0.670017186818942,0.5,0.5,0.5,0.446590915631302,0.505705060586205,0.446590915631302,0.446590915631302,0.5,0.5,0.548313427906847,0.446590915631302,0.5,0.5,0.5,0.608952164699562,1.39118452452597,1,1,0,3D,0D,0.608952164699562,0.5,0.549123924443161,0.450876075556839,1,1,0.391047835300438,0.0417710136555154,0.5,0.124270646338035,1.09718452452597,10.8046017596026,3.11024375075888,0.5,0.256341095007525,0.984618251657614,0.5,0.106818168737396,1.08773365456822,12.6934778608361,3.33692529616872,0.5,50.61666259891
111,1,22,C,3,2,l,63,1,0.82,3C,2C,0,1,0,1,C32,0.758206278758796,2.91777073208428,0.670017186818942,0.5,0.5,0.5,0.446590915631302,0.505705060586205,0.446590915631302,0.446590915631302,0.5,0.5,0.548313427906847,0.446590915631302,0.5,0.5,0.5,0.650723178355078,3.37118452452597,1,1,0,3C,2C,0.446590915631302,0.548313427906847,0.448878244960821,0.551121755039179,0,0,-0.446590915631302,-0.0477040237824924,0.5,0.124270646338035,1.09718452452597,10.8046017596026,3.11024375075888,0.5,0.00171155227323604,0.0129531095950241,0.5,0.106818168737396,1.08773365456822,12.6934778608361,3.33692529616872,0.5,50.61666259891
111,1,23,B,1,3,a,27,1,0.82,1B,3B,1,0,1,0,B13,2.46866713917866,3.63758615972639,0.670017186818942,0.5,0.5,0.5,0.446590915631302,0.505705060586205,0.446590915631302,0.446590915631302,0.5,0.5,0.548313427906847,0.39888689184881,0.5,0.5,0.5,0.650723178355078,3.68818452452597,1,1,0,1B,3B,0.505705060586205,0.446590915631302,0.531037695438819,0.468962304561181,1,1,0.494294939413795,0.0527996802443434,0.5,0.124270646338035,1.09718452452597,10.8046017596026,3.11024375075888,0.5,0.147997833092049,0.932633012466124,0.5,0.106818168737396,1.08773365456822,12.6934778608361,3.33692529616872,0.5,50.61666259891
111,1,24,C,2,3,a,63,1,0.82,2C,3C,1,0,1,0,C23,0.869117991730681,2.9704144655697,0.670017186818942,0.5,0.5,0.5,0.446590915631302,0.558504740830549,0.446590915631302,0.446590915631302,0.5,0.5,0.548313427906847,0.39888689184881,0.5,0.5,0.5,0.650723178355078,2.12618452452597,1,1,0,2C,3C,0.548313427906847,0.39888689184881,0.578878001274632,0.421121998725368,1,1,0.451686572093153,0.0482483324742622,0.5,0.124270646338035,1.09718452452597,10.8046017596026,3.11024375075888,0.5,0.580065137903987,0.998744171117694,0.5,0.106818168737396,1.08773365456822,12.6934778608361,3.33692529616872,0.5,50.61666259891
111,1,25,D,3,2,a,63,1,0.82,3D,2D,1,0,1,0,D32,0.196469444496574,2.07944154167984,0.670017186818942,0.5,0.5,0.5,0.446590915631302,0.558504740830549,0.446590915631302,0.446590915631302,0.5,0.5,0.596561760381109,0.39888689184881,0.5,0.5,0.5,0.650723178355078,2.24618452452597,1,1,0,3D,2D,0.650723178355078,0.5,0.565490632842962,0.434509367157038,1,1,0.349276821644922,0.0373091104705285,0.5,0.124270646338035,1.09718452452597,10.8046017596026,3.11024375075888,0.5,0.51880664481366,0.996105992011562,0.5,0.106818168737396,1.08773365456822,12.6934778608361,3.33692529616872,0.5,50.61666259891
111,1,26,B,0,1,l,63,1,0.82,0B,1B,0,1,0,1,B01,1.52225341532668,2.6149597780362,0.670017186818942,0.5,0.5,0.5,0.446590915631302,0.558504740830549,0.446590915631302,0.446590915631302,0.5,0.5,0.596561760381109,0.39888689184881,0.5,0.5,0.5,0.688032288825606,2.14618452452597,0,0,1,1B,0B,0.558504740830549,0.446590915631302,0.555673220991327,0.444326779008673,1,1,0.441495259169451,0.0471597150907226,0.5,0.124270646338035,1.09718452452597,10.8046017596026,3.11024375075888,0.5,0.602627966039864,0.991118384460563,0.5,0.106818168737396,1.08773365456822,12.6934778608361,3.33692529616872,0.5,50.61666259891
111,1,27,A,3,0,l,9,1,0.82,3A,0A,0,1,0,1,A30,2.87096317306082,3.73766961828337,0.670017186818942,0.5,0.5,0.5,0.446590915631302,0.605664455921271,0.446590915631302,0.446590915631302,0.5,0.5,0.596561760381109,0.39888689184881,0.5,0.5,0.5,0.688032288825606,1.68518452452597,0,0,1,0A,3A,0.670017186818942,0.5,0.572655850159427,0.427344149840573,1,1,0.329982813181058,0.0352481598188147,0.5,0.124270646338035,1.09718452452597,10.8046017596026,3.11024375075888,0.5,1.10152074535754,0.997877150167411,0.5,0.106818168737396,1.08773365456822,12.6934778608361,3.33692529616872,0.5,50.61666259891
111,1,28,D,3,2,a,63,0,0.82,3D,2D,1,0,0,1,D32,1.52527669320702,1.96944064646551,0.705265346637757,0.5,0.5,0.5,0.446590915631302,0.605664455921271,0.446590915631302,0.446590915631302,0.5,0.5,0.596561760381109,0.39888689184881,0.5,0.5,0.5,0.688032288825606,2.34518452452597,1,1,0,3D,2D,0.688032288825606,0.5,0.579136017848252,0.420863982151748,1,0,-0.688032288825606,-0.0734943491245501,0.5,0.124270646338035,1.09718452452597,10.8046017596026,3.11024375075888,0.5,0.352036799457192,0.998777125580463,0.5,0.106818168737396,1.08773365456822,12.6934778608361,3.33692529616872,0.5,50.61666259891
111,1,29,C,0,2,l,27,1,0.82,0C,2C,0,1,0,1,C02,1.39476908900592,2.68557734525015,0.705265346637757,0.5,0.5,0.5,0.446590915631302,0.605664455921271,0.446590915631302,0.446590915631302,0.5,0.5,0.596561760381109,0.39888689184881,0.5,0.5,0.5,0.614537939701056,1.79218452452597,0,0,1,2C,0C,0.596561760381109,0.5,0.544029330526513,0.455970669473487,1,1,0.403438239618891,0.0430945339547285,0.5,0.124270646338035,1.09718452452597,10.8046017596026,3.11024375075888,0.5,0.648219641055788,0.976477494018671,0.5,0.106818168737396,1.08773365456822,12.6934778608361,3.33692529616872,0.5,50.61666259891
111,1,30,A,0,1,a,63,0,0.82,0A,1A,1,0,0,1,A01,0.8943482455599,3.11351530921037,0.705265346637757,0.5,0.5,0.5,0.446590915631302,0.605664455921271,0.446590915631302,0.446590915631302,0.5,0.5,0.639656294335837,0.39888689184881,0.5,0.5,0.5,0.614537939701056,2.36318452452597,1,1,0,0A,1A,0.705265346637757,0.5,0.585153591783905,0.414846408216095,1,0,-0.705265346637757,-0.0753351528017897,0.5,0.124270646338035,1.09718452452597,10.8046017596026,3.11024375075888,0.5,0.29051452023025,0.99926166286726,0.5,0.106818168737396,1.08773365456822,12.6934778608361,3.33692529616872,0.5,50.61666259891
111,1,31,B,0,1,l,63,1,0.82,0B,1B,0,1,0,1,B01,3.37461206931118,2.4423470353692,0.629930193835967,0.5,0.5,0.5,0.446590915631302,0.605664455921271,0.446590915631302,0.446590915631302,0.5,0.5,0.639656294335837,0.39888689184881,0.5,0.5,0.5,0.614537939701056,1.55918452452597,0,0,1,1B,0B,0.605664455921271,0.446590915631302,0.575586946187436,0.424413053812564,1,1,0.394335544078729,0.0421222006865543,0.5,0.124270646338035,1.09718452452597,10.8046017596026,3.11024375075888,0.5,1.1083292309224,0.998351502850777,0.5,0.106818168737396,1.08773365456822,12.6934778608361,3.33692529616872,0.5,50.61666259891
111,1,32,D,1,3,l,27,1,0.82,1D,3D,0,1,0,1,D13,1.17003601082205,3.85014760171006,0.629930193835967,0.5,0.5,0.5,0.446590915631302,0.647786656607826,0.446590915631302,0.446590915631302,0.5,0.5,0.639656294335837,0.39888689184881,0.5,0.5,0.5,0.614537939701056,1.75518452452597,0,0,1,3D,1D,0.614537939701056,0.5,0.551383598359953,0.448616401640047,1,1,0.385462060298944,0.0411743513988767,0.5,0.124270646338035,1.09718452452597,10.8046017596026,3.11024375075888,0.5,0.757939210305136,0.98730712394855,0.5,0.106818168737396,1.08773365456822,12.6934778608361,3.33692529616872,0.5,50.61666259891
111,1,33,C,2,3,a,63,1,0.82,2C,3C,1,0,1,0,C23,3.15184355081572,2.77258872223978,0.629930193835967,0.5,0.5,0.5,0.446590915631302,0.647786656607826,0.446590915631302,0.446590915631302,0.5,0.5,0.639656294335837,0.39888689184881,0.5,0.5,0.5,0.655712291099933,2.00718452452597,1,1,0,2C,3C,0.639656294335837,0.39888689184881,0.615916894785837,0.384083105214163,1,1,0.360343705664163,0.0384912547550929,0.5,0.124270646338035,1.09718452452597,10.8046017596026,3.11024375075888,0.5,0.419712196266058,0.999945988515887,0.5,0.106818168737396,1.08773365456822,12.6934778608361,3.33692529616872,0.5,50.61666259891
111,1,34,B,0,1,l,63,0,0.82,0B,1B,0,1,1,0,B01,0.76420069635165,2.28238238567653,0.629930193835967,0.5,0.5,0.5,0.446590915631302,0.647786656607826,0.446590915631302,0.446590915631302,0.5,0.5,0.67814754909093,0.39888689184881,0.5,0.5,0.5,0.655712291099933,1.49518452452597,0,0,1,1B,0B,0.647786656607826,0.446590915631302,0.591922452579539,0.408077547420461,1,0,-0.647786656607826,-0.0691953843913681,0.5,0.124270646338035,1.09718452452597,10.8046017596026,3.11024375075888,0.5,1.35852455828845,0.999582507903534,0.5,0.106818168737396,1.08773365456822,12.6934778608361,3.33692529616872,0.5,50.61666259891
111,1,35,A,1,0,l,63,1,0.82,1A,0A,0,1,0,1,A10,2.48756964544552,2.52572864430826,0.629930193835967,0.5,0.5,0.5,0.446590915631302,0.578591272216458,0.446590915631302,0.446590915631302,0.5,0.5,0.67814754909093,0.39888689184881,0.5,0.5,0.5,0.655712291099933,2.33218452452597,0,0,1,0A,1A,0.629930193835967,0.5,0.557494787972198,0.442505212027802,1,1,0.370069806164033,0.0395301789994449,0.5,0.124270646338035,1.09718452452597,10.8046017596026,3.11024375075888,0.5,0.475137669674356,0.992370564977713,0.5,0.106818168737396,1.08773365456822,12.6934778608361,3.33692529616872,0.5,50.61666259891
111,1,36,C,2,1,a,9,1,0.82,2C,1C,1,0,1,0,C21,2.11147204185766,3.93182563272433,0.669460372835412,0.5,0.5,0.5,0.446590915631302,0.578591272216458,0.446590915631302,0.446590915631302,0.5,0.5,0.67814754909093,0.39888689184881,0.5,0.5,0.5,0.655712291099933,1.83018452452597,1,1,0,2C,1C,0.67814754909093,0.5,0.575604939817763,0.424395060182237,1,1,0.32185245090907,0.0343796894097493,0.5,0.124270646338035,1.09718452452597,10.8046017596026,3.11024375075888,0.5,1.00011251003132,0.99835718049751,0.5,0.106818168737396,1.08773365456822,12.6934778608361,3.33692529616872,0.5,50.61666259891
111,1,37,A,0,1,a,63,1,0.82,0A,1A,1,0,1,0,A01,2.95794908934709,2.85263142991332,0.669460372835412,0.5,0.5,0.5,0.446590915631302,0.578591272216458,0.446590915631302,0.446590915631302,0.5,0.5,0.71252723850068,0.39888689184881,0.5,0.5,0.5,0.655712291099933,1.46018452452597,1,1,0,0A,1A,0.669460372835412,0.5,0.572452379221943,0.427547620778057,1,1,0.330539627164588,0.0353076376688628,0.5,0.124270646338035,1.09718452452597,10.8046017596026,3.11024375075888,0.5,0.799917311721403,0.99784901168564,0.5,0.106818168737396,1.08773365456822,12.6934778608361,3.33692529616872,0.5,50.61666259891
111,1,38,D,1,3,l,27,1,0.82,1D,3D,0,1,0,1,D13,2.4013078133407,3.27714473299218,0.704768010504275,0.5,0.5,0.5,0.446590915631302,0.578591272216458,0.446590915631302,0.446590915631302,0.5,0.5,0.71252723850068,0.39888689184881,0.5,0.5,0.5,0.655712291099933,2.03518452452597,0,0,1,3D,1D,0.655712291099933,0.5,0.567366373231064,0.432633626768936,1,1,0.344287708900067,0.0367761825834987,0.5,0.124270646338035,1.09718452452597,10.8046017596026,3.11024375075888,0.5,0.720830002499948,0.996678624717754,0.5,0.106818168737396,1.08773365456822,12.6934778608361,3.33692529616872,0.5,50.61666259891
111,1,39,B,1,0,a,63,1,0.82,1B,0B,1,0,1,0,B10,1.34447747794231,3.29583686600433,0.704768010504275,0.5,0.5,0.5,0.446590915631302,0.578591272216458,0.446590915631302,0.446590915631302,0.5,0.5,0.71252723850068,0.39888689184881,0.5,0.5,0.5,0.692488473683432,2.11418452452597,1,1,0,1B,0B,0.578591272216458,0.446590915631302,0.564378974854349,0.435621025145651,1,1,0.421408727783542,0.0450141085917936,0.5,0.124270646338035,1.09718452452597,10.8046017596026,3.11024375075888,0.5,0.639995236270315,0.995736553038736,0.5,0.106818168737396,1.08773365456822,12.6934778608361,3.33692529616872,0.5,50.61666259891
111,1,40,C,3,2,l,63,0,0.82,3C,2C,0,1,1,0,C32,1.70811334798464,2.90872089656436,0.704768010504275,0.5,0.5,0.5,0.446590915631302,0.623605380808251,0.446590915631302,0.446590915631302,0.5,0.5,0.71252723850068,0.39888689184881,0.5,0.5,0.5,0.692488473683432,1.67818452452597,0,0,1,2C,3C,0.71252723850068,0.39888689184881,0.641099675668711,0.358900324331289,1,0,-0.71252723850068,-0.0761108547921561,0.5,0.124270646338035,1.09718452452597,10.8046017596026,3.11024375075888,0.5,1.2384848778914,0.999993584834834,0.5,0.106818168737396,1.08773365456822,12.6934778608361,3.33692529616872,0.5,50.61666259891
111,1,41,A,0,2,a,27,1,0.82,0A,2A,1,0,1,0,A02,1.87510766993642,3.3322045101752,0.704768010504275,0.5,0.5,0.5,0.446590915631302,0.623605380808251,0.446590915631302,0.446590915631302,0.5,0.5,0.636416383708524,0.39888689184881,0.5,0.5,0.5,0.692488473683432,1.85118452452597,1,1,0,0A,2A,0.704768010504275,0.5,0.584982340466762,0.415017659533238,1,1,0.295231989495725,0.0315361404706314,0.5,0.124270646338035,1.09718452452597,10.8046017596026,3.11024375075888,0.5,0.997486926682347,0.999248879194997,0.5,0.106818168737396,1.08773365456822,12.6934778608361,3.33692529616872,0.5,50.61666259891
111,1,42,D,2,3,l,63,1,0.82,2D,3D,0,1,0,1,D23,1.42558938641284,4.04305126783455,0.736304150974906,0.5,0.5,0.5,0.446590915631302,0.623605380808251,0.446590915631302,0.446590915631302,0.5,0.5,0.636416383708524,0.39888689184881,0.5,0.5,0.5,0.692488473683432,2.00518452452597,0,0,1,3D,2D,0.692488473683432,0.5,0.580708735527171,0.419291264472829,1,1,0.307511526316568,0.0328478181067773,0.5,0.124270646338035,1.09718452452597,10.8046017596026,3.11024375075888,0.5,0.739456921982333,0.998922563891457,0.5,0.106818168737396,1.08773365456822,12.6934778608361,3.33692529616872,0.5,50.61666259891
111,1,43,B,1,3,a,27,1,0.82,1B,3B,1,0,1,0,B13,0.183769579846692,3.36729582998647,0.736304150974906,0.5,0.5,0.5,0.446590915631302,0.623605380808251,0.446590915631302,0.446590915631302,0.5,0.5,0.636416383708524,0.39888689184881,0.5,0.5,0.5,0.725336291790209,1.54718452452597,1,1,0,1B,3B,0.623605380808251,0.446590915631302,0.582701867762886,0.417298132237114,1,1,0.376394619191749,0.040205783944672,0.5,0.124270646338035,1.09718452452597,10.8046017596026,3.11024375075888,0.5,1.24708772367392,0.999095919261138,0.5,0.106818168737396,1.08773365456822,12.6934778608361,3.33692529616872,0.5,50.61666259891
111,1,44,C,3,2,l,63,1,0.82,3C,2C,0,1,0,1,C32,0.00720988241575393,2.69124308278583,0.736304150974906,0.5,0.5,0.5,0.446590915631302,0.663811164752923,0.446590915631302,0.446590915631302,0.5,0.5,0.636416383708524,0.39888689184881,0.5,0.5,0.5,0.725336291790209,1.69518452452597,0,0,1,2C,3C,0.636416383708524,0.39888689184881,0.614714933038266,0.385285066961734,1,1,0.363583616291476,0.0388373360751754,0.5,0.124270646338035,1.09718452452597,10.8046017596026,3.11024375075888,0.5,1.39413106098534,0.999939991559242,0.5,0.106818168737396,1.08773365456822,12.6934778608361,3.33692529616872,0.5,50.61666259891
