ID,session,trialNr,mod2Stim,visStimLeft,visStimRight,correctKey,frequency,rewardAccurate,probFB,stimPairLeft,stimPairRight,leftCorrect,rightCorrect,pCorrectLeft,pCorrectRight,triplet,rt,surprise,0A belief,1A belief,2A belief,3A belief,0B belief,1B belief,2B belief,3B belief,0C belief,1C belief,2C belief,3C belief,0D belief,1D belief,2D belief,3D belief,reactionTime,choice,choiceLeft,choiceRight,chosenPair,otherPair,beliefPair,beliefOtherPair,beliefPairNorm,beliefOtherPairNorm,choiceAccurate,reward,rewardPE,update2,sim_CBCsimpleRW_CBCdriftDiffusionLR_startBelief,sim_CBCsimpleRW_CBCdriftDiffusionLR_alpha1,sim_CBCsimpleRW_CBCdriftDiffusionLR_nonDecisionTime,sim_CBCsimpleRW_CBCdriftDiffusionLR_weight,sim_CBCsimpleRW_CBCdriftDiffusionLR_startingBoundary,sim_CBCsimpleRW_CBCdriftDiffusionLR_startingPoint,lik,corrLik,fitCBCsimpleRW_CBCdriftDiffusionLR_startBelief,fitCBCsimpleRW_CBCdriftDiffusionLR_alpha1,fitCBCsimpleRW_CBCdriftDiffusionLR_nonDecisionTime,fitCBCsimpleRW_CBCdriftDiffusionLR_weight,fitCBCsimpleRW_CBCdriftDiffusionLR_startingBoundary,fitCBCsimpleRW_CBCdriftDiffusionLR_startingPoint,fit_CBCsimpleRW_CBCdriftDiffusionLR_NLL
200,1,1,C,0,2,l,27,1,1,0C,2C,0,1,0,1,C02,2.52192922561691,2.77258872223978,0.5,0.5,0.5,0.5,0.5,0.5,0.5,0.5,0.5,0.5,0.5,0.5,0.5,0.5,0.5,0.5,6.13934369313561,0,0,1,2C,0C,0.5,0.5,0.5,0.5,1,1,0.5,0.225959216532531,0.5,0.71166014350965,0.840343693135608,0.561127951332293,4.91153381248194,0.5,0.0418940061203061,0.500350509599262,0.5,0.451918433065062,1.04128027471403,0.605620363668007,4.10229677218385,0.5,121.15581842515
200,1,2,D,2,3,l,63,1,1,2D,3D,0,1,0,1,D23,2.64684440139449,2.83321334405622,0.5,0.5,0.5,0.5,0.5,0.5,0.5,0.5,0.5,0.5,0.725959216532531,0.5,0.5,0.5,0.5,0.5,2.49934369313561,1,1,0,2D,3D,0.5,0.5,0.5,0.5,0,0,-0.5,-0.225959216532531,0.5,0.71166014350965,0.840343693135608,0.561127951332293,4.91153381248194,0.5,0.10979443492526,0.499912521446871,0.5,0.451918433065062,1.04128027471403,0.605620363668007,4.10229677218385,0.5,121.15581842515
200,1,3,A,0,1,a,63,1,1,0A,1A,1,0,1,0,A01,1.414646662225,2.89037175789616,0.5,0.5,0.5,0.5,0.5,0.5,0.5,0.5,0.5,0.5,0.725959216532531,0.5,0.5,0.5,0.274040783467469,0.5,6.56734369313561,1,1,0,0A,1A,0.5,0.5,0.5,0.5,1,1,0.5,0.225959216532531,0.5,0.71166014350965,0.840343693135608,0.561127951332293,4.91153381248194,0.5,0.0368075226194067,0.498379732879596,0.5,0.451918433065062,1.04128027471403,0.605620363668007,4.10229677218385,0.5,121.15581842515
200,1,4,C,3,2,l,63,1,1,3C,2C,0,1,0,1,C32,1.75038405077166,2.94443897916644,0.725959216532531,0.5,0.5,0.5,0.5,0.5,0.5,0.5,0.5,0.5,0.725959216532531,0.5,0.5,0.5,0.274040783467469,0.5,1.72734369313561,0,0,1,2C,3C,0.725959216532531,0.5,0.592156090302754,0.407843909697246,1,1,0.274040783467469,0.123844081460541,0.5,0.71166014350965,0.840343693135608,0.561127951332293,4.91153381248194,0.5,0.0839700898429348,0.61231175998045,0.5,0.451918433065062,1.04128027471403,0.605620363668007,4.10229677218385,0.5,121.15581842515
200,1,5,A,2,0,l,27,1,1,2A,0A,0,1,0,1,A20,0.710434055125468,2.99573227355399,0.725959216532531,0.5,0.5,0.5,0.5,0.5,0.5,0.5,0.5,0.5,0.849803297993071,0.5,0.5,0.5,0.274040783467469,0.5,6.94234369313561,0,0,1,0A,2A,0.725959216532531,0.5,0.592156090302754,0.407843909697246,1,1,0.274040783467469,0.123844081460541,0.5,0.71166014350965,0.840343693135608,0.561127951332293,4.91153381248194,0.5,0.0401710327375399,0.61389408334395,0.5,0.451918433065062,1.04128027471403,0.605620363668007,4.10229677218385,0.5,121.15581842515
200,1,6,D,3,2,a,63,1,1,3D,2D,1,0,1,0,D32,0.11325785655919,3.04452243772342,0.849803297993071,0.5,0.5,0.5,0.5,0.5,0.5,0.5,0.5,0.5,0.849803297993071,0.5,0.5,0.5,0.274040783467469,0.5,1.71534369313561,1,1,0,3D,2D,0.5,0.274040783467469,0.645960795192407,0.354039204807593,1,1,0.5,0.225959216532531,0.5,0.71166014350965,0.840343693135608,0.561127951332293,4.91153381248194,0.5,0.0925861592839178,0.67281277075712,0.5,0.451918433065062,1.04128027471403,0.605620363668007,4.10229677218385,0.5,121.15581842515
200,1,7,D,2,3,l,63,1,1,2D,3D,0,1,0,1,D23,0.163372071200227,2.39789527279837,0.849803297993071,0.5,0.5,0.5,0.5,0.5,0.5,0.5,0.5,0.5,0.849803297993071,0.5,0.5,0.5,0.274040783467469,0.725959216532531,5.78034369313561,1,1,0,2D,3D,0.274040783467469,0.725959216532531,0.274040783467469,0.725959216532531,0,0,-0.274040783467469,-0.123844081460541,0.5,0.71166014350965,0.840343693135608,0.561127951332293,4.91153381248194,0.5,0.0222568784610336,0.245916888799384,0.5,0.451918433065062,1.04128027471403,0.605620363668007,4.10229677218385,0.5,121.15581842515
200,1,8,B,1,3,a,27,1,1,1B,3B,1,0,1,0,B13,3.22313714637143,3.13549421592915,0.849803297993071,0.5,0.5,0.5,0.5,0.5,0.5,0.5,0.5,0.5,0.849803297993071,0.5,0.5,0.5,0.150196702006929,0.725959216532531,6.11134369313561,0,0,1,3B,1B,0.5,0.5,0.5,0.5,0,0,-0.5,-0.225959216532531,0.5,0.71166014350965,0.840343693135608,0.561127951332293,4.91153381248194,0.5,0.0423184578148846,0.50128801129878,0.5,0.451918433065062,1.04128027471403,0.605620363668007,4.10229677218385,0.5,121.15581842515
200,1,9,D,3,0,a,9,1,1,3D,0D,1,0,1,0,D30,3.25645778806763,3.17805383034795,0.849803297993071,0.5,0.5,0.5,0.5,0.5,0.5,0.274040783467469,0.5,0.5,0.849803297993071,0.5,0.5,0.5,0.150196702006929,0.725959216532531,9.99634369313561,1,1,0,3D,0D,0.725959216532531,0.5,0.592156090302754,0.407843909697246,1,1,0.274040783467469,0.123844081460541,0.5,0.71166014350965,0.840343693135608,0.561127951332293,4.91153381248194,0.5,0.0160737557696081,0.613044315254533,0.5,0.451918433065062,1.04128027471403,0.605620363668007,4.10229677218385,0.5,121.15581842515
200,1,10,B,0,1,l,63,1,1,0B,1B,0,1,0,1,B01,0.919754836508381,3.2188758248682,0.849803297993071,0.5,0.5,0.5,0.5,0.5,0.5,0.274040783467469,0.5,0.5,0.849803297993071,0.5,0.5,0.5,0.150196702006929,0.849803297993071,4.13234369313561,0,0,1,1B,0B,0.5,0.5,0.5,0.5,1,1,0.5,0.225959216532531,0.5,0.71166014350965,0.840343693135608,0.561127951332293,4.91153381248194,0.5,0.0752595084151287,0.500044378504487,0.5,0.451918433065062,1.04128027471403,0.605620363668007,4.10229677218385,0.5,121.15581842515
200,1,11,A,0,1,a,63,1,1,0A,1A,1,0,1,0,A01,3.3827562071112,2.56494935746154,0.849803297993071,0.5,0.5,0.5,0.5,0.725959216532531,0.5,0.274040783467469,0.5,0.5,0.849803297993071,0.5,0.5,0.5,0.150196702006929,0.849803297993071,3.03934369313561,1,1,0,0A,1A,0.849803297993071,0.5,0.629575656880217,0.370424343119783,1,1,0.150196702006929,0.0678766582225112,0.5,0.71166014350965,0.840343693135608,0.561127951332293,4.91153381248194,0.5,0.136104482496455,0.655964155781914,0.5,0.451918433065062,1.04128027471403,0.605620363668007,4.10229677218385,0.5,121.15581842515
200,1,12,B,1,0,a,63,1,1,1B,0B,1,0,1,0,B10,1.7783381719502,3.29583686600433,0.917679956215583,0.5,0.5,0.5,0.5,0.725959216532531,0.5,0.274040783467469,0.5,0.5,0.849803297993071,0.5,0.5,0.5,0.150196702006929,0.849803297993071,3.74934369313561,1,1,0,1B,0B,0.725959216532531,0.5,0.592156090302754,0.407843909697246,1,1,0.274040783467469,0.123844081460541,0.5,0.71166014350965,0.840343693135608,0.561127951332293,4.91153381248194,0.5,0.10398087153581,0.613670816619467,0.5,0.451918433065062,1.04128027471403,0.605620363668007,4.10229677218385,0.5,121.15581842515
200,1,13,D,3,2,a,63,1,1,3D,2D,1,0,1,0,D32,1.13233441430643,2.63905732961526,0.917679956215583,0.5,0.5,0.5,0.5,0.849803297993071,0.5,0.274040783467469,0.5,0.5,0.849803297993071,0.5,0.5,0.5,0.150196702006929,0.849803297993071,4.26034369313561,1,1,0,3D,2D,0.849803297993071,0.150196702006929,0.849803297993071,0.150196702006929,1,1,0.150196702006929,0.0678766582225112,0.5,0.71166014350965,0.840343693135608,0.561127951332293,4.91153381248194,0.5,0.129525002655223,0.850356800158589,0.5,0.451918433065062,1.04128027471403,0.605620363668007,4.10229677218385,0.5,121.15581842515
200,1,14,B,3,1,l,27,1,1,3B,1B,0,1,0,1,B31,0.772100464795355,3.36729582998647,0.917679956215583,0.5,0.5,0.5,0.5,0.849803297993071,0.5,0.274040783467469,0.5,0.5,0.849803297993071,0.5,0.5,0.5,0.150196702006929,0.917679956215583,2.46934369313561,1,1,0,3B,1B,0.274040783467469,0.849803297993071,0.243842351433063,0.756157648566937,0,0,-0.274040783467469,-0.123844081460541,0.5,0.71166014350965,0.840343693135608,0.561127951332293,4.91153381248194,0.5,0.0544312246670216,0.219455683086831,0.5,0.451918433065062,1.04128027471403,0.605620363668007,4.10229677218385,0.5,121.15581842515
200,1,15,C,2,3,a,63,1,1,2C,3C,1,0,1,0,C23,2.1425738023864,3.40119738166216,0.917679956215583,0.5,0.5,0.5,0.5,0.849803297993071,0.5,0.150196702006929,0.5,0.5,0.849803297993071,0.5,0.5,0.5,0.150196702006929,0.917679956215583,2.07134369313561,0,0,1,3C,2C,0.5,0.849803297993071,0.370424343119783,0.629575656880217,0,0,-0.5,-0.225959216532531,0.5,0.71166014350965,0.840343693135608,0.561127951332293,4.91153381248194,0.5,0.0727957993915616,0.345085985010161,0.5,0.451918433065062,1.04128027471403,0.605620363668007,4.10229677218385,0.5,121.15581842515
200,1,16,C,0,2,l,27,1,1,0C,2C,0,1,0,1,C02,0.887814670189118,2.7408400239252,0.917679956215583,0.5,0.5,0.5,0.5,0.849803297993071,0.5,0.150196702006929,0.5,0.5,0.849803297993071,0.274040783467469,0.5,0.5,0.150196702006929,0.917679956215583,3.57134369313561,1,1,0,0C,2C,0.5,0.849803297993071,0.370424343119783,0.629575656880217,0,0,-0.5,-0.225959216532531,0.5,0.71166014350965,0.840343693135608,0.561127951332293,4.91153381248194,0.5,0.0619230235496355,0.344170827880269,0.5,0.451918433065062,1.04128027471403,0.605620363668007,4.10229677218385,0.5,121.15581842515
200,1,17,A,3,0,l,9,1,1,3A,0A,0,1,0,1,A30,1.68379355092315,3.46573590279973,0.917679956215583,0.5,0.5,0.5,0.5,0.849803297993071,0.5,0.150196702006929,0.274040783467469,0.5,0.849803297993071,0.274040783467469,0.5,0.5,0.150196702006929,0.917679956215583,4.53334369313561,1,1,0,3A,0A,0.5,0.917679956215583,0.352688911067574,0.647311088932426,0,0,-0.5,-0.225959216532531,0.5,0.71166014350965,0.840343693135608,0.561127951332293,4.91153381248194,0.5,0.0439790370144739,0.325005227656597,0.5,0.451918433065062,1.04128027471403,0.605620363668007,4.10229677218385,0.5,121.15581842515
200,1,18,C,3,2,l,63,1,1,3C,2C,0,1,0,1,C32,1.29016797440924,2.80336038090653,0.917679956215583,0.5,0.5,0.274040783467469,0.5,0.849803297993071,0.5,0.150196702006929,0.274040783467469,0.5,0.849803297993071,0.274040783467469,0.5,0.5,0.150196702006929,0.917679956215583,1.54134369313561,0,0,1,2C,3C,0.849803297993071,0.274040783467469,0.756157648566937,0.243842351433063,1,1,0.150196702006929,0.0678766582225112,0.5,0.71166014350965,0.840343693135608,0.561127951332293,4.91153381248194,0.5,0.063484184220583,0.780625428824894,0.5,0.451918433065062,1.04128027471403,0.605620363668007,4.10229677218385,0.5,121.15581842515
200,1,19,A,0,1,a,63,1,1,0A,1A,1,0,1,0,A01,2.10478355613137,2.42774823594805,0.917679956215583,0.5,0.5,0.274040783467469,0.5,0.849803297993071,0.5,0.150196702006929,0.274040783467469,0.5,0.917679956215583,0.274040783467469,0.5,0.5,0.150196702006929,0.917679956215583,3.90634369313561,1,1,0,0A,1A,0.917679956215583,0.5,0.647311088932426,0.352688911067574,1,1,0.0823200437844175,0.0372019451969012,0.5,0.71166014350965,0.840343693135608,0.561127951332293,4.91153381248194,0.5,0.11059628752452,0.6751653334506,0.5,0.451918433065062,1.04128027471403,0.605620363668007,4.10229677218385,0.5,121.15581842515
200,1,20,D,2,3,l,63,1,1,2D,3D,0,1,0,1,D23,1.56227568438304,2.4567357728213,0.954881901412484,0.5,0.5,0.274040783467469,0.5,0.849803297993071,0.5,0.150196702006929,0.274040783467469,0.5,0.917679956215583,0.274040783467469,0.5,0.5,0.150196702006929,0.917679956215583,6.43234369313561,0,0,1,3D,2D,0.917679956215583,0.150196702006929,0.859350140439503,0.140649859560497,1,1,0.0823200437844175,0.0372019451969012,0.5,0.71166014350965,0.840343693135608,0.561127951332293,4.91153381248194,0.5,0.0562941083690319,0.856476244223773,0.5,0.451918433065062,1.04128027471403,0.605620363668007,4.10229677218385,0.5,121.15581842515
200,1,21,C,2,3,a,63,1,1,2C,3C,1,0,1,0,C23,2.32479975275688,2.89037175789616,0.954881901412484,0.5,0.5,0.274040783467469,0.5,0.849803297993071,0.5,0.150196702006929,0.274040783467469,0.5,0.917679956215583,0.274040783467469,0.5,0.5,0.150196702006929,0.954881901412484,3.63034369313561,1,1,0,2C,3C,0.917679956215583,0.274040783467469,0.770046140557768,0.229953859442232,1,1,0.0823200437844175,0.0372019451969012,0.5,0.71166014350965,0.840343693135608,0.561127951332293,4.91153381248194,0.5,0.14777243041428,0.792793223627515,0.5,0.451918433065062,1.04128027471403,0.605620363668007,4.10229677218385,0.5,121.15581842515
200,1,22,D,1,3,l,27,1,1,1D,3D,0,1,0,1,D13,0.189168983025709,3.61091791264422,0.954881901412484,0.5,0.5,0.274040783467469,0.5,0.849803297993071,0.5,0.150196702006929,0.274040783467469,0.5,0.954881901412484,0.274040783467469,0.5,0.5,0.150196702006929,0.954881901412484,3.75234369313561,0,0,1,3D,1D,0.954881901412484,0.5,0.656329493469834,0.343670506530167,1,1,0.0451180985875163,0.0203897004165453,0.5,0.71166014350965,0.840343693135608,0.561127951332293,4.91153381248194,0.5,0.117565065771087,0.683830786958274,0.5,0.451918433065062,1.04128027471403,0.605620363668007,4.10229677218385,0.5,121.15581842515
200,1,23,A,1,0,l,63,1,1,1A,0A,0,1,0,1,A10,2.19771675638503,3.63758615972639,0.954881901412484,0.5,0.5,0.274040783467469,0.5,0.849803297993071,0.5,0.150196702006929,0.274040783467469,0.5,0.954881901412484,0.274040783467469,0.5,0.5,0.150196702006929,0.975271601829029,3.92934369313561,0,0,1,0A,1A,0.954881901412484,0.5,0.656329493469834,0.343670506530167,1,1,0.0451180985875163,0.0203897004165453,0.5,0.71166014350965,0.840343693135608,0.561127951332293,4.91153381248194,0.5,0.111698198856496,0.685048533951422,0.5,0.451918433065062,1.04128027471403,0.605620363668007,4.10229677218385,0.5,121.15581842515
200,1,24,C,2,3,a,63,1,1,2C,3C,1,0,1,0,C23,2.84944798938453,2.56494935746154,0.975271601829029,0.5,0.5,0.274040783467469,0.5,0.849803297993071,0.5,0.150196702006929,0.274040783467469,0.5,0.954881901412484,0.274040783467469,0.5,0.5,0.150196702006929,0.975271601829029,3.04234369313561,1,1,0,2C,3C,0.954881901412484,0.274040783467469,0.777007303356729,0.222992696643271,1,1,0.0451180985875163,0.0203897004165453,0.5,0.71166014350965,0.840343693135608,0.561127951332293,4.91153381248194,0.5,0.179588692325592,0.798563145790707,0.5,0.451918433065062,1.04128027471403,0.605620363668007,4.10229677218385,0.5,121.15581842515
200,1,25,A,2,0,l,27,1,1,2A,0A,0,1,0,1,A20,0.38703712874455,2.99573227355399,0.975271601829029,0.5,0.5,0.274040783467469,0.5,0.849803297993071,0.5,0.150196702006929,0.274040783467469,0.5,0.975271601829029,0.274040783467469,0.5,0.5,0.150196702006929,0.975271601829029,5.83534369313561,1,1,0,2A,0A,0.5,0.975271601829029,0.338920643073522,0.661079356926478,0,0,-0.5,-0.225959216532531,0.5,0.71166014350965,0.840343693135608,0.561127951332293,4.91153381248194,0.5,0.0280699560187069,0.310700297408455,0.5,0.451918433065062,1.04128027471403,0.605620363668007,4.10229677218385,0.5,121.15581842515
200,1,26,B,0,1,l,63,1,1,0B,1B,0,1,0,1,B01,2.12035118386134,3.02042488614436,0.975271601829029,0.5,0.274040783467469,0.274040783467469,0.5,0.849803297993071,0.5,0.150196702006929,0.274040783467469,0.5,0.975271601829029,0.274040783467469,0.5,0.5,0.150196702006929,0.975271601829029,5.75134369313561,0,0,1,1B,0B,0.849803297993071,0.5,0.629575656880217,0.370424343119783,1,1,0.150196702006929,0.0678766582225112,0.5,0.71166014350965,0.840343693135608,0.561127951332293,4.91153381248194,0.5,0.0610675850781484,0.655537650319193,0.5,0.451918433065062,1.04128027471403,0.605620363668007,4.10229677218385,0.5,121.15581842515
200,1,27,B,1,0,a,63,1,1,1B,0B,1,0,1,0,B10,2.13193840599466,3.04452243772342,0.975271601829029,0.5,0.274040783467469,0.274040783467469,0.5,0.917679956215583,0.5,0.150196702006929,0.274040783467469,0.5,0.975271601829029,0.274040783467469,0.5,0.5,0.150196702006929,0.975271601829029,5.89934369313561,0,0,1,0B,1B,0.5,0.917679956215583,0.352688911067574,0.647311088932426,0,0,-0.5,-0.225959216532531,0.5,0.71166014350965,0.840343693135608,0.561127951332293,4.91153381248194,0.5,0.0288320485376046,0.324763127813968,0.5,0.451918433065062,1.04128027471403,0.605620363668007,4.10229677218385,0.5,121.15581842515
200,1,28,C,2,3,a,63,1,1,2C,3C,1,0,1,0,C23,0.419525899379847,2.37490575457367,0.975271601829029,0.5,0.274040783467469,0.274040783467469,0.274040783467469,0.917679956215583,0.5,0.150196702006929,0.274040783467469,0.5,0.975271601829029,0.274040783467469,0.5,0.5,0.150196702006929,0.975271601829029,8.90634369313561,1,1,0,2C,3C,0.975271601829029,0.274040783467469,0.780646708787385,0.219353291212615,1,1,0.0247283981709709,0.0111752189536341,0.5,0.71166014350965,0.840343693135608,0.561127951332293,4.91153381248194,0.5,0.0237271567166054,0.800560837405784,0.5,0.451918433065062,1.04128027471403,0.605620363668007,4.10229677218385,0.5,121.15581842515
200,1,29,D,1,3,l,27,1,1,1D,3D,0,1,0,1,D13,1.62322529802786,3.09104245335832,0.975271601829029,0.5,0.274040783467469,0.274040783467469,0.274040783467469,0.917679956215583,0.5,0.150196702006929,0.274040783467469,0.5,0.986446820782663,0.274040783467469,0.5,0.5,0.150196702006929,0.975271601829029,6.40434369313561,0,0,1,3D,1D,0.975271601829029,0.5,0.661079356926478,0.338920643073522,1,1,0.0247283981709709,0.0111752189536341,0.5,0.71166014350965,0.840343693135608,0.561127951332293,4.91153381248194,0.5,0.0521741553289944,0.689819246630953,0.5,0.451918433065062,1.04128027471403,0.605620363668007,4.10229677218385,0.5,121.15581842515
200,1,30,C,2,1,a,9,1,1,2C,1C,1,0,1,0,C21,0.97164766743859,3.80666248977032,0.975271601829029,0.5,0.274040783467469,0.274040783467469,0.274040783467469,0.917679956215583,0.5,0.150196702006929,0.274040783467469,0.5,0.986446820782663,0.274040783467469,0.5,0.5,0.150196702006929,0.986446820782663,5.41934369313561,0,0,1,1C,2C,0.5,0.986446820782663,0.336372612197948,0.663627387802052,0,0,-0.5,-0.225959216532531,0.5,0.71166014350965,0.840343693135608,0.561127951332293,4.91153381248194,0.5,0.0316443750149504,0.307715753956065,0.5,0.451918433065062,1.04128027471403,0.605620363668007,4.10229677218385,0.5,121.15581842515
200,1,31,B,1,3,a,27,1,1,1B,3B,1,0,1,0,B13,2.08794014128636,3.13549421592915,0.975271601829029,0.5,0.274040783467469,0.274040783467469,0.274040783467469,0.917679956215583,0.5,0.150196702006929,0.274040783467469,0.274040783467469,0.986446820782663,0.274040783467469,0.5,0.5,0.150196702006929,0.986446820782663,2.39834369313561,1,1,0,1B,3B,0.917679956215583,0.150196702006929,0.859350140439503,0.140649859560497,1,1,0.0823200437844175,0.0372019451969012,0.5,0.71166014350965,0.840343693135608,0.561127951332293,4.91153381248194,0.5,0.236547347137208,0.857351672127168,0.5,0.451918433065062,1.04128027471403,0.605620363668007,4.10229677218385,0.5,121.15581842515
200,1,32,D,2,3,l,63,1,1,2D,3D,0,1,0,1,D23,2.53400782041674,2.46385324059017,0.975271601829029,0.5,0.274040783467469,0.274040783467469,0.274040783467469,0.954881901412484,0.5,0.150196702006929,0.274040783467469,0.274040783467469,0.986446820782663,0.274040783467469,0.5,0.5,0.150196702006929,0.986446820782663,7.11834369313561,0,0,1,3D,2D,0.986446820782663,0.150196702006929,0.867859448458994,0.132140551541006,1,1,0.0135531792173368,0.0061249315149488,0.5,0.71166014350965,0.840343693135608,0.561127951332293,4.91153381248194,0.5,0.0428817244219872,0.861221736052334,0.5,0.451918433065062,1.04128027471403,0.605620363668007,4.10229677218385,0.5,121.15581842515
200,1,33,B,1,0,a,63,1,1,1B,0B,1,0,1,0,B10,1.6596017382095,2.77258872223978,0.975271601829029,0.5,0.274040783467469,0.274040783467469,0.274040783467469,0.954881901412484,0.5,0.150196702006929,0.274040783467469,0.274040783467469,0.986446820782663,0.274040783467469,0.5,0.5,0.150196702006929,0.992571752297612,2.07134369313561,1,1,0,1B,0B,0.954881901412484,0.274040783467469,0.777007303356729,0.222992696643271,1,1,0.0451180985875163,0.0203897004165453,0.5,0.71166014350965,0.840343693135608,0.561127951332293,4.91153381248194,0.5,0.19064410441262,0.798261362223907,0.5,0.451918433065062,1.04128027471403,0.605620363668007,4.10229677218385,0.5,121.15581842515
200,1,34,A,0,1,a,63,1,1,0A,1A,1,0,1,0,A01,0.0297922443947927,2.50552593699074,0.975271601829029,0.5,0.274040783467469,0.274040783467469,0.274040783467469,0.975271601829029,0.5,0.150196702006929,0.274040783467469,0.274040783467469,0.986446820782663,0.274040783467469,0.5,0.5,0.150196702006929,0.992571752297612,5.97834369313561,1,1,0,0A,1A,0.975271601829029,0.5,0.661079356926478,0.338920643073522,1,1,0.0247283981709709,0.0111752189536341,0.5,0.71166014350965,0.840343693135608,0.561127951332293,4.91153381248194,0.5,0.0596546582513453,0.690625339471403,0.5,0.451918433065062,1.04128027471403,0.605620363668007,4.10229677218385,0.5,121.15581842515
200,1,35,C,3,2,l,63,1,1,3C,2C,0,1,0,1,C32,3.30917941896359,2.81341071676004,0.986446820782663,0.5,0.274040783467469,0.274040783467469,0.274040783467469,0.975271601829029,0.5,0.150196702006929,0.274040783467469,0.274040783467469,0.986446820782663,0.274040783467469,0.5,0.5,0.150196702006929,0.992571752297612,4.14334369313561,1,1,0,3C,2C,0.274040783467469,0.986446820782663,0.217408550900028,0.782591449099972,0,0,-0.274040783467469,-0.123844081460541,0.5,0.71166014350965,0.840343693135608,0.561127951332293,4.91153381248194,0.5,0.0309973367685098,0.197160524178187,0.5,0.451918433065062,1.04128027471403,0.605620363668007,4.10229677218385,0.5,121.15581842515
200,1,36,A,2,0,l,27,1,1,2A,0A,0,1,0,1,A20,2.53566108163138,2.83321334405622,0.986446820782663,0.5,0.274040783467469,0.274040783467469,0.274040783467469,0.975271601829029,0.5,0.150196702006929,0.274040783467469,0.274040783467469,0.986446820782663,0.150196702006929,0.5,0.5,0.150196702006929,0.992571752297612,10.6003436931356,1,1,0,2A,0A,0.274040783467469,0.986446820782663,0.217408550900028,0.782591449099972,0,0,-0.274040783467469,-0.123844081460541,0.5,0.71166014350965,0.840343693135608,0.561127951332293,4.91153381248194,0.5,0.00318782532164367,0.196553939003179,0.5,0.451918433065062,1.04128027471403,0.605620363668007,4.10229677218385,0.5,121.15581842515
200,1,37,B,1,0,a,63,1,1,1B,0B,1,0,1,0,B10,1.79067896691545,2.56494935746154,0.986446820782663,0.5,0.150196702006929,0.274040783467469,0.274040783467469,0.975271601829029,0.5,0.150196702006929,0.274040783467469,0.274040783467469,0.986446820782663,0.150196702006929,0.5,0.5,0.150196702006929,0.992571752297612,3.09634369313561,1,1,0,1B,0B,0.975271601829029,0.274040783467469,0.780646708787385,0.219353291212615,1,1,0.0247283981709709,0.0111752189536341,0.5,0.71166014350965,0.840343693135608,0.561127951332293,4.91153381248194,0.5,0.178157737396532,0.802203150857732,0.5,0.451918433065062,1.04128027471403,0.605620363668007,4.10229677218385,0.5,121.15581842515
200,1,38,D,3,2,a,63,1,1,3D,2D,1,0,1,0,D32,1.3507124272062,2.87167962488401,0.986446820782663,0.5,0.150196702006929,0.274040783467469,0.274040783467469,0.986446820782663,0.5,0.150196702006929,0.274040783467469,0.274040783467469,0.986446820782663,0.150196702006929,0.5,0.5,0.150196702006929,0.992571752297612,5.96034369313561,1,1,0,3D,2D,0.992571752297612,0.150196702006929,0.868567686269976,0.131432313730024,1,1,0.00742824770238804,0.00335696206208235,0.5,0.71166014350965,0.840343693135608,0.561127951332293,4.91153381248194,0.5,0.0675158409266637,0.862157378367407,0.5,0.451918433065062,1.04128027471403,0.605620363668007,4.10229677218385,0.5,121.15581842515
200,1,39,B,2,1,l,9,1,1,2B,1B,0,1,0,1,B21,1.37571003013066,3.98898404656427,0.986446820782663,0.5,0.150196702006929,0.274040783467469,0.274040783467469,0.986446820782663,0.5,0.150196702006929,0.274040783467469,0.274040783467469,0.986446820782663,0.150196702006929,0.5,0.5,0.150196702006929,0.995928714359694,6.17534369313561,0,0,1,1B,2B,0.986446820782663,0.5,0.663627387802052,0.336372612197948,1,1,0.0135531792173368,0.0061249315149488,0.5,0.71166014350965,0.840343693135608,0.561127951332293,4.91153381248194,0.5,0.0562111807031029,0.69236958764838,0.5,0.451918433065062,1.04128027471403,0.605620363668007,4.10229677218385,0.5,121.15581842515
200,1,40,D,3,1,a,27,1,1,3D,1D,1,0,1,0,D31,2.29371318012935,4.00733318523247,0.986446820782663,0.5,0.150196702006929,0.274040783467469,0.274040783467469,0.992571752297612,0.5,0.150196702006929,0.274040783467469,0.274040783467469,0.986446820782663,0.150196702006929,0.5,0.5,0.150196702006929,0.995928714359694,4.29334369313561,1,1,0,3D,1D,0.995928714359694,0.5,0.665759474231353,0.334240525768647,1,1,0.00407128564030568,0.00183988902712723,0.5,0.71166014350965,0.840343693135608,0.561127951332293,4.91153381248194,0.5,0.101884791784815,0.69703513609651,0.5,0.451918433065062,1.04128027471403,0.605620363668007,4.10229677218385,0.5,121.15581842515
200,1,41,A,0,1,a,63,1,1,0A,1A,1,0,1,0,A01,0.834526758368753,2.41591377830105,0.986446820782663,0.5,0.150196702006929,0.274040783467469,0.274040783467469,0.992571752297612,0.5,0.150196702006929,0.274040783467469,0.274040783467469,0.986446820782663,0.150196702006929,0.5,0.5,0.150196702006929,0.997768603386821,3.23334369313561,1,1,0,0A,1A,0.986446820782663,0.5,0.663627387802052,0.336372612197948,1,1,0.0135531792173368,0.0061249315149488,0.5,0.71166014350965,0.840343693135608,0.561127951332293,4.91153381248194,0.5,0.139068473747512,0.694152012763702,0.5,0.451918433065062,1.04128027471403,0.605620363668007,4.10229677218385,0.5,121.15581842515
200,1,42,A,1,0,l,63,1,1,1A,0A,0,1,0,1,A10,0.817178985650305,3.3499040872746,0.992571752297612,0.5,0.150196702006929,0.274040783467469,0.274040783467469,0.992571752297612,0.5,0.150196702006929,0.274040783467469,0.274040783467469,0.986446820782663,0.150196702006929,0.5,0.5,0.150196702006929,0.997768603386821,8.43234369313561,0,0,1,0A,1A,0.992571752297612,0.5,0.665007729624845,0.334992270375155,1,1,0.00742824770238804,0.00335696206208235,0.5,0.71166014350965,0.840343693135608,0.561127951332293,4.91153381248194,0.5,0.0277922008363537,0.694750451206807,0.5,0.451918433065062,1.04128027471403,0.605620363668007,4.10229677218385,0.5,121.15581842515
200,1,43,C,0,2,l,27,1,1,0C,2C,0,1,0,1,C02,2.13481465915685,2.96183072187831,0.995928714359694,0.5,0.150196702006929,0.274040783467469,0.274040783467469,0.992571752297612,0.5,0.150196702006929,0.274040783467469,0.274040783467469,0.986446820782663,0.150196702006929,0.5,0.5,0.150196702006929,0.997768603386821,2.84734369313561,0,0,1,2C,0C,0.986446820782663,0.274040783467469,0.782591449099972,0.217408550900028,1,1,0.0135531792173368,0.0061249315149488,0.5,0.71166014350965,0.840343693135608,0.561127951332293,4.91153381248194,0.5,0.190778776785672,0.802551593760532,0.5,0.451918433065062,1.04128027471403,0.605620363668007,4.10229677218385,0.5,121.15581842515
200,1,44,B,1,0,a,63,1,1,1B,0B,1,0,1,0,B10,1.02443712874481,2.46809953147162,0.995928714359694,0.5,0.150196702006929,0.274040783467469,0.274040783467469,0.992571752297612,0.5,0.150196702006929,0.274040783467469,0.274040783467469,0.992571752297612,0.150196702006929,0.5,0.5,0.150196702006929,0.997768603386821,4.09634369313561,1,1,0,1B,0B,0.992571752297612,0.274040783467469,0.783642767042458,0.216357232957542,1,1,0.00742824770238804,0.00335696206208235,0.5,0.71166014350965,0.840343693135608,0.561127951332293,4.91153381248194,0.5,0.128424594428824,0.803492658259977,0.5,0.451918433065062,1.04128027471403,0.605620363668007,4.10229677218385,0.5,121.15581842515
