ID,session,trialNr,mod2Stim,visStimLeft,visStimRight,correctKey,frequency,rewardAccurate,probFB,stimPairLeft,stimPairRight,leftCorrect,rightCorrect,pCorrectLeft,pCorrectRight,triplet,rt,surprise,0A belief,1A belief,2A belief,3A belief,0B belief,1B belief,2B belief,3B belief,0C belief,1C belief,2C belief,3C belief,0D belief,1D belief,2D belief,3D belief,reactionTime,choice,choiceLeft,choiceRight,chosenPair,otherPair,beliefPair,beliefOtherPair,beliefPairNorm,beliefOtherPairNorm,choiceAccurate,reward,rewardPE,update2,sim_CBCsimpleRW_CBCdriftDiffusionLR_startBelief,sim_CBCsimpleRW_CBCdriftDiffusionLR_alpha1,sim_CBCsimpleRW_CBCdriftDiffusionLR_nonDecisionTime,sim_CBCsimpleRW_CBCdriftDiffusionLR_weight,sim_CBCsimpleRW_CBCdriftDiffusionLR_startingBoundary,sim_CBCsimpleRW_CBCdriftDiffusionLR_startingPoint,lik,corrLik,fitCBCsimpleRW_CBCdriftDiffusionLR_startBelief,fitCBCsimpleRW_CBCdriftDiffusionLR_alpha1,fitCBCsimpleRW_CBCdriftDiffusionLR_nonDecisionTime,fitCBCsimpleRW_CBCdriftDiffusionLR_weight,fitCBCsimpleRW_CBCdriftDiffusionLR_startingBoundary,fitCBCsimpleRW_CBCdriftDiffusionLR_startingPoint,fit_CBCsimpleRW_CBCdriftDiffusionLR_NLL
122,1,1,A,0,1,a,63,1,0.95,0A,1A,1,0,1,0,A01,0.422255573299334,2.77258872223978,0.5,0.5,0.5,0.5,0.5,0.5,0.5,0.5,0.5,0.5,0.5,0.5,0.5,0.5,0.5,0.5,2.90050305447294,1,1,0,0A,1A,0.5,0.5,0.5,0.5,1,1,0.5,0.102186063362514,0.5,0.125393758450096,0.365503054472937,6.94052752417092,3.09003817117942,0.5,0.0892668560452424,0.500288068702553,0.5,0.204372126725028,0.381894434726497,4.60685085908464,3.07352534626613,0.5,61.1895309713223
122,1,2,C,2,3,a,63,1,0.95,2C,3C,1,0,1,0,C23,1.64285559279585,2.83321334405622,0.602186063362514,0.5,0.5,0.5,0.5,0.5,0.5,0.5,0.5,0.5,0.5,0.5,0.5,0.5,0.5,0.5,4.16950305447294,0,0,1,3C,2C,0.5,0.5,0.5,0.5,0,0,-0.5,-0.102186063362514,0.5,0.125393758450096,0.365503054472937,6.94052752417092,3.09003817117942,0.5,0.046048456138337,0.500738221775852,0.5,0.204372126725028,0.381894434726497,4.60685085908464,3.07352534626613,0.5,61.1895309713223
122,1,3,A,2,0,l,27,1,0.95,2A,0A,0,1,0,1,A20,2.51157756423147,2.89037175789616,0.602186063362514,0.5,0.5,0.5,0.5,0.5,0.5,0.5,0.5,0.5,0.5,0.397813936637486,0.5,0.5,0.5,0.5,1.30450305447294,0,0,1,0A,2A,0.602186063362514,0.5,0.546356085764126,0.453643914235874,1,1,0.397813936637486,0.0813020802714587,0.5,0.125393758450096,0.365503054472937,6.94052752417092,3.09003817117942,0.5,0.340746041710062,0.787781954384815,0.5,0.204372126725028,0.381894434726497,4.60685085908464,3.07352534626613,0.5,61.1895309713223
122,1,4,B,0,1,l,63,1,0.95,0B,1B,0,1,0,1,B01,0.184287469802194,2.94443897916644,0.683488143633973,0.5,0.5,0.5,0.5,0.5,0.5,0.5,0.5,0.5,0.5,0.397813936637486,0.5,0.5,0.5,0.5,2.18550305447294,0,0,1,1B,0B,0.5,0.5,0.5,0.5,1,1,0.5,0.102186063362514,0.5,0.125393758450096,0.365503054472937,6.94052752417092,3.09003817117942,0.5,0.129700770027197,0.501093242260662,0.5,0.204372126725028,0.381894434726497,4.60685085908464,3.07352534626613,0.5,61.1895309713223
122,1,5,D,3,2,a,63,1,0.95,3D,2D,1,0,1,0,D32,2.79206742848683,2.99573227355399,0.683488143633973,0.5,0.5,0.5,0.5,0.602186063362514,0.5,0.5,0.5,0.5,0.5,0.397813936637486,0.5,0.5,0.5,0.5,3.09850305447294,1,1,0,3D,2D,0.5,0.5,0.5,0.5,1,1,0.5,0.102186063362514,0.5,0.125393758450096,0.365503054472937,6.94052752417092,3.09003817117942,0.5,0.0804677423209924,0.500095153998154,0.5,0.204372126725028,0.381894434726497,4.60685085908464,3.07352534626613,0.5,61.1895309713223
122,1,6,B,2,1,l,9,1,0.95,2B,1B,0,1,0,1,B21,0.0927381575824293,3.04452243772342,0.683488143633973,0.5,0.5,0.5,0.5,0.602186063362514,0.5,0.5,0.5,0.5,0.5,0.397813936637486,0.5,0.5,0.5,0.602186063362514,1.46150305447294,0,0,1,1B,2B,0.602186063362514,0.5,0.546356085764126,0.453643914235874,1,1,0.397813936637486,0.0813020802714587,0.5,0.125393758450096,0.365503054472937,6.94052752417092,3.09003817117942,0.5,0.319878008525907,0.788291054027524,0.5,0.204372126725028,0.381894434726497,4.60685085908464,3.07352534626613,0.5,61.1895309713223
122,1,7,D,3,1,a,27,1,0.95,3D,1D,1,0,1,0,D31,2.79479963159273,3.09104245335832,0.683488143633973,0.5,0.5,0.5,0.5,0.683488143633973,0.5,0.5,0.5,0.5,0.5,0.397813936637486,0.5,0.5,0.5,0.602186063362514,3.17850305447294,1,1,0,3D,1D,0.602186063362514,0.5,0.546356085764126,0.453643914235874,1,1,0.397813936637486,0.0813020802714587,0.5,0.125393758450096,0.365503054472937,6.94052752417092,3.09003817117942,0.5,0.115277662998263,0.788233143129083,0.5,0.204372126725028,0.381894434726497,4.60685085908464,3.07352534626613,0.5,61.1895309713223
122,1,8,A,0,1,a,63,1,0.95,0A,1A,1,0,1,0,A01,1.47161397166671,2.4423470353692,0.683488143633973,0.5,0.5,0.5,0.5,0.683488143633973,0.5,0.5,0.5,0.5,0.5,0.397813936637486,0.5,0.5,0.5,0.683488143633973,1.42250305447294,1,1,0,0A,1A,0.683488143633973,0.5,0.577520059926651,0.422479940073349,1,1,0.316511856366027,0.0646862012192117,0.5,0.125393758450096,0.365503054472937,6.94052752417092,3.09003817117942,0.5,0.426855545901784,0.900013292910201,0.5,0.204372126725028,0.381894434726497,4.60685085908464,3.07352534626613,0.5,61.1895309713223
122,1,9,A,1,0,l,63,1,0.95,1A,0A,0,1,0,1,A10,0.312525399988939,3.17805383034795,0.748174344853185,0.5,0.5,0.5,0.5,0.683488143633973,0.5,0.5,0.5,0.5,0.5,0.397813936637486,0.5,0.5,0.5,0.683488143633973,1.28050305447294,0,0,1,0A,1A,0.748174344853185,0.5,0.599414935852722,0.400585064147278,1,1,0.251825655146815,0.0514661447062783,0.5,0.125393758450096,0.365503054472937,6.94052752417092,3.09003817117942,0.5,0.541553751471833,0.943278549097393,0.5,0.204372126725028,0.381894434726497,4.60685085908464,3.07352534626613,0.5,61.1895309713223
122,1,10,C,0,2,l,27,1,0.95,0C,2C,0,1,0,1,C02,2.13104986842541,3.2188758248682,0.799640489559463,0.5,0.5,0.5,0.5,0.683488143633973,0.5,0.5,0.5,0.5,0.5,0.397813936637486,0.5,0.5,0.5,0.683488143633973,2.46350305447294,0,0,1,2C,0C,0.5,0.5,0.5,0.5,1,1,0.5,0.102186063362514,0.5,0.125393758450096,0.365503054472937,6.94052752417092,3.09003817117942,0.5,0.112238707654448,0.500854744541895,0.5,0.204372126725028,0.381894434726497,4.60685085908464,3.07352534626613,0.5,61.1895309713223
122,1,11,B,1,0,a,63,1,0.95,1B,0B,1,0,1,0,B10,2.93763989460779,3.25809653802148,0.799640489559463,0.5,0.5,0.5,0.5,0.683488143633973,0.5,0.5,0.5,0.5,0.602186063362514,0.397813936637486,0.5,0.5,0.5,0.683488143633973,0.838503054472937,1,1,0,1B,0B,0.683488143633973,0.5,0.577520059926651,0.422479940073349,1,1,0.316511856366027,0.0646862012192117,0.5,0.125393758450096,0.365503054472937,6.94052752417092,3.09003817117942,0.5,0.398987425359021,0.899696454466578,0.5,0.204372126725028,0.381894434726497,4.60685085908464,3.07352534626613,0.5,61.1895309713223
122,1,12,A,1,0,l,63,1,0.95,1A,0A,0,1,0,1,A10,0.955395941215394,2.60268968544438,0.799640489559463,0.5,0.5,0.5,0.5,0.748174344853185,0.5,0.5,0.5,0.5,0.602186063362514,0.397813936637486,0.5,0.5,0.5,0.683488143633973,2.14250305447294,0,0,1,0A,1A,0.799640489559463,0.5,0.615278221926216,0.384721778073784,1,1,0.200359510440537,0.0409478992583181,0.5,0.125393758450096,0.365503054472937,6.94052752417092,3.09003817117942,0.5,0.250755235578373,0.963146994348308,0.5,0.204372126725028,0.381894434726497,4.60685085908464,3.07352534626613,0.5,61.1895309713223
122,1,13,C,2,3,a,63,1,0.95,2C,3C,1,0,1,0,C23,0.245257618428012,2.63905732961526,0.840588388817781,0.5,0.5,0.5,0.5,0.748174344853185,0.5,0.5,0.5,0.5,0.602186063362514,0.397813936637486,0.5,0.5,0.5,0.683488143633973,1.41350305447294,1,1,0,2C,3C,0.602186063362514,0.397813936637486,0.602186063362514,0.397813936637486,1,1,0.397813936637486,0.0813020802714587,0.5,0.125393758450096,0.365503054472937,6.94052752417092,3.09003817117942,0.5,0.50140448356778,0.947781405834112,0.5,0.204372126725028,0.381894434726497,4.60685085908464,3.07352534626613,0.5,61.1895309713223
122,1,14,A,2,0,l,27,1,0.95,2A,0A,0,1,0,1,A20,2.03789862312978,2.67414864942653,0.840588388817781,0.5,0.5,0.5,0.5,0.748174344853185,0.5,0.5,0.5,0.5,0.683488143633973,0.397813936637486,0.5,0.5,0.5,0.683488143633973,1.67450305447294,0,0,1,0A,2A,0.840588388817781,0.5,0.627029441571598,0.372970558428402,1,1,0.159411611182219,0.0325792900019734,0.5,0.125393758450096,0.365503054472937,6.94052752417092,3.09003817117942,0.5,0.416231494525798,0.973245359810441,0.5,0.204372126725028,0.381894434726497,4.60685085908464,3.07352534626613,0.5,61.1895309713223
122,1,15,B,0,1,l,63,1,0.95,0B,1B,0,1,0,1,B01,1.73667010298227,2.70805020110221,0.873167678819754,0.5,0.5,0.5,0.5,0.748174344853185,0.5,0.5,0.5,0.5,0.683488143633973,0.397813936637486,0.5,0.5,0.5,0.683488143633973,1.71250305447294,0,0,1,1B,0B,0.748174344853185,0.5,0.599414935852722,0.400585064147278,1,1,0.251825655146815,0.0514661447062783,0.5,0.125393758450096,0.365503054472937,6.94052752417092,3.09003817117942,0.5,0.383634905433084,0.943557537300016,0.5,0.204372126725028,0.381894434726497,4.60685085908464,3.07352534626613,0.5,61.1895309713223
122,1,16,B,1,0,a,63,1,0.95,1B,0B,1,0,1,0,B10,1.98187369452899,2.7408400239252,0.873167678819754,0.5,0.5,0.5,0.5,0.799640489559463,0.5,0.5,0.5,0.5,0.683488143633973,0.397813936637486,0.5,0.5,0.5,0.683488143633973,1.92950305447294,1,1,0,1B,0B,0.799640489559463,0.5,0.615278221926216,0.384721778073784,1,1,0.200359510440537,0.0409478992583181,0.5,0.125393758450096,0.365503054472937,6.94052752417092,3.09003817117942,0.5,0.315132463221968,0.96320234885329,0.5,0.204372126725028,0.381894434726497,4.60685085908464,3.07352534626613,0.5,61.1895309713223
122,1,17,C,2,3,a,63,1,0.95,2C,3C,1,0,1,0,C23,2.02077655916658,2.36712361413162,0.873167678819754,0.5,0.5,0.5,0.5,0.840588388817781,0.5,0.5,0.5,0.5,0.683488143633973,0.397813936637486,0.5,0.5,0.5,0.683488143633973,0.985503054472938,0,0,1,3C,2C,0.397813936637486,0.683488143633973,0.367902683159192,0.632097316840808,0,0,-0.397813936637486,-0.0813020802714587,0.5,0.125393758450096,0.365503054472937,6.94052752417092,3.09003817117942,0.5,0.0181499506502602,0.0230830750294713,0.5,0.204372126725028,0.381894434726497,4.60685085908464,3.07352534626613,0.5,61.1895309713223
122,1,18,D,1,3,l,27,1,0.95,1D,3D,0,1,0,1,D13,0.147770815473504,3.49650756146648,0.873167678819754,0.5,0.5,0.5,0.5,0.840588388817781,0.5,0.5,0.5,0.5,0.683488143633973,0.316511856366027,0.5,0.5,0.5,0.683488143633973,3.39150305447294,1,1,0,1D,3D,0.5,0.683488143633973,0.422479940073349,0.577520059926651,0,0,-0.5,-0.102186063362514,0.5,0.125393758450096,0.365503054472937,6.94052752417092,3.09003817117942,0.5,0.0107521367771008,0.100612542389714,0.5,0.204372126725028,0.381894434726497,4.60685085908464,3.07352534626613,0.5,61.1895309713223
122,1,19,C,2,1,a,9,1,0.95,2C,1C,1,0,1,0,C21,3.04931688667994,3.52636052461616,0.873167678819754,0.5,0.5,0.5,0.5,0.840588388817781,0.5,0.5,0.5,0.5,0.683488143633973,0.316511856366027,0.5,0.397813936637486,0.5,0.683488143633973,4.95150305447294,1,1,0,2C,1C,0.683488143633973,0.5,0.577520059926651,0.422479940073349,1,1,0.316511856366027,0.0646862012192117,0.5,0.125393758450096,0.365503054472937,6.94052752417092,3.09003817117942,0.5,0.0284675727060725,0.900298996349731,0.5,0.204372126725028,0.381894434726497,4.60685085908464,3.07352534626613,0.5,61.1895309713223
122,1,20,B,1,3,a,27,1,0.95,1B,3B,1,0,1,0,B13,0.42943834830881,3.55534806148941,0.873167678819754,0.5,0.5,0.5,0.5,0.840588388817781,0.5,0.5,0.5,0.5,0.748174344853185,0.316511856366027,0.5,0.397813936637486,0.5,0.683488143633973,0.967503054472937,1,1,0,1B,3B,0.840588388817781,0.5,0.627029441571598,0.372970558428402,1,1,0.159411611182219,0.0325792900019734,0.5,0.125393758450096,0.365503054472937,6.94052752417092,3.09003817117942,0.5,0.736615943294345,0.973311309831561,0.5,0.204372126725028,0.381894434726497,4.60685085908464,3.07352534626613,0.5,61.1895309713223
122,1,21,D,2,3,l,63,1,0.95,2D,3D,0,1,0,1,D23,1.43582156923842,3.58351893845611,0.873167678819754,0.5,0.5,0.5,0.5,0.873167678819754,0.5,0.5,0.5,0.5,0.748174344853185,0.316511856366027,0.5,0.397813936637486,0.5,0.683488143633973,0.885503054472937,0,0,1,3D,2D,0.683488143633973,0.5,0.577520059926651,0.422479940073349,1,1,0.316511856366027,0.0646862012192117,0.5,0.125393758450096,0.365503054472937,6.94052752417092,3.09003817117942,0.5,0.433728405121097,0.89994896707951,0.5,0.204372126725028,0.381894434726497,4.60685085908464,3.07352534626613,0.5,61.1895309713223
122,1,22,B,0,1,l,63,0,0.95,0B,1B,0,1,1,0,B01,2.96275334884656,2.51230562397611,0.873167678819754,0.5,0.5,0.5,0.5,0.873167678819754,0.5,0.5,0.5,0.5,0.748174344853185,0.316511856366027,0.5,0.397813936637486,0.5,0.748174344853185,2.07050305447294,0,0,1,1B,0B,0.873167678819754,0.5,0.635878408942925,0.364121591057075,1,0,-0.873167678819754,-0.17845113550795,0.5,0.125393758450096,0.365503054472937,6.94052752417092,3.09003817117942,0.5,0.250123214999584,0.979205750256577,0.5,0.204372126725028,0.381894434726497,4.60685085908464,3.07352534626613,0.5,61.1895309713223
122,1,23,A,0,3,a,9,1,0.95,0A,3A,1,0,1,0,A03,1.75911433891361,3.63758615972639,0.873167678819754,0.5,0.5,0.5,0.5,0.694716543311805,0.5,0.5,0.5,0.5,0.748174344853185,0.316511856366027,0.5,0.397813936637486,0.5,0.748174344853185,1.37850305447294,1,1,0,0A,3A,0.873167678819754,0.5,0.635878408942925,0.364121591057075,1,1,0.126832321180246,0.0259209912170787,0.5,0.125393758450096,0.365503054472937,6.94052752417092,3.09003817117942,0.5,0.590812898402162,0.979133348649003,0.5,0.204372126725028,0.381894434726497,4.60685085908464,3.07352534626613,0.5,61.1895309713223
122,1,24,D,3,2,a,63,1,0.95,3D,2D,1,0,1,0,D32,2.81360378277676,2.9704144655697,0.899088670036833,0.5,0.5,0.5,0.5,0.694716543311805,0.5,0.5,0.5,0.5,0.748174344853185,0.316511856366027,0.5,0.397813936637486,0.5,0.748174344853185,0.813503054472937,1,1,0,3D,2D,0.748174344853185,0.5,0.599414935852722,0.400585064147278,1,1,0.251825655146815,0.0514661447062783,0.5,0.125393758450096,0.365503054472937,6.94052752417092,3.09003817117942,0.5,0.478596909397924,0.943680971310159,0.5,0.204372126725028,0.381894434726497,4.60685085908464,3.07352534626613,0.5,61.1895309713223
122,1,25,B,3,1,l,27,1,0.95,3B,1B,0,1,0,1,B31,1.90275372131121,3.68887945411394,0.899088670036833,0.5,0.5,0.5,0.5,0.694716543311805,0.5,0.5,0.5,0.5,0.748174344853185,0.316511856366027,0.5,0.397813936637486,0.5,0.799640489559463,1.74350305447294,0,0,1,1B,3B,0.694716543311805,0.5,0.581490686808455,0.418509313191545,1,1,0.305283456688195,0.0623914292973346,0.5,0.125393758450096,0.365503054472937,6.94052752417092,3.09003817117942,0.5,0.349193885586377,0.909623096255504,0.5,0.204372126725028,0.381894434726497,4.60685085908464,3.07352534626613,0.5,61.1895309713223
122,1,26,C,3,2,l,63,1,0.95,3C,2C,0,1,0,1,C32,0.107426617625561,3.71357206670431,0.899088670036833,0.5,0.5,0.5,0.5,0.757107972609139,0.5,0.5,0.5,0.5,0.748174344853185,0.316511856366027,0.5,0.397813936637486,0.5,0.799640489559463,0.681503054472937,0,0,1,2C,3C,0.748174344853185,0.316511856366027,0.702718175549211,0.297281824450789,1,1,0.251825655146815,0.0514661447062783,0.5,0.125393758450096,0.365503054472937,6.94052752417092,3.09003817117942,0.5,0.758475354765154,0.996781355088582,0.5,0.204372126725028,0.381894434726497,4.60685085908464,3.07352534626613,0.5,61.1895309713223
122,1,27,C,0,2,l,27,1,0.95,0C,2C,0,1,0,1,C02,0.796468793207045,3.04452243772342,0.899088670036833,0.5,0.5,0.5,0.5,0.757107972609139,0.5,0.5,0.5,0.5,0.799640489559463,0.316511856366027,0.5,0.397813936637486,0.5,0.799640489559463,1.22750305447294,0,0,1,2C,0C,0.799640489559463,0.5,0.615278221926216,0.384721778073784,1,1,0.200359510440537,0.0409478992583181,0.5,0.125393758450096,0.365503054472937,6.94052752417092,3.09003817117942,0.5,0.619868878724523,0.963301556341071,0.5,0.204372126725028,0.381894434726497,4.60685085908464,3.07352534626613,0.5,61.1895309713223
122,1,28,B,1,0,a,63,1,0.95,1B,0B,1,0,1,0,B10,1.68134804169853,2.66258782702545,0.899088670036833,0.5,0.5,0.5,0.5,0.757107972609139,0.5,0.5,0.5,0.5,0.840588388817781,0.316511856366027,0.5,0.397813936637486,0.5,0.799640489559463,1.18750305447294,1,1,0,1B,0B,0.757107972609139,0.5,0.602261690408147,0.397738309591853,1,1,0.242892027390861,0.0496403602024241,0.5,0.125393758450096,0.365503054472937,6.94052752417092,3.09003817117942,0.5,0.582535960838792,0.947658100496291,0.5,0.204372126725028,0.381894434726497,4.60685085908464,3.07352534626613,0.5,61.1895309713223
122,1,29,C,3,2,l,63,1,0.95,3C,2C,0,1,0,1,C32,0.288696896513094,3.09104245335832,0.899088670036833,0.5,0.5,0.5,0.5,0.806748332811563,0.5,0.5,0.5,0.5,0.840588388817781,0.316511856366027,0.5,0.397813936637486,0.5,0.799640489559463,1.56850305447294,0,0,1,2C,3C,0.840588388817781,0.316511856366027,0.726461162130556,0.273538837869444,1,1,0.159411611182219,0.0325792900019734,0.5,0.125393758450096,0.365503054472937,6.94052752417092,3.09003817117942,0.5,0.326312931607968,0.998369569135144,0.5,0.204372126725028,0.381894434726497,4.60685085908464,3.07352534626613,0.5,61.1895309713223
122,1,30,A,0,1,a,63,1,0.95,0A,1A,1,0,1,0,A01,0.456733090992375,2.70805020110221,0.899088670036833,0.5,0.5,0.5,0.5,0.806748332811563,0.5,0.5,0.5,0.5,0.873167678819754,0.316511856366027,0.5,0.397813936637486,0.5,0.799640489559463,0.828503054472937,1,1,0,0A,1A,0.899088670036833,0.5,0.642624509290868,0.357375490709132,1,1,0.100911329963167,0.0206234631152235,0.5,0.125393758450096,0.365503054472937,6.94052752417092,3.09003817117942,0.5,0.747320621290864,0.982634221067756,0.5,0.204372126725028,0.381894434726497,4.60685085908464,3.07352534626613,0.5,61.1895309713223
122,1,31,D,3,2,a,63,1,0.95,3D,2D,1,0,1,0,D32,1.49349545342626,2.73002910782099,0.919712133152057,0.5,0.5,0.5,0.5,0.806748332811563,0.5,0.5,0.5,0.5,0.873167678819754,0.316511856366027,0.5,0.397813936637486,0.5,0.799640489559463,2.43050305447294,1,1,0,3D,2D,0.799640489559463,0.5,0.615278221926216,0.384721778073784,1,1,0.200359510440537,0.0409478992583181,0.5,0.125393758450096,0.365503054472937,6.94052752417092,3.09003817117942,0.5,0.183605953961538,0.963189428280724,0.5,0.204372126725028,0.381894434726497,4.60685085908464,3.07352534626613,0.5,61.1895309713223
122,1,32,C,3,2,l,63,1,0.95,3C,2C,0,1,0,1,C32,0.919072334608591,2.75153531304195,0.919712133152057,0.5,0.5,0.5,0.5,0.806748332811563,0.5,0.5,0.5,0.5,0.873167678819754,0.316511856366027,0.5,0.397813936637486,0.5,0.840588388817781,1.58350305447294,0,0,1,2C,3C,0.873167678819754,0.316511856366027,0.733952003875901,0.266047996124099,1,1,0.126832321180246,0.0259209912170787,0.5,0.125393758450096,0.365503054472937,6.94052752417092,3.09003817117942,0.5,0.29272801771674,0.998678618929438,0.5,0.204372126725028,0.381894434726497,4.60685085908464,3.07352534626613,0.5,61.1895309713223
122,1,33,D,1,3,l,27,1,0.95,1D,3D,0,1,0,1,D13,3.04158932862511,3.17805383034795,0.919712133152057,0.5,0.5,0.5,0.5,0.806748332811563,0.5,0.5,0.5,0.5,0.899088670036833,0.316511856366027,0.5,0.397813936637486,0.5,0.840588388817781,0.981503054472938,0,0,1,3D,1D,0.840588388817781,0.397813936637486,0.678768419228186,0.321231580771814,1,1,0.159411611182219,0.0325792900019734,0.5,0.125393758450096,0.365503054472937,6.94052752417092,3.09003817117942,0.5,1.02706462115238,0.993717011258651,0.5,0.204372126725028,0.381894434726497,4.60685085908464,3.07352534626613,0.5,61.1895309713223
122,1,34,C,2,0,a,27,1,0.95,2C,0C,1,0,1,0,C20,2.29761559254705,3.89182029811063,0.919712133152057,0.5,0.5,0.5,0.5,0.806748332811563,0.5,0.5,0.5,0.5,0.899088670036833,0.316511856366027,0.5,0.397813936637486,0.5,0.873167678819754,3.12550305447294,1,1,0,2C,0C,0.899088670036833,0.5,0.642624509290868,0.357375490709132,1,1,0.100911329963167,0.0206234631152235,0.5,0.125393758450096,0.365503054472937,6.94052752417092,3.09003817117942,0.5,0.0558352076491132,0.982731572549292,0.5,0.204372126725028,0.381894434726497,4.60685085908464,3.07352534626613,0.5,61.1895309713223
122,1,35,D,3,2,a,63,0,0.95,3D,2D,1,0,0,1,D32,0.384696474721964,2.52572864430826,0.919712133152057,0.5,0.5,0.5,0.5,0.806748332811563,0.5,0.5,0.5,0.5,0.919712133152057,0.316511856366027,0.5,0.397813936637486,0.5,0.873167678819754,0.689503054472937,1,1,0,3D,2D,0.873167678819754,0.5,0.635878408942925,0.364121591057075,1,0,-0.873167678819754,-0.17845113550795,0.5,0.125393758450096,0.365503054472937,6.94052752417092,3.09003817117942,0.5,0.416036795063717,0.979105283135342,0.5,0.204372126725028,0.381894434726497,4.60685085908464,3.07352534626613,0.5,61.1895309713223
122,1,36,A,0,1,a,63,1,0.95,0A,1A,1,0,1,0,A01,3.31056106051206,2.54553127160444,0.919712133152057,0.5,0.5,0.5,0.5,0.806748332811563,0.5,0.5,0.5,0.5,0.919712133152057,0.316511856366027,0.5,0.397813936637486,0.5,0.694716543311805,0.981503054472938,1,1,0,0A,1A,0.919712133152057,0.5,0.647815928085438,0.352184071914562,1,1,0.0802878668479434,0.0164086020979301,0.5,0.125393758450096,0.365503054472937,6.94052752417092,3.09003817117942,0.5,0.858614872564406,0.985148812735863,0.5,0.204372126725028,0.381894434726497,4.60685085908464,3.07352534626613,0.5,61.1895309713223
122,1,37,C,3,2,l,63,1,0.95,3C,2C,0,1,0,1,C32,1.94757210657866,2.56494935746154,0.936120735249987,0.5,0.5,0.5,0.5,0.806748332811563,0.5,0.5,0.5,0.5,0.919712133152057,0.316511856366027,0.5,0.397813936637486,0.5,0.694716543311805,0.903503054472937,0,0,1,2C,3C,0.919712133152057,0.316511856366027,0.743968844602819,0.256031155397181,1,1,0.0802878668479434,0.0164086020979301,0.5,0.125393758450096,0.365503054472937,6.94052752417092,3.09003817117942,0.5,1.43327097216204,0.999003368820601,0.5,0.204372126725028,0.381894434726497,4.60685085908464,3.07352534626613,0.5,61.1895309713223
122,1,38,A,2,0,l,27,1,0.95,2A,0A,0,1,0,1,A20,2.26036061833609,2.87167962488401,0.936120735249987,0.5,0.5,0.5,0.5,0.806748332811563,0.5,0.5,0.5,0.5,0.936120735249987,0.316511856366027,0.5,0.397813936637486,0.5,0.694716543311805,1.44950305447294,0,0,1,0A,2A,0.936120735249987,0.5,0.651839857382907,0.348160142617093,1,1,0.0638792647500133,0.0130551411905914,0.5,0.125393758450096,0.365503054472937,6.94052752417092,3.09003817117942,0.5,0.555023387039274,0.986566089435692,0.5,0.204372126725028,0.381894434726497,4.60685085908464,3.07352534626613,0.5,61.1895309713223
122,1,39,D,3,2,a,63,1,0.95,3D,2D,1,0,1,0,D32,3.40597805144149,2.37954613413017,0.949175876440578,0.5,0.5,0.5,0.5,0.806748332811563,0.5,0.5,0.5,0.5,0.936120735249987,0.316511856366027,0.5,0.397813936637486,0.5,0.694716543311805,5.98950305447294,1,1,0,3D,2D,0.694716543311805,0.5,0.581490686808455,0.418509313191545,1,1,0.305283456688195,0.0623914292973346,0.5,0.125393758450096,0.365503054472937,6.94052752417092,3.09003817117942,0.5,0.0115873411794104,0.909585043792139,0.5,0.204372126725028,0.381894434726497,4.60685085908464,3.07352534626613,0.5,61.1895309713223
122,1,40,D,2,3,l,63,1,0.95,2D,3D,0,1,0,1,D23,0.90804366174185,3.31418600467253,0.949175876440578,0.5,0.5,0.5,0.5,0.806748332811563,0.5,0.5,0.5,0.5,0.936120735249987,0.316511856366027,0.5,0.397813936637486,0.5,0.757107972609139,0.645503054472937,0,0,1,3D,2D,0.757107972609139,0.5,0.602261690408147,0.397738309591853,1,1,0.242892027390861,0.0496403602024241,0.5,0.125393758450096,0.365503054472937,6.94052752417092,3.09003817117942,0.5,0.193924427180457,0.947351750005875,0.5,0.204372126725028,0.381894434726497,4.60685085908464,3.07352534626613,0.5,61.1895309713223
122,1,41,B,1,3,a,27,1,0.95,1B,3B,1,0,1,0,B13,2.98673618248814,3.3322045101752,0.949175876440578,0.5,0.5,0.5,0.5,0.806748332811563,0.5,0.5,0.5,0.5,0.936120735249987,0.316511856366027,0.5,0.397813936637486,0.5,0.806748332811563,2.64650305447294,1,1,0,1B,3B,0.806748332811563,0.5,0.617370852944412,0.382629147055588,1,1,0.193251667188437,0.0394952542164582,0.5,0.125393758450096,0.365503054472937,6.94052752417092,3.09003817117942,0.5,0.142851362258368,0.965176010630159,0.5,0.204372126725028,0.381894434726497,4.60685085908464,3.07352534626613,0.5,61.1895309713223
122,1,42,D,0,3,l,9,1,0.95,0D,3D,0,1,0,1,D03,1.99638158905862,4.04305126783455,0.949175876440578,0.5,0.5,0.5,0.5,0.846243587028021,0.5,0.5,0.5,0.5,0.936120735249987,0.316511856366027,0.5,0.397813936637486,0.5,0.806748332811563,1.80650305447294,0,0,1,3D,0D,0.806748332811563,0.5,0.617370852944412,0.382629147055588,1,1,0.193251667188437,0.0394952542164582,0.5,0.125393758450096,0.365503054472937,6.94052752417092,3.09003817117942,0.5,0.359129111658494,0.965158665772373,0.5,0.204372126725028,0.381894434726497,4.60685085908464,3.07352534626613,0.5,61.1895309713223
122,1,43,B,1,0,a,63,1,0.95,1B,0B,1,0,1,0,B10,0.631129119565197,2.67414864942653,0.949175876440578,0.5,0.5,0.5,0.5,0.846243587028021,0.5,0.5,0.5,0.5,0.936120735249987,0.316511856366027,0.5,0.397813936637486,0.5,0.846243587028021,2.00150305447294,1,1,0,1B,0B,0.846243587028021,0.5,0.628596188076332,0.371403811923668,1,1,0.153756412971979,0.031423525116695,0.5,0.125393758450096,0.365503054472937,6.94052752417092,3.09003817117942,0.5,0.281849744433042,0.974442773131353,0.5,0.204372126725028,0.381894434726497,4.60685085908464,3.07352534626613,0.5,61.1895309713223
122,1,44,A,1,0,l,63,1,0.95,1A,0A,0,1,0,1,A10,3.13545872391826,2.97892515523761,0.949175876440578,0.5,0.5,0.5,0.5,0.877667112144716,0.5,0.5,0.5,0.5,0.936120735249987,0.316511856366027,0.5,0.397813936637486,0.5,0.846243587028021,1.00250305447294,0,0,1,0A,1A,0.949175876440578,0.5,0.654976315760869,0.345023684239131,1,1,0.0508241235594219,0.0103870342207747,0.5,0.125393758450096,0.365503054472937,6.94052752417092,3.09003817117942,0.5,0.891121489638231,0.987702074793602,0.5,0.204372126725028,0.381894434726497,4.60685085908464,3.07352534626613,0.5,61.1895309713223
