ID,filename,session,trial,visStimLeft,visStimRight,correctKey,leftCorrect,rightCorrect,secondStim,mod2Type,mod2Stim,frequency,rewardAccurate,stimPairLeft,stimPairRight,pCorrectLeft,pCorrectRight,key,reactionTime,choiceLeft,choiceRight,choiceAccurate,reward,chosenPair,otherPair,triplet,surprise,0A belief,1A belief,2A belief,3A belief,0B belief,1B belief,2B belief,3B belief,0C belief,1C belief,2C belief,3C belief,0D belief,1D belief,2D belief,3D belief,beliefPairNorm,beliefOtherPairNorm,beliefPair,beliefOtherPair,lik,corrLik,rewardPE,update2,fitCBCsimpleRW_CBCdriftDiffusionLR_startBelief,fitCBCsimpleRW_CBCdriftDiffusionLR_alpha1,fitCBCsimpleRW_CBCdriftDiffusionLR_nonDecisionTime,fitCBCsimpleRW_CBCdriftDiffusionLR_weight,fitCBCsimpleRW_CBCdriftDiffusionLR_startingBoundary,fitCBCsimpleRW_CBCdriftDiffusionLR_startingPoint,fit_CBCsimpleRW_CBCdriftDiffusionLR_NLL
CBC_1129,CBC_1129_MSI_AV_v3_Vset3_Aset1_2024-09-25_15h04.08.990.csv,1,1,1,0,b,1,0,3,aud,B,63,1,1B,0B,1,0,b,4.61973390000003,1,0,1,1,1B,0B,B10,2.77258872223978,0.5,0.5,0.5,0.5,0.5,0.5,0.5,0.5,0.5,0.5,0.5,0.5,0.5,0.5,0.5,0.5,0.5,0.5,0.5,0.5,0.029163517929369,0.500483929033587,0.5,0.00339972747007417,0.5,0.00679945494014833,1.08713389068347,1.23910966564091,2.46030260774372,0.5,71.8598195235852
CBC_1129,CBC_1129_MSI_AV_v3_Vset3_Aset1_2024-09-25_15h04.08.990.csv,1,2,3,2,b,1,0,2,aud,D,63,1,3D,2D,1,0,b,2.60628579999957,1,0,1,1,3D,2D,D32,2.83321334405622,0.5,0.5,0.5,0.5,0.5,0.503399727470074,0.5,0.5,0.5,0.5,0.5,0.5,0.5,0.5,0.5,0.5,0.5,0.5,0.5,0.5,0.15039313232204,0.499989806306588,0.5,0.00339972747007417,0.5,0.00679945494014833,1.08713389068347,1.23910966564091,2.46030260774372,0.5,71.8598195235852
CBC_1129,CBC_1129_MSI_AV_v3_Vset3_Aset1_2024-09-25_15h04.08.990.csv,1,3,3,1,z,0,1,3,aud,B,27,1,3B,1B,0,1,z,2.50040709999939,0,1,1,1,1B,3B,B31,2.89037175789616,0.5,0.5,0.5,0.5,0.5,0.503399727470074,0.5,0.5,0.5,0.5,0.5,0.5,0.5,0.5,0.5,0.503399727470074,0.501694104242307,0.498305895757693,0.503399727470074,0.5,0.164428831629832,0.501519807453294,0.496600272529926,0.00337661117633261,0.5,0.00679945494014833,1.08713389068347,1.23910966564091,2.46030260774372,0.5,71.8598195235852
CBC_1129,CBC_1129_MSI_AV_v3_Vset3_Aset1_2024-09-25_15h04.08.990.csv,1,4,2,3,b,1,0,0,aud,C,63,1,2C,3C,1,0,z,2.34902090000014,0,1,0,0,3C,2C,C23,2.94443897916644,0.5,0.5,0.5,0.5,0.5,0.506776338646407,0.5,0.5,0.5,0.5,0.5,0.5,0.5,0.5,0.5,0.503399727470074,0.5,0.5,0.5,0.5,0.185745866497737,0.501011205676606,-0.5,-0.00339972747007417,0.5,0.00679945494014833,1.08713389068347,1.23910966564091,2.46030260774372,0.5,71.8598195235852
CBC_1129,CBC_1129_MSI_AV_v3_Vset3_Aset1_2024-09-25_15h04.08.990.csv,1,5,0,2,z,0,1,0,aud,C,27,1,0C,2C,0,1,b,1.53997079999954,1,0,0,0,0C,2C,C02,2.99573227355399,0.5,0.5,0.5,0.5,0.5,0.506776338646407,0.5,0.5,0.5,0.5,0.5,0.496600272529926,0.5,0.5,0.5,0.503399727470074,0.5,0.5,0.5,0.5,0.302910291701259,0.50001628353626,-0.5,-0.00339972747007417,0.5,0.00679945494014833,1.08713389068347,1.23910966564091,2.46030260774372,0.5,71.8598195235852
CBC_1129,CBC_1129_MSI_AV_v3_Vset3_Aset1_2024-09-25_15h04.08.990.csv,1,6,0,3,b,1,0,1,aud,A,9,1,0A,3A,1,0,b,2.72949989999961,1,0,1,1,0A,3A,A03,3.04452243772342,0.5,0.5,0.5,0.5,0.5,0.506776338646407,0.5,0.5,0.496600272529926,0.5,0.5,0.496600272529926,0.5,0.5,0.5,0.503399727470074,0.5,0.5,0.5,0.5,0.136164994537897,0.500481480885728,0.5,0.00339972747007417,0.5,0.00679945494014833,1.08713389068347,1.23910966564091,2.46030260774372,0.5,71.8598195235852
CBC_1129,CBC_1129_MSI_AV_v3_Vset3_Aset1_2024-09-25_15h04.08.990.csv,1,7,2,3,b,1,0,0,aud,C,63,1,2C,3C,1,0,z,2.42885639999895,0,1,0,0,3C,2C,C23,2.39789527279837,0.503399727470074,0.5,0.5,0.5,0.5,0.506776338646407,0.5,0.5,0.496600272529926,0.5,0.5,0.496600272529926,0.5,0.5,0.5,0.503399727470074,0.49829433747723,0.50170566252277,0.496600272529926,0.5,0.172738846224779,0.497099297082839,-0.496600272529926,-0.00337661117633261,0.5,0.00679945494014833,1.08713389068347,1.23910966564091,2.46030260774372,0.5,71.8598195235852
CBC_1129,CBC_1129_MSI_AV_v3_Vset3_Aset1_2024-09-25_15h04.08.990.csv,1,8,1,0,z,0,1,1,aud,A,63,1,1A,0A,0,1,z,2.01547579999988,0,1,1,1,0A,1A,A10,3.13549421592915,0.503399727470074,0.5,0.5,0.5,0.5,0.506776338646407,0.5,0.5,0.496600272529926,0.5,0.5,0.493223661353593,0.5,0.5,0.5,0.503399727470074,0.501694104242307,0.498305895757693,0.503399727470074,0.5,0.2434104951965,0.503373090945645,0.496600272529926,0.00337661117633261,0.5,0.00679945494014833,1.08713389068347,1.23910966564091,2.46030260774372,0.5,71.8598195235852
CBC_1129,CBC_1129_MSI_AV_v3_Vset3_Aset1_2024-09-25_15h04.08.990.csv,1,9,2,3,z,0,1,2,aud,D,63,1,2D,3D,0,1,b,2.4973586999995,1,0,0,0,2D,3D,D23,3.17805383034795,0.506776338646407,0.5,0.5,0.5,0.5,0.506776338646407,0.5,0.5,0.496600272529926,0.5,0.5,0.493223661353593,0.5,0.5,0.5,0.503399727470074,0.498305895757693,0.501694104242307,0.5,0.503399727470074,0.163533133630496,0.497552529060091,-0.5,-0.00339972747007417,0.5,0.00679945494014833,1.08713389068347,1.23910966564091,2.46030260774372,0.5,71.8598195235852
CBC_1129,CBC_1129_MSI_AV_v3_Vset3_Aset1_2024-09-25_15h04.08.990.csv,1,10,3,2,z,0,1,0,aud,C,63,1,3C,2C,0,1,b,2.54796879999958,1,0,0,0,3C,2C,C32,3.2188758248682,0.506776338646407,0.5,0.5,0.5,0.5,0.506776338646407,0.5,0.5,0.496600272529926,0.5,0.5,0.493223661353593,0.5,0.5,0.496600272529926,0.503399727470074,0.49658871465206,0.503411285347941,0.493223661353593,0.5,0.155959656325121,0.494455014266417,-0.493223661353593,-0.00335365206078874,0.5,0.00679945494014833,1.08713389068347,1.23910966564091,2.46030260774372,0.5,71.8598195235852
CBC_1129,CBC_1129_MSI_AV_v3_Vset3_Aset1_2024-09-25_15h04.08.990.csv,1,11,3,1,b,1,0,2,aud,D,27,1,3D,1D,1,0,z,2.93324479999956,0,1,0,0,1D,3D,D31,3.25809653802148,0.506776338646407,0.5,0.5,0.5,0.5,0.506776338646407,0.5,0.5,0.496600272529926,0.5,0.5,0.489870009292804,0.5,0.5,0.496600272529926,0.503399727470074,0.498305895757693,0.501694104242307,0.5,0.503399727470074,0.114771017304246,0.498049002604315,-0.5,-0.00339972747007417,0.5,0.00679945494014833,1.08713389068347,1.23910966564091,2.46030260774372,0.5,71.8598195235852
CBC_1129,CBC_1129_MSI_AV_v3_Vset3_Aset1_2024-09-25_15h04.08.990.csv,1,12,0,1,b,1,0,1,aud,A,63,0,0A,1A,0,1,b,1.55984999999964,1,0,1,0,0A,1A,A01,3.29583686600433,0.506776338646407,0.5,0.5,0.5,0.5,0.506776338646407,0.5,0.5,0.496600272529926,0.5,0.5,0.489870009292804,0.5,0.496600272529926,0.496600272529926,0.503399727470074,0.50336536447386,0.49663463552614,0.506776338646407,0.5,0.307920474483408,0.505318473652928,-0.506776338646407,-0.00344580287935959,0.5,0.00679945494014833,1.08713389068347,1.23910966564091,2.46030260774372,0.5,71.8598195235852
CBC_1129,CBC_1129_MSI_AV_v3_Vset3_Aset1_2024-09-25_15h04.08.990.csv,1,13,3,2,z,0,1,0,aud,C,63,1,3C,2C,0,1,b,2.65288019999934,1,0,0,0,3C,2C,C32,2.63905732961526,0.503330535767047,0.5,0.5,0.5,0.5,0.506776338646407,0.5,0.5,0.496600272529926,0.5,0.5,0.489870009292804,0.5,0.496600272529926,0.496600272529926,0.503399727470074,0.494883171218394,0.505116828781606,0.489870009292804,0.5,0.142566506448726,0.492303201911995,-0.489870009292804,-0.00333084905471647,0.5,0.00679945494014833,1.08713389068347,1.23910966564091,2.46030260774372,0.5,71.8598195235852
CBC_1129,CBC_1129_MSI_AV_v3_Vset3_Aset1_2024-09-25_15h04.08.990.csv,1,14,2,0,z,0,1,1,aud,A,27,1,2A,0A,0,1,z,2.0061670999994,0,1,1,1,0A,2A,A20,3.36729582998647,0.503330535767047,0.5,0.5,0.5,0.5,0.506776338646407,0.5,0.5,0.496600272529926,0.5,0.5,0.486539160238088,0.5,0.496600272529926,0.496600272529926,0.503399727470074,0.50165974005989,0.49834025994011,0.503330535767047,0.5,0.244339166526695,0.501699377709604,0.496669464232953,0.00337708164219958,0.5,0.00679945494014833,1.08713389068347,1.23910966564091,2.46030260774372,0.5,71.8598195235852
CBC_1129,CBC_1129_MSI_AV_v3_Vset3_Aset1_2024-09-25_15h04.08.990.csv,1,15,1,0,b,1,0,3,aud,B,63,1,1B,0B,1,0,b,2.00166629999967,1,0,1,1,1B,0B,B10,2.70805020110221,0.506707617409247,0.5,0.5,0.5,0.5,0.506776338646407,0.5,0.5,0.496600272529926,0.5,0.5,0.486539160238088,0.5,0.496600272529926,0.496600272529926,0.503399727470074,0.50336536447386,0.49663463552614,0.506776338646407,0.5,0.24689312292276,0.505190488690682,0.493223661353593,0.00335365206078874,0.5,0.00679945494014833,1.08713389068347,1.23910966564091,2.46030260774372,0.5,71.8598195235852
CBC_1129,CBC_1129_MSI_AV_v3_Vset3_Aset1_2024-09-25_15h04.08.990.csv,1,16,2,3,z,0,1,2,aud,D,63,1,2D,3D,0,1,b,3.01439239999945,1,0,0,0,2D,3D,D23,2.7408400239252,0.506707617409247,0.5,0.5,0.5,0.5,0.510129990707195,0.5,0.5,0.496600272529926,0.5,0.5,0.486539160238088,0.5,0.496600272529926,0.496600272529926,0.503399727470074,0.496600272529926,0.503399727470074,0.496600272529926,0.503399727470074,0.106684578629722,0.494624471276031,-0.496600272529926,-0.00337661117633261,0.5,0.00679945494014833,1.08713389068347,1.23910966564091,2.46030260774372,0.5,71.8598195235852
CBC_1129,CBC_1129_MSI_AV_v3_Vset3_Aset1_2024-09-25_15h04.08.990.csv,1,17,2,1,z,0,1,3,aud,B,9,1,2B,1B,0,1,z,1.94240369999989,0,1,1,1,1B,2B,B21,3.46573590279973,0.506707617409247,0.5,0.5,0.5,0.5,0.510129990707195,0.5,0.5,0.496600272529926,0.5,0.5,0.486539160238088,0.5,0.496600272529926,0.493223661353593,0.503399727470074,0.505014201538608,0.494985798461392,0.510129990707195,0.5,0.259238761792781,0.50727872287355,0.489870009292805,0.00333084905471647,0.5,0.00679945494014833,1.08713389068347,1.23910966564091,2.46030260774372,0.5,71.8598195235852
CBC_1129,CBC_1129_MSI_AV_v3_Vset3_Aset1_2024-09-25_15h04.08.990.csv,1,18,3,1,b,1,0,2,aud,D,27,1,3D,1D,1,0,b,2.67507440000009,1,0,1,1,3D,1D,D31,2.80336038090653,0.506707617409247,0.5,0.5,0.5,0.5,0.513460839761912,0.5,0.5,0.496600272529926,0.5,0.5,0.486539160238088,0.5,0.496600272529926,0.493223661353593,0.503399727470074,0.503399727470074,0.496600272529926,0.503399727470074,0.496600272529926,0.143485786165219,0.504515778361995,0.496600272529926,0.00337661117633261,0.5,0.00679945494014833,1.08713389068347,1.23910966564091,2.46030260774372,0.5,71.8598195235852
CBC_1129,CBC_1129_MSI_AV_v3_Vset3_Aset1_2024-09-25_15h04.08.990.csv,1,19,1,0,z,0,1,1,aud,A,63,1,1A,0A,0,1,z,2.52521809999962,0,1,1,1,0A,1A,A10,2.83321334405622,0.506707617409247,0.5,0.5,0.5,0.5,0.513460839761912,0.5,0.5,0.496600272529926,0.5,0.5,0.486539160238088,0.5,0.496600272529926,0.493223661353593,0.506776338646407,0.503331462528568,0.496668537471431,0.506707617409247,0.5,0.162088311335781,0.504459544174691,0.493292382590753,0.00335411932774424,0.5,0.00679945494014833,1.08713389068347,1.23910966564091,2.46030260774372,0.5,71.8598195235852
CBC_1129,CBC_1129_MSI_AV_v3_Vset3_Aset1_2024-09-25_15h04.08.990.csv,1,20,0,1,b,1,0,1,aud,A,63,1,0A,1A,1,0,b,2.4757953999997,1,0,1,1,0A,1A,A01,2.86220088092947,0.510061736736991,0.5,0.5,0.5,0.5,0.513460839761912,0.5,0.5,0.496600272529926,0.5,0.5,0.486539160238088,0.5,0.496600272529926,0.493223661353593,0.506776338646407,0.50498075333964,0.49501924666036,0.510061736736991,0.5,0.170025167151907,0.508308110216448,0.489938263263009,0.00333131314451136,0.5,0.00679945494014833,1.08713389068347,1.23910966564091,2.46030260774372,0.5,71.8598195235852
CBC_1129,CBC_1129_MSI_AV_v3_Vset3_Aset1_2024-09-25_15h04.08.990.csv,1,21,0,2,z,0,1,0,aud,C,27,1,0C,2C,0,1,z,1.59894600000007,0,1,1,1,2C,0C,C02,2.89037175789616,0.513393049881502,0.5,0.5,0.5,0.5,0.513460839761912,0.5,0.5,0.496600272529926,0.5,0.5,0.486539160238088,0.5,0.496600272529926,0.493223661353593,0.506776338646407,0.50170566252277,0.49829433747723,0.5,0.496600272529926,0.30721253556059,0.502631663647332,0.5,0.00339972747007417,0.5,0.00679945494014833,1.08713389068347,1.23910966564091,2.46030260774372,0.5,71.8598195235852
CBC_1129,CBC_1129_MSI_AV_v3_Vset3_Aset1_2024-09-25_15h04.08.990.csv,1,22,1,0,b,1,0,3,aud,B,63,1,1B,0B,1,0,b,2.04925449999973,1,0,1,1,1B,0B,B10,2.51230562397611,0.513393049881502,0.5,0.5,0.5,0.5,0.513460839761912,0.5,0.5,0.496600272529926,0.5,0.503399727470074,0.486539160238088,0.5,0.496600272529926,0.493223661353593,0.506776338646407,0.506641026092865,0.493358973907135,0.513460839761912,0.5,0.239931073581289,0.509289785047314,0.486539160238088,0.00330820109665649,0.5,0.00679945494014833,1.08713389068347,1.23910966564091,2.46030260774372,0.5,71.8598195235852
CBC_1129,CBC_1129_MSI_AV_v3_Vset3_Aset1_2024-09-25_15h04.08.990.csv,1,23,0,2,z,0,1,0,aud,C,27,1,0C,2C,0,1,z,2.02820729999985,0,1,1,1,2C,0C,C02,2.53897387105828,0.513393049881502,0.5,0.5,0.5,0.5,0.516769040858568,0.5,0.5,0.496600272529926,0.5,0.503399727470074,0.486539160238088,0.5,0.496600272529926,0.493223661353593,0.506776338646407,0.503399727470074,0.496600272529926,0.503399727470074,0.496600272529926,0.24179098966381,0.504950726747842,0.496600272529926,0.00337661117633261,0.5,0.00679945494014833,1.08713389068347,1.23910966564091,2.46030260774372,0.5,71.8598195235852
CBC_1129,CBC_1129_MSI_AV_v3_Vset3_Aset1_2024-09-25_15h04.08.990.csv,1,24,2,3,z,0,1,2,aud,D,63,1,2D,3D,0,1,z,3.02157049999914,0,1,1,1,3D,2D,D23,2.56494935746154,0.513393049881502,0.5,0.5,0.5,0.5,0.516769040858568,0.5,0.5,0.496600272529926,0.5,0.506776338646407,0.486539160238088,0.5,0.496600272529926,0.493223661353593,0.506776338646407,0.506776338646407,0.493223661353593,0.506776338646407,0.493223661353593,0.109471847473563,0.510549344283606,0.493223661353593,0.00335365206078874,0.5,0.00679945494014833,1.08713389068347,1.23910966564091,2.46030260774372,0.5,71.8598195235852
CBC_1129,CBC_1129_MSI_AV_v3_Vset3_Aset1_2024-09-25_15h04.08.990.csv,1,25,0,1,b,1,0,1,aud,A,63,1,0A,1A,1,0,z,2.41740079999909,0,1,0,0,1A,0A,A01,2.59026716544583,0.513393049881502,0.5,0.5,0.5,0.5,0.516769040858568,0.5,0.5,0.496600272529926,0.5,0.506776338646407,0.486539160238088,0.5,0.496600272529926,0.493223661353593,0.510129990707195,0.493391976645652,0.506608023354348,0.5,0.513393049881502,0.171756175506282,0.489683181389568,-0.5,-0.00339972747007417,0.5,0.00679945494014833,1.08713389068347,1.23910966564091,2.46030260774372,0.5,71.8598195235852
CBC_1129,CBC_1129_MSI_AV_v3_Vset3_Aset1_2024-09-25_15h04.08.990.csv,1,26,2,3,b,1,0,0,aud,C,63,1,2C,3C,1,0,z,1.72998219999954,0,1,0,0,3C,2C,C23,2.6149597780362,0.513393049881502,0.496600272529926,0.5,0.5,0.5,0.516769040858568,0.5,0.5,0.496600272529926,0.5,0.506776338646407,0.486539160238088,0.5,0.496600272529926,0.493223661353593,0.510129990707195,0.489813317908034,0.510186682091966,0.486539160238088,0.506776338646407,0.284123600851937,0.484080926349696,-0.486539160238088,-0.00330820109665649,0.5,0.00679945494014833,1.08713389068347,1.23910966564091,2.46030260774372,0.5,71.8598195235852
CBC_1129,CBC_1129_MSI_AV_v3_Vset3_Aset1_2024-09-25_15h04.08.990.csv,1,27,0,2,b,1,0,1,aud,A,27,1,0A,2A,1,0,b,2.32265289999941,1,0,1,1,0A,2A,A02,3.73766961828337,0.513393049881502,0.496600272529926,0.5,0.5,0.5,0.516769040858568,0.5,0.5,0.496600272529926,0.5,0.506776338646407,0.483230959141432,0.5,0.496600272529926,0.493223661353593,0.510129990707195,0.506608023354348,0.493391976645652,0.513393049881502,0.5,0.192686418363486,0.508740968012079,0.486606950118498,0.00330866203089373,0.5,0.00679945494014833,1.08713389068347,1.23910966564091,2.46030260774372,0.5,71.8598195235852
CBC_1129,CBC_1129_MSI_AV_v3_Vset3_Aset1_2024-09-25_15h04.08.990.csv,1,28,2,3,z,0,1,2,aud,D,63,1,2D,3D,0,1,b,2.20131539999966,1,0,0,0,2D,3D,D23,2.37490575457367,0.516701711912396,0.496600272529926,0.5,0.5,0.5,0.516769040858568,0.5,0.5,0.496600272529926,0.5,0.506776338646407,0.483230959141432,0.5,0.496600272529926,0.493223661353593,0.510129990707195,0.49157508954152,0.50842491045848,0.493223661353593,0.510129990707195,0.203310158021056,0.486759257513937,-0.493223661353593,-0.00335365206078874,0.5,0.00679945494014833,1.08713389068347,1.23910966564091,2.46030260774372,0.5,71.8598195235852
CBC_1129,CBC_1129_MSI_AV_v3_Vset3_Aset1_2024-09-25_15h04.08.990.csv,1,29,2,3,z,0,1,2,aud,D,63,1,2D,3D,0,1,z,2.5809750999997,0,1,1,1,3D,2D,D23,2.17475172148416,0.516701711912396,0.496600272529926,0.5,0.5,0.5,0.516769040858568,0.5,0.5,0.496600272529926,0.5,0.506776338646407,0.483230959141432,0.5,0.496600272529926,0.489870009292804,0.510129990707195,0.510129990707195,0.489870009292804,0.510129990707195,0.489870009292804,0.158184773684789,0.515163897450963,0.489870009292805,0.00333084905471647,0.5,0.00679945494014833,1.08713389068347,1.23910966564091,2.46030260774372,0.5,71.8598195235852
CBC_1129,CBC_1129_MSI_AV_v3_Vset3_Aset1_2024-09-25_15h04.08.990.csv,1,30,1,3,b,1,0,3,aud,B,27,1,1B,3B,1,0,b,2.23430740000003,1,0,1,1,1B,3B,B13,3.80666248977032,0.516701711912396,0.496600272529926,0.5,0.5,0.5,0.516769040858568,0.5,0.5,0.496600272529926,0.5,0.506776338646407,0.483230959141432,0.5,0.496600272529926,0.489870009292804,0.513460839761912,0.508246238912039,0.491753761087961,0.516769040858568,0.5,0.208519113002996,0.512639724524635,0.483230959141432,0.00328570713236682,0.5,0.00679945494014833,1.08713389068347,1.23910966564091,2.46030260774372,0.5,71.8598195235852
CBC_1129,CBC_1129_MSI_AV_v3_Vset3_Aset1_2024-09-25_15h04.08.990.csv,1,31,3,0,b,1,0,2,aud,D,9,1,3D,0D,1,0,z,2.20043659999919,0,1,0,0,0D,3D,D30,3.8286413964891,0.516701711912396,0.496600272529926,0.5,0.5,0.5,0.520054747990935,0.5,0.5,0.496600272529926,0.5,0.506776338646407,0.483230959141432,0.5,0.496600272529926,0.489870009292804,0.513460839761912,0.493358973907135,0.506641026092865,0.5,0.513460839761912,0.204708015874819,0.489779114813109,-0.5,-0.00339972747007417,0.5,0.00679945494014833,1.08713389068347,1.23910966564091,2.46030260774372,0.5,71.8598195235852
CBC_1129,CBC_1129_MSI_AV_v3_Vset3_Aset1_2024-09-25_15h04.08.990.csv,1,32,0,1,z,0,1,3,aud,B,63,1,0B,1B,0,1,b,3.72441900000013,1,0,0,0,0B,1B,B01,3.85014760171006,0.516701711912396,0.496600272529926,0.5,0.5,0.5,0.520054747990935,0.5,0.5,0.496600272529926,0.5,0.506776338646407,0.483230959141432,0.496600272529926,0.496600272529926,0.489870009292804,0.513460839761912,0.490169768813667,0.509830231186333,0.5,0.520054747990935,0.0587016281266627,0.485665782343056,-0.5,-0.00339972747007417,0.5,0.00679945494014833,1.08713389068347,1.23910966564091,2.46030260774372,0.5,71.8598195235852
CBC_1129,CBC_1129_MSI_AV_v3_Vset3_Aset1_2024-09-25_15h04.08.990.csv,1,33,0,1,b,1,0,1,aud,A,63,1,0A,1A,1,0,z,2.4402642999994,0,1,0,0,1A,0A,A01,2.484906649788,0.516701711912396,0.496600272529926,0.5,0.5,0.496600272529926,0.520054747990935,0.5,0.5,0.496600272529926,0.5,0.506776338646407,0.483230959141432,0.496600272529926,0.496600272529926,0.489870009292804,0.513460839761912,0.490081219769083,0.509918780230917,0.496600272529926,0.516701711912396,0.167200979896817,0.485621690229492,-0.496600272529926,-0.00337661117633261,0.5,0.00679945494014833,1.08713389068347,1.23910966564091,2.46030260774372,0.5,71.8598195235852
CBC_1129,CBC_1129_MSI_AV_v3_Vset3_Aset1_2024-09-25_15h04.08.990.csv,1,34,0,1,z,0,1,3,aud,B,63,1,0B,1B,0,1,b,1.70132629999989,1,0,0,0,0B,1B,B01,3.19867311755068,0.516701711912396,0.493223661353593,0.5,0.5,0.496600272529926,0.520054747990935,0.5,0.5,0.496600272529926,0.5,0.506776338646407,0.483230959141432,0.496600272529926,0.496600272529926,0.489870009292804,0.513460839761912,0.488464879930956,0.511535120069044,0.496600272529926,0.520054747990935,0.287039215745948,0.482418867712432,-0.496600272529926,-0.00337661117633261,0.5,0.00679945494014833,1.08713389068347,1.23910966564091,2.46030260774372,0.5,71.8598195235852
CBC_1129,CBC_1129_MSI_AV_v3_Vset3_Aset1_2024-09-25_15h04.08.990.csv,1,35,2,3,b,1,0,0,aud,C,63,1,2C,3C,1,0,z,2.32175339999958,0,1,0,0,3C,2C,C23,2.52572864430826,0.516701711912396,0.493223661353593,0.5,0.5,0.493223661353593,0.520054747990935,0.5,0.5,0.496600272529926,0.5,0.506776338646407,0.483230959141432,0.496600272529926,0.496600272529926,0.489870009292804,0.513460839761912,0.488108481847767,0.511891518152233,0.483230959141432,0.506776338646407,0.182429109436434,0.4812599556489,-0.483230959141432,-0.00328570713236682,0.5,0.00679945494014833,1.08713389068347,1.23910966564091,2.46030260774372,0.5,71.8598195235852
CBC_1129,CBC_1129_MSI_AV_v3_Vset3_Aset1_2024-09-25_15h04.08.990.csv,1,36,2,0,z,0,1,1,aud,A,27,1,2A,0A,0,1,b,2.77167000000009,1,0,0,0,2A,0A,A20,3.23867845216438,0.516701711912396,0.493223661353593,0.5,0.5,0.493223661353593,0.520054747990935,0.5,0.5,0.496600272529926,0.5,0.506776338646407,0.479945252009065,0.496600272529926,0.496600272529926,0.489870009292804,0.513460839761912,0.491786326453124,0.508213673546876,0.5,0.516701711912396,0.128260640009998,0.487926090246338,-0.5,-0.00339972747007417,0.5,0.00679945494014833,1.08713389068347,1.23910966564091,2.46030260774372,0.5,71.8598195235852
CBC_1129,CBC_1129_MSI_AV_v3_Vset3_Aset1_2024-09-25_15h04.08.990.csv,1,37,0,1,z,0,1,3,aud,B,63,1,0B,1B,0,1,z,2.10514919999969,0,1,1,1,1B,0B,B01,2.85263142991332,0.516701711912396,0.493223661353593,0.496600272529926,0.5,0.493223661353593,0.520054747990935,0.5,0.5,0.496600272529926,0.5,0.506776338646407,0.479945252009065,0.496600272529926,0.496600272529926,0.489870009292804,0.513460839761912,0.513239740623063,0.486760259376937,0.520054747990935,0.493223661353593,0.234349547488601,0.519633779085394,0.479945252009065,0.00326336611477377,0.5,0.00679945494014833,1.08713389068347,1.23910966564091,2.46030260774372,0.5,71.8598195235852
CBC_1129,CBC_1129_MSI_AV_v3_Vset3_Aset1_2024-09-25_15h04.08.990.csv,1,38,1,3,b,1,0,3,aud,B,27,1,1B,3B,1,0,b,2.37623649999932,1,0,1,1,1B,3B,B13,3.27714473299218,0.516701711912396,0.493223661353593,0.496600272529926,0.5,0.493223661353593,0.523318114105709,0.5,0.5,0.496600272529926,0.5,0.506776338646407,0.479945252009065,0.496600272529926,0.496600272529926,0.489870009292804,0.513460839761912,0.5113933848059,0.4886066151941,0.523318114105709,0.5,0.18769361486571,0.517509045968473,0.476681885894291,0.00324117700392316,0.5,0.00679945494014833,1.08713389068347,1.23910966564091,2.46030260774372,0.5,71.8598195235852
CBC_1129,CBC_1129_MSI_AV_v3_Vset3_Aset1_2024-09-25_15h04.08.990.csv,1,39,2,3,b,1,0,0,aud,C,63,1,2C,3C,1,0,z,2.11380829999962,0,1,0,0,3C,2C,C23,2.37954613413017,0.516701711912396,0.493223661353593,0.496600272529926,0.5,0.493223661353593,0.526559291109632,0.5,0.5,0.496600272529926,0.5,0.506776338646407,0.479945252009065,0.496600272529926,0.496600272529926,0.489870009292804,0.513460839761912,0.486403922397442,0.513596077602558,0.479945252009065,0.506776338646407,0.214577567618048,0.479045143671649,-0.479945252009065,-0.00326336611477377,0.5,0.00679945494014833,1.08713389068347,1.23910966564091,2.46030260774372,0.5,71.8598195235852
CBC_1129,CBC_1129_MSI_AV_v3_Vset3_Aset1_2024-09-25_15h04.08.990.csv,1,40,1,3,z,0,1,2,aud,D,27,1,1D,3D,0,1,b,2.56777019999936,1,0,0,0,1D,3D,D13,4.00733318523247,0.516701711912396,0.493223661353593,0.496600272529926,0.5,0.493223661353593,0.526559291109632,0.5,0.5,0.496600272529926,0.5,0.506776338646407,0.476681885894291,0.496600272529926,0.496600272529926,0.489870009292804,0.513460839761912,0.49165368955066,0.50834631044934,0.496600272529926,0.513460839761912,0.151394920092154,0.487779279878922,-0.496600272529926,-0.00337661117633261,0.5,0.00679945494014833,1.08713389068347,1.23910966564091,2.46030260774372,0.5,71.8598195235852
CBC_1129,CBC_1129_MSI_AV_v3_Vset3_Aset1_2024-09-25_15h04.08.990.csv,1,41,2,1,b,1,0,0,aud,C,9,1,2C,1C,1,0,b,2.60457849999966,1,0,1,1,2C,1C,C21,4.02535169073515,0.516701711912396,0.493223661353593,0.496600272529926,0.5,0.493223661353593,0.526559291109632,0.5,0.5,0.496600272529926,0.5,0.506776338646407,0.476681885894291,0.496600272529926,0.493223661353593,0.489870009292804,0.513460839761912,0.50336536447386,0.49663463552614,0.506776338646407,0.5,0.152105396153222,0.504979869939787,0.493223661353593,0.00335365206078874,0.5,0.00679945494014833,1.08713389068347,1.23910966564091,2.46030260774372,0.5,71.8598195235852
CBC_1129,CBC_1129_MSI_AV_v3_Vset3_Aset1_2024-09-25_15h04.08.990.csv,1,42,1,0,b,1,0,3,aud,B,63,0,1B,0B,0,1,b,2.15941310000017,1,0,1,0,1B,0B,B10,2.65675690671466,0.516701711912396,0.493223661353593,0.496600272529926,0.5,0.493223661353593,0.526559291109632,0.5,0.5,0.496600272529926,0.5,0.510129990707195,0.476681885894291,0.496600272529926,0.493223661353593,0.489870009292804,0.513460839761912,0.516344472946679,0.483655527053321,0.526559291109632,0.493223661353593,0.226234356559715,0.523676006280914,-0.526559291109632,-0.00358031617321639,0.5,0.00679945494014833,1.08713389068347,1.23910966564091,2.46030260774372,0.5,71.8598195235852
CBC_1129,CBC_1129_MSI_AV_v3_Vset3_Aset1_2024-09-25_15h04.08.990.csv,1,43,2,3,z,0,1,2,aud,D,63,1,2D,3D,NaN,NaN,[],NaN,NaN,NaN,NaN,NaN,,,D23,2.26868354131836,0.516701711912396,0.493223661353593,0.496600272529926,0.5,0.493223661353593,0.522978974936416,0.5,0.5,0.496600272529926,0.5,0.510129990707195,0.476681885894291,0.496600272529926,0.493223661353593,0.489870009292804,0.513460839761912,0,0,0,0,NaN,0,0,0,0.5,0.00679945494014833,1.08713389068347,1.23910966564091,2.46030260774372,0.5,71.8598195235852
CBC_1129,CBC_1129_MSI_AV_v3_Vset3_Aset1_2024-09-25_15h04.08.990.csv,1,44,1,0,z,0,1,1,aud,A,63,1,1A,0A,0,1,z,3.03774580000027,0,1,1,1,0A,1A,A10,2.97892515523761,0.516701711912396,0.493223661353593,0.496600272529926,0.5,0.493223661353593,0.522978974936416,0.5,0.5,0.496600272529926,0.5,0.510129990707195,0.476681885894291,0.496600272529926,0.493223661353593,0.489870009292804,0.513460839761912,0.511623656153364,0.488376343846636,0.516701711912396,0.493223661353593,0.109646349284343,0.518218105100811,0.483298288087604,0.00328616493250249,0.5,0.00679945494014833,1.08713389068347,1.23910966564091,2.46030260774372,0.5,71.8598195235852
CBC_1129,CBC_1129_MSI_TV_v3_Vset2_Tset1_2024-09-25_15h12.48.862.csv,2,1,1,0,b,1,0,3,tac,B,63,1,1B,0B,1,0,b,2.77436409999973,1,0,1,1,1B,0B,B10,2.77258872223978,0.5,0.5,0.5,0.5,0.5,0.5,0.5,0.5,0.5,0.5,0.5,0.5,0.5,0.5,0.5,0.5,0.5,0.5,0.5,0.5,0.139077370859526,0.498716343242182,0.5,0.00923372003807132,0.5,0.0184674400761426,1.09750896794821,12.475745880808,2.91748225047315,0.5,75.5669262119791
CBC_1129,CBC_1129_MSI_TV_v3_Vset2_Tset1_2024-09-25_15h12.48.862.csv,2,2,0,1,b,1,0,1,tac,A,63,1,0A,1A,1,0,b,3.21822280000015,1,0,1,1,0A,1A,A01,2.83321334405622,0.5,0.5,0.5,0.5,0.5,0.509233720038071,0.5,0.5,0.5,0.5,0.5,0.5,0.5,0.5,0.5,0.5,0.5,0.5,0.5,0.5,0.107993836330534,0.500355535377139,0.5,0.00923372003807132,0.5,0.0184674400761426,1.09750896794821,12.475745880808,2.91748225047315,0.5,75.5669262119791
CBC_1129,CBC_1129_MSI_TV_v3_Vset2_Tset1_2024-09-25_15h12.48.862.csv,2,3,1,2,z,0,1,0,tac,C,9,1,1C,2C,0,1,b,2.74473719999969,1,0,0,0,1C,2C,C12,2.89037175789616,0.509233720038071,0.5,0.5,0.5,0.5,0.509233720038071,0.5,0.5,0.5,0.5,0.5,0.5,0.5,0.5,0.5,0.5,0.5,0.5,0.5,0.5,0.141708492334785,0.499590382479295,-0.5,-0.00923372003807132,0.5,0.0184674400761426,1.09750896794821,12.475745880808,2.91748225047315,0.5,75.5669262119791
CBC_1129,CBC_1129_MSI_TV_v3_Vset2_Tset1_2024-09-25_15h12.48.862.csv,2,4,1,0,z,0,1,1,tac,A,63,1,1A,0A,0,1,b,3.16613219999999,1,0,0,0,1A,0A,A10,2.94443897916644,0.509233720038071,0.5,0.5,0.5,0.5,0.509233720038071,0.5,0.5,0.5,0.490766279961929,0.5,0.5,0.5,0.5,0.5,0.5,0.495425380734542,0.504574619265458,0.5,0.509233720038071,0.0931517598210684,0.418636375741991,-0.5,-0.00923372003807132,0.5,0.0184674400761426,1.09750896794821,12.475745880808,2.91748225047315,0.5,75.5669262119791
CBC_1129,CBC_1129_MSI_TV_v3_Vset2_Tset1_2024-09-25_15h12.48.862.csv,2,5,3,1,b,1,0,2,tac,D,27,1,3D,1D,1,0,b,3.19055639999988,1,0,1,1,3D,1D,D31,2.99573227355399,0.509233720038071,0.490766279961929,0.5,0.5,0.5,0.509233720038071,0.5,0.5,0.5,0.490766279961929,0.5,0.5,0.5,0.5,0.5,0.5,0.5,0.5,0.5,0.5,0.109296094795689,0.498342330309524,0.5,0.00923372003807132,0.5,0.0184674400761426,1.09750896794821,12.475745880808,2.91748225047315,0.5,75.5669262119791
CBC_1129,CBC_1129_MSI_TV_v3_Vset2_Tset1_2024-09-25_15h12.48.862.csv,2,6,0,1,z,0,1,3,tac,B,63,1,0B,1B,0,1,z,3.29478999999992,0,1,1,1,1B,0B,B01,3.04452243772342,0.509233720038071,0.490766279961929,0.5,0.5,0.5,0.509233720038071,0.5,0.5,0.5,0.490766279961929,0.5,0.5,0.5,0.5,0.5,0.509233720038071,0.504574619265458,0.495425380734542,0.509233720038071,0.5,0.120026061377388,0.581609754089579,0.490766279961929,0.00906319686658836,0.5,0.0184674400761426,1.09750896794821,12.475745880808,2.91748225047315,0.5,75.5669262119791
CBC_1129,CBC_1129_MSI_TV_v3_Vset2_Tset1_2024-09-25_15h12.48.862.csv,2,7,2,3,b,1,0,0,tac,C,63,1,2C,3C,1,0,b,2.64078679999966,1,0,1,1,2C,3C,C23,3.09104245335832,0.509233720038071,0.490766279961929,0.5,0.5,0.5,0.51829691690466,0.5,0.5,0.5,0.490766279961929,0.5,0.5,0.5,0.5,0.5,0.509233720038071,0.5,0.5,0.5,0.5,0.150570079021608,0.500232716227185,0.5,0.00923372003807132,0.5,0.0184674400761426,1.09750896794821,12.475745880808,2.91748225047315,0.5,75.5669262119791
CBC_1129,CBC_1129_MSI_TV_v3_Vset2_Tset1_2024-09-25_15h12.48.862.csv,2,8,2,0,z,0,1,1,tac,A,27,1,2A,0A,0,1,b,5.12768419999975,1,0,0,0,2A,0A,A20,3.13549421592915,0.509233720038071,0.490766279961929,0.5,0.5,0.5,0.51829691690466,0.5,0.5,0.5,0.490766279961929,0.509233720038071,0.5,0.5,0.5,0.5,0.509233720038071,0.495425380734542,0.504574619265458,0.5,0.509233720038071,0.0295946275804425,0.419687680335611,-0.5,-0.00923372003807132,0.5,0.0184674400761426,1.09750896794821,12.475745880808,2.91748225047315,0.5,75.5669262119791
CBC_1129,CBC_1129_MSI_TV_v3_Vset2_Tset1_2024-09-25_15h12.48.862.csv,2,9,3,2,b,1,0,2,tac,D,63,1,3D,2D,1,0,z,3.36775010000019,0,1,0,0,2D,3D,D32,3.17805383034795,0.509233720038071,0.490766279961929,0.490766279961929,0.5,0.5,0.51829691690466,0.5,0.5,0.5,0.490766279961929,0.509233720038071,0.5,0.5,0.5,0.5,0.509233720038071,0.495425380734542,0.504574619265458,0.5,0.509233720038071,0.0826996333716521,0.41823459372982,-0.5,-0.00923372003807132,0.5,0.0184674400761426,1.09750896794821,12.475745880808,2.91748225047315,0.5,75.5669262119791
CBC_1129,CBC_1129_MSI_TV_v3_Vset2_Tset1_2024-09-25_15h12.48.862.csv,2,10,3,1,z,0,1,3,tac,B,27,1,3B,1B,0,1,b,2.48843039999974,1,0,0,0,3B,1B,B31,3.2188758248682,0.509233720038071,0.490766279961929,0.490766279961929,0.5,0.5,0.51829691690466,0.5,0.5,0.5,0.490766279961929,0.509233720038071,0.5,0.5,0.5,0.490766279961929,0.509233720038071,0.491015922467743,0.508984077532257,0.5,0.51829691690466,0.113936088373115,0.341236079555189,-0.5,-0.00923372003807132,0.5,0.0184674400761426,1.09750896794821,12.475745880808,2.91748225047315,0.5,75.5669262119791
CBC_1129,CBC_1129_MSI_TV_v3_Vset2_Tset1_2024-09-25_15h12.48.862.csv,2,11,3,2,z,0,1,0,tac,C,63,0,3C,2C,1,0,z,2.84328259999984,0,1,1,0,2C,3C,C32,3.25809653802148,0.509233720038071,0.490766279961929,0.490766279961929,0.5,0.5,0.51829691690466,0.5,0.490766279961929,0.5,0.490766279961929,0.509233720038071,0.5,0.5,0.5,0.490766279961929,0.509233720038071,0.504574619265458,0.495425380734542,0.509233720038071,0.5,0.156469147482087,0.582344187335608,-0.509233720038071,-0.00940424320955429,0.5,0.0184674400761426,1.09750896794821,12.475745880808,2.91748225047315,0.5,75.5669262119791
CBC_1129,CBC_1129_MSI_TV_v3_Vset2_Tset1_2024-09-25_15h12.48.862.csv,2,12,1,3,b,1,0,3,tac,B,27,1,1B,3B,1,0,b,3.28872330000013,1,0,1,1,1B,3B,B13,3.29583686600433,0.509233720038071,0.490766279961929,0.490766279961929,0.5,0.5,0.51829691690466,0.5,0.490766279961929,0.5,0.490766279961929,0.499829476828517,0.5,0.5,0.5,0.490766279961929,0.509233720038071,0.513641681228798,0.486358318771202,0.51829691690466,0.490766279961929,0.149797228133057,0.729011048533458,0.48170308309534,0.00889582282155636,0.5,0.0184674400761426,1.09750896794821,12.475745880808,2.91748225047315,0.5,75.5669262119791
CBC_1129,CBC_1129_MSI_TV_v3_Vset2_Tset1_2024-09-25_15h12.48.862.csv,2,13,3,2,z,0,1,0,tac,C,63,1,3C,2C,0,1,z,2.44128319999982,0,1,1,1,2C,3C,C32,2.63905732961526,0.509233720038071,0.490766279961929,0.490766279961929,0.5,0.5,0.527192739726216,0.5,0.490766279961929,0.5,0.490766279961929,0.499829476828517,0.5,0.5,0.5,0.490766279961929,0.509233720038071,0.499914723872703,0.500085276127297,0.499829476828517,0.5,0.167928031493735,0.49874017469432,0.500170523171483,0.00923686916452228,0.5,0.0184674400761426,1.09750896794821,12.475745880808,2.91748225047315,0.5,75.5669262119791
CBC_1129,CBC_1129_MSI_TV_v3_Vset2_Tset1_2024-09-25_15h12.48.862.csv,2,14,3,2,b,1,0,2,tac,D,63,1,3D,2D,1,0,b,2.71667960000013,1,0,1,1,3D,2D,D32,2.67414864942653,0.509233720038071,0.490766279961929,0.490766279961929,0.5,0.5,0.527192739726216,0.5,0.490766279961929,0.5,0.490766279961929,0.509066345993039,0.5,0.5,0.5,0.490766279961929,0.509233720038071,0.509233720038071,0.490766279961929,0.509233720038071,0.490766279961929,0.193650259378469,0.663363591229352,0.490766279961929,0.00906319686658836,0.5,0.0184674400761426,1.09750896794821,12.475745880808,2.91748225047315,0.5,75.5669262119791
CBC_1129,CBC_1129_MSI_TV_v3_Vset2_Tset1_2024-09-25_15h12.48.862.csv,2,15,0,3,b,1,0,1,tac,A,9,1,0A,3A,1,0,z,2.35885009999947,0,1,0,0,3A,0A,A03,3.40119738166216,0.509233720038071,0.490766279961929,0.490766279961929,0.5,0.5,0.527192739726216,0.5,0.490766279961929,0.5,0.490766279961929,0.509066345993039,0.5,0.5,0.5,0.490766279961929,0.51829691690466,0.495425380734542,0.504574619265458,0.5,0.509233720038071,0.147654039993258,0.416848746687929,-0.5,-0.00923372003807132,0.5,0.0184674400761426,1.09750896794821,12.475745880808,2.91748225047315,0.5,75.5669262119791
CBC_1129,CBC_1129_MSI_TV_v3_Vset2_Tset1_2024-09-25_15h12.48.862.csv,2,16,0,1,z,0,1,3,tac,B,63,0,0B,1B,1,0,b,3.25201870000001,1,0,0,1,0B,1B,B01,2.7408400239252,0.509233720038071,0.490766279961929,0.490766279961929,0.490766279961929,0.5,0.527192739726216,0.5,0.490766279961929,0.5,0.490766279961929,0.509066345993039,0.5,0.5,0.5,0.490766279961929,0.51829691690466,0.48676356506693,0.51323643493307,0.5,0.527192739726216,0.0581428743366061,0.276272510125928,0.5,0.00923372003807132,0.5,0.0184674400761426,1.09750896794821,12.475745880808,2.91748225047315,0.5,75.5669262119791
CBC_1129,CBC_1129_MSI_TV_v3_Vset2_Tset1_2024-09-25_15h12.48.862.csv,2,17,2,3,z,0,1,2,tac,D,63,1,2D,3D,0,1,b,2.76518709999982,1,0,0,0,2D,3D,D23,3.46573590279973,0.509233720038071,0.490766279961929,0.490766279961929,0.490766279961929,0.509233720038071,0.527192739726216,0.5,0.490766279961929,0.5,0.490766279961929,0.509066345993039,0.5,0.5,0.5,0.490766279961929,0.51829691690466,0.486358318771202,0.513641681228798,0.490766279961929,0.51829691690466,0.0776616282710319,0.27105714545852,-0.490766279961929,-0.00906319686658836,0.5,0.0184674400761426,1.09750896794821,12.475745880808,2.91748225047315,0.5,75.5669262119791
CBC_1129,CBC_1129_MSI_TV_v3_Vset2_Tset1_2024-09-25_15h12.48.862.csv,2,18,0,2,z,0,1,0,tac,C,27,1,0C,2C,NaN,NaN,None,NaN,NaN,NaN,NaN,NaN,,,C02,3.49650756146648,0.509233720038071,0.490766279961929,0.490766279961929,0.490766279961929,0.509233720038071,0.527192739726216,0.5,0.490766279961929,0.5,0.490766279961929,0.509066345993039,0.5,0.5,0.5,0.48170308309534,0.51829691690466,0,0,0,0,NaN,0,0,0,0.5,0.0184674400761426,1.09750896794821,12.475745880808,2.91748225047315,0.5,75.5669262119791
CBC_1129,CBC_1129_MSI_TV_v3_Vset2_Tset1_2024-09-25_15h12.48.862.csv,2,19,0,1,b,1,0,1,tac,A,63,1,0A,1A,1,0,z,2.4478751000006,0,1,0,0,1A,0A,A01,2.83321334405622,0.509233720038071,0.490766279961929,0.490766279961929,0.490766279961929,0.509233720038071,0.527192739726216,0.5,0.490766279961929,0.5,0.490766279961929,0.509066345993039,0.5,0.5,0.5,0.48170308309534,0.51829691690466,0.490766279961929,0.509233720038071,0.490766279961929,0.509233720038071,0.115836662830516,0.338635665684758,-0.490766279961929,-0.00906319686658836,0.5,0.0184674400761426,1.09750896794821,12.475745880808,2.91748225047315,0.5,75.5669262119791
CBC_1129,CBC_1129_MSI_TV_v3_Vset2_Tset1_2024-09-25_15h12.48.862.csv,2,20,1,0,b,1,0,3,tac,B,63,1,1B,0B,1,0,b,2.40470709999954,1,0,1,1,1B,0B,B10,2.86220088092947,0.509233720038071,0.48170308309534,0.490766279961929,0.490766279961929,0.509233720038071,0.527192739726216,0.5,0.490766279961929,0.5,0.490766279961929,0.509066345993039,0.5,0.5,0.5,0.48170308309534,0.51829691690466,0.508663914124804,0.491336085875196,0.527192739726216,0.509233720038071,0.228061033658919,0.651884675049399,0.472807260273784,0.00873153974667129,0.5,0.0184674400761426,1.09750896794821,12.475745880808,2.91748225047315,0.5,75.5669262119791
CBC_1129,CBC_1129_MSI_TV_v3_Vset2_Tset1_2024-09-25_15h12.48.862.csv,2,21,1,3,z,0,1,2,tac,D,27,1,1D,3D,0,1,b,2.40941640000074,1,0,0,0,1D,3D,D13,3.58351893845611,0.509233720038071,0.48170308309534,0.490766279961929,0.490766279961929,0.509233720038071,0.535924279472887,0.5,0.490766279961929,0.5,0.490766279961929,0.509066345993039,0.5,0.5,0.5,0.48170308309534,0.51829691690466,0.491015922467743,0.508984077532257,0.5,0.51829691690466,0.11940010761653,0.341659713798059,-0.5,-0.00923372003807132,0.5,0.0184674400761426,1.09750896794821,12.475745880808,2.91748225047315,0.5,75.5669262119791
CBC_1129,CBC_1129_MSI_TV_v3_Vset2_Tset1_2024-09-25_15h12.48.862.csv,2,22,3,2,z,0,1,0,tac,C,63,1,3C,2C,0,1,z,2.79392740000003,0,1,1,1,2C,3C,C32,2.51230562397611,0.509233720038071,0.48170308309534,0.490766279961929,0.490766279961929,0.509233720038071,0.535924279472887,0.5,0.490766279961929,0.5,0.490766279961929,0.509066345993039,0.5,0.5,0.490766279961929,0.48170308309534,0.51829691690466,0.504492442954342,0.495507557045658,0.509066345993039,0.5,0.160456089818316,0.58036256787442,0.490933654006961,0.00906628783673529,0.5,0.0184674400761426,1.09750896794821,12.475745880808,2.91748225047315,0.5,75.5669262119791
CBC_1129,CBC_1129_MSI_TV_v3_Vset2_Tset1_2024-09-25_15h12.48.862.csv,2,23,0,1,b,1,0,1,tac,A,63,1,0A,1A,1,0,z,2.80400300000019,0,1,0,0,1A,0A,A01,2.53897387105828,0.509233720038071,0.48170308309534,0.490766279961929,0.490766279961929,0.509233720038071,0.535924279472887,0.5,0.490766279961929,0.5,0.490766279961929,0.518132633829775,0.5,0.5,0.490766279961929,0.48170308309534,0.51829691690466,0.486108782691451,0.513891217308549,0.48170308309534,0.509233720038071,0.0746606754374459,0.266877931452246,-0.48170308309534,-0.00889582282155636,0.5,0.0184674400761426,1.09750896794821,12.475745880808,2.91748225047315,0.5,75.5669262119791
CBC_1129,CBC_1129_MSI_TV_v3_Vset2_Tset1_2024-09-25_15h12.48.862.csv,2,24,2,3,z,0,1,2,tac,D,63,1,2D,3D,0,1,z,2.4293617000003,0,1,1,1,3D,2D,D23,2.9704144655697,0.509233720038071,0.472807260273784,0.490766279961929,0.490766279961929,0.509233720038071,0.535924279472887,0.5,0.490766279961929,0.5,0.490766279961929,0.518132633829775,0.5,0.5,0.490766279961929,0.48170308309534,0.51829691690466,0.51829691690466,0.48170308309534,0.51829691690466,0.48170308309534,0.286791486804904,0.790566507667069,0.48170308309534,0.00889582282155636,0.5,0.0184674400761426,1.09750896794821,12.475745880808,2.91748225047315,0.5,75.5669262119791
CBC_1129,CBC_1129_MSI_TV_v3_Vset2_Tset1_2024-09-25_15h12.48.862.csv,2,25,2,0,b,1,0,0,tac,C,27,1,2C,0C,1,0,z,3.16324299999997,0,1,0,0,0C,2C,C20,3.68887945411394,0.509233720038071,0.472807260273784,0.490766279961929,0.490766279961929,0.509233720038071,0.535924279472887,0.5,0.490766279961929,0.5,0.490766279961929,0.518132633829775,0.5,0.5,0.490766279961929,0.48170308309534,0.527192739726216,0.491095151443301,0.508904848556699,0.5,0.518132633829775,0.0764303743796,0.342803550993525,-0.5,-0.00923372003807132,0.5,0.0184674400761426,1.09750896794821,12.475745880808,2.91748225047315,0.5,75.5669262119791
CBC_1129,CBC_1129_MSI_TV_v3_Vset2_Tset1_2024-09-25_15h12.48.862.csv,2,26,0,1,b,1,0,1,tac,A,63,1,0A,1A,1,0,z,2.93915879999986,0,1,0,0,1A,0A,A01,2.32727770558442,0.509233720038071,0.472807260273784,0.490766279961929,0.490766279961929,0.509233720038071,0.535924279472887,0.5,0.490766279961929,0.490766279961929,0.490766279961929,0.518132633829775,0.5,0.5,0.490766279961929,0.48170308309534,0.527192739726216,0.481453696691598,0.518546303308402,0.472807260273784,0.509233720038071,0.0528192651052338,0.205110282648803,-0.472807260273784,-0.00873153974667129,0.5,0.0184674400761426,1.09750896794821,12.475745880808,2.91748225047315,0.5,75.5669262119791
CBC_1129,CBC_1129_MSI_TV_v3_Vset2_Tset1_2024-09-25_15h12.48.862.csv,2,27,1,3,b,1,0,3,tac,B,27,1,1B,3B,1,0,b,2.66611139999986,1,0,1,1,1B,3B,B13,3.04452243772342,0.509233720038071,0.464075720527113,0.490766279961929,0.490766279961929,0.509233720038071,0.535924279472887,0.5,0.490766279961929,0.490766279961929,0.490766279961929,0.518132633829775,0.5,0.5,0.490766279961929,0.48170308309534,0.527192739726216,0.521992020427176,0.478007979572824,0.535924279472887,0.490766279961929,0.2606127355056,0.83159849226559,0.464075720527113,0.00857029055962718,0.5,0.0184674400761426,1.09750896794821,12.475745880808,2.91748225047315,0.5,75.5669262119791
CBC_1129,CBC_1129_MSI_TV_v3_Vset2_Tset1_2024-09-25_15h12.48.862.csv,2,28,3,2,z,0,1,0,tac,C,63,1,3C,2C,0,1,z,2.2388432000007,0,1,1,1,2C,3C,C32,2.37490575457367,0.509233720038071,0.464075720527113,0.490766279961929,0.490766279961929,0.509233720038071,0.544494570032515,0.5,0.490766279961929,0.490766279961929,0.490766279961929,0.518132633829775,0.5,0.5,0.490766279961929,0.48170308309534,0.527192739726216,0.508904848556699,0.491095151443301,0.518132633829775,0.5,0.25233872807756,0.656981752775999,0.481867366170225,0.00889885670939733,0.5,0.0184674400761426,1.09750896794821,12.475745880808,2.91748225047315,0.5,75.5669262119791
CBC_1129,CBC_1129_MSI_TV_v3_Vset2_Tset1_2024-09-25_15h12.48.862.csv,2,29,3,2,b,1,0,2,tac,D,63,0,3D,2D,0,1,b,1.81859050000003,1,0,1,0,3D,2D,D32,2.68557734525015,0.509233720038071,0.464075720527113,0.490766279961929,0.490766279961929,0.509233720038071,0.544494570032515,0.5,0.490766279961929,0.490766279961929,0.490766279961929,0.527031490539172,0.5,0.5,0.490766279961929,0.48170308309534,0.527192739726216,0.522544278409071,0.477455721590929,0.527192739726216,0.48170308309534,0.440684993523263,0.83787168753312,-0.527192739726216,-0.00973590032947136,0.5,0.0184674400761426,1.09750896794821,12.475745880808,2.91748225047315,0.5,75.5669262119791
CBC_1129,CBC_1129_MSI_TV_v3_Vset2_Tset1_2024-09-25_15h12.48.862.csv,2,30,0,1,z,0,1,3,tac,B,63,1,0B,1B,0,1,z,2.5542403999998,0,1,1,1,1B,0B,B01,2.70805020110221,0.509233720038071,0.464075720527113,0.490766279961929,0.490766279961929,0.509233720038071,0.544494570032515,0.5,0.490766279961929,0.490766279961929,0.490766279961929,0.527031490539172,0.5,0.5,0.490766279961929,0.48170308309534,0.517456839396745,0.516731471635862,0.483268528364138,0.544494570032515,0.509233720038071,0.255733671161246,0.771168964484648,0.455505429967485,0.00841201923228213,0.5,0.0184674400761426,1.09750896794821,12.475745880808,2.91748225047315,0.5,75.5669262119791
CBC_1129,CBC_1129_MSI_TV_v3_Vset2_Tset1_2024-09-25_15h12.48.862.csv,2,31,2,0,z,0,1,1,tac,A,27,1,2A,0A,NaN,NaN,None,NaN,NaN,NaN,NaN,NaN,,,A20,3.13549421592915,0.509233720038071,0.464075720527113,0.490766279961929,0.490766279961929,0.509233720038071,0.552906589264797,0.5,0.490766279961929,0.490766279961929,0.490766279961929,0.527031490539172,0.5,0.5,0.490766279961929,0.48170308309534,0.517456839396745,0,0,0,0,NaN,0,0,0,0.5,0.0184674400761426,1.09750896794821,12.475745880808,2.91748225047315,0.5,75.5669262119791
CBC_1129,CBC_1129_MSI_TV_v3_Vset2_Tset1_2024-09-25_15h12.48.862.csv,2,32,3,0,b,1,0,2,tac,D,9,1,3D,0D,1,0,b,2.06034110000019,1,0,1,1,3D,0D,D30,3.85014760171006,0.509233720038071,0.464075720527113,0.490766279961929,0.490766279961929,0.509233720038071,0.552906589264797,0.5,0.490766279961929,0.490766279961929,0.490766279961929,0.527031490539172,0.5,0.5,0.490766279961929,0.48170308309534,0.517456839396745,0.508578663350032,0.491421336649968,0.517456839396745,0.5,0.272287479797181,0.650675663584846,0.482543160603255,0.0089113369025931,0.5,0.0184674400761426,1.09750896794821,12.475745880808,2.91748225047315,0.5,75.5669262119791
CBC_1129,CBC_1129_MSI_TV_v3_Vset2_Tset1_2024-09-25_15h12.48.862.csv,2,33,3,2,z,0,1,0,tac,C,63,1,3C,2C,0,1,z,1.59417309999935,0,1,1,1,2C,3C,C32,2.26176309847379,0.509233720038071,0.464075720527113,0.490766279961929,0.490766279961929,0.509233720038071,0.552906589264797,0.5,0.490766279961929,0.490766279961929,0.490766279961929,0.527031490539172,0.5,0.5,0.490766279961929,0.48170308309534,0.526368176299338,0.513160010568411,0.486839989431589,0.527031490539172,0.5,0.306610006511473,0.722458663811905,0.472968509460828,0.00873451760637035,0.5,0.0184674400761426,1.09750896794821,12.475745880808,2.91748225047315,0.5,75.5669262119791
CBC_1129,CBC_1129_MSI_TV_v3_Vset2_Tset1_2024-09-25_15h12.48.862.csv,2,34,0,1,z,0,1,3,tac,B,63,1,0B,1B,0,1,z,3.36164180000014,0,1,1,1,1B,0B,B01,2.50552593699074,0.509233720038071,0.464075720527113,0.490766279961929,0.490766279961929,0.509233720038071,0.552906589264797,0.5,0.490766279961929,0.490766279961929,0.490766279961929,0.535766008145542,0.5,0.5,0.490766279961929,0.48170308309534,0.526368176299338,0.520558898313251,0.479441101686749,0.552906589264797,0.509233720038071,0.155855025539093,0.817408020851583,0.447093410735203,0.0082566707711906,0.5,0.0184674400761426,1.09750896794821,12.475745880808,2.91748225047315,0.5,75.5669262119791
CBC_1129,CBC_1129_MSI_TV_v3_Vset2_Tset1_2024-09-25_15h12.48.862.csv,2,35,0,1,b,1,0,1,tac,A,63,0,0A,1A,0,1,z,3.56090949999998,0,1,0,1,1A,0A,A01,2.30258509299405,0.509233720038071,0.464075720527113,0.490766279961929,0.490766279961929,0.509233720038071,0.561163260035987,0.5,0.490766279961929,0.490766279961929,0.490766279961929,0.535766008145542,0.5,0.5,0.490766279961929,0.48170308309534,0.526368176299338,0.476801828057511,0.523198171942489,0.464075720527113,0.509233720038071,0.0252523037408257,0.156362326064439,0.535924279472887,0.00989714951651547,0.5,0.0184674400761426,1.09750896794821,12.475745880808,2.91748225047315,0.5,75.5669262119791
CBC_1129,CBC_1129_MSI_TV_v3_Vset2_Tset1_2024-09-25_15h12.48.862.csv,2,36,2,3,z,0,1,2,tac,D,63,1,2D,3D,0,1,z,2.29406159999962,0,1,1,1,3D,2D,D23,2.83321334405622,0.509233720038071,0.473972870043628,0.490766279961929,0.490766279961929,0.509233720038071,0.561163260035987,0.5,0.490766279961929,0.490766279961929,0.490766279961929,0.535766008145542,0.5,0.5,0.490766279961929,0.48170308309534,0.526368176299338,0.52215373803575,0.47784626196425,0.526368176299338,0.48170308309534,0.339822341871011,0.833426511543335,0.473631823700662,0.00874676732234614,0.5,0.0184674400761426,1.09750896794821,12.475745880808,2.91748225047315,0.5,75.5669262119791
CBC_1129,CBC_1129_MSI_TV_v3_Vset2_Tset1_2024-09-25_15h12.48.862.csv,2,37,1,2,b,1,0,3,tac,B,9,1,1B,2B,1,0,b,2.42014699999982,1,0,1,1,1B,2B,B12,3.95124371858143,0.509233720038071,0.473972870043628,0.490766279961929,0.490766279961929,0.509233720038071,0.561163260035987,0.5,0.490766279961929,0.490766279961929,0.490766279961929,0.535766008145542,0.5,0.5,0.490766279961929,0.48170308309534,0.535114943621684,0.528818967985149,0.471181032014851,0.561163260035987,0.5,0.345407061169021,0.890712508883371,0.438836739964013,0.0081041911984952,0.5,0.0184674400761426,1.09750896794821,12.475745880808,2.91748225047315,0.5,75.5669262119791
CBC_1129,CBC_1129_MSI_TV_v3_Vset2_Tset1_2024-09-25_15h12.48.862.csv,2,38,2,0,z,0,1,1,tac,A,27,1,2A,0A,0,1,z,4.1288669000005,0,1,1,1,0A,2A,A20,2.87167962488401,0.509233720038071,0.473972870043628,0.490766279961929,0.490766279961929,0.509233720038071,0.569267451234482,0.5,0.490766279961929,0.490766279961929,0.490766279961929,0.535766008145542,0.5,0.5,0.490766279961929,0.48170308309534,0.535114943621684,0.509233720038071,0.490766279961929,0.509233720038071,0.490766279961929,0.0821616416341104,0.661557903437558,0.490766279961929,0.00906319686658836,0.5,0.0184674400761426,1.09750896794821,12.475745880808,2.91748225047315,0.5,75.5669262119791
CBC_1129,CBC_1129_MSI_TV_v3_Vset2_Tset1_2024-09-25_15h12.48.862.csv,2,39,2,3,b,1,0,0,tac,C,63,1,2C,3C,1,0,b,1.84361089999948,1,0,1,1,2C,3C,C23,3.29583686600433,0.51829691690466,0.473972870043628,0.490766279961929,0.490766279961929,0.509233720038071,0.569267451234482,0.5,0.490766279961929,0.490766279961929,0.490766279961929,0.535766008145542,0.5,0.5,0.490766279961929,0.48170308309534,0.535114943621684,0.517265486540526,0.482734513459474,0.535766008145542,0.5,0.379763565657145,0.778788383944997,0.464233991854458,0.00857321342588069,0.5,0.0184674400761426,1.09750896794821,12.475745880808,2.91748225047315,0.5,75.5669262119791
CBC_1129,CBC_1129_MSI_TV_v3_Vset2_Tset1_2024-09-25_15h12.48.862.csv,2,40,1,3,z,0,1,2,tac,D,27,1,1D,3D,0,1,z,2.34551590000046,0,1,1,1,3D,1D,D13,3.31418600467253,0.51829691690466,0.473972870043628,0.490766279961929,0.490766279961929,0.509233720038071,0.569267451234482,0.5,0.490766279961929,0.490766279961929,0.490766279961929,0.544339221571423,0.5,0.5,0.490766279961929,0.48170308309534,0.535114943621684,0.521614911473297,0.478385088526703,0.535114943621684,0.490766279961929,0.325067133780995,0.828563841445186,0.464885056378316,0.00858523692096075,0.5,0.0184674400761426,1.09750896794821,12.475745880808,2.91748225047315,0.5,75.5669262119791
CBC_1129,CBC_1129_MSI_TV_v3_Vset2_Tset1_2024-09-25_15h12.48.862.csv,2,41,0,1,b,1,0,1,tac,A,63,1,0A,1A,1,0,b,3.26071800000045,1,0,1,1,0A,1A,A01,2.23359222150709,0.51829691690466,0.473972870043628,0.490766279961929,0.490766279961929,0.509233720038071,0.569267451234482,0.5,0.490766279961929,0.490766279961929,0.490766279961929,0.544339221571423,0.5,0.5,0.490766279961929,0.48170308309534,0.543700180542645,0.522334675228473,0.477665324771527,0.51829691690466,0.473972870043628,0.169688245664271,0.835894605458604,0.48170308309534,0.00889582282155636,0.5,0.0184674400761426,1.09750896794821,12.475745880808,2.91748225047315,0.5,75.5669262119791
CBC_1129,CBC_1129_MSI_TV_v3_Vset2_Tset1_2024-09-25_15h12.48.862.csv,2,42,0,2,z,0,1,0,tac,C,27,1,0C,2C,0,1,z,2.56155060000037,0,1,1,1,2C,0C,C02,3.3499040872746,0.527192739726216,0.473972870043628,0.490766279961929,0.490766279961929,0.509233720038071,0.569267451234482,0.5,0.490766279961929,0.490766279961929,0.490766279961929,0.544339221571423,0.5,0.5,0.490766279961929,0.48170308309534,0.543700180542645,0.525878010275346,0.474121989724654,0.544339221571423,0.490766279961929,0.297569253098319,0.868099109080495,0.455660778428577,0.00841488812067826,0.5,0.0184674400761426,1.09750896794821,12.475745880808,2.91748225047315,0.5,75.5669262119791
CBC_1129,CBC_1129_MSI_TV_v3_Vset2_Tset1_2024-09-25_15h12.48.862.csv,2,43,3,2,b,1,0,2,tac,D,63,1,3D,2D,1,0,b,2.34666800000014,1,0,1,1,3D,2D,D32,2.67414864942653,0.527192739726216,0.473972870043628,0.490766279961929,0.490766279961929,0.509233720038071,0.569267451234482,0.5,0.490766279961929,0.490766279961929,0.490766279961929,0.552754109692101,0.5,0.5,0.490766279961929,0.48170308309534,0.543700180542645,0.530230592999747,0.469769407000253,0.543700180542645,0.48170308309534,0.373235896572983,0.90010941153863,0.456299819457355,0.00842668957258342,0.5,0.0184674400761426,1.09750896794821,12.475745880808,2.91748225047315,0.5,75.5669262119791
CBC_1129,CBC_1129_MSI_TV_v3_Vset2_Tset1_2024-09-25_15h12.48.862.csv,2,44,1,0,b,1,0,3,tac,B,63,1,1B,0B,1,0,b,2.47367169999961,1,0,1,1,1B,0B,B10,2.97892515523761,0.527192739726216,0.473972870043628,0.490766279961929,0.490766279961929,0.509233720038071,0.569267451234482,0.5,0.490766279961929,0.490766279961929,0.490766279961929,0.552754109692101,0.5,0.5,0.490766279961929,0.48170308309534,0.552126870115228,0.527832019470862,0.472167980529138,0.569267451234482,0.509233720038071,0.326877303447009,0.883678349738022,0.430732548765518,0.00795452753317139,0.5,0.0184674400761426,1.09750896794821,12.475745880808,2.91748225047315,0.5,75.5669262119791
