ID,session,trialNr,mod2Stim,visStimLeft,visStimRight,correctKey,frequency,rewardAccurate,probFB,stimPairLeft,stimPairRight,leftCorrect,rightCorrect,pCorrectLeft,pCorrectRight,triplet,rt,surprise,0A belief,1A belief,2A belief,3A belief,0B belief,1B belief,2B belief,3B belief,0C belief,1C belief,2C belief,3C belief,0D belief,1D belief,2D belief,3D belief,reactionTime,choice,choiceLeft,choiceRight,chosenPair,otherPair,beliefPair,beliefOtherPair,beliefPairNorm,beliefOtherPairNorm,choiceAccurate,reward,rewardPE,update2,sim_CBCsimpleRW_CBCdriftDiffusionLR_startBelief,sim_CBCsimpleRW_CBCdriftDiffusionLR_alpha1,sim_CBCsimpleRW_CBCdriftDiffusionLR_nonDecisionTime,sim_CBCsimpleRW_CBCdriftDiffusionLR_weight,sim_CBCsimpleRW_CBCdriftDiffusionLR_startingBoundary,sim_CBCsimpleRW_CBCdriftDiffusionLR_startingPoint,lik,corrLik,fitCBCsimpleRW_CBCdriftDiffusionLR_startBelief,fitCBCsimpleRW_CBCdriftDiffusionLR_alpha1,fitCBCsimpleRW_CBCdriftDiffusionLR_nonDecisionTime,fitCBCsimpleRW_CBCdriftDiffusionLR_weight,fitCBCsimpleRW_CBCdriftDiffusionLR_startingBoundary,fitCBCsimpleRW_CBCdriftDiffusionLR_startingPoint,fit_CBCsimpleRW_CBCdriftDiffusionLR_NLL
161,1,1,A,1,0,l,63,1,1,1A,0A,0,1,0,1,A10,2.49207179046116,2.77258872223978,0.5,0.5,0.5,0.5,0.5,0.5,0.5,0.5,0.5,0.5,0.5,0.5,0.5,0.5,0.5,0.5,10.054827450341,1,1,0,1A,0A,0.5,0.5,0.5,0.5,0,0,-0.5,-0.0681108880975843,0.5,0.256748143878967,0.463827450341043,2.09374716049112,4.64274840537302,0.5,0.0141299504202922,0.499246739595402,0.5,0.136221776195169,0.396737905717888,3.54640433299434,4.43420385516949,0.5,93.9331770753315
161,1,2,D,3,2,a,63,1,1,3D,2D,1,0,1,0,D32,0.135343048066644,2.83321334405622,0.5,0.431889111902416,0.5,0.5,0.5,0.5,0.5,0.5,0.5,0.5,0.5,0.5,0.5,0.5,0.5,0.5,4.71782745034104,0,0,1,2D,3D,0.5,0.5,0.5,0.5,0,0,-0.5,-0.0681108880975843,0.5,0.256748143878967,0.463827450341043,2.09374716049112,4.64274840537302,0.5,0.0542690929408897,0.502597534421071,0.5,0.136221776195169,0.396737905717888,3.54640433299434,4.43420385516949,0.5,93.9331770753315
161,1,3,C,2,0,a,27,1,1,2C,0C,1,0,1,0,C20,3.39210702385237,2.89037175789616,0.5,0.431889111902416,0.5,0.5,0.5,0.5,0.5,0.5,0.5,0.5,0.5,0.5,0.5,0.5,0.431889111902416,0.5,3.53082745034104,0,0,1,0C,2C,0.5,0.5,0.5,0.5,0,0,-0.5,-0.0681108880975843,0.5,0.256748143878967,0.463827450341043,2.09374716049112,4.64274840537302,0.5,0.0726882616683654,0.502277269926657,0.5,0.136221776195169,0.396737905717888,3.54640433299434,4.43420385516949,0.5,93.9331770753315
161,1,4,A,1,0,l,63,1,1,1A,0A,0,1,0,1,A10,0.303866877385476,2.2512917986065,0.5,0.431889111902416,0.5,0.5,0.5,0.5,0.5,0.5,0.431889111902416,0.5,0.5,0.5,0.5,0.5,0.431889111902416,0.5,2.23782745034104,1,1,0,1A,0A,0.431889111902416,0.5,0.463455475964013,0.536544524035987,0,0,-0.431889111902416,-0.058832701942701,0.5,0.256748143878967,0.463827450341043,2.09374716049112,4.64274840537302,0.5,0.0492277124432304,0.240163354783599,0.5,0.136221776195169,0.396737905717888,3.54640433299434,4.43420385516949,0.5,93.9331770753315
161,1,5,B,3,1,l,27,1,1,3B,1B,0,1,0,1,B31,1.6211132693453,2.99573227355399,0.5,0.373056409959715,0.5,0.5,0.5,0.5,0.5,0.5,0.431889111902416,0.5,0.5,0.5,0.5,0.5,0.431889111902416,0.5,8.23082745034104,1,1,0,3B,1B,0.5,0.5,0.5,0.5,0,0,-0.5,-0.0681108880975843,0.5,0.256748143878967,0.463827450341043,2.09374716049112,4.64274840537302,0.5,0.0223876101849331,0.500458271020897,0.5,0.136221776195169,0.396737905717888,3.54640433299434,4.43420385516949,0.5,93.9331770753315
161,1,6,C,2,3,a,63,1,1,2C,3C,1,0,1,0,C23,3.31828884543356,3.04452243772342,0.5,0.373056409959715,0.5,0.5,0.5,0.5,0.5,0.431889111902416,0.431889111902416,0.5,0.5,0.5,0.5,0.5,0.431889111902416,0.5,6.09682745034104,0,0,1,3C,2C,0.5,0.5,0.5,0.5,0,0,-0.5,-0.0681108880975843,0.5,0.256748143878967,0.463827450341043,2.09374716049112,4.64274840537302,0.5,0.0381309695193515,0.498939390390219,0.5,0.136221776195169,0.396737905717888,3.54640433299434,4.43420385516949,0.5,93.9331770753315
161,1,7,D,2,3,l,63,1,1,2D,3D,0,1,0,1,D23,0.274971026424021,3.09104245335832,0.5,0.373056409959715,0.5,0.5,0.5,0.5,0.5,0.431889111902416,0.431889111902416,0.5,0.5,0.431889111902416,0.5,0.5,0.431889111902416,0.5,2.11682745034104,0,0,1,3D,2D,0.5,0.431889111902416,0.536544524035987,0.463455475964013,1,1,0.5,0.0681108880975843,0.5,0.256748143878967,0.463827450341043,2.09374716049112,4.64274840537302,0.5,0.157724537540927,0.760031619037484,0.5,0.136221776195169,0.396737905717888,3.54640433299434,4.43420385516949,0.5,93.9331770753315
161,1,8,B,1,0,a,63,1,1,1B,0B,1,0,1,0,B10,1.37904749354104,3.13549421592915,0.5,0.373056409959715,0.5,0.5,0.5,0.5,0.5,0.431889111902416,0.431889111902416,0.5,0.5,0.431889111902416,0.5,0.5,0.431889111902416,0.568110888097584,7.41882745034104,0,0,1,0B,1B,0.5,0.5,0.5,0.5,0,0,-0.5,-0.0681108880975843,0.5,0.256748143878967,0.463827450341043,2.09374716049112,4.64274840537302,0.5,0.0273725254143832,0.499078387223572,0.5,0.136221776195169,0.396737905717888,3.54640433299434,4.43420385516949,0.5,93.9331770753315
161,1,9,A,0,2,a,27,1,1,0A,2A,1,0,1,0,A02,2.82154929448328,3.17805383034795,0.5,0.373056409959715,0.5,0.5,0.431889111902416,0.5,0.5,0.431889111902416,0.431889111902416,0.5,0.5,0.431889111902416,0.5,0.5,0.431889111902416,0.568110888097584,2.17482745034104,1,1,0,0A,2A,0.5,0.5,0.5,0.5,1,1,0.5,0.0681108880975843,0.5,0.256748143878967,0.463827450341043,2.09374716049112,4.64274840537302,0.5,0.0937290205113957,0.500500203770791,0.5,0.136221776195169,0.396737905717888,3.54640433299434,4.43420385516949,0.5,93.9331770753315
161,1,10,D,0,3,l,9,1,1,0D,3D,0,1,0,1,D03,1.09094656170333,3.2188758248682,0.568110888097584,0.373056409959715,0.5,0.5,0.431889111902416,0.5,0.5,0.431889111902416,0.431889111902416,0.5,0.5,0.431889111902416,0.5,0.5,0.431889111902416,0.568110888097584,8.75982745034104,1,1,0,0D,3D,0.5,0.568110888097584,0.468116190530135,0.531883809469865,0,0,-0.5,-0.0681108880975843,0.5,0.256748143878967,0.463827450341043,2.09374716049112,4.64274840537302,0.5,0.00962546694802762,0.26942175543041,0.5,0.136221776195169,0.396737905717888,3.54640433299434,4.43420385516949,0.5,93.9331770753315
161,1,11,C,3,2,l,63,1,1,3C,2C,0,1,0,1,C32,1.73389519888555,3.25809653802148,0.568110888097584,0.373056409959715,0.5,0.5,0.431889111902416,0.5,0.5,0.431889111902416,0.431889111902416,0.5,0.5,0.431889111902416,0.431889111902416,0.5,0.431889111902416,0.568110888097584,5.63482745034104,0,0,1,2C,3C,0.5,0.431889111902416,0.536544524035987,0.463455475964013,1,1,0.5,0.0681108880975843,0.5,0.256748143878967,0.463827450341043,2.09374716049112,4.64274840537302,0.5,0.0639143836284963,0.759181307142879,0.5,0.136221776195169,0.396737905717888,3.54640433299434,4.43420385516949,0.5,93.9331770753315
161,1,12,B,1,0,a,63,1,1,1B,0B,1,0,1,0,B10,3.35255722482738,2.60268968544438,0.568110888097584,0.373056409959715,0.5,0.5,0.431889111902416,0.5,0.5,0.431889111902416,0.431889111902416,0.5,0.568110888097584,0.431889111902416,0.431889111902416,0.5,0.431889111902416,0.568110888097584,4.69382745034104,1,1,0,1B,0B,0.5,0.431889111902416,0.536544524035987,0.463455475964013,1,1,0.5,0.0681108880975843,0.5,0.256748143878967,0.463827450341043,2.09374716049112,4.64274840537302,0.5,0.0835299998033334,0.759473911460248,0.5,0.136221776195169,0.396737905717888,3.54640433299434,4.43420385516949,0.5,93.9331770753315
161,1,13,D,3,2,a,63,1,1,3D,2D,1,0,1,0,D32,2.00136017879722,2.63905732961526,0.568110888097584,0.373056409959715,0.5,0.5,0.431889111902416,0.568110888097584,0.5,0.431889111902416,0.431889111902416,0.5,0.568110888097584,0.431889111902416,0.431889111902416,0.5,0.431889111902416,0.568110888097584,1.09982745034104,1,1,0,3D,2D,0.568110888097584,0.431889111902416,0.568110888097584,0.431889111902416,1,1,0.431889111902416,0.058832701942701,0.5,0.256748143878967,0.463827450341043,2.09374716049112,4.64274840537302,0.5,0.122364627707125,0.89498237849688,0.5,0.136221776195169,0.396737905717888,3.54640433299434,4.43420385516949,0.5,93.9331770753315
161,1,14,C,3,2,l,63,1,1,3C,2C,0,1,0,1,C32,2.66426007677543,2.67414864942653,0.568110888097584,0.373056409959715,0.5,0.5,0.431889111902416,0.568110888097584,0.5,0.431889111902416,0.431889111902416,0.5,0.568110888097584,0.431889111902416,0.431889111902416,0.5,0.431889111902416,0.626943590040285,5.49582745034104,0,0,1,2C,3C,0.568110888097584,0.431889111902416,0.568110888097584,0.431889111902416,1,1,0.431889111902416,0.058832701942701,0.5,0.256748143878967,0.463827450341043,2.09374716049112,4.64274840537302,0.5,0.0714980118902358,0.895433830507521,0.5,0.136221776195169,0.396737905717888,3.54640433299434,4.43420385516949,0.5,93.9331770753315
161,1,15,B,1,3,a,27,1,1,1B,3B,1,0,1,0,B13,0.15570168991854,3.40119738166216,0.568110888097584,0.373056409959715,0.5,0.5,0.431889111902416,0.568110888097584,0.5,0.431889111902416,0.431889111902416,0.5,0.626943590040285,0.431889111902416,0.431889111902416,0.5,0.431889111902416,0.626943590040285,2.60382745034104,1,1,0,1B,3B,0.568110888097584,0.431889111902416,0.568110888097584,0.431889111902416,1,1,0.431889111902416,0.058832701942701,0.5,0.256748143878967,0.463827450341043,2.09374716049112,4.64274840537302,0.5,0.199410700634442,0.894323473215113,0.5,0.136221776195169,0.396737905717888,3.54640433299434,4.43420385516949,0.5,93.9331770753315
161,1,16,A,3,0,l,9,1,1,3A,0A,0,1,0,1,A30,0.0751068185756347,3.43398720448515,0.568110888097584,0.373056409959715,0.5,0.5,0.431889111902416,0.626943590040285,0.5,0.431889111902416,0.431889111902416,0.5,0.626943590040285,0.431889111902416,0.431889111902416,0.5,0.431889111902416,0.626943590040285,1.11582745034104,0,0,1,0A,3A,0.568110888097584,0.5,0.531883809469865,0.468116190530135,1,1,0.431889111902416,0.058832701942701,0.5,0.256748143878967,0.463827450341043,2.09374716049112,4.64274840537302,0.5,0.0773588125446791,0.733158983605511,0.5,0.136221776195169,0.396737905717888,3.54640433299434,4.43420385516949,0.5,93.9331770753315
161,1,17,D,3,2,a,63,1,1,3D,2D,1,0,1,0,D32,3.24921773035355,2.36712361413162,0.626943590040285,0.373056409959715,0.5,0.5,0.431889111902416,0.626943590040285,0.5,0.431889111902416,0.431889111902416,0.5,0.626943590040285,0.431889111902416,0.431889111902416,0.5,0.431889111902416,0.626943590040285,4.04982745034104,1,1,0,3D,2D,0.626943590040285,0.431889111902416,0.592108261191778,0.407891738808221,1,1,0.373056409959715,0.0508184067857053,0.5,0.256748143878967,0.463827450341043,2.09374716049112,4.64274840537302,0.5,0.124443357478623,0.947678158268598,0.5,0.136221776195169,0.396737905717888,3.54640433299434,4.43420385516949,0.5,93.9331770753315
161,1,18,C,2,0,a,27,1,1,2C,0C,1,0,1,0,C20,1.38862120763937,2.80336038090653,0.626943590040285,0.373056409959715,0.5,0.5,0.431889111902416,0.626943590040285,0.5,0.431889111902416,0.431889111902416,0.5,0.626943590040285,0.431889111902416,0.431889111902416,0.5,0.431889111902416,0.677761996825991,2.18682745034104,1,1,0,2C,0C,0.626943590040285,0.431889111902416,0.592108261191778,0.407891738808221,1,1,0.373056409959715,0.0508184067857053,0.5,0.256748143878967,0.463827450341043,2.09374716049112,4.64274840537302,0.5,0.272028848807266,0.947880027387176,0.5,0.136221776195169,0.396737905717888,3.54640433299434,4.43420385516949,0.5,93.9331770753315
161,1,19,A,1,0,l,63,1,1,1A,0A,0,1,0,1,A10,2.59350673192234,2.42774823594805,0.626943590040285,0.373056409959715,0.5,0.5,0.431889111902416,0.626943590040285,0.5,0.431889111902416,0.431889111902416,0.5,0.677761996825991,0.431889111902416,0.431889111902416,0.5,0.431889111902416,0.677761996825991,2.47382745034104,0,0,1,0A,1A,0.626943590040285,0.373056409959715,0.626943590040285,0.373056409959715,1,1,0.373056409959715,0.0508184067857053,0.5,0.256748143878967,0.463827450341043,2.09374716049112,4.64274840537302,0.5,0.286842735645729,0.98178349028045,0.5,0.136221776195169,0.396737905717888,3.54640433299434,4.43420385516949,0.5,93.9331770753315
161,1,20,B,0,1,l,63,1,1,0B,1B,0,1,0,1,B01,1.55423363500088,3.55534806148941,0.677761996825991,0.373056409959715,0.5,0.5,0.431889111902416,0.626943590040285,0.5,0.431889111902416,0.431889111902416,0.5,0.677761996825991,0.431889111902416,0.431889111902416,0.5,0.431889111902416,0.677761996825991,5.78182745034104,0,0,1,1B,0B,0.626943590040285,0.431889111902416,0.592108261191778,0.407891738808221,1,1,0.373056409959715,0.0508184067857053,0.5,0.256748143878967,0.463827450341043,2.09374716049112,4.64274840537302,0.5,0.0557524490589993,0.947777586989081,0.5,0.136221776195169,0.396737905717888,3.54640433299434,4.43420385516949,0.5,93.9331770753315
161,1,21,D,1,3,l,27,1,1,1D,3D,0,1,0,1,D13,1.89163683970814,3.58351893845611,0.677761996825991,0.373056409959715,0.5,0.5,0.431889111902416,0.677761996825991,0.5,0.431889111902416,0.431889111902416,0.5,0.677761996825991,0.431889111902416,0.431889111902416,0.5,0.431889111902416,0.677761996825991,2.16382745034104,0,0,1,3D,1D,0.677761996825991,0.5,0.575466009815672,0.424533990184328,1,1,0.322238003174009,0.0438958331499479,0.5,0.256748143878967,0.463827450341043,2.09374716049112,4.64274840537302,0.5,0.238851688704369,0.915361274768591,0.5,0.136221776195169,0.396737905717888,3.54640433299434,4.43420385516949,0.5,93.9331770753315
161,1,22,C,2,3,a,63,1,1,2C,3C,1,0,1,0,C23,0.356111914619514,2.91777073208428,0.677761996825991,0.373056409959715,0.5,0.5,0.431889111902416,0.677761996825991,0.5,0.431889111902416,0.431889111902416,0.5,0.677761996825991,0.431889111902416,0.431889111902416,0.5,0.431889111902416,0.721657829975939,2.22782745034104,1,1,0,2C,3C,0.677761996825991,0.431889111902416,0.610788374377119,0.389211625622881,1,1,0.322238003174009,0.0438958331499479,0.5,0.256748143878967,0.463827450341043,2.09374716049112,4.64274840537302,0.5,0.302548165231258,0.970245970616533,0.5,0.136221776195169,0.396737905717888,3.54640433299434,4.43420385516949,0.5,93.9331770753315
161,1,23,B,1,0,a,63,1,1,1B,0B,1,0,1,0,B10,1.48806385023323,2.53897387105828,0.677761996825991,0.373056409959715,0.5,0.5,0.431889111902416,0.677761996825991,0.5,0.431889111902416,0.431889111902416,0.5,0.721657829975939,0.431889111902416,0.431889111902416,0.5,0.431889111902416,0.721657829975939,4.33582745034104,1,1,0,1B,0B,0.677761996825991,0.431889111902416,0.610788374377119,0.389211625622881,1,1,0.322238003174009,0.0438958331499479,0.5,0.256748143878967,0.463827450341043,2.09374716049112,4.64274840537302,0.5,0.100488178442322,0.970248697339945,0.5,0.136221776195169,0.396737905717888,3.54640433299434,4.43420385516949,0.5,93.9331770753315
161,1,24,A,2,0,l,27,1,1,2A,0A,0,1,0,1,A20,0.613856314731465,3.66356164612965,0.677761996825991,0.373056409959715,0.5,0.5,0.431889111902416,0.721657829975939,0.5,0.431889111902416,0.431889111902416,0.5,0.721657829975939,0.431889111902416,0.431889111902416,0.5,0.431889111902416,0.721657829975939,2.62182745034104,0,0,1,0A,2A,0.677761996825991,0.5,0.575466009815672,0.424533990184328,1,1,0.322238003174009,0.0438958331499479,0.5,0.256748143878967,0.463827450341043,2.09374716049112,4.64274840537302,0.5,0.210209797627474,0.914717492896943,0.5,0.136221776195169,0.396737905717888,3.54640433299434,4.43420385516949,0.5,93.9331770753315
161,1,25,D,2,3,l,63,1,1,2D,3D,0,1,0,1,D23,3.27246772893051,2.99573227355399,0.721657829975939,0.373056409959715,0.5,0.5,0.431889111902416,0.721657829975939,0.5,0.431889111902416,0.431889111902416,0.5,0.721657829975939,0.431889111902416,0.431889111902416,0.5,0.431889111902416,0.721657829975939,5.30882745034104,0,0,1,3D,2D,0.721657829975939,0.431889111902416,0.625599014463028,0.374400985536972,1,1,0.278342170024061,0.0379162647906953,0.5,0.256748143878967,0.463827450341043,2.09374716049112,4.64274840537302,0.5,0.0478443562356316,0.981067170231978,0.5,0.136221776195169,0.396737905717888,3.54640433299434,4.43420385516949,0.5,93.9331770753315
161,1,26,C,2,0,a,27,1,1,2C,0C,1,0,1,0,C20,3.45128158593367,2.6149597780362,0.721657829975939,0.373056409959715,0.5,0.5,0.431889111902416,0.721657829975939,0.5,0.431889111902416,0.431889111902416,0.5,0.721657829975939,0.431889111902416,0.431889111902416,0.5,0.431889111902416,0.759574094766634,1.35782745034104,1,1,0,2C,0C,0.721657829975939,0.431889111902416,0.625599014463028,0.374400985536972,1,1,0.278342170024061,0.0379162647906953,0.5,0.256748143878967,0.463827450341043,2.09374716049112,4.64274840537302,0.5,0.358349680852938,0.981142925392381,0.5,0.136221776195169,0.396737905717888,3.54640433299434,4.43420385516949,0.5,93.9331770753315
161,1,27,B,1,0,a,63,1,1,1B,0B,1,0,1,0,B10,2.38285519715325,2.35137525716348,0.721657829975939,0.373056409959715,0.5,0.5,0.431889111902416,0.721657829975939,0.5,0.431889111902416,0.431889111902416,0.5,0.759574094766634,0.431889111902416,0.431889111902416,0.5,0.431889111902416,0.759574094766634,1.07282745034104,1,1,0,1B,0B,0.721657829975939,0.431889111902416,0.625599014463028,0.374400985536972,1,1,0.278342170024061,0.0379162647906953,0.5,0.256748143878967,0.463827450341043,2.09374716049112,4.64274840537302,0.5,0.231263996902429,0.981104946586199,0.5,0.136221776195169,0.396737905717888,3.54640433299434,4.43420385516949,0.5,93.9331770753315
161,1,28,A,0,1,a,63,1,1,0A,1A,1,0,1,0,A01,1.38547598358292,3.76120011569356,0.721657829975939,0.373056409959715,0.5,0.5,0.431889111902416,0.759574094766634,0.5,0.431889111902416,0.431889111902416,0.5,0.759574094766634,0.431889111902416,0.431889111902416,0.5,0.431889111902416,0.759574094766634,5.29482745034104,1,1,0,0A,1A,0.721657829975939,0.373056409959715,0.659220282014745,0.340779717985255,1,1,0.278342170024061,0.0379162647906953,0.5,0.256748143878967,0.463827450341043,2.09374716049112,4.64274840537302,0.5,0.0252503308077265,0.993321066457984,0.5,0.136221776195169,0.396737905717888,3.54640433299434,4.43420385516949,0.5,93.9331770753315
161,1,29,C,3,2,l,63,1,1,3C,2C,0,1,0,1,C32,2.67045354267057,2.68557734525015,0.759574094766634,0.373056409959715,0.5,0.5,0.431889111902416,0.759574094766634,0.5,0.431889111902416,0.431889111902416,0.5,0.759574094766634,0.431889111902416,0.431889111902416,0.5,0.431889111902416,0.759574094766634,1.25282745034104,0,0,1,2C,3C,0.759574094766634,0.431889111902416,0.637513681089792,0.362486318910208,1,1,0.240425905233366,0.0327512438542204,0.5,0.256748143878967,0.463827450341043,2.09374716049112,4.64274840537302,0.5,0.36602528960169,0.986950126958272,0.5,0.136221776195169,0.396737905717888,3.54640433299434,4.43420385516949,0.5,93.9331770753315
161,1,30,D,3,1,a,27,1,1,3D,1D,1,0,1,0,D31,0.79465910713041,3.80666248977032,0.759574094766634,0.373056409959715,0.5,0.5,0.431889111902416,0.759574094766634,0.5,0.431889111902416,0.431889111902416,0.5,0.792325338620854,0.431889111902416,0.431889111902416,0.5,0.431889111902416,0.759574094766634,1.91182745034104,1,1,0,3D,1D,0.759574094766634,0.5,0.603040422887836,0.396959577112164,1,1,0.240425905233366,0.0327512438542204,0.5,0.256748143878967,0.463827450341043,2.09374716049112,4.64274840537302,0.5,0.315810540193409,0.962310728281246,0.5,0.136221776195169,0.396737905717888,3.54640433299434,4.43420385516949,0.5,93.9331770753315
161,1,31,A,1,0,l,63,1,1,1A,0A,0,1,0,1,A10,0.314015155862114,2.4423470353692,0.759574094766634,0.373056409959715,0.5,0.5,0.431889111902416,0.759574094766634,0.5,0.431889111902416,0.431889111902416,0.5,0.792325338620854,0.431889111902416,0.431889111902416,0.5,0.431889111902416,0.792325338620854,3.44682745034104,0,0,1,0A,1A,0.759574094766634,0.373056409959715,0.670628321943485,0.329371678056515,1,1,0.240425905233366,0.0327512438542204,0.5,0.256748143878967,0.463827450341043,2.09374716049112,4.64274840537302,0.5,0.115280160937762,0.995404100110238,0.5,0.136221776195169,0.396737905717888,3.54640433299434,4.43420385516949,0.5,93.9331770753315
161,1,32,D,3,2,a,63,1,1,3D,2D,1,0,1,0,D32,2.55814739266885,2.46385324059017,0.792325338620854,0.373056409959715,0.5,0.5,0.431889111902416,0.759574094766634,0.5,0.431889111902416,0.431889111902416,0.5,0.792325338620854,0.431889111902416,0.431889111902416,0.5,0.431889111902416,0.792325338620854,2.43482745034104,1,1,0,3D,2D,0.792325338620854,0.431889111902416,0.647211228622721,0.352788771377279,1,1,0.207674661379146,0.0282898112437974,0.5,0.256748143878967,0.463827450341043,2.09374716049112,4.64274840537302,0.5,0.303346402221425,0.990346598022956,0.5,0.136221776195169,0.396737905717888,3.54640433299434,4.43420385516949,0.5,93.9331770753315
161,1,33,B,2,1,l,9,1,1,2B,1B,0,1,0,1,B21,2.74337562081062,3.87120101090789,0.792325338620854,0.373056409959715,0.5,0.5,0.431889111902416,0.759574094766634,0.5,0.431889111902416,0.431889111902416,0.5,0.792325338620854,0.431889111902416,0.431889111902416,0.5,0.431889111902416,0.820615149864652,2.62282745034104,0,0,1,1B,2B,0.759574094766634,0.5,0.603040422887836,0.396959577112164,1,1,0.240425905233366,0.0327512438542204,0.5,0.256748143878967,0.463827450341043,2.09374716049112,4.64274840537302,0.5,0.246225726185886,0.962411989391275,0.5,0.136221776195169,0.396737905717888,3.54640433299434,4.43420385516949,0.5,93.9331770753315
161,1,34,A,1,0,l,63,1,1,1A,0A,0,1,0,1,A10,2.59360533740884,2.28238238567653,0.792325338620854,0.373056409959715,0.5,0.5,0.431889111902416,0.792325338620854,0.5,0.431889111902416,0.431889111902416,0.5,0.792325338620854,0.431889111902416,0.431889111902416,0.5,0.431889111902416,0.820615149864652,1.95382745034104,0,0,1,0A,1A,0.792325338620854,0.373056409959715,0.679884801341624,0.320115198658376,1,1,0.207674661379146,0.0282898112437974,0.5,0.256748143878967,0.463827450341043,2.09374716049112,4.64274840537302,0.5,0.447622037404579,0.996535730735369,0.5,0.136221776195169,0.396737905717888,3.54640433299434,4.43420385516949,0.5,93.9331770753315
161,1,35,C,2,1,a,9,1,1,2C,1C,1,0,1,0,C21,0.277738332704949,3.91202300542815,0.820615149864652,0.373056409959715,0.5,0.5,0.431889111902416,0.792325338620854,0.5,0.431889111902416,0.431889111902416,0.5,0.792325338620854,0.431889111902416,0.431889111902416,0.5,0.431889111902416,0.820615149864652,8.76482745034104,1,1,0,2C,1C,0.792325338620854,0.5,0.6131005211632,0.3868994788368,1,1,0.207674661379146,0.0282898112437974,0.5,0.256748143878967,0.463827450341043,2.09374716049112,4.64274840537302,0.5,0.00783042947479969,0.972311803336399,0.5,0.136221776195169,0.396737905717888,3.54640433299434,4.43420385516949,0.5,93.9331770753315
161,1,36,B,1,0,a,63,1,1,1B,0B,1,0,1,0,B10,0.828407859066651,2.32238772029023,0.820615149864652,0.373056409959715,0.5,0.5,0.431889111902416,0.792325338620854,0.5,0.431889111902416,0.431889111902416,0.5,0.820615149864652,0.431889111902416,0.431889111902416,0.5,0.431889111902416,0.820615149864652,2.21582745034104,1,1,0,1B,0B,0.792325338620854,0.431889111902416,0.647211228622721,0.352788771377279,1,1,0.207674661379146,0.0282898112437974,0.5,0.256748143878967,0.463827450341043,2.09374716049112,4.64274840537302,0.5,0.350675663725093,0.990359490981378,0.5,0.136221776195169,0.396737905717888,3.54640433299434,4.43420385516949,0.5,93.9331770753315
161,1,37,A,0,1,a,63,1,1,0A,1A,1,0,1,0,A01,1.49041006402238,3.25809653802148,0.820615149864652,0.373056409959715,0.5,0.5,0.431889111902416,0.820615149864652,0.5,0.431889111902416,0.431889111902416,0.5,0.820615149864652,0.431889111902416,0.431889111902416,0.5,0.431889111902416,0.820615149864652,1.63882745034104,1,1,0,0A,1A,0.820615149864652,0.373056409959715,0.687471476647559,0.312528523352441,1,1,0.179384850135348,0.0244361229079413,0.5,0.256748143878967,0.463827450341043,2.09374716049112,4.64274840537302,0.5,0.561980393483589,0.997265510308721,0.5,0.136221776195169,0.396737905717888,3.54640433299434,4.43420385516949,0.5,93.9331770753315
161,1,38,B,0,1,l,63,1,1,0B,1B,0,1,0,1,B01,2.16042130981041,3.27714473299218,0.845051272772593,0.373056409959715,0.5,0.5,0.431889111902416,0.820615149864652,0.5,0.431889111902416,0.431889111902416,0.5,0.820615149864652,0.431889111902416,0.431889111902416,0.5,0.431889111902416,0.820615149864652,2.66782745034104,0,0,1,1B,0B,0.820615149864652,0.431889111902416,0.655179527059577,0.344820472940423,1,1,0.179384850135348,0.0244361229079413,0.5,0.256748143878967,0.463827450341043,2.09374716049112,4.64274840537302,0.5,0.253917122113787,0.992407063778386,0.5,0.136221776195169,0.396737905717888,3.54640433299434,4.43420385516949,0.5,93.9331770753315
161,1,39,D,1,3,l,27,1,1,1D,3D,0,1,0,1,D13,0.231793222832511,3.29583686600433,0.845051272772593,0.373056409959715,0.5,0.5,0.431889111902416,0.845051272772593,0.5,0.431889111902416,0.431889111902416,0.5,0.820615149864652,0.431889111902416,0.431889111902416,0.5,0.431889111902416,0.820615149864652,1.16682745034104,0,0,1,3D,1D,0.820615149864652,0.5,0.621388562707883,0.378611437292117,1,1,0.179384850135348,0.0244361229079413,0.5,0.256748143878967,0.463827450341043,2.09374716049112,4.64274840537302,0.5,0.272764016973951,0.978483832344461,0.5,0.136221776195169,0.396737905717888,3.54640433299434,4.43420385516949,0.5,93.9331770753315
161,1,40,C,3,2,l,63,1,1,3C,2C,0,1,0,1,C32,2.78318070269041,2.62103882411258,0.845051272772593,0.373056409959715,0.5,0.5,0.431889111902416,0.845051272772593,0.5,0.431889111902416,0.431889111902416,0.5,0.820615149864652,0.431889111902416,0.431889111902416,0.5,0.431889111902416,0.845051272772593,3.74182745034104,0,0,1,2C,3C,0.820615149864652,0.431889111902416,0.655179527059577,0.344820472940423,1,1,0.179384850135348,0.0244361229079413,0.5,0.256748143878967,0.463827450341043,2.09374716049112,4.64274840537302,0.5,0.103878170143503,0.992497077151956,0.5,0.136221776195169,0.396737905717888,3.54640433299434,4.43420385516949,0.5,93.9331770753315
161,1,41,A,0,2,a,27,1,1,0A,2A,1,0,1,0,A02,0.14993507250971,3.3322045101752,0.845051272772593,0.373056409959715,0.5,0.5,0.431889111902416,0.845051272772593,0.5,0.431889111902416,0.431889111902416,0.5,0.845051272772593,0.431889111902416,0.431889111902416,0.5,0.431889111902416,0.845051272772593,1.84982745034104,1,1,0,0A,2A,0.845051272772593,0.5,0.628266958946973,0.371733041053027,1,1,0.154948727227407,0.0211073908420981,0.5,0.256748143878967,0.463827450341043,2.09374716049112,4.64274840537302,0.5,0.383399675064888,0.982632398057121,0.5,0.136221776195169,0.396737905717888,3.54640433299434,4.43420385516949,0.5,93.9331770753315
161,1,42,D,2,3,l,63,1,1,2D,3D,0,1,0,1,D23,2.7172276091837,2.94443897916644,0.866158663614691,0.373056409959715,0.5,0.5,0.431889111902416,0.845051272772593,0.5,0.431889111902416,0.431889111902416,0.5,0.845051272772593,0.431889111902416,0.431889111902416,0.5,0.431889111902416,0.845051272772593,2.86282745034104,0,0,1,3D,2D,0.845051272772593,0.431889111902416,0.66177817141218,0.33822182858782,1,1,0.154948727227407,0.0211073908420981,0.5,0.256748143878967,0.463827450341043,2.09374716049112,4.64274840537302,0.5,0.211212751581207,0.993914767304605,0.5,0.136221776195169,0.396737905717888,3.54640433299434,4.43420385516949,0.5,93.9331770753315
161,1,43,B,1,3,a,27,1,1,1B,3B,1,0,1,0,B13,3.33994401750807,3.36729582998647,0.866158663614691,0.373056409959715,0.5,0.5,0.431889111902416,0.845051272772593,0.5,0.431889111902416,0.431889111902416,0.5,0.845051272772593,0.431889111902416,0.431889111902416,0.5,0.431889111902416,0.866158663614691,0.913827450341044,1,1,0,1B,3B,0.845051272772593,0.431889111902416,0.66177817141218,0.33822182858782,1,1,0.154948727227407,0.0211073908420981,0.5,0.256748143878967,0.463827450341043,2.09374716049112,4.64274840537302,0.5,0.185901843979156,0.993873884954791,0.5,0.136221776195169,0.396737905717888,3.54640433299434,4.43420385516949,0.5,93.9331770753315
161,1,44,C,3,2,l,63,1,1,3C,2C,0,1,0,1,C32,1.12221571390347,2.46809953147162,0.866158663614691,0.373056409959715,0.5,0.5,0.431889111902416,0.866158663614691,0.5,0.431889111902416,0.431889111902416,0.5,0.845051272772593,0.431889111902416,0.431889111902416,0.5,0.431889111902416,0.866158663614691,2.09482745034104,0,0,1,2C,3C,0.845051272772593,0.431889111902416,0.66177817141218,0.33822182858782,1,1,0.154948727227407,0.0211073908420981,0.5,0.256748143878967,0.463827450341043,2.09374716049112,4.64274840537302,0.5,0.391336280814317,0.993875836986285,0.5,0.136221776195169,0.396737905717888,3.54640433299434,4.43420385516949,0.5,93.9331770753315
