ID,filename,session,trial,visStimLeft,visStimRight,correctKey,leftCorrect,rightCorrect,secondStim,mod2Type,mod2Stim,frequency,rewardAccurate,stimPairLeft,stimPairRight,pCorrectLeft,pCorrectRight,key,reactionTime,choiceLeft,choiceRight,choiceAccurate,reward,chosenPair,otherPair,triplet,surprise,0A belief,1A belief,2A belief,3A belief,0B belief,1B belief,2B belief,3B belief,0C belief,1C belief,2C belief,3C belief,0D belief,1D belief,2D belief,3D belief,beliefPairNorm,beliefOtherPairNorm,beliefPair,beliefOtherPair,lik,corrLik,rewardPE,update2,fitCBCsimpleRW_CBCdriftDiffusionLR_startBelief,fitCBCsimpleRW_CBCdriftDiffusionLR_alpha1,fitCBCsimpleRW_CBCdriftDiffusionLR_nonDecisionTime,fitCBCsimpleRW_CBCdriftDiffusionLR_weight,fitCBCsimpleRW_CBCdriftDiffusionLR_startingBoundary,fitCBCsimpleRW_CBCdriftDiffusionLR_startingPoint,fit_CBCsimpleRW_CBCdriftDiffusionLR_NLL
CBC_1020,CBC_1020_MSI_TV_v3_Vset1_Tset2_2023-06-28_15h03.37.595.csv,1,1,1,0,b,1,0,0,tac,B,63,1,1B,0B,1,0,z,2.3386438,0,1,0,0,0B,1B,B10,2.77258872223978,0.5,0.5,0.5,0.5,0.5,0.5,0.5,0.5,0.5,0.5,0.5,0.5,0.5,0.5,0.5,0.5,0.5,0.5,0.5,0.5,0.18731313395009,0.499993410602977,-0.5,-0.00467107975489267,0.5,0.00934215950978534,1.0968840425096,0.00752527305903139,2.60063755749863,0.5,75.8478413024671
CBC_1020,CBC_1020_MSI_TV_v3_Vset1_Tset2_2023-06-28_15h03.37.595.csv,1,2,1,0,z,0,1,3,tac,A,63,1,1A,0A,0,1,z,2.3928044,0,1,1,1,0A,1A,A10,2.83321334405622,0.5,0.5,0.5,0.5,0.495328920245107,0.5,0.5,0.5,0.5,0.5,0.5,0.5,0.5,0.5,0.5,0.5,0.5,0.5,0.5,0.5,0.179859224539253,0.499159502179748,0.5,0.00467107975489267,0.5,0.00934215950978534,1.0968840425096,0.00752527305903139,2.60063755749863,0.5,75.8478413024671
CBC_1020,CBC_1020_MSI_TV_v3_Vset1_Tset2_2023-06-28_15h03.37.595.csv,1,3,3,2,b,1,0,1,tac,D,63,1,3D,2D,1,0,b,2.2867541,1,0,1,1,3D,2D,D32,2.89037175789616,0.504671079754893,0.5,0.5,0.5,0.495328920245107,0.5,0.5,0.5,0.5,0.5,0.5,0.5,0.5,0.5,0.5,0.5,0.5,0.5,0.5,0.5,0.194334846242006,0.49984187105052,0.5,0.00467107975489267,0.5,0.00934215950978534,1.0968840425096,0.00752527305903139,2.60063755749863,0.5,75.8478413024671
CBC_1020,CBC_1020_MSI_TV_v3_Vset1_Tset2_2023-06-28_15h03.37.595.csv,1,4,1,2,b,1,0,0,tac,B,9,1,1B,2B,1,0,z,2.3800762,0,1,0,0,2B,1B,B12,2.94443897916644,0.504671079754893,0.5,0.5,0.5,0.495328920245107,0.5,0.5,0.5,0.5,0.5,0.5,0.5,0.5,0.5,0.5,0.504671079754893,0.5,0.5,0.5,0.5,0.181490210647683,0.499089788736362,-0.5,-0.00467107975489267,0.5,0.00934215950978534,1.0968840425096,0.00752527305903139,2.60063755749863,0.5,75.8478413024671
CBC_1020,CBC_1020_MSI_TV_v3_Vset1_Tset2_2023-06-28_15h03.37.595.csv,1,5,2,0,z,0,1,3,tac,A,27,1,2A,0A,0,1,b,2.3697365,1,0,0,0,2A,0A,A20,2.99573227355399,0.504671079754893,0.5,0.5,0.5,0.495328920245107,0.5,0.495328920245107,0.5,0.5,0.5,0.5,0.5,0.5,0.5,0.5,0.504671079754893,0.497675318893407,0.502324681106593,0.5,0.504671079754893,0.182902312011146,0.49924489994828,-0.5,-0.00467107975489267,0.5,0.00934215950978534,1.0968840425096,0.00752527305903139,2.60063755749863,0.5,75.8478413024671
CBC_1020,CBC_1020_MSI_TV_v3_Vset1_Tset2_2023-06-28_15h03.37.595.csv,1,6,3,2,z,0,1,2,tac,C,63,1,3C,2C,0,1,b,2.1898982,1,0,0,0,3C,2C,C32,3.04452243772342,0.504671079754893,0.5,0.495328920245107,0.5,0.495328920245107,0.5,0.495328920245107,0.5,0.5,0.5,0.5,0.5,0.5,0.5,0.5,0.504671079754893,0.5,0.5,0.5,0.5,0.208303858899468,0.500316774047524,-0.5,-0.00467107975489267,0.5,0.00934215950978534,1.0968840425096,0.00752527305903139,2.60063755749863,0.5,75.8478413024671
CBC_1020,CBC_1020_MSI_TV_v3_Vset1_Tset2_2023-06-28_15h03.37.595.csv,1,7,3,1,b,1,0,1,tac,D,27,1,3D,1D,1,0,z,2.1256749,0,1,0,0,1D,3D,D31,3.09104245335832,0.504671079754893,0.5,0.495328920245107,0.5,0.495328920245107,0.5,0.495328920245107,0.5,0.5,0.5,0.5,0.495328920245107,0.5,0.5,0.5,0.504671079754893,0.497675318893407,0.502324681106593,0.5,0.504671079754893,0.217623253835265,0.499934045916844,-0.5,-0.00467107975489267,0.5,0.00934215950978534,1.0968840425096,0.00752527305903139,2.60063755749863,0.5,75.8478413024671
CBC_1020,CBC_1020_MSI_TV_v3_Vset1_Tset2_2023-06-28_15h03.37.595.csv,1,8,0,1,b,1,0,3,tac,A,63,1,0A,1A,1,0,z,2.5859114,0,1,0,0,1A,0A,A01,3.13549421592915,0.504671079754893,0.5,0.495328920245107,0.5,0.495328920245107,0.5,0.495328920245107,0.5,0.5,0.5,0.5,0.495328920245107,0.5,0.495328920245107,0.5,0.504671079754893,0.497675318893407,0.502324681106593,0.5,0.504671079754893,0.156640494160044,0.499971529362266,-0.5,-0.00467107975489267,0.5,0.00934215950978534,1.0968840425096,0.00752527305903139,2.60063755749863,0.5,75.8478413024671
CBC_1020,CBC_1020_MSI_TV_v3_Vset1_Tset2_2023-06-28_15h03.37.595.csv,1,9,0,2,z,0,1,2,tac,C,27,1,0C,2C,0,1,b,2.4336349,1,0,0,0,0C,2C,C02,3.17805383034795,0.504671079754893,0.495328920245107,0.495328920245107,0.5,0.495328920245107,0.5,0.495328920245107,0.5,0.5,0.5,0.5,0.495328920245107,0.5,0.495328920245107,0.5,0.504671079754893,0.5,0.5,0.5,0.5,0.175223248999048,0.500833370263759,-0.5,-0.00467107975489267,0.5,0.00934215950978534,1.0968840425096,0.00752527305903139,2.60063755749863,0.5,75.8478413024671
CBC_1020,CBC_1020_MSI_TV_v3_Vset1_Tset2_2023-06-28_15h03.37.595.csv,1,10,3,2,b,1,0,1,tac,D,63,1,3D,2D,1,0,z,2.3966332,0,1,0,0,2D,3D,D32,2.52572864430826,0.504671079754893,0.495328920245107,0.495328920245107,0.5,0.495328920245107,0.5,0.495328920245107,0.5,0.495328920245107,0.5,0.5,0.495328920245107,0.5,0.495328920245107,0.5,0.504671079754893,0.497675318893407,0.502324681106593,0.5,0.504671079754893,0.179126093533669,0.498498074439678,-0.5,-0.00467107975489267,0.5,0.00934215950978534,1.0968840425096,0.00752527305903139,2.60063755749863,0.5,75.8478413024671
CBC_1020,CBC_1020_MSI_TV_v3_Vset1_Tset2_2023-06-28_15h03.37.595.csv,1,11,0,1,z,0,1,0,tac,B,63,1,0B,1B,0,1,b,2.4091885,1,0,0,0,0B,1B,B01,3.25809653802148,0.504671079754893,0.495328920245107,0.495328920245107,0.5,0.495328920245107,0.5,0.495328920245107,0.5,0.495328920245107,0.5,0.5,0.495328920245107,0.5,0.495328920245107,0.495328920245107,0.504671079754893,0.497653499431252,0.502346500568748,0.495328920245107,0.5,0.178003786771972,0.499880373217576,-0.495328920245107,-0.00462744178273953,0.5,0.00934215950978534,1.0968840425096,0.00752527305903139,2.60063755749863,0.5,75.8478413024671
CBC_1020,CBC_1020_MSI_TV_v3_Vset1_Tset2_2023-06-28_15h03.37.595.csv,1,12,1,0,z,0,1,3,tac,A,63,1,1A,0A,0,1,b,2.2873354,1,0,0,0,1A,0A,A10,2.60268968544438,0.504671079754893,0.495328920245107,0.495328920245107,0.5,0.490701478462368,0.5,0.495328920245107,0.5,0.495328920245107,0.5,0.5,0.495328920245107,0.5,0.495328920245107,0.495328920245107,0.504671079754893,0.495328920245107,0.504671079754893,0.495328920245107,0.504671079754893,0.194504214492764,0.500484756221322,-0.495328920245107,-0.00462744178273953,0.5,0.00934215950978534,1.0968840425096,0.00752527305903139,2.60063755749863,0.5,75.8478413024671
CBC_1020,CBC_1020_MSI_TV_v3_Vset1_Tset2_2023-06-28_15h03.37.595.csv,1,13,3,2,b,1,0,1,tac,D,63,1,3D,2D,1,0,z,1.4602272,0,1,0,0,2D,3D,D32,2.23359222150709,0.504671079754893,0.490701478462368,0.495328920245107,0.5,0.490701478462368,0.5,0.495328920245107,0.5,0.495328920245107,0.5,0.5,0.495328920245107,0.5,0.495328920245107,0.495328920245107,0.504671079754893,0.495328920245107,0.504671079754893,0.495328920245107,0.504671079754893,0.231162961615136,0.499925654751434,-0.495328920245107,-0.00462744178273953,0.5,0.00934215950978534,1.0968840425096,0.00752527305903139,2.60063755749863,0.5,75.8478413024671
CBC_1020,CBC_1020_MSI_TV_v3_Vset1_Tset2_2023-06-28_15h03.37.595.csv,1,14,0,2,z,0,1,2,tac,C,27,1,0C,2C,0,1,b,3.0042409,1,0,0,0,0C,2C,C02,2.67414864942653,0.504671079754893,0.490701478462368,0.495328920245107,0.5,0.490701478462368,0.5,0.495328920245107,0.5,0.495328920245107,0.5,0.5,0.495328920245107,0.5,0.495328920245107,0.490701478462368,0.504671079754893,0.497653499431252,0.502346500568748,0.495328920245107,0.5,0.115600620113604,0.500451118148933,-0.495328920245107,-0.00462744178273953,0.5,0.00934215950978534,1.0968840425096,0.00752527305903139,2.60063755749863,0.5,75.8478413024671
CBC_1020,CBC_1020_MSI_TV_v3_Vset1_Tset2_2023-06-28_15h03.37.595.csv,1,15,1,0,z,0,1,3,tac,A,63,1,1A,0A,0,1,z,2.6848113,0,1,1,1,0A,1A,A10,2.30258509299405,0.504671079754893,0.490701478462368,0.495328920245107,0.5,0.490701478462368,0.5,0.495328920245107,0.5,0.490701478462368,0.5,0.5,0.495328920245107,0.5,0.495328920245107,0.490701478462368,0.504671079754893,0.507017272667003,0.492982727332997,0.504671079754893,0.490701478462368,0.145854410926452,0.500269627899677,0.495328920245107,0.00462744178273953,0.5,0.00934215950978534,1.0968840425096,0.00752527305903139,2.60063755749863,0.5,75.8478413024671
CBC_1020,CBC_1020_MSI_TV_v3_Vset1_Tset2_2023-06-28_15h03.37.595.csv,1,16,3,1,z,0,1,0,tac,B,27,1,3B,1B,0,1,z,2.2661636,0,1,1,1,1B,3B,B31,3.43398720448515,0.509298521537632,0.490701478462368,0.495328920245107,0.5,0.490701478462368,0.5,0.495328920245107,0.5,0.490701478462368,0.5,0.5,0.495328920245107,0.5,0.495328920245107,0.490701478462368,0.504671079754893,0.5,0.5,0.5,0.5,0.197144297676557,0.499691743965484,0.5,0.00467107975489267,0.5,0.00934215950978534,1.0968840425096,0.00752527305903139,2.60063755749863,0.5,75.8478413024671
CBC_1020,CBC_1020_MSI_TV_v3_Vset1_Tset2_2023-06-28_15h03.37.595.csv,1,17,2,3,b,1,0,2,tac,C,63,1,2C,3C,1,0,b,2.0921553,1,0,1,1,2C,3C,C23,3.46573590279973,0.509298521537632,0.490701478462368,0.495328920245107,0.5,0.490701478462368,0.504671079754893,0.495328920245107,0.5,0.490701478462368,0.5,0.5,0.495328920245107,0.5,0.495328920245107,0.490701478462368,0.504671079754893,0.502346500568748,0.497653499431252,0.5,0.495328920245107,0.222974258838828,0.500657058364695,0.5,0.00467107975489267,0.5,0.00934215950978534,1.0968840425096,0.00752527305903139,2.60063755749863,0.5,75.8478413024671
CBC_1020,CBC_1020_MSI_TV_v3_Vset1_Tset2_2023-06-28_15h03.37.595.csv,1,18,3,2,b,1,0,1,tac,D,63,0,3D,2D,0,1,z,2.9812404,0,1,0,1,2D,3D,D32,2.11021320034659,0.509298521537632,0.490701478462368,0.495328920245107,0.5,0.490701478462368,0.504671079754893,0.495328920245107,0.5,0.490701478462368,0.5,0.504671079754893,0.495328920245107,0.5,0.495328920245107,0.490701478462368,0.504671079754893,0.492982727332997,0.507017272667003,0.490701478462368,0.504671079754893,0.117353957140268,0.499589816783176,0.509298521537632,0.00475794802630241,0.5,0.00934215950978534,1.0968840425096,0.00752527305903139,2.60063755749863,0.5,75.8478413024671
CBC_1020,CBC_1020_MSI_TV_v3_Vset1_Tset2_2023-06-28_15h03.37.595.csv,1,19,0,1,z,0,1,0,tac,B,63,1,0B,1B,0,1,b,2.7865486,1,0,0,0,0B,1B,B01,2.83321334405622,0.509298521537632,0.490701478462368,0.495328920245107,0.5,0.490701478462368,0.504671079754893,0.495328920245107,0.5,0.490701478462368,0.5,0.504671079754893,0.495328920245107,0.5,0.495328920245107,0.49545942648867,0.504671079754893,0.492982727332997,0.507017272667003,0.490701478462368,0.504671079754893,0.135386370217779,0.500084008767282,-0.490701478462368,-0.00458421148348294,0.5,0.00934215950978534,1.0968840425096,0.00752527305903139,2.60063755749863,0.5,75.8478413024671
CBC_1020,CBC_1020_MSI_TV_v3_Vset1_Tset2_2023-06-28_15h03.37.595.csv,1,20,0,2,b,1,0,3,tac,A,27,1,0A,2A,1,0,b,2.2604027,1,0,1,1,0A,2A,A02,3.55534806148941,0.509298521537632,0.490701478462368,0.495328920245107,0.5,0.486117266978885,0.504671079754893,0.495328920245107,0.5,0.490701478462368,0.5,0.504671079754893,0.495328920245107,0.5,0.495328920245107,0.49545942648867,0.504671079754893,0.506952627766038,0.493047372233962,0.509298521537632,0.495328920245107,0.198475458903566,0.501011339236354,0.490701478462368,0.00458421148348294,0.5,0.00934215950978534,1.0968840425096,0.00752527305903139,2.60063755749863,0.5,75.8478413024671
CBC_1020,CBC_1020_MSI_TV_v3_Vset1_Tset2_2023-06-28_15h03.37.595.csv,1,21,3,0,b,1,0,1,tac,D,9,1,3D,0D,1,0,z,2.7535366,0,1,0,0,0D,3D,D30,3.58351893845611,0.513882733021115,0.490701478462368,0.495328920245107,0.5,0.486117266978885,0.504671079754893,0.495328920245107,0.5,0.490701478462368,0.5,0.504671079754893,0.495328920245107,0.5,0.495328920245107,0.49545942648867,0.504671079754893,0.497675318893407,0.502324681106593,0.5,0.504671079754893,0.138430869020708,0.499176975123641,-0.5,-0.00467107975489267,0.5,0.00934215950978534,1.0968840425096,0.00752527305903139,2.60063755749863,0.5,75.8478413024671
CBC_1020,CBC_1020_MSI_TV_v3_Vset1_Tset2_2023-06-28_15h03.37.595.csv,1,22,3,2,z,0,1,2,tac,C,63,1,3C,2C,0,1,z,2.3989571,0,1,1,1,2C,3C,C32,2.91777073208428,0.513882733021115,0.490701478462368,0.495328920245107,0.5,0.486117266978885,0.504671079754893,0.495328920245107,0.5,0.490701478462368,0.5,0.504671079754893,0.495328920245107,0.495328920245107,0.495328920245107,0.49545942648867,0.504671079754893,0.504671079754893,0.495328920245107,0.504671079754893,0.495328920245107,0.179071410465762,0.499181734645294,0.495328920245107,0.00462744178273953,0.5,0.00934215950978534,1.0968840425096,0.00752527305903139,2.60063755749863,0.5,75.8478413024671
CBC_1020,CBC_1020_MSI_TV_v3_Vset1_Tset2_2023-06-28_15h03.37.595.csv,1,23,1,3,b,1,0,0,tac,B,27,1,1B,3B,1,0,z,2.8133422,0,1,0,0,3B,1B,B13,3.63758615972639,0.513882733021115,0.490701478462368,0.495328920245107,0.5,0.486117266978885,0.504671079754893,0.495328920245107,0.5,0.490701478462368,0.5,0.509298521537632,0.495328920245107,0.495328920245107,0.495328920245107,0.49545942648867,0.504671079754893,0.497675318893407,0.502324681106593,0.5,0.504671079754893,0.132836110126374,0.500339392105186,-0.5,-0.00467107975489267,0.5,0.00934215950978534,1.0968840425096,0.00752527305903139,2.60063755749863,0.5,75.8478413024671
CBC_1020,CBC_1020_MSI_TV_v3_Vset1_Tset2_2023-06-28_15h03.37.595.csv,1,24,2,3,b,1,0,2,tac,C,63,1,2C,3C,1,0,z,2.5034549,0,1,0,0,3C,2C,C23,2.9704144655697,0.513882733021115,0.490701478462368,0.495328920245107,0.5,0.486117266978885,0.504671079754893,0.495328920245107,0.495328920245107,0.490701478462368,0.5,0.509298521537632,0.495328920245107,0.495328920245107,0.495328920245107,0.49545942648867,0.504671079754893,0.493047372233962,0.506952627766038,0.495328920245107,0.509298521537632,0.166286104414687,0.499923768000198,-0.495328920245107,-0.00462744178273953,0.5,0.00934215950978534,1.0968840425096,0.00752527305903139,2.60063755749863,0.5,75.8478413024671
CBC_1020,CBC_1020_MSI_TV_v3_Vset1_Tset2_2023-06-28_15h03.37.595.csv,1,25,3,2,b,1,0,1,tac,D,63,1,3D,2D,1,0,b,2.1913114,1,0,1,1,3D,2D,D32,2.07944154167984,0.513882733021115,0.490701478462368,0.495328920245107,0.5,0.486117266978885,0.504671079754893,0.495328920245107,0.495328920245107,0.490701478462368,0.5,0.509298521537632,0.490701478462368,0.495328920245107,0.495328920245107,0.49545942648867,0.504671079754893,0.504605225622414,0.495394774377586,0.504671079754893,0.49545942648867,0.208359586505531,0.500945606642609,0.495328920245107,0.00462744178273953,0.5,0.00934215950978534,1.0968840425096,0.00752527305903139,2.60063755749863,0.5,75.8478413024671
CBC_1020,CBC_1020_MSI_TV_v3_Vset1_Tset2_2023-06-28_15h03.37.595.csv,1,26,0,1,z,0,1,0,tac,B,63,1,0B,1B,0,1,b,2.3808614,1,0,0,0,0B,1B,B01,2.6149597780362,0.513882733021115,0.490701478462368,0.495328920245107,0.5,0.486117266978885,0.504671079754893,0.495328920245107,0.495328920245107,0.490701478462368,0.5,0.509298521537632,0.490701478462368,0.495328920245107,0.495328920245107,0.49545942648867,0.509298521537632,0.490636843460477,0.509363156539523,0.486117266978885,0.504671079754893,0.181583443083675,0.4996286703257,-0.486117266978885,-0.00454138504857765,0.5,0.00934215950978534,1.0968840425096,0.00752527305903139,2.60063755749863,0.5,75.8478413024671
CBC_1020,CBC_1020_MSI_TV_v3_Vset1_Tset2_2023-06-28_15h03.37.595.csv,1,27,3,0,z,0,1,3,tac,A,9,1,3A,0A,0,1,z,3.2414928,0,1,1,1,0A,3A,A30,3.73766961828337,0.513882733021115,0.490701478462368,0.495328920245107,0.5,0.481575881930307,0.504671079754893,0.495328920245107,0.495328920245107,0.490701478462368,0.5,0.509298521537632,0.490701478462368,0.495328920245107,0.495328920245107,0.49545942648867,0.509298521537632,0.506846320865801,0.493153679134199,0.513882733021115,0.5,0.096865445933715,0.498582305905017,0.486117266978885,0.00454138504857765,0.5,0.00934215950978534,1.0968840425096,0.00752527305903139,2.60063755749863,0.5,75.8478413024671
CBC_1020,CBC_1020_MSI_TV_v3_Vset1_Tset2_2023-06-28_15h03.37.595.csv,1,28,3,2,b,1,0,1,tac,D,63,1,3D,2D,1,0,z,5.2485082,0,1,0,0,2D,3D,D32,1.96944064646551,0.518424118069693,0.490701478462368,0.495328920245107,0.5,0.481575881930307,0.504671079754893,0.495328920245107,0.495328920245107,0.490701478462368,0.5,0.509298521537632,0.490701478462368,0.495328920245107,0.495328920245107,0.49545942648867,0.509298521537632,0.493113219419589,0.506886780580411,0.49545942648867,0.509298521537632,0.0224584354746174,0.499947796319434,-0.49545942648867,-0.00462866099288392,0.5,0.00934215950978534,1.0968840425096,0.00752527305903139,2.60063755749863,0.5,75.8478413024671
CBC_1020,CBC_1020_MSI_TV_v3_Vset1_Tset2_2023-06-28_15h03.37.595.csv,1,29,0,2,z,0,1,2,tac,C,27,1,0C,2C,0,1,b,2.1981485,1,0,0,0,0C,2C,C02,2.68557734525015,0.518424118069693,0.490701478462368,0.495328920245107,0.5,0.481575881930307,0.504671079754893,0.495328920245107,0.495328920245107,0.490701478462368,0.5,0.509298521537632,0.490701478462368,0.495328920245107,0.495328920245107,0.490830765495786,0.509298521537632,0.490701478462368,0.509298521537632,0.490701478462368,0.509298521537632,0.206779607630747,0.49953442746951,-0.490701478462368,-0.00458421148348294,0.5,0.00934215950978534,1.0968840425096,0.00752527305903139,2.60063755749863,0.5,75.8478413024671
CBC_1020,CBC_1020_MSI_TV_v3_Vset1_Tset2_2023-06-28_15h03.37.595.csv,1,30,0,1,b,1,0,3,tac,A,63,1,0A,1A,1,0,b,2.6167332,1,0,1,1,0A,1A,A01,3.11351530921037,0.518424118069693,0.490701478462368,0.495328920245107,0.5,0.481575881930307,0.504671079754893,0.495328920245107,0.495328920245107,0.486117266978885,0.5,0.509298521537632,0.490701478462368,0.495328920245107,0.495328920245107,0.490830765495786,0.509298521537632,0.513735970875477,0.486264029124523,0.518424118069693,0.490701478462368,0.153537709982306,0.501172136031252,0.481575881930307,0.00449895870505848,0.5,0.00934215950978534,1.0968840425096,0.00752527305903139,2.60063755749863,0.5,75.8478413024671
CBC_1020,CBC_1020_MSI_TV_v3_Vset1_Tset2_2023-06-28_15h03.37.595.csv,1,31,0,1,z,0,1,0,tac,B,63,1,0B,1B,0,1,z,2.6932659,0,1,1,1,1B,0B,B01,2.4423470353692,0.522923076774751,0.490701478462368,0.495328920245107,0.5,0.481575881930307,0.504671079754893,0.495328920245107,0.495328920245107,0.486117266978885,0.5,0.509298521537632,0.490701478462368,0.495328920245107,0.495328920245107,0.490830765495786,0.509298521537632,0.511708628123489,0.488291371876511,0.504671079754893,0.481575881930307,0.144933289587416,0.500179506961208,0.495328920245107,0.00462744178273953,0.5,0.00934215950978534,1.0968840425096,0.00752527305903139,2.60063755749863,0.5,75.8478413024671
CBC_1020,CBC_1020_MSI_TV_v3_Vset1_Tset2_2023-06-28_15h03.37.595.csv,1,32,1,3,z,0,1,1,tac,D,27,1,1D,3D,0,1,z,2.7397511,0,1,1,1,3D,1D,D13,3.85014760171006,0.522923076774751,0.490701478462368,0.495328920245107,0.5,0.481575881930307,0.509298521537632,0.495328920245107,0.495328920245107,0.486117266978885,0.5,0.509298521537632,0.490701478462368,0.495328920245107,0.495328920245107,0.490830765495786,0.509298521537632,0.506952627766038,0.493047372233962,0.509298521537632,0.495328920245107,0.140311500610661,0.500902744117002,0.490701478462368,0.00458421148348294,0.5,0.00934215950978534,1.0968840425096,0.00752527305903139,2.60063755749863,0.5,75.8478413024671
CBC_1020,CBC_1020_MSI_TV_v3_Vset1_Tset2_2023-06-28_15h03.37.595.csv,1,33,2,3,b,1,0,2,tac,C,63,1,2C,3C,1,0,b,2.4170821,1,0,1,1,2C,3C,C23,2.77258872223978,0.522923076774751,0.490701478462368,0.495328920245107,0.5,0.481575881930307,0.509298521537632,0.495328920245107,0.495328920245107,0.486117266978885,0.5,0.509298521537632,0.490701478462368,0.495328920245107,0.495328920245107,0.490830765495786,0.513882733021115,0.509298521537632,0.490701478462368,0.509298521537632,0.490701478462368,0.177266442192824,0.50065312185925,0.490701478462368,0.00458421148348294,0.5,0.00934215950978534,1.0968840425096,0.00752527305903139,2.60063755749863,0.5,75.8478413024671
CBC_1020,CBC_1020_MSI_TV_v3_Vset1_Tset2_2023-06-28_15h03.37.595.csv,1,34,0,1,z,0,1,0,tac,B,63,1,0B,1B,0,1,b,2.5061704,1,0,0,0,0B,1B,B01,2.28238238567653,0.522923076774751,0.490701478462368,0.495328920245107,0.5,0.481575881930307,0.509298521537632,0.495328920245107,0.495328920245107,0.486117266978885,0.5,0.513882733021115,0.490701478462368,0.495328920245107,0.495328920245107,0.490830765495786,0.513882733021115,0.486011022431148,0.513988977568852,0.481575881930307,0.509298521537632,0.165755833965503,0.499311413861412,-0.481575881930307,-0.00449895870505848,0.5,0.00934215950978534,1.0968840425096,0.00752527305903139,2.60063755749863,0.5,75.8478413024671
CBC_1020,CBC_1020_MSI_TV_v3_Vset1_Tset2_2023-06-28_15h03.37.595.csv,1,35,1,0,z,0,1,3,tac,A,63,1,1A,0A,0,1,z,2.9891363,0,1,1,1,0A,1A,A10,2.52572864430826,0.522923076774751,0.490701478462368,0.495328920245107,0.5,0.477076923225249,0.509298521537632,0.495328920245107,0.495328920245107,0.486117266978885,0.5,0.513882733021115,0.490701478462368,0.495328920245107,0.495328920245107,0.490830765495786,0.513882733021115,0.515894247108509,0.484105752891491,0.522923076774751,0.490701478462368,0.116725373430208,0.499783792801021,0.477076923225249,0.00445692871520789,0.5,0.00934215950978534,1.0968840425096,0.00752527305903139,2.60063755749863,0.5,75.8478413024671
CBC_1020,CBC_1020_MSI_TV_v3_Vset1_Tset2_2023-06-28_15h03.37.595.csv,1,36,2,1,b,1,0,2,tac,C,9,1,2C,1C,1,0,b,2.6365461,1,0,1,1,2C,1C,C21,3.93182563272433,0.527380005489959,0.490701478462368,0.495328920245107,0.5,0.477076923225249,0.509298521537632,0.495328920245107,0.495328920245107,0.486117266978885,0.5,0.513882733021115,0.490701478462368,0.495328920245107,0.495328920245107,0.490830765495786,0.513882733021115,0.506846320865801,0.493153679134199,0.513882733021115,0.5,0.151050649481252,0.500210614778958,0.486117266978885,0.00454138504857765,0.5,0.00934215950978534,1.0968840425096,0.00752527305903139,2.60063755749863,0.5,75.8478413024671
CBC_1020,CBC_1020_MSI_TV_v3_Vset1_Tset2_2023-06-28_15h03.37.595.csv,1,37,0,1,b,1,0,3,tac,A,63,1,0A,1A,1,0,z,3.0163799,0,1,0,0,1A,0A,A01,2.85263142991332,0.527380005489959,0.490701478462368,0.495328920245107,0.5,0.477076923225249,0.509298521537632,0.495328920245107,0.495328920245107,0.486117266978885,0.5,0.518424118069693,0.490701478462368,0.495328920245107,0.495328920245107,0.490830765495786,0.513882733021115,0.481986448233397,0.518013551766603,0.490701478462368,0.527380005489959,0.114318868936528,0.499303664427297,-0.490701478462368,-0.00458421148348294,0.5,0.00934215950978534,1.0968840425096,0.00752527305903139,2.60063755749863,0.5,75.8478413024671
CBC_1020,CBC_1020_MSI_TV_v3_Vset1_Tset2_2023-06-28_15h03.37.595.csv,1,38,1,3,z,0,1,1,tac,D,27,1,1D,3D,0,1,b,2.395396,1,0,0,0,1D,3D,D13,3.27714473299218,0.527380005489959,0.486117266978885,0.495328920245107,0.5,0.477076923225249,0.509298521537632,0.495328920245107,0.495328920245107,0.486117266978885,0.5,0.518424118069693,0.490701478462368,0.495328920245107,0.495328920245107,0.490830765495786,0.513882733021115,0.490807769254368,0.509192230745632,0.495328920245107,0.513882733021115,0.179502647762982,0.499101105780785,-0.495328920245107,-0.00462744178273953,0.5,0.00934215950978534,1.0968840425096,0.00752527305903139,2.60063755749863,0.5,75.8478413024671
CBC_1020,CBC_1020_MSI_TV_v3_Vset1_Tset2_2023-06-28_15h03.37.595.csv,1,39,1,0,b,1,0,0,tac,B,63,1,1B,0B,1,0,z,5.0395888,0,1,0,0,0B,1B,B10,3.29583686600433,0.527380005489959,0.486117266978885,0.495328920245107,0.5,0.477076923225249,0.509298521537632,0.495328920245107,0.495328920245107,0.486117266978885,0.5,0.518424118069693,0.490701478462368,0.495328920245107,0.490701478462368,0.490830765495786,0.513882733021115,0.483666666438493,0.516333333561507,0.477076923225249,0.509298521537632,0.0261649714009729,0.500107214841064,-0.477076923225249,-0.00445692871520789,0.5,0.00934215950978534,1.0968840425096,0.00752527305903139,2.60063755749863,0.5,75.8478413024671
CBC_1020,CBC_1020_MSI_TV_v3_Vset1_Tset2_2023-06-28_15h03.37.595.csv,1,40,3,2,z,0,1,2,tac,C,63,0,3C,2C,1,0,z,2.3043229,0,1,1,0,2C,3C,C32,2.90872089656436,0.527380005489959,0.486117266978885,0.495328920245107,0.5,0.472619994510041,0.509298521537632,0.495328920245107,0.495328920245107,0.486117266978885,0.5,0.518424118069693,0.490701478462368,0.495328920245107,0.490701478462368,0.490830765495786,0.513882733021115,0.513735970875477,0.486264029124523,0.518424118069693,0.490701478462368,0.191763910497434,0.499451506268129,-0.518424118069693,-0.00484320080472686,0.5,0.00934215950978534,1.0968840425096,0.00752527305903139,2.60063755749863,0.5,75.8478413024671
CBC_1020,CBC_1020_MSI_TV_v3_Vset1_Tset2_2023-06-28_15h03.37.595.csv,1,41,0,2,b,1,0,3,tac,A,27,1,0A,2A,1,0,b,3.1360277,1,0,1,1,0A,2A,A02,3.3322045101752,0.527380005489959,0.486117266978885,0.495328920245107,0.5,0.472619994510041,0.509298521537632,0.495328920245107,0.495328920245107,0.486117266978885,0.5,0.513580917264966,0.490701478462368,0.495328920245107,0.490701478462368,0.490830765495786,0.513882733021115,0.515669700556204,0.484330299443796,0.527380005489959,0.495328920245107,0.104726842604182,0.499125738822231,0.472619994510041,0.00441529137622667,0.5,0.00934215950978534,1.0968840425096,0.00752527305903139,2.60063755749863,0.5,75.8478413024671
CBC_1020,CBC_1020_MSI_TV_v3_Vset1_Tset2_2023-06-28_15h03.37.595.csv,1,42,2,3,z,0,1,1,tac,D,63,1,2D,3D,0,1,b,2.4660096,1,0,0,0,2D,3D,D23,4.04305126783455,0.531795296866186,0.486117266978885,0.495328920245107,0.5,0.472619994510041,0.509298521537632,0.495328920245107,0.495328920245107,0.486117266978885,0.5,0.513580917264966,0.490701478462368,0.495328920245107,0.490701478462368,0.490830765495786,0.513882733021115,0.488528089072478,0.511471910927522,0.490830765495786,0.513882733021115,0.17123083277026,0.501014817412631,-0.490830765495786,-0.00458541930357168,0.5,0.00934215950978534,1.0968840425096,0.00752527305903139,2.60063755749863,0.5,75.8478413024671
CBC_1020,CBC_1020_MSI_TV_v3_Vset1_Tset2_2023-06-28_15h03.37.595.csv,1,43,1,3,b,1,0,0,tac,B,27,1,1B,3B,1,0,z,2.5781926,0,1,0,0,3B,1B,B13,3.36729582998647,0.531795296866186,0.486117266978885,0.495328920245107,0.5,0.472619994510041,0.509298521537632,0.495328920245107,0.495328920245107,0.486117266978885,0.5,0.513580917264966,0.490701478462368,0.495328920245107,0.490701478462368,0.486245346192215,0.513882733021115,0.493047372233962,0.506952627766038,0.495328920245107,0.509298521537632,0.157740091466379,0.500665229423128,-0.495328920245107,-0.00462744178273953,0.5,0.00934215950978534,1.0968840425096,0.00752527305903139,2.60063755749863,0.5,75.8478413024671
CBC_1020,CBC_1020_MSI_TV_v3_Vset1_Tset2_2023-06-28_15h03.37.595.csv,1,44,3,2,z,0,1,2,tac,C,63,1,3C,2C,0,1,b,2.5147781,1,0,0,0,3C,2C,C32,2.69124308278583,0.531795296866186,0.486117266978885,0.495328920245107,0.5,0.472619994510041,0.509298521537632,0.495328920245107,0.490701478462368,0.486117266978885,0.5,0.513580917264966,0.490701478462368,0.495328920245107,0.490701478462368,0.486245346192215,0.513882733021115,0.488609061106748,0.511390938893252,0.490701478462368,0.513580917264966,0.165330586371008,0.501148310728742,-0.490701478462368,-0.00458421148348294,0.5,0.00934215950978534,1.0968840425096,0.00752527305903139,2.60063755749863,0.5,75.8478413024671
CBC_1020,CBC_1020_MSI_AV_v3_Vset6_Aset1_2023-06-28_15h13.22.031.csv,2,1,1,0,b,1,0,0,aud,B,63,1,1B,0B,1,0,b,1.65884180000012,1,0,1,1,1B,0B,B10,2.77258872223978,0.5,0.5,0.5,0.5,0.5,0.5,0.5,0.5,0.5,0.5,0.5,0.5,0.5,0.5,0.5,0.5,0.5,0.5,0.5,0.5,0.254215450791151,0.50012324155647,0.5,0.155146668520765,0.5,0.310293337041529,0.751331971763767,4.3871761755465,2.29148809139136,0.5,40.365870949611
CBC_1020,CBC_1020_MSI_AV_v3_Vset6_Aset1_2023-06-28_15h13.22.031.csv,2,2,1,0,z,0,1,3,aud,A,63,1,1A,0A,0,1,z,1.15710579999995,0,1,1,1,0A,1A,A10,2.83321334405622,0.5,0.5,0.5,0.5,0.5,0.655146668520765,0.5,0.5,0.5,0.5,0.5,0.5,0.5,0.5,0.5,0.5,0.5,0.5,0.5,0.5,0.350900861548961,0.500131938197902,0.5,0.155146668520765,0.5,0.310293337041529,0.751331971763767,4.3871761755465,2.29148809139136,0.5,40.365870949611
CBC_1020,CBC_1020_MSI_AV_v3_Vset6_Aset1_2023-06-28_15h13.22.031.csv,2,3,3,2,b,1,0,1,aud,D,63,1,3D,2D,1,0,b,1.8037675000005,1,0,1,1,3D,2D,D32,2.89037175789616,0.655146668520765,0.5,0.5,0.5,0.5,0.655146668520765,0.5,0.5,0.5,0.5,0.5,0.5,0.5,0.5,0.5,0.5,0.5,0.5,0.5,0.5,0.22193186568593,0.499232405750075,0.5,0.155146668520765,0.5,0.310293337041529,0.751331971763767,4.3871761755465,2.29148809139136,0.5,40.365870949611
CBC_1020,CBC_1020_MSI_AV_v3_Vset6_Aset1_2023-06-28_15h13.22.031.csv,2,4,1,2,b,1,0,0,aud,B,9,1,1B,2B,1,0,b,1.3017721999995,1,0,1,1,1B,2B,B12,2.94443897916644,0.655146668520765,0.5,0.5,0.5,0.5,0.655146668520765,0.5,0.5,0.5,0.5,0.5,0.5,0.5,0.5,0.5,0.655146668520765,0.56715453229824,0.43284546770176,0.655146668520765,0.5,0.605474335444931,0.79356458249459,0.344853331479235,0.107005691014581,0.5,0.310293337041529,0.751331971763767,4.3871761755465,2.29148809139136,0.5,40.365870949611
CBC_1020,CBC_1020_MSI_AV_v3_Vset6_Aset1_2023-06-28_15h13.22.031.csv,2,5,2,0,z,0,1,3,aud,A,27,1,2A,0A,0,1,z,2.26319260000037,0,1,1,1,0A,2A,A20,2.99573227355399,0.655146668520765,0.5,0.5,0.5,0.5,0.762152359535345,0.5,0.5,0.5,0.5,0.5,0.5,0.5,0.5,0.5,0.655146668520765,0.56715453229824,0.43284546770176,0.655146668520765,0.5,0.21829995350407,0.794182650095951,0.344853331479235,0.107005691014581,0.5,0.310293337041529,0.751331971763767,4.3871761755465,2.29148809139136,0.5,40.365870949611
CBC_1020,CBC_1020_MSI_AV_v3_Vset6_Aset1_2023-06-28_15h13.22.031.csv,2,6,3,2,z,0,1,2,aud,C,63,1,3C,2C,0,1,z,2.27805660000013,0,1,1,1,2C,3C,C32,3.04452243772342,0.762152359535345,0.5,0.5,0.5,0.5,0.762152359535345,0.5,0.5,0.5,0.5,0.5,0.5,0.5,0.5,0.5,0.655146668520765,0.5,0.5,0.5,0.5,0.142897173225964,0.501445865993558,0.5,0.155146668520765,0.5,0.310293337041529,0.751331971763767,4.3871761755465,2.29148809139136,0.5,40.365870949611
CBC_1020,CBC_1020_MSI_AV_v3_Vset6_Aset1_2023-06-28_15h13.22.031.csv,2,7,3,1,b,1,0,1,aud,D,27,1,3D,1D,1,0,b,1.46785999999975,1,0,1,1,3D,1D,D31,3.09104245335832,0.762152359535345,0.5,0.5,0.5,0.5,0.762152359535345,0.5,0.5,0.5,0.5,0.655146668520765,0.5,0.5,0.5,0.5,0.655146668520765,0.56715453229824,0.43284546770176,0.655146668520765,0.5,0.522429071088636,0.794629322951526,0.344853331479235,0.107005691014581,0.5,0.310293337041529,0.751331971763767,4.3871761755465,2.29148809139136,0.5,40.365870949611
CBC_1020,CBC_1020_MSI_AV_v3_Vset6_Aset1_2023-06-28_15h13.22.031.csv,2,8,0,1,b,1,0,3,aud,A,63,1,0A,1A,1,0,b,1.82522979999976,1,0,1,1,0A,1A,A01,3.13549421592915,0.762152359535345,0.5,0.5,0.5,0.5,0.762152359535345,0.5,0.5,0.5,0.5,0.655146668520765,0.5,0.5,0.5,0.5,0.762152359535345,0.603851313018919,0.396148686981081,0.762152359535345,0.5,0.396370796587398,0.890094598432912,0.237847640464655,0.0738025380672316,0.5,0.310293337041529,0.751331971763767,4.3871761755465,2.29148809139136,0.5,40.365870949611
CBC_1020,CBC_1020_MSI_AV_v3_Vset6_Aset1_2023-06-28_15h13.22.031.csv,2,9,0,2,z,0,1,2,aud,C,27,1,0C,2C,0,1,z,1.61318829999982,0,1,1,1,2C,0C,C02,3.17805383034795,0.835954897602577,0.5,0.5,0.5,0.5,0.762152359535345,0.5,0.5,0.5,0.5,0.655146668520765,0.5,0.5,0.5,0.5,0.762152359535345,0.56715453229824,0.43284546770176,0.655146668520765,0.5,0.448007852875149,0.794059135090208,0.344853331479235,0.107005691014581,0.5,0.310293337041529,0.751331971763767,4.3871761755465,2.29148809139136,0.5,40.365870949611
CBC_1020,CBC_1020_MSI_AV_v3_Vset6_Aset1_2023-06-28_15h13.22.031.csv,2,10,3,2,b,1,0,1,aud,D,63,1,3D,2D,1,0,b,1.19458780000059,1,0,1,1,3D,2D,D32,2.52572864430826,0.835954897602577,0.5,0.5,0.5,0.5,0.762152359535345,0.5,0.5,0.5,0.5,0.762152359535345,0.5,0.5,0.5,0.5,0.762152359535345,0.603851313018919,0.396148686981081,0.762152359535345,0.5,0.831321411177115,0.889291195152746,0.237847640464655,0.0738025380672316,0.5,0.310293337041529,0.751331971763767,4.3871761755465,2.29148809139136,0.5,40.365870949611
CBC_1020,CBC_1020_MSI_AV_v3_Vset6_Aset1_2023-06-28_15h13.22.031.csv,2,11,0,1,z,0,1,0,aud,B,63,0,0B,1B,1,0,z,1.17611959999977,0,1,1,0,1B,0B,B01,3.25809653802148,0.835954897602577,0.5,0.5,0.5,0.5,0.762152359535345,0.5,0.5,0.5,0.5,0.762152359535345,0.5,0.5,0.5,0.5,0.835954897602577,0.603851313018919,0.396148686981081,0.762152359535345,0.5,0.83751738393979,0.889387731714723,-0.762152359535345,-0.236490798974298,0.5,0.310293337041529,0.751331971763767,4.3871761755465,2.29148809139136,0.5,40.365870949611
CBC_1020,CBC_1020_MSI_AV_v3_Vset6_Aset1_2023-06-28_15h13.22.031.csv,2,12,1,0,z,0,1,3,aud,A,63,1,1A,0A,0,1,z,2.74980460000097,0,1,1,1,0A,1A,A10,2.60268968544438,0.835954897602577,0.5,0.5,0.5,0.5,0.525661560561048,0.5,0.5,0.5,0.5,0.762152359535345,0.5,0.5,0.5,0.5,0.835954897602577,0.625735868106574,0.374264131893427,0.835954897602577,0.5,0.0958207655891438,0.926272390235345,0.164045102397423,0.0509021022482158,0.5,0.310293337041529,0.751331971763767,4.3871761755465,2.29148809139136,0.5,40.365870949611
CBC_1020,CBC_1020_MSI_AV_v3_Vset6_Aset1_2023-06-28_15h13.22.031.csv,2,13,3,2,b,1,0,1,aud,D,63,1,3D,2D,1,0,b,1.17356070000005,1,0,1,1,3D,2D,D32,2.23359222150709,0.886856999850793,0.5,0.5,0.5,0.5,0.525661560561048,0.5,0.5,0.5,0.5,0.762152359535345,0.5,0.5,0.5,0.5,0.835954897602577,0.625735868106574,0.374264131893427,0.835954897602577,0.5,0.962942635058935,0.925917557926096,0.164045102397423,0.0509021022482158,0.5,0.310293337041529,0.751331971763767,4.3871761755465,2.29148809139136,0.5,40.365870949611
CBC_1020,CBC_1020_MSI_AV_v3_Vset6_Aset1_2023-06-28_15h13.22.031.csv,2,14,0,2,z,0,1,2,aud,C,27,1,0C,2C,0,1,z,2.44979680000051,0,1,1,1,2C,0C,C02,2.67414864942653,0.886856999850793,0.5,0.5,0.5,0.5,0.525661560561048,0.5,0.5,0.5,0.5,0.762152359535345,0.5,0.5,0.5,0.5,0.886856999850793,0.603851313018919,0.396148686981081,0.762152359535345,0.5,0.170223054808142,0.889533667963904,0.237847640464655,0.0738025380672316,0.5,0.310293337041529,0.751331971763767,4.3871761755465,2.29148809139136,0.5,40.365870949611
CBC_1020,CBC_1020_MSI_AV_v3_Vset6_Aset1_2023-06-28_15h13.22.031.csv,2,15,1,0,z,0,1,3,aud,A,63,1,1A,0A,0,1,z,1.93295500000022,0,1,1,1,0A,1A,A10,2.30258509299405,0.886856999850793,0.5,0.5,0.5,0.5,0.525661560561048,0.5,0.5,0.5,0.5,0.835954897602577,0.5,0.5,0.5,0.5,0.886856999850793,0.639472562741657,0.360527437258343,0.886856999850793,0.5,0.330567105530837,0.942777500720752,0.113143000149207,0.0351075190791878,0.5,0.310293337041529,0.751331971763767,4.3871761755465,2.29148809139136,0.5,40.365870949611
CBC_1020,CBC_1020_MSI_AV_v3_Vset6_Aset1_2023-06-28_15h13.22.031.csv,2,16,3,1,z,0,1,0,aud,B,27,1,3B,1B,0,1,z,2.38832210000055,0,1,1,1,1B,3B,B31,3.43398720448515,0.92196451892998,0.5,0.5,0.5,0.5,0.525661560561048,0.5,0.5,0.5,0.5,0.835954897602577,0.5,0.5,0.5,0.5,0.886856999850793,0.512509760308756,0.487490239691244,0.525661560561048,0.5,0.144276686813998,0.562670492235763,0.474338439438952,0.147184057260584,0.5,0.310293337041529,0.751331971763767,4.3871761755465,2.29148809139136,0.5,40.365870949611
CBC_1020,CBC_1020_MSI_AV_v3_Vset6_Aset1_2023-06-28_15h13.22.031.csv,2,17,2,3,b,1,0,2,aud,C,63,1,2C,3C,1,0,b,1.18558969999958,1,0,1,1,2C,3C,C23,3.46573590279973,0.92196451892998,0.5,0.5,0.5,0.5,0.672845617821631,0.5,0.5,0.5,0.5,0.835954897602577,0.5,0.5,0.5,0.5,0.886856999850793,0.625735868106574,0.374264131893427,0.835954897602577,0.5,0.956839122816068,0.925924297383917,0.164045102397423,0.0509021022482158,0.5,0.310293337041529,0.751331971763767,4.3871761755465,2.29148809139136,0.5,40.365870949611
CBC_1020,CBC_1020_MSI_AV_v3_Vset6_Aset1_2023-06-28_15h13.22.031.csv,2,18,3,2,b,1,0,1,aud,D,63,0,3D,2D,0,1,b,0.91600710000057,1,0,1,0,3D,2D,D32,2.11021320034659,0.92196451892998,0.5,0.5,0.5,0.5,0.672845617821631,0.5,0.5,0.5,0.5,0.886856999850793,0.5,0.5,0.5,0.5,0.886856999850793,0.639472562741657,0.360527437258343,0.886856999850793,0.5,0.45652413882981,0.942918078023915,-0.886856999850793,-0.275185817962342,0.5,0.310293337041529,0.751331971763767,4.3871761755465,2.29148809139136,0.5,40.365870949611
CBC_1020,CBC_1020_MSI_AV_v3_Vset6_Aset1_2023-06-28_15h13.22.031.csv,2,19,0,1,z,0,1,0,aud,B,63,1,0B,1B,0,1,z,1.19904899999983,0,1,1,1,1B,0B,B01,2.83321334405622,0.92196451892998,0.5,0.5,0.5,0.5,0.672845617821631,0.5,0.5,0.5,0.5,0.886856999850793,0.5,0.5,0.5,0.5,0.611671181888451,0.573686432039821,0.426313567960179,0.672845617821631,0.5,0.672678947557659,0.814749540196083,0.327154382178369,0.101513824973886,0.5,0.310293337041529,0.751331971763767,4.3871761755465,2.29148809139136,0.5,40.365870949611
CBC_1020,CBC_1020_MSI_AV_v3_Vset6_Aset1_2023-06-28_15h13.22.031.csv,2,20,0,2,b,1,0,3,aud,A,27,1,0A,2A,1,0,b,2.20809840000038,1,0,1,1,0A,2A,A02,3.55534806148941,0.92196451892998,0.5,0.5,0.5,0.5,0.774359442795517,0.5,0.5,0.5,0.5,0.886856999850793,0.5,0.5,0.5,0.5,0.611671181888451,0.648373786164336,0.351626213835664,0.92196451892998,0.5,0.196840972379929,0.95176340259583,0.0780354810700196,0.0242138898288575,0.5,0.310293337041529,0.751331971763767,4.3871761755465,2.29148809139136,0.5,40.365870949611
CBC_1020,CBC_1020_MSI_AV_v3_Vset6_Aset1_2023-06-28_15h13.22.031.csv,2,21,3,0,b,1,0,1,aud,D,9,1,3D,0D,1,0,b,0.977388600000268,1,0,1,1,3D,0D,D30,3.58351893845611,0.946178408758838,0.5,0.5,0.5,0.5,0.774359442795517,0.5,0.5,0.5,0.5,0.886856999850793,0.5,0.5,0.5,0.5,0.611671181888451,0.55022671438633,0.44977328561367,0.611671181888451,0.5,0.377778066462486,0.732797393788551,0.388328818111549,0.120495844841226,0.5,0.310293337041529,0.751331971763767,4.3871761755465,2.29148809139136,0.5,40.365870949611
CBC_1020,CBC_1020_MSI_AV_v3_Vset6_Aset1_2023-06-28_15h13.22.031.csv,2,22,3,2,z,0,1,2,aud,C,63,1,3C,2C,0,1,b,0.900776500000575,1,0,0,0,3C,2C,C32,2.91777073208428,0.946178408758838,0.5,0.5,0.5,0.5,0.774359442795517,0.5,0.5,0.5,0.5,0.886856999850793,0.5,0.5,0.5,0.5,0.732167026729677,0.360527437258343,0.639472562741657,0.5,0.886856999850793,0.0215470248843739,0.0571117059514541,-0.5,-0.155146668520765,0.5,0.310293337041529,0.751331971763767,4.3871761755465,2.29148809139136,0.5,40.365870949611
CBC_1020,CBC_1020_MSI_AV_v3_Vset6_Aset1_2023-06-28_15h13.22.031.csv,2,23,1,3,b,1,0,0,aud,B,27,1,1B,3B,1,0,b,1.28872809999939,1,0,1,1,1B,3B,B13,3.63758615972639,0.946178408758838,0.5,0.5,0.5,0.5,0.774359442795517,0.5,0.5,0.5,0.5,0.886856999850793,0.344853331479235,0.5,0.5,0.5,0.732167026729677,0.607646019475347,0.392353980524653,0.774359442795517,0.5,0.793752640552515,0.896821631556518,0.225640557204483,0.0700147614668891,0.5,0.310293337041529,0.751331971763767,4.3871761755465,2.29148809139136,0.5,40.365870949611
CBC_1020,CBC_1020_MSI_AV_v3_Vset6_Aset1_2023-06-28_15h13.22.031.csv,2,24,2,3,b,1,0,2,aud,C,63,1,2C,3C,1,0,b,1.43601000000035,1,0,1,1,2C,3C,C23,2.9704144655697,0.946178408758838,0.5,0.5,0.5,0.5,0.844374204262406,0.5,0.5,0.5,0.5,0.886856999850793,0.344853331479235,0.5,0.5,0.5,0.732167026729677,0.720020752682284,0.279979247317716,0.886856999850793,0.344853331479235,0.787897702319781,0.988103869696059,0.113143000149207,0.0351075190791878,0.5,0.310293337041529,0.751331971763767,4.3871761755465,2.29148809139136,0.5,40.365870949611
CBC_1020,CBC_1020_MSI_AV_v3_Vset6_Aset1_2023-06-28_15h13.22.031.csv,2,25,3,2,b,1,0,1,aud,D,63,1,3D,2D,1,0,b,1.42796590000034,1,0,1,1,3D,2D,D32,2.07944154167984,0.946178408758838,0.5,0.5,0.5,0.5,0.844374204262406,0.5,0.5,0.5,0.5,0.92196451892998,0.344853331479235,0.5,0.5,0.5,0.732167026729677,0.594210858468546,0.405789141531454,0.732167026729677,0.5,0.635982802504469,0.869127793360425,0.267832973270323,0.0831067870458034,0.5,0.310293337041529,0.751331971763767,4.3871761755465,2.29148809139136,0.5,40.365870949611
CBC_1020,CBC_1020_MSI_AV_v3_Vset6_Aset1_2023-06-28_15h13.22.031.csv,2,26,0,1,z,0,1,0,aud,B,63,1,0B,1B,0,1,z,1.39454650000062,0,1,1,1,1B,0B,B01,2.6149597780362,0.946178408758838,0.5,0.5,0.5,0.5,0.844374204262406,0.5,0.5,0.5,0.5,0.92196451892998,0.344853331479235,0.5,0.5,0.5,0.81527381377548,0.628079742667834,0.371920257332166,0.844374204262406,0.5,0.770624642502295,0.929351191786331,0.155625795737594,0.0482896474891614,0.5,0.310293337041529,0.751331971763767,4.3871761755465,2.29148809139136,0.5,40.365870949611
CBC_1020,CBC_1020_MSI_AV_v3_Vset6_Aset1_2023-06-28_15h13.22.031.csv,2,27,3,0,z,0,1,3,aud,A,9,1,3A,0A,0,1,z,2.65257299999939,0,1,1,1,0A,3A,A30,3.73766961828337,0.946178408758838,0.5,0.5,0.5,0.5,0.892663851751568,0.5,0.5,0.5,0.5,0.92196451892998,0.344853331479235,0.5,0.5,0.5,0.81527381377548,0.654261191446553,0.345738808553447,0.946178408758838,0.5,0.0828352912931656,0.956936417282675,0.0538215912411621,0.0167004811511054,0.5,0.310293337041529,0.751331971763767,4.3871761755465,2.29148809139136,0.5,40.365870949611
CBC_1020,CBC_1020_MSI_AV_v3_Vset6_Aset1_2023-06-28_15h13.22.031.csv,2,28,3,2,b,1,0,1,aud,D,63,1,3D,2D,1,0,b,0.984161100000165,1,0,1,1,3D,2D,D32,1.96944064646551,0.962878889909943,0.5,0.5,0.5,0.5,0.892663851751568,0.5,0.5,0.5,0.5,0.92196451892998,0.344853331479235,0.5,0.5,0.5,0.81527381377548,0.619851019032489,0.380148980967511,0.81527381377548,0.5,0.713024707638494,0.917840316675704,0.18472618622452,0.0573193047625613,0.5,0.310293337041529,0.751331971763767,4.3871761755465,2.29148809139136,0.5,40.365870949611
CBC_1020,CBC_1020_MSI_AV_v3_Vset6_Aset1_2023-06-28_15h13.22.031.csv,2,29,0,2,z,0,1,2,aud,C,27,1,0C,2C,0,1,z,1.25571850000051,0,1,1,1,2C,0C,C02,2.68557734525015,0.962878889909943,0.5,0.5,0.5,0.5,0.892663851751568,0.5,0.5,0.5,0.5,0.92196451892998,0.344853331479235,0.5,0.5,0.5,0.872593118538041,0.648373786164336,0.351626213835664,0.92196451892998,0.5,1.00662501781375,0.951830892160999,0.0780354810700196,0.0242138898288575,0.5,0.310293337041529,0.751331971763767,4.3871761755465,2.29148809139136,0.5,40.365870949611
CBC_1020,CBC_1020_MSI_AV_v3_Vset6_Aset1_2023-06-28_15h13.22.031.csv,2,30,0,1,b,1,0,3,aud,A,63,0,0A,1A,0,1,b,2.00295930000084,1,0,1,0,0A,1A,A01,3.11351530921037,0.962878889909943,0.5,0.5,0.5,0.5,0.892663851751568,0.5,0.5,0.5,0.5,0.946178408758838,0.344853331479235,0.5,0.5,0.5,0.872593118538041,0.658208206127863,0.341791793872137,0.962878889909943,0.5,0.271117552906627,0.960043958245337,-0.962878889909943,-0.298774903917,0.5,0.310293337041529,0.751331971763767,4.3871761755465,2.29148809139136,0.5,40.365870949611
CBC_1020,CBC_1020_MSI_AV_v3_Vset6_Aset1_2023-06-28_15h13.22.031.csv,2,31,0,1,z,0,1,0,aud,B,63,1,0B,1B,0,1,z,1.2736689000003,0,1,1,1,1B,0B,B01,2.4423470353692,0.664103985992944,0.5,0.5,0.5,0.5,0.892663851751568,0.5,0.5,0.5,0.5,0.946178408758838,0.344853331479235,0.5,0.5,0.5,0.872593118538041,0.640975818126431,0.359024181873569,0.892663851751568,0.5,0.952935899499734,0.944414938148266,0.107336148248432,0.0333056916251904,0.5,0.310293337041529,0.751331971763767,4.3871761755465,2.29148809139136,0.5,40.365870949611
CBC_1020,CBC_1020_MSI_AV_v3_Vset6_Aset1_2023-06-28_15h13.22.031.csv,2,32,1,3,z,0,1,1,aud,D,27,1,1D,3D,0,1,z,1.64733939999951,0,1,1,1,3D,1D,D13,3.85014760171006,0.664103985992944,0.5,0.5,0.5,0.5,0.925969543376758,0.5,0.5,0.5,0.5,0.946178408758838,0.344853331479235,0.5,0.5,0.5,0.872593118538041,0.635725989554316,0.364274010445684,0.872593118538041,0.5,0.532530108566385,0.938883162520151,0.127406881461959,0.0395335064108857,0.5,0.310293337041529,0.751331971763767,4.3871761755465,2.29148809139136,0.5,40.365870949611
CBC_1020,CBC_1020_MSI_AV_v3_Vset6_Aset1_2023-06-28_15h13.22.031.csv,2,33,2,3,b,1,0,2,aud,C,63,1,2C,3C,1,0,b,2.04177889999937,1,0,1,1,2C,3C,C23,2.77258872223978,0.664103985992944,0.5,0.5,0.5,0.5,0.925969543376758,0.5,0.5,0.5,0.5,0.946178408758838,0.344853331479235,0.5,0.5,0.5,0.912126624948927,0.732885473895752,0.267114526104248,0.946178408758838,0.344853331479235,0.125183499172661,0.990806722473186,0.0538215912411621,0.0167004811511054,0.5,0.310293337041529,0.751331971763767,4.3871761755465,2.29148809139136,0.5,40.365870949611
CBC_1020,CBC_1020_MSI_AV_v3_Vset6_Aset1_2023-06-28_15h13.22.031.csv,2,34,0,1,z,0,1,0,aud,B,63,1,0B,1B,0,1,z,1.39353029999984,0,1,1,1,1B,0B,B01,2.28238238567653,0.664103985992944,0.5,0.5,0.5,0.5,0.925969543376758,0.5,0.5,0.5,0.5,0.962878889909943,0.344853331479235,0.5,0.5,0.5,0.912126624948927,0.649361374987029,0.350638625012971,0.925969543376758,0.5,0.825985207279612,0.952805413543335,0.0740304566232419,0.0229711574283339,0.5,0.310293337041529,0.751331971763767,4.3871761755465,2.29148809139136,0.5,40.365870949611
CBC_1020,CBC_1020_MSI_AV_v3_Vset6_Aset1_2023-06-28_15h13.22.031.csv,2,35,1,0,z,0,1,3,aud,A,63,1,1A,0A,0,1,z,2.74313630000051,0,1,1,1,0A,1A,A10,2.52572864430826,0.664103985992944,0.5,0.5,0.5,0.5,0.948940700805092,0.5,0.5,0.5,0.5,0.962878889909943,0.344853331479235,0.5,0.5,0.5,0.912126624948927,0.570485106127769,0.429514893872231,0.664103985992944,0.5,0.127735227935091,0.804471642003955,0.335896014007056,0.104226295085198,0.5,0.310293337041529,0.751331971763767,4.3871761755465,2.29148809139136,0.5,40.365870949611
CBC_1020,CBC_1020_MSI_AV_v3_Vset6_Aset1_2023-06-28_15h13.22.031.csv,2,36,2,1,b,1,0,2,aud,C,9,1,2C,1C,1,0,b,1.58966210000017,1,0,1,1,2C,1C,C21,3.93182563272433,0.768330281078141,0.5,0.5,0.5,0.5,0.948940700805092,0.5,0.5,0.5,0.5,0.962878889909943,0.344853331479235,0.5,0.5,0.5,0.912126624948927,0.658208206127863,0.341791793872137,0.962878889909943,0.5,0.591977688944232,0.960082287257343,0.0371211100900568,0.0115184331245297,0.5,0.310293337041529,0.751331971763767,4.3871761755465,2.29148809139136,0.5,40.365870949611
CBC_1020,CBC_1020_MSI_AV_v3_Vset6_Aset1_2023-06-28_15h13.22.031.csv,2,37,0,1,b,1,0,3,aud,A,63,1,0A,1A,1,0,b,3.49203209999996,1,0,1,1,0A,1A,A01,2.85263142991332,0.768330281078141,0.5,0.5,0.5,0.5,0.948940700805092,0.5,0.5,0.5,0.5,0.974397323034473,0.344853331479235,0.5,0.5,0.5,0.912126624948927,0.605780917274185,0.394219082725815,0.768330281078141,0.5,0.0405637967203878,0.893237936066656,0.231669718921859,0.0718855701757367,0.5,0.310293337041529,0.751331971763767,4.3871761755465,2.29148809139136,0.5,40.365870949611
CBC_1020,CBC_1020_MSI_AV_v3_Vset6_Aset1_2023-06-28_15h13.22.031.csv,2,38,1,3,z,0,1,1,aud,D,27,1,1D,3D,0,1,z,0.987156099999993,0,1,1,1,3D,1D,D13,3.27714473299218,0.840215851253878,0.5,0.5,0.5,0.5,0.948940700805092,0.5,0.5,0.5,0.5,0.974397323034473,0.344853331479235,0.5,0.5,0.5,0.912126624948927,0.645924103995926,0.354075896004074,0.912126624948927,0.5,0.882573455454867,0.949573803234184,0.087873375051073,0.0272665227816993,0.5,0.310293337041529,0.751331971763767,4.3871761755465,2.29148809139136,0.5,40.365870949611
CBC_1020,CBC_1020_MSI_AV_v3_Vset6_Aset1_2023-06-28_15h13.22.031.csv,2,39,1,0,b,1,0,0,aud,B,63,1,1B,0B,1,0,b,1.77832790000048,1,0,1,1,1B,0B,B10,3.29583686600433,0.840215851253878,0.5,0.5,0.5,0.5,0.948940700805092,0.5,0.5,0.5,0.5,0.974397323034473,0.344853331479235,0.5,0.5,0.5,0.939393147730626,0.654920315426174,0.345079684573826,0.948940700805092,0.5,0.418550322856304,0.957277406133421,0.051059299194908,0.0158433603341899,0.5,0.310293337041529,0.751331971763767,4.3871761755465,2.29148809139136,0.5,40.365870949611
CBC_1020,CBC_1020_MSI_AV_v3_Vset6_Aset1_2023-06-28_15h13.22.031.csv,2,40,3,2,z,0,1,2,aud,C,63,0,3C,2C,1,0,z,1.23128170000018,0,1,1,0,2C,3C,C32,2.90872089656436,0.840215851253878,0.5,0.5,0.5,0.5,0.964784061139282,0.5,0.5,0.5,0.5,0.974397323034473,0.344853331479235,0.5,0.5,0.5,0.939393147730626,0.738599082517528,0.261400917482472,0.974397323034473,0.344853331479235,1.34628278219969,0.991798674788438,-0.974397323034473,-0.3023489969687,0.5,0.310293337041529,0.751331971763767,4.3871761755465,2.29148809139136,0.5,40.365870949611
CBC_1020,CBC_1020_MSI_AV_v3_Vset6_Aset1_2023-06-28_15h13.22.031.csv,2,41,0,2,b,1,0,3,aud,A,27,1,0A,2A,1,0,b,1.48878010000044,1,0,1,1,0A,2A,A02,3.3322045101752,0.840215851253878,0.5,0.5,0.5,0.5,0.964784061139282,0.5,0.5,0.5,0.5,0.672048326065773,0.344853331479235,0.5,0.5,0.5,0.939393147730626,0.626925767567806,0.373074232432194,0.840215851253878,0.5,0.670258048767453,0.927592799417995,0.159784148746122,0.0495799567207743,0.5,0.310293337041529,0.751331971763767,4.3871761755465,2.29148809139136,0.5,40.365870949611
CBC_1020,CBC_1020_MSI_AV_v3_Vset6_Aset1_2023-06-28_15h13.22.031.csv,2,42,2,3,z,0,1,1,aud,D,63,1,2D,3D,0,1,z,1.08723120000013,0,1,1,1,3D,2D,D23,4.04305126783455,0.889795807974652,0.5,0.5,0.5,0.5,0.964784061139282,0.5,0.5,0.5,0.5,0.672048326065773,0.344853331479235,0.5,0.5,0.5,0.939393147730626,0.652631387895441,0.347368612104559,0.939393147730626,0.5,1.1422218507636,0.955631206130836,0.0606068522693737,0.0188059024382469,0.5,0.310293337041529,0.751331971763767,4.3871761755465,2.29148809139136,0.5,40.365870949611
CBC_1020,CBC_1020_MSI_AV_v3_Vset6_Aset1_2023-06-28_15h13.22.031.csv,2,43,1,3,b,1,0,0,aud,B,27,1,1B,3B,1,0,b,1.46128729999964,1,0,1,1,1B,3B,B13,3.36729582998647,0.889795807974652,0.5,0.5,0.5,0.5,0.964784061139282,0.5,0.5,0.5,0.5,0.672048326065773,0.344853331479235,0.5,0.5,0.5,0.958199050168873,0.658652757587279,0.341347242412721,0.964784061139282,0.5,0.749350473711572,0.960345086350045,0.0352159388607182,0.0109272711861427,0.5,0.310293337041529,0.751331971763767,4.3871761755465,2.29148809139136,0.5,40.365870949611
CBC_1020,CBC_1020_MSI_AV_v3_Vset6_Aset1_2023-06-28_15h13.22.031.csv,2,44,3,2,z,0,1,2,aud,C,63,1,3C,2C,0,1,z,2.76381089999995,0,1,1,1,2C,3C,C32,2.69124308278583,0.889795807974652,0.5,0.5,0.5,0.5,0.975711332325425,0.5,0.5,0.5,0.5,0.672048326065773,0.344853331479235,0.5,0.5,0.5,0.958199050168873,0.660878385908254,0.339121614091746,0.672048326065773,0.344853331479235,0.0611234759355094,0.962223673219559,0.327951673934227,0.101761219293407,0.5,0.310293337041529,0.751331971763767,4.3871761755465,2.29148809139136,0.5,40.365870949611
CBC_1020,CBC_1020_MSI_TV_v3_Vset5_Tset1_2023-06-28_16h55.43.253.csv,3,1,2,0,b,1,0,2,tac,C,27,1,2C,0C,1,0,b,2.558659,1,0,1,1,2C,0C,C20,2.77258872223978,0.5,0.5,0.5,0.5,0.5,0.5,0.5,0.5,0.5,0.5,0.5,0.5,0.5,0.5,0.5,0.5,0.5,0.5,0.5,0.5,0.158016469638435,0.500215544276535,0.5,0.00645666290057917,0.5,0.0129133258011583,1.07748172410093,10.6152016757387,2.67576877763133,0.5,76.346133532802
CBC_1020,CBC_1020_MSI_TV_v3_Vset5_Tset1_2023-06-28_16h55.43.253.csv,3,2,3,2,b,1,0,1,tac,D,63,1,3D,2D,1,0,b,2.4631589,1,0,1,1,3D,2D,D32,2.83321334405622,0.5,0.5,0.5,0.5,0.5,0.5,0.5,0.5,0.5,0.5,0.506456662900579,0.5,0.5,0.5,0.5,0.5,0.5,0.5,0.5,0.5,0.16898181904815,0.501146487185919,0.5,0.00645666290057917,0.5,0.0129133258011583,1.07748172410093,10.6152016757387,2.67576877763133,0.5,76.346133532802
CBC_1020,CBC_1020_MSI_TV_v3_Vset5_Tset1_2023-06-28_16h55.43.253.csv,3,3,1,0,z,0,1,3,tac,A,63,1,1A,0A,0,1,b,3.4533513,1,0,0,0,1A,0A,A10,2.89037175789616,0.5,0.5,0.5,0.5,0.5,0.5,0.5,0.5,0.5,0.5,0.506456662900579,0.5,0.5,0.5,0.5,0.506456662900579,0.5,0.5,0.5,0.5,0.0854351655349994,0.50065283281258,-0.5,-0.00645666290057917,0.5,0.0129133258011583,1.07748172410093,10.6152016757387,2.67576877763133,0.5,76.346133532802
CBC_1020,CBC_1020_MSI_TV_v3_Vset5_Tset1_2023-06-28_16h55.43.253.csv,3,4,2,3,b,1,0,2,tac,C,63,1,2C,3C,1,0,b,2.3526012,1,0,1,1,2C,3C,C23,2.94443897916644,0.5,0.493543337099421,0.5,0.5,0.5,0.5,0.5,0.5,0.5,0.5,0.506456662900579,0.5,0.5,0.5,0.5,0.506456662900579,0.503207620923275,0.496792379076725,0.506456662900579,0.5,0.198345800733312,0.545095599643933,0.493543337099421,0.00637328590895574,0.5,0.0129133258011583,1.07748172410093,10.6152016757387,2.67576877763133,0.5,76.346133532802
CBC_1020,CBC_1020_MSI_TV_v3_Vset5_Tset1_2023-06-28_16h55.43.253.csv,3,5,0,2,b,1,0,3,tac,A,27,1,0A,2A,1,0,b,2.3859394,1,0,1,1,0A,2A,A02,2.99573227355399,0.5,0.493543337099421,0.5,0.5,0.5,0.5,0.5,0.5,0.5,0.5,0.512829948809535,0.5,0.5,0.5,0.5,0.506456662900579,0.5,0.5,0.5,0.5,0.177641671699097,0.499905936990321,0.5,0.00645666290057917,0.5,0.0129133258011583,1.07748172410093,10.6152016757387,2.67576877763133,0.5,76.346133532802
CBC_1020,CBC_1020_MSI_TV_v3_Vset5_Tset1_2023-06-28_16h55.43.253.csv,3,6,2,3,z,0,1,1,tac,D,63,1,2D,3D,0,1,z,2.9740085,0,1,1,1,3D,2D,D23,3.04452243772342,0.506456662900579,0.493543337099421,0.5,0.5,0.5,0.5,0.5,0.5,0.5,0.5,0.512829948809535,0.5,0.5,0.5,0.5,0.506456662900579,0.503207620923275,0.496792379076725,0.506456662900579,0.5,0.129429900097549,0.545248326094528,0.493543337099421,0.00637328590895574,0.5,0.0129133258011583,1.07748172410093,10.6152016757387,2.67576877763133,0.5,76.346133532802
CBC_1020,CBC_1020_MSI_TV_v3_Vset5_Tset1_2023-06-28_16h55.43.253.csv,3,7,3,2,b,1,0,1,tac,D,63,1,3D,2D,1,0,b,2.5277644,1,0,1,1,3D,2D,D32,2.39789527279837,0.506456662900579,0.493543337099421,0.5,0.5,0.5,0.5,0.5,0.5,0.5,0.5,0.512829948809535,0.5,0.5,0.5,0.5,0.512829948809535,0.506333713188781,0.493666286811219,0.512829948809535,0.5,0.190454910637683,0.588551738577042,0.487170051190465,0.00629098559158946,0.5,0.0129133258011583,1.07748172410093,10.6152016757387,2.67576877763133,0.5,76.346133532802
CBC_1020,CBC_1020_MSI_TV_v3_Vset5_Tset1_2023-06-28_16h55.43.253.csv,3,8,3,1,z,0,1,0,tac,B,27,1,3B,1B,0,1,z,2.9963841,0,1,1,1,1B,3B,B31,3.13549421592915,0.506456662900579,0.493543337099421,0.5,0.5,0.5,0.5,0.5,0.5,0.5,0.5,0.512829948809535,0.5,0.5,0.5,0.5,0.519120934401124,0.5,0.5,0.5,0.5,0.116815569081267,0.499625935385429,0.5,0.00645666290057917,0.5,0.0129133258011583,1.07748172410093,10.6152016757387,2.67576877763133,0.5,76.346133532802
CBC_1020,CBC_1020_MSI_TV_v3_Vset5_Tset1_2023-06-28_16h55.43.253.csv,3,9,0,3,z,0,1,1,tac,D,9,1,0D,3D,0,1,b,2.4315682,1,0,0,0,0D,3D,D03,3.17805383034795,0.506456662900579,0.493543337099421,0.5,0.5,0.5,0.506456662900579,0.5,0.5,0.5,0.5,0.512829948809535,0.5,0.5,0.5,0.5,0.519120934401124,0.490618908043352,0.509381091956648,0.5,0.519120934401124,0.128452361803431,0.36978766368706,-0.5,-0.00645666290057917,0.5,0.0129133258011583,1.07748172410093,10.6152016757387,2.67576877763133,0.5,76.346133532802
CBC_1020,CBC_1020_MSI_TV_v3_Vset5_Tset1_2023-06-28_16h55.43.253.csv,3,10,1,0,b,1,0,0,tac,B,63,1,1B,0B,1,0,b,2.9480896,1,0,1,1,1B,0B,B10,3.2188758248682,0.506456662900579,0.493543337099421,0.5,0.5,0.5,0.506456662900579,0.5,0.5,0.5,0.5,0.512829948809535,0.5,0.493543337099421,0.5,0.5,0.519120934401124,0.503207620923275,0.496792379076725,0.506456662900579,0.5,0.13205552811396,0.546439823939494,0.493543337099421,0.00637328590895574,0.5,0.0129133258011583,1.07748172410093,10.6152016757387,2.67576877763133,0.5,76.346133532802
CBC_1020,CBC_1020_MSI_TV_v3_Vset5_Tset1_2023-06-28_16h55.43.253.csv,3,11,1,0,z,0,1,3,tac,A,63,1,1A,0A,0,1,b,3.7743763,1,0,0,0,1A,0A,A10,2.56494935746154,0.506456662900579,0.493543337099421,0.5,0.5,0.5,0.512829948809535,0.5,0.5,0.5,0.5,0.512829948809535,0.5,0.493543337099421,0.5,0.5,0.519120934401124,0.493543337099421,0.506456662900579,0.493543337099421,0.506456662900579,0.0555049688425257,0.409321261102104,-0.493543337099421,-0.00637328590895574,0.5,0.0129133258011583,1.07748172410093,10.6152016757387,2.67576877763133,0.5,76.346133532802
CBC_1020,CBC_1020_MSI_TV_v3_Vset5_Tset1_2023-06-28_16h55.43.253.csv,3,12,0,1,z,0,1,0,tac,B,63,1,0B,1B,0,1,z,4.8824814,0,1,1,1,1B,0B,B01,3.29583686600433,0.506456662900579,0.487170051190465,0.5,0.5,0.5,0.512829948809535,0.5,0.5,0.5,0.5,0.512829948809535,0.5,0.493543337099421,0.5,0.5,0.519120934401124,0.506333713188781,0.493666286811219,0.512829948809535,0.5,0.0368697102694786,0.589344185250677,0.487170051190465,0.00629098559158946,0.5,0.0129133258011583,1.07748172410093,10.6152016757387,2.67576877763133,0.5,76.346133532802
CBC_1020,CBC_1020_MSI_TV_v3_Vset5_Tset1_2023-06-28_16h55.43.253.csv,3,13,2,3,z,0,1,1,tac,D,63,1,2D,3D,0,1,b,2.3487546,1,0,0,0,2D,3D,D23,2.63905732961526,0.506456662900579,0.487170051190465,0.5,0.5,0.5,0.519120934401124,0.5,0.5,0.5,0.5,0.512829948809535,0.5,0.493543337099421,0.5,0.5,0.519120934401124,0.490618908043352,0.509381091956648,0.5,0.519120934401124,0.135974603364641,0.369467559446532,-0.5,-0.00645666290057917,0.5,0.0129133258011583,1.07748172410093,10.6152016757387,2.67576877763133,0.5,76.346133532802
CBC_1020,CBC_1020_MSI_TV_v3_Vset5_Tset1_2023-06-28_16h55.43.253.csv,3,14,1,3,b,1,0,0,tac,B,27,1,1B,3B,1,0,b,2.8460024,1,0,1,1,1B,3B,B13,3.36729582998647,0.506456662900579,0.487170051190465,0.5,0.5,0.5,0.519120934401124,0.5,0.5,0.5,0.5,0.512829948809535,0.5,0.493543337099421,0.5,0.493543337099421,0.519120934401124,0.509381091956648,0.490618908043352,0.519120934401124,0.5,0.163246075024208,0.629517999573802,0.480879065598876,0.00620974804503487,0.5,0.0129133258011583,1.07748172410093,10.6152016757387,2.67576877763133,0.5,76.346133532802
CBC_1020,CBC_1020_MSI_TV_v3_Vset5_Tset1_2023-06-28_16h55.43.253.csv,3,15,3,2,z,0,1,2,tac,C,63,1,3C,2C,0,1,b,2.3485299,1,0,0,0,3C,2C,C32,3.40119738166216,0.506456662900579,0.487170051190465,0.5,0.5,0.5,0.525330682446159,0.5,0.5,0.5,0.5,0.512829948809535,0.5,0.493543337099421,0.5,0.493543337099421,0.519120934401124,0.493666286811219,0.506333713188781,0.5,0.512829948809535,0.149998022912759,0.409627141152489,-0.5,-0.00645666290057917,0.5,0.0129133258011583,1.07748172410093,10.6152016757387,2.67576877763133,0.5,76.346133532802
CBC_1020,CBC_1020_MSI_TV_v3_Vset5_Tset1_2023-06-28_16h55.43.253.csv,3,16,2,0,b,1,0,2,tac,C,27,1,2C,0C,1,0,b,2.5978839,1,0,1,1,2C,0C,C20,2.7408400239252,0.506456662900579,0.487170051190465,0.5,0.5,0.5,0.525330682446159,0.5,0.5,0.5,0.5,0.512829948809535,0.493543337099421,0.493543337099421,0.5,0.493543337099421,0.519120934401124,0.506333713188781,0.493666286811219,0.512829948809535,0.5,0.181764397503882,0.589654166631856,0.487170051190465,0.00629098559158946,0.5,0.0129133258011583,1.07748172410093,10.6152016757387,2.67576877763133,0.5,76.346133532802
CBC_1020,CBC_1020_MSI_TV_v3_Vset5_Tset1_2023-06-28_16h55.43.253.csv,3,17,0,3,b,1,0,3,tac,A,9,1,0A,3A,1,0,b,2.5732743,1,0,1,1,0A,3A,A03,3.46573590279973,0.506456662900579,0.487170051190465,0.5,0.5,0.5,0.525330682446159,0.5,0.5,0.5,0.5,0.519120934401124,0.493543337099421,0.493543337099421,0.5,0.493543337099421,0.519120934401124,0.503207620923275,0.496792379076725,0.506456662900579,0.5,0.170751537682441,0.545594284253498,0.493543337099421,0.00637328590895574,0.5,0.0129133258011583,1.07748172410093,10.6152016757387,2.67576877763133,0.5,76.346133532802
CBC_1020,CBC_1020_MSI_TV_v3_Vset5_Tset1_2023-06-28_16h55.43.253.csv,3,18,2,3,b,1,0,2,tac,C,63,0,2C,3C,0,1,z,2.4426553,0,1,0,1,3C,2C,C23,2.80336038090653,0.512829948809535,0.487170051190465,0.5,0.5,0.5,0.525330682446159,0.5,0.5,0.5,0.5,0.519120934401124,0.493543337099421,0.493543337099421,0.5,0.493543337099421,0.519120934401124,0.487371136702689,0.512628863297311,0.493543337099421,0.519120934401124,0.113719403501502,0.327979978295979,0.506456662900579,0.0065400398922026,0.5,0.0129133258011583,1.07748172410093,10.6152016757387,2.67576877763133,0.5,76.346133532802
CBC_1020,CBC_1020_MSI_TV_v3_Vset5_Tset1_2023-06-28_16h55.43.253.csv,3,19,1,0,z,0,1,3,tac,A,63,1,1A,0A,0,1,z,2.5233823,0,1,1,1,0A,1A,A10,2.42774823594805,0.512829948809535,0.487170051190465,0.5,0.5,0.5,0.525330682446159,0.5,0.5,0.5,0.5,0.519120934401124,0.500083376991623,0.493543337099421,0.5,0.493543337099421,0.519120934401124,0.512829948809535,0.487170051190465,0.512829948809535,0.487170051190465,0.220900206333055,0.674880474103577,0.487170051190465,0.00629098559158946,0.5,0.0129133258011583,1.07748172410093,10.6152016757387,2.67576877763133,0.5,76.346133532802
CBC_1020,CBC_1020_MSI_TV_v3_Vset5_Tset1_2023-06-28_16h55.43.253.csv,3,20,3,2,b,1,0,1,tac,D,63,1,3D,2D,1,0,z,2.5000739,0,1,0,0,2D,3D,D32,2.4567357728213,0.519120934401124,0.487170051190465,0.5,0.5,0.5,0.525330682446159,0.5,0.5,0.5,0.5,0.519120934401124,0.500083376991623,0.493543337099421,0.5,0.493543337099421,0.519120934401124,0.487371136702689,0.512628863297311,0.493543337099421,0.519120934401124,0.10919015305309,0.328171061307577,-0.493543337099421,-0.00637328590895574,0.5,0.0129133258011583,1.07748172410093,10.6152016757387,2.67576877763133,0.5,76.346133532802
CBC_1020,CBC_1020_MSI_TV_v3_Vset5_Tset1_2023-06-28_16h55.43.253.csv,3,21,3,2,z,0,1,2,tac,C,63,1,3C,2C,0,1,b,1.8948564,1,0,0,0,3C,2C,C32,2.89037175789616,0.519120934401124,0.487170051190465,0.5,0.5,0.5,0.525330682446159,0.5,0.5,0.5,0.5,0.519120934401124,0.500083376991623,0.493543337099421,0.5,0.487170051190465,0.519120934401124,0.490660578454831,0.509339421545169,0.500083376991623,0.519120934401124,0.182719668289721,0.371347531865172,-0.500083376991623,-0.00645773957483632,0.5,0.0129133258011583,1.07748172410093,10.6152016757387,2.67576877763133,0.5,76.346133532802
CBC_1020,CBC_1020_MSI_TV_v3_Vset5_Tset1_2023-06-28_16h55.43.253.csv,3,22,3,1,b,1,0,1,tac,D,27,1,3D,1D,1,0,b,2.4511491,1,0,1,1,3D,1D,D31,3.61091791264422,0.519120934401124,0.487170051190465,0.5,0.5,0.5,0.525330682446159,0.5,0.5,0.5,0.5,0.519120934401124,0.493625637416787,0.493543337099421,0.5,0.487170051190465,0.519120934401124,0.509381091956648,0.490618908043352,0.519120934401124,0.5,0.215879620653863,0.630062188030234,0.480879065598876,0.00620974804503487,0.5,0.0129133258011583,1.07748172410093,10.6152016757387,2.67576877763133,0.5,76.346133532802
CBC_1020,CBC_1020_MSI_TV_v3_Vset5_Tset1_2023-06-28_16h55.43.253.csv,3,23,0,1,b,1,0,3,tac,A,63,1,0A,1A,1,0,b,1.8392794,1,0,1,1,0A,1A,A01,3.63758615972639,0.519120934401124,0.487170051190465,0.5,0.5,0.5,0.525330682446159,0.5,0.5,0.5,0.5,0.519120934401124,0.493625637416787,0.493543337099421,0.5,0.487170051190465,0.525330682446159,0.515875568631809,0.484124431368191,0.519120934401124,0.487170051190465,0.372332026400229,0.710908162227167,0.480879065598876,0.00620974804503487,0.5,0.0129133258011583,1.07748172410093,10.6152016757387,2.67576877763133,0.5,76.346133532802
CBC_1020,CBC_1020_MSI_TV_v3_Vset5_Tset1_2023-06-28_16h55.43.253.csv,3,24,3,2,z,0,1,2,tac,C,63,1,3C,2C,0,1,b,3.0023748,1,0,0,0,3C,2C,C32,2.56494935746154,0.525330682446159,0.487170051190465,0.5,0.5,0.5,0.525330682446159,0.5,0.5,0.5,0.5,0.519120934401124,0.493625637416787,0.493543337099421,0.5,0.487170051190465,0.525330682446159,0.487412795217577,0.512587204782423,0.493625637416787,0.519120934401124,0.0759667615787678,0.32827167007942,-0.493625637416787,-0.00637434867976743,0.5,0.0129133258011583,1.07748172410093,10.6152016757387,2.67576877763133,0.5,76.346133532802
CBC_1020,CBC_1020_MSI_TV_v3_Vset5_Tset1_2023-06-28_16h55.43.253.csv,3,25,0,2,b,1,0,3,tac,A,27,1,0A,2A,1,0,b,1.4506734,1,0,1,1,0A,2A,A02,2.99573227355399,0.525330682446159,0.487170051190465,0.5,0.5,0.5,0.525330682446159,0.5,0.5,0.5,0.5,0.519120934401124,0.48725128873702,0.493543337099421,0.5,0.487170051190465,0.525330682446159,0.512352445352424,0.487647554647576,0.525330682446159,0.5,0.298246250681052,0.668394708797141,0.474669317553841,0.00612955954538623,0.5,0.0129133258011583,1.07748172410093,10.6152016757387,2.67576877763133,0.5,76.346133532802
CBC_1020,CBC_1020_MSI_TV_v3_Vset5_Tset1_2023-06-28_16h55.43.253.csv,3,26,1,0,b,1,0,0,tac,B,63,1,1B,0B,1,0,b,2.4594591,1,0,1,1,1B,0B,B10,3.02042488614436,0.531460241991545,0.487170051190465,0.5,0.5,0.5,0.525330682446159,0.5,0.5,0.5,0.5,0.519120934401124,0.48725128873702,0.493543337099421,0.5,0.487170051190465,0.525330682446159,0.512352445352424,0.487647554647576,0.525330682446159,0.5,0.229107618267806,0.669076100122007,0.474669317553841,0.00612955954538623,0.5,0.0129133258011583,1.07748172410093,10.6152016757387,2.67576877763133,0.5,76.346133532802
CBC_1020,CBC_1020_MSI_TV_v3_Vset5_Tset1_2023-06-28_16h55.43.253.csv,3,27,0,1,z,0,1,0,tac,B,63,1,0B,1B,0,1,z,2.6094352,0,1,1,1,1B,0B,B01,3.04452243772342,0.531460241991545,0.487170051190465,0.5,0.5,0.5,0.531460241991545,0.5,0.5,0.5,0.5,0.519120934401124,0.48725128873702,0.493543337099421,0.5,0.487170051190465,0.525330682446159,0.515250341559846,0.484749658440154,0.531460241991545,0.5,0.21699725216737,0.703673473024421,0.468539758008455,0.00605040654595906,0.5,0.0129133258011583,1.07748172410093,10.6152016757387,2.67576877763133,0.5,76.346133532802
CBC_1020,CBC_1020_MSI_TV_v3_Vset5_Tset1_2023-06-28_16h55.43.253.csv,3,28,3,2,z,0,1,2,tac,C,63,1,3C,2C,0,1,b,1.9760787,1,0,0,0,3C,2C,C32,2.37490575457367,0.531460241991545,0.487170051190465,0.5,0.5,0.5,0.537510648537504,0.5,0.5,0.5,0.5,0.519120934401124,0.48725128873702,0.493543337099421,0.5,0.487170051190465,0.525330682446159,0.484166074474549,0.515833925525451,0.48725128873702,0.519120934401124,0.139830360760246,0.288371880544133,-0.48725128873702,-0.00629203463849541,0.5,0.0129133258011583,1.07748172410093,10.6152016757387,2.67576877763133,0.5,76.346133532802
CBC_1020,CBC_1020_MSI_TV_v3_Vset5_Tset1_2023-06-28_16h55.43.253.csv,3,29,3,1,b,1,0,1,tac,D,27,1,3D,1D,1,0,b,2.3779517,1,0,1,1,3D,1D,D31,3.09104245335832,0.531460241991545,0.487170051190465,0.5,0.5,0.5,0.537510648537504,0.5,0.5,0.5,0.5,0.519120934401124,0.480959254098524,0.493543337099421,0.5,0.487170051190465,0.525330682446159,0.512352445352424,0.487647554647576,0.525330682446159,0.5,0.242416331924885,0.668065950311659,0.474669317553841,0.00612955954538623,0.5,0.0129133258011583,1.07748172410093,10.6152016757387,2.67576877763133,0.5,76.346133532802
CBC_1020,CBC_1020_MSI_TV_v3_Vset5_Tset1_2023-06-28_16h55.43.253.csv,3,30,1,2,z,0,1,2,tac,C,9,1,1C,2C,0,1,z,2.8204376,0,1,1,1,2C,1C,C12,3.80666248977032,0.531460241991545,0.487170051190465,0.5,0.5,0.5,0.537510648537504,0.5,0.5,0.5,0.5,0.519120934401124,0.480959254098524,0.493543337099421,0.5,0.487170051190465,0.531460241991545,0.509381091956648,0.490618908043352,0.519120934401124,0.5,0.166450286625201,0.630362533035565,0.480879065598876,0.00620974804503487,0.5,0.0129133258011583,1.07748172410093,10.6152016757387,2.67576877763133,0.5,76.346133532802
CBC_1020,CBC_1020_MSI_TV_v3_Vset5_Tset1_2023-06-28_16h55.43.253.csv,3,31,3,1,z,0,1,0,tac,B,27,1,3B,1B,0,1,z,1.477909,0,1,1,1,1B,3B,B31,3.13549421592915,0.531460241991545,0.487170051190465,0.5,0.5,0.5,0.537510648537504,0.5,0.5,0.5,0.5,0.525330682446159,0.480959254098524,0.493543337099421,0.5,0.487170051190465,0.531460241991545,0.518077235443501,0.481922764556499,0.537510648537504,0.5,0.365355099239063,0.735962597245978,0.462489351462496,0.00597227567500163,0.5,0.0129133258011583,1.07748172410093,10.6152016757387,2.67576877763133,0.5,76.346133532802
CBC_1020,CBC_1020_MSI_TV_v3_Vset5_Tset1_2023-06-28_16h55.43.253.csv,3,32,3,2,b,1,0,1,tac,D,63,1,3D,2D,1,0,z,2.4847524,0,1,0,0,2D,3D,D32,2.46385324059017,0.531460241991545,0.487170051190465,0.5,0.5,0.5,0.543482924212506,0.5,0.5,0.5,0.5,0.525330682446159,0.480959254098524,0.493543337099421,0.5,0.487170051190465,0.531460241991545,0.478259928505206,0.521740071494794,0.487170051190465,0.531460241991545,0.0771021494229821,0.225247860375538,-0.487170051190465,-0.00629098559158946,0.5,0.0129133258011583,1.07748172410093,10.6152016757387,2.67576877763133,0.5,76.346133532802
CBC_1020,CBC_1020_MSI_TV_v3_Vset5_Tset1_2023-06-28_16h55.43.253.csv,3,33,0,1,z,0,1,0,tac,B,63,1,0B,1B,0,1,z,2.3110511,0,1,1,1,1B,0B,B01,2.77258872223978,0.531460241991545,0.487170051190465,0.5,0.5,0.5,0.543482924212506,0.5,0.5,0.5,0.5,0.525330682446159,0.480959254098524,0.493543337099421,0.5,0.480879065598876,0.531460241991545,0.520835474737319,0.479164525262681,0.543482924212506,0.5,0.299773420205387,0.766484716403132,0.456517075787494,0.005895153733436,0.5,0.0129133258011583,1.07748172410093,10.6152016757387,2.67576877763133,0.5,76.346133532802
CBC_1020,CBC_1020_MSI_TV_v3_Vset5_Tset1_2023-06-28_16h55.43.253.csv,3,34,1,0,z,0,1,3,tac,A,63,0,1A,0A,1,0,z,2.2550929,0,1,1,0,0A,1A,A10,2.50552593699074,0.531460241991545,0.487170051190465,0.5,0.5,0.5,0.549378077945942,0.5,0.5,0.5,0.5,0.525330682446159,0.480959254098524,0.493543337099421,0.5,0.480879065598876,0.531460241991545,0.521740071494794,0.478259928505206,0.531460241991545,0.487170051190465,0.317666957148394,0.775360185112619,-0.531460241991545,-0.00686291925519928,0.5,0.0129133258011583,1.07748172410093,10.6152016757387,2.67576877763133,0.5,76.346133532802
CBC_1020,CBC_1020_MSI_TV_v3_Vset5_Tset1_2023-06-28_16h55.43.253.csv,3,35,2,3,b,1,0,2,tac,C,63,1,2C,3C,1,0,z,2.8630319,0,1,0,0,3C,2C,C23,2.81341071676004,0.524597322736346,0.487170051190465,0.5,0.5,0.5,0.549378077945942,0.5,0.5,0.5,0.5,0.525330682446159,0.480959254098524,0.493543337099421,0.5,0.480879065598876,0.531460241991545,0.477952960306851,0.522047039693149,0.480959254098524,0.525330682446159,0.0565976725761197,0.223261310062204,-0.480959254098524,-0.00621078354525634,0.5,0.0129133258011583,1.07748172410093,10.6152016757387,2.67576877763133,0.5,76.346133532802
CBC_1020,CBC_1020_MSI_TV_v3_Vset5_Tset1_2023-06-28_16h55.43.253.csv,3,36,0,2,b,1,0,3,tac,A,27,1,0A,2A,1,0,b,1.8382053,1,0,1,1,0A,2A,A02,2.83321334405622,0.524597322736346,0.487170051190465,0.5,0.5,0.5,0.549378077945942,0.5,0.5,0.5,0.5,0.525330682446159,0.474748470553268,0.493543337099421,0.5,0.480879065598876,0.531460241991545,0.512003409627626,0.487996590372374,0.524597322736346,0.5,0.33961068125918,0.663187967490805,0.475402677263654,0.00613902965824849,0.5,0.0129133258011583,1.07748172410093,10.6152016757387,2.67576877763133,0.5,76.346133532802
CBC_1020,CBC_1020_MSI_TV_v3_Vset5_Tset1_2023-06-28_16h55.43.253.csv,3,37,0,1,z,0,1,0,tac,B,63,1,0B,1B,0,1,z,1.8447867,0,1,1,1,1B,0B,B01,2.56494935746154,0.530736352394594,0.487170051190465,0.5,0.5,0.5,0.549378077945942,0.5,0.5,0.5,0.5,0.525330682446159,0.474748470553268,0.493543337099421,0.5,0.480879065598876,0.531460241991545,0.523527305831753,0.476472694168247,0.549378077945942,0.5,0.439012895705495,0.792571282876777,0.450621922054058,0.00581902769262823,0.5,0.0129133258011583,1.07748172410093,10.6152016757387,2.67576877763133,0.5,76.346133532802
CBC_1020,CBC_1020_MSI_TV_v3_Vset5_Tset1_2023-06-28_16h55.43.253.csv,3,38,2,3,z,0,1,1,tac,D,63,1,2D,3D,0,1,b,2.4657049,1,0,0,0,2D,3D,D23,2.87167962488401,0.530736352394594,0.487170051190465,0.5,0.5,0.5,0.55519710563857,0.5,0.5,0.5,0.5,0.525330682446159,0.474748470553268,0.493543337099421,0.5,0.480879065598876,0.531460241991545,0.475017676379146,0.524982323620854,0.480879065598876,0.531460241991545,0.0681254416872673,0.194877689312441,-0.480879065598876,-0.00620974804503487,0.5,0.0129133258011583,1.07748172410093,10.6152016757387,2.67576877763133,0.5,76.346133532802
CBC_1020,CBC_1020_MSI_TV_v3_Vset5_Tset1_2023-06-28_16h55.43.253.csv,3,39,1,2,b,1,0,0,tac,B,9,1,1B,2B,1,0,b,2.4624904,1,0,1,1,1B,2B,B12,3.98898404656427,0.530736352394594,0.487170051190465,0.5,0.5,0.5,0.55519710563857,0.5,0.5,0.5,0.5,0.525330682446159,0.474748470553268,0.493543337099421,0.5,0.474669317553841,0.531460241991545,0.526154879189688,0.473845120810312,0.55519710563857,0.5,0.286448219029286,0.815606947740778,0.44480289436143,0.00574388469218736,0.5,0.0129133258011583,1.07748172410093,10.6152016757387,2.67576877763133,0.5,76.346133532802
CBC_1020,CBC_1020_MSI_TV_v3_Vset5_Tset1_2023-06-28_16h55.43.253.csv,3,40,1,3,z,0,1,1,tac,D,27,1,1D,3D,0,1,z,2.4468924,0,1,1,1,3D,1D,D13,4.00733318523247,0.530736352394594,0.487170051190465,0.5,0.5,0.5,0.560940990330757,0.5,0.5,0.5,0.5,0.525330682446159,0.474748470553268,0.493543337099421,0.5,0.474669317553841,0.531460241991545,0.515250341559846,0.484749658440154,0.531460241991545,0.5,0.244471754696174,0.70344145260534,0.468539758008455,0.00605040654595906,0.5,0.0129133258011583,1.07748172410093,10.6152016757387,2.67576877763133,0.5,76.346133532802
CBC_1020,CBC_1020_MSI_TV_v3_Vset5_Tset1_2023-06-28_16h55.43.253.csv,3,41,1,0,z,0,1,3,tac,A,63,1,1A,0A,0,1,z,2.487669,0,1,1,1,0A,1A,A10,2.41591377830105,0.530736352394594,0.487170051190465,0.5,0.5,0.5,0.560940990330757,0.5,0.5,0.5,0.5,0.525330682446159,0.474748470553268,0.493543337099421,0.5,0.474669317553841,0.537510648537504,0.521399954382195,0.478600045617805,0.530736352394594,0.487170051190465,0.263243374180343,0.771296776645877,0.469263647605406,0.00605975436816856,0.5,0.0129133258011583,1.07748172410093,10.6152016757387,2.67576877763133,0.5,76.346133532802
CBC_1020,CBC_1020_MSI_TV_v3_Vset5_Tset1_2023-06-28_16h55.43.253.csv,3,42,0,1,b,1,0,3,tac,A,63,1,0A,1A,1,0,b,2.9988705,1,0,1,1,0A,1A,A01,3.3499040872746,0.536796106762763,0.487170051190465,0.5,0.5,0.5,0.560940990330757,0.5,0.5,0.5,0.5,0.525330682446159,0.474748470553268,0.493543337099421,0.5,0.474669317553841,0.537510648537504,0.524232273296753,0.475767726703247,0.536796106762763,0.487170051190465,0.180045435436082,0.797893762917297,0.463203893237237,0.0059815027857374,0.5,0.0129133258011583,1.07748172410093,10.6152016757387,2.67576877763133,0.5,76.346133532802
CBC_1020,CBC_1020_MSI_TV_v3_Vset5_Tset1_2023-06-28_16h55.43.253.csv,3,43,2,0,b,1,0,2,tac,C,27,1,2C,0C,1,0,b,3.614611,1,0,1,1,2C,0C,C20,2.96183072187831,0.5427776095485,0.487170051190465,0.5,0.5,0.5,0.560940990330757,0.5,0.5,0.5,0.5,0.525330682446159,0.474748470553268,0.493543337099421,0.5,0.474669317553841,0.537510648537504,0.512352445352424,0.487647554647576,0.525330682446159,0.5,0.0994435833199868,0.669157279704047,0.474669317553841,0.00612955954538623,0.5,0.0129133258011583,1.07748172410093,10.6152016757387,2.67576877763133,0.5,76.346133532802
CBC_1020,CBC_1020_MSI_TV_v3_Vset5_Tset1_2023-06-28_16h55.43.253.csv,3,44,0,1,z,0,1,0,tac,B,63,1,0B,1B,0,1,z,2.7276574,0,1,1,1,1B,0B,B01,2.46809953147162,0.5427776095485,0.487170051190465,0.5,0.5,0.5,0.560940990330757,0.5,0.5,0.5,0.5,0.531460241991545,0.474748470553268,0.493543337099421,0.5,0.474669317553841,0.537510648537504,0.52872025441856,0.47127974558144,0.560940990330757,0.5,0.233962725612248,0.836212750101425,0.439059009669243,0.00566971203779286,0.5,0.0129133258011583,1.07748172410093,10.6152016757387,2.67576877763133,0.5,76.346133532802
CBC_1020,CBC_1020_MSI_AV_v3_Vset4_Aset3_2023-06-28_17h19.47.712.csv,4,1,1,0,z,0,1,3,aud,A,63,1,1A,0A,0,1,b,2.17138780000096,1,0,0,0,1A,0A,A10,2.77258872223978,0.5,0.5,0.5,0.5,0.5,0.5,0.5,0.5,0.5,0.5,0.5,0.5,0.5,0.5,0.5,0.5,0.5,0.5,0.5,0.5,0.171155262378789,0.500320337208454,-0.5,-0.498268553384476,0.5,0.996537106768953,0.803509477825307,0.254257635805607,2.59218376004063,0.5,128.110138425259
CBC_1020,CBC_1020_MSI_AV_v3_Vset4_Aset3_2023-06-28_17h19.47.712.csv,4,2,3,2,b,1,0,1,aud,D,63,1,3D,2D,1,0,z,2.49403530000018,0,1,0,0,2D,3D,D32,2.83321334405622,0.5,0.0017314466155236,0.5,0.5,0.5,0.5,0.5,0.5,0.5,0.5,0.5,0.5,0.5,0.5,0.5,0.5,0.5,0.5,0.5,0.5,0.135349142614474,0.501029828774605,-0.5,-0.498268553384476,0.5,0.996537106768953,0.803509477825307,0.254257635805607,2.59218376004063,0.5,128.110138425259
CBC_1020,CBC_1020_MSI_AV_v3_Vset4_Aset3_2023-06-28_17h19.47.712.csv,4,3,2,0,b,1,0,2,aud,C,27,1,2C,0C,1,0,b,2.50708440000017,1,0,1,1,2C,0C,C20,2.89037175789616,0.5,0.0017314466155236,0.5,0.5,0.5,0.5,0.5,0.5,0.5,0.5,0.5,0.5,0.5,0.5,0.0017314466155236,0.5,0.5,0.5,0.5,0.5,0.133598823844149,0.499307449458997,0.5,0.498268553384476,0.5,0.996537106768953,0.803509477825307,0.254257635805607,2.59218376004063,0.5,128.110138425259
CBC_1020,CBC_1020_MSI_AV_v3_Vset4_Aset3_2023-06-28_17h19.47.712.csv,4,4,1,0,z,0,1,3,aud,A,63,1,1A,0A,0,1,z,2.18996059999881,0,1,1,1,0A,1A,A10,2.2512917986065,0.5,0.0017314466155236,0.5,0.5,0.5,0.5,0.5,0.5,0.5,0.5,0.998268553384476,0.5,0.5,0.5,0.0017314466155236,0.5,0.996549057016053,0.00345094298394736,0.5,0.0017314466155236,0.223839124224443,0.657703572397736,0.5,0.498268553384476,0.5,0.996537106768953,0.803509477825307,0.254257635805607,2.59218376004063,0.5,128.110138425259
CBC_1020,CBC_1020_MSI_AV_v3_Vset4_Aset3_2023-06-28_17h19.47.712.csv,4,5,3,1,z,0,1,0,aud,B,27,1,3B,1B,0,1,b,1.8067673000005,1,0,0,0,3B,1B,B31,2.99573227355399,0.998268553384476,0.0017314466155236,0.5,0.5,0.5,0.5,0.5,0.5,0.5,0.5,0.998268553384476,0.5,0.5,0.5,0.0017314466155236,0.5,0.5,0.5,0.5,0.5,0.221798837056264,0.499693804718762,-0.5,-0.498268553384476,0.5,0.996537106768953,0.803509477825307,0.254257635805607,2.59218376004063,0.5,128.110138425259
CBC_1020,CBC_1020_MSI_AV_v3_Vset4_Aset3_2023-06-28_17h19.47.712.csv,4,6,2,3,b,1,0,2,aud,C,63,1,2C,3C,1,0,z,3.01747900000009,0,1,0,0,3C,2C,C23,3.04452243772342,0.998268553384476,0.0017314466155236,0.5,0.5,0.5,0.5,0.5,0.0017314466155236,0.5,0.5,0.998268553384476,0.5,0.5,0.5,0.0017314466155236,0.5,0.333718543895577,0.666281456104423,0.5,0.998268553384476,0.0818018254739405,0.445547058937545,-0.5,-0.498268553384476,0.5,0.996537106768953,0.803509477825307,0.254257635805607,2.59218376004063,0.5,128.110138425259
CBC_1020,CBC_1020_MSI_AV_v3_Vset4_Aset3_2023-06-28_17h19.47.712.csv,4,7,2,3,z,0,1,1,aud,D,63,0,2D,3D,NaN,NaN,[],NaN,NaN,NaN,NaN,NaN,,,D23,3.09104245335832,0.998268553384476,0.0017314466155236,0.5,0.5,0.5,0.5,0.5,0.0017314466155236,0.5,0.5,0.998268553384476,0.0017314466155236,0.5,0.5,0.0017314466155236,0.5,0,0,0,0,NaN,0,0,0,0.5,0.996537106768953,0.803509477825307,0.254257635805607,2.59218376004063,0.5,128.110138425259
CBC_1020,CBC_1020_MSI_AV_v3_Vset4_Aset3_2023-06-28_17h19.47.712.csv,4,8,1,0,b,1,0,0,aud,B,63,1,1B,0B,1,0,z,2.4499504000014,0,1,0,0,0B,1B,B10,3.13549421592915,0.998268553384476,0.0017314466155236,0.5,0.5,0.5,0.5,0.5,0.0017314466155236,0.5,0.5,0.998268553384476,0.0017314466155236,0.5,0.5,0.0017314466155236,0.5,0.5,0.5,0.5,0.5,0.13971264948722,0.500727712250445,-0.5,-0.498268553384476,0.5,0.996537106768953,0.803509477825307,0.254257635805607,2.59218376004063,0.5,128.110138425259
CBC_1020,CBC_1020_MSI_AV_v3_Vset4_Aset3_2023-06-28_17h19.47.712.csv,4,9,0,2,b,1,0,3,aud,A,27,1,0A,2A,1,0,b,2.1906213000002,1,0,1,1,0A,2A,A02,3.17805383034795,0.998268553384476,0.0017314466155236,0.5,0.5,0.0017314466155236,0.5,0.5,0.0017314466155236,0.5,0.5,0.998268553384476,0.0017314466155236,0.5,0.5,0.0017314466155236,0.5,0.666281456104423,0.333718543895577,0.998268553384476,0.5,0.18750393786989,0.555261042072701,0.0017314466155236,0.00172545080075879,0.5,0.996537106768953,0.803509477825307,0.254257635805607,2.59218376004063,0.5,128.110138425259
CBC_1020,CBC_1020_MSI_AV_v3_Vset4_Aset3_2023-06-28_17h19.47.712.csv,4,10,0,3,z,0,1,1,aud,D,9,1,0D,3D,0,1,z,3.08254959999977,0,1,1,1,3D,0D,D03,3.2188758248682,0.999994004185235,0.0017314466155236,0.5,0.5,0.0017314466155236,0.5,0.5,0.0017314466155236,0.5,0.5,0.998268553384476,0.0017314466155236,0.5,0.5,0.0017314466155236,0.5,0.5,0.5,0.5,0.5,0.0877233657938762,0.500228753132718,0.5,0.498268553384476,0.5,0.996537106768953,0.803509477825307,0.254257635805607,2.59218376004063,0.5,128.110138425259
CBC_1020,CBC_1020_MSI_AV_v3_Vset4_Aset3_2023-06-28_17h19.47.712.csv,4,11,3,2,z,0,1,2,aud,C,63,0,3C,2C,1,0,z,3.57243040000139,0,1,1,0,2C,3C,C32,3.25809653802148,0.999994004185235,0.0017314466155236,0.5,0.5,0.0017314466155236,0.5,0.5,0.0017314466155236,0.5,0.5,0.998268553384476,0.0017314466155236,0.5,0.5,0.0017314466155236,0.998268553384476,0.998268553384476,0.0017314466155236,0.998268553384476,0.0017314466155236,0.0778216950350988,0.65946593435047,-0.998268553384476,-0.994811655968194,0.5,0.996537106768953,0.803509477825307,0.254257635805607,2.59218376004063,0.5,128.110138425259
CBC_1020,CBC_1020_MSI_AV_v3_Vset4_Aset3_2023-06-28_17h19.47.712.csv,4,12,1,0,b,1,0,0,aud,B,63,1,1B,0B,1,0,b,2.45131860000038,1,0,1,1,1B,0B,B10,2.60268968544438,0.999994004185235,0.0017314466155236,0.5,0.5,0.0017314466155236,0.5,0.5,0.0017314466155236,0.5,0.5,0.00345689741628241,0.0017314466155236,0.5,0.5,0.0017314466155236,0.998268553384476,0.996549057016053,0.00345094298394736,0.5,0.0017314466155236,0.183395645016298,0.657884981455673,0.5,0.498268553384476,0.5,0.996537106768953,0.803509477825307,0.254257635805607,2.59218376004063,0.5,128.110138425259
CBC_1020,CBC_1020_MSI_AV_v3_Vset4_Aset3_2023-06-28_17h19.47.712.csv,4,13,3,2,b,1,0,1,aud,D,63,0,3D,2D,0,1,b,2.03257239999948,1,0,1,0,3D,2D,D32,2.63905732961526,0.999994004185235,0.0017314466155236,0.5,0.5,0.0017314466155236,0.998268553384476,0.5,0.0017314466155236,0.5,0.5,0.00345689741628241,0.0017314466155236,0.5,0.5,0.0017314466155236,0.998268553384476,0.998268553384476,0.0017314466155236,0.998268553384476,0.0017314466155236,0.252723199764131,0.65895241907298,-0.998268553384476,-0.994811655968194,0.5,0.996537106768953,0.803509477825307,0.254257635805607,2.59218376004063,0.5,128.110138425259
CBC_1020,CBC_1020_MSI_AV_v3_Vset4_Aset3_2023-06-28_17h19.47.712.csv,4,14,3,2,z,0,1,2,aud,C,63,1,3C,2C,0,1,b,3.06052920000002,1,0,0,0,3C,2C,C32,2.67414864942653,0.999994004185235,0.0017314466155236,0.5,0.5,0.0017314466155236,0.998268553384476,0.5,0.0017314466155236,0.5,0.5,0.00345689741628241,0.0017314466155236,0.5,0.5,0.0017314466155236,0.00345689741628241,0.333718543895575,0.666281456104425,0.0017314466155236,0.00345689741628241,0.0790661467726123,0.444580571724536,-0.0017314466155236,-0.00172545080075879,0.5,0.996537106768953,0.803509477825307,0.254257635805607,2.59218376004063,0.5,128.110138425259
CBC_1020,CBC_1020_MSI_AV_v3_Vset4_Aset3_2023-06-28_17h19.47.712.csv,4,15,1,3,b,1,0,0,aud,B,27,1,1B,3B,1,0,z,3.352156500001,0,1,0,0,3B,1B,B13,3.40119738166216,0.999994004185235,0.0017314466155236,0.5,0.5,0.0017314466155236,0.998268553384476,0.5,0.0017314466155236,0.5,0.5,0.00345689741628241,5.99581476481634e-06,0.5,0.5,0.0017314466155236,0.00345689741628241,0.0017314466155236,0.998268553384476,0.0017314466155236,0.998268553384476,0.047800501439528,0.341913916107569,-0.0017314466155236,-0.00172545080075879,0.5,0.996537106768953,0.803509477825307,0.254257635805607,2.59218376004063,0.5,128.110138425259
CBC_1020,CBC_1020_MSI_AV_v3_Vset4_Aset3_2023-06-28_17h19.47.712.csv,4,16,3,0,z,0,1,3,aud,A,9,1,3A,0A,0,1,b,2.42312740000125,1,0,0,0,3A,0A,A30,3.43398720448515,0.999994004185235,0.0017314466155236,0.5,0.5,0.0017314466155236,0.998268553384476,0.5,5.99581476481634e-06,0.5,0.5,0.00345689741628241,5.99581476481634e-06,0.5,0.5,0.0017314466155236,0.00345689741628241,0.33333466574194,0.66666533425806,0.5,0.999994004185235,0.126587625884843,0.444759887263719,-0.5,-0.498268553384476,0.5,0.996537106768953,0.803509477825307,0.254257635805607,2.59218376004063,0.5,128.110138425259
CBC_1020,CBC_1020_MSI_AV_v3_Vset4_Aset3_2023-06-28_17h19.47.712.csv,4,17,3,2,b,1,0,1,aud,D,63,1,3D,2D,1,0,b,2.18428220000169,1,0,1,1,3D,2D,D32,2.36712361413162,0.999994004185235,0.0017314466155236,0.5,0.0017314466155236,0.0017314466155236,0.998268553384476,0.5,5.99581476481634e-06,0.5,0.5,0.00345689741628241,5.99581476481634e-06,0.5,0.5,0.0017314466155236,0.00345689741628241,0.666281456104425,0.333718543895575,0.00345689741628241,0.0017314466155236,0.188397627243976,0.555320336054938,0.996543102583718,0.993092180219334,0.5,0.996537106768953,0.803509477825307,0.254257635805607,2.59218376004063,0.5,128.110138425259
CBC_1020,CBC_1020_MSI_AV_v3_Vset4_Aset3_2023-06-28_17h19.47.712.csv,4,18,2,0,b,1,0,2,aud,C,27,1,2C,0C,1,0,z,2.70887640000001,0,1,0,0,0C,2C,C20,2.80336038090653,0.999994004185235,0.0017314466155236,0.5,0.0017314466155236,0.0017314466155236,0.998268553384476,0.5,5.99581476481634e-06,0.5,0.5,0.00345689741628241,5.99581476481634e-06,0.5,0.5,0.0017314466155236,0.996549077635616,0.993133677512369,0.00686632248763112,0.5,0.00345689741628241,0.150651052908741,0.658258299074074,-0.5,-0.498268553384476,0.5,0.996537106768953,0.803509477825307,0.254257635805607,2.59218376004063,0.5,128.110138425259
CBC_1020,CBC_1020_MSI_AV_v3_Vset4_Aset3_2023-06-28_17h19.47.712.csv,4,19,1,0,z,0,1,3,aud,A,63,1,1A,0A,0,1,b,3.20721820000108,1,0,0,0,1A,0A,A10,2.42774823594805,0.999994004185235,0.0017314466155236,0.5,0.0017314466155236,0.0017314466155236,0.998268553384476,0.5,5.99581476481634e-06,0.0017314466155236,0.5,0.00345689741628241,5.99581476481634e-06,0.5,0.5,0.0017314466155236,0.996549077635616,0.00172846423552433,0.998271535764476,0.0017314466155236,0.999994004185235,0.0532980668003669,0.341239687929364,-0.0017314466155236,-0.00172545080075879,0.5,0.996537106768953,0.803509477825307,0.254257635805607,2.59218376004063,0.5,128.110138425259
CBC_1020,CBC_1020_MSI_AV_v3_Vset4_Aset3_2023-06-28_17h19.47.712.csv,4,20,0,1,z,0,1,0,aud,B,63,0,0B,1B,1,0,b,2.44434830000137,1,0,0,1,0B,1B,B01,3.55534806148941,0.999994004185235,5.99581476481634e-06,0.5,0.0017314466155236,0.0017314466155236,0.998268553384476,0.5,5.99581476481634e-06,0.0017314466155236,0.5,0.00345689741628241,5.99581476481634e-06,0.5,0.5,0.0017314466155236,0.996549077635616,0.0017314466155236,0.998268553384476,0.0017314466155236,0.998268553384476,0.0953683171394034,0.340294988301662,0.998268553384476,0.994811655968194,0.5,0.996537106768953,0.803509477825307,0.254257635805607,2.59218376004063,0.5,128.110138425259
CBC_1020,CBC_1020_MSI_AV_v3_Vset4_Aset3_2023-06-28_17h19.47.712.csv,4,21,1,3,z,0,1,1,aud,D,27,1,1D,3D,0,1,b,0.262265999999727,1,0,0,0,1D,3D,D13,3.58351893845611,0.999994004185235,5.99581476481634e-06,0.5,0.0017314466155236,0.996543102583718,0.998268553384476,0.5,5.99581476481634e-06,0.0017314466155236,0.5,0.00345689741628241,5.99581476481634e-06,0.5,0.5,0.0017314466155236,0.996549077635616,0.334101973314464,0.665898026685536,0.5,0.996549077635616,1e-20,0.5,-0.5,-0.498268553384476,0.5,0.996537106768953,0.803509477825307,0.254257635805607,2.59218376004063,0.5,128.110138425259
CBC_1020,CBC_1020_MSI_AV_v3_Vset4_Aset3_2023-06-28_17h19.47.712.csv,4,22,2,3,b,1,0,2,aud,C,63,1,2C,3C,1,0,b,2.52877120000085,1,0,1,1,2C,3C,C23,2.91777073208428,0.999994004185235,5.99581476481634e-06,0.5,0.0017314466155236,0.996543102583718,0.998268553384476,0.5,5.99581476481634e-06,0.0017314466155236,0.5,0.00345689741628241,5.99581476481634e-06,0.5,0.0017314466155236,0.0017314466155236,0.996549077635616,0.998268553384476,0.00173144661552361,0.00345689741628241,5.99581476481634e-06,0.172986812850191,0.658459443299023,0.996543102583718,0.993092180219334,0.5,0.996537106768953,0.803509477825307,0.254257635805607,2.59218376004063,0.5,128.110138425259
CBC_1020,CBC_1020_MSI_AV_v3_Vset4_Aset3_2023-06-28_17h19.47.712.csv,4,23,1,0,b,1,0,0,aud,B,63,1,1B,0B,1,0,z,2.25141179999991,0,1,0,0,0B,1B,B10,2.53897387105828,0.999994004185235,5.99581476481634e-06,0.5,0.0017314466155236,0.996543102583718,0.998268553384476,0.5,5.99581476481634e-06,0.0017314466155236,0.5,0.996549077635616,5.99581476481634e-06,0.5,0.0017314466155236,0.0017314466155236,0.996549077635616,0.499567515360261,0.500432484639739,0.996543102583718,0.998268553384476,0.161405857283517,0.500198843428385,-0.996543102583718,-0.993092180219334,0.5,0.996537106768953,0.803509477825307,0.254257635805607,2.59218376004063,0.5,128.110138425259
CBC_1020,CBC_1020_MSI_AV_v3_Vset4_Aset3_2023-06-28_17h19.47.712.csv,4,24,2,0,z,0,1,3,aud,A,27,1,2A,0A,0,1,b,2.39513479999914,1,0,0,0,2A,0A,A20,3.66356164612965,0.999994004185235,5.99581476481634e-06,0.5,0.0017314466155236,0.00345092236438393,0.998268553384476,0.5,5.99581476481634e-06,0.0017314466155236,0.5,0.996549077635616,5.99581476481634e-06,0.5,0.0017314466155236,0.0017314466155236,0.996549077635616,0.33333466574194,0.66666533425806,0.5,0.999994004185235,0.129320153815998,0.445088647865798,-0.5,-0.498268553384476,0.5,0.996537106768953,0.803509477825307,0.254257635805607,2.59218376004063,0.5,128.110138425259
CBC_1020,CBC_1020_MSI_AV_v3_Vset4_Aset3_2023-06-28_17h19.47.712.csv,4,25,2,3,z,0,1,1,aud,D,63,1,2D,3D,0,1,z,1.60325120000016,0,1,1,1,3D,2D,D23,2.99573227355399,0.999994004185235,5.99581476481634e-06,0.0017314466155236,0.0017314466155236,0.00345092236438393,0.998268553384476,0.5,5.99581476481634e-06,0.0017314466155236,0.5,0.996549077635616,5.99581476481634e-06,0.5,0.0017314466155236,0.0017314466155236,0.996549077635616,0.998265571076003,0.00173442892399654,0.996549077635616,0.0017314466155236,0.341983234640834,0.658319907874172,0.00345092236438393,0.00343897218868744,0.5,0.996537106768953,0.803509477825307,0.254257635805607,2.59218376004063,0.5,128.110138425259
CBC_1020,CBC_1020_MSI_AV_v3_Vset4_Aset3_2023-06-28_17h19.47.712.csv,4,26,2,0,b,1,0,2,aud,C,27,1,2C,0C,1,0,z,2.69371259999934,0,1,0,0,0C,2C,C20,2.6149597780362,0.999994004185235,5.99581476481634e-06,0.0017314466155236,0.0017314466155236,0.00345092236438393,0.998268553384476,0.5,5.99581476481634e-06,0.0017314466155236,0.5,0.996549077635616,5.99581476481634e-06,0.5,0.0017314466155236,0.0017314466155236,0.999988049824304,0.00173442892399654,0.998265571076003,0.0017314466155236,0.996549077635616,0.078997964369739,0.341209872338987,-0.0017314466155236,-0.00172545080075879,0.5,0.996537106768953,0.803509477825307,0.254257635805607,2.59218376004063,0.5,128.110138425259
CBC_1020,CBC_1020_MSI_AV_v3_Vset4_Aset3_2023-06-28_17h19.47.712.csv,4,27,1,0,b,1,0,0,aud,B,63,1,1B,0B,1,0,b,1.55073669999911,1,0,1,1,1B,0B,B10,2.35137525716348,0.999994004185235,5.99581476481634e-06,0.0017314466155236,0.0017314466155236,0.00345092236438393,0.998268553384476,0.5,5.99581476481634e-06,5.99581476481634e-06,0.5,0.996549077635616,5.99581476481634e-06,0.5,0.0017314466155236,0.0017314466155236,0.999988049824304,0.99655500122746,0.0034449987725397,0.998268553384476,0.00345092236438393,0.35276062122289,0.65883508465704,0.0017314466155236,0.00172545080075879,0.5,0.996537106768953,0.803509477825307,0.254257635805607,2.59218376004063,0.5,128.110138425259
CBC_1020,CBC_1020_MSI_AV_v3_Vset4_Aset3_2023-06-28_17h19.47.712.csv,4,28,0,1,b,1,0,3,aud,A,63,1,0A,1A,1,0,z,2.35211160000108,0,1,0,0,1A,0A,A01,3.76120011569356,0.999994004185235,5.99581476481634e-06,0.0017314466155236,0.0017314466155236,0.00345092236438393,0.999994004185235,0.5,5.99581476481634e-06,5.99581476481634e-06,0.5,0.996549077635616,5.99581476481634e-06,0.5,0.0017314466155236,0.0017314466155236,0.999988049824304,5.99581476481634e-06,0.999994004185235,5.99581476481634e-06,0.999994004185235,0.102730255494199,0.341588758419966,-5.99581476481634e-06,-5.97505189845264e-06,0.5,0.996537106768953,0.803509477825307,0.254257635805607,2.59218376004063,0.5,128.110138425259
CBC_1020,CBC_1020_MSI_AV_v3_Vset4_Aset3_2023-06-28_17h19.47.712.csv,4,29,3,2,z,0,1,2,aud,C,63,0,3C,2C,1,0,b,1.85520449999967,1,0,0,1,3C,2C,C32,2.68557734525015,0.999994004185235,2.07628663636953e-08,0.0017314466155236,0.0017314466155236,0.00345092236438393,0.999994004185235,0.5,5.99581476481634e-06,5.99581476481634e-06,0.5,0.996549077635616,5.99581476481634e-06,0.5,0.0017314466155236,0.0017314466155236,0.999988049824304,6.01654130770413e-06,0.999993983458692,5.99581476481634e-06,0.996549077635616,0.149675642162649,0.34211502238885,0.999994004185235,0.996531131717054,0.5,0.996537106768953,0.803509477825307,0.254257635805607,2.59218376004063,0.5,128.110138425259
CBC_1020,CBC_1020_MSI_AV_v3_Vset4_Aset3_2023-06-28_17h19.47.712.csv,4,30,3,1,b,1,0,1,aud,D,27,1,3D,1D,1,0,b,3.56040890000077,1,0,1,1,3D,1D,D31,3.80666248977032,0.999994004185235,2.07628663636953e-08,0.0017314466155236,0.0017314466155236,0.00345092236438393,0.999994004185235,0.5,5.99581476481634e-06,5.99581476481634e-06,0.5,0.996549077635616,0.996537127531819,0.5,0.0017314466155236,0.0017314466155236,0.999988049824304,0.998271525490242,0.00172847450975774,0.999988049824304,0.0017314466155236,0.0783420180509102,0.656978221373394,1.19501756964402e-05,1.19087935139112e-05,0.5,0.996537106768953,0.803509477825307,0.254257635805607,2.59218376004063,0.5,128.110138425259
CBC_1020,CBC_1020_MSI_AV_v3_Vset4_Aset3_2023-06-28_17h19.47.712.csv,4,31,1,0,z,0,1,3,aud,A,63,0,1A,0A,1,0,z,1.82698659999915,0,1,1,0,0A,1A,A10,2.4423470353692,0.999994004185235,2.07628663636953e-08,0.0017314466155236,0.0017314466155236,0.00345092236438393,0.999994004185235,0.5,5.99581476481634e-06,5.99581476481634e-06,0.5,0.996549077635616,0.996537127531819,0.5,0.0017314466155236,0.0017314466155236,0.999999958617817,0.99999997923701,2.07629904236406e-08,0.999994004185235,2.07628663636953e-08,0.294881256041277,0.659980379363609,-0.999994004185235,-0.996531131717054,0.5,0.996537106768953,0.803509477825307,0.254257635805607,2.59218376004063,0.5,128.110138425259
CBC_1020,CBC_1020_MSI_AV_v3_Vset4_Aset3_2023-06-28_17h19.47.712.csv,4,32,3,2,b,1,0,1,aud,D,63,1,3D,2D,1,0,b,1.48904819999916,1,0,1,1,3D,2D,D32,2.46385324059017,0.00346287246818089,2.07628663636953e-08,0.0017314466155236,0.0017314466155236,0.00345092236438393,0.999994004185235,0.5,5.99581476481634e-06,5.99581476481634e-06,0.5,0.996549077635616,0.996537127531819,0.5,0.0017314466155236,0.0017314466155236,0.999999958617817,0.998271546038711,0.00172845396128944,0.999999958617817,0.0017314466155236,0.363876122178032,0.659214688504678,4.13821825695493e-08,4.12388804896432e-08,0.5,0.996537106768953,0.803509477825307,0.254257635805607,2.59218376004063,0.5,128.110138425259
CBC_1020,CBC_1020_MSI_AV_v3_Vset4_Aset3_2023-06-28_17h19.47.712.csv,4,33,2,1,z,0,1,0,aud,B,9,1,2B,1B,0,1,b,4.29995100000087,1,0,0,0,2B,1B,B21,3.87120101090789,0.00346287246818089,2.07628663636953e-08,0.0017314466155236,0.0017314466155236,0.00345092236438393,0.999994004185235,0.5,5.99581476481634e-06,5.99581476481634e-06,0.5,0.996549077635616,0.996537127531819,0.5,0.0017314466155236,0.0017314466155236,0.999999999856698,0.33333466574194,0.66666533425806,0.5,0.999994004185235,0.0317960111984042,0.44613432491841,-0.5,-0.498268553384476,0.5,0.996537106768953,0.803509477825307,0.254257635805607,2.59218376004063,0.5,128.110138425259
CBC_1020,CBC_1020_MSI_AV_v3_Vset4_Aset3_2023-06-28_17h19.47.712.csv,4,34,1,0,z,0,1,3,aud,A,63,1,1A,0A,0,1,z,1.22944760000064,0,1,1,1,0A,1A,A10,2.28238238567653,0.00346287246818089,2.07628663636953e-08,0.0017314466155236,0.0017314466155236,0.00345092236438393,0.999994004185235,0.0017314466155236,5.99581476481634e-06,5.99581476481634e-06,0.5,0.996549077635616,0.996537127531819,0.5,0.0017314466155236,0.0017314466155236,0.999999999856698,0.999994004185235,5.99581476481622e-06,0.00346287246818089,2.07628663636953e-08,0.354905157981397,0.658888387386934,0.996537127531819,0.993086225858402,0.5,0.996537106768953,0.803509477825307,0.254257635805607,2.59218376004063,0.5,128.110138425259
CBC_1020,CBC_1020_MSI_AV_v3_Vset4_Aset3_2023-06-28_17h19.47.712.csv,4,35,2,1,b,1,0,2,aud,C,9,1,2C,1C,1,0,b,1.70495850000043,1,0,1,1,2C,1C,C21,3.91202300542815,0.996549098326583,2.07628663636953e-08,0.0017314466155236,0.0017314466155236,0.00345092236438393,0.999994004185235,0.0017314466155236,5.99581476481634e-06,5.99581476481634e-06,0.5,0.996549077635616,0.996537127531819,0.5,0.0017314466155236,0.0017314466155236,0.999999999856698,0.665898026685536,0.334101973314464,0.996549077635616,0.5,0.263439705658759,0.553081502883653,0.00345092236438393,0.00343897218868744,0.5,0.996537106768953,0.803509477825307,0.254257635805607,2.59218376004063,0.5,128.110138425259
CBC_1020,CBC_1020_MSI_AV_v3_Vset4_Aset3_2023-06-28_17h19.47.712.csv,4,36,1,0,b,1,0,0,aud,B,63,1,1B,0B,1,0,z,2.05977689999963,0,1,0,0,0B,1B,B10,2.32238772029023,0.996549098326583,2.07628663636953e-08,0.0017314466155236,0.0017314466155236,0.00345092236438393,0.999994004185235,0.0017314466155236,5.99581476481634e-06,5.99581476481634e-06,0.5,0.999988049824304,0.996537127531819,0.5,0.0017314466155236,0.0017314466155236,0.999999999856698,0.00343907500359791,0.996560924996402,0.00345092236438393,0.999994004185235,0.12883641949307,0.343004227696702,-0.00345092236438393,-0.00343897218868744,0.5,0.996537106768953,0.803509477825307,0.254257635805607,2.59218376004063,0.5,128.110138425259
CBC_1020,CBC_1020_MSI_AV_v3_Vset4_Aset3_2023-06-28_17h19.47.712.csv,4,37,0,1,b,1,0,3,aud,A,63,0,0A,1A,0,1,b,2.45405070000015,1,0,1,0,0A,1A,A01,3.25809653802148,0.996549098326583,2.07628663636953e-08,0.0017314466155236,0.0017314466155236,1.19501756964944e-05,0.999994004185235,0.0017314466155236,5.99581476481634e-06,5.99581476481634e-06,0.5,0.999988049824304,0.996537127531819,0.5,0.0017314466155236,0.0017314466155236,0.999999999856698,0.999999979165235,2.08347646553201e-08,0.996549098326583,2.07628663636953e-08,0.183376215371485,0.659202622988729,-0.996549098326583,-0.993098155199582,0.5,0.996537106768953,0.803509477825307,0.254257635805607,2.59218376004063,0.5,128.110138425259
CBC_1020,CBC_1020_MSI_AV_v3_Vset4_Aset3_2023-06-28_17h19.47.712.csv,4,38,0,1,z,0,1,0,aud,B,63,1,0B,1B,0,1,z,2.11811040000066,0,1,1,1,1B,0B,B01,3.27714473299218,0.00345094312700134,2.07628663636953e-08,0.0017314466155236,0.0017314466155236,1.19501756964944e-05,0.999994004185235,0.0017314466155236,5.99581476481634e-06,5.99581476481634e-06,0.5,0.999988049824304,0.996537127531819,0.5,0.0017314466155236,0.0017314466155236,0.999999999856698,0.999988049895459,1.19501045412588e-05,0.999994004185235,1.19501756964944e-05,0.236930815873633,0.659065375936666,5.99581476479205e-06,5.97505189842844e-06,0.5,0.996537106768953,0.803509477825307,0.254257635805607,2.59218376004063,0.5,128.110138425259
CBC_1020,CBC_1020_MSI_AV_v3_Vset4_Aset3_2023-06-28_17h19.47.712.csv,4,39,1,3,z,0,1,1,aud,D,27,1,1D,3D,0,1,z,3.79183910000029,0,1,1,1,3D,1D,D13,3.29583686600433,0.00345094312700134,2.07628663636953e-08,0.0017314466155236,0.0017314466155236,1.19501756964944e-05,0.999999979237134,0.0017314466155236,5.99581476481634e-06,5.99581476481634e-06,0.5,0.999988049824304,0.996537127531819,0.5,0.0017314466155236,0.0017314466155236,0.999999999856698,0.998271546109867,0.00172845389013313,0.999999999856698,0.0017314466155236,0.0656486502982849,0.657481145868817,1.43302036903492e-10,1.42805797249904e-10,0.5,0.996537106768953,0.803509477825307,0.254257635805607,2.59218376004063,0.5,128.110138425259
CBC_1020,CBC_1020_MSI_AV_v3_Vset4_Aset3_2023-06-28_17h19.47.712.csv,4,40,3,2,z,0,1,2,aud,C,63,1,3C,2C,0,1,b,1.0163790000006,1,0,0,0,3C,2C,C32,2.62103882411258,0.00345094312700134,2.07628663636953e-08,0.0017314466155236,0.0017314466155236,1.19501756964944e-05,0.999999979237134,0.0017314466155236,5.99581476481634e-06,5.99581476481634e-06,0.5,0.999988049824304,0.996537127531819,0.5,0.0017314466155236,0.0017314466155236,0.999999999999504,0.499135767900244,0.500864232099756,0.996537127531819,0.999988049824304,0.101878733970104,0.500367943655188,-0.996537127531819,-0.993086225858402,0.5,0.996537106768953,0.803509477825307,0.254257635805607,2.59218376004063,0.5,128.110138425259
CBC_1020,CBC_1020_MSI_AV_v3_Vset4_Aset3_2023-06-28_17h19.47.712.csv,4,41,0,2,b,1,0,3,aud,A,27,1,0A,2A,1,0,z,1.01581330000045,0,1,0,0,2A,0A,A02,3.3322045101752,0.00345094312700134,2.07628663636953e-08,0.0017314466155236,0.0017314466155236,1.19501756964944e-05,0.999999979237134,0.0017314466155236,5.99581476481634e-06,5.99581476481634e-06,0.5,0.999988049824304,0.00345090167341711,0.5,0.0017314466155236,0.0017314466155236,0.999999999999504,0.33410196869524,0.66589803130476,0.0017314466155236,0.00345094312700134,0.0907062819895881,0.446130227716132,-0.0017314466155236,-0.00172545080075879,0.5,0.996537106768953,0.803509477825307,0.254257635805607,2.59218376004063,0.5,128.110138425259
CBC_1020,CBC_1020_MSI_AV_v3_Vset4_Aset3_2023-06-28_17h19.47.712.csv,4,42,2,3,z,0,1,1,aud,D,63,1,2D,3D,0,1,z,1.55937410000115,0,1,1,1,3D,2D,D23,2.94443897916644,0.00345094312700134,2.07628663636953e-08,5.99581476481634e-06,0.0017314466155236,1.19501756964944e-05,0.999999979237134,0.0017314466155236,5.99581476481634e-06,5.99581476481634e-06,0.5,0.999988049824304,0.00345090167341711,0.5,0.0017314466155236,0.0017314466155236,0.999999999999504,0.998271546110113,0.00172845388988673,0.999999999999504,0.0017314466155236,0.350804812676157,0.658388478155246,4.96269692007445e-13,4.94551163050219e-13,0.5,0.996537106768953,0.803509477825307,0.254257635805607,2.59218376004063,0.5,128.110138425259
CBC_1020,CBC_1020_MSI_AV_v3_Vset4_Aset3_2023-06-28_17h19.47.712.csv,4,43,1,3,b,1,0,0,aud,B,27,0,1B,3B,0,1,b,2.77400440000019,1,0,1,0,1B,3B,B13,3.36729582998647,0.00345094312700134,2.07628663636953e-08,5.99581476481634e-06,0.0017314466155236,1.19501756964944e-05,0.999999979237134,0.0017314466155236,5.99581476481634e-06,5.99581476481634e-06,0.5,0.999988049824304,0.00345090167341711,0.5,0.0017314466155236,0.0017314466155236,0.999999999999998,0.99999400422106,5.995778939726e-06,0.999999979237134,5.99581476481634e-06,0.143592357181863,0.659658841053913,-0.999999979237134,-0.996537086077986,0.5,0.996537106768953,0.803509477825307,0.254257635805607,2.59218376004063,0.5,128.110138425259
CBC_1020,CBC_1020_MSI_AV_v3_Vset4_Aset3_2023-06-28_17h19.47.712.csv,4,44,3,2,z,0,1,2,aud,C,63,1,3C,2C,0,1,b,1.93368929999997,1,0,0,0,3C,2C,C32,2.46809953147162,0.00345094312700134,2.07628663636953e-08,5.99581476481634e-06,0.0017314466155236,1.19501756964944e-05,0.00346289315914761,0.0017314466155236,5.99581476481634e-06,5.99581476481634e-06,0.5,0.999988049824304,0.00345090167341711,0.5,0.0017314466155236,0.0017314466155236,0.999999999999998,0.00343907486177045,0.99656092513823,0.00345090167341711,0.999988049824304,0.141539590695445,0.342830539978927,-0.00345090167341711,-0.00343895156937122,0.5,0.996537106768953,0.803509477825307,0.254257635805607,2.59218376004063,0.5,128.110138425259
