ID,filename,session,trial,visStimLeft,visStimRight,correctKey,leftCorrect,rightCorrect,secondStim,mod2Type,mod2Stim,frequency,rewardAccurate,stimPairLeft,stimPairRight,pCorrectLeft,pCorrectRight,key,reactionTime,choiceLeft,choiceRight,choiceAccurate,reward,chosenPair,otherPair,triplet,surprise,0A belief,1A belief,2A belief,3A belief,0B belief,1B belief,2B belief,3B belief,0C belief,1C belief,2C belief,3C belief,0D belief,1D belief,2D belief,3D belief,beliefPairNorm,beliefOtherPairNorm,beliefPair,beliefOtherPair,lik,corrLik,rewardPE,update2,fitCBCsimpleRW_CBCdriftDiffusionLR_pwBelief_startBelief,fitCBCsimpleRW_CBCdriftDiffusionLR_pwBelief_alpha1,fitCBCsimpleRW_CBCdriftDiffusionLR_pwBelief_nonDecisionTime,fitCBCsimpleRW_CBCdriftDiffusionLR_pwBelief_weight,fitCBCsimpleRW_CBCdriftDiffusionLR_pwBelief_startingBoundary,fitCBCsimpleRW_CBCdriftDiffusionLR_pwBelief_startingPoint,fit_CBCsimpleRW_CBCdriftDiffusionLR_pwBelief_NLL
CBC_1020,CBC_1020_MSI_TV_v3_Vset1_Tset2_2023-06-28_15h03.37.595.csv,1,1,1,0,b,1,0,0,tac,B,63,1,1B,0B,1,0,z,2.3386438,0,1,0,0,0B,1B,B10,2.77258872223978,0.5,0.5,0.5,0.5,0.5,0.5,0.5,0.5,0.5,0.5,0.5,0.5,0.5,0.5,0.5,0.5,0.5,0.5,0.5,0.5,0.186879146269467,0.50009737464478,-0.5,-0.00323812472601925,0.5,0.00647624945203851,1.09524817684138,0.0576577559720542,2.61611847956316,0.5,75.9028341173828
CBC_1020,CBC_1020_MSI_TV_v3_Vset1_Tset2_2023-06-28_15h03.37.595.csv,1,2,1,0,z,0,1,3,tac,A,63,1,1A,0A,0,1,z,2.3928044,0,1,1,1,0A,1A,A10,2.83321334405622,0.5,0.5,0.5,0.5,0.496761875273981,0.5,0.5,0.5,0.5,0.5,0.5,0.5,0.5,0.5,0.5,0.5,0.5,0.5,0.5,0.5,0.179472249504063,0.499093441446894,0.5,0.00323812472601925,0.5,0.00647624945203851,1.09524817684138,0.0576577559720542,2.61611847956316,0.5,75.9028341173828
CBC_1020,CBC_1020_MSI_TV_v3_Vset1_Tset2_2023-06-28_15h03.37.595.csv,1,3,3,2,b,1,0,1,tac,D,63,1,3D,2D,1,0,b,2.2867541,1,0,1,1,3D,2D,D32,2.89037175789616,0.503238124726019,0.5,0.5,0.5,0.496761875273981,0.5,0.5,0.5,0.5,0.5,0.5,0.5,0.5,0.5,0.5,0.5,0.5,0.5,0.5,0.5,0.193853824745765,0.500114277304034,0.5,0.00323812472601925,0.5,0.00647624945203851,1.09524817684138,0.0576577559720542,2.61611847956316,0.5,75.9028341173828
CBC_1020,CBC_1020_MSI_TV_v3_Vset1_Tset2_2023-06-28_15h03.37.595.csv,1,4,1,2,b,1,0,0,tac,B,9,1,1B,2B,1,0,z,2.3800762,0,1,0,0,2B,1B,B12,2.94443897916644,0.503238124726019,0.5,0.5,0.5,0.496761875273981,0.5,0.5,0.5,0.5,0.5,0.5,0.5,0.5,0.5,0.5,0.503238124726019,0.5,0.5,0.5,0.5,0.181800561946979,0.501013994833957,-0.5,-0.00323812472601925,0.5,0.00647624945203851,1.09524817684138,0.0576577559720542,2.61611847956316,0.5,75.9028341173828
CBC_1020,CBC_1020_MSI_TV_v3_Vset1_Tset2_2023-06-28_15h03.37.595.csv,1,5,2,0,z,0,1,3,tac,A,27,1,2A,0A,0,1,b,2.3697365,1,0,0,0,2A,0A,A20,2.99573227355399,0.503238124726019,0.5,0.5,0.5,0.496761875273981,0.5,0.496761875273981,0.5,0.5,0.5,0.5,0.5,0.5,0.5,0.5,0.503238124726019,0.496761875273981,0.503238124726019,0.5,0.503238124726019,0.182207277887214,0.498460515177027,-0.5,-0.00323812472601925,0.5,0.00647624945203851,1.09524817684138,0.0576577559720542,2.61611847956316,0.5,75.9028341173828
CBC_1020,CBC_1020_MSI_TV_v3_Vset1_Tset2_2023-06-28_15h03.37.595.csv,1,6,3,2,z,0,1,2,tac,C,63,1,3C,2C,0,1,b,2.1898982,1,0,0,0,3C,2C,C32,3.04452243772342,0.503238124726019,0.5,0.496761875273981,0.5,0.496761875273981,0.5,0.496761875273981,0.5,0.5,0.5,0.5,0.5,0.5,0.5,0.5,0.503238124726019,0.5,0.5,0.5,0.5,0.208196444766424,0.502055007963658,-0.5,-0.00323812472601925,0.5,0.00647624945203851,1.09524817684138,0.0576577559720542,2.61611847956316,0.5,75.9028341173828
CBC_1020,CBC_1020_MSI_TV_v3_Vset1_Tset2_2023-06-28_15h03.37.595.csv,1,7,3,1,b,1,0,1,tac,D,27,1,3D,1D,1,0,z,2.1256749,0,1,0,0,1D,3D,D31,3.09104245335832,0.503238124726019,0.5,0.496761875273981,0.5,0.496761875273981,0.5,0.496761875273981,0.5,0.5,0.5,0.5,0.496761875273981,0.5,0.5,0.5,0.503238124726019,0.496761875273981,0.503238124726019,0.5,0.503238124726019,0.216157544525063,0.49888799363756,-0.5,-0.00323812472601925,0.5,0.00647624945203851,1.09524817684138,0.0576577559720542,2.61611847956316,0.5,75.9028341173828
CBC_1020,CBC_1020_MSI_TV_v3_Vset1_Tset2_2023-06-28_15h03.37.595.csv,1,8,0,1,b,1,0,3,tac,A,63,1,0A,1A,1,0,z,2.5859114,0,1,0,0,1A,0A,A01,3.13549421592915,0.503238124726019,0.5,0.496761875273981,0.5,0.496761875273981,0.5,0.496761875273981,0.5,0.5,0.5,0.5,0.496761875273981,0.5,0.496761875273981,0.5,0.503238124726019,0.496761875273981,0.503238124726019,0.5,0.503238124726019,0.156592016716713,0.499956113008585,-0.5,-0.00323812472601925,0.5,0.00647624945203851,1.09524817684138,0.0576577559720542,2.61611847956316,0.5,75.9028341173828
CBC_1020,CBC_1020_MSI_TV_v3_Vset1_Tset2_2023-06-28_15h03.37.595.csv,1,9,0,2,z,0,1,2,tac,C,27,1,0C,2C,0,1,b,2.4336349,1,0,0,0,0C,2C,C02,3.17805383034795,0.503238124726019,0.496761875273981,0.496761875273981,0.5,0.496761875273981,0.5,0.496761875273981,0.5,0.5,0.5,0.5,0.496761875273981,0.5,0.496761875273981,0.5,0.503238124726019,0.5,0.5,0.5,0.5,0.174824183955974,0.500516141126434,-0.5,-0.00323812472601925,0.5,0.00647624945203851,1.09524817684138,0.0576577559720542,2.61611847956316,0.5,75.9028341173828
CBC_1020,CBC_1020_MSI_TV_v3_Vset1_Tset2_2023-06-28_15h03.37.595.csv,1,10,3,2,b,1,0,1,tac,D,63,1,3D,2D,1,0,z,2.3966332,0,1,0,0,2D,3D,D32,2.52572864430826,0.503238124726019,0.496761875273981,0.496761875273981,0.5,0.496761875273981,0.5,0.496761875273981,0.5,0.496761875273981,0.5,0.5,0.496761875273981,0.5,0.496761875273981,0.5,0.503238124726019,0.496761875273981,0.503238124726019,0.5,0.503238124726019,0.179304610909205,0.499987478886366,-0.5,-0.00323812472601925,0.5,0.00647624945203851,1.09524817684138,0.0576577559720542,2.61611847956316,0.5,75.9028341173828
CBC_1020,CBC_1020_MSI_TV_v3_Vset1_Tset2_2023-06-28_15h03.37.595.csv,1,11,0,1,z,0,1,0,tac,B,63,1,0B,1B,0,1,b,2.4091885,1,0,0,0,0B,1B,B01,3.25809653802148,0.503238124726019,0.496761875273981,0.496761875273981,0.5,0.496761875273981,0.5,0.496761875273981,0.5,0.496761875273981,0.5,0.5,0.496761875273981,0.5,0.496761875273981,0.496761875273981,0.503238124726019,0.496761875273981,0.503238124726019,0.496761875273981,0.5,0.177778584760501,0.500182619588202,-0.496761875273981,-0.00321715382253674,0.5,0.00647624945203851,1.09524817684138,0.0576577559720542,2.61611847956316,0.5,75.9028341173828
CBC_1020,CBC_1020_MSI_TV_v3_Vset1_Tset2_2023-06-28_15h03.37.595.csv,1,12,1,0,z,0,1,3,tac,A,63,1,1A,0A,0,1,b,2.2873354,1,0,0,0,1A,0A,A10,2.60268968544438,0.503238124726019,0.496761875273981,0.496761875273981,0.5,0.493544721451444,0.5,0.496761875273981,0.5,0.496761875273981,0.5,0.5,0.496761875273981,0.5,0.496761875273981,0.496761875273981,0.503238124726019,0.493524022162174,0.506475977837826,0.496761875273981,0.503238124726019,0.193606912892865,0.499681435198001,-0.496761875273981,-0.00321715382253674,0.5,0.00647624945203851,1.09524817684138,0.0576577559720542,2.61611847956316,0.5,75.9028341173828
CBC_1020,CBC_1020_MSI_TV_v3_Vset1_Tset2_2023-06-28_15h03.37.595.csv,1,13,3,2,b,1,0,1,tac,D,63,1,3D,2D,1,0,z,1.4602272,0,1,0,0,2D,3D,D32,2.23359222150709,0.503238124726019,0.493544721451444,0.496761875273981,0.5,0.493544721451444,0.5,0.496761875273981,0.5,0.496761875273981,0.5,0.5,0.496761875273981,0.5,0.496761875273981,0.496761875273981,0.503238124726019,0.493524022162174,0.506475977837826,0.496761875273981,0.503238124726019,0.226167050682476,0.498018770575344,-0.496761875273981,-0.00321715382253674,0.5,0.00647624945203851,1.09524817684138,0.0576577559720542,2.61611847956316,0.5,75.9028341173828
CBC_1020,CBC_1020_MSI_TV_v3_Vset1_Tset2_2023-06-28_15h03.37.595.csv,1,14,0,2,z,0,1,2,tac,C,27,1,0C,2C,0,1,b,3.0042409,1,0,0,0,0C,2C,C02,2.67414864942653,0.503238124726019,0.493544721451444,0.496761875273981,0.5,0.493544721451444,0.5,0.496761875273981,0.5,0.496761875273981,0.5,0.5,0.496761875273981,0.5,0.496761875273981,0.493544721451444,0.503238124726019,0.496761875273981,0.503238124726019,0.496761875273981,0.5,0.115735158855545,0.499349655070381,-0.496761875273981,-0.00321715382253674,0.5,0.00647624945203851,1.09524817684138,0.0576577559720542,2.61611847956316,0.5,75.9028341173828
CBC_1020,CBC_1020_MSI_TV_v3_Vset1_Tset2_2023-06-28_15h03.37.595.csv,1,15,1,0,z,0,1,3,tac,A,63,1,1A,0A,0,1,z,2.6848113,0,1,1,1,0A,1A,A10,2.30258509299405,0.503238124726019,0.493544721451444,0.496761875273981,0.5,0.493544721451444,0.5,0.496761875273981,0.5,0.493544721451444,0.5,0.5,0.496761875273981,0.5,0.496761875273981,0.493544721451444,0.503238124726019,0.509692592857614,0.490307407142386,0.503238124726019,0.493544721451444,0.146089551435153,0.500779414770593,0.496761875273981,0.00321715382253674,0.5,0.00647624945203851,1.09524817684138,0.0576577559720542,2.61611847956316,0.5,75.9028341173828
CBC_1020,CBC_1020_MSI_TV_v3_Vset1_Tset2_2023-06-28_15h03.37.595.csv,1,16,3,1,z,0,1,0,tac,B,27,1,3B,1B,0,1,z,2.2661636,0,1,1,1,1B,3B,B31,3.43398720448515,0.506455278548556,0.493544721451444,0.496761875273981,0.5,0.493544721451444,0.5,0.496761875273981,0.5,0.493544721451444,0.5,0.5,0.496761875273981,0.5,0.496761875273981,0.493544721451444,0.503238124726019,0.5,0.5,0.5,0.5,0.196766385130032,0.500344044752702,0.5,0.00323812472601925,0.5,0.00647624945203851,1.09524817684138,0.0576577559720542,2.61611847956316,0.5,75.9028341173828
CBC_1020,CBC_1020_MSI_TV_v3_Vset1_Tset2_2023-06-28_15h03.37.595.csv,1,17,2,3,b,1,0,2,tac,C,63,1,2C,3C,1,0,b,2.0921553,1,0,1,1,2C,3C,C23,3.46573590279973,0.506455278548556,0.493544721451444,0.496761875273981,0.5,0.493544721451444,0.503238124726019,0.496761875273981,0.5,0.493544721451444,0.5,0.5,0.496761875273981,0.5,0.496761875273981,0.493544721451444,0.503238124726019,0.503238124726019,0.496761875273981,0.5,0.496761875273981,0.221376876146681,0.499578824549744,0.5,0.00323812472601925,0.5,0.00647624945203851,1.09524817684138,0.0576577559720542,2.61611847956316,0.5,75.9028341173828
CBC_1020,CBC_1020_MSI_TV_v3_Vset1_Tset2_2023-06-28_15h03.37.595.csv,1,18,3,2,b,1,0,1,tac,D,63,0,3D,2D,0,1,z,2.9812404,0,1,0,1,2D,3D,D32,2.11021320034659,0.506455278548556,0.493544721451444,0.496761875273981,0.5,0.493544721451444,0.503238124726019,0.496761875273981,0.5,0.493544721451444,0.5,0.503238124726019,0.496761875273981,0.5,0.496761875273981,0.493544721451444,0.503238124726019,0.490307407142386,0.509692592857614,0.493544721451444,0.503238124726019,0.117613034354134,0.49910921538641,0.506455278548556,0.0032799307201821,0.5,0.00647624945203851,1.09524817684138,0.0576577559720542,2.61611847956316,0.5,75.9028341173828
CBC_1020,CBC_1020_MSI_TV_v3_Vset1_Tset2_2023-06-28_15h03.37.595.csv,1,19,0,1,z,0,1,0,tac,B,63,1,0B,1B,0,1,b,2.7865486,1,0,0,0,0B,1B,B01,2.83321334405622,0.506455278548556,0.493544721451444,0.496761875273981,0.5,0.493544721451444,0.503238124726019,0.496761875273981,0.5,0.493544721451444,0.5,0.503238124726019,0.496761875273981,0.5,0.496761875273981,0.496824652171626,0.503238124726019,0.490307407142386,0.509692592857614,0.493544721451444,0.503238124726019,0.135189211174323,0.49861706889884,-0.493544721451444,-0.00319631873185641,0.5,0.00647624945203851,1.09524817684138,0.0576577559720542,2.61611847956316,0.5,75.9028341173828
CBC_1020,CBC_1020_MSI_TV_v3_Vset1_Tset2_2023-06-28_15h03.37.595.csv,1,20,0,2,b,1,0,3,tac,A,27,1,0A,2A,1,0,b,2.2604027,1,0,1,1,0A,2A,A02,3.55534806148941,0.506455278548556,0.493544721451444,0.496761875273981,0.5,0.490348402719588,0.503238124726019,0.496761875273981,0.5,0.493544721451444,0.5,0.503238124726019,0.496761875273981,0.5,0.496761875273981,0.496824652171626,0.503238124726019,0.509692592857614,0.490307407142386,0.506455278548556,0.496761875273981,0.197812503181861,0.500978257291439,0.493544721451444,0.00319631873185641,0.5,0.00647624945203851,1.09524817684138,0.0576577559720542,2.61611847956316,0.5,75.9028341173828
CBC_1020,CBC_1020_MSI_TV_v3_Vset1_Tset2_2023-06-28_15h03.37.595.csv,1,21,3,0,b,1,0,1,tac,D,9,1,3D,0D,1,0,z,2.7535366,0,1,0,0,0D,3D,D30,3.58351893845611,0.509651597280412,0.493544721451444,0.496761875273981,0.5,0.490348402719588,0.503238124726019,0.496761875273981,0.5,0.493544721451444,0.5,0.503238124726019,0.496761875273981,0.5,0.496761875273981,0.496824652171626,0.503238124726019,0.496761875273981,0.503238124726019,0.5,0.503238124726019,0.138841552693376,0.500061058076581,-0.5,-0.00323812472601925,0.5,0.00647624945203851,1.09524817684138,0.0576577559720542,2.61611847956316,0.5,75.9028341173828
CBC_1020,CBC_1020_MSI_TV_v3_Vset1_Tset2_2023-06-28_15h03.37.595.csv,1,22,3,2,z,0,1,2,tac,C,63,1,3C,2C,0,1,z,2.3989571,0,1,1,1,2C,3C,C32,2.91777073208428,0.509651597280412,0.493544721451444,0.496761875273981,0.5,0.490348402719588,0.503238124726019,0.496761875273981,0.5,0.493544721451444,0.5,0.503238124726019,0.496761875273981,0.496761875273981,0.496761875273981,0.496824652171626,0.503238124726019,0.506475977837826,0.493524022162174,0.503238124726019,0.496761875273981,0.179380365975117,0.501026295277061,0.496761875273981,0.00321715382253674,0.5,0.00647624945203851,1.09524817684138,0.0576577559720542,2.61611847956316,0.5,75.9028341173828
CBC_1020,CBC_1020_MSI_TV_v3_Vset1_Tset2_2023-06-28_15h03.37.595.csv,1,23,1,3,b,1,0,0,tac,B,27,1,1B,3B,1,0,z,2.8133422,0,1,0,0,3B,1B,B13,3.63758615972639,0.509651597280412,0.493544721451444,0.496761875273981,0.5,0.490348402719588,0.503238124726019,0.496761875273981,0.5,0.493544721451444,0.5,0.506455278548556,0.496761875273981,0.496761875273981,0.496761875273981,0.496824652171626,0.503238124726019,0.496761875273981,0.503238124726019,0.5,0.503238124726019,0.133108533879522,0.500507251817907,-0.5,-0.00323812472601925,0.5,0.00647624945203851,1.09524817684138,0.0576577559720542,2.61611847956316,0.5,75.9028341173828
CBC_1020,CBC_1020_MSI_TV_v3_Vset1_Tset2_2023-06-28_15h03.37.595.csv,1,24,2,3,b,1,0,2,tac,C,63,1,2C,3C,1,0,z,2.5034549,0,1,0,0,3C,2C,C23,2.9704144655697,0.509651597280412,0.493544721451444,0.496761875273981,0.5,0.490348402719588,0.503238124726019,0.496761875273981,0.496761875273981,0.493544721451444,0.5,0.506455278548556,0.496761875273981,0.496761875273981,0.496761875273981,0.496824652171626,0.503238124726019,0.490307407142386,0.509692592857614,0.496761875273981,0.506455278548556,0.165943604626674,0.499400148026426,-0.496761875273981,-0.00321715382253674,0.5,0.00647624945203851,1.09524817684138,0.0576577559720542,2.61611847956316,0.5,75.9028341173828
CBC_1020,CBC_1020_MSI_TV_v3_Vset1_Tset2_2023-06-28_15h03.37.595.csv,1,25,3,2,b,1,0,1,tac,D,63,1,3D,2D,1,0,b,2.1913114,1,0,1,1,3D,2D,D32,2.07944154167984,0.509651597280412,0.493544721451444,0.496761875273981,0.5,0.490348402719588,0.503238124726019,0.496761875273981,0.496761875273981,0.493544721451444,0.5,0.506455278548556,0.493544721451444,0.496761875273981,0.496761875273981,0.496824652171626,0.503238124726019,0.506413208787522,0.493586791212478,0.503238124726019,0.496824652171626,0.207127643855018,0.499966214359212,0.496761875273981,0.00321715382253674,0.5,0.00647624945203851,1.09524817684138,0.0576577559720542,2.61611847956316,0.5,75.9028341173828
CBC_1020,CBC_1020_MSI_TV_v3_Vset1_Tset2_2023-06-28_15h03.37.595.csv,1,26,0,1,z,0,1,0,tac,B,63,1,0B,1B,0,1,b,2.3808614,1,0,0,0,0B,1B,B01,2.6149597780362,0.509651597280412,0.493544721451444,0.496761875273981,0.5,0.490348402719588,0.503238124726019,0.496761875273981,0.496761875273981,0.493544721451444,0.5,0.506455278548556,0.493544721451444,0.496761875273981,0.496761875273981,0.496824652171626,0.506455278548556,0.487111889165988,0.512888110834012,0.490348402719588,0.503238124726019,0.18099762473515,0.49907965220412,-0.490348402719588,-0.00317561857442069,0.5,0.00647624945203851,1.09524817684138,0.0576577559720542,2.61611847956316,0.5,75.9028341173828
CBC_1020,CBC_1020_MSI_TV_v3_Vset1_Tset2_2023-06-28_15h03.37.595.csv,1,27,3,0,z,0,1,3,tac,A,9,1,3A,0A,0,1,z,3.2414928,0,1,1,1,0A,3A,A30,3.73766961828337,0.509651597280412,0.493544721451444,0.496761875273981,0.5,0.487172784145167,0.503238124726019,0.496761875273981,0.496761875273981,0.493544721451444,0.5,0.506455278548556,0.493544721451444,0.496761875273981,0.496761875273981,0.496824652171626,0.506455278548556,0.509651597280412,0.490348402719588,0.509651597280412,0.5,0.0978211705799301,0.500782948704762,0.490348402719588,0.00317561857442069,0.5,0.00647624945203851,1.09524817684138,0.0576577559720542,2.61611847956316,0.5,75.9028341173828
CBC_1020,CBC_1020_MSI_TV_v3_Vset1_Tset2_2023-06-28_15h03.37.595.csv,1,28,3,2,b,1,0,1,tac,D,63,1,3D,2D,1,0,z,5.2485082,0,1,0,0,2D,3D,D32,1.96944064646551,0.512827215854833,0.493544721451444,0.496761875273981,0.5,0.487172784145167,0.503238124726019,0.496761875273981,0.496761875273981,0.493544721451444,0.5,0.506455278548556,0.493544721451444,0.496761875273981,0.496761875273981,0.496824652171626,0.506455278548556,0.490370163183202,0.509629836816798,0.496824652171626,0.506455278548556,0.022977520849658,0.500025379794168,-0.496824652171626,-0.00321756038138572,0.5,0.00647624945203851,1.09524817684138,0.0576577559720542,2.61611847956316,0.5,75.9028341173828
CBC_1020,CBC_1020_MSI_TV_v3_Vset1_Tset2_2023-06-28_15h03.37.595.csv,1,29,0,2,z,0,1,2,tac,C,27,1,0C,2C,0,1,b,2.1981485,1,0,0,0,0C,2C,C02,2.68557734525015,0.512827215854833,0.493544721451444,0.496761875273981,0.5,0.487172784145167,0.503238124726019,0.496761875273981,0.496761875273981,0.493544721451444,0.5,0.506455278548556,0.493544721451444,0.496761875273981,0.496761875273981,0.49360709179024,0.506455278548556,0.487091594507987,0.512908405492013,0.493544721451444,0.506455278548556,0.205761484862484,0.499018220172326,-0.493544721451444,-0.00319631873185641,0.5,0.00647624945203851,1.09524817684138,0.0576577559720542,2.61611847956316,0.5,75.9028341173828
CBC_1020,CBC_1020_MSI_TV_v3_Vset1_Tset2_2023-06-28_15h03.37.595.csv,1,30,0,1,b,1,0,3,tac,A,63,1,0A,1A,1,0,b,2.6167332,1,0,1,1,0A,1A,A01,3.11351530921037,0.512827215854833,0.493544721451444,0.496761875273981,0.5,0.487172784145167,0.503238124726019,0.496761875273981,0.496761875273981,0.490348402719588,0.5,0.506455278548556,0.493544721451444,0.496761875273981,0.496761875273981,0.49360709179024,0.506455278548556,0.519276109905095,0.480723890094905,0.512827215854833,0.493544721451444,0.153729081720593,0.501799696235696,0.487172784145167,0.00315505247636821,0.5,0.00647624945203851,1.09524817684138,0.0576577559720542,2.61611847956316,0.5,75.9028341173828
CBC_1020,CBC_1020_MSI_TV_v3_Vset1_Tset2_2023-06-28_15h03.37.595.csv,1,31,0,1,z,0,1,0,tac,B,63,1,0B,1B,0,1,z,2.6932659,0,1,1,1,1B,0B,B01,2.4423470353692,0.515982268331201,0.493544721451444,0.496761875273981,0.5,0.487172784145167,0.503238124726019,0.496761875273981,0.496761875273981,0.490348402719588,0.5,0.506455278548556,0.493544721451444,0.496761875273981,0.496761875273981,0.49360709179024,0.506455278548556,0.516062671856279,0.483937328143721,0.503238124726019,0.487172784145167,0.145230952150325,0.50087286435622,0.496761875273981,0.00321715382253674,0.5,0.00647624945203851,1.09524817684138,0.0576577559720542,2.61611847956316,0.5,75.9028341173828
CBC_1020,CBC_1020_MSI_TV_v3_Vset1_Tset2_2023-06-28_15h03.37.595.csv,1,32,1,3,z,0,1,1,tac,D,27,1,1D,3D,0,1,z,2.7397511,0,1,1,1,3D,1D,D13,3.85014760171006,0.515982268331201,0.493544721451444,0.496761875273981,0.5,0.487172784145167,0.506455278548556,0.496761875273981,0.496761875273981,0.490348402719588,0.5,0.506455278548556,0.493544721451444,0.496761875273981,0.496761875273981,0.49360709179024,0.506455278548556,0.509692592857614,0.490307407142386,0.506455278548556,0.496761875273981,0.14041258521733,0.50072624484418,0.493544721451444,0.00319631873185641,0.5,0.00647624945203851,1.09524817684138,0.0576577559720542,2.61611847956316,0.5,75.9028341173828
CBC_1020,CBC_1020_MSI_TV_v3_Vset1_Tset2_2023-06-28_15h03.37.595.csv,1,33,2,3,b,1,0,2,tac,C,63,1,2C,3C,1,0,b,2.4170821,1,0,1,1,2C,3C,C23,2.77258872223978,0.515982268331201,0.493544721451444,0.496761875273981,0.5,0.487172784145167,0.506455278548556,0.496761875273981,0.496761875273981,0.490348402719588,0.5,0.506455278548556,0.493544721451444,0.496761875273981,0.496761875273981,0.49360709179024,0.509651597280412,0.512908405492013,0.487091594507987,0.506455278548556,0.493544721451444,0.177487732405273,0.502179163353635,0.493544721451444,0.00319631873185641,0.5,0.00647624945203851,1.09524817684138,0.0576577559720542,2.61611847956316,0.5,75.9028341173828
CBC_1020,CBC_1020_MSI_TV_v3_Vset1_Tset2_2023-06-28_15h03.37.595.csv,1,34,0,1,z,0,1,0,tac,B,63,1,0B,1B,0,1,b,2.5061704,1,0,0,0,0B,1B,B01,2.28238238567653,0.515982268331201,0.493544721451444,0.496761875273981,0.5,0.487172784145167,0.506455278548556,0.496761875273981,0.496761875273981,0.490348402719588,0.5,0.509651597280412,0.493544721451444,0.496761875273981,0.496761875273981,0.49360709179024,0.509651597280412,0.480723890094905,0.519276109905095,0.487172784145167,0.506455278548556,0.165430315492535,0.498824080103253,-0.487172784145167,-0.00315505247636821,0.5,0.00647624945203851,1.09524817684138,0.0576577559720542,2.61611847956316,0.5,75.9028341173828
CBC_1020,CBC_1020_MSI_TV_v3_Vset1_Tset2_2023-06-28_15h03.37.595.csv,1,35,1,0,z,0,1,3,tac,A,63,1,1A,0A,0,1,z,2.9891363,0,1,1,1,0A,1A,A10,2.52572864430826,0.515982268331201,0.493544721451444,0.496761875273981,0.5,0.484017731668799,0.506455278548556,0.496761875273981,0.496761875273981,0.490348402719588,0.5,0.509651597280412,0.493544721451444,0.496761875273981,0.496761875273981,0.49360709179024,0.509651597280412,0.522428291173102,0.477571708826898,0.515982268331201,0.493544721451444,0.117686777079931,0.502272782603563,0.484017731668799,0.00313461956949698,0.5,0.00647624945203851,1.09524817684138,0.0576577559720542,2.61611847956316,0.5,75.9028341173828
CBC_1020,CBC_1020_MSI_TV_v3_Vset1_Tset2_2023-06-28_15h03.37.595.csv,1,36,2,1,b,1,0,2,tac,C,9,1,2C,1C,1,0,b,2.6365461,1,0,1,1,2C,1C,C21,3.93182563272433,0.519116887900698,0.493544721451444,0.496761875273981,0.5,0.484017731668799,0.506455278548556,0.496761875273981,0.496761875273981,0.490348402719588,0.5,0.509651597280412,0.493544721451444,0.496761875273981,0.496761875273981,0.49360709179024,0.509651597280412,0.509651597280412,0.490348402719588,0.509651597280412,0.5,0.15120703628292,0.500644134730647,0.490348402719588,0.00317561857442069,0.5,0.00647624945203851,1.09524817684138,0.0576577559720542,2.61611847956316,0.5,75.9028341173828
CBC_1020,CBC_1020_MSI_TV_v3_Vset1_Tset2_2023-06-28_15h03.37.595.csv,1,37,0,1,b,1,0,3,tac,A,63,1,0A,1A,1,0,z,3.0163799,0,1,0,0,1A,0A,A01,2.85263142991332,0.519116887900698,0.493544721451444,0.496761875273981,0.5,0.484017731668799,0.506455278548556,0.496761875273981,0.496761875273981,0.490348402719588,0.5,0.512827215854833,0.493544721451444,0.496761875273981,0.496761875273981,0.49360709179024,0.509651597280412,0.474440450238971,0.525559549761029,0.493544721451444,0.519116887900698,0.114558492390829,0.498616506162809,-0.493544721451444,-0.00319631873185641,0.5,0.00647624945203851,1.09524817684138,0.0576577559720542,2.61611847956316,0.5,75.9028341173828
CBC_1020,CBC_1020_MSI_TV_v3_Vset1_Tset2_2023-06-28_15h03.37.595.csv,1,38,1,3,z,0,1,1,tac,D,27,1,1D,3D,0,1,b,2.395396,1,0,0,0,1D,3D,D13,3.27714473299218,0.519116887900698,0.490348402719588,0.496761875273981,0.5,0.484017731668799,0.506455278548556,0.496761875273981,0.496761875273981,0.490348402719588,0.5,0.512827215854833,0.493544721451444,0.496761875273981,0.496761875273981,0.49360709179024,0.509651597280412,0.487111889165988,0.512888110834012,0.496761875273981,0.509651597280412,0.179217231824125,0.499304007825152,-0.496761875273981,-0.00321715382253674,0.5,0.00647624945203851,1.09524817684138,0.0576577559720542,2.61611847956316,0.5,75.9028341173828
CBC_1020,CBC_1020_MSI_TV_v3_Vset1_Tset2_2023-06-28_15h03.37.595.csv,1,39,1,0,b,1,0,0,tac,B,63,1,1B,0B,1,0,z,5.0395888,0,1,0,0,0B,1B,B10,3.29583686600433,0.519116887900698,0.490348402719588,0.496761875273981,0.5,0.484017731668799,0.506455278548556,0.496761875273981,0.496761875273981,0.490348402719588,0.5,0.512827215854833,0.493544721451444,0.496761875273981,0.493544721451444,0.49360709179024,0.509651597280412,0.477571708826898,0.522428291173102,0.484017731668799,0.506455278548556,0.0265729864819718,0.4974113797858,-0.484017731668799,-0.00313461956949698,0.5,0.00647624945203851,1.09524817684138,0.0576577559720542,2.61611847956316,0.5,75.9028341173828
CBC_1020,CBC_1020_MSI_TV_v3_Vset1_Tset2_2023-06-28_15h03.37.595.csv,1,40,3,2,z,0,1,2,tac,C,63,0,3C,2C,1,0,z,2.3043229,0,1,1,0,2C,3C,C32,2.90872089656436,0.519116887900698,0.490348402719588,0.496761875273981,0.5,0.480883112099302,0.506455278548556,0.496761875273981,0.496761875273981,0.490348402719588,0.5,0.512827215854833,0.493544721451444,0.496761875273981,0.493544721451444,0.49360709179024,0.509651597280412,0.519276109905095,0.480723890094905,0.512827215854833,0.493544721451444,0.191822934422355,0.501032896174309,-0.512827215854833,-0.0033211969756703,0.5,0.00647624945203851,1.09524817684138,0.0576577559720542,2.61611847956316,0.5,75.9028341173828
CBC_1020,CBC_1020_MSI_TV_v3_Vset1_Tset2_2023-06-28_15h03.37.595.csv,1,41,0,2,b,1,0,3,tac,A,27,1,0A,2A,1,0,b,3.1360277,1,0,1,1,0A,2A,A02,3.3322045101752,0.519116887900698,0.490348402719588,0.496761875273981,0.5,0.480883112099302,0.506455278548556,0.496761875273981,0.496761875273981,0.490348402719588,0.5,0.509506018879163,0.493544721451444,0.496761875273981,0.493544721451444,0.49360709179024,0.509651597280412,0.522349478639467,0.477650521360533,0.519116887900698,0.496761875273981,0.10588138349889,0.502361412043462,0.480883112099302,0.00311431899122767,0.5,0.00647624945203851,1.09524817684138,0.0576577559720542,2.61611847956316,0.5,75.9028341173828
CBC_1020,CBC_1020_MSI_TV_v3_Vset1_Tset2_2023-06-28_15h03.37.595.csv,1,42,2,3,z,0,1,1,tac,D,63,1,2D,3D,0,1,b,2.4660096,1,0,0,0,2D,3D,D23,4.04305126783455,0.522231206891926,0.490348402719588,0.496761875273981,0.5,0.480883112099302,0.506455278548556,0.496761875273981,0.496761875273981,0.490348402719588,0.5,0.509506018879163,0.493544721451444,0.496761875273981,0.493544721451444,0.49360709179024,0.509651597280412,0.483959453430641,0.516040546569359,0.49360709179024,0.509651597280412,0.169792720594207,0.497477922655666,-0.49360709179024,-0.00319672265772887,0.5,0.00647624945203851,1.09524817684138,0.0576577559720542,2.61611847956316,0.5,75.9028341173828
CBC_1020,CBC_1020_MSI_TV_v3_Vset1_Tset2_2023-06-28_15h03.37.595.csv,1,43,1,3,b,1,0,0,tac,B,27,1,1B,3B,1,0,z,2.5781926,0,1,0,0,3B,1B,B13,3.36729582998647,0.522231206891926,0.490348402719588,0.496761875273981,0.5,0.480883112099302,0.506455278548556,0.496761875273981,0.496761875273981,0.490348402719588,0.5,0.509506018879163,0.493544721451444,0.496761875273981,0.493544721451444,0.490410369132512,0.509651597280412,0.490307407142386,0.509692592857614,0.496761875273981,0.506455278548556,0.157327635974167,0.49952948941959,-0.496761875273981,-0.00321715382253674,0.5,0.00647624945203851,1.09524817684138,0.0576577559720542,2.61611847956316,0.5,75.9028341173828
CBC_1020,CBC_1020_MSI_TV_v3_Vset1_Tset2_2023-06-28_15h03.37.595.csv,1,44,3,2,z,0,1,2,tac,C,63,1,3C,2C,0,1,b,2.5147781,1,0,0,0,3C,2C,C32,2.69124308278583,0.522231206891926,0.490348402719588,0.496761875273981,0.5,0.480883112099302,0.506455278548556,0.496761875273981,0.493544721451444,0.490348402719588,0.5,0.509506018879163,0.493544721451444,0.496761875273981,0.493544721451444,0.490410369132512,0.509651597280412,0.484042619407076,0.515957380592924,0.493544721451444,0.509506018879163,0.16428878378266,0.498444779463238,-0.493544721451444,-0.00319631873185641,0.5,0.00647624945203851,1.09524817684138,0.0576577559720542,2.61611847956316,0.5,75.9028341173828
CBC_1020,CBC_1020_MSI_AV_v3_Vset6_Aset1_2023-06-28_15h13.22.031.csv,2,1,1,0,b,1,0,0,aud,B,63,1,1B,0B,1,0,b,1.65884180000012,1,0,1,1,1B,0B,B10,2.77258872223978,0.5,0.5,0.5,0.5,0.5,0.5,0.5,0.5,0.5,0.5,0.5,0.5,0.5,0.5,0.5,0.5,0.5,0.5,0.5,0.5,0.251154645841956,0.499146828688407,0.5,0.196672502505779,0.5,0.393345005011558,0.745588925242355,1.64965547218555,2.32345227904044,0.5,39.7872562211878
CBC_1020,CBC_1020_MSI_AV_v3_Vset6_Aset1_2023-06-28_15h13.22.031.csv,2,2,1,0,z,0,1,3,aud,A,63,1,1A,0A,0,1,z,1.15710579999995,0,1,1,1,0A,1A,A10,2.83321334405622,0.5,0.5,0.5,0.5,0.5,0.696672502505779,0.5,0.5,0.5,0.5,0.5,0.5,0.5,0.5,0.5,0.5,0.5,0.5,0.5,0.5,0.341146631639278,0.500766703619718,0.5,0.196672502505779,0.5,0.393345005011558,0.745588925242355,1.64965547218555,2.32345227904044,0.5,39.7872562211878
CBC_1020,CBC_1020_MSI_AV_v3_Vset6_Aset1_2023-06-28_15h13.22.031.csv,2,3,3,2,b,1,0,1,aud,D,63,1,3D,2D,1,0,b,1.8037675000005,1,0,1,1,3D,2D,D32,2.89037175789616,0.696672502505779,0.5,0.5,0.5,0.5,0.696672502505779,0.5,0.5,0.5,0.5,0.5,0.5,0.5,0.5,0.5,0.5,0.5,0.5,0.5,0.5,0.220747912955918,0.499626443498384,0.5,0.196672502505779,0.5,0.393345005011558,0.745588925242355,1.64965547218555,2.32345227904044,0.5,39.7872562211878
CBC_1020,CBC_1020_MSI_AV_v3_Vset6_Aset1_2023-06-28_15h13.22.031.csv,2,4,1,2,b,1,0,0,aud,B,9,1,1B,2B,1,0,b,1.3017721999995,1,0,1,1,1B,2B,B12,2.94443897916644,0.696672502505779,0.5,0.5,0.5,0.5,0.696672502505779,0.5,0.5,0.5,0.5,0.5,0.5,0.5,0.5,0.5,0.696672502505779,0.696672502505779,0.303327497494221,0.696672502505779,0.5,0.627541208788627,0.818636750744421,0.303327497494221,0.119312356022008,0.5,0.393345005011558,0.745588925242355,1.64965547218555,2.32345227904044,0.5,39.7872562211878
CBC_1020,CBC_1020_MSI_AV_v3_Vset6_Aset1_2023-06-28_15h13.22.031.csv,2,5,2,0,z,0,1,3,aud,A,27,1,2A,0A,0,1,z,2.26319260000037,0,1,1,1,0A,2A,A20,2.99573227355399,0.696672502505779,0.5,0.5,0.5,0.5,0.815984858527787,0.5,0.5,0.5,0.5,0.5,0.5,0.5,0.5,0.5,0.696672502505779,0.696672502505779,0.303327497494221,0.696672502505779,0.5,0.224299386206229,0.817915226984795,0.303327497494221,0.119312356022008,0.5,0.393345005011558,0.745588925242355,1.64965547218555,2.32345227904044,0.5,39.7872562211878
CBC_1020,CBC_1020_MSI_AV_v3_Vset6_Aset1_2023-06-28_15h13.22.031.csv,2,6,3,2,z,0,1,2,aud,C,63,1,3C,2C,0,1,z,2.27805660000013,0,1,1,1,2C,3C,C32,3.04452243772342,0.815984858527787,0.5,0.5,0.5,0.5,0.815984858527787,0.5,0.5,0.5,0.5,0.5,0.5,0.5,0.5,0.5,0.696672502505779,0.5,0.5,0.5,0.5,0.143191557127688,0.499352146780363,0.5,0.196672502505779,0.5,0.393345005011558,0.745588925242355,1.64965547218555,2.32345227904044,0.5,39.7872562211878
CBC_1020,CBC_1020_MSI_AV_v3_Vset6_Aset1_2023-06-28_15h13.22.031.csv,2,7,3,1,b,1,0,1,aud,D,27,1,3D,1D,1,0,b,1.46785999999975,1,0,1,1,3D,1D,D31,3.09104245335832,0.815984858527787,0.5,0.5,0.5,0.5,0.815984858527787,0.5,0.5,0.5,0.5,0.696672502505779,0.5,0.5,0.5,0.5,0.696672502505779,0.696672502505779,0.303327497494221,0.696672502505779,0.5,0.540165258155612,0.818381664986503,0.303327497494221,0.119312356022008,0.5,0.393345005011558,0.745588925242355,1.64965547218555,2.32345227904044,0.5,39.7872562211878
CBC_1020,CBC_1020_MSI_AV_v3_Vset6_Aset1_2023-06-28_15h13.22.031.csv,2,8,0,1,b,1,0,3,aud,A,63,1,0A,1A,1,0,b,1.82522979999976,1,0,1,1,0A,1A,A01,3.13549421592915,0.815984858527787,0.5,0.5,0.5,0.5,0.815984858527787,0.5,0.5,0.5,0.5,0.696672502505779,0.5,0.5,0.5,0.5,0.815984858527787,0.815984858527787,0.184015141472213,0.815984858527787,0.5,0.404554071132783,0.918632454145207,0.184015141472213,0.0723814367445903,0.5,0.393345005011558,0.745588925242355,1.64965547218555,2.32345227904044,0.5,39.7872562211878
CBC_1020,CBC_1020_MSI_AV_v3_Vset6_Aset1_2023-06-28_15h13.22.031.csv,2,9,0,2,z,0,1,2,aud,C,27,1,0C,2C,0,1,z,1.61318829999982,0,1,1,1,2C,0C,C02,3.17805383034795,0.888366295272377,0.5,0.5,0.5,0.5,0.815984858527787,0.5,0.5,0.5,0.5,0.696672502505779,0.5,0.5,0.5,0.5,0.815984858527787,0.696672502505779,0.303327497494221,0.696672502505779,0.5,0.463514452796661,0.81851517483678,0.303327497494221,0.119312356022008,0.5,0.393345005011558,0.745588925242355,1.64965547218555,2.32345227904044,0.5,39.7872562211878
CBC_1020,CBC_1020_MSI_AV_v3_Vset6_Aset1_2023-06-28_15h13.22.031.csv,2,10,3,2,b,1,0,1,aud,D,63,1,3D,2D,1,0,b,1.19458780000059,1,0,1,1,3D,2D,D32,2.52572864430826,0.888366295272377,0.5,0.5,0.5,0.5,0.815984858527787,0.5,0.5,0.5,0.5,0.815984858527787,0.5,0.5,0.5,0.5,0.815984858527787,0.815984858527787,0.184015141472213,0.815984858527787,0.5,0.902892725105612,0.918902869034656,0.184015141472213,0.0723814367445903,0.5,0.393345005011558,0.745588925242355,1.64965547218555,2.32345227904044,0.5,39.7872562211878
CBC_1020,CBC_1020_MSI_AV_v3_Vset6_Aset1_2023-06-28_15h13.22.031.csv,2,11,0,1,z,0,1,0,aud,B,63,0,0B,1B,1,0,z,1.17611959999977,0,1,1,0,1B,0B,B01,3.25809653802148,0.888366295272377,0.5,0.5,0.5,0.5,0.815984858527787,0.5,0.5,0.5,0.5,0.815984858527787,0.5,0.5,0.5,0.5,0.888366295272377,0.815984858527787,0.184015141472213,0.815984858527787,0.5,0.909322462355983,0.918531537080275,-0.815984858527787,-0.320963568266968,0.5,0.393345005011558,0.745588925242355,1.64965547218555,2.32345227904044,0.5,39.7872562211878
CBC_1020,CBC_1020_MSI_AV_v3_Vset6_Aset1_2023-06-28_15h13.22.031.csv,2,12,1,0,z,0,1,3,aud,A,63,1,1A,0A,0,1,z,2.74980460000097,0,1,1,1,0A,1A,A10,2.60268968544438,0.888366295272377,0.5,0.5,0.5,0.5,0.495021290260819,0.5,0.5,0.5,0.5,0.815984858527787,0.5,0.5,0.5,0.5,0.888366295272377,0.888366295272377,0.111633704727623,0.888366295272377,0.5,0.0797378578530428,0.951439848914325,0.111633704727623,0.0439105601455457,0.5,0.393345005011558,0.745588925242355,1.64965547218555,2.32345227904044,0.5,39.7872562211878
CBC_1020,CBC_1020_MSI_AV_v3_Vset6_Aset1_2023-06-28_15h13.22.031.csv,2,13,3,2,b,1,0,1,aud,D,63,1,3D,2D,1,0,b,1.17356070000005,1,0,1,1,3D,2D,D32,2.23359222150709,0.932276855417923,0.5,0.5,0.5,0.5,0.495021290260819,0.5,0.5,0.5,0.5,0.815984858527787,0.5,0.5,0.5,0.5,0.888366295272377,0.888366295272377,0.111633704727623,0.888366295272377,0.5,1.0659324972082,0.951417628870242,0.111633704727623,0.0439105601455457,0.5,0.393345005011558,0.745588925242355,1.64965547218555,2.32345227904044,0.5,39.7872562211878
CBC_1020,CBC_1020_MSI_AV_v3_Vset6_Aset1_2023-06-28_15h13.22.031.csv,2,14,0,2,z,0,1,2,aud,C,27,1,0C,2C,0,1,z,2.44979680000051,0,1,1,1,2C,0C,C02,2.67414864942653,0.932276855417923,0.5,0.5,0.5,0.5,0.495021290260819,0.5,0.5,0.5,0.5,0.815984858527787,0.5,0.5,0.5,0.5,0.932276855417923,0.815984858527787,0.184015141472213,0.815984858527787,0.5,0.162967933119772,0.918502366940431,0.184015141472213,0.0723814367445903,0.5,0.393345005011558,0.745588925242355,1.64965547218555,2.32345227904044,0.5,39.7872562211878
CBC_1020,CBC_1020_MSI_AV_v3_Vset6_Aset1_2023-06-28_15h13.22.031.csv,2,15,1,0,z,0,1,3,aud,A,63,1,1A,0A,0,1,z,1.93295500000022,0,1,1,1,0A,1A,A10,2.30258509299405,0.932276855417923,0.5,0.5,0.5,0.5,0.495021290260819,0.5,0.5,0.5,0.5,0.888366295272377,0.5,0.5,0.5,0.5,0.932276855417923,0.932276855417923,0.0677231445820774,0.932276855417923,0.5,0.30801791976214,0.964835718213437,0.0677231445820774,0.0266385606450357,0.5,0.393345005011558,0.745588925242355,1.64965547218555,2.32345227904044,0.5,39.7872562211878
CBC_1020,CBC_1020_MSI_AV_v3_Vset6_Aset1_2023-06-28_15h13.22.031.csv,2,16,3,1,z,0,1,0,aud,B,27,1,3B,1B,0,1,z,2.38832210000055,0,1,1,1,1B,3B,B31,3.43398720448515,0.958915416062958,0.5,0.5,0.5,0.5,0.495021290260819,0.5,0.5,0.5,0.5,0.888366295272377,0.5,0.5,0.5,0.5,0.932276855417923,0.495021290260819,0.504978709739181,0.495021290260819,0.5,0.127316982700269,0.491084255450232,0.504978709739181,0.198630853113088,0.5,0.393345005011558,0.745588925242355,1.64965547218555,2.32345227904044,0.5,39.7872562211878
CBC_1020,CBC_1020_MSI_AV_v3_Vset6_Aset1_2023-06-28_15h13.22.031.csv,2,17,2,3,b,1,0,2,aud,C,63,1,2C,3C,1,0,b,1.18558969999958,1,0,1,1,2C,3C,C23,3.46573590279973,0.958915416062958,0.5,0.5,0.5,0.5,0.693652143373907,0.5,0.5,0.5,0.5,0.888366295272377,0.5,0.5,0.5,0.5,0.932276855417923,0.888366295272377,0.111633704727623,0.888366295272377,0.5,1.05784371681335,0.951546405286643,0.111633704727623,0.0439105601455457,0.5,0.393345005011558,0.745588925242355,1.64965547218555,2.32345227904044,0.5,39.7872562211878
CBC_1020,CBC_1020_MSI_AV_v3_Vset6_Aset1_2023-06-28_15h13.22.031.csv,2,18,3,2,b,1,0,1,aud,D,63,0,3D,2D,0,1,b,0.91600710000057,1,0,1,0,3D,2D,D32,2.11021320034659,0.958915416062958,0.5,0.5,0.5,0.5,0.693652143373907,0.5,0.5,0.5,0.5,0.932276855417923,0.5,0.5,0.5,0.5,0.932276855417923,0.932276855417923,0.0677231445820774,0.932276855417923,0.5,0.553138689535611,0.96479266866523,-0.932276855417923,-0.366706444366522,0.5,0.393345005011558,0.745588925242355,1.64965547218555,2.32345227904044,0.5,39.7872562211878
CBC_1020,CBC_1020_MSI_AV_v3_Vset6_Aset1_2023-06-28_15h13.22.031.csv,2,19,0,1,z,0,1,0,aud,B,63,1,0B,1B,0,1,z,1.19904899999983,0,1,1,1,1B,0B,B01,2.83321334405622,0.958915416062958,0.5,0.5,0.5,0.5,0.693652143373907,0.5,0.5,0.5,0.5,0.932276855417923,0.5,0.5,0.5,0.5,0.5655704110514,0.693652143373907,0.306347856626093,0.693652143373907,0.5,0.655573076305614,0.814834309876408,0.306347856626093,0.120500399199871,0.5,0.393345005011558,0.745588925242355,1.64965547218555,2.32345227904044,0.5,39.7872562211878
CBC_1020,CBC_1020_MSI_AV_v3_Vset6_Aset1_2023-06-28_15h13.22.031.csv,2,20,0,2,b,1,0,3,aud,A,27,1,0A,2A,1,0,b,2.20809840000038,1,0,1,1,0A,2A,A02,3.55534806148941,0.958915416062958,0.5,0.5,0.5,0.5,0.814152542573778,0.5,0.5,0.5,0.5,0.932276855417923,0.5,0.5,0.5,0.5,0.5655704110514,0.958915416062958,0.0410845839370417,0.958915416062958,0.5,0.166101460926795,0.971155139192864,0.0410845839370417,0.0161604158746135,0.5,0.393345005011558,0.745588925242355,1.64965547218555,2.32345227904044,0.5,39.7872562211878
CBC_1020,CBC_1020_MSI_AV_v3_Vset6_Aset1_2023-06-28_15h13.22.031.csv,2,21,3,0,b,1,0,1,aud,D,9,1,3D,0D,1,0,b,0.977388600000268,1,0,1,1,3D,0D,D30,3.58351893845611,0.975075831937572,0.5,0.5,0.5,0.5,0.814152542573778,0.5,0.5,0.5,0.5,0.932276855417923,0.5,0.5,0.5,0.5,0.5655704110514,0.5655704110514,0.4344295889486,0.5655704110514,0.5,0.289416656073563,0.623852975627458,0.4344295889486,0.170880708842156,0.5,0.393345005011558,0.745588925242355,1.64965547218555,2.32345227904044,0.5,39.7872562211878
CBC_1020,CBC_1020_MSI_AV_v3_Vset6_Aset1_2023-06-28_15h13.22.031.csv,2,22,3,2,z,0,1,2,aud,C,63,1,3C,2C,0,1,b,0.900776500000575,1,0,0,0,3C,2C,C32,2.91777073208428,0.975075831937572,0.5,0.5,0.5,0.5,0.814152542573778,0.5,0.5,0.5,0.5,0.932276855417923,0.5,0.5,0.5,0.5,0.736451119893556,0.0677231445820774,0.932276855417923,0.5,0.932276855417923,0.015968654362658,0.0351162639124475,-0.5,-0.196672502505779,0.5,0.393345005011558,0.745588925242355,1.64965547218555,2.32345227904044,0.5,39.7872562211878
CBC_1020,CBC_1020_MSI_AV_v3_Vset6_Aset1_2023-06-28_15h13.22.031.csv,2,23,1,3,b,1,0,0,aud,B,27,1,1B,3B,1,0,b,1.28872809999939,1,0,1,1,1B,3B,B13,3.63758615972639,0.975075831937572,0.5,0.5,0.5,0.5,0.814152542573778,0.5,0.5,0.5,0.5,0.932276855417923,0.303327497494221,0.5,0.5,0.5,0.736451119893556,0.814152542573778,0.185847457426222,0.814152542573778,0.5,0.832036595230691,0.917382548451832,0.185847457426222,0.0731021690727027,0.5,0.393345005011558,0.745588925242355,1.64965547218555,2.32345227904044,0.5,39.7872562211878
CBC_1020,CBC_1020_MSI_AV_v3_Vset6_Aset1_2023-06-28_15h13.22.031.csv,2,24,2,3,b,1,0,2,aud,C,63,1,2C,3C,1,0,b,1.43601000000035,1,0,1,1,2C,3C,C23,2.9704144655697,0.975075831937572,0.5,0.5,0.5,0.5,0.887254711646481,0.5,0.5,0.5,0.5,0.932276855417923,0.303327497494221,0.5,0.5,0.5,0.736451119893556,0.969341415881898,0.0306585841181017,0.932276855417923,0.303327497494221,0.801896154374669,0.97334299595047,0.0677231445820774,0.0266385606450357,0.5,0.393345005011558,0.745588925242355,1.64965547218555,2.32345227904044,0.5,39.7872562211878
CBC_1020,CBC_1020_MSI_AV_v3_Vset6_Aset1_2023-06-28_15h13.22.031.csv,2,25,3,2,b,1,0,1,aud,D,63,1,3D,2D,1,0,b,1.42796590000034,1,0,1,1,3D,2D,D32,2.07944154167984,0.975075831937572,0.5,0.5,0.5,0.5,0.887254711646481,0.5,0.5,0.5,0.5,0.958915416062958,0.303327497494221,0.5,0.5,0.5,0.736451119893556,0.736451119893556,0.263548880106444,0.736451119893556,0.5,0.614773100760406,0.859952601511393,0.263548880106444,0.10366563556626,0.5,0.393345005011558,0.745588925242355,1.64965547218555,2.32345227904044,0.5,39.7872562211878
CBC_1020,CBC_1020_MSI_AV_v3_Vset6_Aset1_2023-06-28_15h13.22.031.csv,2,26,0,1,z,0,1,0,aud,B,63,1,0B,1B,0,1,z,1.39454650000062,0,1,1,1,1B,0B,B01,2.6149597780362,0.975075831937572,0.5,0.5,0.5,0.5,0.887254711646481,0.5,0.5,0.5,0.5,0.958915416062958,0.303327497494221,0.5,0.5,0.5,0.840116755459816,0.887254711646481,0.112745288353519,0.887254711646481,0.5,0.813581878919837,0.951164741299731,0.112745288353519,0.0443477960124447,0.5,0.393345005011558,0.745588925242355,1.64965547218555,2.32345227904044,0.5,39.7872562211878
CBC_1020,CBC_1020_MSI_AV_v3_Vset6_Aset1_2023-06-28_15h13.22.031.csv,2,27,3,0,z,0,1,3,aud,A,9,1,3A,0A,0,1,z,2.65257299999939,0,1,1,1,0A,3A,A30,3.73766961828337,0.975075831937572,0.5,0.5,0.5,0.5,0.931602507658925,0.5,0.5,0.5,0.5,0.958915416062958,0.303327497494221,0.5,0.5,0.5,0.840116755459816,0.975075831937572,0.0249241680624283,0.975075831937572,0.5,0.0604765318358224,0.974441846256064,0.0249241680624283,0.00980379701142475,0.5,0.393345005011558,0.745588925242355,1.64965547218555,2.32345227904044,0.5,39.7872562211878
CBC_1020,CBC_1020_MSI_AV_v3_Vset6_Aset1_2023-06-28_15h13.22.031.csv,2,28,3,2,b,1,0,1,aud,D,63,1,3D,2D,1,0,b,0.984161100000165,1,0,1,1,3D,2D,D32,1.96944064646551,0.984879628948996,0.5,0.5,0.5,0.5,0.931602507658925,0.5,0.5,0.5,0.5,0.958915416062958,0.303327497494221,0.5,0.5,0.5,0.840116755459816,0.840116755459816,0.159883244540184,0.840116755459816,0.5,0.744846719604245,0.931313574922731,0.159883244540184,0.0628892756249229,0.5,0.393345005011558,0.745588925242355,1.64965547218555,2.32345227904044,0.5,39.7872562211878
CBC_1020,CBC_1020_MSI_AV_v3_Vset6_Aset1_2023-06-28_15h13.22.031.csv,2,29,0,2,z,0,1,2,aud,C,27,1,0C,2C,0,1,z,1.25571850000051,0,1,1,1,2C,0C,C02,2.68557734525015,0.984879628948996,0.5,0.5,0.5,0.5,0.931602507658925,0.5,0.5,0.5,0.5,0.958915416062958,0.303327497494221,0.5,0.5,0.5,0.903006031084739,0.958915416062958,0.0410845839370417,0.958915416062958,0.5,1.09637097749184,0.971202636846172,0.0410845839370417,0.0161604158746135,0.5,0.393345005011558,0.745588925242355,1.64965547218555,2.32345227904044,0.5,39.7872562211878
CBC_1020,CBC_1020_MSI_AV_v3_Vset6_Aset1_2023-06-28_15h13.22.031.csv,2,30,0,1,b,1,0,3,aud,A,63,0,0A,1A,0,1,b,2.00295930000084,1,0,1,0,0A,1A,A01,3.11351530921037,0.984879628948996,0.5,0.5,0.5,0.5,0.931602507658925,0.5,0.5,0.5,0.5,0.975075831937572,0.303327497494221,0.5,0.5,0.5,0.903006031084739,0.984879628948996,0.0151203710510035,0.984879628948996,0.5,0.236362665271052,0.97632309113417,-0.984879628948996,-0.387397482584724,0.5,0.393345005011558,0.745588925242355,1.64965547218555,2.32345227904044,0.5,39.7872562211878
CBC_1020,CBC_1020_MSI_AV_v3_Vset6_Aset1_2023-06-28_15h13.22.031.csv,2,31,0,1,z,0,1,0,aud,B,63,1,0B,1B,0,1,z,1.2736689000003,0,1,1,1,1B,0B,B01,2.4423470353692,0.597482146364272,0.5,0.5,0.5,0.5,0.931602507658925,0.5,0.5,0.5,0.5,0.975075831937572,0.303327497494221,0.5,0.5,0.5,0.903006031084739,0.931602507658925,0.0683974923410748,0.931602507658925,0.5,1.03008065839684,0.964717954951887,0.0683974923410748,0.0269038119676781,0.5,0.393345005011558,0.745588925242355,1.64965547218555,2.32345227904044,0.5,39.7872562211878
CBC_1020,CBC_1020_MSI_AV_v3_Vset6_Aset1_2023-06-28_15h13.22.031.csv,2,32,1,3,z,0,1,1,aud,D,27,1,1D,3D,0,1,z,1.64733939999951,0,1,1,1,3D,1D,D13,3.85014760171006,0.597482146364272,0.5,0.5,0.5,0.5,0.958506319626603,0.5,0.5,0.5,0.5,0.975075831937572,0.303327497494221,0.5,0.5,0.5,0.903006031084739,0.903006031084739,0.0969939689152612,0.903006031084739,0.5,0.536674683248519,0.956756287869257,0.0969939689152612,0.0381520931890643,0.5,0.393345005011558,0.745588925242355,1.64965547218555,2.32345227904044,0.5,39.7872562211878
CBC_1020,CBC_1020_MSI_AV_v3_Vset6_Aset1_2023-06-28_15h13.22.031.csv,2,33,2,3,b,1,0,2,aud,C,63,1,2C,3C,1,0,b,2.04177889999937,1,0,1,1,2C,3C,C23,2.77258872223978,0.597482146364272,0.5,0.5,0.5,0.5,0.958506319626603,0.5,0.5,0.5,0.5,0.975075831937572,0.303327497494221,0.5,0.5,0.5,0.941158124273803,0.988993259606928,0.0110067403930719,0.975075831937572,0.303327497494221,0.214446432076918,0.97702145298628,0.0249241680624283,0.00980379701142475,0.5,0.393345005011558,0.745588925242355,1.64965547218555,2.32345227904044,0.5,39.7872562211878
CBC_1020,CBC_1020_MSI_AV_v3_Vset6_Aset1_2023-06-28_15h13.22.031.csv,2,34,0,1,z,0,1,0,aud,B,63,1,0B,1B,0,1,z,1.39353029999984,0,1,1,1,1B,0B,B01,2.28238238567653,0.597482146364272,0.5,0.5,0.5,0.5,0.958506319626603,0.5,0.5,0.5,0.5,0.984879628948996,0.303327497494221,0.5,0.5,0.5,0.941158124273803,0.958506319626603,0.0414936803733967,0.958506319626603,0.5,0.865546629405619,0.971056866421807,0.0414936803733967,0.0163213319144217,0.5,0.393345005011558,0.745588925242355,1.64965547218555,2.32345227904044,0.5,39.7872562211878
CBC_1020,CBC_1020_MSI_AV_v3_Vset6_Aset1_2023-06-28_15h13.22.031.csv,2,35,1,0,z,0,1,3,aud,A,63,1,1A,0A,0,1,z,2.74313630000051,0,1,1,1,0A,1A,A10,2.52572864430826,0.597482146364272,0.5,0.5,0.5,0.5,0.974827651541025,0.5,0.5,0.5,0.5,0.984879628948996,0.303327497494221,0.5,0.5,0.5,0.941158124273803,0.597482146364272,0.402517853635728,0.597482146364272,0.5,0.122981592099496,0.67988753479402,0.402517853635728,0.158328387155587,0.5,0.393345005011558,0.745588925242355,1.64965547218555,2.32345227904044,0.5,39.7872562211878
CBC_1020,CBC_1020_MSI_AV_v3_Vset6_Aset1_2023-06-28_15h13.22.031.csv,2,36,2,1,b,1,0,2,aud,C,9,1,2C,1C,1,0,b,1.58966210000017,1,0,1,1,2C,1C,C21,3.93182563272433,0.755810533519859,0.5,0.5,0.5,0.5,0.974827651541025,0.5,0.5,0.5,0.5,0.984879628948996,0.303327497494221,0.5,0.5,0.5,0.941158124273803,0.984879628948996,0.0151203710510035,0.984879628948996,0.5,0.582491995139497,0.976153029712582,0.0151203710510035,0.00594752242683359,0.5,0.393345005011558,0.745588925242355,1.64965547218555,2.32345227904044,0.5,39.7872562211878
CBC_1020,CBC_1020_MSI_AV_v3_Vset6_Aset1_2023-06-28_15h13.22.031.csv,2,37,0,1,b,1,0,3,aud,A,63,1,0A,1A,1,0,b,3.49203209999996,1,0,1,1,0A,1A,A01,2.85263142991332,0.755810533519859,0.5,0.5,0.5,0.5,0.974827651541025,0.5,0.5,0.5,0.5,0.99082715137583,0.303327497494221,0.5,0.5,0.5,0.941158124273803,0.755810533519859,0.244189466480141,0.755810533519859,0.5,0.047243177453737,0.877245314069942,0.244189466480141,0.0960507069164007,0.5,0.393345005011558,0.745588925242355,1.64965547218555,2.32345227904044,0.5,39.7872562211878
CBC_1020,CBC_1020_MSI_AV_v3_Vset6_Aset1_2023-06-28_15h13.22.031.csv,2,38,1,3,z,0,1,1,aud,D,27,1,1D,3D,0,1,z,0.987156099999993,0,1,1,1,3D,1D,D13,3.27714473299218,0.85186124043626,0.5,0.5,0.5,0.5,0.974827651541025,0.5,0.5,0.5,0.5,0.99082715137583,0.303327497494221,0.5,0.5,0.5,0.941158124273803,0.941158124273803,0.0588418757261969,0.941158124273803,0.5,1.00338715880275,0.967123861449514,0.0588418757261969,0.0231451579024104,0.5,0.393345005011558,0.745588925242355,1.64965547218555,2.32345227904044,0.5,39.7872562211878
CBC_1020,CBC_1020_MSI_AV_v3_Vset6_Aset1_2023-06-28_15h13.22.031.csv,2,39,1,0,b,1,0,0,aud,B,63,1,1B,0B,1,0,b,1.77832790000048,1,0,1,1,1B,0B,B10,3.29583686600433,0.85186124043626,0.5,0.5,0.5,0.5,0.974827651541025,0.5,0.5,0.5,0.5,0.99082715137583,0.303327497494221,0.5,0.5,0.5,0.964303282176214,0.974827651541025,0.025172348458975,0.974827651541025,0.5,0.392918046621385,0.974394678942236,0.025172348458975,0.0099014175307482,0.5,0.393345005011558,0.745588925242355,1.64965547218555,2.32345227904044,0.5,39.7872562211878
CBC_1020,CBC_1020_MSI_AV_v3_Vset6_Aset1_2023-06-28_15h13.22.031.csv,2,40,3,2,z,0,1,2,aud,C,63,0,3C,2C,1,0,z,1.23128170000018,0,1,1,0,2C,3C,C32,2.90872089656436,0.85186124043626,0.5,0.5,0.5,0.5,0.984729069071773,0.5,0.5,0.5,0.5,0.99082715137583,0.303327497494221,0.5,0.5,0.5,0.964303282176214,0.995985398781599,0.00401460121840102,0.99082715137583,0.303327497494221,1.19240620856647,0.978216446697363,-0.99082715137583,-0.389736910823514,0.5,0.393345005011558,0.745588925242355,1.64965547218555,2.32345227904044,0.5,39.7872562211878
CBC_1020,CBC_1020_MSI_AV_v3_Vset6_Aset1_2023-06-28_15h13.22.031.csv,2,41,0,2,b,1,0,3,aud,A,27,1,0A,2A,1,0,b,1.48878010000044,1,0,1,1,0A,2A,A02,3.3322045101752,0.85186124043626,0.5,0.5,0.5,0.5,0.984729069071773,0.5,0.5,0.5,0.5,0.601090240552316,0.303327497494221,0.5,0.5,0.5,0.964303282176214,0.85186124043626,0.14813875956374,0.85186124043626,0.5,0.679901006554119,0.936983111485224,0.14813875956374,0.0582696411230054,0.5,0.393345005011558,0.745588925242355,1.64965547218555,2.32345227904044,0.5,39.7872562211878
CBC_1020,CBC_1020_MSI_AV_v3_Vset6_Aset1_2023-06-28_15h13.22.031.csv,2,42,2,3,z,0,1,1,aud,D,63,1,2D,3D,0,1,z,1.08723120000013,0,1,1,1,3D,2D,D23,4.04305126783455,0.910130881559265,0.5,0.5,0.5,0.5,0.984729069071773,0.5,0.5,0.5,0.5,0.601090240552316,0.303327497494221,0.5,0.5,0.5,0.964303282176214,0.964303282176214,0.0356967178237865,0.964303282176214,0.5,1.27771269569187,0.972281050230761,0.0356967178237865,0.0140411256512935,0.5,0.393345005011558,0.745588925242355,1.64965547218555,2.32345227904044,0.5,39.7872562211878
CBC_1020,CBC_1020_MSI_AV_v3_Vset6_Aset1_2023-06-28_15h13.22.031.csv,2,43,1,3,b,1,0,0,aud,B,27,1,1B,3B,1,0,b,1.46128729999964,1,0,1,1,1B,3B,B13,3.36729582998647,0.910130881559265,0.5,0.5,0.5,0.5,0.984729069071773,0.5,0.5,0.5,0.5,0.601090240552316,0.303327497494221,0.5,0.5,0.5,0.978344407827507,0.984729069071773,0.0152709309282267,0.984729069071773,0.5,0.764087707622804,0.976274937510286,0.0152709309282267,0.0060067444024945,0.5,0.393345005011558,0.745588925242355,1.64965547218555,2.32345227904044,0.5,39.7872562211878
CBC_1020,CBC_1020_MSI_AV_v3_Vset6_Aset1_2023-06-28_15h13.22.031.csv,2,44,3,2,z,0,1,2,aud,C,63,1,3C,2C,0,1,z,2.76381089999995,0,1,1,1,2C,3C,C32,2.69124308278583,0.910130881559265,0.5,0.5,0.5,0.5,0.990735813474268,0.5,0.5,0.5,0.5,0.601090240552316,0.303327497494221,0.5,0.5,0.5,0.978344407827507,0.775827126763537,0.224172873236463,0.601090240552316,0.303327497494221,0.114783325590141,0.892276918648373,0.398909759447684,0.156909161329109,0.5,0.393345005011558,0.745588925242355,1.64965547218555,2.32345227904044,0.5,39.7872562211878
CBC_1020,CBC_1020_MSI_TV_v3_Vset5_Tset1_2023-06-28_16h55.43.253.csv,3,1,2,0,b,1,0,2,tac,C,27,1,2C,0C,1,0,b,2.558659,1,0,1,1,2C,0C,C20,2.77258872223978,0.5,0.5,0.5,0.5,0.5,0.5,0.5,0.5,0.5,0.5,0.5,0.5,0.5,0.5,0.5,0.5,0.5,0.5,0.5,0.5,0.159915769213816,0.498910842029855,0.5,0.0347096271755473,0.5,0.0694192543510946,1.09949345551861,1.0620344280112,2.63248359153676,0.5,75.8630631561734
CBC_1020,CBC_1020_MSI_TV_v3_Vset5_Tset1_2023-06-28_16h55.43.253.csv,3,2,3,2,b,1,0,1,tac,D,63,1,3D,2D,1,0,b,2.4631589,1,0,1,1,3D,2D,D32,2.83321334405622,0.5,0.5,0.5,0.5,0.5,0.5,0.5,0.5,0.5,0.5,0.534709627175547,0.5,0.5,0.5,0.5,0.5,0.5,0.5,0.5,0.5,0.171199647162115,0.499265654789503,0.5,0.0347096271755473,0.5,0.0694192543510946,1.09949345551861,1.0620344280112,2.63248359153676,0.5,75.8630631561734
CBC_1020,CBC_1020_MSI_TV_v3_Vset5_Tset1_2023-06-28_16h55.43.253.csv,3,3,1,0,z,0,1,3,tac,A,63,1,1A,0A,0,1,b,3.4533513,1,0,0,0,1A,0A,A10,2.89037175789616,0.5,0.5,0.5,0.5,0.5,0.5,0.5,0.5,0.5,0.5,0.534709627175547,0.5,0.5,0.5,0.5,0.534709627175547,0.5,0.5,0.5,0.5,0.0848298198681911,0.500097082303945,-0.5,-0.0347096271755473,0.5,0.0694192543510946,1.09949345551861,1.0620344280112,2.63248359153676,0.5,75.8630631561734
CBC_1020,CBC_1020_MSI_TV_v3_Vset5_Tset1_2023-06-28_16h55.43.253.csv,3,4,2,3,b,1,0,2,tac,C,63,1,2C,3C,1,0,b,2.3526012,1,0,1,1,2C,3C,C23,2.94443897916644,0.5,0.465290372824453,0.5,0.5,0.5,0.5,0.5,0.5,0.5,0.5,0.534709627175547,0.5,0.5,0.5,0.5,0.534709627175547,0.534709627175547,0.465290372824453,0.534709627175547,0.5,0.203395683405662,0.548158472641794,0.465290372824453,0.0323001107382163,0.5,0.0694192543510946,1.09949345551861,1.0620344280112,2.63248359153676,0.5,75.8630631561734
CBC_1020,CBC_1020_MSI_TV_v3_Vset5_Tset1_2023-06-28_16h55.43.253.csv,3,5,0,2,b,1,0,3,tac,A,27,1,0A,2A,1,0,b,2.3859394,1,0,1,1,0A,2A,A02,2.99573227355399,0.5,0.465290372824453,0.5,0.5,0.5,0.5,0.5,0.5,0.5,0.5,0.567009737913764,0.5,0.5,0.5,0.5,0.534709627175547,0.5,0.5,0.5,0.5,0.180814079217457,0.499442121216543,0.5,0.0347096271755473,0.5,0.0694192543510946,1.09949345551861,1.0620344280112,2.63248359153676,0.5,75.8630631561734
CBC_1020,CBC_1020_MSI_TV_v3_Vset5_Tset1_2023-06-28_16h55.43.253.csv,3,6,2,3,z,0,1,1,tac,D,63,1,2D,3D,0,1,z,2.9740085,0,1,1,1,3D,2D,D23,3.04452243772342,0.534709627175547,0.465290372824453,0.5,0.5,0.5,0.5,0.5,0.5,0.5,0.5,0.567009737913764,0.5,0.5,0.5,0.5,0.534709627175547,0.534709627175547,0.465290372824453,0.534709627175547,0.5,0.130754412167975,0.548173959013829,0.465290372824453,0.0323001107382163,0.5,0.0694192543510946,1.09949345551861,1.0620344280112,2.63248359153676,0.5,75.8630631561734
CBC_1020,CBC_1020_MSI_TV_v3_Vset5_Tset1_2023-06-28_16h55.43.253.csv,3,7,3,2,b,1,0,1,tac,D,63,1,3D,2D,1,0,b,2.5277644,1,0,1,1,3D,2D,D32,2.39789527279837,0.534709627175547,0.465290372824453,0.5,0.5,0.5,0.5,0.5,0.5,0.5,0.5,0.567009737913764,0.5,0.5,0.5,0.5,0.567009737913764,0.567009737913764,0.432990262086236,0.567009737913764,0.5,0.195116459067761,0.59375380201608,0.432990262086236,0.0300578611353116,0.5,0.0694192543510946,1.09949345551861,1.0620344280112,2.63248359153676,0.5,75.8630631561734
CBC_1020,CBC_1020_MSI_TV_v3_Vset5_Tset1_2023-06-28_16h55.43.253.csv,3,8,3,1,z,0,1,0,tac,B,27,1,3B,1B,0,1,z,2.9963841,0,1,1,1,1B,3B,B31,3.13549421592915,0.534709627175547,0.465290372824453,0.5,0.5,0.5,0.5,0.5,0.5,0.5,0.5,0.567009737913764,0.5,0.5,0.5,0.5,0.597067599049075,0.5,0.5,0.5,0.5,0.117492067695461,0.500284961328762,0.5,0.0347096271755473,0.5,0.0694192543510946,1.09949345551861,1.0620344280112,2.63248359153676,0.5,75.8630631561734
CBC_1020,CBC_1020_MSI_TV_v3_Vset5_Tset1_2023-06-28_16h55.43.253.csv,3,9,0,3,z,0,1,1,tac,D,9,1,0D,3D,0,1,b,2.4315682,1,0,0,0,0D,3D,D03,3.17805383034795,0.534709627175547,0.465290372824453,0.5,0.5,0.5,0.534709627175547,0.5,0.5,0.5,0.5,0.567009737913764,0.5,0.5,0.5,0.5,0.597067599049075,0.402932400950925,0.597067599049075,0.5,0.597067599049075,0.130125529592325,0.368179922562758,-0.5,-0.0347096271755473,0.5,0.0694192543510946,1.09949345551861,1.0620344280112,2.63248359153676,0.5,75.8630631561734
CBC_1020,CBC_1020_MSI_TV_v3_Vset5_Tset1_2023-06-28_16h55.43.253.csv,3,10,1,0,b,1,0,0,tac,B,63,1,1B,0B,1,0,b,2.9480896,1,0,1,1,1B,0B,B10,3.2188758248682,0.534709627175547,0.465290372824453,0.5,0.5,0.5,0.534709627175547,0.5,0.5,0.5,0.5,0.567009737913764,0.5,0.465290372824453,0.5,0.5,0.597067599049075,0.534709627175547,0.465290372824453,0.534709627175547,0.5,0.133469827114526,0.549301395064286,0.465290372824453,0.0323001107382163,0.5,0.0694192543510946,1.09949345551861,1.0620344280112,2.63248359153676,0.5,75.8630631561734
CBC_1020,CBC_1020_MSI_TV_v3_Vset5_Tset1_2023-06-28_16h55.43.253.csv,3,11,1,0,z,0,1,3,tac,A,63,1,1A,0A,0,1,b,3.7743763,1,0,0,0,1A,0A,A10,2.56494935746154,0.534709627175547,0.465290372824453,0.5,0.5,0.5,0.567009737913764,0.5,0.5,0.5,0.5,0.567009737913764,0.5,0.465290372824453,0.5,0.5,0.597067599049075,0.430913674920652,0.569086325079348,0.465290372824453,0.534709627175547,0.054234939424506,0.405879876947217,-0.465290372824453,-0.0323001107382163,0.5,0.0694192543510946,1.09949345551861,1.0620344280112,2.63248359153676,0.5,75.8630631561734
CBC_1020,CBC_1020_MSI_TV_v3_Vset5_Tset1_2023-06-28_16h55.43.253.csv,3,12,0,1,z,0,1,0,tac,B,63,1,0B,1B,0,1,z,4.8824814,0,1,1,1,1B,0B,B01,3.29583686600433,0.534709627175547,0.432990262086236,0.5,0.5,0.5,0.567009737913764,0.5,0.5,0.5,0.5,0.567009737913764,0.5,0.465290372824453,0.5,0.5,0.597067599049075,0.567009737913764,0.432990262086236,0.567009737913764,0.5,0.0355796926625589,0.592566731899379,0.432990262086236,0.0300578611353116,0.5,0.0694192543510946,1.09949345551861,1.0620344280112,2.63248359153676,0.5,75.8630631561734
CBC_1020,CBC_1020_MSI_TV_v3_Vset5_Tset1_2023-06-28_16h55.43.253.csv,3,13,2,3,z,0,1,1,tac,D,63,1,2D,3D,0,1,b,2.3487546,1,0,0,0,2D,3D,D23,2.63905732961526,0.534709627175547,0.432990262086236,0.5,0.5,0.5,0.597067599049075,0.5,0.5,0.5,0.5,0.567009737913764,0.5,0.465290372824453,0.5,0.5,0.597067599049075,0.402932400950925,0.597067599049075,0.5,0.597067599049075,0.138119039288432,0.368109791277129,-0.5,-0.0347096271755473,0.5,0.0694192543510946,1.09949345551861,1.0620344280112,2.63248359153676,0.5,75.8630631561734
CBC_1020,CBC_1020_MSI_TV_v3_Vset5_Tset1_2023-06-28_16h55.43.253.csv,3,14,1,3,b,1,0,0,tac,B,27,1,1B,3B,1,0,b,2.8460024,1,0,1,1,1B,3B,B13,3.36729582998647,0.534709627175547,0.432990262086236,0.5,0.5,0.5,0.597067599049075,0.5,0.5,0.5,0.5,0.567009737913764,0.5,0.465290372824453,0.5,0.465290372824453,0.597067599049075,0.597067599049075,0.402932400950925,0.597067599049075,0.5,0.165064537582137,0.631989276663274,0.402932400950925,0.0279712668279095,0.5,0.0694192543510946,1.09949345551861,1.0620344280112,2.63248359153676,0.5,75.8630631561734
CBC_1020,CBC_1020_MSI_TV_v3_Vset5_Tset1_2023-06-28_16h55.43.253.csv,3,15,3,2,z,0,1,2,tac,C,63,1,3C,2C,0,1,b,2.3485299,1,0,0,0,3C,2C,C32,3.40119738166216,0.534709627175547,0.432990262086236,0.5,0.5,0.5,0.625038865876985,0.5,0.5,0.5,0.5,0.567009737913764,0.5,0.465290372824453,0.5,0.465290372824453,0.597067599049075,0.432990262086236,0.567009737913764,0.5,0.567009737913764,0.152291367572238,0.407849451119958,-0.5,-0.0347096271755473,0.5,0.0694192543510946,1.09949345551861,1.0620344280112,2.63248359153676,0.5,75.8630631561734
CBC_1020,CBC_1020_MSI_TV_v3_Vset5_Tset1_2023-06-28_16h55.43.253.csv,3,16,2,0,b,1,0,2,tac,C,27,1,2C,0C,1,0,b,2.5978839,1,0,1,1,2C,0C,C20,2.7408400239252,0.534709627175547,0.432990262086236,0.5,0.5,0.5,0.625038865876985,0.5,0.5,0.5,0.5,0.567009737913764,0.465290372824453,0.465290372824453,0.5,0.465290372824453,0.597067599049075,0.567009737913764,0.432990262086236,0.567009737913764,0.5,0.185011528444919,0.592135366810816,0.432990262086236,0.0300578611353116,0.5,0.0694192543510946,1.09949345551861,1.0620344280112,2.63248359153676,0.5,75.8630631561734
CBC_1020,CBC_1020_MSI_TV_v3_Vset5_Tset1_2023-06-28_16h55.43.253.csv,3,17,0,3,b,1,0,3,tac,A,9,1,0A,3A,1,0,b,2.5732743,1,0,1,1,0A,3A,A03,3.46573590279973,0.534709627175547,0.432990262086236,0.5,0.5,0.5,0.625038865876985,0.5,0.5,0.5,0.5,0.597067599049075,0.465290372824453,0.465290372824453,0.5,0.465290372824453,0.597067599049075,0.534709627175547,0.465290372824453,0.534709627175547,0.5,0.173938577403446,0.547930345866869,0.465290372824453,0.0323001107382163,0.5,0.0694192543510946,1.09949345551861,1.0620344280112,2.63248359153676,0.5,75.8630631561734
CBC_1020,CBC_1020_MSI_TV_v3_Vset5_Tset1_2023-06-28_16h55.43.253.csv,3,18,2,3,b,1,0,2,tac,C,63,0,2C,3C,0,1,z,2.4426553,0,1,0,1,3C,2C,C23,2.80336038090653,0.567009737913764,0.432990262086236,0.5,0.5,0.5,0.625038865876985,0.5,0.5,0.5,0.5,0.597067599049075,0.465290372824453,0.465290372824453,0.5,0.465290372824453,0.597067599049075,0.369975083261686,0.630024916738314,0.465290372824453,0.597067599049075,0.115091235819051,0.326437149676729,0.534709627175547,0.0371191436128783,0.5,0.0694192543510946,1.09949345551861,1.0620344280112,2.63248359153676,0.5,75.8630631561734
CBC_1020,CBC_1020_MSI_TV_v3_Vset5_Tset1_2023-06-28_16h55.43.253.csv,3,19,1,0,z,0,1,3,tac,A,63,1,1A,0A,0,1,z,2.5233823,0,1,1,1,0A,1A,A10,2.42774823594805,0.567009737913764,0.432990262086236,0.5,0.5,0.5,0.625038865876985,0.5,0.5,0.5,0.5,0.597067599049075,0.502409516437331,0.465290372824453,0.5,0.465290372824453,0.597067599049075,0.631654795101674,0.368345204898326,0.567009737913764,0.432990262086236,0.224302828665462,0.675407445251553,0.432990262086236,0.0300578611353116,0.5,0.0694192543510946,1.09949345551861,1.0620344280112,2.63248359153676,0.5,75.8630631561734
CBC_1020,CBC_1020_MSI_TV_v3_Vset5_Tset1_2023-06-28_16h55.43.253.csv,3,20,3,2,b,1,0,1,tac,D,63,1,3D,2D,1,0,z,2.5000739,0,1,0,0,2D,3D,D32,2.4567357728213,0.597067599049075,0.432990262086236,0.5,0.5,0.5,0.625038865876985,0.5,0.5,0.5,0.5,0.597067599049075,0.502409516437331,0.465290372824453,0.5,0.465290372824453,0.597067599049075,0.369975083261686,0.630024916738314,0.465290372824453,0.597067599049075,0.110495794171932,0.327089252447786,-0.465290372824453,-0.0323001107382163,0.5,0.0694192543510946,1.09949345551861,1.0620344280112,2.63248359153676,0.5,75.8630631561734
CBC_1020,CBC_1020_MSI_TV_v3_Vset5_Tset1_2023-06-28_16h55.43.253.csv,3,21,3,2,z,0,1,2,tac,C,63,1,3C,2C,0,1,b,1.8948564,1,0,0,0,3C,2C,C32,2.89037175789616,0.597067599049075,0.432990262086236,0.5,0.5,0.5,0.625038865876985,0.5,0.5,0.5,0.5,0.597067599049075,0.502409516437331,0.465290372824453,0.5,0.432990262086236,0.597067599049075,0.405253277669968,0.594746722330032,0.502409516437331,0.597067599049075,0.188440668167774,0.371551220509802,-0.502409516437331,-0.0348768940099735,0.5,0.0694192543510946,1.09949345551861,1.0620344280112,2.63248359153676,0.5,75.8630631561734
CBC_1020,CBC_1020_MSI_TV_v3_Vset5_Tset1_2023-06-28_16h55.43.253.csv,3,22,3,1,b,1,0,1,tac,D,27,1,3D,1D,1,0,b,2.4511491,1,0,1,1,3D,1D,D31,3.61091791264422,0.597067599049075,0.432990262086236,0.5,0.5,0.5,0.625038865876985,0.5,0.5,0.5,0.5,0.597067599049075,0.467532622427357,0.465290372824453,0.5,0.432990262086236,0.597067599049075,0.597067599049075,0.402932400950925,0.597067599049075,0.5,0.22062169074183,0.633065605831884,0.402932400950925,0.0279712668279095,0.5,0.0694192543510946,1.09949345551861,1.0620344280112,2.63248359153676,0.5,75.8630631561734
CBC_1020,CBC_1020_MSI_TV_v3_Vset5_Tset1_2023-06-28_16h55.43.253.csv,3,23,0,1,b,1,0,3,tac,A,63,1,0A,1A,1,0,b,1.8392794,1,0,1,1,0A,1A,A01,3.63758615972639,0.597067599049075,0.432990262086236,0.5,0.5,0.5,0.625038865876985,0.5,0.5,0.5,0.5,0.597067599049075,0.467532622427357,0.465290372824453,0.5,0.432990262086236,0.625038865876985,0.65991664216036,0.34008335783964,0.597067599049075,0.432990262086236,0.383637289284586,0.710156209362296,0.402932400950925,0.0279712668279095,0.5,0.0694192543510946,1.09949345551861,1.0620344280112,2.63248359153676,0.5,75.8630631561734
CBC_1020,CBC_1020_MSI_TV_v3_Vset5_Tset1_2023-06-28_16h55.43.253.csv,3,24,3,2,z,0,1,2,tac,C,63,1,3C,2C,0,1,b,3.0023748,1,0,0,0,3C,2C,C32,2.56494935746154,0.625038865876985,0.432990262086236,0.5,0.5,0.5,0.625038865876985,0.5,0.5,0.5,0.5,0.597067599049075,0.467532622427357,0.465290372824453,0.5,0.432990262086236,0.625038865876985,0.372077628344791,0.627922371655209,0.467532622427357,0.597067599049075,0.0760846280283139,0.327861124647515,-0.467532622427357,-0.032455766033719,0.5,0.0694192543510946,1.09949345551861,1.0620344280112,2.63248359153676,0.5,75.8630631561734
CBC_1020,CBC_1020_MSI_TV_v3_Vset5_Tset1_2023-06-28_16h55.43.253.csv,3,25,0,2,b,1,0,3,tac,A,27,1,0A,2A,1,0,b,1.4506734,1,0,1,1,0A,2A,A02,2.99573227355399,0.625038865876985,0.432990262086236,0.5,0.5,0.5,0.625038865876985,0.5,0.5,0.5,0.5,0.597067599049075,0.435076856393638,0.465290372824453,0.5,0.432990262086236,0.625038865876985,0.625038865876985,0.374961134123015,0.625038865876985,0.5,0.30043521610789,0.668683541703187,0.374961134123015,0.0260295223414605,0.5,0.0694192543510946,1.09949345551861,1.0620344280112,2.63248359153676,0.5,75.8630631561734
CBC_1020,CBC_1020_MSI_TV_v3_Vset5_Tset1_2023-06-28_16h55.43.253.csv,3,26,1,0,b,1,0,0,tac,B,63,1,1B,0B,1,0,b,2.4594591,1,0,1,1,1B,0B,B10,3.02042488614436,0.651068388218445,0.432990262086236,0.5,0.5,0.5,0.625038865876985,0.5,0.5,0.5,0.5,0.597067599049075,0.435076856393638,0.465290372824453,0.5,0.432990262086236,0.625038865876985,0.625038865876985,0.374961134123015,0.625038865876985,0.5,0.232539692609082,0.668330382162275,0.374961134123015,0.0260295223414605,0.5,0.0694192543510946,1.09949345551861,1.0620344280112,2.63248359153676,0.5,75.8630631561734
CBC_1020,CBC_1020_MSI_TV_v3_Vset5_Tset1_2023-06-28_16h55.43.253.csv,3,27,0,1,z,0,1,0,tac,B,63,1,0B,1B,0,1,z,2.6094352,0,1,1,1,1B,0B,B01,3.04452243772342,0.651068388218445,0.432990262086236,0.5,0.5,0.5,0.651068388218445,0.5,0.5,0.5,0.5,0.597067599049075,0.435076856393638,0.465290372824453,0.5,0.432990262086236,0.625038865876985,0.651068388218445,0.348931611781555,0.651068388218445,0.5,0.218010941203958,0.698837566964099,0.348931611781555,0.0242225723094012,0.5,0.0694192543510946,1.09949345551861,1.0620344280112,2.63248359153676,0.5,75.8630631561734
CBC_1020,CBC_1020_MSI_TV_v3_Vset5_Tset1_2023-06-28_16h55.43.253.csv,3,28,3,2,z,0,1,2,tac,C,63,1,3C,2C,0,1,b,1.9760787,1,0,0,0,3C,2C,C32,2.37490575457367,0.651068388218445,0.432990262086236,0.5,0.5,0.5,0.675290960527847,0.5,0.5,0.5,0.5,0.597067599049075,0.435076856393638,0.465290372824453,0.5,0.432990262086236,0.625038865876985,0.341992274176156,0.658007725823844,0.435076856393638,0.597067599049075,0.145396438086118,0.292018576686454,-0.435076856393638,-0.0302027109562647,0.5,0.0694192543510946,1.09949345551861,1.0620344280112,2.63248359153676,0.5,75.8630631561734
CBC_1020,CBC_1020_MSI_TV_v3_Vset5_Tset1_2023-06-28_16h55.43.253.csv,3,29,3,1,b,1,0,1,tac,D,27,1,3D,1D,1,0,b,2.3779517,1,0,1,1,3D,1D,D31,3.09104245335832,0.651068388218445,0.432990262086236,0.5,0.5,0.5,0.675290960527847,0.5,0.5,0.5,0.5,0.597067599049075,0.404874145437374,0.465290372824453,0.5,0.432990262086236,0.625038865876985,0.625038865876985,0.374961134123015,0.625038865876985,0.5,0.246814185265496,0.667979930622814,0.374961134123015,0.0260295223414605,0.5,0.0694192543510946,1.09949345551861,1.0620344280112,2.63248359153676,0.5,75.8630631561734
CBC_1020,CBC_1020_MSI_TV_v3_Vset5_Tset1_2023-06-28_16h55.43.253.csv,3,30,1,2,z,0,1,2,tac,C,9,1,1C,2C,0,1,z,2.8204376,0,1,1,1,2C,1C,C12,3.80666248977032,0.651068388218445,0.432990262086236,0.5,0.5,0.5,0.675290960527847,0.5,0.5,0.5,0.5,0.597067599049075,0.404874145437374,0.465290372824453,0.5,0.432990262086236,0.651068388218445,0.597067599049075,0.402932400950925,0.597067599049075,0.5,0.168208306333883,0.632081561473585,0.402932400950925,0.0279712668279095,0.5,0.0694192543510946,1.09949345551861,1.0620344280112,2.63248359153676,0.5,75.8630631561734
CBC_1020,CBC_1020_MSI_TV_v3_Vset5_Tset1_2023-06-28_16h55.43.253.csv,3,31,3,1,z,0,1,0,tac,B,27,1,3B,1B,0,1,z,1.477909,0,1,1,1,1B,3B,B31,3.13549421592915,0.651068388218445,0.432990262086236,0.5,0.5,0.5,0.675290960527847,0.5,0.5,0.5,0.5,0.625038865876985,0.404874145437374,0.465290372824453,0.5,0.432990262086236,0.651068388218445,0.675290960527847,0.324709039472153,0.675290960527847,0.5,0.363968768022719,0.727636419243503,0.324709039472153,0.0225410594012171,0.5,0.0694192543510946,1.09949345551861,1.0620344280112,2.63248359153676,0.5,75.8630631561734
CBC_1020,CBC_1020_MSI_TV_v3_Vset5_Tset1_2023-06-28_16h55.43.253.csv,3,32,3,2,b,1,0,1,tac,D,63,1,3D,2D,1,0,z,2.4847524,0,1,0,0,2D,3D,D32,2.46385324059017,0.651068388218445,0.432990262086236,0.5,0.5,0.5,0.697832019929064,0.5,0.5,0.5,0.5,0.625038865876985,0.404874145437374,0.465290372824453,0.5,0.432990262086236,0.651068388218445,0.290408689722077,0.709591310277923,0.432990262086236,0.651068388218445,0.0820610803972976,0.236906946143824,-0.432990262086236,-0.0300578611353116,0.5,0.0694192543510946,1.09949345551861,1.0620344280112,2.63248359153676,0.5,75.8630631561734
CBC_1020,CBC_1020_MSI_TV_v3_Vset5_Tset1_2023-06-28_16h55.43.253.csv,3,33,0,1,z,0,1,0,tac,B,63,1,0B,1B,0,1,z,2.3110511,0,1,1,1,1B,0B,B01,2.77258872223978,0.651068388218445,0.432990262086236,0.5,0.5,0.5,0.697832019929064,0.5,0.5,0.5,0.5,0.625038865876985,0.404874145437374,0.465290372824453,0.5,0.402932400950925,0.651068388218445,0.697832019929064,0.302167980070936,0.697832019929064,0.5,0.298024696256574,0.751530127759318,0.302167980070936,0.0209762758653008,0.5,0.0694192543510946,1.09949345551861,1.0620344280112,2.63248359153676,0.5,75.8630631561734
CBC_1020,CBC_1020_MSI_TV_v3_Vset5_Tset1_2023-06-28_16h55.43.253.csv,3,34,1,0,z,0,1,3,tac,A,63,0,1A,0A,1,0,z,2.2550929,0,1,1,0,0A,1A,A10,2.50552593699074,0.651068388218445,0.432990262086236,0.5,0.5,0.5,0.718808295794364,0.5,0.5,0.5,0.5,0.625038865876985,0.404874145437374,0.465290372824453,0.5,0.402932400950925,0.651068388218445,0.709591310277923,0.290408689722077,0.651068388218445,0.432990262086236,0.317435818569403,0.763048429790081,-0.651068388218445,-0.0451966820416935,0.5,0.0694192543510946,1.09949345551861,1.0620344280112,2.63248359153676,0.5,75.8630631561734
CBC_1020,CBC_1020_MSI_TV_v3_Vset5_Tset1_2023-06-28_16h55.43.253.csv,3,35,2,3,b,1,0,2,tac,C,63,1,2C,3C,1,0,z,2.8630319,0,1,0,0,3C,2C,C23,2.81341071676004,0.605871706176752,0.432990262086236,0.5,0.5,0.5,0.718808295794364,0.5,0.5,0.5,0.5,0.625038865876985,0.404874145437374,0.465290372824453,0.5,0.402932400950925,0.651068388218445,0.289834475187753,0.710165524812247,0.404874145437374,0.625038865876985,0.0601003431893076,0.235613064936106,-0.404874145437374,-0.0281060612822991,0.5,0.0694192543510946,1.09949345551861,1.0620344280112,2.63248359153676,0.5,75.8630631561734
CBC_1020,CBC_1020_MSI_TV_v3_Vset5_Tset1_2023-06-28_16h55.43.253.csv,3,36,0,2,b,1,0,3,tac,A,27,1,0A,2A,1,0,b,1.8382053,1,0,1,1,0A,2A,A02,2.83321334405622,0.605871706176752,0.432990262086236,0.5,0.5,0.5,0.718808295794364,0.5,0.5,0.5,0.5,0.625038865876985,0.376768084155075,0.465290372824453,0.5,0.402932400950925,0.651068388218445,0.605871706176752,0.394128293823248,0.605871706176752,0.5,0.337448120719639,0.643361902682463,0.394128293823248,0.027360092275879,0.5,0.0694192543510946,1.09949345551861,1.0620344280112,2.63248359153676,0.5,75.8630631561734
CBC_1020,CBC_1020_MSI_TV_v3_Vset5_Tset1_2023-06-28_16h55.43.253.csv,3,37,0,1,z,0,1,0,tac,B,63,1,0B,1B,0,1,z,1.8447867,0,1,1,1,1B,0B,B01,2.56494935746154,0.633231798452631,0.432990262086236,0.5,0.5,0.5,0.718808295794364,0.5,0.5,0.5,0.5,0.625038865876985,0.376768084155075,0.465290372824453,0.5,0.402932400950925,0.651068388218445,0.718808295794364,0.281191704205636,0.718808295794364,0.5,0.433240868646951,0.771743857296102,0.281191704205636,0.0195201184356688,0.5,0.0694192543510946,1.09949345551861,1.0620344280112,2.63248359153676,0.5,75.8630631561734
CBC_1020,CBC_1020_MSI_TV_v3_Vset5_Tset1_2023-06-28_16h55.43.253.csv,3,38,2,3,z,0,1,1,tac,D,63,1,2D,3D,0,1,b,2.4657049,1,0,0,0,2D,3D,D23,2.87167962488401,0.633231798452631,0.432990262086236,0.5,0.5,0.5,0.738328414230033,0.5,0.5,0.5,0.5,0.625038865876985,0.376768084155075,0.465290372824453,0.5,0.402932400950925,0.651068388218445,0.265612123392845,0.734387876607155,0.402932400950925,0.651068388218445,0.0749004511428512,0.21200528546364,-0.402932400950925,-0.0279712668279095,0.5,0.0694192543510946,1.09949345551861,1.0620344280112,2.63248359153676,0.5,75.8630631561734
CBC_1020,CBC_1020_MSI_TV_v3_Vset5_Tset1_2023-06-28_16h55.43.253.csv,3,39,1,2,b,1,0,0,tac,B,9,1,1B,2B,1,0,b,2.4624904,1,0,1,1,1B,2B,B12,3.98898404656427,0.633231798452631,0.432990262086236,0.5,0.5,0.5,0.738328414230033,0.5,0.5,0.5,0.5,0.625038865876985,0.376768084155075,0.465290372824453,0.5,0.374961134123015,0.651068388218445,0.738328414230033,0.261671585769967,0.738328414230033,0.5,0.280373528693783,0.791053370325904,0.261671585769967,0.0181650463690196,0.5,0.0694192543510946,1.09949345551861,1.0620344280112,2.63248359153676,0.5,75.8630631561734
CBC_1020,CBC_1020_MSI_TV_v3_Vset5_Tset1_2023-06-28_16h55.43.253.csv,3,40,1,3,z,0,1,1,tac,D,27,1,1D,3D,0,1,z,2.4468924,0,1,1,1,3D,1D,D13,4.00733318523247,0.633231798452631,0.432990262086236,0.5,0.5,0.5,0.756493460599053,0.5,0.5,0.5,0.5,0.625038865876985,0.376768084155075,0.465290372824453,0.5,0.374961134123015,0.651068388218445,0.651068388218445,0.348931611781555,0.651068388218445,0.5,0.246784115467039,0.699309503994524,0.348931611781555,0.0242225723094012,0.5,0.0694192543510946,1.09949345551861,1.0620344280112,2.63248359153676,0.5,75.8630631561734
CBC_1020,CBC_1020_MSI_TV_v3_Vset5_Tset1_2023-06-28_16h55.43.253.csv,3,41,1,0,z,0,1,3,tac,A,63,1,1A,0A,0,1,z,2.487669,0,1,1,1,0A,1A,A10,2.41591377830105,0.633231798452631,0.432990262086236,0.5,0.5,0.5,0.756493460599053,0.5,0.5,0.5,0.5,0.625038865876985,0.376768084155075,0.465290372824453,0.5,0.374961134123015,0.675290960527847,0.69333721098409,0.30666278901591,0.633231798452631,0.432990262086236,0.257108683286036,0.7460341515329,0.366768201547369,0.0254607750711104,0.5,0.0694192543510946,1.09949345551861,1.0620344280112,2.63248359153676,0.5,75.8630631561734
CBC_1020,CBC_1020_MSI_TV_v3_Vset5_Tset1_2023-06-28_16h55.43.253.csv,3,42,0,1,b,1,0,3,tac,A,63,1,0A,1A,1,0,b,2.9988705,1,0,1,1,0A,1A,A01,3.3499040872746,0.658692573523741,0.432990262086236,0.5,0.5,0.5,0.756493460599053,0.5,0.5,0.5,0.5,0.625038865876985,0.376768084155075,0.465290372824453,0.5,0.374961134123015,0.675290960527847,0.716493585521661,0.283506414478339,0.658692573523741,0.432990262086236,0.175542942543007,0.76976776088787,0.341307426476259,0.0236933070504729,0.5,0.0694192543510946,1.09949345551861,1.0620344280112,2.63248359153676,0.5,75.8630631561734
CBC_1020,CBC_1020_MSI_TV_v3_Vset5_Tset1_2023-06-28_16h55.43.253.csv,3,43,2,0,b,1,0,2,tac,C,27,1,2C,0C,1,0,b,3.614611,1,0,1,1,2C,0C,C20,2.96183072187831,0.682385880574214,0.432990262086236,0.5,0.5,0.5,0.756493460599053,0.5,0.5,0.5,0.5,0.625038865876985,0.376768084155075,0.465290372824453,0.5,0.374961134123015,0.675290960527847,0.625038865876985,0.374961134123015,0.625038865876985,0.5,0.0981847602440573,0.668319745191787,0.374961134123015,0.0260295223414605,0.5,0.0694192543510946,1.09949345551861,1.0620344280112,2.63248359153676,0.5,75.8630631561734
CBC_1020,CBC_1020_MSI_TV_v3_Vset5_Tset1_2023-06-28_16h55.43.253.csv,3,44,0,1,z,0,1,0,tac,B,63,1,0B,1B,0,1,z,2.7276574,0,1,1,1,1B,0B,B01,2.46809953147162,0.682385880574214,0.432990262086236,0.5,0.5,0.5,0.756493460599053,0.5,0.5,0.5,0.5,0.651068388218445,0.376768084155075,0.465290372824453,0.5,0.374961134123015,0.675290960527847,0.756493460599053,0.243506539400947,0.756493460599053,0.5,0.22877854904046,0.807886524831268,0.243506539400947,0.0169040423948292,0.5,0.0694192543510946,1.09949345551861,1.0620344280112,2.63248359153676,0.5,75.8630631561734
CBC_1020,CBC_1020_MSI_AV_v3_Vset4_Aset3_2023-06-28_17h19.47.712.csv,4,1,1,0,z,0,1,3,aud,A,63,1,1A,0A,0,1,b,2.17138780000096,1,0,0,0,1A,0A,A10,2.77258872223978,0.5,0.5,0.5,0.5,0.5,0.5,0.5,0.5,0.5,0.5,0.5,0.5,0.5,0.5,0.5,0.5,0.5,0.5,0.5,0.5,0.172878489262352,0.499618542727721,-0.5,-0.0277820446162935,0.5,0.055564089232587,0.819117212527194,0.999181894152763,2.55991011928266,0.5,128.768775968057
CBC_1020,CBC_1020_MSI_AV_v3_Vset4_Aset3_2023-06-28_17h19.47.712.csv,4,2,3,2,b,1,0,1,aud,D,63,1,3D,2D,1,0,z,2.49403530000018,0,1,0,0,2D,3D,D32,2.83321334405622,0.5,0.472217955383706,0.5,0.5,0.5,0.5,0.5,0.5,0.5,0.5,0.5,0.5,0.5,0.5,0.5,0.5,0.5,0.5,0.5,0.5,0.135797779997513,0.50001867828496,-0.5,-0.0277820446162935,0.5,0.055564089232587,0.819117212527194,0.999181894152763,2.55991011928266,0.5,128.768775968057
CBC_1020,CBC_1020_MSI_AV_v3_Vset4_Aset3_2023-06-28_17h19.47.712.csv,4,3,2,0,b,1,0,2,aud,C,27,1,2C,0C,1,0,b,2.50708440000017,1,0,1,1,2C,0C,C20,2.89037175789616,0.5,0.472217955383706,0.5,0.5,0.5,0.5,0.5,0.5,0.5,0.5,0.5,0.5,0.5,0.5,0.472217955383706,0.5,0.5,0.5,0.5,0.5,0.134871279349634,0.501506565177243,0.5,0.0277820446162935,0.5,0.055564089232587,0.819117212527194,0.999181894152763,2.55991011928266,0.5,128.768775968057
CBC_1020,CBC_1020_MSI_AV_v3_Vset4_Aset3_2023-06-28_17h19.47.712.csv,4,4,1,0,z,0,1,3,aud,A,63,1,1A,0A,0,1,z,2.18996059999881,0,1,1,1,0A,1A,A10,2.2512917986065,0.5,0.472217955383706,0.5,0.5,0.5,0.5,0.5,0.5,0.5,0.5,0.527782044616294,0.5,0.5,0.5,0.472217955383706,0.5,0.527782044616294,0.472217955383706,0.5,0.472217955383706,0.182639533067283,0.534999189853357,0.5,0.0277820446162935,0.5,0.055564089232587,0.819117212527194,0.999181894152763,2.55991011928266,0.5,128.768775968057
CBC_1020,CBC_1020_MSI_AV_v3_Vset4_Aset3_2023-06-28_17h19.47.712.csv,4,5,3,1,z,0,1,0,aud,B,27,1,3B,1B,0,1,b,1.8067673000005,1,0,0,0,3B,1B,B31,2.99573227355399,0.527782044616294,0.472217955383706,0.5,0.5,0.5,0.5,0.5,0.5,0.5,0.5,0.527782044616294,0.5,0.5,0.5,0.472217955383706,0.5,0.5,0.5,0.5,0.5,0.225974415304926,0.499736721901831,-0.5,-0.0277820446162935,0.5,0.055564089232587,0.819117212527194,0.999181894152763,2.55991011928266,0.5,128.768775968057
CBC_1020,CBC_1020_MSI_AV_v3_Vset4_Aset3_2023-06-28_17h19.47.712.csv,4,6,2,3,b,1,0,2,aud,C,63,1,2C,3C,1,0,z,3.01747900000009,0,1,0,0,3C,2C,C23,3.04452243772342,0.527782044616294,0.472217955383706,0.5,0.5,0.5,0.5,0.5,0.472217955383706,0.5,0.5,0.527782044616294,0.5,0.5,0.5,0.472217955383706,0.5,0.472217955383706,0.527782044616294,0.5,0.527782044616294,0.0850339533674345,0.46472320568182,-0.5,-0.0277820446162935,0.5,0.055564089232587,0.819117212527194,0.999181894152763,2.55991011928266,0.5,128.768775968057
CBC_1020,CBC_1020_MSI_AV_v3_Vset4_Aset3_2023-06-28_17h19.47.712.csv,4,7,2,3,z,0,1,1,aud,D,63,0,2D,3D,NaN,NaN,[],NaN,NaN,NaN,NaN,NaN,,,D23,3.09104245335832,0.527782044616294,0.472217955383706,0.5,0.5,0.5,0.5,0.5,0.472217955383706,0.5,0.5,0.527782044616294,0.472217955383706,0.5,0.5,0.472217955383706,0.5,0,0,0,0,NaN,0,0,0,0.5,0.055564089232587,0.819117212527194,0.999181894152763,2.55991011928266,0.5,128.768775968057
CBC_1020,CBC_1020_MSI_AV_v3_Vset4_Aset3_2023-06-28_17h19.47.712.csv,4,8,1,0,b,1,0,0,aud,B,63,1,1B,0B,1,0,z,2.4499504000014,0,1,0,0,0B,1B,B10,3.13549421592915,0.527782044616294,0.472217955383706,0.5,0.5,0.5,0.5,0.5,0.472217955383706,0.5,0.5,0.527782044616294,0.472217955383706,0.5,0.5,0.472217955383706,0.5,0.5,0.5,0.5,0.5,0.13993742579775,0.498455302697616,-0.5,-0.0277820446162935,0.5,0.055564089232587,0.819117212527194,0.999181894152763,2.55991011928266,0.5,128.768775968057
CBC_1020,CBC_1020_MSI_AV_v3_Vset4_Aset3_2023-06-28_17h19.47.712.csv,4,9,0,2,b,1,0,3,aud,A,27,1,0A,2A,1,0,b,2.1906213000002,1,0,1,1,0A,2A,A02,3.17805383034795,0.527782044616294,0.472217955383706,0.5,0.5,0.472217955383706,0.5,0.5,0.472217955383706,0.5,0.5,0.527782044616294,0.472217955383706,0.5,0.5,0.472217955383706,0.5,0.527782044616294,0.472217955383706,0.527782044616294,0.5,0.182688809575137,0.535403780548874,0.472217955383706,0.0262383606101701,0.5,0.055564089232587,0.819117212527194,0.999181894152763,2.55991011928266,0.5,128.768775968057
CBC_1020,CBC_1020_MSI_AV_v3_Vset4_Aset3_2023-06-28_17h19.47.712.csv,4,10,0,3,z,0,1,1,aud,D,9,1,0D,3D,0,1,z,3.08254959999977,0,1,1,1,3D,0D,D03,3.2188758248682,0.554020405226464,0.472217955383706,0.5,0.5,0.472217955383706,0.5,0.5,0.472217955383706,0.5,0.5,0.527782044616294,0.472217955383706,0.5,0.5,0.472217955383706,0.5,0.5,0.5,0.5,0.5,0.0872073850608579,0.500107903213279,0.5,0.0277820446162935,0.5,0.055564089232587,0.819117212527194,0.999181894152763,2.55991011928266,0.5,128.768775968057
CBC_1020,CBC_1020_MSI_AV_v3_Vset4_Aset3_2023-06-28_17h19.47.712.csv,4,11,3,2,z,0,1,2,aud,C,63,0,3C,2C,1,0,z,3.57243040000139,0,1,1,0,2C,3C,C32,3.25809653802148,0.554020405226464,0.472217955383706,0.5,0.5,0.472217955383706,0.5,0.5,0.472217955383706,0.5,0.5,0.527782044616294,0.472217955383706,0.5,0.5,0.472217955383706,0.527782044616294,0.555393070438814,0.444606929561186,0.527782044616294,0.472217955383706,0.0682814361414343,0.570145153769418,-0.527782044616294,-0.029325728622417,0.5,0.055564089232587,0.819117212527194,0.999181894152763,2.55991011928266,0.5,128.768775968057
CBC_1020,CBC_1020_MSI_AV_v3_Vset4_Aset3_2023-06-28_17h19.47.712.csv,4,12,1,0,b,1,0,0,aud,B,63,1,1B,0B,1,0,b,2.45131860000038,1,0,1,1,1B,0B,B10,2.60268968544438,0.554020405226464,0.472217955383706,0.5,0.5,0.472217955383706,0.5,0.5,0.472217955383706,0.5,0.5,0.498456315993877,0.472217955383706,0.5,0.5,0.472217955383706,0.527782044616294,0.527782044616294,0.472217955383706,0.5,0.472217955383706,0.150217380392875,0.535619334873713,0.5,0.0277820446162935,0.5,0.055564089232587,0.819117212527194,0.999181894152763,2.55991011928266,0.5,128.768775968057
CBC_1020,CBC_1020_MSI_AV_v3_Vset4_Aset3_2023-06-28_17h19.47.712.csv,4,13,3,2,b,1,0,1,aud,D,63,0,3D,2D,0,1,b,2.03257239999948,1,0,1,0,3D,2D,D32,2.63905732961526,0.554020405226464,0.472217955383706,0.5,0.5,0.472217955383706,0.527782044616294,0.5,0.472217955383706,0.5,0.5,0.498456315993877,0.472217955383706,0.5,0.5,0.472217955383706,0.527782044616294,0.555393070438814,0.444606929561186,0.527782044616294,0.472217955383706,0.219220449275129,0.569868316098963,-0.527782044616294,-0.029325728622417,0.5,0.055564089232587,0.819117212527194,0.999181894152763,2.55991011928266,0.5,128.768775968057
CBC_1020,CBC_1020_MSI_AV_v3_Vset4_Aset3_2023-06-28_17h19.47.712.csv,4,14,3,2,z,0,1,2,aud,C,63,1,3C,2C,0,1,b,3.06052920000002,1,0,0,0,3C,2C,C32,2.67414864942653,0.554020405226464,0.472217955383706,0.5,0.5,0.472217955383706,0.527782044616294,0.5,0.472217955383706,0.5,0.5,0.498456315993877,0.472217955383706,0.5,0.5,0.472217955383706,0.498456315993877,0.473757137510964,0.526242862489036,0.472217955383706,0.498456315993877,0.0825303424505766,0.465903946814493,-0.472217955383706,-0.0262383606101701,0.5,0.055564089232587,0.819117212527194,0.999181894152763,2.55991011928266,0.5,128.768775968057
CBC_1020,CBC_1020_MSI_AV_v3_Vset4_Aset3_2023-06-28_17h19.47.712.csv,4,15,1,3,b,1,0,0,aud,B,27,1,1B,3B,1,0,z,3.352156500001,0,1,0,0,3B,1B,B13,3.40119738166216,0.554020405226464,0.472217955383706,0.5,0.5,0.472217955383706,0.527782044616294,0.5,0.472217955383706,0.5,0.5,0.498456315993877,0.445979594773536,0.5,0.5,0.472217955383706,0.498456315993877,0.444606929561186,0.555393070438814,0.472217955383706,0.527782044616294,0.0607226319460814,0.429013439138528,-0.472217955383706,-0.0262383606101701,0.5,0.055564089232587,0.819117212527194,0.999181894152763,2.55991011928266,0.5,128.768775968057
CBC_1020,CBC_1020_MSI_AV_v3_Vset4_Aset3_2023-06-28_17h19.47.712.csv,4,16,3,0,z,0,1,3,aud,A,9,1,3A,0A,0,1,b,2.42312740000125,1,0,0,0,3A,0A,A30,3.43398720448515,0.554020405226464,0.472217955383706,0.5,0.5,0.472217955383706,0.527782044616294,0.5,0.445979594773536,0.5,0.5,0.498456315993877,0.445979594773536,0.5,0.5,0.472217955383706,0.498456315993877,0.445979594773536,0.554020405226464,0.5,0.554020405226464,0.12388753913913,0.432402642205722,-0.5,-0.0277820446162935,0.5,0.055564089232587,0.819117212527194,0.999181894152763,2.55991011928266,0.5,128.768775968057
CBC_1020,CBC_1020_MSI_AV_v3_Vset4_Aset3_2023-06-28_17h19.47.712.csv,4,17,3,2,b,1,0,1,aud,D,63,1,3D,2D,1,0,b,2.18428220000169,1,0,1,1,3D,2D,D32,2.36712361413162,0.554020405226464,0.472217955383706,0.5,0.472217955383706,0.472217955383706,0.527782044616294,0.5,0.445979594773536,0.5,0.5,0.498456315993877,0.445979594773536,0.5,0.5,0.472217955383706,0.498456315993877,0.526242862489036,0.473757137510964,0.498456315993877,0.472217955383706,0.182784934783031,0.53317243235655,0.501543684006123,0.0278678180121567,0.5,0.055564089232587,0.819117212527194,0.999181894152763,2.55991011928266,0.5,128.768775968057
CBC_1020,CBC_1020_MSI_AV_v3_Vset4_Aset3_2023-06-28_17h19.47.712.csv,4,18,2,0,b,1,0,2,aud,C,27,1,2C,0C,1,0,z,2.70887640000001,0,1,0,0,0C,2C,C20,2.80336038090653,0.554020405226464,0.472217955383706,0.5,0.472217955383706,0.472217955383706,0.527782044616294,0.5,0.445979594773536,0.5,0.5,0.498456315993877,0.445979594773536,0.5,0.5,0.472217955383706,0.526324134006033,0.501543684006123,0.498456315993877,0.5,0.498456315993877,0.11601704152542,0.502156363813256,-0.5,-0.0277820446162935,0.5,0.055564089232587,0.819117212527194,0.999181894152763,2.55991011928266,0.5,128.768775968057
CBC_1020,CBC_1020_MSI_AV_v3_Vset4_Aset3_2023-06-28_17h19.47.712.csv,4,19,1,0,z,0,1,3,aud,A,63,1,1A,0A,0,1,b,3.20721820000108,1,0,0,0,1A,0A,A10,2.42774823594805,0.554020405226464,0.472217955383706,0.5,0.472217955383706,0.472217955383706,0.527782044616294,0.5,0.445979594773536,0.472217955383706,0.5,0.498456315993877,0.445979594773536,0.5,0.5,0.472217955383706,0.526324134006033,0.418685695315594,0.581314304684406,0.472217955383706,0.554020405226464,0.0623024951275318,0.396498132853948,-0.472217955383706,-0.0262383606101701,0.5,0.055564089232587,0.819117212527194,0.999181894152763,2.55991011928266,0.5,128.768775968057
CBC_1020,CBC_1020_MSI_AV_v3_Vset4_Aset3_2023-06-28_17h19.47.712.csv,4,20,0,1,z,0,1,0,aud,B,63,0,0B,1B,1,0,b,2.44434830000137,1,0,0,1,0B,1B,B01,3.55534806148941,0.554020405226464,0.445979594773536,0.5,0.472217955383706,0.472217955383706,0.527782044616294,0.5,0.445979594773536,0.472217955383706,0.5,0.498456315993877,0.445979594773536,0.5,0.5,0.472217955383706,0.526324134006033,0.444606929561186,0.555393070438814,0.472217955383706,0.527782044616294,0.121080169938485,0.429452770398967,0.527782044616294,0.029325728622417,0.5,0.055564089232587,0.819117212527194,0.999181894152763,2.55991011928266,0.5,128.768775968057
CBC_1020,CBC_1020_MSI_AV_v3_Vset4_Aset3_2023-06-28_17h19.47.712.csv,4,21,1,3,z,0,1,1,aud,D,27,1,1D,3D,0,1,b,0.262265999999727,1,0,0,0,1D,3D,D13,3.58351893845611,0.554020405226464,0.445979594773536,0.5,0.472217955383706,0.501543684006123,0.527782044616294,0.5,0.445979594773536,0.472217955383706,0.5,0.498456315993877,0.445979594773536,0.5,0.5,0.472217955383706,0.526324134006033,0.473675865993967,0.526324134006033,0.5,0.526324134006033,1e-20,0.5,-0.5,-0.0277820446162935,0.5,0.055564089232587,0.819117212527194,0.999181894152763,2.55991011928266,0.5,128.768775968057
CBC_1020,CBC_1020_MSI_AV_v3_Vset4_Aset3_2023-06-28_17h19.47.712.csv,4,22,2,3,b,1,0,2,aud,C,63,1,2C,3C,1,0,b,2.52877120000085,1,0,1,1,2C,3C,C23,2.91777073208428,0.554020405226464,0.445979594773536,0.5,0.472217955383706,0.501543684006123,0.527782044616294,0.5,0.445979594773536,0.472217955383706,0.5,0.498456315993877,0.445979594773536,0.5,0.472217955383706,0.472217955383706,0.526324134006033,0.552494231287584,0.447505768712416,0.498456315993877,0.445979594773536,0.149911923073493,0.566842677512476,0.501543684006123,0.0278678180121567,0.5,0.055564089232587,0.819117212527194,0.999181894152763,2.55991011928266,0.5,128.768775968057
CBC_1020,CBC_1020_MSI_AV_v3_Vset4_Aset3_2023-06-28_17h19.47.712.csv,4,23,1,0,b,1,0,0,aud,B,63,1,1B,0B,1,0,z,2.25141179999991,0,1,0,0,0B,1B,B10,2.53897387105828,0.554020405226464,0.445979594773536,0.5,0.472217955383706,0.501543684006123,0.527782044616294,0.5,0.445979594773536,0.472217955383706,0.5,0.526324134006033,0.445979594773536,0.5,0.472217955383706,0.472217955383706,0.526324134006033,0.473757137510964,0.526242862489036,0.501543684006123,0.527782044616294,0.152249016127867,0.467047052196492,-0.501543684006123,-0.0278678180121567,0.5,0.055564089232587,0.819117212527194,0.999181894152763,2.55991011928266,0.5,128.768775968057
CBC_1020,CBC_1020_MSI_AV_v3_Vset4_Aset3_2023-06-28_17h19.47.712.csv,4,24,2,0,z,0,1,3,aud,A,27,1,2A,0A,0,1,b,2.39513479999914,1,0,0,0,2A,0A,A20,3.66356164612965,0.554020405226464,0.445979594773536,0.5,0.472217955383706,0.473675865993967,0.527782044616294,0.5,0.445979594773536,0.472217955383706,0.5,0.526324134006033,0.445979594773536,0.5,0.472217955383706,0.472217955383706,0.526324134006033,0.445979594773536,0.554020405226464,0.5,0.554020405226464,0.126092786129988,0.430860598644669,-0.5,-0.0277820446162935,0.5,0.055564089232587,0.819117212527194,0.999181894152763,2.55991011928266,0.5,128.768775968057
CBC_1020,CBC_1020_MSI_AV_v3_Vset4_Aset3_2023-06-28_17h19.47.712.csv,4,25,2,3,z,0,1,1,aud,D,63,1,2D,3D,0,1,z,1.60325120000016,0,1,1,1,3D,2D,D23,2.99573227355399,0.554020405226464,0.445979594773536,0.472217955383706,0.472217955383706,0.473675865993967,0.527782044616294,0.5,0.445979594773536,0.472217955383706,0.5,0.526324134006033,0.445979594773536,0.5,0.472217955383706,0.472217955383706,0.526324134006033,0.553948360620409,0.446051639379591,0.526324134006033,0.472217955383706,0.294942155238988,0.567663271625553,0.473675865993967,0.0263193680854117,0.5,0.055564089232587,0.819117212527194,0.999181894152763,2.55991011928266,0.5,128.768775968057
CBC_1020,CBC_1020_MSI_AV_v3_Vset4_Aset3_2023-06-28_17h19.47.712.csv,4,26,2,0,b,1,0,2,aud,C,27,1,2C,0C,1,0,z,2.69371259999934,0,1,0,0,0C,2C,C20,2.6149597780362,0.554020405226464,0.445979594773536,0.472217955383706,0.472217955383706,0.473675865993967,0.527782044616294,0.5,0.445979594773536,0.472217955383706,0.5,0.526324134006033,0.445979594773536,0.5,0.472217955383706,0.472217955383706,0.552643502091445,0.446051639379591,0.553948360620409,0.472217955383706,0.526324134006033,0.100602267128734,0.431104132865449,-0.472217955383706,-0.0262383606101701,0.5,0.055564089232587,0.819117212527194,0.999181894152763,2.55991011928266,0.5,128.768775968057
CBC_1020,CBC_1020_MSI_AV_v3_Vset4_Aset3_2023-06-28_17h19.47.712.csv,4,27,1,0,b,1,0,0,aud,B,63,1,1B,0B,1,0,b,1.55073669999911,1,0,1,1,1B,0B,B10,2.35137525716348,0.554020405226464,0.445979594773536,0.472217955383706,0.472217955383706,0.473675865993967,0.527782044616294,0.5,0.445979594773536,0.445979594773536,0.5,0.526324134006033,0.445979594773536,0.5,0.472217955383706,0.472217955383706,0.552643502091445,0.553948360620409,0.446051639379591,0.527782044616294,0.473675865993967,0.304202436892368,0.568344450057829,0.472217955383706,0.0262383606101701,0.5,0.055564089232587,0.819117212527194,0.999181894152763,2.55991011928266,0.5,128.768775968057
CBC_1020,CBC_1020_MSI_AV_v3_Vset4_Aset3_2023-06-28_17h19.47.712.csv,4,28,0,1,b,1,0,3,aud,A,63,1,0A,1A,1,0,z,2.35211160000108,0,1,0,0,1A,0A,A01,3.76120011569356,0.554020405226464,0.445979594773536,0.472217955383706,0.472217955383706,0.473675865993967,0.554020405226464,0.5,0.445979594773536,0.445979594773536,0.5,0.526324134006033,0.445979594773536,0.5,0.472217955383706,0.472217955383706,0.552643502091445,0.393205778916886,0.606794221083114,0.445979594773536,0.554020405226464,0.110981130182041,0.366568660040007,-0.445979594773536,-0.0247804499999098,0.5,0.055564089232587,0.819117212527194,0.999181894152763,2.55991011928266,0.5,128.768775968057
CBC_1020,CBC_1020_MSI_AV_v3_Vset4_Aset3_2023-06-28_17h19.47.712.csv,4,29,3,2,z,0,1,2,aud,C,63,0,3C,2C,1,0,b,1.85520449999967,1,0,0,1,3C,2C,C32,2.68557734525015,0.554020405226464,0.421199144773627,0.472217955383706,0.472217955383706,0.473675865993967,0.554020405226464,0.5,0.445979594773536,0.445979594773536,0.5,0.526324134006033,0.445979594773536,0.5,0.472217955383706,0.472217955383706,0.552643502091445,0.420109888626839,0.579890111373161,0.445979594773536,0.526324134006033,0.175463277569751,0.398595236514194,0.554020405226464,0.0307836392326773,0.5,0.055564089232587,0.819117212527194,0.999181894152763,2.55991011928266,0.5,128.768775968057
CBC_1020,CBC_1020_MSI_AV_v3_Vset4_Aset3_2023-06-28_17h19.47.712.csv,4,30,3,1,b,1,0,1,aud,D,27,1,3D,1D,1,0,b,3.56040890000077,1,0,1,1,3D,1D,D31,3.80666248977032,0.554020405226464,0.421199144773627,0.472217955383706,0.472217955383706,0.473675865993967,0.554020405226464,0.5,0.445979594773536,0.445979594773536,0.5,0.526324134006033,0.476763234006214,0.5,0.472217955383706,0.472217955383706,0.552643502091445,0.579957779584982,0.420042220415018,0.552643502091445,0.472217955383706,0.0720754915053389,0.600829658886581,0.447356497908555,0.0248569563685686,0.5,0.055564089232587,0.819117212527194,0.999181894152763,2.55991011928266,0.5,128.768775968057
CBC_1020,CBC_1020_MSI_AV_v3_Vset4_Aset3_2023-06-28_17h19.47.712.csv,4,31,1,0,z,0,1,3,aud,A,63,0,1A,0A,1,0,z,1.82698659999915,0,1,1,0,0A,1A,A10,2.4423470353692,0.554020405226464,0.421199144773627,0.472217955383706,0.472217955383706,0.473675865993967,0.554020405226464,0.5,0.445979594773536,0.445979594773536,0.5,0.526324134006033,0.476763234006214,0.5,0.472217955383706,0.472217955383706,0.577500458460014,0.630597522047657,0.369402477952343,0.554020405226464,0.421199144773627,0.300505354976376,0.660578326341268,-0.554020405226464,-0.0307836392326773,0.5,0.055564089232587,0.819117212527194,0.999181894152763,2.55991011928266,0.5,128.768775968057
CBC_1020,CBC_1020_MSI_AV_v3_Vset4_Aset3_2023-06-28_17h19.47.712.csv,4,32,3,2,b,1,0,1,aud,D,63,1,3D,2D,1,0,b,1.48904819999916,1,0,1,1,3D,2D,D32,2.46385324059017,0.523236765993786,0.421199144773627,0.472217955383706,0.472217955383706,0.473675865993967,0.554020405226464,0.5,0.445979594773536,0.445979594773536,0.5,0.526324134006033,0.476763234006214,0.5,0.472217955383706,0.472217955383706,0.577500458460014,0.604383501756265,0.395616498243735,0.577500458460014,0.472217955383706,0.352405457145825,0.629757327550084,0.422499541539986,0.0234758022268549,0.5,0.055564089232587,0.819117212527194,0.999181894152763,2.55991011928266,0.5,128.768775968057
CBC_1020,CBC_1020_MSI_AV_v3_Vset4_Aset3_2023-06-28_17h19.47.712.csv,4,33,2,1,z,0,1,0,aud,B,9,1,2B,1B,0,1,b,4.29995100000087,1,0,0,0,2B,1B,B21,3.87120101090789,0.523236765993786,0.421199144773627,0.472217955383706,0.472217955383706,0.473675865993967,0.554020405226464,0.5,0.445979594773536,0.445979594773536,0.5,0.526324134006033,0.476763234006214,0.5,0.472217955383706,0.472217955383706,0.600976260686868,0.445979594773536,0.554020405226464,0.5,0.554020405226464,0.0298176515697778,0.432199002690575,-0.5,-0.0277820446162935,0.5,0.055564089232587,0.819117212527194,0.999181894152763,2.55991011928266,0.5,128.768775968057
CBC_1020,CBC_1020_MSI_AV_v3_Vset4_Aset3_2023-06-28_17h19.47.712.csv,4,34,1,0,z,0,1,3,aud,A,63,1,1A,0A,0,1,z,1.22944760000064,0,1,1,1,0A,1A,A10,2.28238238567653,0.523236765993786,0.421199144773627,0.472217955383706,0.472217955383706,0.473675865993967,0.554020405226464,0.472217955383706,0.445979594773536,0.445979594773536,0.5,0.526324134006033,0.476763234006214,0.5,0.472217955383706,0.472217955383706,0.600976260686868,0.601295700298723,0.398704299701277,0.523236765993786,0.421199144773627,0.338451835341718,0.625805142302778,0.476763234006214,0.026490914877138,0.5,0.055564089232587,0.819117212527194,0.999181894152763,2.55991011928266,0.5,128.768775968057
CBC_1020,CBC_1020_MSI_AV_v3_Vset4_Aset3_2023-06-28_17h19.47.712.csv,4,35,2,1,b,1,0,2,aud,C,9,1,2C,1C,1,0,b,1.70495850000043,1,0,1,1,2C,1C,C21,3.91202300542815,0.549727680870924,0.421199144773627,0.472217955383706,0.472217955383706,0.473675865993967,0.554020405226464,0.472217955383706,0.445979594773536,0.445979594773536,0.5,0.526324134006033,0.476763234006214,0.5,0.472217955383706,0.472217955383706,0.600976260686868,0.526324134006033,0.473675865993967,0.526324134006033,0.5,0.258969001893581,0.533449719261953,0.473675865993967,0.0263193680854117,0.5,0.055564089232587,0.819117212527194,0.999181894152763,2.55991011928266,0.5,128.768775968057
CBC_1020,CBC_1020_MSI_AV_v3_Vset4_Aset3_2023-06-28_17h19.47.712.csv,4,36,1,0,b,1,0,0,aud,B,63,1,1B,0B,1,0,z,2.05977689999963,0,1,0,0,0B,1B,B10,2.32238772029023,0.549727680870924,0.421199144773627,0.472217955383706,0.472217955383706,0.473675865993967,0.554020405226464,0.472217955383706,0.445979594773536,0.445979594773536,0.5,0.552643502091445,0.476763234006214,0.5,0.472217955383706,0.472217955383706,0.600976260686868,0.420109888626839,0.579890111373161,0.473675865993967,0.554020405226464,0.150982715325297,0.399540405999978,-0.473675865993967,-0.0263193680854117,0.5,0.055564089232587,0.819117212527194,0.999181894152763,2.55991011928266,0.5,128.768775968057
CBC_1020,CBC_1020_MSI_AV_v3_Vset4_Aset3_2023-06-28_17h19.47.712.csv,4,37,0,1,b,1,0,3,aud,A,63,0,0A,1A,0,1,b,2.45405070000015,1,0,1,0,0A,1A,A01,3.25809653802148,0.549727680870924,0.421199144773627,0.472217955383706,0.472217955383706,0.447356497908555,0.554020405226464,0.472217955383706,0.445979594773536,0.445979594773536,0.5,0.552643502091445,0.476763234006214,0.5,0.472217955383706,0.472217955383706,0.600976260686868,0.626545026936788,0.373454973063212,0.549727680870924,0.421199144773627,0.183610063151228,0.656552386519979,-0.549727680870924,-0.0305451179135352,0.5,0.055564089232587,0.819117212527194,0.999181894152763,2.55991011928266,0.5,128.768775968057
CBC_1020,CBC_1020_MSI_AV_v3_Vset4_Aset3_2023-06-28_17h19.47.712.csv,4,38,0,1,z,0,1,0,aud,B,63,1,0B,1B,0,1,z,2.11811040000066,0,1,1,1,1B,0B,B01,3.27714473299218,0.519182562957389,0.421199144773627,0.472217955383706,0.472217955383706,0.447356497908555,0.554020405226464,0.472217955383706,0.445979594773536,0.445979594773536,0.5,0.552643502091445,0.476763234006214,0.5,0.472217955383706,0.472217955383706,0.600976260686868,0.605464220876778,0.394535779123222,0.554020405226464,0.447356497908555,0.229000514378701,0.631506012467592,0.445979594773536,0.0247804499999098,0.5,0.055564089232587,0.819117212527194,0.999181894152763,2.55991011928266,0.5,128.768775968057
CBC_1020,CBC_1020_MSI_AV_v3_Vset4_Aset3_2023-06-28_17h19.47.712.csv,4,39,1,3,z,0,1,1,aud,D,27,1,1D,3D,0,1,z,3.79183910000029,0,1,1,1,3D,1D,D13,3.29583686600433,0.519182562957389,0.421199144773627,0.472217955383706,0.472217955383706,0.447356497908555,0.578800855226373,0.472217955383706,0.445979594773536,0.445979594773536,0.5,0.552643502091445,0.476763234006214,0.5,0.472217955383706,0.472217955383706,0.600976260686868,0.627329501756857,0.372670498243143,0.600976260686868,0.472217955383706,0.0643293342375072,0.65799787995143,0.399023739313132,0.0221713906571154,0.5,0.055564089232587,0.819117212527194,0.999181894152763,2.55991011928266,0.5,128.768775968057
CBC_1020,CBC_1020_MSI_AV_v3_Vset4_Aset3_2023-06-28_17h19.47.712.csv,4,40,3,2,z,0,1,2,aud,C,63,1,3C,2C,0,1,b,1.0163790000006,1,0,0,0,3C,2C,C32,2.62103882411258,0.519182562957389,0.421199144773627,0.472217955383706,0.472217955383706,0.447356497908555,0.578800855226373,0.472217955383706,0.445979594773536,0.445979594773536,0.5,0.552643502091445,0.476763234006214,0.5,0.472217955383706,0.472217955383706,0.623147651343984,0.424489210658887,0.575510789341113,0.476763234006214,0.552643502091445,0.0754219133387449,0.404882504002582,-0.476763234006214,-0.026490914877138,0.5,0.055564089232587,0.819117212527194,0.999181894152763,2.55991011928266,0.5,128.768775968057
CBC_1020,CBC_1020_MSI_AV_v3_Vset4_Aset3_2023-06-28_17h19.47.712.csv,4,41,0,2,b,1,0,3,aud,A,27,1,0A,2A,1,0,z,1.01581330000045,0,1,0,0,2A,0A,A02,3.3322045101752,0.519182562957389,0.421199144773627,0.472217955383706,0.472217955383706,0.447356497908555,0.578800855226373,0.472217955383706,0.445979594773536,0.445979594773536,0.5,0.552643502091445,0.450272319129076,0.5,0.472217955383706,0.472217955383706,0.623147651343984,0.453135295008945,0.546864704991055,0.472217955383706,0.519182562957389,0.0806703659576987,0.440752427821588,-0.472217955383706,-0.0262383606101701,0.5,0.055564089232587,0.819117212527194,0.999181894152763,2.55991011928266,0.5,128.768775968057
CBC_1020,CBC_1020_MSI_AV_v3_Vset4_Aset3_2023-06-28_17h19.47.712.csv,4,42,2,3,z,0,1,1,aud,D,63,1,2D,3D,0,1,z,1.55937410000115,0,1,1,1,3D,2D,D23,2.94443897916644,0.519182562957389,0.421199144773627,0.445979594773536,0.472217955383706,0.447356497908555,0.578800855226373,0.472217955383706,0.445979594773536,0.445979594773536,0.5,0.552643502091445,0.450272319129076,0.5,0.472217955383706,0.472217955383706,0.623147651343984,0.648892081886219,0.351107918113781,0.623147651343984,0.472217955383706,0.374907423387285,0.681101135691947,0.376852348656016,0.0209394575282329,0.5,0.055564089232587,0.819117212527194,0.999181894152763,2.55991011928266,0.5,128.768775968057
CBC_1020,CBC_1020_MSI_AV_v3_Vset4_Aset3_2023-06-28_17h19.47.712.csv,4,43,1,3,b,1,0,0,aud,B,27,0,1B,3B,0,1,b,2.77400440000019,1,0,1,0,1B,3B,B13,3.36729582998647,0.519182562957389,0.421199144773627,0.445979594773536,0.472217955383706,0.447356497908555,0.578800855226373,0.472217955383706,0.445979594773536,0.445979594773536,0.5,0.552643502091445,0.450272319129076,0.5,0.472217955383706,0.472217955383706,0.644087108872217,0.630597522047657,0.369402477952343,0.578800855226373,0.445979594773536,0.143810723588139,0.661542325597041,-0.578800855226373,-0.0321605423676959,0.5,0.055564089232587,0.819117212527194,0.999181894152763,2.55991011928266,0.5,128.768775968057
CBC_1020,CBC_1020_MSI_AV_v3_Vset4_Aset3_2023-06-28_17h19.47.712.csv,4,44,3,2,z,0,1,2,aud,C,63,1,3C,2C,0,1,b,1.93368929999997,1,0,0,0,3C,2C,C32,2.46809953147162,0.519182562957389,0.421199144773627,0.445979594773536,0.472217955383706,0.447356497908555,0.546640312858677,0.472217955383706,0.445979594773536,0.445979594773536,0.5,0.552643502091445,0.450272319129076,0.5,0.472217955383706,0.472217955383706,0.644087108872217,0.398689673641603,0.601310326358397,0.450272319129076,0.552643502091445,0.155697299831481,0.373383322505197,-0.450272319129076,-0.0250189713190519,0.5,0.055564089232587,0.819117212527194,0.999181894152763,2.55991011928266,0.5,128.768775968057
