ID,session,trialNr,mod2Stim,visStimLeft,visStimRight,correctKey,frequency,rewardAccurate,probFB,stimPairLeft,stimPairRight,leftCorrect,rightCorrect,pCorrectLeft,pCorrectRight,triplet,rt,surprise,0A belief,1A belief,2A belief,3A belief,0B belief,1B belief,2B belief,3B belief,0C belief,1C belief,2C belief,3C belief,0D belief,1D belief,2D belief,3D belief,reactionTime,choice,choiceLeft,choiceRight,chosenPair,otherPair,beliefPair,beliefOtherPair,beliefPairNorm,beliefOtherPairNorm,choiceAccurate,reward,rewardPE,update2,sim_CBCsimpleRW_CBCdriftDiffusionLR_startBelief,sim_CBCsimpleRW_CBCdriftDiffusionLR_alpha1,sim_CBCsimpleRW_CBCdriftDiffusionLR_nonDecisionTime,sim_CBCsimpleRW_CBCdriftDiffusionLR_weight,sim_CBCsimpleRW_CBCdriftDiffusionLR_startingBoundary,sim_CBCsimpleRW_CBCdriftDiffusionLR_startingPoint,lik,corrLik,fitCBCsimpleRW_CBCdriftDiffusionLR_startBelief,fitCBCsimpleRW_CBCdriftDiffusionLR_alpha1,fitCBCsimpleRW_CBCdriftDiffusionLR_nonDecisionTime,fitCBCsimpleRW_CBCdriftDiffusionLR_weight,fitCBCsimpleRW_CBCdriftDiffusionLR_startingBoundary,fitCBCsimpleRW_CBCdriftDiffusionLR_startingPoint,fit_CBCsimpleRW_CBCdriftDiffusionLR_NLL
132,1,1,B,0,1,l,63,1,0.82,0B,1B,0,1,0,1,B01,2.63485112121598,2.77258872223978,0.5,0.5,0.5,0.5,0.5,0.5,0.5,0.5,0.5,0.5,0.5,0.5,0.5,0.5,0.5,0.5,4.23952575467159,1,1,0,0B,1B,0.5,0.5,0.5,0.5,0,0,-0.5,-0.0435665070068329,0.5,0.0556023349008653,0.355525754671594,10.8133663055848,4.48092063319066,0.5,0.0631947112344015,0.497333233668635,0.5,0.0871330140136658,0.568564465654237,7.90473818564067,4.0805802294669,0.5,93.9135212108243
132,1,2,A,0,1,a,63,1,0.82,0A,1A,1,0,1,0,A01,2.90311862154194,2.83321334405622,0.5,0.5,0.5,0.5,0.456433492993167,0.5,0.5,0.5,0.5,0.5,0.5,0.5,0.5,0.5,0.5,0.5,2.94952575467159,1,1,0,0A,1A,0.5,0.5,0.5,0.5,1,1,0.5,0.0435665070068329,0.5,0.0556023349008653,0.355525754671594,10.8133663055848,4.48092063319066,0.5,0.0920224294328055,0.499159797496207,0.5,0.0871330140136658,0.568564465654237,7.90473818564067,4.0805802294669,0.5,93.9135212108243
132,1,3,D,2,3,l,63,1,0.82,2D,3D,0,1,0,1,D23,0.478003257834903,2.89037175789616,0.543566507006833,0.5,0.5,0.5,0.456433492993167,0.5,0.5,0.5,0.5,0.5,0.5,0.5,0.5,0.5,0.5,0.5,1.78052575467159,0,0,1,3D,2D,0.5,0.5,0.5,0.5,1,1,0.5,0.0435665070068329,0.5,0.0556023349008653,0.355525754671594,10.8133663055848,4.48092063319066,0.5,0.108838725750271,0.496851174230022,0.5,0.0871330140136658,0.568564465654237,7.90473818564067,4.0805802294669,0.5,93.9135212108243
132,1,4,B,2,1,l,9,1,0.82,2B,1B,0,1,0,1,B21,1.52175643809735,2.94443897916644,0.543566507006833,0.5,0.5,0.5,0.456433492993167,0.5,0.5,0.5,0.5,0.5,0.5,0.5,0.5,0.5,0.5,0.543566507006833,1.80852575467159,1,1,0,2B,1B,0.5,0.5,0.5,0.5,0,0,-0.5,-0.0435665070068329,0.5,0.0556023349008653,0.355525754671594,10.8133663055848,4.48092063319066,0.5,0.11018261150019,0.500724772765404,0.5,0.0871330140136658,0.568564465654237,7.90473818564067,4.0805802294669,0.5,93.9135212108243
132,1,5,A,0,2,a,27,1,0.82,0A,2A,1,0,1,0,A02,1.30830036964511,2.99573227355399,0.543566507006833,0.5,0.5,0.5,0.456433492993167,0.5,0.456433492993167,0.5,0.5,0.5,0.5,0.5,0.5,0.5,0.5,0.543566507006833,7.58352575467159,0,0,1,2A,0A,0.5,0.543566507006833,0.479126147344556,0.520873852655444,0,0,-0.5,-0.0435665070068329,0.5,0.0556023349008653,0.355525754671594,10.8133663055848,4.48092063319066,0.5,0.00816663401775013,0.205554811721871,0.5,0.0871330140136658,0.568564465654237,7.90473818564067,4.0805802294669,0.5,93.9135212108243
132,1,6,C,2,3,a,63,1,0.82,2C,3C,1,0,1,0,C23,0.932961891146851,3.04452243772342,0.543566507006833,0.5,0.456433492993167,0.5,0.456433492993167,0.5,0.456433492993167,0.5,0.5,0.5,0.5,0.5,0.5,0.5,0.5,0.543566507006833,5.43052575467159,0,0,1,3C,2C,0.5,0.5,0.5,0.5,0,0,-0.5,-0.0435665070068329,0.5,0.0556023349008653,0.355525754671594,10.8133663055848,4.48092063319066,0.5,0.0445259536948147,0.498506041099312,0.5,0.0871330140136658,0.568564465654237,7.90473818564067,4.0805802294669,0.5,93.9135212108243
132,1,7,D,1,3,l,27,1,0.82,1D,3D,0,1,0,1,D13,3.13239594213755,3.09104245335832,0.543566507006833,0.5,0.456433492993167,0.5,0.456433492993167,0.5,0.456433492993167,0.5,0.5,0.5,0.5,0.456433492993167,0.5,0.5,0.5,0.543566507006833,7.16152575467159,0,0,1,3D,1D,0.543566507006833,0.5,0.520873852655444,0.479126147344556,1,1,0.456433492993167,0.0397704259412801,0.5,0.0556023349008653,0.355525754671594,10.8133663055848,4.48092063319066,0.5,0.0366118564866163,0.793693236445349,0.5,0.0871330140136658,0.568564465654237,7.90473818564067,4.0805802294669,0.5,93.9135212108243
132,1,8,A,1,0,l,63,0,0.82,1A,0A,0,1,1,0,A10,0.846739392846649,3.13549421592915,0.543566507006833,0.5,0.456433492993167,0.5,0.456433492993167,0.5,0.456433492993167,0.5,0.5,0.5,0.5,0.456433492993167,0.5,0.5,0.5,0.583336932948113,2.38552575467159,1,1,0,1A,0A,0.5,0.543566507006833,0.479126147344556,0.520873852655444,0,1,0.5,0.0435665070068329,0.5,0.0556023349008653,0.355525754671594,10.8133663055848,4.48092063319066,0.5,0.0485882785412756,0.205241273537145,0.5,0.0871330140136658,0.568564465654237,7.90473818564067,4.0805802294669,0.5,93.9135212108243
132,1,9,C,2,0,a,27,1,0.82,2C,0C,1,0,1,0,C20,3.13061243770567,3.17805383034795,0.543566507006833,0.543566507006833,0.456433492993167,0.5,0.456433492993167,0.5,0.456433492993167,0.5,0.5,0.5,0.5,0.456433492993167,0.5,0.5,0.5,0.583336932948113,2.85452575467159,0,0,1,0C,2C,0.5,0.5,0.5,0.5,0,0,-0.5,-0.0435665070068329,0.5,0.0556023349008653,0.355525754671594,10.8133663055848,4.48092063319066,0.5,0.0947945794589119,0.501278505896657,0.5,0.0871330140136658,0.568564465654237,7.90473818564067,4.0805802294669,0.5,93.9135212108243
132,1,10,D,2,3,l,63,1,0.82,2D,3D,0,1,0,1,D23,0.511614985558813,2.52572864430826,0.543566507006833,0.543566507006833,0.456433492993167,0.5,0.456433492993167,0.5,0.456433492993167,0.5,0.456433492993167,0.5,0.5,0.456433492993167,0.5,0.5,0.5,0.583336932948113,5.03152575467159,0,0,1,3D,2D,0.583336932948113,0.5,0.538463072020136,0.461536927979864,1,1,0.416663067051887,0.036305108860409,0.5,0.0556023349008653,0.355525754671594,10.8133663055848,4.48092063319066,0.5,0.0762086182751545,0.92253476744109,0.5,0.0871330140136658,0.568564465654237,7.90473818564067,4.0805802294669,0.5,93.9135212108243
132,1,11,B,1,0,a,63,0,0.82,1B,0B,1,0,0,1,B10,1.98844340717686,3.25809653802148,0.543566507006833,0.543566507006833,0.456433492993167,0.5,0.456433492993167,0.5,0.456433492993167,0.5,0.456433492993167,0.5,0.5,0.456433492993167,0.5,0.5,0.5,0.619642041808522,7.4125257546716,1,1,0,1B,0B,0.5,0.456433492993167,0.522775502596888,0.477224497403112,1,0,-0.5,-0.0435665070068329,0.5,0.0556023349008653,0.355525754671594,10.8133663055848,4.48092063319066,0.5,0.0331816986057253,0.813942394754714,0.5,0.0871330140136658,0.568564465654237,7.90473818564067,4.0805802294669,0.5,93.9135212108243
132,1,12,A,0,1,a,63,1,0.82,0A,1A,1,0,1,0,A01,1.74597510534135,2.60268968544438,0.543566507006833,0.543566507006833,0.456433492993167,0.5,0.456433492993167,0.456433492993167,0.456433492993167,0.5,0.456433492993167,0.5,0.5,0.456433492993167,0.5,0.5,0.5,0.619642041808522,3.43052575467159,1,1,0,0A,1A,0.543566507006833,0.543566507006833,0.5,0.5,1,1,0.456433492993167,0.0397704259412801,0.5,0.0556023349008653,0.355525754671594,10.8133663055848,4.48092063319066,0.5,0.0802175654461705,0.498159796461363,0.5,0.0871330140136658,0.568564465654237,7.90473818564067,4.0805802294669,0.5,93.9135212108243
132,1,13,D,2,3,l,63,1,0.82,2D,3D,0,1,0,1,D23,1.70428333179808,2.23359222150709,0.583336932948113,0.543566507006833,0.456433492993167,0.5,0.456433492993167,0.456433492993167,0.456433492993167,0.5,0.456433492993167,0.5,0.5,0.456433492993167,0.5,0.5,0.5,0.619642041808522,3.41552575467159,0,0,1,3D,2D,0.619642041808522,0.5,0.553428701915868,0.446571298084132,1,1,0.380357958191478,0.0331417353013074,0.5,0.0556023349008653,0.355525754671594,10.8133663055848,4.48092063319066,0.5,0.164066989305707,0.969213918184204,0.5,0.0871330140136658,0.568564465654237,7.90473818564067,4.0805802294669,0.5,93.9135212108243
132,1,14,C,2,0,a,27,0,0.82,2C,0C,1,0,0,1,C20,1.87508739322388,2.67414864942653,0.583336932948113,0.543566507006833,0.456433492993167,0.5,0.456433492993167,0.456433492993167,0.456433492993167,0.5,0.456433492993167,0.5,0.5,0.456433492993167,0.5,0.5,0.5,0.652783777109829,9.42352575467159,1,1,0,2C,0C,0.5,0.456433492993167,0.522775502596888,0.477224497403112,1,0,-0.5,-0.0435665070068329,0.5,0.0556023349008653,0.355525754671594,10.8133663055848,4.48092063319066,0.5,0.0160853230521238,0.812094293976188,0.5,0.0871330140136658,0.568564465654237,7.90473818564067,4.0805802294669,0.5,93.9135212108243
132,1,15,A,0,1,a,63,1,0.82,0A,1A,1,0,1,0,A01,0.428152244344788,2.30258509299405,0.583336932948113,0.543566507006833,0.456433492993167,0.5,0.456433492993167,0.456433492993167,0.456433492993167,0.5,0.456433492993167,0.5,0.456433492993167,0.456433492993167,0.5,0.5,0.5,0.652783777109829,2.15752575467159,1,1,0,0A,1A,0.583336932948113,0.543566507006833,0.517645888960491,0.482354111039509,1,1,0.416663067051887,0.036305108860409,0.5,0.0556023349008653,0.355525754671594,10.8133663055848,4.48092063319066,0.5,0.18207356760953,0.757267755590603,0.5,0.0871330140136658,0.568564465654237,7.90473818564067,4.0805802294669,0.5,93.9135212108243
132,1,16,B,1,3,a,27,1,0.82,1B,3B,1,0,1,0,B13,1.02890891694546,3.43398720448515,0.619642041808522,0.543566507006833,0.456433492993167,0.5,0.456433492993167,0.456433492993167,0.456433492993167,0.5,0.456433492993167,0.5,0.456433492993167,0.456433492993167,0.5,0.5,0.5,0.652783777109829,9.27552575467159,0,0,1,3B,1B,0.5,0.456433492993167,0.522775502596888,0.477224497403112,0,0,-0.5,-0.0435665070068329,0.5,0.0556023349008653,0.355525754671594,10.8133663055848,4.48092063319066,0.5,0.0169225980872357,0.813593300097184,0.5,0.0871330140136658,0.568564465654237,7.90473818564067,4.0805802294669,0.5,93.9135212108243
132,1,17,C,3,2,l,63,1,0.82,3C,2C,0,1,0,1,C32,1.576192731852,3.46573590279973,0.619642041808522,0.543566507006833,0.456433492993167,0.5,0.456433492993167,0.456433492993167,0.456433492993167,0.456433492993167,0.456433492993167,0.5,0.456433492993167,0.456433492993167,0.5,0.5,0.5,0.652783777109829,10.2985257546716,0,0,1,2C,3C,0.456433492993167,0.456433492993167,0.5,0.5,1,1,0.543566507006833,0.0473625880723857,0.5,0.0556023349008653,0.355525754671594,10.8133663055848,4.48092063319066,0.5,0.0105428666112221,0.499528519413799,0.5,0.0871330140136658,0.568564465654237,7.90473818564067,4.0805802294669,0.5,93.9135212108243
132,1,18,D,2,3,l,63,0,0.82,2D,3D,0,1,1,0,D23,2.84355506477707,2.11021320034659,0.619642041808522,0.543566507006833,0.456433492993167,0.5,0.456433492993167,0.456433492993167,0.456433492993167,0.456433492993167,0.456433492993167,0.5,0.503796081065553,0.456433492993167,0.5,0.5,0.5,0.652783777109829,2.02152575467159,0,0,1,3D,2D,0.652783777109829,0.5,0.566267317489875,0.433732682510125,1,0,-0.652783777109829,-0.0568790179988045,0.5,0.0556023349008653,0.355525754671594,10.8133663055848,4.48092063319066,0.5,0.42343937015153,0.986205478700079,0.5,0.0871330140136658,0.568564465654237,7.90473818564067,4.0805802294669,0.5,93.9135212108243
132,1,19,B,1,0,a,63,1,0.82,1B,0B,1,0,1,0,B10,3.00809209024701,2.83321334405622,0.619642041808522,0.543566507006833,0.456433492993167,0.5,0.456433492993167,0.456433492993167,0.456433492993167,0.456433492993167,0.456433492993167,0.5,0.503796081065553,0.456433492993167,0.5,0.5,0.5,0.595904759111025,3.69152575467159,1,1,0,1B,0B,0.456433492993167,0.456433492993167,0.5,0.5,1,1,0.543566507006833,0.0473625880723857,0.5,0.0556023349008653,0.355525754671594,10.8133663055848,4.48092063319066,0.5,0.0748511778514985,0.501430004861072,0.5,0.0871330140136658,0.568564465654237,7.90473818564067,4.0805802294669,0.5,93.9135212108243
132,1,20,A,2,0,l,27,1,0.82,2A,0A,0,1,0,1,A20,0.83725746888628,3.55534806148941,0.619642041808522,0.543566507006833,0.456433492993167,0.5,0.456433492993167,0.503796081065553,0.456433492993167,0.456433492993167,0.456433492993167,0.5,0.503796081065553,0.456433492993167,0.5,0.5,0.5,0.595904759111025,1.67252575467159,0,0,1,0A,2A,0.619642041808522,0.456433492993167,0.575835080130055,0.424164919869945,1,1,0.380357958191478,0.0331417353013074,0.5,0.0556023349008653,0.355525754671594,10.8133663055848,4.48092063319066,0.5,0.556103908909548,0.992554482615734,0.5,0.0871330140136658,0.568564465654237,7.90473818564067,4.0805802294669,0.5,93.9135212108243
132,1,21,D,0,3,l,9,1,0.82,0D,3D,0,1,0,1,D03,3.27168492749484,3.58351893845611,0.652783777109829,0.543566507006833,0.456433492993167,0.5,0.456433492993167,0.503796081065553,0.456433492993167,0.456433492993167,0.456433492993167,0.5,0.503796081065553,0.456433492993167,0.5,0.5,0.5,0.595904759111025,3.20752575467159,0,0,1,3D,0D,0.595904759111025,0.5,0.543755973461061,0.456244026538939,1,1,0.404095240888975,0.0352100362872347,0.5,0.0556023349008653,0.355525754671594,10.8133663055848,4.48092063319066,0.5,0.187232918301326,0.944129153797492,0.5,0.0871330140136658,0.568564465654237,7.90473818564067,4.0805802294669,0.5,93.9135212108243
132,1,22,C,2,3,a,63,1,0.82,2C,3C,1,0,1,0,C23,3.43398486695973,2.91777073208428,0.652783777109829,0.543566507006833,0.456433492993167,0.5,0.456433492993167,0.503796081065553,0.456433492993167,0.456433492993167,0.456433492993167,0.5,0.503796081065553,0.456433492993167,0.5,0.5,0.5,0.63111479539826,3.25252575467159,0,0,1,3C,2C,0.456433492993167,0.503796081065553,0.475337883068841,0.524662116931159,0,0,-0.456433492993167,-0.0397704259412801,0.5,0.0556023349008653,0.355525754671594,10.8133663055848,4.48092063319066,0.5,0.0312078715769915,0.169388943409565,0.5,0.0871330140136658,0.568564465654237,7.90473818564067,4.0805802294669,0.5,93.9135212108243
132,1,23,B,3,1,l,27,1,0.82,3B,1B,0,1,0,1,B31,1.81392332278841,3.63758615972639,0.652783777109829,0.543566507006833,0.456433492993167,0.5,0.456433492993167,0.503796081065553,0.456433492993167,0.456433492993167,0.456433492993167,0.5,0.503796081065553,0.416663067051887,0.5,0.5,0.5,0.63111479539826,2.23052575467159,0,0,1,1B,3B,0.503796081065553,0.456433492993167,0.524662116931159,0.475337883068841,1,1,0.496203918934447,0.0432357430221511,0.5,0.0556023349008653,0.355525754671594,10.8133663055848,4.48092063319066,0.5,0.212230092279112,0.831205164010502,0.5,0.0871330140136658,0.568564465654237,7.90473818564067,4.0805802294669,0.5,93.9135212108243
132,1,24,C,3,2,l,63,1,0.82,3C,2C,0,1,0,1,C32,2.16638617983526,2.9704144655697,0.652783777109829,0.543566507006833,0.456433492993167,0.5,0.456433492993167,0.547031824087704,0.456433492993167,0.456433492993167,0.456433492993167,0.5,0.503796081065553,0.416663067051887,0.5,0.5,0.5,0.63111479539826,2.67852575467159,0,0,1,2C,3C,0.503796081065553,0.416663067051887,0.547331277108753,0.452668722891247,1,1,0.496203918934447,0.0432357430221511,0.5,0.0556023349008653,0.355525754671594,10.8133663055848,4.48092063319066,0.5,0.252114095125862,0.954761984082925,0.5,0.0871330140136658,0.568564465654237,7.90473818564067,4.0805802294669,0.5,93.9135212108243
132,1,25,D,2,3,l,63,1,0.82,2D,3D,0,1,0,1,D23,2.29819550425109,2.07944154167984,0.652783777109829,0.543566507006833,0.456433492993167,0.5,0.456433492993167,0.547031824087704,0.456433492993167,0.456433492993167,0.456433492993167,0.5,0.547031824087704,0.416663067051887,0.5,0.5,0.5,0.63111479539826,4.5595257546716,0,0,1,3D,2D,0.63111479539826,0.5,0.557958217827084,0.442041782172916,1,1,0.36888520460174,0.0321420797019974,0.5,0.0556023349008653,0.355525754671594,10.8133663055848,4.48092063319066,0.5,0.0701447936117078,0.976805763354972,0.5,0.0871330140136658,0.568564465654237,7.90473818564067,4.0805802294669,0.5,93.9135212108243
132,1,26,B,1,0,a,63,1,0.82,1B,0B,1,0,1,0,B10,1.18396011639618,2.6149597780362,0.652783777109829,0.543566507006833,0.456433492993167,0.5,0.456433492993167,0.547031824087704,0.456433492993167,0.456433492993167,0.456433492993167,0.5,0.547031824087704,0.416663067051887,0.5,0.5,0.5,0.663256875100257,1.38352575467159,1,1,0,1B,0B,0.547031824087704,0.456433492993167,0.545142731668142,0.454857268331858,1,1,0.452968175912296,0.0394684824195107,0.5,0.0556023349008653,0.355525754671594,10.8133663055848,4.48092063319066,0.5,0.300712027861381,0.948820007725852,0.5,0.0871330140136658,0.568564465654237,7.90473818564067,4.0805802294669,0.5,93.9135212108243
132,1,27,A,0,3,a,9,1,0.82,0A,3A,1,0,1,0,A03,1.22248166383239,3.73766961828337,0.652783777109829,0.543566507006833,0.456433492993167,0.5,0.456433492993167,0.586500306507215,0.456433492993167,0.456433492993167,0.456433492993167,0.5,0.547031824087704,0.416663067051887,0.5,0.5,0.5,0.663256875100257,2.82052575467159,1,1,0,0A,3A,0.652783777109829,0.5,0.566267317489875,0.433732682510125,1,1,0.347216222890171,0.0302539960148613,0.5,0.0556023349008653,0.355525754671594,10.8133663055848,4.48092063319066,0.5,0.235068836758075,0.986260216927754,0.5,0.0871330140136658,0.568564465654237,7.90473818564067,4.0805802294669,0.5,93.9135212108243
132,1,28,D,2,3,l,63,0,0.82,2D,3D,0,1,1,0,D23,2.79492421505385,1.96944064646551,0.683037773124691,0.543566507006833,0.456433492993167,0.5,0.456433492993167,0.586500306507215,0.456433492993167,0.456433492993167,0.456433492993167,0.5,0.547031824087704,0.416663067051887,0.5,0.5,0.5,0.663256875100257,3.81852575467159,0,0,1,3D,2D,0.663256875100257,0.5,0.570172323325485,0.429827676674515,1,0,-0.663256875100257,-0.0577915705927709,0.5,0.0556023349008653,0.355525754671594,10.8133663055848,4.48092063319066,0.5,0.0938977176974926,0.989213695462942,0.5,0.0871330140136658,0.568564465654237,7.90473818564067,4.0805802294669,0.5,93.9135212108243
132,1,29,C,2,0,a,27,1,0.82,2C,0C,1,0,1,0,C20,0.00429266250748034,2.68557734525015,0.683037773124691,0.543566507006833,0.456433492993167,0.5,0.456433492993167,0.586500306507215,0.456433492993167,0.456433492993167,0.456433492993167,0.5,0.547031824087704,0.416663067051887,0.5,0.5,0.5,0.605465304507486,3.09252575467159,0,0,1,0C,2C,0.456433492993167,0.547031824087704,0.454857268331858,0.545142731668142,0,0,-0.456433492993167,-0.0397704259412801,0.5,0.0556023349008653,0.355525754671594,10.8133663055848,4.48092063319066,0.5,0.0108657379918908,0.051557260948596,0.5,0.0871330140136658,0.568564465654237,7.90473818564067,4.0805802294669,0.5,93.9135212108243
132,1,30,A,1,0,l,63,0,0.82,1A,0A,0,1,1,0,A10,1.91469204984303,3.11351530921037,0.683037773124691,0.543566507006833,0.456433492993167,0.5,0.456433492993167,0.586500306507215,0.456433492993167,0.456433492993167,0.416663067051887,0.5,0.547031824087704,0.416663067051887,0.5,0.5,0.5,0.605465304507486,2.09152575467159,0,0,1,0A,1A,0.683037773124691,0.543566507006833,0.556852592305851,0.443147407694149,1,0,-0.683037773124691,-0.0595151398575368,0.5,0.0556023349008653,0.355525754671594,10.8133663055848,4.48092063319066,0.5,0.373516458464215,0.975114933513419,0.5,0.0871330140136658,0.568564465654237,7.90473818564067,4.0805802294669,0.5,93.9135212108243
132,1,31,B,1,0,a,63,1,0.82,1B,0B,1,0,1,0,B10,0.459951292763904,2.4423470353692,0.623522633267154,0.543566507006833,0.456433492993167,0.5,0.456433492993167,0.586500306507215,0.456433492993167,0.456433492993167,0.416663067051887,0.5,0.547031824087704,0.416663067051887,0.5,0.5,0.5,0.605465304507486,2.23152575467159,1,1,0,1B,0B,0.586500306507215,0.456433492993167,0.562356217420682,0.437643782579318,1,1,0.413499693492785,0.0360294745877534,0.5,0.0556023349008653,0.355525754671594,10.8133663055848,4.48092063319066,0.5,0.361388941530705,0.982306287001918,0.5,0.0871330140136658,0.568564465654237,7.90473818564067,4.0805802294669,0.5,93.9135212108243
132,1,32,D,3,1,a,27,1,0.82,3D,1D,1,0,1,0,D31,1.32333595279687,3.85014760171006,0.623522633267154,0.543566507006833,0.456433492993167,0.5,0.456433492993167,0.622529781094968,0.456433492993167,0.456433492993167,0.416663067051887,0.5,0.547031824087704,0.416663067051887,0.5,0.5,0.5,0.605465304507486,5.11352575467159,1,1,0,3D,1D,0.605465304507486,0.5,0.547701770502184,0.452298229497816,1,1,0.394534695492514,0.0343769971512266,0.5,0.0556023349008653,0.355525754671594,10.8133663055848,4.48092063319066,0.5,0.0626949823847257,0.956064155086915,0.5,0.0871330140136658,0.568564465654237,7.90473818564067,4.0805802294669,0.5,93.9135212108243
132,1,33,C,3,2,l,63,1,0.82,3C,2C,0,1,0,1,C32,3.39735047421896,2.77258872223978,0.623522633267154,0.543566507006833,0.456433492993167,0.5,0.456433492993167,0.622529781094968,0.456433492993167,0.456433492993167,0.416663067051887,0.5,0.547031824087704,0.416663067051887,0.5,0.5,0.5,0.639842301658713,2.06852575467159,0,0,1,2C,3C,0.547031824087704,0.416663067051887,0.567640058193965,0.432359941806035,1,1,0.452968175912296,0.0394684824195107,0.5,0.0556023349008653,0.355525754671594,10.8133663055848,4.48092063319066,0.5,0.41598330614376,0.987473268324898,0.5,0.0871330140136658,0.568564465654237,7.90473818564067,4.0805802294669,0.5,93.9135212108243
132,1,34,B,1,0,a,63,0,0.82,1B,0B,1,0,0,1,B10,0.55760229267599,2.28238238567653,0.623522633267154,0.543566507006833,0.456433492993167,0.5,0.456433492993167,0.622529781094968,0.456433492993167,0.456433492993167,0.416663067051887,0.5,0.586500306507215,0.416663067051887,0.5,0.5,0.5,0.639842301658713,0.930525754671594,1,1,0,1B,0B,0.622529781094968,0.456433492993167,0.57697031589985,0.42302968410015,1,0,-0.622529781094968,-0.0542428961400722,0.5,0.0556023349008653,0.355525754671594,10.8133663055848,4.48092063319066,0.5,0.108766736938178,0.993047892325337,0.5,0.0871330140136658,0.568564465654237,7.90473818564067,4.0805802294669,0.5,93.9135212108243
132,1,35,A,0,1,a,63,1,0.82,0A,1A,1,0,1,0,A01,1.58003022194608,2.52572864430826,0.623522633267154,0.543566507006833,0.456433492993167,0.5,0.456433492993167,0.568286884954896,0.456433492993167,0.456433492993167,0.416663067051887,0.5,0.586500306507215,0.416663067051887,0.5,0.5,0.5,0.639842301658713,1.06952575467159,1,1,0,0A,1A,0.623522633267154,0.543566507006833,0.534254507004302,0.465745492995698,1,1,0.376477366732846,0.0328036076713611,0.5,0.0556023349008653,0.355525754671594,10.8133663055848,4.48092063319066,0.5,0.101199470240245,0.901474678625583,0.5,0.0871330140136658,0.568564465654237,7.90473818564067,4.0805802294669,0.5,93.9135212108243
132,1,36,C,1,2,l,9,1,0.82,1C,2C,0,1,0,1,C12,0.485972874735764,3.93182563272433,0.656326240938515,0.543566507006833,0.456433492993167,0.5,0.456433492993167,0.568286884954896,0.456433492993167,0.456433492993167,0.416663067051887,0.5,0.586500306507215,0.416663067051887,0.5,0.5,0.5,0.639842301658713,2.04452575467159,0,0,1,2C,1C,0.586500306507215,0.5,0.53980684864475,0.46019315135525,1,1,0.413499693492785,0.0360294745877534,0.5,0.0556023349008653,0.355525754671594,10.8133663055848,4.48092063319066,0.5,0.298499296451873,0.928610576035594,0.5,0.0871330140136658,0.568564465654237,7.90473818564067,4.0805802294669,0.5,93.9135212108243
132,1,37,A,1,0,l,63,1,0.82,1A,0A,0,1,0,1,A10,1.42274357467705,2.85263142991332,0.656326240938515,0.543566507006833,0.456433492993167,0.5,0.456433492993167,0.568286884954896,0.456433492993167,0.456433492993167,0.416663067051887,0.5,0.622529781094968,0.416663067051887,0.5,0.5,0.5,0.639842301658713,1.62752575467159,0,0,1,0A,1A,0.656326240938515,0.543566507006833,0.546987422052833,0.453012577947167,1,1,0.343673759061485,0.0299453304644336,0.5,0.0556023349008653,0.355525754671594,10.8133663055848,4.48092063319066,0.5,0.356010684472082,0.954115005577452,0.5,0.0871330140136658,0.568564465654237,7.90473818564067,4.0805802294669,0.5,93.9135212108243
132,1,38,D,3,1,a,27,1,0.82,3D,1D,1,0,1,0,D31,2.65716119300659,3.27714473299218,0.686271571402949,0.543566507006833,0.456433492993167,0.5,0.456433492993167,0.568286884954896,0.456433492993167,0.456433492993167,0.416663067051887,0.5,0.622529781094968,0.416663067051887,0.5,0.5,0.5,0.639842301658713,1.69352575467159,1,1,0,3D,1D,0.639842301658713,0.5,0.561342828501457,0.438657171498543,1,1,0.360157698341287,0.031381625776701,0.5,0.0556023349008653,0.355525754671594,10.8133663055848,4.48092063319066,0.5,0.4570596946299,0.981249907231731,0.5,0.0871330140136658,0.568564465654237,7.90473818564067,4.0805802294669,0.5,93.9135212108243
132,1,39,B,0,1,l,63,1,0.82,0B,1B,0,1,0,1,B01,2.37685501979941,3.29583686600433,0.686271571402949,0.543566507006833,0.456433492993167,0.5,0.456433492993167,0.568286884954896,0.456433492993167,0.456433492993167,0.416663067051887,0.5,0.622529781094968,0.416663067051887,0.5,0.5,0.5,0.671223927435414,1.49452575467159,0,0,1,1B,0B,0.568286884954896,0.456433492993167,0.554577519081697,0.445422480918303,1,1,0.431713115045104,0.0376164649031084,0.5,0.0556023349008653,0.355525754671594,10.8133663055848,4.48092063319066,0.5,0.397538693461728,0.971281651356507,0.5,0.0871330140136658,0.568564465654237,7.90473818564067,4.0805802294669,0.5,93.9135212108243
132,1,40,C,2,3,a,63,0,0.82,2C,3C,1,0,0,1,C23,2.3808153071587,2.90872089656436,0.686271571402949,0.543566507006833,0.456433492993167,0.5,0.456433492993167,0.605903349858004,0.456433492993167,0.456433492993167,0.416663067051887,0.5,0.622529781094968,0.416663067051887,0.5,0.5,0.5,0.671223927435414,1.38252575467159,1,1,0,2C,3C,0.622529781094968,0.416663067051887,0.599051256179348,0.400948743820652,1,0,-0.622529781094968,-0.0542428961400722,0.5,0.0556023349008653,0.355525754671594,10.8133663055848,4.48092063319066,0.5,0.773028036892293,0.998322410234826,0.5,0.0871330140136658,0.568564465654237,7.90473818564067,4.0805802294669,0.5,93.9135212108243
132,1,41,A,2,0,l,27,1,0.82,2A,0A,0,1,0,1,A20,2.74633350040549,3.3322045101752,0.686271571402949,0.543566507006833,0.456433492993167,0.5,0.456433492993167,0.605903349858004,0.456433492993167,0.456433492993167,0.416663067051887,0.5,0.568286884954896,0.416663067051887,0.5,0.5,0.5,0.671223927435414,2.74652575467159,0,0,1,0A,2A,0.686271571402949,0.456433492993167,0.600567541691628,0.399432458308372,1,1,0.313728428597051,0.0273361035654322,0.5,0.0556023349008653,0.355525754671594,10.8133663055848,4.48092063319066,0.5,0.158653480533257,0.998487480757562,0.5,0.0871330140136658,0.568564465654237,7.90473818564067,4.0805802294669,0.5,93.9135212108243
132,1,42,D,3,2,a,63,1,0.82,3D,2D,1,0,1,0,D32,1.81741205947315,4.04305126783455,0.713607674968381,0.543566507006833,0.456433492993167,0.5,0.456433492993167,0.605903349858004,0.456433492993167,0.456433492993167,0.416663067051887,0.5,0.568286884954896,0.416663067051887,0.5,0.5,0.5,0.671223927435414,1.73152575467159,1,1,0,3D,2D,0.671223927435414,0.5,0.573096153273754,0.426903846726246,1,1,0.328776072564586,0.0286472501381281,0.5,0.0556023349008653,0.355525754671594,10.8133663055848,4.48092063319066,0.5,0.526885818385595,0.991125414657499,0.5,0.0871330140136658,0.568564465654237,7.90473818564067,4.0805802294669,0.5,93.9135212108243
132,1,43,B,3,1,l,27,1,0.82,3B,1B,0,1,0,1,B31,1.82399540713176,3.36729582998647,0.713607674968381,0.543566507006833,0.456433492993167,0.5,0.456433492993167,0.605903349858004,0.456433492993167,0.456433492993167,0.416663067051887,0.5,0.568286884954896,0.416663067051887,0.5,0.5,0.5,0.699871177573542,2.52752575467159,0,0,1,1B,3B,0.605903349858004,0.456433492993167,0.570349559026721,0.429650440973279,1,1,0.394096650141996,0.0343388289395613,0.5,0.0556023349008653,0.355525754671594,10.8133663055848,4.48092063319066,0.5,0.295246321992266,0.98941443748557,0.5,0.0871330140136658,0.568564465654237,7.90473818564067,4.0805802294669,0.5,93.9135212108243
132,1,44,C,2,3,a,63,1,0.82,2C,3C,1,0,1,0,C23,0.553780953467611,2.69124308278583,0.713607674968381,0.543566507006833,0.456433492993167,0.5,0.456433492993167,0.640242178797566,0.456433492993167,0.456433492993167,0.416663067051887,0.5,0.568286884954896,0.416663067051887,0.5,0.5,0.5,0.699871177573542,1.80852575467159,1,1,0,2C,3C,0.568286884954896,0.416663067051887,0.57697031589985,0.42302968410015,1,1,0.431713115045104,0.0376164649031084,0.5,0.0556023349008653,0.355525754671594,10.8133663055848,4.48092063319066,0.5,0.525881704850837,0.993056595754648,0.5,0.0871330140136658,0.568564465654237,7.90473818564067,4.0805802294669,0.5,93.9135212108243
