ID,session,trialNr,mod2Stim,visStimLeft,visStimRight,correctKey,frequency,rewardAccurate,probFB,stimPairLeft,stimPairRight,leftCorrect,rightCorrect,pCorrectLeft,pCorrectRight,triplet,rt,surprise,0A belief,1A belief,2A belief,3A belief,0B belief,1B belief,2B belief,3B belief,0C belief,1C belief,2C belief,3C belief,0D belief,1D belief,2D belief,3D belief,reactionTime,choice,choiceLeft,choiceRight,chosenPair,otherPair,beliefPair,beliefOtherPair,beliefPairNorm,beliefOtherPairNorm,choiceAccurate,reward,rewardPE,update2,sim_CBCsimpleRW_CBCdriftDiffusionLR_startBelief,sim_CBCsimpleRW_CBCdriftDiffusionLR_alpha1,sim_CBCsimpleRW_CBCdriftDiffusionLR_nonDecisionTime,sim_CBCsimpleRW_CBCdriftDiffusionLR_weight,sim_CBCsimpleRW_CBCdriftDiffusionLR_startingBoundary,sim_CBCsimpleRW_CBCdriftDiffusionLR_startingPoint,lik,corrLik,fitCBCsimpleRW_CBCdriftDiffusionLR_startBelief,fitCBCsimpleRW_CBCdriftDiffusionLR_alpha1,fitCBCsimpleRW_CBCdriftDiffusionLR_nonDecisionTime,fitCBCsimpleRW_CBCdriftDiffusionLR_weight,fitCBCsimpleRW_CBCdriftDiffusionLR_startingBoundary,fitCBCsimpleRW_CBCdriftDiffusionLR_startingPoint,fit_CBCsimpleRW_CBCdriftDiffusionLR_NLL
166,1,1,A,0,1,a,63,1,0.95,0A,1A,1,0,1,0,A01,2.06760121665865,2.77258872223978,0.5,0.5,0.5,0.5,0.5,0.5,0.5,0.5,0.5,0.5,0.5,0.5,0.5,0.5,0.5,0.5,2.9477126871801,1,1,0,0A,1A,0.5,0.5,0.5,0.5,1,1,0.5,0.318819157640697,0.5,0.381934020517659,1.0357126871801,3.63157764915659,4.375355778563,0.5,0.103853437772822,0.499023977013597,0.5,0.637638315281395,0.936227592567999,2.89422993028834,3.97241736851116,0.5,64.0479726248344
166,1,2,D,2,3,l,63,1,0.95,2D,3D,0,1,0,1,D23,0.396470969440976,2.83321334405622,0.818819157640697,0.5,0.5,0.5,0.5,0.5,0.5,0.5,0.5,0.5,0.5,0.5,0.5,0.5,0.5,0.5,2.2717126871801,0,0,1,3D,2D,0.5,0.5,0.5,0.5,1,1,0.5,0.318819157640697,0.5,0.381934020517659,1.0357126871801,3.63157764915659,4.375355778563,0.5,0.117427624697265,0.500871547433807,0.5,0.637638315281395,0.936227592567999,2.89422993028834,3.97241736851116,0.5,64.0479726248344
166,1,3,C,0,2,l,27,1,0.95,0C,2C,0,1,0,1,C02,3.06870697468432,2.89037175789616,0.818819157640697,0.5,0.5,0.5,0.5,0.5,0.5,0.5,0.5,0.5,0.5,0.5,0.5,0.5,0.5,0.818819157640697,1.6777126871801,1,1,0,0C,2C,0.5,0.5,0.5,0.5,0,0,-0.5,-0.318819157640697,0.5,0.381934020517659,1.0357126871801,3.63157764915659,4.375355778563,0.5,0.0865399795238994,0.498565603520113,0.5,0.637638315281395,0.936227592567999,2.89422993028834,3.97241736851116,0.5,64.0479726248344
166,1,4,A,0,1,a,63,1,0.95,0A,1A,1,0,1,0,A01,1.95644757967089,2.2512917986065,0.818819157640697,0.5,0.5,0.5,0.5,0.5,0.5,0.5,0.181180842359303,0.5,0.5,0.5,0.5,0.5,0.5,0.818819157640697,5.3877126871801,1,1,0,0A,1A,0.818819157640697,0.5,0.620872962677858,0.379127037322142,1,1,0.181180842359303,0.11552784708325,0.5,0.381934020517659,1.0357126871801,3.63157764915659,4.375355778563,0.5,0.0667387537329012,0.941730742978596,0.5,0.637638315281395,0.936227592567999,2.89422993028834,3.97241736851116,0.5,64.0479726248344
166,1,5,B,1,3,a,27,1,0.95,1B,3B,1,0,1,0,B13,0.825370734025593,2.99573227355399,0.934347004723947,0.5,0.5,0.5,0.5,0.5,0.5,0.5,0.181180842359303,0.5,0.5,0.5,0.5,0.5,0.5,0.818819157640697,1.7867126871801,0,0,1,3B,1B,0.5,0.5,0.5,0.5,0,0,-0.5,-0.318819157640697,0.5,0.381934020517659,1.0357126871801,3.63157764915659,4.375355778563,0.5,0.0996793640325401,0.501636081852948,0.5,0.637638315281395,0.936227592567999,2.89422993028834,3.97241736851116,0.5,64.0479726248344
166,1,6,C,3,2,l,63,1,0.95,3C,2C,0,1,0,1,C32,2.98336770977666,3.04452243772342,0.934347004723947,0.5,0.5,0.5,0.5,0.5,0.5,0.181180842359303,0.181180842359303,0.5,0.5,0.5,0.5,0.5,0.5,0.818819157640697,2.6857126871801,1,1,0,3C,2C,0.5,0.5,0.5,0.5,0,0,-0.5,-0.318819157640697,0.5,0.381934020517659,1.0357126871801,3.63157764915659,4.375355778563,0.5,0.110737376961911,0.4994721491761,0.5,0.637638315281395,0.936227592567999,2.89422993028834,3.97241736851116,0.5,64.0479726248344
166,1,7,D,3,2,a,63,1,0.95,3D,2D,1,0,1,0,D32,1.62312459825145,3.09104245335832,0.934347004723947,0.5,0.5,0.5,0.5,0.5,0.5,0.181180842359303,0.181180842359303,0.5,0.5,0.181180842359303,0.5,0.5,0.5,0.818819157640697,1.8007126871801,1,1,0,3D,2D,0.818819157640697,0.5,0.620872962677858,0.379127037322142,1,1,0.181180842359303,0.11552784708325,0.5,0.381934020517659,1.0357126871801,3.63157764915659,4.375355778563,0.5,0.326944847060651,0.941542438279137,0.5,0.637638315281395,0.936227592567999,2.89422993028834,3.97241736851116,0.5,64.0479726248344
166,1,8,B,0,1,l,63,1,0.95,0B,1B,0,1,0,1,B01,1.06643115464162,3.13549421592915,0.934347004723947,0.5,0.5,0.5,0.5,0.5,0.5,0.181180842359303,0.181180842359303,0.5,0.5,0.181180842359303,0.5,0.5,0.5,0.934347004723947,1.9887126871801,0,0,1,1B,0B,0.5,0.5,0.5,0.5,1,1,0.5,0.318819157640697,0.5,0.381934020517659,1.0357126871801,3.63157764915659,4.375355778563,0.5,0.112824170927012,0.50083317271209,0.5,0.637638315281395,0.936227592567999,2.89422993028834,3.97241736851116,0.5,64.0479726248344
166,1,9,A,2,0,l,27,1,0.95,2A,0A,0,1,0,1,A20,1.94629331224717,3.17805383034795,0.934347004723947,0.5,0.5,0.5,0.5,0.818819157640697,0.5,0.181180842359303,0.181180842359303,0.5,0.5,0.181180842359303,0.5,0.5,0.5,0.934347004723947,1.8157126871801,0,0,1,0A,2A,0.934347004723947,0.5,0.65140931841927,0.348590681580731,1,1,0.065652995276053,0.0418628653009998,0.5,0.381934020517659,1.0357126871801,3.63157764915659,4.375355778563,0.5,0.415393662898014,0.970286996196185,0.5,0.637638315281395,0.936227592567999,2.89422993028834,3.97241736851116,0.5,64.0479726248344
166,1,10,D,3,0,a,9,1,0.95,3D,0D,1,0,1,0,D30,3.43325338837951,3.2188758248682,0.976209870024947,0.5,0.5,0.5,0.5,0.818819157640697,0.5,0.181180842359303,0.181180842359303,0.5,0.5,0.181180842359303,0.5,0.5,0.5,0.934347004723947,3.8457126871801,1,1,0,3D,0D,0.934347004723947,0.5,0.65140931841927,0.348590681580731,1,1,0.065652995276053,0.0418628653009998,0.5,0.381934020517659,1.0357126871801,3.63157764915659,4.375355778563,0.5,0.149169811340478,0.970169746349915,0.5,0.637638315281395,0.936227592567999,2.89422993028834,3.97241736851116,0.5,64.0479726248344
166,1,11,C,2,3,a,63,1,0.95,2C,3C,1,0,1,0,C23,0.785645426773673,3.25809653802148,0.976209870024947,0.5,0.5,0.5,0.5,0.818819157640697,0.5,0.181180842359303,0.181180842359303,0.5,0.5,0.181180842359303,0.5,0.5,0.5,0.976209870024947,2.0947126871801,1,1,0,2C,3C,0.5,0.181180842359303,0.73401946870412,0.26598053129588,1,1,0.5,0.318819157640697,0.5,0.381934020517659,1.0357126871801,3.63157764915659,4.375355778563,0.5,0.589898758038151,0.995444228475228,0.5,0.637638315281395,0.936227592567999,2.89422993028834,3.97241736851116,0.5,64.0479726248344
166,1,12,B,0,1,l,63,1,0.95,0B,1B,0,1,0,1,B01,2.36289886487248,2.60268968544438,0.976209870024947,0.5,0.5,0.5,0.5,0.818819157640697,0.5,0.181180842359303,0.181180842359303,0.5,0.818819157640697,0.181180842359303,0.5,0.5,0.5,0.976209870024947,6.0037126871801,0,0,1,1B,0B,0.818819157640697,0.5,0.620872962677858,0.379127037322142,1,1,0.181180842359303,0.11552784708325,0.5,0.381934020517659,1.0357126871801,3.63157764915659,4.375355778563,0.5,0.0473364236321989,0.941698746947035,0.5,0.637638315281395,0.936227592567999,2.89422993028834,3.97241736851116,0.5,64.0479726248344
166,1,13,D,2,3,l,63,1,0.95,2D,3D,0,1,0,1,D23,2.12152983915373,2.63905732961526,0.976209870024947,0.5,0.5,0.5,0.5,0.934347004723947,0.5,0.181180842359303,0.181180842359303,0.5,0.818819157640697,0.181180842359303,0.5,0.5,0.5,0.976209870024947,2.1157126871801,0,0,1,3D,2D,0.976209870024947,0.5,0.661294772408241,0.338705227591759,1,1,0.0237901299750531,0.0151694983976183,0.5,0.381934020517659,1.0357126871801,3.63157764915659,4.375355778563,0.5,0.443877870202051,0.976094392963467,0.5,0.637638315281395,0.936227592567999,2.89422993028834,3.97241736851116,0.5,64.0479726248344
166,1,14,C,2,3,a,63,1,0.95,2C,3C,1,0,1,0,C23,0.206061032879683,2.67414864942653,0.976209870024947,0.5,0.5,0.5,0.5,0.934347004723947,0.5,0.181180842359303,0.181180842359303,0.5,0.818819157640697,0.181180842359303,0.5,0.5,0.5,0.991379368422565,1.2627126871801,1,1,0,2C,3C,0.818819157640697,0.181180842359303,0.818819157640697,0.181180842359303,1,1,0.181180842359303,0.11552784708325,0.5,0.381934020517659,1.0357126871801,3.63157764915659,4.375355778563,0.5,0.225953827666636,0.999342423576877,0.5,0.637638315281395,0.936227592567999,2.89422993028834,3.97241736851116,0.5,64.0479726248344
166,1,15,B,3,1,l,27,1,0.95,3B,1B,0,1,0,1,B31,0.819773942703614,3.40119738166216,0.976209870024947,0.5,0.5,0.5,0.5,0.934347004723947,0.5,0.181180842359303,0.181180842359303,0.5,0.934347004723947,0.181180842359303,0.5,0.5,0.5,0.991379368422565,2.6147126871801,0,0,1,1B,3B,0.934347004723947,0.181180842359303,0.837582860138335,0.162417139861665,1,1,0.065652995276053,0.0418628653009998,0.5,0.381934020517659,1.0357126871801,3.63157764915659,4.375355778563,0.5,0.221446351980829,0.999573745564555,0.5,0.637638315281395,0.936227592567999,2.89422993028834,3.97241736851116,0.5,64.0479726248344
166,1,16,A,0,3,a,9,1,0.95,0A,3A,1,0,1,0,A03,0.455726456338861,3.43398720448515,0.976209870024947,0.5,0.5,0.5,0.5,0.976209870024947,0.5,0.181180842359303,0.181180842359303,0.5,0.934347004723947,0.181180842359303,0.5,0.5,0.5,0.991379368422565,2.3077126871801,1,1,0,0A,3A,0.976209870024947,0.5,0.661294772408241,0.338705227591759,1,1,0.0237901299750531,0.0151694983976183,0.5,0.381934020517659,1.0357126871801,3.63157764915659,4.375355778563,0.5,0.411677254587858,0.976164121261932,0.5,0.637638315281395,0.936227592567999,2.89422993028834,3.97241736851116,0.5,64.0479726248344
166,1,17,D,2,3,l,63,1,0.95,2D,3D,0,1,0,1,D23,0.116358248993831,2.36712361413162,0.991379368422565,0.5,0.5,0.5,0.5,0.976209870024947,0.5,0.181180842359303,0.181180842359303,0.5,0.934347004723947,0.181180842359303,0.5,0.5,0.5,0.991379368422565,2.0887126871801,0,0,1,3D,2D,0.991379368422565,0.5,0.664739897448862,0.335260102551138,1,1,0.00862063157743487,0.00549684499569716,0.5,0.381934020517659,1.0357126871801,3.63157764915659,4.375355778563,0.5,0.455133390438742,0.977854707760604,0.5,0.637638315281395,0.936227592567999,2.89422993028834,3.97241736851116,0.5,64.0479726248344
166,1,18,C,0,2,l,27,1,0.95,0C,2C,0,1,0,1,C02,0.521609671225689,2.80336038090653,0.991379368422565,0.5,0.5,0.5,0.5,0.976209870024947,0.5,0.181180842359303,0.181180842359303,0.5,0.934347004723947,0.181180842359303,0.5,0.5,0.5,0.996876213418262,2.5507126871801,0,0,1,2C,0C,0.934347004723947,0.181180842359303,0.837582860138335,0.162417139861665,1,1,0.065652995276053,0.0418628653009998,0.5,0.381934020517659,1.0357126871801,3.63157764915659,4.375355778563,0.5,0.252872365440956,0.999575502903973,0.5,0.637638315281395,0.936227592567999,2.89422993028834,3.97241736851116,0.5,64.0479726248344
166,1,19,A,0,1,a,63,1,0.95,0A,1A,1,0,1,0,A01,0.395957911871093,2.42774823594805,0.991379368422565,0.5,0.5,0.5,0.5,0.976209870024947,0.5,0.181180842359303,0.181180842359303,0.5,0.976209870024947,0.181180842359303,0.5,0.5,0.5,0.996876213418262,6.5327126871801,1,1,0,0A,1A,0.991379368422565,0.5,0.664739897448862,0.335260102551138,1,1,0.00862063157743487,0.00549684499569716,0.5,0.381934020517659,1.0357126871801,3.63157764915659,4.375355778563,0.5,0.0180033582588647,0.977926117543923,0.5,0.637638315281395,0.936227592567999,2.89422993028834,3.97241736851116,0.5,64.0479726248344
166,1,20,B,1,0,a,63,0,0.95,1B,0B,1,0,0,1,B10,2.73494938650664,3.55534806148941,0.996876213418262,0.5,0.5,0.5,0.5,0.976209870024947,0.5,0.181180842359303,0.181180842359303,0.5,0.976209870024947,0.181180842359303,0.5,0.5,0.5,0.996876213418262,3.1367126871801,1,1,0,1B,0B,0.976209870024947,0.5,0.661294772408241,0.338705227591759,1,0,-0.976209870024947,-0.622468816883777,0.5,0.381934020517659,1.0357126871801,3.63157764915659,4.375355778563,0.5,0.241924310515117,0.97612843006905,0.5,0.637638315281395,0.936227592567999,2.89422993028834,3.97241736851116,0.5,64.0479726248344
166,1,21,D,3,1,a,27,1,0.95,3D,1D,1,0,1,0,D31,0.513549276460956,3.58351893845611,0.996876213418262,0.5,0.5,0.5,0.5,0.35374105314117,0.5,0.181180842359303,0.181180842359303,0.5,0.976209870024947,0.181180842359303,0.5,0.5,0.5,0.996876213418262,2.9617126871801,1,1,0,3D,1D,0.996876213418262,0.5,0.665971043217928,0.334028956782072,1,1,0.00312378658173773,0.00199184601327787,0.5,0.381934020517659,1.0357126871801,3.63157764915659,4.375355778563,0.5,0.274432204495517,0.978499465667043,0.5,0.637638315281395,0.936227592567999,2.89422993028834,3.97241736851116,0.5,64.0479726248344
166,1,22,C,3,2,l,63,1,0.95,3C,2C,0,1,0,1,C32,1.50112522955295,2.91777073208428,0.996876213418262,0.5,0.5,0.5,0.5,0.35374105314117,0.5,0.181180842359303,0.181180842359303,0.5,0.976209870024947,0.181180842359303,0.5,0.5,0.5,0.99886805943154,1.9297126871801,0,0,1,2C,3C,0.976209870024947,0.181180842359303,0.843457494154186,0.156542505845814,1,1,0.0237901299750531,0.0151694983976183,0.5,0.381934020517659,1.0357126871801,3.63157764915659,4.375355778563,0.5,0.800141656977875,0.999628761829082,0.5,0.637638315281395,0.936227592567999,2.89422993028834,3.97241736851116,0.5,64.0479726248344
166,1,23,B,0,1,l,63,1,0.95,0B,1B,0,1,0,1,B01,1.08436315211779,2.53897387105828,0.996876213418262,0.5,0.5,0.5,0.5,0.35374105314117,0.5,0.181180842359303,0.181180842359303,0.5,0.991379368422565,0.181180842359303,0.5,0.5,0.5,0.99886805943154,4.0157126871801,1,1,0,0B,1B,0.5,0.35374105314117,0.585657674725081,0.414342325274919,0,0,-0.5,-0.318819157640697,0.5,0.381934020517659,1.0357126871801,3.63157764915659,4.375355778563,0.5,0.139112068760294,0.877242581420028,0.5,0.637638315281395,0.936227592567999,2.89422993028834,3.97241736851116,0.5,64.0479726248344
166,1,24,A,0,2,a,27,1,0.95,0A,2A,1,0,1,0,A02,0.324376564935246,3.66356164612965,0.996876213418262,0.5,0.5,0.5,0.181180842359303,0.35374105314117,0.5,0.181180842359303,0.181180842359303,0.5,0.991379368422565,0.181180842359303,0.5,0.5,0.5,0.99886805943154,3.2097126871801,1,1,0,0A,2A,0.996876213418262,0.5,0.665971043217928,0.334028956782072,1,1,0.00312378658173773,0.00199184601327787,0.5,0.381934020517659,1.0357126871801,3.63157764915659,4.375355778563,0.5,0.228507946377406,0.978456614006369,0.5,0.637638315281395,0.936227592567999,2.89422993028834,3.97241736851116,0.5,64.0479726248344
166,1,25,D,3,2,a,63,1,0.95,3D,2D,1,0,1,0,D32,2.26332962122095,2.99573227355399,0.99886805943154,0.5,0.5,0.5,0.181180842359303,0.35374105314117,0.5,0.181180842359303,0.181180842359303,0.5,0.991379368422565,0.181180842359303,0.5,0.5,0.5,0.99886805943154,1.9647126871801,1,1,0,3D,2D,0.99886805943154,0.5,0.666414934354109,0.333585065645891,1,1,0.00113194056845989,0.000721768677071427,0.5,0.381934020517659,1.0357126871801,3.63157764915659,4.375355778563,0.5,0.469909853116529,0.978796473025401,0.5,0.637638315281395,0.936227592567999,2.89422993028834,3.97241736851116,0.5,64.0479726248344
166,1,26,C,0,2,l,27,1,0.95,0C,2C,0,1,0,1,C02,2.54313425786451,2.6149597780362,0.99886805943154,0.5,0.5,0.5,0.181180842359303,0.35374105314117,0.5,0.181180842359303,0.181180842359303,0.5,0.991379368422565,0.181180842359303,0.5,0.5,0.5,0.999589828108612,2.7467126871801,0,0,1,2C,0C,0.991379368422565,0.181180842359303,0.84548269616066,0.15451730383934,1,1,0.00862063157743487,0.00549684499569716,0.5,0.381934020517659,1.0357126871801,3.63157764915659,4.375355778563,0.5,0.154885809029878,0.999648570012709,0.5,0.637638315281395,0.936227592567999,2.89422993028834,3.97241736851116,0.5,64.0479726248344
166,1,27,B,0,1,l,63,1,0.95,0B,1B,0,1,0,1,B01,1.50988536933284,2.35137525716348,0.99886805943154,0.5,0.5,0.5,0.181180842359303,0.35374105314117,0.5,0.181180842359303,0.181180842359303,0.5,0.996876213418262,0.181180842359303,0.5,0.5,0.5,0.999589828108612,2.6027126871801,0,0,1,1B,0B,0.35374105314117,0.181180842359303,0.661294772408241,0.338705227591759,1,1,0.64625894685883,0.412079466110593,0.5,0.381934020517659,1.0357126871801,3.63157764915659,4.375355778563,0.5,0.348552596450459,0.976210516430435,0.5,0.637638315281395,0.936227592567999,2.89422993028834,3.97241736851116,0.5,64.0479726248344
166,1,28,A,1,0,l,63,1,0.95,1A,0A,0,1,0,1,A10,3.15224049810114,3.76120011569356,0.99886805943154,0.5,0.5,0.5,0.181180842359303,0.765820519251763,0.5,0.181180842359303,0.181180842359303,0.5,0.996876213418262,0.181180842359303,0.5,0.5,0.5,0.999589828108612,2.4377126871801,0,0,1,0A,1A,0.99886805943154,0.5,0.666414934354109,0.333585065645891,1,1,0.00113194056845989,0.000721768677071427,0.5,0.381934020517659,1.0357126871801,3.63157764915659,4.375355778563,0.5,0.390748575281096,0.978654725797971,0.5,0.637638315281395,0.936227592567999,2.89422993028834,3.97241736851116,0.5,64.0479726248344
166,1,29,C,2,3,a,63,1,0.95,2C,3C,1,0,1,0,C23,1.45196869466062,2.68557734525015,0.999589828108612,0.5,0.5,0.5,0.181180842359303,0.765820519251763,0.5,0.181180842359303,0.181180842359303,0.5,0.996876213418262,0.181180842359303,0.5,0.5,0.5,0.999589828108612,1.2657126871801,1,1,0,2C,3C,0.996876213418262,0.181180842359303,0.846203677936706,0.153796322063294,1,1,0.00312378658173773,0.00199184601327787,0.5,0.381934020517659,1.0357126871801,3.63157764915659,4.375355778563,0.5,0.290799339467056,0.999651379051648,0.5,0.637638315281395,0.936227592567999,2.89422993028834,3.97241736851116,0.5,64.0479726248344
166,1,30,D,1,3,l,27,1,0.95,1D,3D,0,1,0,1,D13,0.667445325645993,3.80666248977032,0.999589828108612,0.5,0.5,0.5,0.181180842359303,0.765820519251763,0.5,0.181180842359303,0.181180842359303,0.5,0.99886805943154,0.181180842359303,0.5,0.5,0.5,0.999589828108612,1.8997126871801,0,0,1,3D,1D,0.999589828108612,0.5,0.666575492426062,0.333424507573938,1,1,0.000410171891388478,0.000261541313800732,0.5,0.381934020517659,1.0357126871801,3.63157764915659,4.375355778563,0.5,0.46928732397714,0.978787695825544,0.5,0.637638315281395,0.936227592567999,2.89422993028834,3.97241736851116,0.5,64.0479726248344
166,1,31,A,0,1,a,63,1,0.95,0A,1A,1,0,1,0,A01,1.98878514806846,2.4423470353692,0.999589828108612,0.5,0.5,0.5,0.181180842359303,0.765820519251763,0.5,0.181180842359303,0.181180842359303,0.5,0.99886805943154,0.181180842359303,0.5,0.5,0.5,0.999851369422412,3.0717126871801,1,1,0,0A,1A,0.999589828108612,0.5,0.666575492426062,0.333424507573938,1,1,0.000410171891388478,0.000261541313800732,0.5,0.381934020517659,1.0357126871801,3.63157764915659,4.375355778563,0.5,0.253089580202241,0.978934859298303,0.5,0.637638315281395,0.936227592567999,2.89422993028834,3.97241736851116,0.5,64.0479726248344
166,1,32,D,2,3,l,63,1,0.95,2D,3D,0,1,0,1,D23,0.134366442197807,2.46385324059017,0.999851369422412,0.5,0.5,0.5,0.181180842359303,0.765820519251763,0.5,0.181180842359303,0.181180842359303,0.5,0.99886805943154,0.181180842359303,0.5,0.5,0.5,0.999851369422412,2.3577126871801,0,0,1,3D,2D,0.999851369422412,0.5,0.666633634376353,0.333366365623647,1,1,0.000148630577587738,9.47725510923461e-05,0.5,0.381934020517659,1.0357126871801,3.63157764915659,4.375355778563,0.5,0.409361559837459,0.978817198159913,0.5,0.637638315281395,0.936227592567999,2.89422993028834,3.97241736851116,0.5,64.0479726248344
166,1,33,B,1,2,a,9,1,0.95,1B,2B,1,0,1,0,B12,1.09560429665589,3.87120101090789,0.999851369422412,0.5,0.5,0.5,0.181180842359303,0.765820519251763,0.5,0.181180842359303,0.181180842359303,0.5,0.99886805943154,0.181180842359303,0.5,0.5,0.5,0.999946141973505,6.1497126871801,1,1,0,1B,2B,0.765820519251763,0.5,0.604999293031247,0.395000706968753,1,1,0.234179480748237,0.149321809577778,0.5,0.381934020517659,1.0357126871801,3.63157764915659,4.375355778563,0.5,0.0498216770350848,0.917701690874784,0.5,0.637638315281395,0.936227592567999,2.89422993028834,3.97241736851116,0.5,64.0479726248344
166,1,34,A,0,1,a,63,1,0.95,0A,1A,1,0,1,0,A01,2.19289659761648,2.28238238567653,0.999851369422412,0.5,0.5,0.5,0.181180842359303,0.915142328829541,0.5,0.181180842359303,0.181180842359303,0.5,0.99886805943154,0.181180842359303,0.5,0.5,0.5,0.999946141973505,3.5807126871801,1,1,0,0A,1A,0.999851369422412,0.5,0.666633634376353,0.333366365623647,1,1,0.000148630577587738,9.47725510923461e-05,0.5,0.381934020517659,1.0357126871801,3.63157764915659,4.375355778563,0.5,0.172156048868814,0.978778723193917,0.5,0.637638315281395,0.936227592567999,2.89422993028834,3.97241736851116,0.5,64.0479726248344
166,1,35,C,1,2,l,9,1,0.95,1C,2C,0,1,0,1,C12,0.323431939932972,3.91202300542815,0.999946141973505,0.5,0.5,0.5,0.181180842359303,0.915142328829541,0.5,0.181180842359303,0.181180842359303,0.5,0.99886805943154,0.181180842359303,0.5,0.5,0.5,0.999946141973505,3.6087126871801,0,0,1,2C,1C,0.99886805943154,0.5,0.666414934354109,0.333585065645891,1,1,0.00113194056845989,0.000721768677071427,0.5,0.381934020517659,1.0357126871801,3.63157764915659,4.375355778563,0.5,0.168592832375763,0.978695822212995,0.5,0.637638315281395,0.936227592567999,2.89422993028834,3.97241736851116,0.5,64.0479726248344
166,1,36,B,0,1,l,63,1,0.95,0B,1B,0,1,0,1,B01,0.278951902404614,2.32238772029023,0.999946141973505,0.5,0.5,0.5,0.181180842359303,0.915142328829541,0.5,0.181180842359303,0.181180842359303,0.5,0.999589828108612,0.181180842359303,0.5,0.5,0.5,0.999946141973505,2.2077126871801,0,0,1,1B,0B,0.915142328829541,0.181180842359303,0.834737742373144,0.165262257626856,1,1,0.0848576711704594,0.0541085024838343,0.5,0.381934020517659,1.0357126871801,3.63157764915659,4.375355778563,0.5,0.505368141786839,0.999545374602488,0.5,0.637638315281395,0.936227592567999,2.89422993028834,3.97241736851116,0.5,64.0479726248344
166,1,37,A,1,0,l,63,0,0.95,1A,0A,0,1,1,0,A10,0.820533492918607,3.25809653802148,0.999946141973505,0.5,0.5,0.5,0.181180842359303,0.969250831313375,0.5,0.181180842359303,0.181180842359303,0.5,0.999589828108612,0.181180842359303,0.5,0.5,0.5,0.999946141973505,2.5727126871801,0,0,1,0A,1A,0.999946141973505,0.5,0.666654697786588,0.333345302213413,1,0,-0.999946141973505,-0.637603973340116,0.5,0.381934020517659,1.0357126871801,3.63157764915659,4.375355778563,0.5,0.359597331328694,0.978735456147622,0.5,0.637638315281395,0.936227592567999,2.89422993028834,3.97241736851116,0.5,64.0479726248344
166,1,38,B,1,0,a,63,1,0.95,1B,0B,1,0,1,0,B10,3.33846649916577,3.27714473299218,0.362342168633389,0.5,0.5,0.5,0.181180842359303,0.969250831313375,0.5,0.181180842359303,0.181180842359303,0.5,0.999589828108612,0.181180842359303,0.5,0.5,0.5,0.999946141973505,1.7627126871801,1,1,0,1B,0B,0.969250831313375,0.181180842359303,0.842510557988294,0.157489442011706,1,1,0.030749168686625,0.019606848117643,0.5,0.381934020517659,1.0357126871801,3.63157764915659,4.375355778563,0.5,0.980433201136566,0.999621129419226,0.5,0.637638315281395,0.936227592567999,2.89422993028834,3.97241736851116,0.5,64.0479726248344
166,1,39,D,3,1,a,27,1,0.95,3D,1D,1,0,1,0,D31,2.64930352622811,3.29583686600433,0.362342168633389,0.5,0.5,0.5,0.181180842359303,0.988857679431018,0.5,0.181180842359303,0.181180842359303,0.5,0.999589828108612,0.181180842359303,0.5,0.5,0.5,0.999946141973505,2.2987126871801,1,1,0,3D,1D,0.999946141973505,0.5,0.666654697786588,0.333345302213413,1,1,5.38580264953792e-05,3.43419412788943e-05,0.5,0.381934020517659,1.0357126871801,3.63157764915659,4.375355778563,0.5,0.421916833641964,0.978722146561268,0.5,0.637638315281395,0.936227592567999,2.89422993028834,3.97241736851116,0.5,64.0479726248344
166,1,40,C,2,3,a,63,1,0.95,2C,3C,1,0,1,0,C23,0.508701581845858,2.62103882411258,0.362342168633389,0.5,0.5,0.5,0.181180842359303,0.988857679431018,0.5,0.181180842359303,0.181180842359303,0.5,0.999589828108612,0.181180842359303,0.5,0.5,0.5,0.999980483914784,1.7017126871801,1,1,0,2C,3C,0.999589828108612,0.181180842359303,0.846557128415542,0.153442871584458,1,1,0.000410171891388478,0.000261541313800732,0.5,0.381934020517659,1.0357126871801,3.63157764915659,4.375355778563,0.5,1.03594776185131,0.999653395274765,0.5,0.637638315281395,0.936227592567999,2.89422993028834,3.97241736851116,0.5,64.0479726248344
166,1,41,A,2,0,l,27,1,0.95,2A,0A,0,1,0,1,A20,2.27752425272014,3.3322045101752,0.362342168633389,0.5,0.5,0.5,0.181180842359303,0.988857679431018,0.5,0.181180842359303,0.181180842359303,0.5,0.999851369422412,0.181180842359303,0.5,0.5,0.5,0.999980483914784,5.5147126871801,1,1,0,2A,0A,0.5,0.362342168633389,0.579816247177595,0.420183752822405,0,0,-0.5,-0.318819157640697,0.5,0.381934020517659,1.0357126871801,3.63157764915659,4.375355778563,0.5,0.0730287104336871,0.862590363298848,0.5,0.637638315281395,0.936227592567999,2.89422993028834,3.97241736851116,0.5,64.0479726248344
166,1,42,D,3,2,a,63,1,0.95,3D,2D,1,0,1,0,D32,1.27869333633055,2.94443897916644,0.362342168633389,0.5,0.181180842359303,0.5,0.181180842359303,0.988857679431018,0.5,0.181180842359303,0.181180842359303,0.5,0.999851369422412,0.181180842359303,0.5,0.5,0.5,0.999980483914784,1.7387126871801,1,1,0,3D,2D,0.999980483914784,0.5,0.666662329702414,0.333337670297586,1,1,1.95160852164422e-05,1.24442036983003e-05,0.5,0.381934020517659,1.0357126871801,3.63157764915659,4.375355778563,0.5,0.441450535184182,0.97881643871665,0.5,0.637638315281395,0.936227592567999,2.89422993028834,3.97241736851116,0.5,64.0479726248344
166,1,43,B,3,1,l,27,1,0.95,3B,1B,0,1,0,1,B31,3.30798805778065,3.36729582998647,0.362342168633389,0.5,0.181180842359303,0.5,0.181180842359303,0.988857679431018,0.5,0.181180842359303,0.181180842359303,0.5,0.999851369422412,0.181180842359303,0.5,0.5,0.5,0.999992928118482,2.0857126871801,0,0,1,1B,3B,0.988857679431018,0.181180842359303,0.84514967756611,0.154850322433889,1,1,0.011142320568982,0.00710477051593092,0.5,0.381934020517659,1.0357126871801,3.63157764915659,4.375355778563,0.5,0.616604971920836,0.999642423878688,0.5,0.637638315281395,0.936227592567999,2.89422993028834,3.97241736851116,0.5,64.0479726248344
166,1,44,C,2,3,a,63,1,0.95,2C,3C,1,0,1,0,C23,2.18867671608305,2.46809953147162,0.362342168633389,0.5,0.181180842359303,0.5,0.181180842359303,0.995962449946949,0.5,0.181180842359303,0.181180842359303,0.5,0.999851369422412,0.181180842359303,0.5,0.5,0.5,0.999992928118482,2.4437126871801,1,1,0,2C,3C,0.999851369422412,0.181180842359303,0.846591108564286,0.153408891435714,1,1,0.000148630577587738,9.47725510923461e-05,0.5,0.381934020517659,1.0357126871801,3.63157764915659,4.375355778563,0.5,0.299350136739693,0.999654574994446,0.5,0.637638315281395,0.936227592567999,2.89422993028834,3.97241736851116,0.5,64.0479726248344
