ID,filename,session,trial,visStimLeft,visStimRight,correctKey,leftCorrect,rightCorrect,secondStim,mod2Type,mod2Stim,frequency,rewardAccurate,stimPairLeft,stimPairRight,pCorrectLeft,pCorrectRight,key,reactionTime,choiceLeft,choiceRight,choiceAccurate,reward,chosenPair,otherPair,triplet,surprise,0A belief,1A belief,2A belief,3A belief,0B belief,1B belief,2B belief,3B belief,0C belief,1C belief,2C belief,3C belief,0D belief,1D belief,2D belief,3D belief,beliefPairNorm,beliefOtherPairNorm,beliefPair,beliefOtherPair,lik,corrLik,rewardPE,update2,fitCBCsimpleRW_CBCdriftDiffusionLR_startBelief,fitCBCsimpleRW_CBCdriftDiffusionLR_alpha1,fitCBCsimpleRW_CBCdriftDiffusionLR_nonDecisionTime,fitCBCsimpleRW_CBCdriftDiffusionLR_weight,fitCBCsimpleRW_CBCdriftDiffusionLR_startingBoundary,fitCBCsimpleRW_CBCdriftDiffusionLR_startingPoint,fit_CBCsimpleRW_CBCdriftDiffusionLR_NLL
CBC_1058,CBC_1058_MSI_TV_v3_Vset4_Tset1_2024-01-26_14h07.19.138.csv,1,1,1,0,z,0,1,1,tac,A,63,1,1A,0A,0,1,z,2.48527519999971,0,1,1,1,0A,1A,A10,2.77258872223978,0.5,0.5,0.5,0.5,0.5,0.5,0.5,0.5,0.5,0.5,0.5,0.5,0.5,0.5,0.5,0.5,0.5,0.5,0.5,0.5,0.145548756280901,0.498611035450666,0.5,0.0773412929266396,0.5,0.154682585853279,0.89399008039021,5.3366360055258,2.96297403781836,0.5,58.9376474091144
CBC_1058,CBC_1058_MSI_TV_v3_Vset4_Tset1_2024-01-26_14h07.19.138.csv,1,2,3,2,b,1,0,0,tac,D,63,1,3D,2D,1,0,b,1.80769929999951,1,0,1,1,3D,2D,D32,2.83321334405622,0.57734129292664,0.5,0.5,0.5,0.5,0.5,0.5,0.5,0.5,0.5,0.5,0.5,0.5,0.5,0.5,0.5,0.5,0.5,0.5,0.5,0.203745129962923,0.500442370749083,0.5,0.0773412929266396,0.5,0.154682585853279,0.89399008039021,5.3366360055258,2.96297403781836,0.5,58.9376474091144
CBC_1058,CBC_1058_MSI_TV_v3_Vset4_Tset1_2024-01-26_14h07.19.138.csv,1,3,2,0,b,1,0,2,tac,C,27,1,2C,0C,1,0,z,2.6556359999995,0,1,0,0,0C,2C,C20,2.89037175789616,0.57734129292664,0.5,0.5,0.5,0.5,0.5,0.5,0.5,0.5,0.5,0.5,0.5,0.5,0.5,0.5,0.57734129292664,0.5,0.5,0.5,0.5,0.133003095997293,0.500793186753135,-0.5,-0.0773412929266396,0.5,0.154682585853279,0.89399008039021,5.3366360055258,2.96297403781836,0.5,58.9376474091144
CBC_1058,CBC_1058_MSI_TV_v3_Vset4_Tset1_2024-01-26_14h07.19.138.csv,1,4,1,0,z,0,1,1,tac,A,63,1,1A,0A,0,1,z,3.27118399999927,0,1,1,1,0A,1A,A10,2.2512917986065,0.57734129292664,0.5,0.5,0.5,0.5,0.5,0.5,0.5,0.42265870707336,0.5,0.5,0.5,0.5,0.5,0.5,0.57734129292664,0.535894518029908,0.464105481970092,0.57734129292664,0.5,0.139115271921873,0.755242102184805,0.42265870707336,0.0653779417435111,0.5,0.154682585853279,0.89399008039021,5.3366360055258,2.96297403781836,0.5,58.9376474091144
CBC_1058,CBC_1058_MSI_TV_v3_Vset4_Tset1_2024-01-26_14h07.19.138.csv,1,5,3,1,z,0,1,3,tac,B,27,1,3B,1B,0,1,z,2.73431889999938,0,1,1,1,1B,3B,B31,2.99573227355399,0.642719234670151,0.5,0.5,0.5,0.5,0.5,0.5,0.5,0.42265870707336,0.5,0.5,0.5,0.5,0.5,0.5,0.57734129292664,0.5,0.5,0.5,0.5,0.126919171766834,0.499333623301587,0.5,0.0773412929266396,0.5,0.154682585853279,0.89399008039021,5.3366360055258,2.96297403781836,0.5,58.9376474091144
CBC_1058,CBC_1058_MSI_TV_v3_Vset4_Tset1_2024-01-26_14h07.19.138.csv,1,6,2,3,b,1,0,2,tac,C,63,1,2C,3C,1,0,b,3.13196069999958,1,0,1,1,2C,3C,C23,3.04452243772342,0.642719234670151,0.5,0.5,0.5,0.5,0.57734129292664,0.5,0.5,0.42265870707336,0.5,0.5,0.5,0.5,0.5,0.5,0.57734129292664,0.5,0.5,0.5,0.5,0.101856144845994,0.500778504653106,0.5,0.0773412929266396,0.5,0.154682585853279,0.89399008039021,5.3366360055258,2.96297403781836,0.5,58.9376474091144
CBC_1058,CBC_1058_MSI_TV_v3_Vset4_Tset1_2024-01-26_14h07.19.138.csv,1,7,2,3,z,0,1,0,tac,D,63,0,2D,3D,1,0,z,1.98087609999948,0,1,1,0,3D,2D,D23,3.09104245335832,0.642719234670151,0.5,0.5,0.5,0.5,0.57734129292664,0.5,0.5,0.42265870707336,0.5,0.57734129292664,0.5,0.5,0.5,0.5,0.57734129292664,0.535894518029908,0.464105481970092,0.57734129292664,0.5,0.309426584922134,0.75710988639326,-0.57734129292664,-0.0893046441097682,0.5,0.154682585853279,0.89399008039021,5.3366360055258,2.96297403781836,0.5,58.9376474091144
CBC_1058,CBC_1058_MSI_TV_v3_Vset4_Tset1_2024-01-26_14h07.19.138.csv,1,8,1,0,b,1,0,3,tac,B,63,1,1B,0B,1,0,b,2.64649959999952,1,0,1,1,1B,0B,B10,3.13549421592915,0.642719234670151,0.5,0.5,0.5,0.5,0.57734129292664,0.5,0.5,0.42265870707336,0.5,0.57734129292664,0.5,0.5,0.5,0.5,0.488036648816871,0.535894518029908,0.464105481970092,0.57734129292664,0.5,0.20672155061936,0.755800821025194,0.42265870707336,0.0653779417435111,0.5,0.154682585853279,0.89399008039021,5.3366360055258,2.96297403781836,0.5,58.9376474091144
CBC_1058,CBC_1058_MSI_TV_v3_Vset4_Tset1_2024-01-26_14h07.19.138.csv,1,9,0,2,b,1,0,1,tac,A,27,1,0A,2A,1,0,b,1.73370199999954,1,0,1,1,0A,2A,A02,3.17805383034795,0.642719234670151,0.5,0.5,0.5,0.5,0.642719234670151,0.5,0.5,0.42265870707336,0.5,0.57734129292664,0.5,0.5,0.5,0.5,0.488036648816871,0.562447200650887,0.437552799349113,0.642719234670151,0.5,0.462950260487569,0.878050934812889,0.357280765329849,0.0552651126568597,0.5,0.154682585853279,0.89399008039021,5.3366360055258,2.96297403781836,0.5,58.9376474091144
CBC_1058,CBC_1058_MSI_TV_v3_Vset4_Tset1_2024-01-26_14h07.19.138.csv,1,10,0,3,z,0,1,0,tac,D,9,1,0D,3D,0,1,b,2.41724759999943,1,0,0,0,0D,3D,D03,3.2188758248682,0.69798434732701,0.5,0.5,0.5,0.5,0.642719234670151,0.5,0.5,0.42265870707336,0.5,0.57734129292664,0.5,0.5,0.5,0.5,0.488036648816871,0.506054102951269,0.493945897048731,0.5,0.488036648816871,0.16631596627841,0.548064040714577,-0.5,-0.0773412929266396,0.5,0.154682585853279,0.89399008039021,5.3366360055258,2.96297403781836,0.5,58.9376474091144
CBC_1058,CBC_1058_MSI_TV_v3_Vset4_Tset1_2024-01-26_14h07.19.138.csv,1,11,3,2,z,0,1,2,tac,C,63,1,3C,2C,0,1,b,2.86269159999938,1,0,0,0,3C,2C,C32,3.25809653802148,0.69798434732701,0.5,0.5,0.5,0.5,0.642719234670151,0.5,0.5,0.42265870707336,0.5,0.57734129292664,0.5,0.42265870707336,0.5,0.5,0.488036648816871,0.464105481970092,0.535894518029908,0.5,0.57734129292664,0.0580673811468252,0.24335735020495,-0.5,-0.0773412929266396,0.5,0.154682585853279,0.89399008039021,5.3366360055258,2.96297403781836,0.5,58.9376474091144
CBC_1058,CBC_1058_MSI_TV_v3_Vset4_Tset1_2024-01-26_14h07.19.138.csv,1,12,1,0,b,1,0,3,tac,B,63,1,1B,0B,1,0,b,2.54553589999978,1,0,1,1,1B,0B,B10,2.60268968544438,0.69798434732701,0.5,0.5,0.5,0.5,0.642719234670151,0.5,0.5,0.42265870707336,0.5,0.57734129292664,0.42265870707336,0.42265870707336,0.5,0.5,0.488036648816871,0.562447200650887,0.437552799349113,0.642719234670151,0.5,0.262643726315715,0.878326390529927,0.357280765329849,0.0552651126568597,0.5,0.154682585853279,0.89399008039021,5.3366360055258,2.96297403781836,0.5,58.9376474091144
CBC_1058,CBC_1058_MSI_TV_v3_Vset4_Tset1_2024-01-26_14h07.19.138.csv,1,13,3,2,b,1,0,0,tac,D,63,1,3D,2D,1,0,z,3.51866869999958,0,1,0,0,2D,3D,D32,2.63905732961526,0.69798434732701,0.5,0.5,0.5,0.5,0.69798434732701,0.5,0.5,0.42265870707336,0.5,0.57734129292664,0.42265870707336,0.42265870707336,0.5,0.5,0.488036648816871,0.506054102951269,0.493945897048731,0.5,0.488036648816871,0.0896943375725139,0.548511724082795,-0.5,-0.0773412929266396,0.5,0.154682585853279,0.89399008039021,5.3366360055258,2.96297403781836,0.5,58.9376474091144
CBC_1058,CBC_1058_MSI_TV_v3_Vset4_Tset1_2024-01-26_14h07.19.138.csv,1,14,3,2,z,0,1,2,tac,C,63,1,3C,2C,0,1,z,2.4793351999997,0,1,1,1,2C,3C,C32,2.67414864942653,0.69798434732701,0.5,0.5,0.5,0.5,0.69798434732701,0.5,0.5,0.42265870707336,0.5,0.57734129292664,0.42265870707336,0.42265870707336,0.5,0.42265870707336,0.488036648816871,0.57734129292664,0.42265870707336,0.57734129292664,0.42265870707336,0.289848518770463,0.920251868393859,0.42265870707336,0.0653779417435111,0.5,0.154682585853279,0.89399008039021,5.3366360055258,2.96297403781836,0.5,58.9376474091144
CBC_1058,CBC_1058_MSI_TV_v3_Vset4_Tset1_2024-01-26_14h07.19.138.csv,1,15,1,3,b,1,0,3,tac,B,27,1,1B,3B,1,0,b,3.02291340000011,1,0,1,1,1B,3B,B13,3.40119738166216,0.69798434732701,0.5,0.5,0.5,0.5,0.69798434732701,0.5,0.5,0.42265870707336,0.5,0.642719234670151,0.42265870707336,0.42265870707336,0.5,0.42265870707336,0.488036648816871,0.582632276360188,0.417367723639812,0.69798434732701,0.5,0.174465443860556,0.931760525826401,0.30201565267299,0.0467165621236239,0.5,0.154682585853279,0.89399008039021,5.3366360055258,2.96297403781836,0.5,58.9376474091144
CBC_1058,CBC_1058_MSI_TV_v3_Vset4_Tset1_2024-01-26_14h07.19.138.csv,1,16,3,0,z,0,1,1,tac,A,9,1,3A,0A,0,1,b,2.49476959999993,1,0,0,0,3A,0A,A30,3.43398720448515,0.69798434732701,0.5,0.5,0.5,0.5,0.744700909450634,0.5,0.5,0.42265870707336,0.5,0.642719234670151,0.42265870707336,0.42265870707336,0.5,0.42265870707336,0.488036648816871,0.417367723639812,0.582632276360188,0.5,0.69798434732701,0.0210527454586349,0.0681734116446123,-0.5,-0.0773412929266396,0.5,0.154682585853279,0.89399008039021,5.3366360055258,2.96297403781836,0.5,58.9376474091144
CBC_1058,CBC_1058_MSI_TV_v3_Vset4_Tset1_2024-01-26_14h07.19.138.csv,1,17,3,2,b,1,0,0,tac,D,63,1,3D,2D,1,0,b,1.72251250000045,1,0,1,1,3D,2D,D32,2.36712361413162,0.69798434732701,0.5,0.5,0.42265870707336,0.5,0.744700909450634,0.5,0.5,0.42265870707336,0.5,0.642719234670151,0.42265870707336,0.42265870707336,0.5,0.42265870707336,0.488036648816871,0.535894518029908,0.464105481970092,0.488036648816871,0.42265870707336,0.346057408414189,0.756978471674874,0.511963351183129,0.0791918150231168,0.5,0.154682585853279,0.89399008039021,5.3366360055258,2.96297403781836,0.5,58.9376474091144
CBC_1058,CBC_1058_MSI_TV_v3_Vset4_Tset1_2024-01-26_14h07.19.138.csv,1,18,2,0,b,1,0,2,tac,C,27,1,2C,0C,1,0,b,2.73551869999937,1,0,1,1,2C,0C,C20,2.80336038090653,0.69798434732701,0.5,0.5,0.42265870707336,0.5,0.744700909450634,0.5,0.5,0.42265870707336,0.5,0.642719234670151,0.42265870707336,0.42265870707336,0.5,0.42265870707336,0.567228463839988,0.603278150867596,0.396721849132404,0.642719234670151,0.42265870707336,0.212194854003965,0.963430087882001,0.357280765329849,0.0552651126568597,0.5,0.154682585853279,0.89399008039021,5.3366360055258,2.96297403781836,0.5,58.9376474091144
CBC_1058,CBC_1058_MSI_TV_v3_Vset4_Tset1_2024-01-26_14h07.19.138.csv,1,19,1,0,z,0,1,1,tac,A,63,1,1A,0A,0,1,z,2.29612789999919,0,1,1,1,0A,1A,A10,2.42774823594805,0.69798434732701,0.5,0.5,0.42265870707336,0.5,0.744700909450634,0.5,0.5,0.42265870707336,0.5,0.69798434732701,0.42265870707336,0.42265870707336,0.5,0.42265870707336,0.567228463839988,0.582632276360188,0.417367723639812,0.69798434732701,0.5,0.346420427764181,0.931638452352782,0.30201565267299,0.0467165621236239,0.5,0.154682585853279,0.89399008039021,5.3366360055258,2.96297403781836,0.5,58.9376474091144
CBC_1058,CBC_1058_MSI_TV_v3_Vset4_Tset1_2024-01-26_14h07.19.138.csv,1,20,0,1,z,0,1,3,tac,B,63,0,0B,1B,1,0,z,2.08407129999978,0,1,1,0,1B,0B,B01,3.55534806148941,0.744700909450634,0.5,0.5,0.42265870707336,0.5,0.744700909450634,0.5,0.5,0.42265870707336,0.5,0.69798434732701,0.42265870707336,0.42265870707336,0.5,0.42265870707336,0.567228463839988,0.598297071847821,0.401702928152179,0.744700909450634,0.5,0.44414955109493,0.957246674653021,-0.744700909450634,-0.115192262361113,0.5,0.154682585853279,0.89399008039021,5.3366360055258,2.96297403781836,0.5,58.9376474091144
CBC_1058,CBC_1058_MSI_TV_v3_Vset4_Tset1_2024-01-26_14h07.19.138.csv,1,21,1,3,z,0,1,0,tac,D,27,1,1D,3D,0,1,z,1.68794100000014,0,1,1,1,3D,1D,D13,3.58351893845611,0.744700909450634,0.5,0.5,0.42265870707336,0.5,0.629508647089521,0.5,0.5,0.42265870707336,0.5,0.69798434732701,0.42265870707336,0.42265870707336,0.5,0.42265870707336,0.567228463839988,0.531496753562069,0.46850324643793,0.567228463839988,0.5,0.330133091412052,0.730578866754909,0.432771536160012,0.0669422202969265,0.5,0.154682585853279,0.89399008039021,5.3366360055258,2.96297403781836,0.5,58.9376474091144
CBC_1058,CBC_1058_MSI_TV_v3_Vset4_Tset1_2024-01-26_14h07.19.138.csv,1,22,2,3,b,1,0,2,tac,C,63,1,2C,3C,1,0,b,1.7840226999997,1,0,1,1,2C,3C,C23,2.91777073208428,0.744700909450634,0.5,0.5,0.42265870707336,0.5,0.629508647089521,0.5,0.5,0.42265870707336,0.5,0.69798434732701,0.42265870707336,0.42265870707336,0.5,0.42265870707336,0.634170684136915,0.622842701417076,0.377157298582924,0.69798434732701,0.42265870707336,0.665807940878347,0.979886533487063,0.30201565267299,0.0467165621236239,0.5,0.154682585853279,0.89399008039021,5.3366360055258,2.96297403781836,0.5,58.9376474091144
CBC_1058,CBC_1058_MSI_TV_v3_Vset4_Tset1_2024-01-26_14h07.19.138.csv,1,23,1,0,b,1,0,3,tac,B,63,1,1B,0B,1,0,b,2.24938179999936,1,0,1,1,1B,0B,B10,2.53897387105828,0.744700909450634,0.5,0.5,0.42265870707336,0.5,0.629508647089521,0.5,0.5,0.42265870707336,0.5,0.744700909450634,0.42265870707336,0.42265870707336,0.5,0.42265870707336,0.634170684136915,0.557329639495561,0.442670360504439,0.629508647089521,0.5,0.318637163687319,0.859635740862404,0.370491352910479,0.0573085605044727,0.5,0.154682585853279,0.89399008039021,5.3366360055258,2.96297403781836,0.5,58.9376474091144
CBC_1058,CBC_1058_MSI_TV_v3_Vset4_Tset1_2024-01-26_14h07.19.138.csv,1,24,2,0,z,0,1,1,tac,A,27,1,2A,0A,0,1,z,1.43667149999965,0,1,1,1,0A,2A,A20,3.66356164612965,0.744700909450634,0.5,0.5,0.42265870707336,0.5,0.686817207593994,0.5,0.5,0.42265870707336,0.5,0.744700909450634,0.42265870707336,0.42265870707336,0.5,0.42265870707336,0.634170684136915,0.598297071847821,0.401702928152179,0.744700909450634,0.5,0.686269677017405,0.957127811767309,0.255299090549366,0.0394903234921664,0.5,0.154682585853279,0.89399008039021,5.3366360055258,2.96297403781836,0.5,58.9376474091144
CBC_1058,CBC_1058_MSI_TV_v3_Vset4_Tset1_2024-01-26_14h07.19.138.csv,1,25,2,3,z,0,1,0,tac,D,63,1,2D,3D,0,1,z,1.59416630000032,0,1,1,1,3D,2D,D23,2.99573227355399,0.784191232942801,0.5,0.5,0.42265870707336,0.5,0.686817207593994,0.5,0.5,0.42265870707336,0.5,0.744700909450634,0.42265870707336,0.42265870707336,0.5,0.42265870707336,0.634170684136915,0.600069121289924,0.399930878710076,0.634170684136915,0.42265870707336,0.686380594256882,0.95937373473334,0.365829315863085,0.0565874245586381,0.5,0.154682585853279,0.89399008039021,5.3366360055258,2.96297403781836,0.5,58.9376474091144
CBC_1058,CBC_1058_MSI_TV_v3_Vset4_Tset1_2024-01-26_14h07.19.138.csv,1,26,2,0,b,1,0,2,tac,C,27,1,2C,0C,1,0,b,2.01270859999931,1,0,1,1,2C,0C,C20,2.6149597780362,0.784191232942801,0.5,0.5,0.42265870707336,0.5,0.686817207593994,0.5,0.5,0.42265870707336,0.5,0.744700909450634,0.42265870707336,0.42265870707336,0.5,0.42265870707336,0.690758108695553,0.637936158583337,0.362063841416663,0.744700909450634,0.42265870707336,0.493096750280261,0.987288720291488,0.255299090549366,0.0394903234921664,0.5,0.154682585853279,0.89399008039021,5.3366360055258,2.96297403781836,0.5,58.9376474091144
CBC_1058,CBC_1058_MSI_TV_v3_Vset4_Tset1_2024-01-26_14h07.19.138.csv,1,27,1,0,b,1,0,3,tac,B,63,1,1B,0B,1,0,b,2.56187760000012,1,0,1,1,1B,0B,B10,2.35137525716348,0.784191232942801,0.5,0.5,0.42265870707336,0.5,0.686817207593994,0.5,0.5,0.42265870707336,0.5,0.784191232942801,0.42265870707336,0.42265870707336,0.5,0.42265870707336,0.690758108695553,0.578705131000217,0.421294868999783,0.686817207593994,0.5,0.269621276268564,0.923577478785315,0.313182792406006,0.0484439241741117,0.5,0.154682585853279,0.89399008039021,5.3366360055258,2.96297403781836,0.5,58.9376474091144
CBC_1058,CBC_1058_MSI_TV_v3_Vset4_Tset1_2024-01-26_14h07.19.138.csv,1,28,0,1,b,1,0,1,tac,A,63,1,0A,1A,1,0,b,1.86418029999913,1,0,1,1,0A,1A,A01,3.76120011569356,0.784191232942801,0.5,0.5,0.42265870707336,0.5,0.735261131768106,0.5,0.5,0.42265870707336,0.5,0.784191232942801,0.42265870707336,0.42265870707336,0.5,0.42265870707336,0.690758108695553,0.610649888292556,0.389350111707444,0.784191232942801,0.5,0.583489520782235,0.970716630446687,0.215808767057199,0.0333818581382156,0.5,0.154682585853279,0.89399008039021,5.3366360055258,2.96297403781836,0.5,58.9376474091144
CBC_1058,CBC_1058_MSI_TV_v3_Vset4_Tset1_2024-01-26_14h07.19.138.csv,1,29,3,2,z,0,1,2,tac,C,63,0,3C,2C,1,0,z,1.50345490000018,0,1,1,0,2C,3C,C32,2.68557734525015,0.817573091081016,0.5,0.5,0.42265870707336,0.5,0.735261131768106,0.5,0.5,0.42265870707336,0.5,0.784191232942801,0.42265870707336,0.42265870707336,0.5,0.42265870707336,0.690758108695553,0.649783545527043,0.350216454472957,0.784191232942801,0.42265870707336,1.00568738519263,0.991300270700644,-0.784191232942801,-0.121300727715064,0.5,0.154682585853279,0.89399008039021,5.3366360055258,2.96297403781836,0.5,58.9376474091144
CBC_1058,CBC_1058_MSI_TV_v3_Vset4_Tset1_2024-01-26_14h07.19.138.csv,1,30,3,1,b,1,0,0,tac,D,27,1,3D,1D,1,0,b,1.40367519999927,1,0,1,1,3D,1D,D31,3.80666248977032,0.817573091081016,0.5,0.5,0.42265870707336,0.5,0.735261131768106,0.5,0.5,0.42265870707336,0.5,0.662890505227737,0.42265870707336,0.42265870707336,0.5,0.42265870707336,0.690758108695553,0.580099437199938,0.419900562800062,0.690758108695553,0.5,0.556084666029929,0.926607946536133,0.309241891304447,0.0478343354011306,0.5,0.154682585853279,0.89399008039021,5.3366360055258,2.96297403781836,0.5,58.9376474091144
CBC_1058,CBC_1058_MSI_TV_v3_Vset4_Tset1_2024-01-26_14h07.19.138.csv,1,31,1,0,z,0,1,1,tac,A,63,1,1A,0A,0,1,z,2.8460841999995,0,1,1,1,0A,1A,A10,2.4423470353692,0.817573091081016,0.5,0.5,0.42265870707336,0.5,0.735261131768106,0.5,0.5,0.42265870707336,0.5,0.662890505227737,0.42265870707336,0.42265870707336,0.5,0.42265870707336,0.738592444096683,0.620514411394232,0.379485588605767,0.817573091081016,0.5,0.159619132048911,0.97837533017515,0.182426908918984,0.028218266000809,0.5,0.154682585853279,0.89399008039021,5.3366360055258,2.96297403781836,0.5,58.9376474091144
CBC_1058,CBC_1058_MSI_TV_v3_Vset4_Tset1_2024-01-26_14h07.19.138.csv,1,32,3,2,b,1,0,0,tac,D,63,1,3D,2D,1,0,b,1.26894189999894,1,0,1,1,3D,2D,D32,2.46385324059017,0.845791357081825,0.5,0.5,0.42265870707336,0.5,0.735261131768106,0.5,0.5,0.42265870707336,0.5,0.662890505227737,0.42265870707336,0.42265870707336,0.5,0.42265870707336,0.738592444096683,0.636031614136613,0.363968385863387,0.738592444096683,0.42265870707336,0.79792967331079,0.986627558947847,0.261407555903317,0.0404351967087106,0.5,0.154682585853279,0.89399008039021,5.3366360055258,2.96297403781836,0.5,58.9376474091144
CBC_1058,CBC_1058_MSI_TV_v3_Vset4_Tset1_2024-01-26_14h07.19.138.csv,1,33,2,1,z,0,1,3,tac,B,9,1,2B,1B,0,1,z,1.92539919999945,0,1,1,1,1B,2B,B21,3.87120101090789,0.845791357081825,0.5,0.5,0.42265870707336,0.5,0.735261131768106,0.5,0.5,0.42265870707336,0.5,0.662890505227737,0.42265870707336,0.42265870707336,0.5,0.42265870707336,0.779027640805394,0.595227286651269,0.404772713348731,0.735261131768106,0.5,0.51500971245718,0.953177450390753,0.264738868231894,0.0409504927139799,0.5,0.154682585853279,0.89399008039021,5.3366360055258,2.96297403781836,0.5,58.9376474091144
CBC_1058,CBC_1058_MSI_TV_v3_Vset4_Tset1_2024-01-26_14h07.19.138.csv,1,34,1,0,z,0,1,1,tac,A,63,1,1A,0A,0,1,z,2.31645459999982,0,1,1,1,0A,1A,A10,2.28238238567653,0.845791357081825,0.5,0.5,0.42265870707336,0.5,0.776211624482086,0.5,0.5,0.42265870707336,0.5,0.662890505227737,0.42265870707336,0.42265870707336,0.5,0.42265870707336,0.779027640805394,0.628471384238798,0.371528615761202,0.845791357081825,0.5,0.320480835107614,0.983075506418734,0.154208642918175,0.0238533916475082,0.5,0.154682585853279,0.89399008039021,5.3366360055258,2.96297403781836,0.5,58.9376474091144
CBC_1058,CBC_1058_MSI_TV_v3_Vset4_Tset1_2024-01-26_14h07.19.138.csv,1,35,2,1,b,1,0,2,tac,C,9,1,2C,1C,1,0,b,1.20659679999972,1,0,1,1,2C,1C,C21,3.91202300542815,0.869644748729334,0.5,0.5,0.42265870707336,0.5,0.776211624482086,0.5,0.5,0.42265870707336,0.5,0.662890505227737,0.42265870707336,0.42265870707336,0.5,0.42265870707336,0.779027640805394,0.570036905665438,0.429963094334562,0.662890505227737,0.5,0.280132771339107,0.901487956226948,0.337109494772263,0.0521449683670661,0.5,0.154682585853279,0.89399008039021,5.3366360055258,2.96297403781836,0.5,58.9376474091144
CBC_1058,CBC_1058_MSI_TV_v3_Vset4_Tset1_2024-01-26_14h07.19.138.csv,1,36,1,0,b,1,0,3,tac,B,63,1,1B,0B,1,0,b,1.82035839999935,1,0,1,1,1B,0B,B10,2.32238772029023,0.869644748729334,0.5,0.5,0.42265870707336,0.5,0.776211624482086,0.5,0.5,0.42265870707336,0.5,0.715035473594803,0.42265870707336,0.42265870707336,0.5,0.42265870707336,0.779027640805394,0.608215447651238,0.391784552348762,0.776211624482086,0.5,0.604437078712307,0.968248736718395,0.223788375517914,0.0346161646090156,0.5,0.154682585853279,0.89399008039021,5.3366360055258,2.96297403781836,0.5,58.9376474091144
CBC_1058,CBC_1058_MSI_TV_v3_Vset4_Tset1_2024-01-26_14h07.19.138.csv,1,37,0,1,b,1,0,1,tac,A,63,0,0A,1A,0,1,b,2.14858069999991,1,0,1,0,0A,1A,A01,3.25809653802148,0.869644748729334,0.5,0.5,0.42265870707336,0.5,0.810827789091101,0.5,0.5,0.42265870707336,0.5,0.715035473594803,0.42265870707336,0.42265870707336,0.5,0.42265870707336,0.779027640805394,0.634941834031148,0.365058165968852,0.869644748729334,0.5,0.402064903027148,0.986185982178457,-0.869644748729334,-0.134518898507179,0.5,0.154682585853279,0.89399008039021,5.3366360055258,2.96297403781836,0.5,58.9376474091144
CBC_1058,CBC_1058_MSI_TV_v3_Vset4_Tset1_2024-01-26_14h07.19.138.csv,1,38,0,1,z,0,1,3,tac,B,63,1,0B,1B,0,1,z,2.44623069999943,0,1,1,1,1B,0B,B01,3.27714473299218,0.735125850222155,0.5,0.5,0.42265870707336,0.5,0.810827789091101,0.5,0.5,0.42265870707336,0.5,0.715035473594803,0.42265870707336,0.42265870707336,0.5,0.42265870707336,0.779027640805394,0.618561641612214,0.381438358387785,0.810827789091101,0.5,0.28061398655143,0.97697058150914,0.189172210908899,0.0292616467549703,0.5,0.154682585853279,0.89399008039021,5.3366360055258,2.96297403781836,0.5,58.9376474091144
CBC_1058,CBC_1058_MSI_TV_v3_Vset4_Tset1_2024-01-26_14h07.19.138.csv,1,39,1,3,z,0,1,0,tac,D,27,1,1D,3D,0,1,z,1.07649709999987,0,1,1,1,3D,1D,D13,3.29583686600433,0.735125850222155,0.5,0.5,0.42265870707336,0.5,0.840089435846072,0.5,0.5,0.42265870707336,0.5,0.715035473594803,0.42265870707336,0.42265870707336,0.5,0.42265870707336,0.779027640805394,0.609078033931187,0.390921966068813,0.779027640805394,0.5,0.0920940094956522,0.969310734047252,0.220972359194606,0.0341805759223213,0.5,0.154682585853279,0.89399008039021,5.3366360055258,2.96297403781836,0.5,58.9376474091144
CBC_1058,CBC_1058_MSI_TV_v3_Vset4_Tset1_2024-01-26_14h07.19.138.csv,1,40,3,2,z,0,1,2,tac,C,63,1,3C,2C,0,1,z,3.35667250000006,0,1,1,1,2C,3C,C32,2.62103882411258,0.735125850222155,0.5,0.5,0.42265870707336,0.5,0.840089435846072,0.5,0.5,0.42265870707336,0.5,0.715035473594803,0.42265870707336,0.42265870707336,0.5,0.42265870707336,0.813208216727715,0.62849532479358,0.37150467520642,0.715035473594803,0.42265870707336,0.0672382294069499,0.983188776332126,0.284964526405197,0.0440790498208109,0.5,0.154682585853279,0.89399008039021,5.3366360055258,2.96297403781836,0.5,58.9376474091144
CBC_1058,CBC_1058_MSI_TV_v3_Vset4_Tset1_2024-01-26_14h07.19.138.csv,1,41,0,2,b,1,0,1,tac,A,27,1,0A,2A,1,0,b,2.04032999999981,1,0,1,1,0A,2A,A02,3.3322045101752,0.735125850222155,0.5,0.5,0.42265870707336,0.5,0.840089435846072,0.5,0.5,0.42265870707336,0.5,0.759114523415614,0.42265870707336,0.42265870707336,0.5,0.42265870707336,0.813208216727715,0.595182952482075,0.404817047517925,0.735125850222155,0.5,0.460386689148301,0.953149262347687,0.264874149777845,0.0409714184133259,0.5,0.154682585853279,0.89399008039021,5.3366360055258,2.96297403781836,0.5,58.9376474091144
CBC_1058,CBC_1058_MSI_TV_v3_Vset4_Tset1_2024-01-26_14h07.19.138.csv,1,42,2,3,z,0,1,0,tac,D,63,1,2D,3D,0,1,z,3.18725379999978,0,1,1,1,3D,2D,D23,2.94443897916644,0.776097268635481,0.5,0.5,0.42265870707336,0.5,0.840089435846072,0.5,0.5,0.42265870707336,0.5,0.759114523415614,0.42265870707336,0.42265870707336,0.5,0.42265870707336,0.813208216727715,0.658006295877378,0.341993704122622,0.813208216727715,0.42265870707336,0.0458921285802097,0.993302784008756,0.186791783272285,0.0288934360527023,0.5,0.154682585853279,0.89399008039021,5.3366360055258,2.96297403781836,0.5,58.9376474091144
CBC_1058,CBC_1058_MSI_TV_v3_Vset4_Tset1_2024-01-26_14h07.19.138.csv,1,43,1,3,b,1,0,3,tac,B,27,1,1B,3B,1,0,b,1.41768849999971,1,0,1,1,1B,3B,B13,3.36729582998647,0.776097268635481,0.5,0.5,0.42265870707336,0.5,0.840089435846072,0.5,0.5,0.42265870707336,0.5,0.759114523415614,0.42265870707336,0.42265870707336,0.5,0.42265870707336,0.842101652780418,0.626890574147148,0.373109425852852,0.840089435846072,0.5,0.882355590977155,0.982227330060257,0.159910564153928,0.0247353795685863,0.5,0.154682585853279,0.89399008039021,5.3366360055258,2.96297403781836,0.5,58.9376474091144
CBC_1058,CBC_1058_MSI_TV_v3_Vset4_Tset1_2024-01-26_14h07.19.138.csv,1,44,3,2,z,0,1,2,tac,C,63,1,3C,2C,0,1,z,1.83384879999903,0,1,1,1,2C,3C,C32,2.46809953147162,0.776097268635481,0.5,0.5,0.42265870707336,0.5,0.864824815414658,0.5,0.5,0.42265870707336,0.5,0.759114523415614,0.42265870707336,0.42265870707336,0.5,0.42265870707336,0.842101652780418,0.642352105997121,0.357647894002879,0.759114523415614,0.42265870707336,0.64748925418311,0.989024908901152,0.240885476584386,0.0372607884125723,0.5,0.154682585853279,0.89399008039021,5.3366360055258,2.96297403781836,0.5,58.9376474091144
CBC_1058,CBC_1058_MSI_AV_v3_Vset5_Aset3_2024-01-26_14h15.51.953.csv,2,1,1,0,b,1,0,3,aud,B,63,1,1B,0B,1,0,z,2.96357110000008,0,1,0,0,0B,1B,B10,2.77258872223978,0.5,0.5,0.5,0.5,0.5,0.5,0.5,0.5,0.5,0.5,0.5,0.5,0.5,0.5,0.5,0.5,0.5,0.5,0.5,0.5,0.0958207902794788,0.499823644302843,-0.5,-0.0521893185346786,0.5,0.104378637069357,0.690472653949999,7.1077764577534,2.80128755349838,0.5,50.4311636820121
CBC_1058,CBC_1058_MSI_AV_v3_Vset5_Aset3_2024-01-26_14h15.51.953.csv,2,2,1,0,z,0,1,1,aud,A,63,1,1A,0A,0,1,z,2.5296027000004,0,1,1,1,0A,1A,A10,2.83321334405622,0.5,0.5,0.5,0.5,0.447810681465321,0.5,0.5,0.5,0.5,0.5,0.5,0.5,0.5,0.5,0.5,0.5,0.5,0.5,0.5,0.5,0.12606123603976,0.500642872961606,0.5,0.0521893185346786,0.5,0.104378637069357,0.690472653949999,7.1077764577534,2.80128755349838,0.5,50.4311636820121
CBC_1058,CBC_1058_MSI_AV_v3_Vset5_Aset3_2024-01-26_14h15.51.953.csv,2,3,3,2,b,1,0,0,aud,D,63,1,3D,2D,1,0,b,2.97905110000011,1,0,1,1,3D,2D,D32,2.89037175789616,0.552189318534679,0.5,0.5,0.5,0.447810681465321,0.5,0.5,0.5,0.5,0.5,0.5,0.5,0.5,0.5,0.5,0.5,0.5,0.5,0.5,0.5,0.0948630489607381,0.499667195560526,0.5,0.0521893185346786,0.5,0.104378637069357,0.690472653949999,7.1077764577534,2.80128755349838,0.5,50.4311636820121
CBC_1058,CBC_1058_MSI_AV_v3_Vset5_Aset3_2024-01-26_14h15.51.953.csv,2,4,1,2,b,1,0,3,aud,B,9,1,1B,2B,1,0,b,3.01623089999975,1,0,1,1,1B,2B,B12,2.94443897916644,0.552189318534679,0.5,0.5,0.5,0.447810681465321,0.5,0.5,0.5,0.5,0.5,0.5,0.5,0.5,0.5,0.5,0.552189318534679,0.5,0.5,0.5,0.5,0.0928392406189742,0.500572923139636,0.5,0.0521893185346786,0.5,0.104378637069357,0.690472653949999,7.1077764577534,2.80128755349838,0.5,50.4311636820121
CBC_1058,CBC_1058_MSI_AV_v3_Vset5_Aset3_2024-01-26_14h15.51.953.csv,2,5,2,0,z,0,1,1,aud,A,27,1,2A,0A,0,1,z,2.37722669999948,0,1,1,1,0A,2A,A20,2.99573227355399,0.552189318534679,0.5,0.5,0.5,0.447810681465321,0.552189318534679,0.5,0.5,0.5,0.5,0.5,0.5,0.5,0.5,0.5,0.552189318534679,0.52480034610471,0.47519965389529,0.552189318534679,0.5,0.204306806334174,0.728389773564328,0.447810681465321,0.0467418685964503,0.5,0.104378637069357,0.690472653949999,7.1077764577534,2.80128755349838,0.5,50.4311636820121
CBC_1058,CBC_1058_MSI_AV_v3_Vset5_Aset3_2024-01-26_14h15.51.953.csv,2,6,3,2,z,0,1,2,aud,C,63,1,3C,2C,0,1,z,3.35687670000061,0,1,1,1,2C,3C,C32,3.04452243772342,0.598931187131129,0.5,0.5,0.5,0.447810681465321,0.552189318534679,0.5,0.5,0.5,0.5,0.5,0.5,0.5,0.5,0.5,0.552189318534679,0.5,0.5,0.5,0.5,0.0749030706305305,0.500334591915161,0.5,0.0521893185346786,0.5,0.104378637069357,0.690472653949999,7.1077764577534,2.80128755349838,0.5,50.4311636820121
CBC_1058,CBC_1058_MSI_AV_v3_Vset5_Aset3_2024-01-26_14h15.51.953.csv,2,7,3,1,b,1,0,0,aud,D,27,1,3D,1D,1,0,b,0.917857599999479,1,0,1,1,3D,1D,D31,3.09104245335832,0.598931187131129,0.5,0.5,0.5,0.447810681465321,0.552189318534679,0.5,0.5,0.5,0.5,0.552189318534679,0.5,0.5,0.5,0.5,0.552189318534679,0.52480034610471,0.47519965389529,0.552189318534679,0.5,0.111601919975346,0.729322426482698,0.447810681465321,0.0467418685964503,0.5,0.104378637069357,0.690472653949999,7.1077764577534,2.80128755349838,0.5,50.4311636820121
CBC_1058,CBC_1058_MSI_AV_v3_Vset5_Aset3_2024-01-26_14h15.51.953.csv,2,8,0,1,b,1,0,1,aud,A,63,1,0A,1A,1,0,b,1.10226939999939,1,0,1,1,0A,1A,A01,3.13549421592915,0.598931187131129,0.5,0.5,0.5,0.447810681465321,0.552189318534679,0.5,0.5,0.5,0.5,0.552189318534679,0.5,0.5,0.5,0.5,0.598931187131129,0.545012457690549,0.454987542309451,0.598931187131129,0.5,0.440143396142182,0.857406275535766,0.401068812868871,0.0418630160582778,0.5,0.104378637069357,0.690472653949999,7.1077764577534,2.80128755349838,0.5,50.4311636820121
CBC_1058,CBC_1058_MSI_AV_v3_Vset5_Aset3_2024-01-26_14h15.51.953.csv,2,9,0,2,z,0,1,2,aud,C,27,1,0C,2C,0,1,z,1.93532649999997,0,1,1,1,2C,0C,C02,3.17805383034795,0.640794203189407,0.5,0.5,0.5,0.447810681465321,0.552189318534679,0.5,0.5,0.5,0.5,0.552189318534679,0.5,0.5,0.5,0.5,0.598931187131129,0.52480034610471,0.47519965389529,0.552189318534679,0.5,0.276141823917487,0.729031240583934,0.447810681465321,0.0467418685964503,0.5,0.104378637069357,0.690472653949999,7.1077764577534,2.80128755349838,0.5,50.4311636820121
CBC_1058,CBC_1058_MSI_AV_v3_Vset5_Aset3_2024-01-26_14h15.51.953.csv,2,10,3,2,b,1,0,0,aud,D,63,1,3D,2D,1,0,b,1.78595829999995,1,0,1,1,3D,2D,D32,2.52572864430826,0.640794203189407,0.5,0.5,0.5,0.447810681465321,0.552189318534679,0.5,0.5,0.5,0.5,0.598931187131129,0.5,0.5,0.5,0.5,0.598931187131129,0.545012457690549,0.454987542309451,0.598931187131129,0.5,0.389118891886371,0.857570035708015,0.401068812868871,0.0418630160582778,0.5,0.104378637069357,0.690472653949999,7.1077764577534,2.80128755349838,0.5,50.4311636820121
CBC_1058,CBC_1058_MSI_AV_v3_Vset5_Aset3_2024-01-26_14h15.51.953.csv,2,11,0,1,z,0,1,3,aud,B,63,0,0B,1B,1,0,z,1.68437489999906,0,1,1,0,1B,0B,B01,3.25809653802148,0.640794203189407,0.5,0.5,0.5,0.447810681465321,0.552189318534679,0.5,0.5,0.5,0.5,0.598931187131129,0.5,0.5,0.5,0.5,0.640794203189407,0.552189318534679,0.447810681465321,0.552189318534679,0.447810681465321,0.451928252679194,0.889203305882805,-0.552189318534679,-0.0576367684729069,0.5,0.104378637069357,0.690472653949999,7.1077764577534,2.80128755349838,0.5,50.4311636820121
CBC_1058,CBC_1058_MSI_AV_v3_Vset5_Aset3_2024-01-26_14h15.51.953.csv,2,12,1,0,z,0,1,1,aud,A,63,1,1A,0A,0,1,z,1.10304790000009,0,1,1,1,0A,1A,A10,2.60268968544438,0.640794203189407,0.5,0.5,0.5,0.447810681465321,0.494552550061772,0.5,0.5,0.5,0.5,0.598931187131129,0.5,0.5,0.5,0.5,0.640794203189407,0.561708852830676,0.438291147169324,0.640794203189407,0.5,0.570546946474798,0.921179190245591,0.359205796810593,0.0374934114985022,0.5,0.104378637069357,0.690472653949999,7.1077764577534,2.80128755349838,0.5,50.4311636820121
CBC_1058,CBC_1058_MSI_AV_v3_Vset5_Aset3_2024-01-26_14h15.51.953.csv,2,13,3,2,b,1,0,0,aud,D,63,1,3D,2D,1,0,b,1.00481169999966,1,0,1,1,3D,2D,D32,2.23359222150709,0.678287614687909,0.5,0.5,0.5,0.447810681465321,0.494552550061772,0.5,0.5,0.5,0.5,0.598931187131129,0.5,0.5,0.5,0.5,0.640794203189407,0.561708852830676,0.438291147169324,0.640794203189407,0.5,0.423415850875934,0.921001646869023,0.359205796810593,0.0374934114985022,0.5,0.104378637069357,0.690472653949999,7.1077764577534,2.80128755349838,0.5,50.4311636820121
CBC_1058,CBC_1058_MSI_AV_v3_Vset5_Aset3_2024-01-26_14h15.51.953.csv,2,14,0,2,z,0,1,2,aud,C,27,1,0C,2C,0,1,z,2.91242499999953,0,1,1,1,2C,0C,C02,2.67414864942653,0.678287614687909,0.5,0.5,0.5,0.447810681465321,0.494552550061772,0.5,0.5,0.5,0.5,0.598931187131129,0.5,0.5,0.5,0.5,0.678287614687909,0.545012457690549,0.454987542309451,0.598931187131129,0.5,0.153905962600926,0.857290900250425,0.401068812868871,0.0418630160582778,0.5,0.104378637069357,0.690472653949999,7.1077764577534,2.80128755349838,0.5,50.4311636820121
CBC_1058,CBC_1058_MSI_AV_v3_Vset5_Aset3_2024-01-26_14h15.51.953.csv,2,15,1,0,z,0,1,1,aud,A,63,1,1A,0A,0,1,z,1.44329709999965,0,1,1,1,0A,1A,A10,2.30258509299405,0.678287614687909,0.5,0.5,0.5,0.447810681465321,0.494552550061772,0.5,0.5,0.5,0.5,0.640794203189407,0.5,0.5,0.5,0.5,0.678287614687909,0.575655388576384,0.424344611423616,0.678287614687909,0.5,0.678601878172047,0.953244797247513,0.321712385312091,0.0335799003072079,0.5,0.104378637069357,0.690472653949999,7.1077764577534,2.80128755349838,0.5,50.4311636820121
CBC_1058,CBC_1058_MSI_AV_v3_Vset5_Aset3_2024-01-26_14h15.51.953.csv,2,16,3,1,z,0,1,3,aud,B,27,1,3B,1B,0,1,b,0.91774599999917,1,0,0,0,3B,1B,B31,3.43398720448515,0.711867514995117,0.5,0.5,0.5,0.447810681465321,0.494552550061772,0.5,0.5,0.5,0.5,0.640794203189407,0.5,0.5,0.5,0.5,0.678287614687909,0.502738643592986,0.497261356407014,0.5,0.494552550061772,0.0728568987308551,0.528212711941733,-0.5,-0.0521893185346786,0.5,0.104378637069357,0.690472653949999,7.1077764577534,2.80128755349838,0.5,50.4311636820121
CBC_1058,CBC_1058_MSI_AV_v3_Vset5_Aset3_2024-01-26_14h15.51.953.csv,2,17,2,3,b,1,0,2,aud,C,63,1,2C,3C,1,0,b,1.85613120000016,1,0,1,1,2C,3C,C23,3.46573590279973,0.711867514995117,0.5,0.5,0.5,0.447810681465321,0.494552550061772,0.5,0.447810681465321,0.5,0.5,0.640794203189407,0.5,0.5,0.5,0.5,0.678287614687909,0.561708852830676,0.438291147169324,0.640794203189407,0.5,0.415896185171554,0.920839720101613,0.359205796810593,0.0374934114985022,0.5,0.104378637069357,0.690472653949999,7.1077764577534,2.80128755349838,0.5,50.4311636820121
CBC_1058,CBC_1058_MSI_AV_v3_Vset5_Aset3_2024-01-26_14h15.51.953.csv,2,18,3,2,b,1,0,0,aud,D,63,0,3D,2D,0,1,b,1.09810930000003,1,0,1,0,3D,2D,D32,2.11021320034659,0.711867514995117,0.5,0.5,0.5,0.447810681465321,0.494552550061772,0.5,0.447810681465321,0.5,0.5,0.678287614687909,0.5,0.5,0.5,0.5,0.678287614687909,0.575655388576384,0.424344611423616,0.678287614687909,0.5,0.689485892435808,0.953123217179923,-0.678287614687909,-0.0707987367621492,0.5,0.104378637069357,0.690472653949999,7.1077764577534,2.80128755349838,0.5,50.4311636820121
CBC_1058,CBC_1058_MSI_AV_v3_Vset5_Aset3_2024-01-26_14h15.51.953.csv,2,19,0,1,z,0,1,3,aud,B,63,1,0B,1B,0,1,z,2.4391844999991,0,1,1,1,1B,0B,B01,2.83321334405622,0.711867514995117,0.5,0.5,0.5,0.447810681465321,0.494552550061772,0.5,0.447810681465321,0.5,0.5,0.678287614687909,0.5,0.5,0.5,0.5,0.60748887792576,0.52480034610471,0.47519965389529,0.494552550061772,0.447810681465321,0.195906415028805,0.728850941935442,0.505447449938228,0.0527579159347344,0.5,0.104378637069357,0.690472653949999,7.1077764577534,2.80128755349838,0.5,50.4311636820121
CBC_1058,CBC_1058_MSI_AV_v3_Vset5_Aset3_2024-01-26_14h15.51.953.csv,2,20,0,2,b,1,0,1,aud,A,27,1,0A,2A,1,0,b,1.08488319999924,1,0,1,1,0A,2A,A02,3.55534806148941,0.711867514995117,0.5,0.5,0.5,0.447810681465321,0.547310465996506,0.5,0.447810681465321,0.5,0.5,0.678287614687909,0.5,0.5,0.5,0.5,0.60748887792576,0.587413645622793,0.412586354377207,0.711867514995117,0.5,0.78811962322599,0.970086989292864,0.288132485004883,0.0300748760802167,0.5,0.104378637069357,0.690472653949999,7.1077764577534,2.80128755349838,0.5,50.4311636820121
CBC_1058,CBC_1058_MSI_AV_v3_Vset5_Aset3_2024-01-26_14h15.51.953.csv,2,21,3,0,b,1,0,0,aud,D,9,1,3D,0D,1,0,b,1.6458434999995,1,0,1,1,3D,0D,D30,3.58351893845611,0.741942391075333,0.5,0.5,0.5,0.447810681465321,0.547310465996506,0.5,0.447810681465321,0.5,0.5,0.678287614687909,0.5,0.5,0.5,0.5,0.60748887792576,0.54852819746916,0.45147180253084,0.60748887792576,0.5,0.448433042421948,0.873587656668792,0.39251112207424,0.0409697759566733,0.5,0.104378637069357,0.690472653949999,7.1077764577534,2.80128755349838,0.5,50.4311636820121
CBC_1058,CBC_1058_MSI_AV_v3_Vset5_Aset3_2024-01-26_14h15.51.953.csv,2,22,3,2,z,0,1,2,aud,C,63,1,3C,2C,0,1,z,1.59399750000011,0,1,1,1,2C,3C,C32,2.91777073208428,0.741942391075333,0.5,0.5,0.5,0.447810681465321,0.547310465996506,0.5,0.447810681465321,0.5,0.5,0.678287614687909,0.5,0.5,0.5,0.5,0.648458653882433,0.575655388576384,0.424344611423616,0.678287614687909,0.5,0.587274800572619,0.953111615113402,0.321712385312091,0.0335799003072079,0.5,0.104378637069357,0.690472653949999,7.1077764577534,2.80128755349838,0.5,50.4311636820121
CBC_1058,CBC_1058_MSI_AV_v3_Vset5_Aset3_2024-01-26_14h15.51.953.csv,2,23,1,3,b,1,0,3,aud,B,27,1,1B,3B,1,0,b,5.68777529999988,1,0,1,1,1B,3B,B13,3.63758615972639,0.741942391075333,0.5,0.5,0.5,0.447810681465321,0.547310465996506,0.5,0.447810681465321,0.5,0.5,0.711867514995117,0.5,0.5,0.5,0.5,0.648458653882433,0.549993804666382,0.450006195333618,0.547310465996506,0.447810681465321,0.0132045253659303,0.880184938757892,0.452689534003494,0.0472511165748471,0.5,0.104378637069357,0.690472653949999,7.1077764577534,2.80128755349838,0.5,50.4311636820121
CBC_1058,CBC_1058_MSI_AV_v3_Vset5_Aset3_2024-01-26_14h15.51.953.csv,2,24,2,3,b,1,0,2,aud,C,63,1,2C,3C,1,0,b,2.52202709999983,1,0,1,1,2C,3C,C23,2.9704144655697,0.741942391075333,0.5,0.5,0.5,0.447810681465321,0.594561582571353,0.5,0.447810681465321,0.5,0.5,0.711867514995117,0.5,0.5,0.5,0.5,0.648458653882433,0.587413645622793,0.412586354377207,0.711867514995117,0.5,0.175037423323833,0.970292564242028,0.288132485004883,0.0300748760802167,0.5,0.104378637069357,0.690472653949999,7.1077764577534,2.80128755349838,0.5,50.4311636820121
CBC_1058,CBC_1058_MSI_AV_v3_Vset5_Aset3_2024-01-26_14h15.51.953.csv,2,25,3,2,b,1,0,0,aud,D,63,1,3D,2D,NaN,NaN,[],NaN,NaN,NaN,NaN,NaN,,,D32,2.07944154167984,0.741942391075333,0.5,0.5,0.5,0.447810681465321,0.594561582571353,0.5,0.447810681465321,0.5,0.5,0.741942391075333,0.5,0.5,0.5,0.5,0.648458653882433,0,0,0,0,NaN,0,0,0,0.5,0.104378637069357,0.690472653949999,7.1077764577534,2.80128755349838,0.5,50.4311636820121
CBC_1058,CBC_1058_MSI_AV_v3_Vset5_Aset3_2024-01-26_14h15.51.953.csv,2,26,0,1,z,0,1,3,aud,B,63,1,0B,1B,0,1,z,1.53586239999913,0,1,1,1,1B,0B,B01,2.6149597780362,0.741942391075333,0.5,0.5,0.5,0.447810681465321,0.594561582571353,0.5,0.447810681465321,0.5,0.5,0.741942391075333,0.5,0.5,0.5,0.5,0.648458653882433,0.570392750348962,0.429607249651038,0.594561582571353,0.447810681465321,0.599053483493435,0.942824632187651,0.405438417428647,0.0423191094267592,0.5,0.104378637069357,0.690472653949999,7.1077764577534,2.80128755349838,0.5,50.4311636820121
CBC_1058,CBC_1058_MSI_AV_v3_Vset5_Aset3_2024-01-26_14h15.51.953.csv,2,27,3,0,z,0,1,1,aud,A,9,1,3A,0A,0,1,z,1.08578529999977,0,1,1,1,0A,3A,A30,3.73766961828337,0.741942391075333,0.5,0.5,0.5,0.447810681465321,0.636880691998112,0.5,0.447810681465321,0.5,0.5,0.741942391075333,0.5,0.5,0.5,0.5,0.648458653882433,0.597404836494005,0.402595163505995,0.741942391075333,0.5,0.894733310025676,0.979713706001889,0.258057608924667,0.0269357015049339,0.5,0.104378637069357,0.690472653949999,7.1077764577534,2.80128755349838,0.5,50.4311636820121
CBC_1058,CBC_1058_MSI_AV_v3_Vset5_Aset3_2024-01-26_14h15.51.953.csv,2,28,3,2,b,1,0,0,aud,D,63,1,3D,2D,1,0,b,1.62672120000025,1,0,1,1,3D,2D,D32,1.96944064646551,0.768878092580267,0.5,0.5,0.5,0.447810681465321,0.636880691998112,0.5,0.447810681465321,0.5,0.5,0.741942391075333,0.5,0.5,0.5,0.5,0.648458653882433,0.564633869656761,0.435366130343239,0.648458653882433,0.5,0.527088805991541,0.92897538958315,0.351541346117567,0.0366934065812788,0.5,0.104378637069357,0.690472653949999,7.1077764577534,2.80128755349838,0.5,50.4311636820121
CBC_1058,CBC_1058_MSI_AV_v3_Vset5_Aset3_2024-01-26_14h15.51.953.csv,2,29,0,2,z,0,1,2,aud,C,27,1,0C,2C,0,1,z,2.26867920000041,0,1,1,1,2C,0C,C02,2.68557734525015,0.768878092580267,0.5,0.5,0.5,0.447810681465321,0.636880691998112,0.5,0.447810681465321,0.5,0.5,0.741942391075333,0.5,0.5,0.5,0.5,0.685152060463712,0.597404836494005,0.402595163505995,0.741942391075333,0.5,0.226870649931706,0.979806450645336,0.258057608924667,0.0269357015049339,0.5,0.104378637069357,0.690472653949999,7.1077764577534,2.80128755349838,0.5,50.4311636820121
CBC_1058,CBC_1058_MSI_AV_v3_Vset5_Aset3_2024-01-26_14h15.51.953.csv,2,30,0,1,b,1,0,1,aud,A,63,0,0A,1A,0,1,b,1.27651379999952,1,0,1,0,0A,1A,A01,3.11351530921037,0.768878092580267,0.5,0.5,0.5,0.447810681465321,0.636880691998112,0.5,0.447810681465321,0.5,0.5,0.768878092580267,0.5,0.5,0.5,0.5,0.685152060463712,0.605951113094522,0.394048886905478,0.768878092580267,0.5,0.989994098764164,0.985449417728876,-0.768878092580267,-0.0802544473760153,0.5,0.104378637069357,0.690472653949999,7.1077764577534,2.80128755349838,0.5,50.4311636820121
CBC_1058,CBC_1058_MSI_AV_v3_Vset5_Aset3_2024-01-26_14h15.51.953.csv,2,31,0,1,z,0,1,3,aud,B,63,1,0B,1B,0,1,z,1.77958820000003,0,1,1,1,1B,0B,B01,2.4423470353692,0.688623645204252,0.5,0.5,0.5,0.447810681465321,0.636880691998112,0.5,0.447810681465321,0.5,0.5,0.768878092580267,0.5,0.5,0.5,0.5,0.685152060463712,0.587153827880592,0.412846172119408,0.636880691998112,0.447810681465321,0.489885107252883,0.969698587274952,0.363119308001888,0.0379018984628051,0.5,0.104378637069357,0.690472653949999,7.1077764577534,2.80128755349838,0.5,50.4311636820121
CBC_1058,CBC_1058_MSI_AV_v3_Vset5_Aset3_2024-01-26_14h15.51.953.csv,2,32,1,3,z,0,1,0,aud,D,27,1,1D,3D,0,1,z,1.76046139999926,0,1,1,1,3D,1D,D13,3.85014760171006,0.688623645204252,0.5,0.5,0.5,0.447810681465321,0.674782590460917,0.5,0.447810681465321,0.5,0.5,0.768878092580267,0.5,0.5,0.5,0.5,0.685152060463712,0.578113208692928,0.421886791307072,0.685152060463712,0.5,0.493321994950591,0.957300736676625,0.314847939536288,0.0328633988128931,0.5,0.104378637069357,0.690472653949999,7.1077764577534,2.80128755349838,0.5,50.4311636820121
CBC_1058,CBC_1058_MSI_AV_v3_Vset5_Aset3_2024-01-26_14h15.51.953.csv,2,33,2,3,b,1,0,2,aud,C,63,1,2C,3C,1,0,b,2.84158070000012,1,0,1,1,2C,3C,C23,2.77258872223978,0.688623645204252,0.5,0.5,0.5,0.447810681465321,0.674782590460917,0.5,0.447810681465321,0.5,0.5,0.768878092580267,0.5,0.5,0.5,0.5,0.718015459276605,0.605951113094522,0.394048886905478,0.768878092580267,0.5,0.0746102435040203,0.985435476810616,0.231121907419733,0.0241241896933418,0.5,0.104378637069357,0.690472653949999,7.1077764577534,2.80128755349838,0.5,50.4311636820121
CBC_1058,CBC_1058_MSI_AV_v3_Vset5_Aset3_2024-01-26_14h15.51.953.csv,2,34,0,1,z,0,1,3,aud,B,63,1,0B,1B,0,1,z,1.85556120000001,0,1,1,1,1B,0B,B01,2.28238238567653,0.688623645204252,0.5,0.5,0.5,0.447810681465321,0.674782590460917,0.5,0.447810681465321,0.5,0.5,0.793002282273609,0.5,0.5,0.5,0.5,0.718015459276605,0.601092672952751,0.398907327047249,0.674782590460917,0.447810681465321,0.428991369664464,0.982355252675472,0.325217409539083,0.0339457499589164,0.5,0.104378637069357,0.690472653949999,7.1077764577534,2.80128755349838,0.5,50.4311636820121
CBC_1058,CBC_1058_MSI_AV_v3_Vset5_Aset3_2024-01-26_14h15.51.953.csv,2,35,1,0,z,0,1,1,aud,A,63,1,1A,0A,0,1,z,1.19682749999993,0,1,1,1,0A,1A,A10,2.52572864430826,0.688623645204252,0.5,0.5,0.5,0.447810681465321,0.708728340419834,0.5,0.447810681465321,0.5,0.5,0.793002282273609,0.5,0.5,0.5,0.5,0.718015459276605,0.579345403385375,0.420654596614625,0.688623645204252,0.5,0.785734203363766,0.959227724003729,0.311376354795748,0.0325010395292048,0.5,0.104378637069357,0.690472653949999,7.1077764577534,2.80128755349838,0.5,50.4311636820121
CBC_1058,CBC_1058_MSI_AV_v3_Vset5_Aset3_2024-01-26_14h15.51.953.csv,2,36,2,1,b,1,0,2,aud,C,9,1,2C,1C,1,0,b,2.05171350000001,1,0,1,1,2C,1C,C21,3.93182563272433,0.721124684733457,0.5,0.5,0.5,0.447810681465321,0.708728340419834,0.5,0.447810681465321,0.5,0.5,0.793002282273609,0.5,0.5,0.5,0.5,0.718015459276605,0.613303080083662,0.386696919916338,0.793002282273609,0.5,0.276773103281084,0.989148953339089,0.206997717726391,0.0216061396527482,0.5,0.104378637069357,0.690472653949999,7.1077764577534,2.80128755349838,0.5,50.4311636820121
CBC_1058,CBC_1058_MSI_AV_v3_Vset5_Aset3_2024-01-26_14h15.51.953.csv,2,37,0,1,b,1,0,1,aud,A,63,1,0A,1A,1,0,b,1.68789819999984,1,0,1,1,0A,1A,A01,2.85263142991332,0.721124684733457,0.5,0.5,0.5,0.447810681465321,0.708728340419834,0.5,0.447810681465321,0.5,0.5,0.814608421926357,0.5,0.5,0.5,0.5,0.718015459276605,0.590541403141696,0.409458596858304,0.721124684733457,0.5,0.556520535346372,0.973597838503835,0.278875315266543,0.0291086253198091,0.5,0.104378637069357,0.690472653949999,7.1077764577534,2.80128755349838,0.5,50.4311636820121
CBC_1058,CBC_1058_MSI_AV_v3_Vset5_Aset3_2024-01-26_14h15.51.953.csv,2,38,1,3,z,0,1,0,aud,D,27,1,1D,3D,0,1,z,1.69122159999915,0,1,1,1,3D,1D,D13,3.27714473299218,0.750233310053266,0.5,0.5,0.5,0.447810681465321,0.708728340419834,0.5,0.447810681465321,0.5,0.5,0.814608421926357,0.5,0.5,0.5,0.5,0.718015459276605,0.589496179057566,0.410503820942434,0.718015459276605,0.5,0.5530425535297,0.972514559791111,0.281984540723395,0.0294331620353366,0.5,0.104378637069357,0.690472653949999,7.1077764577534,2.80128755349838,0.5,50.4311636820121
CBC_1058,CBC_1058_MSI_AV_v3_Vset5_Aset3_2024-01-26_14h15.51.953.csv,2,39,1,0,b,1,0,3,aud,B,63,1,1B,0B,1,0,b,4.56759909999982,1,0,1,1,1B,0B,B10,3.29583686600433,0.750233310053266,0.5,0.5,0.5,0.447810681465321,0.708728340419834,0.5,0.447810681465321,0.5,0.5,0.814608421926357,0.5,0.5,0.5,0.5,0.747448621311941,0.61280106162316,0.38719893837684,0.708728340419834,0.447810681465321,0.00226376086339904,0.988915393966719,0.291271659580166,0.0304025388439075,0.5,0.104378637069357,0.690472653949999,7.1077764577534,2.80128755349838,0.5,50.4311636820121
CBC_1058,CBC_1058_MSI_AV_v3_Vset5_Aset3_2024-01-26_14h15.51.953.csv,2,40,3,2,z,0,1,2,aud,C,63,0,3C,2C,1,0,z,1.39002899999923,0,1,1,0,2C,3C,C32,2.90872089656436,0.750233310053266,0.5,0.5,0.5,0.447810681465321,0.739130879263741,0.5,0.447810681465321,0.5,0.5,0.814608421926357,0.5,0.5,0.5,0.5,0.747448621311941,0.61965860581714,0.38034139418286,0.814608421926357,0.5,0.925051284074399,0.991538735271848,-0.814608421926357,-0.085027716825893,0.5,0.104378637069357,0.690472653949999,7.1077764577534,2.80128755349838,0.5,50.4311636820121
CBC_1058,CBC_1058_MSI_AV_v3_Vset5_Aset3_2024-01-26_14h15.51.953.csv,2,41,0,2,b,1,0,1,aud,A,27,1,0A,2A,1,0,b,1.22831369999949,1,0,1,1,0A,2A,A02,3.3322045101752,0.750233310053266,0.5,0.5,0.5,0.447810681465321,0.739130879263741,0.5,0.447810681465321,0.5,0.5,0.729580705100464,0.5,0.5,0.5,0.5,0.747448621311941,0.600074645284649,0.399925354715351,0.750233310053266,0.5,0.972991521007218,0.981733011551074,0.249766689946734,0.0260703066819648,0.5,0.104378637069357,0.690472653949999,7.1077764577534,2.80128755349838,0.5,50.4311636820121
CBC_1058,CBC_1058_MSI_AV_v3_Vset5_Aset3_2024-01-26_14h15.51.953.csv,2,42,2,3,z,0,1,0,aud,D,63,1,2D,3D,0,1,z,1.83717739999975,0,1,1,1,3D,2D,D23,4.04305126783455,0.776303616735231,0.5,0.5,0.5,0.447810681465321,0.739130879263741,0.5,0.447810681465321,0.5,0.5,0.729580705100464,0.5,0.5,0.5,0.5,0.747448621311941,0.599181888970986,0.400818111029014,0.747448621311941,0.5,0.444454475689469,0.981099484743113,0.252551378688059,0.0263609686974466,0.5,0.104378637069357,0.690472653949999,7.1077764577534,2.80128755349838,0.5,50.4311636820121
CBC_1058,CBC_1058_MSI_AV_v3_Vset5_Aset3_2024-01-26_14h15.51.953.csv,2,43,1,3,b,1,0,3,aud,B,27,1,1B,3B,1,0,b,1.88058919999912,1,0,1,1,1B,3B,B13,3.36729582998647,0.776303616735231,0.5,0.5,0.5,0.447810681465321,0.739130879263741,0.5,0.447810681465321,0.5,0.5,0.729580705100464,0.5,0.5,0.5,0.5,0.773809590009388,0.622718846250308,0.377281153749692,0.739130879263741,0.447810681465321,0.354099540866824,0.992488642085006,0.260869120736259,0.0272291632759322,0.5,0.104378637069357,0.690472653949999,7.1077764577534,2.80128755349838,0.5,50.4311636820121
CBC_1058,CBC_1058_MSI_AV_v3_Vset5_Aset3_2024-01-26_14h15.51.953.csv,2,44,3,2,z,0,1,2,aud,C,63,1,3C,2C,0,1,z,1.39799319999929,0,1,1,1,2C,3C,C32,2.69124308278583,0.776303616735231,0.5,0.5,0.5,0.447810681465321,0.766360042539674,0.5,0.447810681465321,0.5,0.5,0.729580705100464,0.5,0.5,0.5,0.5,0.773809590009388,0.593357314468311,0.406642685531689,0.729580705100464,0.5,0.807628236209724,0.976291404488631,0.270419294899536,0.0282259974388701,0.5,0.104378637069357,0.690472653949999,7.1077764577534,2.80128755349838,0.5,50.4311636820121
