ID,filename,session,trial,visStimLeft,visStimRight,correctKey,leftCorrect,rightCorrect,secondStim,mod2Type,mod2Stim,frequency,rewardAccurate,stimPairLeft,stimPairRight,pCorrectLeft,pCorrectRight,key,reactionTime,choiceLeft,choiceRight,choiceAccurate,reward,chosenPair,otherPair,triplet,surprise,0A belief,1A belief,2A belief,3A belief,0B belief,1B belief,2B belief,3B belief,0C belief,1C belief,2C belief,3C belief,0D belief,1D belief,2D belief,3D belief,beliefPairNorm,beliefOtherPairNorm,beliefPair,beliefOtherPair,lik,corrLik,rewardPE,update2,fitCBCsimpleRW_CBCdriftDiffusionLR_startBelief,fitCBCsimpleRW_CBCdriftDiffusionLR_alpha1,fitCBCsimpleRW_CBCdriftDiffusionLR_nonDecisionTime,fitCBCsimpleRW_CBCdriftDiffusionLR_weight,fitCBCsimpleRW_CBCdriftDiffusionLR_startingBoundary,fitCBCsimpleRW_CBCdriftDiffusionLR_startingPoint,fit_CBCsimpleRW_CBCdriftDiffusionLR_NLL
CBC_1027,CBC_1027_MSI_AV_v3_Vset5_Aset1_2023-07-21_16h27.29.899.csv,1,1,0,1,z,0,1,2,aud,B,63,1,0B,1B,0,1,b,2.55251940000016,1,0,0,0,0B,1B,B01,2.77258872223978,0.5,0.5,0.5,0.5,0.5,0.5,0.5,0.5,0.5,0.5,0.5,0.5,0.5,0.5,0.5,0.5,0.5,0.5,0.5,0.5,0.110367417938437,0.499795132749303,-0.5,-0.493020019248673,0.5,0.986040038497345,0.903420504158944,0.614509162046837,2.07703701157444,0.5,66.1719256728975
CBC_1027,CBC_1027_MSI_AV_v3_Vset5_Aset1_2023-07-21_16h27.29.899.csv,1,2,1,0,z,0,1,0,aud,A,63,1,1A,0A,0,1,z,1.74711059999936,0,1,1,1,0A,1A,A10,2.83321334405622,0.5,0.5,0.5,0.5,0.0069799807513275,0.5,0.5,0.5,0.5,0.5,0.5,0.5,0.5,0.5,0.5,0.5,0.5,0.5,0.5,0.5,0.277159351202423,0.500202934884456,0.5,0.493020019248673,0.5,0.986040038497345,0.903420504158944,0.614509162046837,2.07703701157444,0.5,66.1719256728975
CBC_1027,CBC_1027_MSI_AV_v3_Vset5_Aset1_2023-07-21_16h27.29.899.csv,1,3,2,1,b,1,0,1,aud,C,9,1,2C,1C,1,0,b,1.51832549999926,1,0,1,1,2C,1C,C21,2.89037175789616,0.993020019248672,0.5,0.5,0.5,0.0069799807513275,0.5,0.5,0.5,0.5,0.5,0.5,0.5,0.5,0.5,0.5,0.5,0.5,0.5,0.5,0.5,0.356728525555752,0.500304897267289,0.5,0.493020019248673,0.5,0.986040038497345,0.903420504158944,0.614509162046837,2.07703701157444,0.5,66.1719256728975
CBC_1027,CBC_1027_MSI_AV_v3_Vset5_Aset1_2023-07-21_16h27.29.899.csv,1,4,0,1,b,1,0,0,aud,A,63,1,0A,1A,1,0,z,1.06943179999871,0,1,0,0,1A,0A,A01,2.94443897916644,0.993020019248672,0.5,0.5,0.5,0.0069799807513275,0.5,0.5,0.5,0.5,0.5,0.993020019248672,0.5,0.5,0.5,0.5,0.5,0.334891691707934,0.665108308292066,0.5,0.993020019248672,0.192208998006713,0.396586990214598,-0.5,-0.493020019248673,0.5,0.986040038497345,0.903420504158944,0.614509162046837,2.07703701157444,0.5,66.1719256728975
CBC_1027,CBC_1027_MSI_AV_v3_Vset5_Aset1_2023-07-21_16h27.29.899.csv,1,5,1,3,z,0,1,3,aud,D,27,1,1D,3D,0,1,z,2.33847559999958,0,1,1,1,3D,1D,D13,2.99573227355399,0.993020019248672,0.0069799807513275,0.5,0.5,0.0069799807513275,0.5,0.5,0.5,0.5,0.5,0.993020019248672,0.5,0.5,0.5,0.5,0.5,0.5,0.5,0.5,0.5,0.141210317907321,0.500595367767093,0.5,0.493020019248673,0.5,0.986040038497345,0.903420504158944,0.614509162046837,2.07703701157444,0.5,66.1719256728975
CBC_1027,CBC_1027_MSI_AV_v3_Vset5_Aset1_2023-07-21_16h27.29.899.csv,1,6,1,0,b,1,0,2,aud,B,63,1,1B,0B,1,0,b,2.2439775999992,1,0,1,1,1B,0B,B10,3.04452243772342,0.993020019248672,0.0069799807513275,0.5,0.5,0.0069799807513275,0.5,0.5,0.5,0.5,0.5,0.993020019248672,0.5,0.5,0.5,0.5,0.993020019248672,0.986232235953413,0.013767764046587,0.5,0.0069799807513275,0.230048424148572,0.775624069606297,0.5,0.493020019248673,0.5,0.986040038497345,0.903420504158944,0.614509162046837,2.07703701157444,0.5,66.1719256728975
CBC_1027,CBC_1027_MSI_AV_v3_Vset5_Aset1_2023-07-21_16h27.29.899.csv,1,7,3,2,z,0,1,1,aud,C,63,1,3C,2C,0,1,z,2.33604809999997,0,1,1,1,2C,3C,C32,3.09104245335832,0.993020019248672,0.0069799807513275,0.5,0.5,0.0069799807513275,0.993020019248672,0.5,0.5,0.5,0.5,0.993020019248672,0.5,0.5,0.5,0.5,0.993020019248672,0.665108308292066,0.334891691707934,0.993020019248672,0.5,0.169403036010814,0.603306121136528,0.00697998075132755,0.00688254048874975,0.5,0.986040038497345,0.903420504158944,0.614509162046837,2.07703701157444,0.5,66.1719256728975
CBC_1027,CBC_1027_MSI_AV_v3_Vset5_Aset1_2023-07-21_16h27.29.899.csv,1,8,0,2,b,1,0,0,aud,A,27,1,0A,2A,1,0,b,2.55405000000064,1,0,1,1,0A,2A,A02,3.13549421592915,0.993020019248672,0.0069799807513275,0.5,0.5,0.0069799807513275,0.993020019248672,0.5,0.5,0.5,0.5,0.999902559737422,0.5,0.5,0.5,0.5,0.993020019248672,0.665108308292066,0.334891691707934,0.993020019248672,0.5,0.131664082214242,0.604561984104485,0.00697998075132755,0.00688254048874975,0.5,0.986040038497345,0.903420504158944,0.614509162046837,2.07703701157444,0.5,66.1719256728975
CBC_1027,CBC_1027_MSI_AV_v3_Vset5_Aset1_2023-07-21_16h27.29.899.csv,1,9,2,3,z,0,1,3,aud,D,63,1,2D,3D,0,1,z,1.73897949999991,0,1,1,1,3D,2D,D23,3.17805383034795,0.999902559737422,0.0069799807513275,0.5,0.5,0.0069799807513275,0.993020019248672,0.5,0.5,0.5,0.5,0.999902559737422,0.5,0.5,0.5,0.5,0.993020019248672,0.665108308292066,0.334891691707934,0.993020019248672,0.5,0.339043469449829,0.603383892816429,0.00697998075132755,0.00688254048874975,0.5,0.986040038497345,0.903420504158944,0.614509162046837,2.07703701157444,0.5,66.1719256728975
CBC_1027,CBC_1027_MSI_AV_v3_Vset5_Aset1_2023-07-21_16h27.29.899.csv,1,10,1,3,b,1,0,2,aud,B,27,1,1B,3B,1,0,b,2.14430709999942,1,0,1,1,1B,3B,B13,3.2188758248682,0.999902559737422,0.0069799807513275,0.5,0.5,0.0069799807513275,0.993020019248672,0.5,0.5,0.5,0.5,0.999902559737422,0.5,0.5,0.5,0.5,0.999902559737422,0.665108308292066,0.334891691707934,0.993020019248672,0.5,0.211893983724558,0.603684152044869,0.00697998075132755,0.00688254048874975,0.5,0.986040038497345,0.903420504158944,0.614509162046837,2.07703701157444,0.5,66.1719256728975
CBC_1027,CBC_1027_MSI_AV_v3_Vset5_Aset1_2023-07-21_16h27.29.899.csv,1,11,2,3,b,1,0,1,aud,C,63,1,2C,3C,1,0,z,1.65245679999862,0,1,0,0,3C,2C,C23,3.25809653802148,0.999902559737422,0.0069799807513275,0.5,0.5,0.0069799807513275,0.999902559737422,0.5,0.5,0.5,0.5,0.999902559737422,0.5,0.5,0.5,0.5,0.999902559737422,0.333354988131717,0.666645011868283,0.5,0.999902559737422,0.24566704840451,0.395961143966321,-0.5,-0.493020019248673,0.5,0.986040038497345,0.903420504158944,0.614509162046837,2.07703701157444,0.5,66.1719256728975
CBC_1027,CBC_1027_MSI_AV_v3_Vset5_Aset1_2023-07-21_16h27.29.899.csv,1,12,3,1,z,0,1,2,aud,B,27,1,3B,1B,0,1,z,2.08916800000043,0,1,1,1,1B,3B,B31,3.29583686600433,0.999902559737422,0.0069799807513275,0.5,0.5,0.0069799807513275,0.999902559737422,0.5,0.5,0.5,0.5,0.999902559737422,0.0069799807513275,0.5,0.5,0.5,0.999902559737422,0.666645011868283,0.333354988131717,0.999902559737422,0.5,0.22631382413884,0.604715641687023,9.74402625778525e-05,9.60800002634571e-05,0.5,0.986040038497345,0.903420504158944,0.614509162046837,2.07703701157444,0.5,66.1719256728975
CBC_1027,CBC_1027_MSI_AV_v3_Vset5_Aset1_2023-07-21_16h27.29.899.csv,1,13,2,3,b,1,0,1,aud,C,63,1,2C,3C,1,0,b,1.47864259999915,1,0,1,1,2C,3C,C23,2.63905732961526,0.999902559737422,0.0069799807513275,0.5,0.5,0.0069799807513275,0.999998639737686,0.5,0.5,0.5,0.5,0.999902559737422,0.0069799807513275,0.5,0.5,0.5,0.999902559737422,0.993067730871627,0.00693226912837256,0.999902559737422,0.0069799807513275,0.627108339378137,0.779022827049066,9.74402625778525e-05,9.60800002634571e-05,0.5,0.986040038497345,0.903420504158944,0.614509162046837,2.07703701157444,0.5,66.1719256728975
CBC_1027,CBC_1027_MSI_AV_v3_Vset5_Aset1_2023-07-21_16h27.29.899.csv,1,14,2,3,z,0,1,3,aud,D,63,1,2D,3D,0,1,z,1.54143199999999,0,1,1,1,3D,2D,D23,2.67414864942653,0.999902559737422,0.0069799807513275,0.5,0.5,0.0069799807513275,0.999998639737686,0.5,0.5,0.5,0.5,0.999998639737686,0.0069799807513275,0.5,0.5,0.5,0.999902559737422,0.666645011868283,0.333354988131717,0.999902559737422,0.5,0.424338195450693,0.604337207277821,9.74402625778525e-05,9.60800002634571e-05,0.5,0.986040038497345,0.903420504158944,0.614509162046837,2.07703701157444,0.5,66.1719256728975
CBC_1027,CBC_1027_MSI_AV_v3_Vset5_Aset1_2023-07-21_16h27.29.899.csv,1,15,3,0,z,0,1,0,aud,A,9,1,3A,0A,0,1,z,1.70691380000062,0,1,1,1,0A,3A,A30,3.40119738166216,0.999902559737422,0.0069799807513275,0.5,0.5,0.0069799807513275,0.999998639737686,0.5,0.5,0.5,0.5,0.999998639737686,0.0069799807513275,0.5,0.5,0.5,0.999998639737686,0.666645011868283,0.333354988131717,0.999902559737422,0.5,0.353101106194157,0.605531702458774,9.74402625778525e-05,9.60800002634571e-05,0.5,0.986040038497345,0.903420504158944,0.614509162046837,2.07703701157444,0.5,66.1719256728975
CBC_1027,CBC_1027_MSI_AV_v3_Vset5_Aset1_2023-07-21_16h27.29.899.csv,1,16,1,0,b,1,0,2,aud,B,63,0,1B,0B,0,1,b,1.09278499999891,1,0,1,0,1B,0B,B10,2.7408400239252,0.999998639737686,0.0069799807513275,0.5,0.5,0.0069799807513275,0.999998639737686,0.5,0.5,0.5,0.5,0.999998639737686,0.0069799807513275,0.5,0.5,0.5,0.999998639737686,0.993068392308133,0.00693160769186723,0.999998639737686,0.0069799807513275,0.528701686834698,0.77913094043847,-0.999998639737686,-0.98603869722424,0.5,0.986040038497345,0.903420504158944,0.614509162046837,2.07703701157444,0.5,66.1719256728975
CBC_1027,CBC_1027_MSI_AV_v3_Vset5_Aset1_2023-07-21_16h27.29.899.csv,1,17,3,2,b,1,0,3,aud,D,63,1,3D,2D,1,0,z,3.08892840000044,0,1,0,0,2D,3D,D32,3.46573590279973,0.999998639737686,0.0069799807513275,0.5,0.5,0.0069799807513275,0.0139599425134455,0.5,0.5,0.5,0.5,0.999998639737686,0.0069799807513275,0.5,0.5,0.5,0.999998639737686,0.333333635614122,0.666666364385878,0.5,0.999998639737686,0.0461374300831065,0.395066976002209,-0.5,-0.493020019248673,0.5,0.986040038497345,0.903420504158944,0.614509162046837,2.07703701157444,0.5,66.1719256728975
CBC_1027,CBC_1027_MSI_AV_v3_Vset5_Aset1_2023-07-21_16h27.29.899.csv,1,18,2,0,b,1,0,1,aud,C,27,1,2C,0C,1,0,b,1.56955709999966,1,0,1,1,2C,0C,C20,3.49650756146648,0.999998639737686,0.0069799807513275,0.5,0.5,0.0069799807513275,0.0139599425134455,0.5,0.5,0.5,0.5,0.999998639737686,0.0069799807513275,0.5,0.5,0.0069799807513275,0.999998639737686,0.666666364385878,0.333333635614122,0.999998639737686,0.5,0.411539393337714,0.604409799333964,1.36026231434272e-06,1.34127310480098e-06,0.5,0.986040038497345,0.903420504158944,0.614509162046837,2.07703701157444,0.5,66.1719256728975
CBC_1027,CBC_1027_MSI_AV_v3_Vset5_Aset1_2023-07-21_16h27.29.899.csv,1,19,1,0,z,0,1,0,aud,A,63,1,1A,0A,0,1,b,1.72540329999902,1,0,0,0,1A,0A,A10,2.83321334405622,0.999998639737686,0.0069799807513275,0.5,0.5,0.0069799807513275,0.0139599425134455,0.5,0.5,0.5,0.5,0.99999998101079,0.0069799807513275,0.5,0.5,0.0069799807513275,0.999998639737686,0.00693160769186723,0.993068392308133,0.0069799807513275,0.999998639737686,0.130049845575966,0.221076207323552,-0.0069799807513275,-0.00688254048874969,0.5,0.986040038497345,0.903420504158944,0.614509162046837,2.07703701157444,0.5,66.1719256728975
CBC_1027,CBC_1027_MSI_AV_v3_Vset5_Aset1_2023-07-21_16h27.29.899.csv,1,20,0,1,z,0,1,2,aud,B,63,1,0B,1B,0,1,z,1.17991649999931,0,1,1,1,1B,0B,B01,2.86220088092947,0.999998639737686,9.74402625778048e-05,0.5,0.5,0.0069799807513275,0.0139599425134455,0.5,0.5,0.5,0.5,0.99999998101079,0.0069799807513275,0.5,0.5,0.0069799807513275,0.999998639737686,0.666666364385878,0.333333635614122,0.0139599425134455,0.0069799807513275,0.497133407215495,0.603431832358173,0.986040057486555,0.972274976243967,0.5,0.986040038497345,0.903420504158944,0.614509162046837,2.07703701157444,0.5,66.1719256728975
CBC_1027,CBC_1027_MSI_AV_v3_Vset5_Aset1_2023-07-21_16h27.29.899.csv,1,21,3,1,b,1,0,3,aud,D,27,1,3D,1D,1,0,b,2.16403479999826,1,0,1,1,3D,1D,D31,3.58351893845611,0.999998639737686,9.74402625778048e-05,0.5,0.5,0.0069799807513275,0.986234918757412,0.5,0.5,0.5,0.5,0.99999998101079,0.0069799807513275,0.5,0.5,0.0069799807513275,0.999998639737686,0.666666364385878,0.333333635614122,0.999998639737686,0.5,0.207497612642724,0.604954611476154,1.36026231434272e-06,1.34127310480098e-06,0.5,0.986040038497345,0.903420504158944,0.614509162046837,2.07703701157444,0.5,66.1719256728975
CBC_1027,CBC_1027_MSI_AV_v3_Vset5_Aset1_2023-07-21_16h27.29.899.csv,1,22,2,3,b,1,0,1,aud,C,63,1,2C,3C,1,0,b,1.20522579999852,1,0,1,1,2C,3C,C23,2.51230562397611,0.999998639737686,9.74402625778048e-05,0.5,0.5,0.0069799807513275,0.986234918757412,0.5,0.5,0.5,0.5,0.99999998101079,0.0069799807513275,0.5,0.5,0.0069799807513275,0.99999998101079,0.993068401540868,0.0069315984591324,0.99999998101079,0.0069799807513275,0.743220049119454,0.778916311271286,1.89892095381339e-08,1.87241209040157e-08,0.5,0.986040038497345,0.903420504158944,0.614509162046837,2.07703701157444,0.5,66.1719256728975
CBC_1027,CBC_1027_MSI_AV_v3_Vset5_Aset1_2023-07-21_16h27.29.899.csv,1,23,1,0,z,0,1,0,aud,A,63,1,1A,0A,0,1,b,2.17610299999978,1,0,0,0,1A,0A,A10,2.53897387105828,0.999998639737686,9.74402625778048e-05,0.5,0.5,0.0069799807513275,0.986234918757412,0.5,0.5,0.5,0.5,0.999999999734911,0.0069799807513275,0.5,0.5,0.0069799807513275,0.99999998101079,9.74309014167711e-05,0.999902569098583,9.74402625778048e-05,0.999998639737686,0.0706175990211355,0.218361422630729,-9.74402625778048e-05,-9.60800002634101e-05,0.5,0.986040038497345,0.903420504158944,0.614509162046837,2.07703701157444,0.5,66.1719256728975
CBC_1027,CBC_1027_MSI_AV_v3_Vset5_Aset1_2023-07-21_16h27.29.899.csv,1,24,3,2,b,1,0,3,aud,D,63,1,3D,2D,1,0,z,1.45644879999963,0,1,0,0,2D,3D,D32,2.9704144655697,0.999998639737686,1.36026231439475e-06,0.5,0.5,0.0069799807513275,0.986234918757412,0.5,0.5,0.5,0.5,0.999999999734911,0.0069799807513275,0.5,0.5,0.0069799807513275,0.99999998101079,0.0069315984591324,0.993068401540868,0.0069799807513275,0.99999998101079,0.183277976042047,0.222007906885438,-0.0069799807513275,-0.00688254048874969,0.5,0.986040038497345,0.903420504158944,0.614509162046837,2.07703701157444,0.5,66.1719256728975
CBC_1027,CBC_1027_MSI_AV_v3_Vset5_Aset1_2023-07-21_16h27.29.899.csv,1,25,0,2,z,0,1,1,aud,C,27,1,0C,2C,0,1,b,1.70952559999932,1,0,0,0,0C,2C,C02,3.68887945411394,0.999998639737686,1.36026231439475e-06,0.5,0.5,0.0069799807513275,0.986234918757412,0.5,0.5,0.5,0.5,0.999999999734911,0.0069799807513275,0.5,0.5,9.74402625778048e-05,0.99999998101079,0.333333333392242,0.666666666607758,0.5,0.999999999734911,0.229897767002885,0.395476687578747,-0.5,-0.493020019248673,0.5,0.986040038497345,0.903420504158944,0.614509162046837,2.07703701157444,0.5,66.1719256728975
CBC_1027,CBC_1027_MSI_AV_v3_Vset5_Aset1_2023-07-21_16h27.29.899.csv,1,26,1,0,z,0,1,0,aud,A,63,1,1A,0A,0,1,z,3.43591839999863,0,1,1,1,0A,1A,A10,2.32727770558442,0.999998639737686,1.36026231439475e-06,0.5,0.5,0.0069799807513275,0.986234918757412,0.5,0.5,0.0069799807513275,0.5,0.999999999734911,0.0069799807513275,0.5,0.5,9.74402625778048e-05,0.99999998101079,0.999998639737686,1.36026231439475e-06,0.999998639737686,1.36026231439475e-06,0.0471777578099667,0.781702552034095,1.36026231434272e-06,1.34127310480098e-06,0.5,0.986040038497345,0.903420504158944,0.614509162046837,2.07703701157444,0.5,66.1719256728975
CBC_1027,CBC_1027_MSI_AV_v3_Vset5_Aset1_2023-07-21_16h27.29.899.csv,1,27,3,1,z,0,1,2,aud,B,27,1,3B,1B,0,1,b,1.76269959999991,1,0,0,0,3B,1B,B31,3.04452243772342,0.99999998101079,1.36026231439475e-06,0.5,0.5,0.0069799807513275,0.986234918757412,0.5,0.5,0.0069799807513275,0.5,0.999999999734911,0.0069799807513275,0.5,0.5,9.74402625778048e-05,0.99999998101079,0.336420570994276,0.663579429005724,0.5,0.986234918757412,0.217114940504181,0.397116811089056,-0.5,-0.493020019248673,0.5,0.986040038497345,0.903420504158944,0.614509162046837,2.07703701157444,0.5,66.1719256728975
CBC_1027,CBC_1027_MSI_AV_v3_Vset5_Aset1_2023-07-21_16h27.29.899.csv,1,28,2,3,b,1,0,1,aud,C,63,1,2C,3C,1,0,b,1.36931029999869,1,0,1,1,2C,3C,C23,2.37490575457367,0.99999998101079,1.36026231439475e-06,0.5,0.5,0.0069799807513275,0.986234918757412,0.5,0.0069799807513275,0.0069799807513275,0.5,0.999999999734911,0.0069799807513275,0.5,0.5,9.74402625778048e-05,0.99999998101079,0.993068401669756,0.00693159833024395,0.999999999734911,0.0069799807513275,0.70562484815373,0.779147911687979,2.65088617723563e-10,2.6138799082535e-10,0.5,0.986040038497345,0.903420504158944,0.614509162046837,2.07703701157444,0.5,66.1719256728975
CBC_1027,CBC_1027_MSI_AV_v3_Vset5_Aset1_2023-07-21_16h27.29.899.csv,1,29,2,3,z,0,1,3,aud,D,63,1,2D,3D,0,1,b,1.80467200000021,1,0,0,0,2D,3D,D23,2.68557734525015,0.99999998101079,1.36026231439475e-06,0.5,0.5,0.0069799807513275,0.986234918757412,0.5,0.0069799807513275,0.0069799807513275,0.5,0.999999999996299,0.0069799807513275,0.5,0.5,9.74402625778048e-05,0.99999998101079,9.74307707480533e-05,0.999902569229252,9.74402625778048e-05,0.99999998101079,0.115753249982102,0.218374903974168,-9.74402625778048e-05,-9.60800002634101e-05,0.5,0.986040038497345,0.903420504158944,0.614509162046837,2.07703701157444,0.5,66.1719256728975
CBC_1027,CBC_1027_MSI_AV_v3_Vset5_Aset1_2023-07-21_16h27.29.899.csv,1,30,1,0,b,1,0,2,aud,B,63,1,1B,0B,1,0,b,1.91181460000007,1,0,1,1,1B,0B,B10,2.70805020110221,0.99999998101079,1.36026231439475e-06,0.5,0.5,0.0069799807513275,0.986234918757412,0.5,0.0069799807513275,0.0069799807513275,0.5,0.999999999996299,0.0069799807513275,0.5,0.5,1.36026231439475e-06,0.99999998101079,0.992972335841136,0.00702766415886422,0.986234918757412,0.0069799807513275,0.358455580590448,0.7794702041664,0.013765081242588,0.0135729212383606,0.5,0.986040038497345,0.903420504158944,0.614509162046837,2.07703701157444,0.5,66.1719256728975
CBC_1027,CBC_1027_MSI_AV_v3_Vset5_Aset1_2023-07-21_16h27.29.899.csv,1,31,0,2,b,1,0,0,aud,A,27,1,0A,2A,1,0,z,2.1145863999991,0,1,0,0,2A,0A,A02,3.13549421592915,0.99999998101079,1.36026231439475e-06,0.5,0.5,0.0069799807513275,0.999807839995773,0.5,0.0069799807513275,0.0069799807513275,0.5,0.999999999996299,0.0069799807513275,0.5,0.5,1.36026231439475e-06,0.99999998101079,0.333333337553158,0.666666662446842,0.5,0.99999998101079,0.143328607036605,0.394500338624128,-0.5,-0.493020019248673,0.5,0.986040038497345,0.903420504158944,0.614509162046837,2.07703701157444,0.5,66.1719256728975
CBC_1027,CBC_1027_MSI_AV_v3_Vset5_Aset1_2023-07-21_16h27.29.899.csv,1,32,0,3,z,0,1,3,aud,D,9,1,0D,3D,0,1,z,2.57882459999928,0,1,1,1,3D,0D,D03,3.85014760171006,0.99999998101079,1.36026231439475e-06,0.0069799807513275,0.5,0.0069799807513275,0.999807839995773,0.5,0.0069799807513275,0.0069799807513275,0.5,0.999999999996299,0.0069799807513275,0.5,0.5,1.36026231439475e-06,0.99999998101079,0.666666662446842,0.333333337553158,0.99999998101079,0.5,0.128052783903104,0.605308675993573,1.89892095381339e-08,1.87241209040157e-08,0.5,0.986040038497345,0.903420504158944,0.614509162046837,2.07703701157444,0.5,66.1719256728975
CBC_1027,CBC_1027_MSI_AV_v3_Vset5_Aset1_2023-07-21_16h27.29.899.csv,1,33,2,3,b,1,0,1,aud,C,63,1,2C,3C,1,0,b,1.14365399999951,1,0,1,1,2C,3C,C23,2.26176309847379,0.99999998101079,1.36026231439475e-06,0.0069799807513275,0.5,0.0069799807513275,0.999807839995773,0.5,0.0069799807513275,0.0069799807513275,0.5,0.999999999996299,0.0069799807513275,0.5,0.5,1.36026231439475e-06,0.999999999734911,0.993068401671555,0.00693159832844467,0.999999999996299,0.0069799807513275,0.668698973931704,0.778402411092781,3.70059538568057e-12,3.64893521655957e-12,0.5,0.986040038497345,0.903420504158944,0.614509162046837,2.07703701157444,0.5,66.1719256728975
CBC_1027,CBC_1027_MSI_AV_v3_Vset5_Aset1_2023-07-21_16h27.29.899.csv,1,34,1,0,b,1,0,2,aud,B,63,1,1B,0B,1,0,b,3.2633208999996,1,0,1,1,1B,0B,B10,2.50552593699074,0.99999998101079,1.36026231439475e-06,0.0069799807513275,0.5,0.0069799807513275,0.999807839995773,0.5,0.0069799807513275,0.0069799807513275,0.5,0.999999999999948,0.0069799807513275,0.5,0.5,1.36026231439475e-06,0.999999999734911,0.993067078675874,0.00693292132412558,0.999807839995773,0.0069799807513275,0.0595400664241981,0.779277058182452,0.000192160004227393,0.000189477457966029,0.5,0.986040038497345,0.903420504158944,0.614509162046837,2.07703701157444,0.5,66.1719256728975
CBC_1027,CBC_1027_MSI_AV_v3_Vset5_Aset1_2023-07-21_16h27.29.899.csv,1,35,1,0,z,0,1,0,aud,A,63,0,1A,0A,1,0,z,1.05378839999867,0,1,1,0,0A,1A,A10,2.30258509299405,0.99999998101079,1.36026231439475e-06,0.0069799807513275,0.5,0.0069799807513275,0.999997317453739,0.5,0.0069799807513275,0.0069799807513275,0.5,0.999999999999948,0.0069799807513275,0.5,0.5,1.36026231439475e-06,0.999999999734911,0.99999863973951,1.36026048991394e-06,0.99999998101079,1.36026231439475e-06,0.361706196629549,0.78134205201273,-0.99999998101079,-0.986040019773224,0.5,0.986040038497345,0.903420504158944,0.614509162046837,2.07703701157444,0.5,66.1719256728975
CBC_1027,CBC_1027_MSI_AV_v3_Vset5_Aset1_2023-07-21_16h27.29.899.csv,1,36,3,2,b,1,0,3,aud,D,63,1,3D,2D,1,0,b,2.09781900000053,1,0,1,1,3D,2D,D32,2.83321334405622,0.0139599612375664,1.36026231439475e-06,0.0069799807513275,0.5,0.0069799807513275,0.999997317453739,0.5,0.0069799807513275,0.0069799807513275,0.5,0.999999999999948,0.0069799807513275,0.5,0.5,1.36026231439475e-06,0.999999999734911,0.999998639739536,1.36026046444429e-06,0.999999999734911,1.36026231439475e-06,0.280449082250453,0.781171014811881,2.65088617723563e-10,2.6138799082535e-10,0.5,0.986040038497345,0.903420504158944,0.614509162046837,2.07703701157444,0.5,66.1719256728975
CBC_1027,CBC_1027_MSI_AV_v3_Vset5_Aset1_2023-07-21_16h27.29.899.csv,1,37,2,1,z,0,1,2,aud,B,9,1,2B,1B,0,1,b,3.03113239999948,1,0,0,0,2B,1B,B21,3.95124371858143,0.0139599612375664,1.36026231439475e-06,0.0069799807513275,0.5,0.0069799807513275,0.999997317453739,0.5,0.0069799807513275,0.0069799807513275,0.5,0.999999999999948,0.0069799807513275,0.5,0.5,1.36026231439475e-06,0.999999999996299,0.333333929455791,0.666666070544209,0.5,0.999997317453739,0.0494491578949766,0.395738448946106,-0.5,-0.493020019248673,0.5,0.986040038497345,0.903420504158944,0.614509162046837,2.07703701157444,0.5,66.1719256728975
CBC_1027,CBC_1027_MSI_AV_v3_Vset5_Aset1_2023-07-21_16h27.29.899.csv,1,38,0,2,b,1,0,0,aud,A,27,1,0A,2A,1,0,z,1.49797099999887,0,1,0,0,2A,0A,A02,2.87167962488401,0.0139599612375664,1.36026231439475e-06,0.0069799807513275,0.5,0.0069799807513275,0.999997317453739,0.0069799807513275,0.0069799807513275,0.0069799807513275,0.5,0.999999999999948,0.0069799807513275,0.5,0.5,1.36026231439475e-06,0.999999999996299,0.333333337553157,0.666666662446843,0.0069799807513275,0.0139599612375664,0.290208757202344,0.394523701272325,-0.0069799807513275,-0.00688254048874969,0.5,0.986040038497345,0.903420504158944,0.614509162046837,2.07703701157444,0.5,66.1719256728975
CBC_1027,CBC_1027_MSI_AV_v3_Vset5_Aset1_2023-07-21_16h27.29.899.csv,1,39,3,2,z,0,1,1,aud,C,63,1,3C,2C,0,1,z,1.12535670000034,0,1,1,1,2C,3C,C32,3.29583686600433,0.0139599612375664,1.36026231439475e-06,9.74402625778048e-05,0.5,0.0069799807513275,0.999997317453739,0.0069799807513275,0.0069799807513275,0.0069799807513275,0.5,0.999999999999948,0.0069799807513275,0.5,0.5,1.36026231439475e-06,0.999999999996299,0.993068401671581,0.00693159832841955,0.999999999999948,0.0069799807513275,0.628513379356278,0.77876220343627,5.16253706450698e-14,5.09046824583043e-14,0.5,0.986040038497345,0.903420504158944,0.614509162046837,2.07703701157444,0.5,66.1719256728975
CBC_1027,CBC_1027_MSI_AV_v3_Vset5_Aset1_2023-07-21_16h27.29.899.csv,1,40,3,1,b,1,0,3,aud,D,27,1,3D,1D,1,0,b,3.56871849999879,1,0,1,1,3D,1D,D31,3.31418600467253,0.0139599612375664,1.36026231439475e-06,9.74402625778048e-05,0.5,0.0069799807513275,0.999997317453739,0.0069799807513275,0.0069799807513275,0.0069799807513275,0.5,0.999999999999999,0.0069799807513275,0.5,0.5,1.36026231439475e-06,0.999999999996299,0.666666666665844,0.333333333334156,0.999999999996299,0.5,0.0403180038689938,0.602962852396404,3.70059538568057e-12,3.64893521655957e-12,0.5,0.986040038497345,0.903420504158944,0.614509162046837,2.07703701157444,0.5,66.1719256728975
CBC_1027,CBC_1027_MSI_AV_v3_Vset5_Aset1_2023-07-21_16h27.29.899.csv,1,41,1,0,z,0,1,0,aud,A,63,1,1A,0A,0,1,z,1.39482169999974,0,1,1,1,0A,1A,A10,2.23359222150709,0.0139599612375664,1.36026231439475e-06,9.74402625778048e-05,0.5,0.0069799807513275,0.999997317453739,0.0069799807513275,0.0069799807513275,0.0069799807513275,0.5,0.999999999999999,0.0069799807513275,0.5,0.5,1.36026231439475e-06,0.999999999999948,0.999902569229252,9.74307707480531e-05,0.0139599612375664,1.36026231439475e-06,0.692132151362634,0.78177206865851,0.986040038762434,0.972274957781234,0.5,0.986040038497345,0.903420504158944,0.614509162046837,2.07703701157444,0.5,66.1719256728975
CBC_1027,CBC_1027_MSI_AV_v3_Vset5_Aset1_2023-07-21_16h27.29.899.csv,1,42,2,0,b,1,0,1,aud,C,27,1,2C,0C,1,0,b,1.7811443999999,1,0,1,1,2C,0C,C20,3.3499040872746,0.9862349190188,1.36026231439475e-06,9.74402625778048e-05,0.5,0.0069799807513275,0.999997317453739,0.0069799807513275,0.0069799807513275,0.0069799807513275,0.5,0.999999999999999,0.0069799807513275,0.5,0.5,1.36026231439475e-06,0.999999999999948,0.993068401671581,0.0069315983284192,0.999999999999999,0.0069799807513275,0.42587928146972,0.779058773283674,6.66133814775094e-16,6.56834612365217e-16,0.5,0.986040038497345,0.903420504158944,0.614509162046837,2.07703701157444,0.5,66.1719256728975
CBC_1027,CBC_1027_MSI_AV_v3_Vset5_Aset1_2023-07-21_16h27.29.899.csv,1,43,2,3,z,0,1,3,aud,D,63,1,2D,3D,0,1,b,2.30787520000013,1,0,0,0,2D,3D,D23,2.67414864942653,0.9862349190188,1.36026231439475e-06,9.74402625778048e-05,0.5,0.0069799807513275,0.999997317453739,0.0069799807513275,0.0069799807513275,0.0069799807513275,0.5,1,0.0069799807513275,0.5,0.5,1.36026231439475e-06,0.999999999999948,1.36026046408377e-06,0.999998639739536,1.36026231439475e-06,0.999999999999948,0.0591961359082845,0.218198642177336,-1.36026231439475e-06,-1.34127310485228e-06,0.5,0.986040038497345,0.903420504158944,0.614509162046837,2.07703701157444,0.5,66.1719256728975
CBC_1027,CBC_1027_MSI_AV_v3_Vset5_Aset1_2023-07-21_16h27.29.899.csv,1,44,0,1,z,0,1,2,aud,B,63,1,0B,1B,0,1,z,1.25900320000073,0,1,1,1,1B,0B,B01,2.97892515523761,0.9862349190188,1.36026231439475e-06,9.74402625778048e-05,0.5,0.0069799807513275,0.999997317453739,0.0069799807513275,0.0069799807513275,0.0069799807513275,0.5,1,0.0069799807513275,0.5,0.5,1.89892095424631e-08,0.999999999999948,0.993068383206087,0.00693161679391312,0.999997317453739,0.0069799807513275,0.75515476515751,0.779596193694271,2.68254626134556e-06,2.64509801880809e-06,0.5,0.986040038497345,0.903420504158944,0.614509162046837,2.07703701157444,0.5,66.1719256728975
CBC_1027,CBC_1027_MSI_TV_v3_Vset2_Tset2_2023-07-21_16h36.05.936.csv,2,1,3,1,z,0,1,2,tac,B,27,1,3B,1B,0,1,z,2.00913389999914,0,1,1,1,1B,3B,B31,2.77258872223978,0.5,0.5,0.5,0.5,0.5,0.5,0.5,0.5,0.5,0.5,0.5,0.5,0.5,0.5,0.5,0.5,0.5,0.5,0.5,0.5,0.172475421042539,0.498584317517482,0.5,0.16208561327434,0.5,0.32417122654868,0.658283388271389,1.91363827181996,2.50788181810066,0.5,68.4814553776865
CBC_1027,CBC_1027_MSI_TV_v3_Vset2_Tset2_2023-07-21_16h36.05.936.csv,2,2,2,3,b,1,0,1,tac,C,63,1,2C,3C,1,0,z,2.35133200000018,0,1,0,0,3C,2C,C23,2.83321334405622,0.5,0.5,0.5,0.5,0.5,0.66208561327434,0.5,0.5,0.5,0.5,0.5,0.5,0.5,0.5,0.5,0.5,0.5,0.5,0.5,0.5,0.132343383446159,0.500126430938164,-0.5,-0.16208561327434,0.5,0.32417122654868,0.658283388271389,1.91363827181996,2.50788181810066,0.5,68.4814553776865
CBC_1027,CBC_1027_MSI_TV_v3_Vset2_Tset2_2023-07-21_16h36.05.936.csv,2,3,2,3,z,0,1,3,tac,D,63,1,2D,3D,0,1,z,1.92471239999941,0,1,1,1,3D,2D,D23,2.89037175789616,0.5,0.5,0.5,0.5,0.5,0.66208561327434,0.5,0.5,0.5,0.5,0.5,0.33791438672566,0.5,0.5,0.5,0.5,0.5,0.5,0.5,0.5,0.184723377660229,0.49998377647748,0.5,0.16208561327434,0.5,0.32417122654868,0.658283388271389,1.91363827181996,2.50788181810066,0.5,68.4814553776865
CBC_1027,CBC_1027_MSI_TV_v3_Vset2_Tset2_2023-07-21_16h36.05.936.csv,2,4,1,0,b,1,0,2,tac,B,63,1,1B,0B,1,0,z,2.08881999999903,0,1,0,0,0B,1B,B10,2.94443897916644,0.5,0.5,0.5,0.5,0.5,0.66208561327434,0.5,0.5,0.5,0.5,0.5,0.33791438672566,0.5,0.5,0.5,0.66208561327434,0.430260898412794,0.569739101587206,0.5,0.66208561327434,0.110607593893783,0.338918435046773,-0.5,-0.16208561327434,0.5,0.32417122654868,0.658283388271389,1.91363827181996,2.50788181810066,0.5,68.4814553776865
CBC_1027,CBC_1027_MSI_TV_v3_Vset2_Tset2_2023-07-21_16h36.05.936.csv,2,5,3,0,z,0,1,0,tac,A,9,1,3A,0A,0,1,z,2.4876064,0,1,1,1,0A,3A,A30,2.99573227355399,0.5,0.5,0.5,0.5,0.33791438672566,0.66208561327434,0.5,0.5,0.5,0.5,0.5,0.33791438672566,0.5,0.5,0.5,0.66208561327434,0.5,0.5,0.5,0.5,0.118827803926324,0.499704692791047,0.5,0.16208561327434,0.5,0.32417122654868,0.658283388271389,1.91363827181996,2.50788181810066,0.5,68.4814553776865
CBC_1027,CBC_1027_MSI_TV_v3_Vset2_Tset2_2023-07-21_16h36.05.936.csv,2,6,2,3,z,0,1,3,tac,D,63,1,2D,3D,0,1,b,1.19437369999832,1,0,0,0,2D,3D,D23,2.35137525716348,0.66208561327434,0.5,0.5,0.5,0.33791438672566,0.66208561327434,0.5,0.5,0.5,0.5,0.5,0.33791438672566,0.5,0.5,0.5,0.66208561327434,0.430260898412794,0.569739101587206,0.5,0.66208561327434,0.206436797857982,0.338648207039101,-0.5,-0.16208561327434,0.5,0.32417122654868,0.658283388271389,1.91363827181996,2.50788181810066,0.5,68.4814553776865
CBC_1027,CBC_1027_MSI_TV_v3_Vset2_Tset2_2023-07-21_16h36.05.936.csv,2,7,2,0,b,1,0,1,tac,C,27,1,2C,0C,1,0,b,2.45755070000087,1,0,1,1,2C,0C,C20,3.09104245335832,0.66208561327434,0.5,0.5,0.5,0.33791438672566,0.66208561327434,0.5,0.5,0.5,0.5,0.5,0.33791438672566,0.5,0.5,0.33791438672566,0.66208561327434,0.5,0.5,0.5,0.5,0.121711978530969,0.499907763426291,0.5,0.16208561327434,0.5,0.32417122654868,0.658283388271389,1.91363827181996,2.50788181810066,0.5,68.4814553776865
CBC_1027,CBC_1027_MSI_TV_v3_Vset2_Tset2_2023-07-21_16h36.05.936.csv,2,8,1,0,z,0,1,0,tac,A,63,1,1A,0A,0,1,z,2.56390459999966,0,1,1,1,0A,1A,A10,3.13549421592915,0.66208561327434,0.5,0.5,0.5,0.33791438672566,0.66208561327434,0.5,0.5,0.5,0.5,0.66208561327434,0.33791438672566,0.5,0.5,0.33791438672566,0.66208561327434,0.569739101587206,0.430260898412794,0.66208561327434,0.5,0.146194664230173,0.66114961670333,0.33791438672566,0.109542121213302,0.5,0.32417122654868,0.658283388271389,1.91363827181996,2.50788181810066,0.5,68.4814553776865
CBC_1027,CBC_1027_MSI_TV_v3_Vset2_Tset2_2023-07-21_16h36.05.936.csv,2,9,0,1,z,0,1,2,tac,B,63,1,0B,1B,0,1,z,2.29913029999989,0,1,1,1,1B,0B,B01,3.17805383034795,0.771627734487642,0.5,0.5,0.5,0.33791438672566,0.66208561327434,0.5,0.5,0.5,0.5,0.66208561327434,0.33791438672566,0.5,0.5,0.33791438672566,0.66208561327434,0.66208561327434,0.33791438672566,0.66208561327434,0.33791438672566,0.218888149224758,0.826248864135808,0.33791438672566,0.109542121213302,0.5,0.32417122654868,0.658283388271389,1.91363827181996,2.50788181810066,0.5,68.4814553776865
CBC_1027,CBC_1027_MSI_TV_v3_Vset2_Tset2_2023-07-21_16h36.05.936.csv,2,10,3,1,b,1,0,3,tac,D,27,1,3D,1D,1,0,b,1.49538550000034,1,0,1,1,3D,1D,D31,3.2188758248682,0.771627734487642,0.5,0.5,0.5,0.33791438672566,0.771627734487642,0.5,0.5,0.5,0.5,0.66208561327434,0.33791438672566,0.5,0.5,0.33791438672566,0.66208561327434,0.569739101587206,0.430260898412794,0.66208561327434,0.5,0.34596385096561,0.661610815196576,0.33791438672566,0.109542121213302,0.5,0.32417122654868,0.658283388271389,1.91363827181996,2.50788181810066,0.5,68.4814553776865
CBC_1027,CBC_1027_MSI_TV_v3_Vset2_Tset2_2023-07-21_16h36.05.936.csv,2,11,2,3,b,1,0,1,tac,C,63,1,2C,3C,1,0,b,2.58627850000084,1,0,1,1,2C,3C,C23,2.56494935746154,0.771627734487642,0.5,0.5,0.5,0.33791438672566,0.771627734487642,0.5,0.5,0.5,0.5,0.66208561327434,0.33791438672566,0.5,0.5,0.33791438672566,0.771627734487642,0.66208561327434,0.33791438672566,0.66208561327434,0.33791438672566,0.165288474699816,0.825305196813508,0.33791438672566,0.109542121213302,0.5,0.32417122654868,0.658283388271389,1.91363827181996,2.50788181810066,0.5,68.4814553776865
CBC_1027,CBC_1027_MSI_TV_v3_Vset2_Tset2_2023-07-21_16h36.05.936.csv,2,12,0,1,z,0,1,2,tac,B,63,1,0B,1B,0,1,z,2.11837000000014,0,1,1,1,1B,0B,B01,2.60268968544438,0.771627734487642,0.5,0.5,0.5,0.33791438672566,0.771627734487642,0.5,0.5,0.5,0.5,0.771627734487642,0.33791438672566,0.5,0.5,0.33791438672566,0.771627734487642,0.695446995418123,0.304553004581877,0.771627734487642,0.33791438672566,0.269605370984817,0.866752861828783,0.228372265512358,0.0740317174208418,0.5,0.32417122654868,0.658283388271389,1.91363827181996,2.50788181810066,0.5,68.4814553776865
CBC_1027,CBC_1027_MSI_TV_v3_Vset2_Tset2_2023-07-21_16h36.05.936.csv,2,13,1,0,z,0,1,0,tac,A,63,1,1A,0A,0,1,z,2.29766480000035,0,1,1,1,0A,1A,A10,2.63905732961526,0.771627734487642,0.5,0.5,0.5,0.33791438672566,0.845659451908484,0.5,0.5,0.5,0.5,0.771627734487642,0.33791438672566,0.5,0.5,0.33791438672566,0.771627734487642,0.606803165392223,0.393196834607777,0.771627734487642,0.5,0.200882744152665,0.735879202797266,0.228372265512358,0.0740317174208418,0.5,0.32417122654868,0.658283388271389,1.91363827181996,2.50788181810066,0.5,68.4814553776865
CBC_1027,CBC_1027_MSI_TV_v3_Vset2_Tset2_2023-07-21_16h36.05.936.csv,2,14,2,1,b,1,0,1,tac,C,9,1,2C,1C,1,0,z,2.91122300000097,0,1,0,0,1C,2C,C21,3.36729582998647,0.845659451908484,0.5,0.5,0.5,0.33791438672566,0.845659451908484,0.5,0.5,0.5,0.5,0.771627734487642,0.33791438672566,0.5,0.5,0.33791438672566,0.771627734487642,0.393196834607777,0.606803165392223,0.5,0.771627734487642,0.0422617855723302,0.263748845258845,-0.5,-0.16208561327434,0.5,0.32417122654868,0.658283388271389,1.91363827181996,2.50788181810066,0.5,68.4814553776865
CBC_1027,CBC_1027_MSI_TV_v3_Vset2_Tset2_2023-07-21_16h36.05.936.csv,2,15,0,1,b,1,0,0,tac,A,63,1,0A,1A,1,0,b,2.34309489999941,1,0,1,1,0A,1A,A01,3.40119738166216,0.845659451908484,0.5,0.5,0.5,0.33791438672566,0.845659451908484,0.5,0.5,0.5,0.33791438672566,0.771627734487642,0.33791438672566,0.5,0.5,0.33791438672566,0.771627734487642,0.628434966000592,0.371565033999408,0.845659451908484,0.5,0.201047085301507,0.773377073625616,0.154340548091516,0.0500327647810223,0.5,0.32417122654868,0.658283388271389,1.91363827181996,2.50788181810066,0.5,68.4814553776865
CBC_1027,CBC_1027_MSI_TV_v3_Vset2_Tset2_2023-07-21_16h36.05.936.csv,2,16,1,3,z,0,1,3,tac,D,27,1,1D,3D,0,1,z,1.78185109999868,0,1,1,1,3D,1D,D13,3.43398720448515,0.895692216689506,0.5,0.5,0.5,0.33791438672566,0.845659451908484,0.5,0.5,0.5,0.33791438672566,0.771627734487642,0.33791438672566,0.5,0.5,0.33791438672566,0.771627734487642,0.606803165392223,0.393196834607777,0.771627734487642,0.5,0.313777487999711,0.736303700949284,0.228372265512358,0.0740317174208418,0.5,0.32417122654868,0.658283388271389,1.91363827181996,2.50788181810066,0.5,68.4814553776865
CBC_1027,CBC_1027_MSI_TV_v3_Vset2_Tset2_2023-07-21_16h36.05.936.csv,2,17,1,0,b,1,0,2,tac,B,63,1,1B,0B,1,0,b,2.78130149999924,1,0,1,1,1B,0B,B10,2.77258872223978,0.895692216689506,0.5,0.5,0.5,0.33791438672566,0.845659451908484,0.5,0.5,0.5,0.33791438672566,0.771627734487642,0.33791438672566,0.5,0.5,0.33791438672566,0.845659451908484,0.714496573263552,0.285503426736448,0.845659451908484,0.33791438672566,0.129214945528268,0.88703721311554,0.154340548091516,0.0500327647810223,0.5,0.32417122654868,0.658283388271389,1.91363827181996,2.50788181810066,0.5,68.4814553776865
CBC_1027,CBC_1027_MSI_TV_v3_Vset2_Tset2_2023-07-21_16h36.05.936.csv,2,18,3,2,z,0,1,1,tac,C,63,0,3C,2C,1,0,z,1.44309129999965,0,1,1,0,2C,3C,C32,3.49650756146648,0.895692216689506,0.5,0.5,0.5,0.33791438672566,0.895692216689506,0.5,0.5,0.5,0.33791438672566,0.771627734487642,0.33791438672566,0.5,0.5,0.33791438672566,0.845659451908484,0.695446995418123,0.304553004581877,0.771627734487642,0.33791438672566,0.541162270202436,0.866916495489746,-0.771627734487642,-0.250139509127838,0.5,0.32417122654868,0.658283388271389,1.91363827181996,2.50788181810066,0.5,68.4814553776865
CBC_1027,CBC_1027_MSI_TV_v3_Vset2_Tset2_2023-07-21_16h36.05.936.csv,2,19,0,2,b,1,0,0,tac,A,27,1,0A,2A,1,0,z,3.38169779999953,0,1,0,0,2A,0A,A02,3.52636052461616,0.895692216689506,0.5,0.5,0.5,0.33791438672566,0.895692216689506,0.5,0.5,0.5,0.33791438672566,0.521488225359804,0.33791438672566,0.5,0.5,0.33791438672566,0.845659451908484,0.358245173270342,0.641754826729658,0.5,0.895692216689506,0.0200164159825112,0.204273261347544,-0.5,-0.16208561327434,0.5,0.32417122654868,0.658283388271389,1.91363827181996,2.50788181810066,0.5,68.4814553776865
CBC_1027,CBC_1027_MSI_TV_v3_Vset2_Tset2_2023-07-21_16h36.05.936.csv,2,20,2,3,z,0,1,3,tac,D,63,1,2D,3D,0,1,z,0.943765699999858,0,1,1,1,3D,2D,D23,2.4567357728213,0.895692216689506,0.5,0.33791438672566,0.5,0.33791438672566,0.895692216689506,0.5,0.5,0.5,0.33791438672566,0.521488225359804,0.33791438672566,0.5,0.5,0.33791438672566,0.845659451908484,0.714496573263552,0.285503426736448,0.845659451908484,0.33791438672566,0.531102761562788,0.886873686258019,0.154340548091516,0.0500327647810223,0.5,0.32417122654868,0.658283388271389,1.91363827181996,2.50788181810066,0.5,68.4814553776865
CBC_1027,CBC_1027_MSI_TV_v3_Vset2_Tset2_2023-07-21_16h36.05.936.csv,2,21,1,3,b,1,0,2,tac,B,27,1,1B,3B,1,0,b,2.10556170000018,1,0,1,1,1B,3B,B13,3.58351893845611,0.895692216689506,0.5,0.33791438672566,0.5,0.33791438672566,0.895692216689506,0.5,0.5,0.5,0.33791438672566,0.521488225359804,0.33791438672566,0.5,0.5,0.33791438672566,0.895692216689506,0.641754826729658,0.358245173270342,0.895692216689506,0.5,0.256002435936333,0.796002850633933,0.104307783310494,0.0338135820543367,0.5,0.32417122654868,0.658283388271389,1.91363827181996,2.50788181810066,0.5,68.4814553776865
CBC_1027,CBC_1027_MSI_TV_v3_Vset2_Tset2_2023-07-21_16h36.05.936.csv,2,22,2,3,b,1,0,1,tac,C,63,1,2C,3C,1,0,b,1.81747330000144,1,0,1,1,2C,3C,C23,2.51230562397611,0.895692216689506,0.5,0.33791438672566,0.5,0.33791438672566,0.929505798743843,0.5,0.5,0.5,0.33791438672566,0.521488225359804,0.33791438672566,0.5,0.5,0.33791438672566,0.895692216689506,0.606803165392223,0.393196834607777,0.521488225359804,0.33791438672566,0.304090234598252,0.735713177302478,0.478511774640196,0.155119748903098,0.5,0.32417122654868,0.658283388271389,1.91363827181996,2.50788181810066,0.5,68.4814553776865
CBC_1027,CBC_1027_MSI_TV_v3_Vset2_Tset2_2023-07-21_16h36.05.936.csv,2,23,1,0,z,0,1,0,tac,A,63,1,1A,0A,0,1,z,2.29386429999977,0,1,1,1,0A,1A,A10,2.53897387105828,0.895692216689506,0.5,0.33791438672566,0.5,0.33791438672566,0.929505798743843,0.5,0.5,0.5,0.33791438672566,0.676607974262902,0.33791438672566,0.5,0.5,0.33791438672566,0.895692216689506,0.641754826729658,0.358245173270342,0.895692216689506,0.5,0.21478430880515,0.79567498494773,0.104307783310494,0.0338135820543367,0.5,0.32417122654868,0.658283388271389,1.91363827181996,2.50788181810066,0.5,68.4814553776865
CBC_1027,CBC_1027_MSI_TV_v3_Vset2_Tset2_2023-07-21_16h36.05.936.csv,2,24,1,2,b,1,0,2,tac,B,9,1,1B,2B,1,0,b,1.92397549999987,1,0,1,1,1B,2B,B12,3.66356164612965,0.929505798743843,0.5,0.33791438672566,0.5,0.33791438672566,0.929505798743843,0.5,0.5,0.5,0.33791438672566,0.676607974262902,0.33791438672566,0.5,0.5,0.33791438672566,0.895692216689506,0.650228771062441,0.349771228937558,0.929505798743843,0.5,0.308384301257371,0.808843054044771,0.0704942012561572,0.022852191685778,0.5,0.32417122654868,0.658283388271389,1.91363827181996,2.50788181810066,0.5,68.4814553776865
CBC_1027,CBC_1027_MSI_TV_v3_Vset2_Tset2_2023-07-21_16h36.05.936.csv,2,25,3,2,z,0,1,1,tac,C,63,1,3C,2C,0,1,z,2.35015120000025,0,1,1,1,2C,3C,C32,2.99573227355399,0.929505798743843,0.5,0.33791438672566,0.5,0.33791438672566,0.952357990429621,0.5,0.5,0.5,0.33791438672566,0.676607974262902,0.33791438672566,0.5,0.5,0.33791438672566,0.895692216689506,0.666922682318808,0.333077317681192,0.676607974262902,0.33791438672566,0.208956461962348,0.832773740357267,0.323392025737098,0.104834389639257,0.5,0.32417122654868,0.658283388271389,1.91363827181996,2.50788181810066,0.5,68.4814553776865
CBC_1027,CBC_1027_MSI_TV_v3_Vset2_Tset2_2023-07-21_16h36.05.936.csv,2,26,3,2,b,1,0,3,tac,D,63,1,3D,2D,1,0,b,0.93083359999946,1,0,1,1,3D,2D,D32,3.71357206670431,0.929505798743843,0.5,0.33791438672566,0.5,0.33791438672566,0.952357990429621,0.5,0.5,0.5,0.33791438672566,0.781442363902159,0.33791438672566,0.5,0.5,0.33791438672566,0.895692216689506,0.726076055534913,0.273923944465087,0.895692216689506,0.33791438672566,0.525019550816897,0.897523967046072,0.104307783310494,0.0338135820543367,0.5,0.32417122654868,0.658283388271389,1.91363827181996,2.50788181810066,0.5,68.4814553776865
CBC_1027,CBC_1027_MSI_TV_v3_Vset2_Tset2_2023-07-21_16h36.05.936.csv,2,27,1,0,b,1,0,2,tac,B,63,1,1B,0B,1,0,z,1.71299759999965,0,1,0,0,0B,1B,B10,2.63905732961526,0.929505798743843,0.5,0.33791438672566,0.5,0.33791438672566,0.952357990429621,0.5,0.5,0.5,0.33791438672566,0.781442363902159,0.33791438672566,0.5,0.5,0.33791438672566,0.929505798743843,0.261893839400542,0.738106160599458,0.33791438672566,0.952357990429621,0.0447894813738691,0.0923920759444703,-0.33791438672566,-0.109542121213302,0.5,0.32417122654868,0.658283388271389,1.91363827181996,2.50788181810066,0.5,68.4814553776865
CBC_1027,CBC_1027_MSI_TV_v3_Vset2_Tset2_2023-07-21_16h36.05.936.csv,2,28,2,0,z,0,1,0,tac,A,27,1,2A,0A,0,1,z,2.80807629999981,0,1,1,1,0A,2A,A20,3.76120011569356,0.929505798743843,0.5,0.33791438672566,0.5,0.228372265512358,0.952357990429621,0.5,0.5,0.5,0.33791438672566,0.781442363902159,0.33791438672566,0.5,0.5,0.33791438672566,0.929505798743843,0.733384089507393,0.266615910492607,0.929505798743843,0.33791438672566,0.120247782264288,0.903707527790247,0.0704942012561572,0.022852191685778,0.5,0.32417122654868,0.658283388271389,1.91363827181996,2.50788181810066,0.5,68.4814553776865
CBC_1027,CBC_1027_MSI_TV_v3_Vset2_Tset2_2023-07-21_16h36.05.936.csv,2,29,3,1,b,1,0,3,tac,D,27,1,3D,1D,1,0,b,1.05690529999993,1,0,1,1,3D,1D,D31,3.09104245335832,0.952357990429621,0.5,0.33791438672566,0.5,0.228372265512358,0.952357990429621,0.5,0.5,0.5,0.33791438672566,0.781442363902159,0.33791438672566,0.5,0.5,0.33791438672566,0.929505798743843,0.650228771062441,0.349771228937558,0.929505798743843,0.5,0.533418139180238,0.809419870356477,0.0704942012561572,0.022852191685778,0.5,0.32417122654868,0.658283388271389,1.91363827181996,2.50788181810066,0.5,68.4814553776865
CBC_1027,CBC_1027_MSI_TV_v3_Vset2_Tset2_2023-07-21_16h36.05.936.csv,2,30,0,1,b,1,0,0,tac,A,63,1,0A,1A,1,0,b,1.91738470000018,1,0,1,1,0A,1A,A01,3.11351530921037,0.952357990429621,0.5,0.33791438672566,0.5,0.228372265512358,0.952357990429621,0.5,0.5,0.5,0.33791438672566,0.781442363902159,0.33791438672566,0.5,0.5,0.33791438672566,0.952357990429621,0.655732262090495,0.344267737909505,0.952357990429621,0.5,0.313679917427993,0.816826552200205,0.0476420095703792,0.0154441686776738,0.5,0.32417122654868,0.658283388271389,1.91363827181996,2.50788181810066,0.5,68.4814553776865
CBC_1027,CBC_1027_MSI_TV_v3_Vset2_Tset2_2023-07-21_16h36.05.936.csv,2,31,0,2,z,0,1,1,tac,C,27,1,0C,2C,0,1,z,3.1428274000009,0,1,1,1,2C,0C,C02,3.8286413964891,0.967802159107295,0.5,0.33791438672566,0.5,0.228372265512358,0.952357990429621,0.5,0.5,0.5,0.33791438672566,0.781442363902159,0.33791438672566,0.5,0.5,0.33791438672566,0.952357990429621,0.609814679079725,0.390185320920275,0.781442363902159,0.5,0.0967174127648139,0.741578210053361,0.218557636097841,0.0708500969654171,0.5,0.32417122654868,0.658283388271389,1.91363827181996,2.50788181810066,0.5,68.4814553776865
CBC_1027,CBC_1027_MSI_TV_v3_Vset2_Tset2_2023-07-21_16h36.05.936.csv,2,32,3,2,b,1,0,3,tac,D,63,1,3D,2D,1,0,b,1.15712560000065,1,0,1,1,3D,2D,D32,3.15700042115011,0.967802159107295,0.5,0.33791438672566,0.5,0.228372265512358,0.952357990429621,0.5,0.5,0.5,0.33791438672566,0.852292460867576,0.33791438672566,0.5,0.5,0.33791438672566,0.952357990429621,0.738106160599458,0.261893839400542,0.952357990429621,0.33791438672566,0.74814953503224,0.90759596192305,0.0476420095703792,0.0154441686776738,0.5,0.32417122654868,0.658283388271389,1.91363827181996,2.50788181810066,0.5,68.4814553776865
CBC_1027,CBC_1027_MSI_TV_v3_Vset2_Tset2_2023-07-21_16h36.05.936.csv,2,33,0,1,z,0,1,2,tac,B,63,1,0B,1B,0,1,z,2.25980659999914,0,1,1,1,1B,0B,B01,2.77258872223978,0.967802159107295,0.5,0.33791438672566,0.5,0.228372265512358,0.952357990429621,0.5,0.5,0.5,0.33791438672566,0.852292460867576,0.33791438672566,0.5,0.5,0.33791438672566,0.967802159107295,0.806583879456731,0.193416120543268,0.952357990429621,0.228372265512358,0.20571842736696,0.949771496195743,0.0476420095703792,0.0154441686776738,0.5,0.32417122654868,0.658283388271389,1.91363827181996,2.50788181810066,0.5,68.4814553776865
CBC_1027,CBC_1027_MSI_TV_v3_Vset2_Tset2_2023-07-21_16h36.05.936.csv,2,34,1,0,z,0,1,0,tac,A,63,1,1A,0A,0,1,z,4.4611189999996,0,1,1,1,0A,1A,A10,2.50552593699074,0.967802159107295,0.5,0.33791438672566,0.5,0.228372265512358,0.967802159107295,0.5,0.5,0.5,0.33791438672566,0.852292460867576,0.33791438672566,0.5,0.5,0.33791438672566,0.967802159107295,0.659354636523974,0.340645363476026,0.967802159107295,0.5,0.0267640643720912,0.822039949021924,0.0321978408927055,0.0104376135744076,0.5,0.32417122654868,0.658283388271389,1.91363827181996,2.50788181810066,0.5,68.4814553776865
CBC_1027,CBC_1027_MSI_TV_v3_Vset2_Tset2_2023-07-21_16h36.05.936.csv,2,35,3,2,b,1,0,3,tac,D,63,0,3D,2D,0,1,b,0.853427599999122,1,0,1,0,3D,2D,D32,2.81341071676004,0.978239772681702,0.5,0.33791438672566,0.5,0.228372265512358,0.967802159107295,0.5,0.5,0.5,0.33791438672566,0.852292460867576,0.33791438672566,0.5,0.5,0.33791438672566,0.967802159107295,0.74120387169476,0.25879612830524,0.967802159107295,0.33791438672566,0.302283546488634,0.910036486761368,-0.967802159107295,-0.313733612974272,0.5,0.32417122654868,0.658283388271389,1.91363827181996,2.50788181810066,0.5,68.4814553776865
CBC_1027,CBC_1027_MSI_TV_v3_Vset2_Tset2_2023-07-21_16h36.05.936.csv,2,36,0,2,z,0,1,1,tac,C,27,1,0C,2C,0,1,z,1.53691359999902,0,1,1,1,2C,0C,C02,3.23867845216438,0.978239772681702,0.5,0.33791438672566,0.5,0.228372265512358,0.967802159107295,0.5,0.5,0.5,0.33791438672566,0.852292460867576,0.33791438672566,0.5,0.5,0.33791438672566,0.654068546133022,0.63025749645959,0.36974250354041,0.852292460867576,0.5,0.414829137182453,0.777264192642931,0.147707539132424,0.0478825341310449,0.5,0.32417122654868,0.658283388271389,1.91363827181996,2.50788181810066,0.5,68.4814553776865
CBC_1027,CBC_1027_MSI_TV_v3_Vset2_Tset2_2023-07-21_16h36.05.936.csv,2,37,1,0,z,0,1,0,tac,A,63,1,1A,0A,0,1,z,0.882762200000798,0,1,1,1,0A,1A,A10,2.34180580614733,0.978239772681702,0.5,0.33791438672566,0.5,0.228372265512358,0.967802159107295,0.5,0.5,0.5,0.33791438672566,0.900174994998621,0.33791438672566,0.5,0.5,0.33791438672566,0.654068546133022,0.661759878715115,0.338240121284885,0.978239772681702,0.5,0.295032046738892,0.825287732735619,0.021760227318298,0.00705403957975074,0.5,0.32417122654868,0.658283388271389,1.91363827181996,2.50788181810066,0.5,68.4814553776865
CBC_1027,CBC_1027_MSI_TV_v3_Vset2_Tset2_2023-07-21_16h36.05.936.csv,2,38,3,1,z,0,1,2,tac,B,27,1,3B,1B,0,1,b,3.2334721999996,1,0,0,0,3B,1B,B31,3.27714473299218,0.985293812261453,0.5,0.33791438672566,0.5,0.228372265512358,0.967802159107295,0.5,0.5,0.5,0.33791438672566,0.900174994998621,0.33791438672566,0.5,0.5,0.33791438672566,0.654068546133022,0.340645363476026,0.659354636523974,0.5,0.967802159107295,0.0191002607716813,0.178104844091186,-0.5,-0.16208561327434,0.5,0.32417122654868,0.658283388271389,1.91363827181996,2.50788181810066,0.5,68.4814553776865
CBC_1027,CBC_1027_MSI_TV_v3_Vset2_Tset2_2023-07-21_16h36.05.936.csv,2,39,2,3,b,1,0,1,tac,C,63,1,2C,3C,1,0,b,1.67772469999909,1,0,1,1,2C,3C,C23,2.60268968544438,0.985293812261453,0.5,0.33791438672566,0.5,0.228372265512358,0.967802159107295,0.5,0.33791438672566,0.5,0.33791438672566,0.900174994998621,0.33791438672566,0.5,0.5,0.33791438672566,0.654068546133022,0.727067858174304,0.272932141825696,0.900174994998621,0.33791438672566,0.451981397679678,0.898472343623166,0.0998250050013789,0.0323603943115251,0.5,0.32417122654868,0.658283388271389,1.91363827181996,2.50788181810066,0.5,68.4814553776865
CBC_1027,CBC_1027_MSI_TV_v3_Vset2_Tset2_2023-07-21_16h36.05.936.csv,2,40,2,3,z,0,1,3,tac,D,63,1,2D,3D,0,1,z,1.51670359999844,0,1,1,1,3D,2D,D23,2.62103882411258,0.985293812261453,0.5,0.33791438672566,0.5,0.228372265512358,0.967802159107295,0.5,0.33791438672566,0.5,0.33791438672566,0.932535389310146,0.33791438672566,0.5,0.5,0.33791438672566,0.654068546133022,0.659354636523974,0.340645363476026,0.654068546133022,0.33791438672566,0.459590062898465,0.821407351983118,0.345931453866978,0.112141023701826,0.5,0.32417122654868,0.658283388271389,1.91363827181996,2.50788181810066,0.5,68.4814553776865
CBC_1027,CBC_1027_MSI_TV_v3_Vset2_Tset2_2023-07-21_16h36.05.936.csv,2,41,1,0,b,1,0,2,tac,B,63,1,1B,0B,1,0,b,2.12572010000076,1,0,1,1,1B,0B,B10,2.63905732961526,0.985293812261453,0.5,0.33791438672566,0.5,0.228372265512358,0.967802159107295,0.5,0.33791438672566,0.5,0.33791438672566,0.932535389310146,0.33791438672566,0.5,0.5,0.33791438672566,0.766209569834849,0.809081133309656,0.190918866690344,0.967802159107295,0.228372265512358,0.249382528413982,0.950938871715994,0.0321978408927055,0.0104376135744076,0.5,0.32417122654868,0.658283388271389,1.91363827181996,2.50788181810066,0.5,68.4814553776865
CBC_1027,CBC_1027_MSI_TV_v3_Vset2_Tset2_2023-07-21_16h36.05.936.csv,2,42,0,2,b,1,0,0,tac,A,27,1,0A,2A,1,0,z,1.13420629999928,0,1,0,0,2A,0A,A02,3.3499040872746,0.985293812261453,0.5,0.33791438672566,0.5,0.228372265512358,0.978239772681702,0.5,0.33791438672566,0.5,0.33791438672566,0.932535389310146,0.33791438672566,0.5,0.5,0.33791438672566,0.766209569834849,0.255375070215198,0.744624929784802,0.33791438672566,0.985293812261453,0.0733615524378075,0.0873483682009013,-0.33791438672566,-0.109542121213302,0.5,0.32417122654868,0.658283388271389,1.91363827181996,2.50788181810066,0.5,68.4814553776865
CBC_1027,CBC_1027_MSI_TV_v3_Vset2_Tset2_2023-07-21_16h36.05.936.csv,2,43,0,3,z,0,1,3,tac,D,9,1,0D,3D,0,1,z,1.04342309999993,0,1,1,1,3D,0D,D03,4.06044301054642,0.985293812261453,0.5,0.228372265512358,0.5,0.228372265512358,0.978239772681702,0.5,0.33791438672566,0.5,0.33791438672566,0.932535389310146,0.33791438672566,0.5,0.5,0.33791438672566,0.766209569834849,0.605120659398258,0.394879340601742,0.766209569834849,0.5,0.436488602597459,0.733001986444675,0.233790430165151,0.0757881305019806,0.5,0.32417122654868,0.658283388271389,1.91363827181996,2.50788181810066,0.5,68.4814553776865
CBC_1027,CBC_1027_MSI_TV_v3_Vset2_Tset2_2023-07-21_16h36.05.936.csv,2,44,2,3,b,1,0,1,tac,C,63,1,2C,3C,1,0,b,1.08015499999965,1,0,1,1,2C,3C,C23,2.46809953147162,0.985293812261453,0.5,0.228372265512358,0.5,0.228372265512358,0.978239772681702,0.5,0.33791438672566,0.5,0.33791438672566,0.932535389310146,0.33791438672566,0.5,0.5,0.33791438672566,0.841997700336829,0.734019877763246,0.265980122236754,0.932535389310146,0.33791438672566,0.735670644927166,0.904512541290514,0.0674646106898539,0.0218700855959591,0.5,0.32417122654868,0.658283388271389,1.91363827181996,2.50788181810066,0.5,68.4814553776865
CBC_1027,CBC_1027_MSI_AV_v3_Vset6_Aset2_2023-07-21_17h56.54.977.csv,3,1,1,0,b,1,0,2,aud,B,63,1,1B,0B,1,0,z,1.22603029999664,0,1,0,0,0B,1B,B10,2.77258872223978,0.5,0.5,0.5,0.5,0.5,0.5,0.5,0.5,0.5,0.5,0.5,0.5,0.5,0.5,0.5,0.5,0.5,0.5,0.5,0.5,0.322899981527367,0.500567102520938,-0.5,-0.0356843531901753,0.5,0.0713687063803505,0.655033089960405,5.31804913014445,2.35874013349286,0.5,63.5384809051098
CBC_1027,CBC_1027_MSI_AV_v3_Vset6_Aset2_2023-07-21_17h56.54.977.csv,3,2,1,0,z,0,1,0,aud,A,63,1,1A,0A,0,1,z,1.23057979999794,0,1,1,1,0A,1A,A10,2.83321334405622,0.5,0.5,0.5,0.5,0.464315646809825,0.5,0.5,0.5,0.5,0.5,0.5,0.5,0.5,0.5,0.5,0.5,0.5,0.5,0.5,0.5,0.321176685597102,0.499037023688151,0.5,0.0356843531901753,0.5,0.0713687063803505,0.655033089960405,5.31804913014445,2.35874013349286,0.5,63.5384809051098
CBC_1027,CBC_1027_MSI_AV_v3_Vset6_Aset2_2023-07-21_17h56.54.977.csv,3,3,3,2,b,1,0,3,aud,D,63,1,3D,2D,1,0,z,2.45798830000058,0,1,0,0,2D,3D,D32,2.89037175789616,0.535684353190175,0.5,0.5,0.5,0.464315646809825,0.5,0.5,0.5,0.5,0.5,0.5,0.5,0.5,0.5,0.5,0.5,0.5,0.5,0.5,0.5,0.114119844963499,0.500098560937311,-0.5,-0.0356843531901753,0.5,0.0713687063803505,0.655033089960405,5.31804913014445,2.35874013349286,0.5,63.5384809051098
CBC_1027,CBC_1027_MSI_AV_v3_Vset6_Aset2_2023-07-21_17h56.54.977.csv,3,4,1,2,b,1,0,2,aud,B,9,1,1B,2B,1,0,b,1.80080199999793,1,0,1,1,1B,2B,B12,2.94443897916644,0.535684353190175,0.5,0.5,0.5,0.464315646809825,0.5,0.5,0.5,0.5,0.5,0.5,0.5,0.5,0.5,0.464315646809825,0.5,0.5,0.5,0.5,0.5,0.203857647742027,0.499170647048115,0.5,0.0356843531901753,0.5,0.0713687063803505,0.655033089960405,5.31804913014445,2.35874013349286,0.5,63.5384809051098
CBC_1027,CBC_1027_MSI_AV_v3_Vset6_Aset2_2023-07-21_17h56.54.977.csv,3,5,2,0,z,0,1,0,aud,A,27,1,2A,0A,0,1,z,2.45484959999521,0,1,1,1,0A,2A,A20,2.99573227355399,0.535684353190175,0.5,0.5,0.5,0.464315646809825,0.535684353190175,0.5,0.5,0.5,0.5,0.5,0.5,0.5,0.5,0.464315646809825,0.5,0.517227427005274,0.482772572994727,0.535684353190175,0.5,0.137627738907544,0.605624854813532,0.464315646809825,0.0331376070649729,0.5,0.0713687063803505,0.655033089960405,5.31804913014445,2.35874013349286,0.5,63.5384809051098
CBC_1027,CBC_1027_MSI_AV_v3_Vset6_Aset2_2023-07-21_17h56.54.977.csv,3,6,3,2,z,0,1,1,aud,C,63,1,3C,2C,0,1,b,2.2766644000003,1,0,0,0,3C,2C,C32,3.04452243772342,0.568821960255148,0.5,0.5,0.5,0.464315646809825,0.535684353190175,0.5,0.5,0.5,0.5,0.5,0.5,0.5,0.5,0.464315646809825,0.5,0.5,0.5,0.5,0.5,0.134240153548508,0.500886452055996,-0.5,-0.0356843531901753,0.5,0.0713687063803505,0.655033089960405,5.31804913014445,2.35874013349286,0.5,63.5384809051098
CBC_1027,CBC_1027_MSI_AV_v3_Vset6_Aset2_2023-07-21_17h56.54.977.csv,3,7,3,1,b,1,0,3,aud,D,27,1,3D,1D,1,0,b,2.53893879999669,1,0,1,1,3D,1D,D31,3.09104245335832,0.568821960255148,0.5,0.5,0.5,0.464315646809825,0.535684353190175,0.5,0.5,0.5,0.5,0.5,0.464315646809825,0.5,0.5,0.464315646809825,0.5,0.5,0.5,0.5,0.5,0.106133712581842,0.49972250069597,0.5,0.0356843531901753,0.5,0.0713687063803505,0.655033089960405,5.31804913014445,2.35874013349286,0.5,63.5384809051098
CBC_1027,CBC_1027_MSI_AV_v3_Vset6_Aset2_2023-07-21_17h56.54.977.csv,3,8,0,1,b,1,0,0,aud,A,63,1,0A,1A,1,0,z,1.69109689999823,0,1,0,0,1A,0A,A01,3.13549421592915,0.568821960255148,0.5,0.5,0.5,0.464315646809825,0.535684353190175,0.5,0.5,0.5,0.5,0.5,0.464315646809825,0.5,0.5,0.464315646809825,0.535684353190175,0.467804759438738,0.532195240561262,0.5,0.568821960255148,0.141358555363701,0.308560579021782,-0.5,-0.0356843531901753,0.5,0.0713687063803505,0.655033089960405,5.31804913014445,2.35874013349286,0.5,63.5384809051098
CBC_1027,CBC_1027_MSI_AV_v3_Vset6_Aset2_2023-07-21_17h56.54.977.csv,3,9,0,2,z,0,1,1,aud,C,27,1,0C,2C,0,1,z,3.74649379999755,0,1,1,1,2C,0C,C02,3.17805383034795,0.568821960255148,0.464315646809825,0.5,0.5,0.464315646809825,0.535684353190175,0.5,0.5,0.5,0.5,0.5,0.464315646809825,0.5,0.5,0.464315646809825,0.535684353190175,0.5,0.5,0.5,0.5,0.0363575892007478,0.499605309138989,0.5,0.0356843531901753,0.5,0.0713687063803505,0.655033089960405,5.31804913014445,2.35874013349286,0.5,63.5384809051098
CBC_1027,CBC_1027_MSI_AV_v3_Vset6_Aset2_2023-07-21_17h56.54.977.csv,3,10,3,2,b,1,0,3,aud,D,63,1,3D,2D,1,0,z,1.91761699999552,0,1,0,0,2D,3D,D32,2.52572864430826,0.568821960255148,0.464315646809825,0.5,0.5,0.464315646809825,0.535684353190175,0.5,0.5,0.5,0.5,0.535684353190175,0.464315646809825,0.5,0.5,0.464315646809825,0.535684353190175,0.464315646809825,0.535684353190175,0.464315646809825,0.535684353190175,0.107503328383787,0.290062498788032,-0.464315646809825,-0.0331376070649729,0.5,0.0713687063803505,0.655033089960405,5.31804913014445,2.35874013349286,0.5,63.5384809051098
CBC_1027,CBC_1027_MSI_AV_v3_Vset6_Aset2_2023-07-21_17h56.54.977.csv,3,11,0,1,z,0,1,2,aud,B,63,1,0B,1B,0,1,z,2.100308699999,0,1,1,1,1B,0B,B01,3.25809653802148,0.568821960255148,0.464315646809825,0.5,0.5,0.464315646809825,0.535684353190175,0.5,0.5,0.5,0.5,0.535684353190175,0.464315646809825,0.5,0.5,0.431178039744852,0.535684353190175,0.535684353190175,0.464315646809825,0.535684353190175,0.464315646809825,0.22120193270919,0.711008785519675,0.464315646809825,0.0331376070649729,0.5,0.0713687063803505,0.655033089960405,5.31804913014445,2.35874013349286,0.5,63.5384809051098
CBC_1027,CBC_1027_MSI_AV_v3_Vset6_Aset2_2023-07-21_17h56.54.977.csv,3,12,1,0,z,0,1,0,aud,A,63,1,1A,0A,0,1,z,2.31831210000018,0,1,1,1,0A,1A,A10,2.60268968544438,0.568821960255148,0.464315646809825,0.5,0.5,0.464315646809825,0.568821960255148,0.5,0.5,0.5,0.5,0.535684353190175,0.464315646809825,0.5,0.5,0.431178039744852,0.535684353190175,0.550577150967437,0.449422849032563,0.568821960255148,0.464315646809825,0.191352536439813,0.779727770575431,0.431178039744852,0.0307726189162054,0.5,0.0713687063803505,0.655033089960405,5.31804913014445,2.35874013349286,0.5,63.5384809051098
CBC_1027,CBC_1027_MSI_AV_v3_Vset6_Aset2_2023-07-21_17h56.54.977.csv,3,13,3,2,b,1,0,3,aud,D,63,1,3D,2D,1,0,z,1.13531420000072,0,1,0,0,2D,3D,D32,2.23359222150709,0.599594579171354,0.464315646809825,0.5,0.5,0.464315646809825,0.568821960255148,0.5,0.5,0.5,0.5,0.535684353190175,0.464315646809825,0.5,0.5,0.431178039744852,0.535684353190175,0.445955952879664,0.554044047120336,0.431178039744852,0.535684353190175,0.155870543154103,0.20504057151402,-0.431178039744852,-0.0307726189162054,0.5,0.0713687063803505,0.655033089960405,5.31804913014445,2.35874013349286,0.5,63.5384809051098
CBC_1027,CBC_1027_MSI_AV_v3_Vset6_Aset2_2023-07-21_17h56.54.977.csv,3,14,0,2,z,0,1,1,aud,C,27,1,0C,2C,0,1,b,1.79521269999896,1,0,0,0,0C,2C,C02,2.67414864942653,0.599594579171354,0.464315646809825,0.5,0.5,0.464315646809825,0.568821960255148,0.5,0.5,0.5,0.5,0.535684353190175,0.464315646809825,0.5,0.5,0.400405420828646,0.535684353190175,0.482772572994727,0.517227427005274,0.5,0.535684353190175,0.162116595106652,0.393419769350191,-0.5,-0.0356843531901753,0.5,0.0713687063803505,0.655033089960405,5.31804913014445,2.35874013349286,0.5,63.5384809051098
CBC_1027,CBC_1027_MSI_AV_v3_Vset6_Aset2_2023-07-21_17h56.54.977.csv,3,15,1,0,z,0,1,0,aud,A,63,1,1A,0A,0,1,z,1.59153329999754,0,1,1,1,0A,1A,A10,2.30258509299405,0.599594579171354,0.464315646809825,0.5,0.5,0.464315646809825,0.568821960255148,0.5,0.5,0.464315646809825,0.5,0.535684353190175,0.464315646809825,0.5,0.5,0.400405420828646,0.535684353190175,0.563576291052551,0.436423708947449,0.599594579171354,0.464315646809825,0.439768154755069,0.832036861131836,0.400405420828646,0.0285764169122204,0.5,0.0713687063803505,0.655033089960405,5.31804913014445,2.35874013349286,0.5,63.5384809051098
CBC_1027,CBC_1027_MSI_AV_v3_Vset6_Aset2_2023-07-21_17h56.54.977.csv,3,16,3,1,z,0,1,2,aud,B,27,1,3B,1B,0,1,z,2.32547079999858,0,1,1,1,1B,3B,B31,3.43398720448515,0.628170996083574,0.464315646809825,0.5,0.5,0.464315646809825,0.568821960255148,0.5,0.5,0.464315646809825,0.5,0.535684353190175,0.464315646809825,0.5,0.5,0.400405420828646,0.535684353190175,0.532195240561262,0.467804759438738,0.568821960255148,0.5,0.174457682374313,0.692606182905285,0.431178039744852,0.0307726189162054,0.5,0.0713687063803505,0.655033089960405,5.31804913014445,2.35874013349286,0.5,63.5384809051098
CBC_1027,CBC_1027_MSI_AV_v3_Vset6_Aset2_2023-07-21_17h56.54.977.csv,3,17,2,3,b,1,0,1,aud,C,63,1,2C,3C,1,0,b,1.5624071999955,1,0,1,1,2C,3C,C23,3.46573590279973,0.628170996083574,0.464315646809825,0.5,0.5,0.464315646809825,0.599594579171354,0.5,0.5,0.464315646809825,0.5,0.535684353190175,0.464315646809825,0.5,0.5,0.400405420828646,0.535684353190175,0.535684353190175,0.464315646809825,0.535684353190175,0.464315646809825,0.368513022601223,0.710321232213426,0.464315646809825,0.0331376070649729,0.5,0.0713687063803505,0.655033089960405,5.31804913014445,2.35874013349286,0.5,63.5384809051098
CBC_1027,CBC_1027_MSI_AV_v3_Vset6_Aset2_2023-07-21_17h56.54.977.csv,3,18,3,2,b,1,0,3,aud,D,63,0,3D,2D,0,1,b,1.34913479999886,1,0,1,0,3D,2D,D32,2.11021320034659,0.628170996083574,0.464315646809825,0.5,0.5,0.464315646809825,0.599594579171354,0.5,0.5,0.464315646809825,0.5,0.568821960255148,0.464315646809825,0.5,0.5,0.400405420828646,0.535684353190175,0.572257456558226,0.427742543441774,0.535684353190175,0.400405420828646,0.601452416684689,0.859426230148016,-0.535684353190175,-0.0382310993153776,0.5,0.0713687063803505,0.655033089960405,5.31804913014445,2.35874013349286,0.5,63.5384809051098
CBC_1027,CBC_1027_MSI_AV_v3_Vset6_Aset2_2023-07-21_17h56.54.977.csv,3,19,0,1,z,0,1,2,aud,B,63,1,0B,1B,0,1,z,3.097663499997,0,1,1,1,1B,0B,B01,2.83321334405622,0.628170996083574,0.464315646809825,0.5,0.5,0.464315646809825,0.599594579171354,0.5,0.5,0.464315646809825,0.5,0.568821960255148,0.464315646809825,0.5,0.5,0.400405420828646,0.497453253874798,0.563576291052551,0.436423708947449,0.599594579171354,0.464315646809825,0.0822003992608642,0.83101683526728,0.400405420828646,0.0285764169122204,0.5,0.0713687063803505,0.655033089960405,5.31804913014445,2.35874013349286,0.5,63.5384809051098
CBC_1027,CBC_1027_MSI_AV_v3_Vset6_Aset2_2023-07-21_17h56.54.977.csv,3,20,0,2,b,1,0,0,aud,A,27,1,0A,2A,1,0,b,1.48560359999829,1,0,1,1,0A,2A,A02,3.55534806148941,0.628170996083574,0.464315646809825,0.5,0.5,0.464315646809825,0.628170996083574,0.5,0.5,0.464315646809825,0.5,0.568821960255148,0.464315646809825,0.5,0.5,0.400405420828646,0.497453253874798,0.556804773624086,0.443195226375914,0.628170996083574,0.5,0.470355284284668,0.806843146364438,0.371829003916426,0.0265369550042096,0.5,0.0713687063803505,0.655033089960405,5.31804913014445,2.35874013349286,0.5,63.5384809051098
CBC_1027,CBC_1027_MSI_AV_v3_Vset6_Aset2_2023-07-21_17h56.54.977.csv,3,21,3,0,b,1,0,3,aud,D,9,1,3D,0D,1,0,b,1.47691279999708,1,0,1,1,3D,0D,D30,3.58351893845611,0.654707951087784,0.464315646809825,0.5,0.5,0.464315646809825,0.628170996083574,0.5,0.5,0.464315646809825,0.5,0.568821960255148,0.464315646809825,0.5,0.5,0.400405420828646,0.497453253874798,0.498723375699408,0.501276624300592,0.497453253874798,0.5,0.265778170310057,0.492163130879453,0.502546746125202,0.0358661111666101,0.5,0.0713687063803505,0.655033089960405,5.31804913014445,2.35874013349286,0.5,63.5384809051098
CBC_1027,CBC_1027_MSI_AV_v3_Vset6_Aset2_2023-07-21_17h56.54.977.csv,3,22,3,2,z,0,1,1,aud,C,63,1,3C,2C,0,1,z,1.3074069999966,0,1,1,1,2C,3C,C32,2.91777073208428,0.654707951087784,0.464315646809825,0.5,0.5,0.464315646809825,0.628170996083574,0.5,0.5,0.464315646809825,0.5,0.568821960255148,0.464315646809825,0.5,0.5,0.400405420828646,0.533319365041408,0.550577150967437,0.449422849032563,0.568821960255148,0.464315646809825,0.527358522402917,0.7805342992302,0.431178039744852,0.0307726189162054,0.5,0.0713687063803505,0.655033089960405,5.31804913014445,2.35874013349286,0.5,63.5384809051098
CBC_1027,CBC_1027_MSI_AV_v3_Vset6_Aset2_2023-07-21_17h56.54.977.csv,3,23,1,3,b,1,0,2,aud,B,27,1,1B,3B,1,0,z,2.2560341999997,0,1,0,0,3B,1B,B13,3.63758615972639,0.654707951087784,0.464315646809825,0.5,0.5,0.464315646809825,0.628170996083574,0.5,0.5,0.464315646809825,0.5,0.599594579171354,0.464315646809825,0.5,0.5,0.400405420828646,0.533319365041408,0.443195226375914,0.556804773624086,0.5,0.628170996083574,0.0498878371021974,0.193585745828899,-0.5,-0.0356843531901753,0.5,0.0713687063803505,0.655033089960405,5.31804913014445,2.35874013349286,0.5,63.5384809051098
CBC_1027,CBC_1027_MSI_AV_v3_Vset6_Aset2_2023-07-21_17h56.54.977.csv,3,24,2,3,b,1,0,1,aud,C,63,1,2C,3C,1,0,b,0.882735799998045,1,0,1,1,2C,3C,C23,2.9704144655697,0.654707951087784,0.464315646809825,0.5,0.5,0.464315646809825,0.628170996083574,0.5,0.464315646809825,0.464315646809825,0.5,0.599594579171354,0.464315646809825,0.5,0.5,0.400405420828646,0.533319365041408,0.563576291052551,0.436423708947449,0.599594579171354,0.464315646809825,0.430235465973502,0.831239414819794,0.400405420828646,0.0285764169122204,0.5,0.0713687063803505,0.655033089960405,5.31804913014445,2.35874013349286,0.5,63.5384809051098
CBC_1027,CBC_1027_MSI_AV_v3_Vset6_Aset2_2023-07-21_17h56.54.977.csv,3,25,3,2,b,1,0,3,aud,D,63,1,3D,2D,1,0,z,2.3183317999974,0,1,0,0,2D,3D,D32,2.07944154167984,0.654707951087784,0.464315646809825,0.5,0.5,0.464315646809825,0.628170996083574,0.5,0.464315646809825,0.464315646809825,0.5,0.628170996083574,0.464315646809825,0.5,0.5,0.400405420828646,0.533319365041408,0.428825952666068,0.571174047333932,0.400405420828646,0.533319365041408,0.0328038293268884,0.143497662481316,-0.400405420828646,-0.0285764169122204,0.5,0.0713687063803505,0.655033089960405,5.31804913014445,2.35874013349286,0.5,63.5384809051098
CBC_1027,CBC_1027_MSI_AV_v3_Vset6_Aset2_2023-07-21_17h56.54.977.csv,3,26,0,1,z,0,1,2,aud,B,63,1,0B,1B,0,1,z,1.10529399999723,0,1,1,1,1B,0B,B01,2.6149597780362,0.654707951087784,0.464315646809825,0.5,0.5,0.464315646809825,0.628170996083574,0.5,0.464315646809825,0.464315646809825,0.5,0.628170996083574,0.464315646809825,0.5,0.5,0.371829003916426,0.533319365041408,0.574991923397702,0.425008076602298,0.628170996083574,0.464315646809825,0.737407556008695,0.867626387401874,0.371829003916426,0.0265369550042096,0.5,0.0713687063803505,0.655033089960405,5.31804913014445,2.35874013349286,0.5,63.5384809051098
CBC_1027,CBC_1027_MSI_AV_v3_Vset6_Aset2_2023-07-21_17h56.54.977.csv,3,27,3,0,z,0,1,0,aud,A,9,1,3A,0A,0,1,z,1.43489769999724,0,1,1,1,0A,3A,A30,3.73766961828337,0.654707951087784,0.464315646809825,0.5,0.5,0.464315646809825,0.654707951087784,0.5,0.464315646809825,0.464315646809825,0.5,0.628170996083574,0.464315646809825,0.5,0.5,0.371829003916426,0.533319365041408,0.566990077855635,0.433009922144365,0.654707951087784,0.5,0.531413021019454,0.843285359214672,0.345292048912216,0.0246430468542856,0.5,0.0713687063803505,0.655033089960405,5.31804913014445,2.35874013349286,0.5,63.5384809051098
CBC_1027,CBC_1027_MSI_AV_v3_Vset6_Aset2_2023-07-21_17h56.54.977.csv,3,28,3,2,b,1,0,3,aud,D,63,1,3D,2D,1,0,z,2.76712479999696,0,1,0,0,2D,3D,D32,1.96944064646551,0.679350997942069,0.464315646809825,0.5,0.5,0.464315646809825,0.654707951087784,0.5,0.464315646809825,0.464315646809825,0.5,0.628170996083574,0.464315646809825,0.5,0.5,0.371829003916426,0.533319365041408,0.41079343085437,0.58920656914563,0.371829003916426,0.533319365041408,0.0108565762023258,0.0958496465089369,-0.371829003916426,-0.0265369550042096,0.5,0.0713687063803505,0.655033089960405,5.31804913014445,2.35874013349286,0.5,63.5384809051098
CBC_1027,CBC_1027_MSI_AV_v3_Vset6_Aset2_2023-07-21_17h56.54.977.csv,3,29,0,2,z,0,1,1,aud,C,27,1,0C,2C,0,1,z,0.927258699997765,0,1,1,1,2C,0C,C02,2.68557734525015,0.679350997942069,0.464315646809825,0.5,0.5,0.464315646809825,0.654707951087784,0.5,0.464315646809825,0.464315646809825,0.5,0.628170996083574,0.464315646809825,0.5,0.5,0.345292048912216,0.533319365041408,0.574991923397702,0.425008076602298,0.628170996083574,0.464315646809825,0.605822040364669,0.868251456554421,0.371829003916426,0.0265369550042096,0.5,0.0713687063803505,0.655033089960405,5.31804913014445,2.35874013349286,0.5,63.5384809051098
CBC_1027,CBC_1027_MSI_AV_v3_Vset6_Aset2_2023-07-21_17h56.54.977.csv,3,30,0,1,b,1,0,0,aud,A,63,1,0A,1A,1,0,b,1.08457400000043,1,0,1,1,0A,1A,A01,3.11351530921037,0.679350997942069,0.464315646809825,0.5,0.5,0.464315646809825,0.654707951087784,0.5,0.464315646809825,0.464315646809825,0.5,0.654707951087784,0.464315646809825,0.5,0.5,0.345292048912216,0.533319365041408,0.594011376531355,0.405988623468645,0.679350997942069,0.464315646809825,0.867891830448361,0.9134252464221,0.320649002057931,0.0228843044790249,0.5,0.0713687063803505,0.655033089960405,5.31804913014445,2.35874013349286,0.5,63.5384809051098
CBC_1027,CBC_1027_MSI_AV_v3_Vset6_Aset2_2023-07-21_17h56.54.977.csv,3,31,0,1,z,0,1,2,aud,B,63,1,0B,1B,0,1,z,1.29845579999892,0,1,1,1,1B,0B,B01,2.4423470353692,0.702235302421094,0.464315646809825,0.5,0.5,0.464315646809825,0.654707951087784,0.5,0.464315646809825,0.464315646809825,0.5,0.654707951087784,0.464315646809825,0.5,0.5,0.345292048912216,0.533319365041408,0.58507072801488,0.41492927198512,0.654707951087784,0.464315646809825,0.690380378379927,0.894067048448075,0.345292048912216,0.0246430468542856,0.5,0.0713687063803505,0.655033089960405,5.31804913014445,2.35874013349286,0.5,63.5384809051098
CBC_1027,CBC_1027_MSI_AV_v3_Vset6_Aset2_2023-07-21_17h56.54.977.csv,3,32,1,3,z,0,1,3,aud,D,27,1,1D,3D,0,1,z,2.30686659999992,0,1,1,1,3D,1D,D13,3.85014760171006,0.702235302421094,0.464315646809825,0.5,0.5,0.464315646809825,0.679350997942069,0.5,0.464315646809825,0.464315646809825,0.5,0.654707951087784,0.464315646809825,0.5,0.5,0.345292048912216,0.533319365041408,0.516122491346164,0.483877508653836,0.533319365041408,0.5,0.15563612518254,0.598811119949147,0.466680634958592,0.0333063932097553,0.5,0.0713687063803505,0.655033089960405,5.31804913014445,2.35874013349286,0.5,63.5384809051098
CBC_1027,CBC_1027_MSI_AV_v3_Vset6_Aset2_2023-07-21_17h56.54.977.csv,3,33,2,3,b,1,0,1,aud,C,63,1,2C,3C,1,0,b,0.834572099996876,1,0,1,1,2C,3C,C23,2.77258872223978,0.702235302421094,0.464315646809825,0.5,0.5,0.464315646809825,0.679350997942069,0.5,0.464315646809825,0.464315646809825,0.5,0.654707951087784,0.464315646809825,0.5,0.5,0.345292048912216,0.566625758251163,0.58507072801488,0.41492927198512,0.654707951087784,0.464315646809825,0.347322265317836,0.89426496251351,0.345292048912216,0.0246430468542856,0.5,0.0713687063803505,0.655033089960405,5.31804913014445,2.35874013349286,0.5,63.5384809051098
CBC_1027,CBC_1027_MSI_AV_v3_Vset6_Aset2_2023-07-21_17h56.54.977.csv,3,34,0,1,z,0,1,2,aud,B,63,1,0B,1B,0,1,z,0.810980099999142,0,1,1,1,1B,0B,B01,2.28238238567653,0.702235302421094,0.464315646809825,0.5,0.5,0.464315646809825,0.679350997942069,0.5,0.464315646809825,0.464315646809825,0.5,0.679350997942069,0.464315646809825,0.5,0.5,0.345292048912216,0.566625758251163,0.594011376531355,0.405988623468645,0.679350997942069,0.464315646809825,0.265608388475188,0.913452136458125,0.320649002057931,0.0228843044790249,0.5,0.0713687063803505,0.655033089960405,5.31804913014445,2.35874013349286,0.5,63.5384809051098
CBC_1027,CBC_1027_MSI_AV_v3_Vset6_Aset2_2023-07-21_17h56.54.977.csv,3,35,1,0,z,0,1,0,aud,A,63,1,1A,0A,0,1,z,1.64961329999642,0,1,1,1,0A,1A,A10,2.52572864430826,0.702235302421094,0.464315646809825,0.5,0.5,0.464315646809825,0.702235302421094,0.5,0.464315646809825,0.464315646809825,0.5,0.679350997942069,0.464315646809825,0.5,0.5,0.345292048912216,0.566625758251163,0.601975681288556,0.398024318711444,0.702235302421094,0.464315646809825,0.466706493505241,0.928234023554052,0.297764697578906,0.0212510812719428,0.5,0.0713687063803505,0.655033089960405,5.31804913014445,2.35874013349286,0.5,63.5384809051098
CBC_1027,CBC_1027_MSI_AV_v3_Vset6_Aset2_2023-07-21_17h56.54.977.csv,3,36,2,1,b,1,0,1,aud,C,9,1,2C,1C,1,0,b,1.01661779999995,1,0,1,1,2C,1C,C21,3.93182563272433,0.723486383693037,0.464315646809825,0.5,0.5,0.464315646809825,0.702235302421094,0.5,0.464315646809825,0.464315646809825,0.5,0.679350997942069,0.464315646809825,0.5,0.5,0.345292048912216,0.566625758251163,0.576038006604917,0.423961993395083,0.679350997942069,0.5,0.727826641297831,0.870205056786792,0.320649002057931,0.0228843044790249,0.5,0.0713687063803505,0.655033089960405,5.31804913014445,2.35874013349286,0.5,63.5384809051098
CBC_1027,CBC_1027_MSI_AV_v3_Vset6_Aset2_2023-07-21_17h56.54.977.csv,3,37,0,1,b,1,0,0,aud,A,63,1,0A,1A,1,0,b,1.47027249999519,1,0,1,1,0A,1A,A01,2.85263142991332,0.723486383693037,0.464315646809825,0.5,0.5,0.464315646809825,0.702235302421094,0.5,0.464315646809825,0.464315646809825,0.5,0.702235302421094,0.464315646809825,0.5,0.5,0.345292048912216,0.566625758251163,0.60909677295866,0.39090322704134,0.723486383693037,0.464315646809825,0.616129660929996,0.939131566786487,0.276513616306963,0.0197344190923806,0.5,0.0713687063803505,0.655033089960405,5.31804913014445,2.35874013349286,0.5,63.5384809051098
CBC_1027,CBC_1027_MSI_AV_v3_Vset6_Aset2_2023-07-21_17h56.54.977.csv,3,38,1,3,z,0,1,3,aud,D,27,1,1D,3D,0,1,z,2.32207479999852,0,1,1,1,3D,1D,D13,3.27714473299218,0.743220802785417,0.464315646809825,0.5,0.5,0.464315646809825,0.702235302421094,0.5,0.464315646809825,0.464315646809825,0.5,0.702235302421094,0.464315646809825,0.5,0.5,0.345292048912216,0.566625758251163,0.531232021979482,0.468767978020518,0.566625758251163,0.5,0.173735773330242,0.686566398326729,0.433374241748837,0.0309293590121798,0.5,0.0713687063803505,0.655033089960405,5.31804913014445,2.35874013349286,0.5,63.5384809051098
CBC_1027,CBC_1027_MSI_AV_v3_Vset6_Aset2_2023-07-21_17h56.54.977.csv,3,39,1,0,b,1,0,2,aud,B,63,1,1B,0B,1,0,b,1.35388719999537,1,0,1,1,1B,0B,B10,3.29583686600433,0.743220802785417,0.464315646809825,0.5,0.5,0.464315646809825,0.702235302421094,0.5,0.464315646809825,0.464315646809825,0.5,0.702235302421094,0.464315646809825,0.5,0.5,0.345292048912216,0.597555117263343,0.601975681288556,0.398024318711444,0.702235302421094,0.464315646809825,0.708455151196773,0.928095431505446,0.297764697578906,0.0212510812719428,0.5,0.0713687063803505,0.655033089960405,5.31804913014445,2.35874013349286,0.5,63.5384809051098
CBC_1027,CBC_1027_MSI_AV_v3_Vset6_Aset2_2023-07-21_17h56.54.977.csv,3,40,3,2,z,0,1,1,aud,C,63,0,3C,2C,1,0,z,1.6215284999962,0,1,1,0,2C,3C,C32,2.90872089656436,0.743220802785417,0.464315646809825,0.5,0.5,0.464315646809825,0.723486383693037,0.5,0.464315646809825,0.464315646809825,0.5,0.702235302421094,0.464315646809825,0.5,0.5,0.345292048912216,0.597555117263343,0.601975681288556,0.398024318711444,0.702235302421094,0.464315646809825,0.486192432465623,0.928264752224676,-0.702235302421094,-0.0501176251084077,0.5,0.0713687063803505,0.655033089960405,5.31804913014445,2.35874013349286,0.5,63.5384809051098
CBC_1027,CBC_1027_MSI_AV_v3_Vset6_Aset2_2023-07-21_17h56.54.977.csv,3,41,0,2,b,1,0,0,aud,A,27,1,0A,2A,1,0,b,1.19325729999764,1,0,1,1,0A,2A,A02,3.3322045101752,0.743220802785417,0.464315646809825,0.5,0.5,0.464315646809825,0.723486383693037,0.5,0.464315646809825,0.464315646809825,0.5,0.652117677312686,0.464315646809825,0.5,0.5,0.345292048912216,0.597555117263343,0.597818827613118,0.402181172386882,0.743220802785417,0.5,0.83427759960444,0.920871825690567,0.256779197214583,0.0183259991305897,0.5,0.0713687063803505,0.655033089960405,5.31804913014445,2.35874013349286,0.5,63.5384809051098
CBC_1027,CBC_1027_MSI_AV_v3_Vset6_Aset2_2023-07-21_17h56.54.977.csv,3,42,2,3,z,0,1,3,aud,D,63,1,2D,3D,0,1,z,2.38454849999835,0,1,1,1,3D,2D,D23,4.04305126783455,0.761546801916007,0.464315646809825,0.5,0.5,0.464315646809825,0.723486383693037,0.5,0.464315646809825,0.464315646809825,0.5,0.652117677312686,0.464315646809825,0.5,0.5,0.345292048912216,0.597555117263343,0.633777285121603,0.366222714878397,0.597555117263343,0.345292048912216,0.113072150722555,0.966396139505598,0.402444882736657,0.0287219706703071,0.5,0.0713687063803505,0.655033089960405,5.31804913014445,2.35874013349286,0.5,63.5384809051098
CBC_1027,CBC_1027_MSI_AV_v3_Vset6_Aset2_2023-07-21_17h56.54.977.csv,3,43,1,3,b,1,0,2,aud,B,27,1,1B,3B,1,0,b,2.64858509999613,1,0,1,1,1B,3B,B13,3.36729582998647,0.761546801916007,0.464315646809825,0.5,0.5,0.464315646809825,0.723486383693037,0.5,0.464315646809825,0.464315646809825,0.5,0.652117677312686,0.464315646809825,0.5,0.5,0.345292048912216,0.62627708793365,0.60909677295866,0.39090322704134,0.723486383693037,0.464315646809825,0.0989145213408328,0.939191795111566,0.276513616306963,0.0197344190923806,0.5,0.0713687063803505,0.655033089960405,5.31804913014445,2.35874013349286,0.5,63.5384809051098
CBC_1027,CBC_1027_MSI_AV_v3_Vset6_Aset2_2023-07-21_17h56.54.977.csv,3,44,3,2,z,0,1,1,aud,C,63,1,3C,2C,0,1,z,1.52843159999611,0,1,1,1,2C,3C,C32,2.69124308278583,0.761546801916007,0.464315646809825,0.5,0.5,0.464315646809825,0.743220802785417,0.5,0.464315646809825,0.464315646809825,0.5,0.652117677312686,0.464315646809825,0.5,0.5,0.345292048912216,0.62627708793365,0.584108036926643,0.415891963073357,0.652117677312686,0.464315646809825,0.523965751523153,0.892128592002903,0.347882322687314,0.0248279113427852,0.5,0.0713687063803505,0.655033089960405,5.31804913014445,2.35874013349286,0.5,63.5384809051098
CBC_1027,CBC_1027_MSI_TV_v3_Vset3_Tset3_2023-07-21_18h05.28.896.csv,4,1,1,0,z,0,1,0,tac,A,63,1,1A,0A,0,1,b,2.7988779000043,1,0,0,0,1A,0A,A10,2.77258872223978,0.5,0.5,0.5,0.5,0.5,0.5,0.5,0.5,0.5,0.5,0.5,0.5,0.5,0.5,0.5,0.5,0.5,0.5,0.5,0.5,0.136027672558095,0.500098387142856,-0.5,-0.014428355620644,0.5,0.028856711241288,1.09140840146529,9.34759038649567,2.72685888482046,0.5,70.9286253509117
CBC_1027,CBC_1027_MSI_TV_v3_Vset3_Tset3_2023-07-21_18h05.28.896.csv,4,2,3,2,b,1,0,3,tac,D,63,1,3D,2D,1,0,z,2.39605140000276,0,1,0,0,2D,3D,D32,2.83321334405622,0.5,0.485571644379356,0.5,0.5,0.5,0.5,0.5,0.5,0.5,0.5,0.5,0.5,0.5,0.5,0.5,0.5,0.5,0.5,0.5,0.5,0.177230341194881,0.500025392616545,-0.5,-0.014428355620644,0.5,0.028856711241288,1.09140840146529,9.34759038649567,2.72685888482046,0.5,70.9286253509117
CBC_1027,CBC_1027_MSI_TV_v3_Vset3_Tset3_2023-07-21_18h05.28.896.csv,4,3,2,0,b,1,0,1,tac,C,27,1,2C,0C,1,0,b,2.95685370000501,1,0,1,1,2C,0C,C20,2.89037175789616,0.5,0.485571644379356,0.5,0.5,0.5,0.5,0.5,0.5,0.5,0.5,0.5,0.5,0.5,0.5,0.485571644379356,0.5,0.5,0.5,0.5,0.5,0.122687891467423,0.500814198893167,0.5,0.014428355620644,0.5,0.028856711241288,1.09140840146529,9.34759038649567,2.72685888482046,0.5,70.9286253509117
CBC_1027,CBC_1027_MSI_TV_v3_Vset3_Tset3_2023-07-21_18h05.28.896.csv,4,4,1,0,z,0,1,0,tac,A,63,1,1A,0A,0,1,z,2.28536900000472,0,1,1,1,0A,1A,A10,2.2512917986065,0.5,0.485571644379356,0.5,0.5,0.5,0.5,0.5,0.5,0.5,0.5,0.514428355620644,0.5,0.5,0.5,0.485571644379356,0.5,0.507319790348539,0.492680209651461,0.5,0.485571644379356,0.226520764415991,0.591643718049957,0.5,0.014428355620644,0.5,0.028856711241288,1.09140840146529,9.34759038649567,2.72685888482046,0.5,70.9286253509117
CBC_1027,CBC_1027_MSI_TV_v3_Vset3_Tset3_2023-07-21_18h05.28.896.csv,4,5,3,1,z,0,1,2,tac,B,27,1,3B,1B,0,1,z,2.62197090000336,0,1,1,1,1B,3B,B31,2.99573227355399,0.514428355620644,0.485571644379356,0.5,0.5,0.5,0.5,0.5,0.5,0.5,0.5,0.514428355620644,0.5,0.5,0.5,0.485571644379356,0.5,0.5,0.5,0.5,0.5,0.153128381252389,0.500875609184404,0.5,0.014428355620644,0.5,0.028856711241288,1.09140840146529,9.34759038649567,2.72685888482046,0.5,70.9286253509117
CBC_1027,CBC_1027_MSI_TV_v3_Vset3_Tset3_2023-07-21_18h05.28.896.csv,4,6,2,3,b,1,0,1,tac,C,63,1,2C,3C,1,0,b,3.11231080000289,1,0,1,1,2C,3C,C23,3.04452243772342,0.514428355620644,0.485571644379356,0.5,0.5,0.5,0.514428355620644,0.5,0.5,0.5,0.5,0.514428355620644,0.5,0.5,0.5,0.485571644379356,0.5,0.507111569555751,0.492888430444249,0.514428355620644,0.5,0.129912468835316,0.588764758939868,0.485571644379356,0.0140120007288124,0.5,0.028856711241288,1.09140840146529,9.34759038649567,2.72685888482046,0.5,70.9286253509117
CBC_1027,CBC_1027_MSI_TV_v3_Vset3_Tset3_2023-07-21_18h05.28.896.csv,4,7,2,3,z,0,1,3,tac,D,63,0,2D,3D,1,0,z,2.29855720000342,0,1,1,0,3D,2D,D23,3.09104245335832,0.514428355620644,0.485571644379356,0.5,0.5,0.5,0.514428355620644,0.5,0.5,0.5,0.5,0.528440356349456,0.5,0.5,0.5,0.485571644379356,0.5,0.507319790348539,0.492680209651461,0.5,0.485571644379356,0.224931249469345,0.592452827607168,-0.5,-0.014428355620644,0.5,0.028856711241288,1.09140840146529,9.34759038649567,2.72685888482046,0.5,70.9286253509117
CBC_1027,CBC_1027_MSI_TV_v3_Vset3_Tset3_2023-07-21_18h05.28.896.csv,4,8,1,0,b,1,0,2,tac,B,63,1,1B,0B,1,0,z,1.74061650000294,0,1,0,0,0B,1B,B10,3.13549421592915,0.514428355620644,0.485571644379356,0.5,0.5,0.5,0.514428355620644,0.5,0.5,0.5,0.5,0.528440356349456,0.5,0.5,0.5,0.485571644379356,0.485571644379356,0.492888430444249,0.507111569555751,0.5,0.514428355620644,0.206077557165378,0.4104209706549,-0.5,-0.014428355620644,0.5,0.028856711241288,1.09140840146529,9.34759038649567,2.72685888482046,0.5,70.9286253509117
CBC_1027,CBC_1027_MSI_TV_v3_Vset3_Tset3_2023-07-21_18h05.28.896.csv,4,9,0,2,b,1,0,0,tac,A,27,1,0A,2A,1,0,b,2.42849310000383,1,0,1,1,0A,2A,A02,3.17805383034795,0.514428355620644,0.485571644379356,0.5,0.5,0.485571644379356,0.514428355620644,0.5,0.5,0.5,0.5,0.528440356349456,0.5,0.5,0.5,0.485571644379356,0.485571644379356,0.507111569555751,0.492888430444249,0.514428355620644,0.5,0.206043629870221,0.590935220113605,0.485571644379356,0.0140120007288124,0.5,0.028856711241288,1.09140840146529,9.34759038649567,2.72685888482046,0.5,70.9286253509117
CBC_1027,CBC_1027_MSI_TV_v3_Vset3_Tset3_2023-07-21_18h05.28.896.csv,4,10,0,3,z,0,1,3,tac,D,9,1,0D,3D,0,1,z,2.50271930000235,0,1,1,1,3D,0D,D03,3.2188758248682,0.528440356349456,0.485571644379356,0.5,0.5,0.485571644379356,0.514428355620644,0.5,0.5,0.5,0.5,0.528440356349456,0.5,0.5,0.5,0.485571644379356,0.485571644379356,0.492680209651461,0.507319790348539,0.485571644379356,0.5,0.135597574121807,0.408455897217315,0.514428355620644,0.0148447105124755,0.5,0.028856711241288,1.09140840146529,9.34759038649567,2.72685888482046,0.5,70.9286253509117
CBC_1027,CBC_1027_MSI_TV_v3_Vset3_Tset3_2023-07-21_18h05.28.896.csv,4,11,3,2,z,0,1,1,tac,C,63,1,3C,2C,0,1,z,4.46046890000434,0,1,1,1,2C,3C,C32,3.25809653802148,0.528440356349456,0.485571644379356,0.5,0.5,0.485571644379356,0.514428355620644,0.5,0.5,0.5,0.5,0.528440356349456,0.5,0.5,0.5,0.485571644379356,0.500416354891832,0.513826935210131,0.486173064789869,0.528440356349456,0.5,0.0573732628225836,0.668558515641998,0.471559643650544,0.0136076604698684,0.5,0.028856711241288,1.09140840146529,9.34759038649567,2.72685888482046,0.5,70.9286253509117
CBC_1027,CBC_1027_MSI_TV_v3_Vset3_Tset3_2023-07-21_18h05.28.896.csv,4,12,1,0,b,1,0,2,tac,B,63,1,1B,0B,1,0,b,2.60820620000231,1,0,1,1,1B,0B,B10,2.60268968544438,0.528440356349456,0.485571644379356,0.5,0.5,0.485571644379356,0.514428355620644,0.5,0.5,0.5,0.5,0.542048016819325,0.5,0.5,0.5,0.485571644379356,0.500416354891832,0.514428355620644,0.485571644379356,0.514428355620644,0.485571644379356,0.210716454926385,0.675600208133043,0.485571644379356,0.0140120007288124,0.5,0.028856711241288,1.09140840146529,9.34759038649567,2.72685888482046,0.5,70.9286253509117
CBC_1027,CBC_1027_MSI_TV_v3_Vset3_Tset3_2023-07-21_18h05.28.896.csv,4,13,3,2,b,1,0,3,tac,D,63,1,3D,2D,1,0,z,1.51609510000344,0,1,0,0,2D,3D,D32,2.63905732961526,0.528440356349456,0.485571644379356,0.5,0.5,0.485571644379356,0.528440356349456,0.5,0.5,0.5,0.5,0.542048016819325,0.5,0.5,0.5,0.485571644379356,0.500416354891832,0.492472164710195,0.507527835289805,0.485571644379356,0.500416354891832,0.181048368428986,0.40523241742756,-0.485571644379356,-0.0140120007288124,0.5,0.028856711241288,1.09140840146529,9.34759038649567,2.72685888482046,0.5,70.9286253509117
CBC_1027,CBC_1027_MSI_TV_v3_Vset3_Tset3_2023-07-21_18h05.28.896.csv,4,14,3,2,z,0,1,1,tac,C,63,1,3C,2C,0,1,b,2.43226940000386,1,0,0,0,3C,2C,C32,2.67414864942653,0.528440356349456,0.485571644379356,0.5,0.5,0.485571644379356,0.528440356349456,0.5,0.5,0.5,0.5,0.542048016819325,0.5,0.5,0.5,0.471559643650544,0.500416354891832,0.479824338158778,0.520175661841222,0.5,0.542048016819325,0.0943090177681525,0.264033296540054,-0.5,-0.014428355620644,0.5,0.028856711241288,1.09140840146529,9.34759038649567,2.72685888482046,0.5,70.9286253509117
CBC_1027,CBC_1027_MSI_TV_v3_Vset3_Tset3_2023-07-21_18h05.28.896.csv,4,15,1,3,b,1,0,2,tac,B,27,1,1B,3B,1,0,b,2.56184260000373,1,0,1,1,1B,3B,B13,3.40119738166216,0.528440356349456,0.485571644379356,0.5,0.5,0.485571644379356,0.528440356349456,0.5,0.5,0.5,0.5,0.542048016819325,0.485571644379356,0.5,0.5,0.471559643650544,0.500416354891832,0.513826935210131,0.486173064789869,0.528440356349456,0.5,0.215154523334294,0.668622173903699,0.471559643650544,0.0136076604698684,0.5,0.028856711241288,1.09140840146529,9.34759038649567,2.72685888482046,0.5,70.9286253509117
CBC_1027,CBC_1027_MSI_TV_v3_Vset3_Tset3_2023-07-21_18h05.28.896.csv,4,16,3,0,z,0,1,0,tac,A,9,1,3A,0A,0,1,z,4.24691310000344,0,1,1,1,0A,3A,A30,3.43398720448515,0.528440356349456,0.485571644379356,0.5,0.5,0.485571644379356,0.542048016819325,0.5,0.5,0.5,0.5,0.542048016819325,0.485571644379356,0.5,0.5,0.471559643650544,0.500416354891832,0.513826935210131,0.486173064789869,0.528440356349456,0.5,0.0666728277528296,0.670125375530574,0.471559643650544,0.0136076604698684,0.5,0.028856711241288,1.09140840146529,9.34759038649567,2.72685888482046,0.5,70.9286253509117
CBC_1027,CBC_1027_MSI_TV_v3_Vset3_Tset3_2023-07-21_18h05.28.896.csv,4,17,3,2,b,1,0,3,tac,D,63,1,3D,2D,1,0,z,2.43478310000137,0,1,0,0,2D,3D,D32,2.36712361413162,0.542048016819325,0.485571644379356,0.5,0.5,0.485571644379356,0.542048016819325,0.5,0.5,0.5,0.5,0.542048016819325,0.485571644379356,0.5,0.5,0.471559643650544,0.500416354891832,0.485155646186448,0.514844353813552,0.471559643650544,0.500416354891832,0.112490650487884,0.319602327724843,-0.471559643650544,-0.0136076604698684,0.5,0.028856711241288,1.09140840146529,9.34759038649567,2.72685888482046,0.5,70.9286253509117
CBC_1027,CBC_1027_MSI_TV_v3_Vset3_Tset3_2023-07-21_18h05.28.896.csv,4,18,2,0,b,1,0,1,tac,C,27,1,2C,0C,1,0,z,2.73933170000237,0,1,0,0,0C,2C,C20,2.80336038090653,0.542048016819325,0.485571644379356,0.5,0.5,0.485571644379356,0.542048016819325,0.5,0.5,0.5,0.5,0.542048016819325,0.485571644379356,0.5,0.5,0.457951983180675,0.500416354891832,0.479824338158778,0.520175661841222,0.5,0.542048016819325,0.0753250669116286,0.263702773980114,-0.5,-0.014428355620644,0.5,0.028856711241288,1.09140840146529,9.34759038649567,2.72685888482046,0.5,70.9286253509117
CBC_1027,CBC_1027_MSI_TV_v3_Vset3_Tset3_2023-07-21_18h05.28.896.csv,4,19,1,0,z,0,1,0,tac,A,63,1,1A,0A,0,1,z,1.46309950000432,0,1,1,1,0A,1A,A10,2.42774823594805,0.542048016819325,0.485571644379356,0.5,0.5,0.485571644379356,0.542048016819325,0.5,0.5,0.485571644379356,0.5,0.542048016819325,0.485571644379356,0.5,0.5,0.457951983180675,0.500416354891832,0.527479219487729,0.472520780512271,0.542048016819325,0.485571644379356,0.377684667929207,0.802309434423315,0.457951983180675,0.0132149881410199,0.5,0.028856711241288,1.09140840146529,9.34759038649567,2.72685888482046,0.5,70.9286253509117
CBC_1027,CBC_1027_MSI_TV_v3_Vset3_Tset3_2023-07-21_18h05.28.896.csv,4,20,0,1,z,0,1,2,tac,B,63,0,0B,1B,1,0,z,2.41613750000397,0,1,1,0,1B,0B,B01,3.55534806148941,0.555263004960345,0.485571644379356,0.5,0.5,0.485571644379356,0.542048016819325,0.5,0.5,0.485571644379356,0.5,0.542048016819325,0.485571644379356,0.5,0.5,0.457951983180675,0.500416354891832,0.527479219487729,0.472520780512271,0.542048016819325,0.485571644379356,0.29572356178667,0.801962733413952,-0.542048016819325,-0.0156417231002681,0.5,0.028856711241288,1.09140840146529,9.34759038649567,2.72685888482046,0.5,70.9286253509117
CBC_1027,CBC_1027_MSI_TV_v3_Vset3_Tset3_2023-07-21_18h05.28.896.csv,4,21,1,3,z,0,1,3,tac,D,27,1,1D,3D,0,1,z,2.58119420000367,0,1,1,1,3D,1D,D13,3.58351893845611,0.555263004960345,0.485571644379356,0.5,0.5,0.485571644379356,0.526406293719057,0.5,0.5,0.485571644379356,0.5,0.542048016819325,0.485571644379356,0.5,0.5,0.457951983180675,0.500416354891832,0.500208090806291,0.499791909193709,0.500416354891832,0.5,0.157886334098142,0.502756821108532,0.499583645108168,0.0144163409877565,0.5,0.028856711241288,1.09140840146529,9.34759038649567,2.72685888482046,0.5,70.9286253509117
CBC_1027,CBC_1027_MSI_TV_v3_Vset3_Tset3_2023-07-21_18h05.28.896.csv,4,22,2,3,b,1,0,1,tac,C,63,1,2C,3C,1,0,b,3.71788180000294,1,0,1,1,2C,3C,C23,2.91777073208428,0.555263004960345,0.485571644379356,0.5,0.5,0.485571644379356,0.526406293719057,0.5,0.5,0.485571644379356,0.5,0.542048016819325,0.485571644379356,0.5,0.5,0.457951983180675,0.514832695879588,0.527479219487729,0.472520780512271,0.542048016819325,0.485571644379356,0.105314470924158,0.802394015300177,0.457951983180675,0.0132149881410199,0.5,0.028856711241288,1.09140840146529,9.34759038649567,2.72685888482046,0.5,70.9286253509117
CBC_1027,CBC_1027_MSI_TV_v3_Vset3_Tset3_2023-07-21_18h05.28.896.csv,4,23,1,0,b,1,0,2,tac,B,63,1,1B,0B,1,0,z,2.47834910000165,0,1,0,0,0B,1B,B10,2.53897387105828,0.555263004960345,0.485571644379356,0.5,0.5,0.485571644379356,0.526406293719057,0.5,0.5,0.485571644379356,0.5,0.555263004960345,0.485571644379356,0.5,0.5,0.457951983180675,0.514832695879588,0.479824338158778,0.520175661841222,0.485571644379356,0.526406293719057,0.0908692018543093,0.262954107285632,-0.485571644379356,-0.0140120007288124,0.5,0.028856711241288,1.09140840146529,9.34759038649567,2.72685888482046,0.5,70.9286253509117
CBC_1027,CBC_1027_MSI_TV_v3_Vset3_Tset3_2023-07-21_18h05.28.896.csv,4,24,2,0,z,0,1,0,tac,A,27,1,2A,0A,0,1,z,2.41633090000323,0,1,1,1,0A,2A,A20,3.66356164612965,0.555263004960345,0.485571644379356,0.5,0.5,0.471559643650544,0.526406293719057,0.5,0.5,0.485571644379356,0.5,0.555263004960345,0.485571644379356,0.5,0.5,0.457951983180675,0.514832695879588,0.526184469985481,0.473815530014519,0.555263004960345,0.5,0.290642166660659,0.791120052695724,0.444736995039655,0.0128336470441775,0.5,0.028856711241288,1.09140840146529,9.34759038649567,2.72685888482046,0.5,70.9286253509117
CBC_1027,CBC_1027_MSI_TV_v3_Vset3_Tset3_2023-07-21_18h05.28.896.csv,4,25,2,3,z,0,1,3,tac,D,63,1,2D,3D,0,1,b,2.23391420000189,1,0,0,0,2D,3D,D23,2.99573227355399,0.568096652004522,0.485571644379356,0.5,0.5,0.471559643650544,0.526406293719057,0.5,0.5,0.485571644379356,0.5,0.555263004960345,0.485571644379356,0.5,0.5,0.457951983180675,0.514832695879588,0.470763975870867,0.529236024129133,0.457951983180675,0.514832695879588,0.0789222682430969,0.184552540291949,-0.457951983180675,-0.0132149881410199,0.5,0.028856711241288,1.09140840146529,9.34759038649567,2.72685888482046,0.5,70.9286253509117
CBC_1027,CBC_1027_MSI_TV_v3_Vset3_Tset3_2023-07-21_18h05.28.896.csv,4,26,2,0,b,1,0,1,tac,C,27,1,2C,0C,1,0,b,2.29278140000315,1,0,1,1,2C,0C,C20,2.6149597780362,0.568096652004522,0.485571644379356,0.5,0.5,0.471559643650544,0.526406293719057,0.5,0.5,0.485571644379356,0.5,0.555263004960345,0.485571644379356,0.5,0.5,0.444736995039655,0.514832695879588,0.53347859365808,0.46652140634192,0.555263004960345,0.485571644379356,0.351509124192463,0.846649377482226,0.444736995039655,0.0128336470441775,0.5,0.028856711241288,1.09140840146529,9.34759038649567,2.72685888482046,0.5,70.9286253509117
CBC_1027,CBC_1027_MSI_TV_v3_Vset3_Tset3_2023-07-21_18h05.28.896.csv,4,27,1,0,b,1,0,2,tac,B,63,1,1B,0B,1,0,z,1.35420070000328,0,1,0,0,0B,1B,B10,2.35137525716348,0.568096652004522,0.485571644379356,0.5,0.5,0.471559643650544,0.526406293719057,0.5,0.5,0.485571644379356,0.5,0.568096652004522,0.485571644379356,0.5,0.5,0.444736995039655,0.514832695879588,0.472520780512271,0.527479219487729,0.471559643650544,0.526406293719057,0.0562627188062718,0.197285188648245,-0.471559643650544,-0.0136076604698684,0.5,0.028856711241288,1.09140840146529,9.34759038649567,2.72685888482046,0.5,70.9286253509117
CBC_1027,CBC_1027_MSI_TV_v3_Vset3_Tset3_2023-07-21_18h05.28.896.csv,4,28,0,1,b,1,0,0,tac,A,63,1,0A,1A,1,0,b,2.50956410000435,1,0,1,1,0A,1A,A01,3.76120011569356,0.568096652004522,0.485571644379356,0.5,0.5,0.457951983180675,0.526406293719057,0.5,0.5,0.485571644379356,0.5,0.568096652004522,0.485571644379356,0.5,0.5,0.444736995039655,0.514832695879588,0.539160809862263,0.460839190137738,0.568096652004522,0.485571644379356,0.305299314633099,0.880208106785404,0.431903347995478,0.012463310197251,0.5,0.028856711241288,1.09140840146529,9.34759038649567,2.72685888482046,0.5,70.9286253509117
CBC_1027,CBC_1027_MSI_TV_v3_Vset3_Tset3_2023-07-21_18h05.28.896.csv,4,29,3,2,z,0,1,1,tac,C,63,0,3C,2C,1,0,z,3.36070140000083,0,1,1,0,2C,3C,C32,2.68557734525015,0.580559962201773,0.485571644379356,0.5,0.5,0.457951983180675,0.526406293719057,0.5,0.5,0.485571644379356,0.5,0.568096652004522,0.485571644379356,0.5,0.5,0.444736995039655,0.514832695879588,0.539160809862263,0.460839190137738,0.568096652004522,0.485571644379356,0.138364562528102,0.880670552695757,-0.568096652004522,-0.016393401044037,0.5,0.028856711241288,1.09140840146529,9.34759038649567,2.72685888482046,0.5,70.9286253509117
CBC_1027,CBC_1027_MSI_TV_v3_Vset3_Tset3_2023-07-21_18h05.28.896.csv,4,30,3,1,b,1,0,3,tac,D,27,1,3D,1D,1,0,b,2.33563340000546,1,0,1,1,3D,1D,D31,3.80666248977032,0.580559962201773,0.485571644379356,0.5,0.5,0.457951983180675,0.526406293719057,0.5,0.5,0.485571644379356,0.5,0.551703250960485,0.485571644379356,0.5,0.5,0.444736995039655,0.514832695879588,0.507307951320356,0.492692048679644,0.514832695879588,0.5,0.219425096879505,0.592057855010588,0.485167304120412,0.0140003327987169,0.5,0.028856711241288,1.09140840146529,9.34759038649567,2.72685888482046,0.5,70.9286253509117
CBC_1027,CBC_1027_MSI_TV_v3_Vset3_Tset3_2023-07-21_18h05.28.896.csv,4,31,1,0,z,0,1,0,tac,A,63,1,1A,0A,0,1,z,2.34392160000425,0,1,1,1,0A,1A,A10,2.4423470353692,0.580559962201773,0.485571644379356,0.5,0.5,0.457951983180675,0.526406293719057,0.5,0.5,0.485571644379356,0.5,0.551703250960485,0.485571644379356,0.5,0.5,0.444736995039655,0.528833028678305,0.544548120155178,0.455451879844822,0.580559962201773,0.485571644379356,0.369442119738345,0.906310633555563,0.419440037798227,0.0121036600537783,0.5,0.028856711241288,1.09140840146529,9.34759038649567,2.72685888482046,0.5,70.9286253509117
CBC_1027,CBC_1027_MSI_TV_v3_Vset3_Tset3_2023-07-21_18h05.28.896.csv,4,32,3,2,b,1,0,3,tac,D,63,1,3D,2D,1,0,b,2.35856610000337,1,0,1,1,3D,2D,D32,2.46385324059017,0.592663622255552,0.485571644379356,0.5,0.5,0.457951983180675,0.526406293719057,0.5,0.5,0.485571644379356,0.5,0.551703250960485,0.485571644379356,0.5,0.5,0.444736995039655,0.528833028678305,0.543189514667623,0.456810485332377,0.528833028678305,0.444736995039655,0.361231458586762,0.900460934959799,0.471166971321695,0.0135963292378624,0.5,0.028856711241288,1.09140840146529,9.34759038649567,2.72685888482046,0.5,70.9286253509117
CBC_1027,CBC_1027_MSI_TV_v3_Vset3_Tset3_2023-07-21_18h05.28.896.csv,4,33,2,1,z,0,1,2,tac,B,9,1,2B,1B,0,1,z,2.28106410000328,0,1,1,1,1B,2B,B21,3.87120101090789,0.592663622255552,0.485571644379356,0.5,0.5,0.457951983180675,0.526406293719057,0.5,0.5,0.485571644379356,0.5,0.551703250960485,0.485571644379356,0.5,0.5,0.444736995039655,0.542429357916167,0.512863470284938,0.487136529715062,0.526406293719057,0.5,0.255969596174949,0.658508735640129,0.473593706280943,0.0136663568278405,0.5,0.028856711241288,1.09140840146529,9.34759038649567,2.72685888482046,0.5,70.9286253509117
CBC_1027,CBC_1027_MSI_TV_v3_Vset3_Tset3_2023-07-21_18h05.28.896.csv,4,34,1,0,z,0,1,0,tac,A,63,1,1A,0A,0,1,z,3.00834490000489,0,1,1,1,0A,1A,A10,2.28238238567653,0.592663622255552,0.485571644379356,0.5,0.5,0.457951983180675,0.540072650546897,0.5,0.5,0.485571644379356,0.5,0.551703250960485,0.485571644379356,0.5,0.5,0.444736995039655,0.542429357916167,0.549660765692826,0.450339234307174,0.592663622255552,0.485571644379356,0.183775621925361,0.926258410604177,0.407336377744448,0.0117543882306437,0.5,0.028856711241288,1.09140840146529,9.34759038649567,2.72685888482046,0.5,70.9286253509117
CBC_1027,CBC_1027_MSI_TV_v3_Vset3_Tset3_2023-07-21_18h05.28.896.csv,4,35,2,1,b,1,0,1,tac,C,9,1,2C,1C,1,0,z,2.76250290000462,0,1,0,0,1C,2C,C21,3.91202300542815,0.604418010486195,0.485571644379356,0.5,0.5,0.457951983180675,0.540072650546897,0.5,0.5,0.485571644379356,0.5,0.551703250960485,0.485571644379356,0.5,0.5,0.444736995039655,0.542429357916167,0.475419277770005,0.524580722229995,0.5,0.551703250960485,0.0623982073610274,0.222121192446994,-0.5,-0.014428355620644,0.5,0.028856711241288,1.09140840146529,9.34759038649567,2.72685888482046,0.5,70.9286253509117
CBC_1027,CBC_1027_MSI_TV_v3_Vset3_Tset3_2023-07-21_18h05.28.896.csv,4,36,1,0,b,1,0,2,tac,B,63,1,1B,0B,1,0,b,2.308552100003,1,0,1,1,1B,0B,B10,2.32238772029023,0.604418010486195,0.485571644379356,0.5,0.5,0.457951983180675,0.540072650546897,0.5,0.5,0.485571644379356,0.485571644379356,0.551703250960485,0.485571644379356,0.5,0.5,0.444736995039655,0.542429357916167,0.541141603418898,0.458858396581102,0.540072650546897,0.457951983180675,0.373205051188709,0.890491622677121,0.459927349453103,0.0132719907151391,0.5,0.028856711241288,1.09140840146529,9.34759038649567,2.72685888482046,0.5,70.9286253509117
CBC_1027,CBC_1027_MSI_TV_v3_Vset3_Tset3_2023-07-21_18h05.28.896.csv,4,37,0,1,b,1,0,0,tac,A,63,0,0A,1A,0,1,b,2.74784640000507,1,0,1,0,0A,1A,A01,3.25809653802148,0.604418010486195,0.485571644379356,0.5,0.5,0.457951983180675,0.553344641262037,0.5,0.5,0.485571644379356,0.485571644379356,0.551703250960485,0.485571644379356,0.5,0.5,0.444736995039655,0.542429357916167,0.554517199120343,0.445482800879657,0.604418010486195,0.485571644379356,0.238805191482083,0.941566396913757,-0.604418010486195,-0.0174415159976339,0.5,0.028856711241288,1.09140840146529,9.34759038649567,2.72685888482046,0.5,70.9286253509117
CBC_1027,CBC_1027_MSI_TV_v3_Vset3_Tset3_2023-07-21_18h05.28.896.csv,4,38,0,1,z,0,1,2,tac,B,63,1,0B,1B,0,1,z,2.28649310000037,0,1,1,1,1B,0B,B01,3.27714473299218,0.586976494488561,0.485571644379356,0.5,0.5,0.457951983180675,0.553344641262037,0.5,0.5,0.485571644379356,0.485571644379356,0.551703250960485,0.485571644379356,0.5,0.5,0.444736995039655,0.542429357916167,0.54716354023921,0.45283645976079,0.553344641262037,0.457951983180675,0.397598266950848,0.917190085949886,0.446655358737963,0.0128890047114753,0.5,0.028856711241288,1.09140840146529,9.34759038649567,2.72685888482046,0.5,70.9286253509117
CBC_1027,CBC_1027_MSI_TV_v3_Vset3_Tset3_2023-07-21_18h05.28.896.csv,4,39,1,3,z,0,1,3,tac,D,27,1,1D,3D,0,1,z,2.27200960000482,0,1,1,1,3D,1D,D13,3.29583686600433,0.586976494488561,0.485571644379356,0.5,0.5,0.457951983180675,0.566233645973512,0.5,0.5,0.485571644379356,0.485571644379356,0.551703250960485,0.485571644379356,0.5,0.5,0.444736995039655,0.542429357916167,0.520351190991486,0.479648809008514,0.542429357916167,0.5,0.296394635807705,0.739190620638809,0.457570642083833,0.0132039838911039,0.5,0.028856711241288,1.09140840146529,9.34759038649567,2.72685888482046,0.5,70.9286253509117
CBC_1027,CBC_1027_MSI_TV_v3_Vset3_Tset3_2023-07-21_18h05.28.896.csv,4,40,3,2,z,0,1,1,tac,C,63,1,3C,2C,0,1,z,2.50871330000518,0,1,1,1,2C,3C,C32,2.62103882411258,0.586976494488561,0.485571644379356,0.5,0.5,0.457951983180675,0.566233645973512,0.5,0.5,0.485571644379356,0.485571644379356,0.551703250960485,0.485571644379356,0.5,0.5,0.444736995039655,0.555633341807271,0.531877570197755,0.468122429802245,0.551703250960485,0.485571644379356,0.288501632733406,0.835412999768376,0.448296749039515,0.0129363698374414,0.5,0.028856711241288,1.09140840146529,9.34759038649567,2.72685888482046,0.5,70.9286253509117
CBC_1027,CBC_1027_MSI_TV_v3_Vset3_Tset3_2023-07-21_18h05.28.896.csv,4,41,0,2,b,1,0,0,tac,A,27,1,0A,2A,1,0,b,2.46007040000404,1,0,1,1,0A,2A,A02,3.3322045101752,0.586976494488561,0.485571644379356,0.5,0.5,0.457951983180675,0.566233645973512,0.5,0.5,0.485571644379356,0.485571644379356,0.564639620797927,0.485571644379356,0.5,0.5,0.444736995039655,0.555633341807271,0.540008452312248,0.459991547687751,0.586976494488561,0.5,0.321436218432244,0.884964493431927,0.413023505511439,0.0119185000344081,0.5,0.028856711241288,1.09140840146529,9.34759038649567,2.72685888482046,0.5,70.9286253509117
CBC_1027,CBC_1027_MSI_TV_v3_Vset3_Tset3_2023-07-21_18h05.28.896.csv,4,42,2,3,z,0,1,3,tac,D,63,1,2D,3D,0,1,z,1.80908380000255,0,1,1,1,3D,2D,D23,2.94443897916644,0.59889499452297,0.485571644379356,0.5,0.5,0.457951983180675,0.566233645973512,0.5,0.5,0.485571644379356,0.485571644379356,0.564639620797927,0.485571644379356,0.5,0.5,0.444736995039655,0.555633341807271,0.555427646483976,0.444572353516024,0.555633341807271,0.444736995039655,0.684106619756301,0.943901632974178,0.444366658192729,0.0128229603407237,0.5,0.028856711241288,1.09140840146529,9.34759038649567,2.72685888482046,0.5,70.9286253509117
CBC_1027,CBC_1027_MSI_TV_v3_Vset3_Tset3_2023-07-21_18h05.28.896.csv,4,43,1,3,b,1,0,2,tac,B,27,1,1B,3B,1,0,b,2.30724050000572,1,0,1,1,1B,3B,B13,3.36729582998647,0.59889499452297,0.485571644379356,0.5,0.5,0.457951983180675,0.566233645973512,0.5,0.5,0.485571644379356,0.485571644379356,0.564639620797927,0.485571644379356,0.5,0.5,0.444736995039655,0.568456302147995,0.531059630421359,0.468940369578641,0.566233645973512,0.5,0.337373362306528,0.829629957376157,0.433766354026488,0.0125170704243287,0.5,0.028856711241288,1.09140840146529,9.34759038649567,2.72685888482046,0.5,70.9286253509117
CBC_1027,CBC_1027_MSI_TV_v3_Vset3_Tset3_2023-07-21_18h05.28.896.csv,4,44,3,2,z,0,1,1,tac,C,63,1,3C,2C,0,1,z,2.4167095000048,0,1,1,1,2C,3C,C32,2.46809953147162,0.59889499452297,0.485571644379356,0.5,0.5,0.457951983180675,0.57875071639784,0.5,0.5,0.485571644379356,0.485571644379356,0.564639620797927,0.485571644379356,0.5,0.5,0.444736995039655,0.568456302147995,0.537643843215309,0.462356156784691,0.564639620797927,0.485571644379356,0.328848051670739,0.872222905490514,0.435360379202073,0.0125630687485319,0.5,0.028856711241288,1.09140840146529,9.34759038649567,2.72685888482046,0.5,70.9286253509117
