ID,filename,session,trial,visStimLeft,visStimRight,correctKey,leftCorrect,rightCorrect,secondStim,mod2Type,mod2Stim,frequency,rewardAccurate,stimPairLeft,stimPairRight,pCorrectLeft,pCorrectRight,key,reactionTime,choiceLeft,choiceRight,choiceAccurate,reward,chosenPair,otherPair,triplet,surprise,0A belief,1A belief,2A belief,3A belief,0B belief,1B belief,2B belief,3B belief,0C belief,1C belief,2C belief,3C belief,0D belief,1D belief,2D belief,3D belief,beliefPairNorm,beliefOtherPairNorm,beliefPair,beliefOtherPair,lik,corrLik,rewardPE,update2,fitCBCsimpleRW_CBCdriftDiffusionLR_pwBelief_startBelief,fitCBCsimpleRW_CBCdriftDiffusionLR_pwBelief_alpha1,fitCBCsimpleRW_CBCdriftDiffusionLR_pwBelief_nonDecisionTime,fitCBCsimpleRW_CBCdriftDiffusionLR_pwBelief_weight,fitCBCsimpleRW_CBCdriftDiffusionLR_pwBelief_startingBoundary,fitCBCsimpleRW_CBCdriftDiffusionLR_pwBelief_startingPoint,fit_CBCsimpleRW_CBCdriftDiffusionLR_pwBelief_NLL
CBC_1027,CBC_1027_MSI_AV_v3_Vset5_Aset1_2023-07-21_16h27.29.899.csv,1,1,0,1,z,0,1,2,aud,B,63,1,0B,1B,0,1,b,2.55251940000016,1,0,0,0,0B,1B,B01,2.77258872223978,0.5,0.5,0.5,0.5,0.5,0.5,0.5,0.5,0.5,0.5,0.5,0.5,0.5,0.5,0.5,0.5,0.5,0.5,0.5,0.5,0.110374131081444,0.500032795369575,-0.5,-0.459337923675019,0.5,0.918675847350037,0.896403158795487,0.386148855591872,2.08597615248312,0.5,66.9674040374869
CBC_1027,CBC_1027_MSI_AV_v3_Vset5_Aset1_2023-07-21_16h27.29.899.csv,1,2,1,0,z,0,1,0,aud,A,63,1,1A,0A,0,1,z,1.74711059999936,0,1,1,1,0A,1A,A10,2.83321334405622,0.5,0.5,0.5,0.5,0.0406620763249813,0.5,0.5,0.5,0.5,0.5,0.5,0.5,0.5,0.5,0.5,0.5,0.5,0.5,0.5,0.5,0.274679347216399,0.499857279132023,0.5,0.459337923675019,0.5,0.918675847350037,0.896403158795487,0.386148855591872,2.08597615248312,0.5,66.9674040374869
CBC_1027,CBC_1027_MSI_AV_v3_Vset5_Aset1_2023-07-21_16h27.29.899.csv,1,3,2,1,b,1,0,1,aud,C,9,1,2C,1C,1,0,b,1.51832549999926,1,0,1,1,2C,1C,C21,2.89037175789616,0.959337923675019,0.5,0.5,0.5,0.0406620763249813,0.5,0.5,0.5,0.5,0.5,0.5,0.5,0.5,0.5,0.5,0.5,0.5,0.5,0.5,0.5,0.352497685181826,0.499521288746792,0.5,0.459337923675019,0.5,0.918675847350037,0.896403158795487,0.386148855591872,2.08597615248312,0.5,66.9674040374869
CBC_1027,CBC_1027_MSI_AV_v3_Vset5_Aset1_2023-07-21_16h27.29.899.csv,1,4,0,1,b,1,0,0,aud,A,63,1,0A,1A,1,0,z,1.06943179999871,0,1,0,0,1A,0A,A01,2.94443897916644,0.959337923675019,0.5,0.5,0.5,0.0406620763249813,0.5,0.5,0.5,0.5,0.5,0.959337923675019,0.5,0.5,0.5,0.5,0.5,0.0406620763249812,0.959337923675019,0.5,0.959337923675019,0.170438897784037,0.323165550915002,-0.5,-0.459337923675019,0.5,0.918675847350037,0.896403158795487,0.386148855591872,2.08597615248312,0.5,66.9674040374869
CBC_1027,CBC_1027_MSI_AV_v3_Vset5_Aset1_2023-07-21_16h27.29.899.csv,1,5,1,3,z,0,1,3,aud,D,27,1,1D,3D,0,1,z,2.33847559999958,0,1,1,1,3D,1D,D13,2.99573227355399,0.959337923675019,0.0406620763249813,0.5,0.5,0.0406620763249813,0.5,0.5,0.5,0.5,0.5,0.959337923675019,0.5,0.5,0.5,0.5,0.5,0.5,0.5,0.5,0.5,0.140717832437423,0.50010247530768,0.5,0.459337923675019,0.5,0.918675847350037,0.896403158795487,0.386148855591872,2.08597615248312,0.5,66.9674040374869
CBC_1027,CBC_1027_MSI_AV_v3_Vset5_Aset1_2023-07-21_16h27.29.899.csv,1,6,1,0,b,1,0,2,aud,B,63,1,1B,0B,1,0,b,2.2439775999992,1,0,1,1,1B,0B,B10,3.04452243772342,0.959337923675019,0.0406620763249813,0.5,0.5,0.0406620763249813,0.5,0.5,0.5,0.5,0.5,0.959337923675019,0.5,0.5,0.5,0.5,0.959337923675019,0.959337923675019,0.0406620763249812,0.5,0.0406620763249813,0.208347796868456,0.677229972188507,0.5,0.459337923675019,0.5,0.918675847350037,0.896403158795487,0.386148855591872,2.08597615248312,0.5,66.9674040374869
CBC_1027,CBC_1027_MSI_AV_v3_Vset5_Aset1_2023-07-21_16h27.29.899.csv,1,7,3,2,z,0,1,1,aud,C,63,1,3C,2C,0,1,z,2.33604809999997,0,1,1,1,2C,3C,C32,3.09104245335832,0.959337923675019,0.0406620763249813,0.5,0.5,0.0406620763249813,0.959337923675019,0.5,0.5,0.5,0.5,0.959337923675019,0.5,0.5,0.5,0.5,0.959337923675019,0.959337923675019,0.0406620763249812,0.959337923675019,0.5,0.186520680088224,0.676846234158559,0.0406620763249812,0.037355267422864,0.5,0.918675847350037,0.896403158795487,0.386148855591872,2.08597615248312,0.5,66.9674040374869
CBC_1027,CBC_1027_MSI_AV_v3_Vset5_Aset1_2023-07-21_16h27.29.899.csv,1,8,0,2,b,1,0,0,aud,A,27,1,0A,2A,1,0,b,2.55405000000064,1,0,1,1,0A,2A,A02,3.13549421592915,0.959337923675019,0.0406620763249813,0.5,0.5,0.0406620763249813,0.959337923675019,0.5,0.5,0.5,0.5,0.996693191097883,0.5,0.5,0.5,0.5,0.959337923675019,0.959337923675019,0.0406620763249812,0.959337923675019,0.5,0.14380288268255,0.677673639530074,0.0406620763249812,0.037355267422864,0.5,0.918675847350037,0.896403158795487,0.386148855591872,2.08597615248312,0.5,66.9674040374869
CBC_1027,CBC_1027_MSI_AV_v3_Vset5_Aset1_2023-07-21_16h27.29.899.csv,1,9,2,3,z,0,1,3,aud,D,63,1,2D,3D,0,1,z,1.73897949999991,0,1,1,1,3D,2D,D23,3.17805383034795,0.996693191097883,0.0406620763249813,0.5,0.5,0.0406620763249813,0.959337923675019,0.5,0.5,0.5,0.5,0.996693191097883,0.5,0.5,0.5,0.5,0.959337923675019,0.959337923675019,0.0406620763249812,0.959337923675019,0.5,0.380804696265251,0.677177098319967,0.0406620763249812,0.037355267422864,0.5,0.918675847350037,0.896403158795487,0.386148855591872,2.08597615248312,0.5,66.9674040374869
CBC_1027,CBC_1027_MSI_AV_v3_Vset5_Aset1_2023-07-21_16h27.29.899.csv,1,10,1,3,b,1,0,2,aud,B,27,1,1B,3B,1,0,b,2.14430709999942,1,0,1,1,1B,3B,B13,3.2188758248682,0.996693191097883,0.0406620763249813,0.5,0.5,0.0406620763249813,0.959337923675019,0.5,0.5,0.5,0.5,0.996693191097883,0.5,0.5,0.5,0.5,0.996693191097883,0.959337923675019,0.0406620763249812,0.959337923675019,0.5,0.234678167059031,0.677003338620968,0.0406620763249812,0.037355267422864,0.5,0.918675847350037,0.896403158795487,0.386148855591872,2.08597615248312,0.5,66.9674040374869
CBC_1027,CBC_1027_MSI_AV_v3_Vset5_Aset1_2023-07-21_16h27.29.899.csv,1,11,2,3,b,1,0,1,aud,C,63,1,2C,3C,1,0,z,1.65245679999862,0,1,0,0,3C,2C,C23,3.25809653802148,0.996693191097883,0.0406620763249813,0.5,0.5,0.0406620763249813,0.996693191097883,0.5,0.5,0.5,0.5,0.996693191097883,0.5,0.5,0.5,0.5,0.996693191097883,0.00330680890211721,0.996693191097883,0.5,0.996693191097883,0.193911188307518,0.310555936063263,-0.5,-0.459337923675019,0.5,0.918675847350037,0.896403158795487,0.386148855591872,2.08597615248312,0.5,66.9674040374869
CBC_1027,CBC_1027_MSI_AV_v3_Vset5_Aset1_2023-07-21_16h27.29.899.csv,1,12,3,1,z,0,1,2,aud,B,27,1,3B,1B,0,1,z,2.08916800000043,0,1,1,1,1B,3B,B31,3.29583686600433,0.996693191097883,0.0406620763249813,0.5,0.5,0.0406620763249813,0.996693191097883,0.5,0.5,0.5,0.5,0.996693191097883,0.0406620763249813,0.5,0.5,0.5,0.996693191097883,0.996693191097883,0.00330680890211721,0.996693191097883,0.5,0.255250961802504,0.69052892058547,0.00330680890211721,0.00303788547017717,0.5,0.918675847350037,0.896403158795487,0.386148855591872,2.08597615248312,0.5,66.9674040374869
CBC_1027,CBC_1027_MSI_AV_v3_Vset5_Aset1_2023-07-21_16h27.29.899.csv,1,13,2,3,b,1,0,1,aud,C,63,1,2C,3C,1,0,b,1.47864259999915,1,0,1,1,2C,3C,C23,2.63905732961526,0.996693191097883,0.0406620763249813,0.5,0.5,0.0406620763249813,0.99973107656806,0.5,0.5,0.5,0.5,0.996693191097883,0.0406620763249813,0.5,0.5,0.5,0.996693191097883,0.999859393798392,0.000140606201608384,0.996693191097883,0.0406620763249813,0.526222186576469,0.69117378717167,0.00330680890211721,0.00303788547017717,0.5,0.918675847350037,0.896403158795487,0.386148855591872,2.08597615248312,0.5,66.9674040374869
CBC_1027,CBC_1027_MSI_AV_v3_Vset5_Aset1_2023-07-21_16h27.29.899.csv,1,14,2,3,z,0,1,3,aud,D,63,1,2D,3D,0,1,z,1.54143199999999,0,1,1,1,3D,2D,D23,2.67414864942653,0.996693191097883,0.0406620763249813,0.5,0.5,0.0406620763249813,0.99973107656806,0.5,0.5,0.5,0.5,0.99973107656806,0.0406620763249813,0.5,0.5,0.5,0.996693191097883,0.996693191097883,0.00330680890211721,0.996693191097883,0.5,0.490884280765743,0.690994077837716,0.00330680890211721,0.00303788547017717,0.5,0.918675847350037,0.896403158795487,0.386148855591872,2.08597615248312,0.5,66.9674040374869
CBC_1027,CBC_1027_MSI_AV_v3_Vset5_Aset1_2023-07-21_16h27.29.899.csv,1,15,3,0,z,0,1,0,aud,A,9,1,3A,0A,0,1,z,1.70691380000062,0,1,1,1,0A,3A,A30,3.40119738166216,0.996693191097883,0.0406620763249813,0.5,0.5,0.0406620763249813,0.99973107656806,0.5,0.5,0.5,0.5,0.99973107656806,0.0406620763249813,0.5,0.5,0.5,0.99973107656806,0.996693191097883,0.00330680890211721,0.996693191097883,0.5,0.403997337127228,0.690050791143407,0.00330680890211721,0.00303788547017717,0.5,0.918675847350037,0.896403158795487,0.386148855591872,2.08597615248312,0.5,66.9674040374869
CBC_1027,CBC_1027_MSI_AV_v3_Vset5_Aset1_2023-07-21_16h27.29.899.csv,1,16,1,0,b,1,0,2,aud,B,63,0,1B,0B,0,1,b,1.09278499999891,1,0,1,0,1B,0B,B10,2.7408400239252,0.99973107656806,0.0406620763249813,0.5,0.5,0.0406620763249813,0.99973107656806,0.5,0.5,0.5,0.5,0.99973107656806,0.0406620763249813,0.5,0.5,0.5,0.99973107656806,0.999988598593257,1.14014067433832e-05,0.99973107656806,0.0406620763249813,0.441777437924873,0.691110813479348,-0.99973107656806,-0.918428793888328,0.5,0.918675847350037,0.896403158795487,0.386148855591872,2.08597615248312,0.5,66.9674040374869
CBC_1027,CBC_1027_MSI_AV_v3_Vset5_Aset1_2023-07-21_16h27.29.899.csv,1,17,3,2,b,1,0,3,aud,D,63,1,3D,2D,1,0,z,3.08892840000044,0,1,0,0,2D,3D,D32,3.46573590279973,0.99973107656806,0.0406620763249813,0.5,0.5,0.0406620763249813,0.0813022826797323,0.5,0.5,0.5,0.5,0.99973107656806,0.0406620763249813,0.5,0.5,0.5,0.99973107656806,0.000268923431940071,0.99973107656806,0.5,0.99973107656806,0.0341644984430063,0.309306165413509,-0.5,-0.459337923675019,0.5,0.918675847350037,0.896403158795487,0.386148855591872,2.08597615248312,0.5,66.9674040374869
CBC_1027,CBC_1027_MSI_AV_v3_Vset5_Aset1_2023-07-21_16h27.29.899.csv,1,18,2,0,b,1,0,1,aud,C,27,1,2C,0C,1,0,b,1.56955709999966,1,0,1,1,2C,0C,C20,3.49650756146648,0.99973107656806,0.0406620763249813,0.5,0.5,0.0406620763249813,0.0813022826797323,0.5,0.5,0.5,0.5,0.99973107656806,0.0406620763249813,0.5,0.5,0.0406620763249813,0.99973107656806,0.99973107656806,0.000268923431940071,0.99973107656806,0.5,0.475397726339537,0.690980825583155,0.000268923431940071,0.000247053461709825,0.5,0.918675847350037,0.896403158795487,0.386148855591872,2.08597615248312,0.5,66.9674040374869
CBC_1027,CBC_1027_MSI_AV_v3_Vset5_Aset1_2023-07-21_16h27.29.899.csv,1,19,1,0,z,0,1,0,aud,A,63,1,1A,0A,0,1,b,1.72540329999902,1,0,0,0,1A,0A,A10,2.83321334405622,0.99973107656806,0.0406620763249813,0.5,0.5,0.0406620763249813,0.0813022826797323,0.5,0.5,0.5,0.5,0.99997813002977,0.0406620763249813,0.5,0.5,0.0406620763249813,0.99973107656806,1.14014067433371e-05,0.999988598593257,0.0406620763249813,0.99973107656806,0.176850322246715,0.308733751626975,-0.0406620763249813,-0.0373552674228641,0.5,0.918675847350037,0.896403158795487,0.386148855591872,2.08597615248312,0.5,66.9674040374869
CBC_1027,CBC_1027_MSI_AV_v3_Vset5_Aset1_2023-07-21_16h27.29.899.csv,1,20,0,1,z,0,1,2,aud,B,63,1,0B,1B,0,1,z,1.17991649999931,0,1,1,1,1B,0B,B01,2.86220088092947,0.99973107656806,0.0033068089021172,0.5,0.5,0.0406620763249813,0.0813022826797323,0.5,0.5,0.5,0.5,0.99997813002977,0.0406620763249813,0.5,0.5,0.0406620763249813,0.99973107656806,0.676156560950145,0.323843439049855,0.0813022826797323,0.0406620763249813,0.465065752323121,0.57033689720001,0.918697717320268,0.843985403917742,0.5,0.918675847350037,0.896403158795487,0.386148855591872,2.08597615248312,0.5,66.9674040374869
CBC_1027,CBC_1027_MSI_AV_v3_Vset5_Aset1_2023-07-21_16h27.29.899.csv,1,21,3,1,b,1,0,3,aud,D,27,1,3D,1D,1,0,b,2.16403479999826,1,0,1,1,3D,1D,D31,3.58351893845611,0.99973107656806,0.0033068089021172,0.5,0.5,0.0406620763249813,0.925287686597474,0.5,0.5,0.5,0.5,0.99997813002977,0.0406620763249813,0.5,0.5,0.0406620763249813,0.99973107656806,0.99973107656806,0.000268923431940071,0.99973107656806,0.5,0.233141338692541,0.690381287834217,0.000268923431940071,0.000247053461709825,0.5,0.918675847350037,0.896403158795487,0.386148855591872,2.08597615248312,0.5,66.9674040374869
CBC_1027,CBC_1027_MSI_AV_v3_Vset5_Aset1_2023-07-21_16h27.29.899.csv,1,22,2,3,b,1,0,1,aud,C,63,1,2C,3C,1,0,b,1.20522579999852,1,0,1,1,2C,3C,C23,2.51230562397611,0.99973107656806,0.0033068089021172,0.5,0.5,0.0406620763249813,0.925287686597474,0.5,0.5,0.5,0.5,0.99997813002977,0.0406620763249813,0.5,0.5,0.0406620763249813,0.99997813002977,0.999999073009623,9.26990376681758e-07,0.99997813002977,0.0406620763249813,0.609253389594957,0.691326419120268,2.18699702302372e-05,2.00914134327832e-05,0.5,0.918675847350037,0.896403158795487,0.386148855591872,2.08597615248312,0.5,66.9674040374869
CBC_1027,CBC_1027_MSI_AV_v3_Vset5_Aset1_2023-07-21_16h27.29.899.csv,1,23,1,0,z,0,1,0,aud,A,63,1,1A,0A,0,1,b,2.17610299999978,1,0,0,0,1A,0A,A10,2.53897387105828,0.99973107656806,0.0033068089021172,0.5,0.5,0.0406620763249813,0.925287686597474,0.5,0.5,0.5,0.5,0.999998221443202,0.0406620763249813,0.5,0.5,0.0406620763249813,0.99997813002977,8.92468038243702e-07,0.999999107531962,0.0033068089021172,0.99973107656806,0.103046082071836,0.309621325157631,-0.0033068089021172,-0.00303788547017717,0.5,0.918675847350037,0.896403158795487,0.386148855591872,2.08597615248312,0.5,66.9674040374869
CBC_1027,CBC_1027_MSI_AV_v3_Vset5_Aset1_2023-07-21_16h27.29.899.csv,1,24,3,2,b,1,0,3,aud,D,63,1,3D,2D,1,0,z,1.45644879999963,0,1,0,0,2D,3D,D32,2.9704144655697,0.99973107656806,0.000268923431940034,0.5,0.5,0.0406620763249813,0.925287686597474,0.5,0.5,0.5,0.5,0.999998221443202,0.0406620763249813,0.5,0.5,0.0406620763249813,0.99997813002977,9.26990376681758e-07,0.999999073009623,0.0406620763249813,0.99997813002977,0.240773024746489,0.308959123455014,-0.0406620763249813,-0.0373552674228641,0.5,0.918675847350037,0.896403158795487,0.386148855591872,2.08597615248312,0.5,66.9674040374869
CBC_1027,CBC_1027_MSI_AV_v3_Vset5_Aset1_2023-07-21_16h27.29.899.csv,1,25,0,2,z,0,1,1,aud,C,27,1,0C,2C,0,1,b,1.70952559999932,1,0,0,0,0C,2C,C02,3.68887945411394,0.99973107656806,0.000268923431940034,0.5,0.5,0.0406620763249813,0.925287686597474,0.5,0.5,0.5,0.5,0.999998221443202,0.0406620763249813,0.5,0.5,0.0033068089021172,0.99997813002977,1.77855679750483e-06,0.999998221443202,0.5,0.999998221443202,0.180347404451293,0.308944119028769,-0.5,-0.459337923675019,0.5,0.918675847350037,0.896403158795487,0.386148855591872,2.08597615248312,0.5,66.9674040374869
CBC_1027,CBC_1027_MSI_AV_v3_Vset5_Aset1_2023-07-21_16h27.29.899.csv,1,26,1,0,z,0,1,0,aud,A,63,1,1A,0A,0,1,z,3.43591839999863,0,1,1,1,0A,1A,A10,2.32727770558442,0.99973107656806,0.000268923431940034,0.5,0.5,0.0406620763249813,0.925287686597474,0.5,0.5,0.0406620763249813,0.5,0.999998221443202,0.0406620763249813,0.5,0.5,0.0033068089021172,0.99997813002977,0.99999992764128,7.23587196909383e-08,0.99973107656806,0.000268923431940034,0.0501680036015351,0.691254017132652,0.000268923431940071,0.000247053461709825,0.5,0.918675847350037,0.896403158795487,0.386148855591872,2.08597615248312,0.5,66.9674040374869
CBC_1027,CBC_1027_MSI_AV_v3_Vset5_Aset1_2023-07-21_16h27.29.899.csv,1,27,3,1,z,0,1,2,aud,B,27,1,3B,1B,0,1,b,1.76269959999991,1,0,0,0,3B,1B,B31,3.04452243772342,0.99997813002977,0.000268923431940034,0.5,0.5,0.0406620763249813,0.925287686597474,0.5,0.5,0.0406620763249813,0.5,0.999998221443202,0.0406620763249813,0.5,0.5,0.0033068089021172,0.99997813002977,0.0747123134025256,0.925287686597474,0.5,0.925287686597474,0.182488963771235,0.334276198924091,-0.5,-0.459337923675019,0.5,0.918675847350037,0.896403158795487,0.386148855591872,2.08597615248312,0.5,66.9674040374869
CBC_1027,CBC_1027_MSI_AV_v3_Vset5_Aset1_2023-07-21_16h27.29.899.csv,1,28,2,3,b,1,0,1,aud,C,63,1,2C,3C,1,0,b,1.36931029999869,1,0,1,1,2C,3C,C23,2.37490575457367,0.99997813002977,0.000268923431940034,0.5,0.5,0.0406620763249813,0.925287686597474,0.5,0.0406620763249813,0.0406620763249813,0.5,0.999998221443202,0.0406620763249813,0.5,0.5,0.0033068089021172,0.99997813002977,0.999999924614744,7.53852564816526e-08,0.999998221443202,0.0406620763249813,0.584597780801447,0.690989142384464,1.77855679750483e-06,1.63391717300792e-06,0.5,0.918675847350037,0.896403158795487,0.386148855591872,2.08597615248312,0.5,66.9674040374869
CBC_1027,CBC_1027_MSI_AV_v3_Vset5_Aset1_2023-07-21_16h27.29.899.csv,1,29,2,3,z,0,1,3,aud,D,63,1,2D,3D,0,1,b,1.80467200000021,1,0,0,0,2D,3D,D23,2.68557734525015,0.99997813002977,0.000268923431940034,0.5,0.5,0.0406620763249813,0.925287686597474,0.5,0.0406620763249813,0.0406620763249813,0.5,0.999999855360376,0.0406620763249813,0.5,0.5,0.0033068089021172,0.99997813002977,7.25613351343533e-08,0.999999927438665,0.0033068089021172,0.99997813002977,0.161042065208193,0.309163416700317,-0.0033068089021172,-0.00303788547017717,0.5,0.918675847350037,0.896403158795487,0.386148855591872,2.08597615248312,0.5,66.9674040374869
CBC_1027,CBC_1027_MSI_AV_v3_Vset5_Aset1_2023-07-21_16h27.29.899.csv,1,30,1,0,b,1,0,2,aud,B,63,1,1B,0B,1,0,b,1.91181460000007,1,0,1,1,1B,0B,B10,2.70805020110221,0.99997813002977,0.000268923431940034,0.5,0.5,0.0406620763249813,0.925287686597474,0.5,0.0406620763249813,0.0406620763249813,0.5,0.999999855360376,0.0406620763249813,0.5,0.5,0.000268923431940034,0.99997813002977,0.996589252738641,0.0034107472613587,0.925287686597474,0.0406620763249813,0.315979159742923,0.690122215938224,0.0747123134025256,0.0686363978225468,0.5,0.918675847350037,0.896403158795487,0.386148855591872,2.08597615248312,0.5,66.9674040374869
CBC_1027,CBC_1027_MSI_AV_v3_Vset5_Aset1_2023-07-21_16h27.29.899.csv,1,31,0,2,b,1,0,0,aud,A,27,1,0A,2A,1,0,z,2.1145863999991,0,1,0,0,2A,0A,A02,3.13549421592915,0.99997813002977,0.000268923431940034,0.5,0.5,0.0406620763249813,0.993924084420021,0.5,0.0406620763249813,0.0406620763249813,0.5,0.999999855360376,0.0406620763249813,0.5,0.5,0.000268923431940034,0.99997813002977,2.18699702302372e-05,0.99997813002977,0.5,0.99997813002977,0.11074713127217,0.308967754892355,-0.5,-0.459337923675019,0.5,0.918675847350037,0.896403158795487,0.386148855591872,2.08597615248312,0.5,66.9674040374869
CBC_1027,CBC_1027_MSI_AV_v3_Vset5_Aset1_2023-07-21_16h27.29.899.csv,1,32,0,3,z,0,1,3,aud,D,9,1,0D,3D,0,1,z,2.57882459999928,0,1,1,1,3D,0D,D03,3.85014760171006,0.99997813002977,0.000268923431940034,0.0406620763249813,0.5,0.0406620763249813,0.993924084420021,0.5,0.0406620763249813,0.0406620763249813,0.5,0.999999855360376,0.0406620763249813,0.5,0.5,0.000268923431940034,0.99997813002977,0.99997813002977,2.18699702302372e-05,0.99997813002977,0.5,0.141349878545368,0.6910876210572,2.18699702302372e-05,2.00914134327832e-05,0.5,0.918675847350037,0.896403158795487,0.386148855591872,2.08597615248312,0.5,66.9674040374869
CBC_1027,CBC_1027_MSI_AV_v3_Vset5_Aset1_2023-07-21_16h27.29.899.csv,1,33,2,3,b,1,0,1,aud,C,63,1,2C,3C,1,0,b,1.14365399999951,1,0,1,1,2C,3C,C23,2.26176309847379,0.99997813002977,0.000268923431940034,0.0406620763249813,0.5,0.0406620763249813,0.993924084420021,0.5,0.0406620763249813,0.0406620763249813,0.5,0.999999855360376,0.0406620763249813,0.5,0.5,0.000268923431940034,0.999998221443202,0.999999993869368,6.13063244614409e-09,0.999999855360376,0.0406620763249813,0.550663676570648,0.691014898621528,1.44639624499732e-07,1.32876929597682e-07,0.5,0.918675847350037,0.896403158795487,0.386148855591872,2.08597615248312,0.5,66.9674040374869
CBC_1027,CBC_1027_MSI_AV_v3_Vset5_Aset1_2023-07-21_16h27.29.899.csv,1,34,1,0,b,1,0,2,aud,B,63,1,1B,0B,1,0,b,3.2633208999996,1,0,1,1,1B,0B,B10,2.50552593699074,0.99997813002977,0.000268923431940034,0.0406620763249813,0.5,0.0406620763249813,0.993924084420021,0.5,0.0406620763249813,0.0406620763249813,0.5,0.999999988237305,0.0406620763249813,0.5,0.5,0.000268923431940034,0.999998221443202,0.999740961723736,0.000259038276263612,0.993924084420021,0.0406620763249813,0.0618186113017398,0.691958940103605,0.00607591557997877,0.0055817968938643,0.5,0.918675847350037,0.896403158795487,0.386148855591872,2.08597615248312,0.5,66.9674040374869
CBC_1027,CBC_1027_MSI_AV_v3_Vset5_Aset1_2023-07-21_16h27.29.899.csv,1,35,1,0,z,0,1,0,aud,A,63,0,1A,0A,1,0,z,1.05378839999867,0,1,1,0,0A,1A,A10,2.30258509299405,0.99997813002977,0.000268923431940034,0.0406620763249813,0.5,0.0406620763249813,0.999505881313886,0.5,0.0406620763249813,0.0406620763249813,0.5,0.999999988237305,0.0406620763249813,0.5,0.5,0.000268923431940034,0.999998221443202,0.999999994116942,5.88305813603169e-09,0.99997813002977,0.000268923431940034,0.310668769561323,0.690761929829579,-0.99997813002977,-0.918655755936605,0.5,0.918675847350037,0.896403158795487,0.386148855591872,2.08597615248312,0.5,66.9674040374869
CBC_1027,CBC_1027_MSI_AV_v3_Vset5_Aset1_2023-07-21_16h27.29.899.csv,1,36,3,2,b,1,0,3,aud,D,63,1,3D,2D,1,0,b,2.09781900000053,1,0,1,1,3D,2D,D32,2.83321334405622,0.081322374093165,0.000268923431940034,0.0406620763249813,0.5,0.0406620763249813,0.999505881313886,0.5,0.0406620763249813,0.0406620763249813,0.5,0.999999988237305,0.0406620763249813,0.5,0.5,0.000268923431940034,0.999998221443202,0.999999999521575,4.78425188354947e-10,0.999998221443202,0.000268923431940034,0.252745536738228,0.690976626015288,1.77855679750483e-06,1.63391717300792e-06,0.5,0.918675847350037,0.896403158795487,0.386148855591872,2.08597615248312,0.5,66.9674040374869
CBC_1027,CBC_1027_MSI_AV_v3_Vset5_Aset1_2023-07-21_16h27.29.899.csv,1,37,2,1,z,0,1,2,aud,B,9,1,2B,1B,0,1,b,3.03113239999948,1,0,0,0,2B,1B,B21,3.95124371858143,0.081322374093165,0.000268923431940034,0.0406620763249813,0.5,0.0406620763249813,0.999505881313886,0.5,0.0406620763249813,0.0406620763249813,0.5,0.999999988237305,0.0406620763249813,0.5,0.5,0.000268923431940034,0.999999855360376,0.000494118686114486,0.999505881313886,0.5,0.999505881313886,0.0364413697053617,0.308039739974245,-0.5,-0.459337923675019,0.5,0.918675847350037,0.896403158795487,0.386148855591872,2.08597615248312,0.5,66.9674040374869
CBC_1027,CBC_1027_MSI_AV_v3_Vset5_Aset1_2023-07-21_16h27.29.899.csv,1,38,0,2,b,1,0,0,aud,A,27,1,0A,2A,1,0,z,1.49797099999887,0,1,0,0,2A,0A,A02,2.87167962488401,0.081322374093165,0.000268923431940034,0.0406620763249813,0.5,0.0406620763249813,0.999505881313886,0.0406620763249813,0.0406620763249813,0.0406620763249813,0.5,0.999999988237305,0.0406620763249813,0.5,0.5,0.000268923431940034,0.999999855360376,0.323784548176143,0.676215451823857,0.0406620763249813,0.081322374093165,0.310827962177653,0.42943287817152,-0.0406620763249813,-0.0373552674228641,0.5,0.918675847350037,0.896403158795487,0.386148855591872,2.08597615248312,0.5,66.9674040374869
CBC_1027,CBC_1027_MSI_AV_v3_Vset5_Aset1_2023-07-21_16h27.29.899.csv,1,39,3,2,z,0,1,1,aud,C,63,1,3C,2C,0,1,z,1.12535670000034,0,1,1,1,2C,3C,C32,3.29583686600433,0.081322374093165,0.000268923431940034,0.0033068089021172,0.5,0.0406620763249813,0.999505881313886,0.0406620763249813,0.0406620763249813,0.0406620763249813,0.5,0.999999988237305,0.0406620763249813,0.5,0.5,0.000268923431940034,0.999999855360376,0.999999999501432,4.98568432022131e-10,0.999999988237305,0.0406620763249813,0.519492389921367,0.691408643508942,1.1762694929196e-08,1.08061037311991e-08,0.5,0.918675847350037,0.896403158795487,0.386148855591872,2.08597615248312,0.5,66.9674040374869
CBC_1027,CBC_1027_MSI_AV_v3_Vset5_Aset1_2023-07-21_16h27.29.899.csv,1,40,3,1,b,1,0,3,aud,D,27,1,3D,1D,1,0,b,3.56871849999879,1,0,1,1,3D,1D,D31,3.31418600467253,0.081322374093165,0.000268923431940034,0.0033068089021172,0.5,0.0406620763249813,0.999505881313886,0.0406620763249813,0.0406620763249813,0.0406620763249813,0.5,0.999999999043409,0.0406620763249813,0.5,0.5,0.000268923431940034,0.999999855360376,0.999999855360376,1.44639624499732e-07,0.999999855360376,0.5,0.0427277116375295,0.690933848876402,1.44639624499732e-07,1.32876929597682e-07,0.5,0.918675847350037,0.896403158795487,0.386148855591872,2.08597615248312,0.5,66.9674040374869
CBC_1027,CBC_1027_MSI_AV_v3_Vset5_Aset1_2023-07-21_16h27.29.899.csv,1,41,1,0,z,0,1,0,aud,A,63,1,1A,0A,0,1,z,1.39482169999974,0,1,1,1,0A,1A,A10,2.23359222150709,0.081322374093165,0.000268923431940034,0.0033068089021172,0.5,0.0406620763249813,0.999505881313886,0.0406620763249813,0.0406620763249813,0.0406620763249813,0.5,0.999999999043409,0.0406620763249813,0.5,0.5,0.000268923431940034,0.999999988237305,0.996970431188563,0.00302956881143735,0.081322374093165,0.000268923431940034,0.570891641227312,0.690097764375067,0.918677625906835,0.843966946421482,0.5,0.918675847350037,0.896403158795487,0.386148855591872,2.08597615248312,0.5,66.9674040374869
CBC_1027,CBC_1027_MSI_AV_v3_Vset5_Aset1_2023-07-21_16h27.29.899.csv,1,42,2,0,b,1,0,1,aud,C,27,1,2C,0C,1,0,b,1.7811443999999,1,0,1,1,2C,0C,C20,3.3499040872746,0.925289320514647,0.000268923431940034,0.0033068089021172,0.5,0.0406620763249813,0.999505881313886,0.0406620763249813,0.0406620763249813,0.0406620763249813,0.5,0.999999999043409,0.0406620763249813,0.5,0.5,0.000268923431940034,0.999999988237305,0.999999999959454,4.05456779262181e-11,0.999999999043409,0.0406620763249813,0.370508430581351,0.691430418713855,9.56591250655947e-10,8.78797277763984e-10,0.5,0.918675847350037,0.896403158795487,0.386148855591872,2.08597615248312,0.5,66.9674040374869
CBC_1027,CBC_1027_MSI_AV_v3_Vset5_Aset1_2023-07-21_16h27.29.899.csv,1,43,2,3,z,0,1,3,aud,D,63,1,2D,3D,0,1,b,2.30787520000013,1,0,0,0,2D,3D,D23,2.67414864942653,0.925289320514647,0.000268923431940034,0.0033068089021172,0.5,0.0406620763249813,0.999505881313886,0.0406620763249813,0.0406620763249813,0.0406620763249813,0.5,0.999999999922206,0.0406620763249813,0.5,0.5,0.000268923431940034,0.999999988237305,3.16411523114855e-12,0.999999999996836,0.000268923431940034,0.999999988237305,0.0875836389270906,0.308660824646869,-0.000268923431940034,-0.000247053461709791,0.5,0.918675847350037,0.896403158795487,0.386148855591872,2.08597615248312,0.5,66.9674040374869
CBC_1027,CBC_1027_MSI_AV_v3_Vset5_Aset1_2023-07-21_16h27.29.899.csv,1,44,0,1,z,0,1,2,aud,B,63,1,0B,1B,0,1,z,1.25900320000073,0,1,1,1,1B,0B,B01,2.97892515523761,0.925289320514647,0.000268923431940034,0.0033068089021172,0.5,0.0406620763249813,0.999505881313886,0.0406620763249813,0.0406620763249813,0.0406620763249813,0.5,0.999999999922206,0.0406620763249813,0.5,0.5,2.18699702302431e-05,0.999999988237305,0.999979046587529,2.09534124707932e-05,0.999505881313886,0.0406620763249813,0.618537202231875,0.690707863976914,0.000494118686114486,0.000453934902657713,0.5,0.918675847350037,0.896403158795487,0.386148855591872,2.08597615248312,0.5,66.9674040374869
CBC_1027,CBC_1027_MSI_TV_v3_Vset2_Tset2_2023-07-21_16h36.05.936.csv,2,1,3,1,z,0,1,2,tac,B,27,1,3B,1B,0,1,z,2.00913389999914,0,1,1,1,1B,3B,B31,2.77258872223978,0.5,0.5,0.5,0.5,0.5,0.5,0.5,0.5,0.5,0.5,0.5,0.5,0.5,0.5,0.5,0.5,0.5,0.5,0.5,0.5,0.172738961452215,0.499988197774044,0.5,0.124021006509053,0.5,0.248042013018107,0.658781941638316,0.987507217960339,2.47713833357778,0.5,68.9742509710109
CBC_1027,CBC_1027_MSI_TV_v3_Vset2_Tset2_2023-07-21_16h36.05.936.csv,2,2,2,3,b,1,0,1,tac,C,63,1,2C,3C,1,0,z,2.35133200000018,0,1,0,0,3C,2C,C23,2.83321334405622,0.5,0.5,0.5,0.5,0.5,0.624021006509053,0.5,0.5,0.5,0.5,0.5,0.5,0.5,0.5,0.5,0.5,0.5,0.5,0.5,0.5,0.131254113247982,0.500039486911651,-0.5,-0.124021006509053,0.5,0.248042013018107,0.658781941638316,0.987507217960339,2.47713833357778,0.5,68.9742509710109
CBC_1027,CBC_1027_MSI_TV_v3_Vset2_Tset2_2023-07-21_16h36.05.936.csv,2,3,2,3,z,0,1,3,tac,D,63,1,2D,3D,0,1,z,1.92471239999941,0,1,1,1,3D,2D,D23,2.89037175789616,0.5,0.5,0.5,0.5,0.5,0.624021006509053,0.5,0.5,0.5,0.5,0.5,0.375978993490947,0.5,0.5,0.5,0.5,0.5,0.5,0.5,0.5,0.184791706777885,0.499948386457223,0.5,0.124021006509053,0.5,0.248042013018107,0.658781941638316,0.987507217960339,2.47713833357778,0.5,68.9742509710109
CBC_1027,CBC_1027_MSI_TV_v3_Vset2_Tset2_2023-07-21_16h36.05.936.csv,2,4,1,0,b,1,0,2,tac,B,63,1,1B,0B,1,0,z,2.08881999999903,0,1,0,0,0B,1B,B10,2.94443897916644,0.5,0.5,0.5,0.5,0.5,0.624021006509053,0.5,0.5,0.5,0.5,0.5,0.375978993490947,0.5,0.5,0.5,0.624021006509053,0.375978993490947,0.624021006509053,0.5,0.624021006509053,0.114193115940592,0.351465022678823,-0.5,-0.124021006509053,0.5,0.248042013018107,0.658781941638316,0.987507217960339,2.47713833357778,0.5,68.9742509710109
CBC_1027,CBC_1027_MSI_TV_v3_Vset2_Tset2_2023-07-21_16h36.05.936.csv,2,5,3,0,z,0,1,0,tac,A,9,1,3A,0A,0,1,z,2.4876064,0,1,1,1,0A,3A,A30,2.99573227355399,0.5,0.5,0.5,0.5,0.375978993490947,0.624021006509053,0.5,0.5,0.5,0.5,0.5,0.375978993490947,0.5,0.5,0.5,0.624021006509053,0.5,0.5,0.5,0.5,0.117585366324495,0.499834441216781,0.5,0.124021006509053,0.5,0.248042013018107,0.658781941638316,0.987507217960339,2.47713833357778,0.5,68.9742509710109
CBC_1027,CBC_1027_MSI_TV_v3_Vset2_Tset2_2023-07-21_16h36.05.936.csv,2,6,2,3,z,0,1,3,tac,D,63,1,2D,3D,0,1,b,1.19437369999832,1,0,0,0,2D,3D,D23,2.35137525716348,0.624021006509053,0.5,0.5,0.5,0.375978993490947,0.624021006509053,0.5,0.5,0.5,0.5,0.5,0.375978993490947,0.5,0.5,0.5,0.624021006509053,0.375978993490947,0.624021006509053,0.5,0.624021006509053,0.21842340810723,0.352252629456713,-0.5,-0.124021006509053,0.5,0.248042013018107,0.658781941638316,0.987507217960339,2.47713833357778,0.5,68.9742509710109
CBC_1027,CBC_1027_MSI_TV_v3_Vset2_Tset2_2023-07-21_16h36.05.936.csv,2,7,2,0,b,1,0,1,tac,C,27,1,2C,0C,1,0,b,2.45755070000087,1,0,1,1,2C,0C,C20,3.09104245335832,0.624021006509053,0.5,0.5,0.5,0.375978993490947,0.624021006509053,0.5,0.5,0.5,0.5,0.5,0.375978993490947,0.5,0.5,0.375978993490947,0.624021006509053,0.5,0.5,0.5,0.5,0.120502133672707,0.500002786282365,0.5,0.124021006509053,0.5,0.248042013018107,0.658781941638316,0.987507217960339,2.47713833357778,0.5,68.9742509710109
CBC_1027,CBC_1027_MSI_TV_v3_Vset2_Tset2_2023-07-21_16h36.05.936.csv,2,8,1,0,z,0,1,0,tac,A,63,1,1A,0A,0,1,z,2.56390459999966,0,1,1,1,0A,1A,A10,3.13549421592915,0.624021006509053,0.5,0.5,0.5,0.375978993490947,0.624021006509053,0.5,0.5,0.5,0.5,0.624021006509053,0.375978993490947,0.5,0.5,0.375978993490947,0.624021006509053,0.624021006509053,0.375978993490947,0.624021006509053,0.5,0.141546548091443,0.647388174382276,0.375978993490947,0.0932585863980161,0.5,0.248042013018107,0.658781941638316,0.987507217960339,2.47713833357778,0.5,68.9742509710109
CBC_1027,CBC_1027_MSI_TV_v3_Vset2_Tset2_2023-07-21_16h36.05.936.csv,2,9,0,1,z,0,1,2,tac,B,63,1,0B,1B,0,1,z,2.29913029999989,0,1,1,1,1B,0B,B01,3.17805383034795,0.71727959290707,0.5,0.5,0.5,0.375978993490947,0.624021006509053,0.5,0.5,0.5,0.5,0.624021006509053,0.375978993490947,0.5,0.5,0.375978993490947,0.624021006509053,0.733665764209734,0.266334235790266,0.624021006509053,0.375978993490947,0.203480598836566,0.757925967298642,0.375978993490947,0.0932585863980161,0.5,0.248042013018107,0.658781941638316,0.987507217960339,2.47713833357778,0.5,68.9742509710109
CBC_1027,CBC_1027_MSI_TV_v3_Vset2_Tset2_2023-07-21_16h36.05.936.csv,2,10,3,1,b,1,0,3,tac,D,27,1,3D,1D,1,0,b,1.49538550000034,1,0,1,1,3D,1D,D31,3.2188758248682,0.71727959290707,0.5,0.5,0.5,0.375978993490947,0.71727959290707,0.5,0.5,0.5,0.5,0.624021006509053,0.375978993490947,0.5,0.5,0.375978993490947,0.624021006509053,0.624021006509053,0.375978993490947,0.624021006509053,0.5,0.340353909911842,0.647264704304083,0.375978993490947,0.0932585863980161,0.5,0.248042013018107,0.658781941638316,0.987507217960339,2.47713833357778,0.5,68.9742509710109
CBC_1027,CBC_1027_MSI_TV_v3_Vset2_Tset2_2023-07-21_16h36.05.936.csv,2,11,2,3,b,1,0,1,tac,C,63,1,2C,3C,1,0,b,2.58627850000084,1,0,1,1,2C,3C,C23,2.56494935746154,0.71727959290707,0.5,0.5,0.5,0.375978993490947,0.71727959290707,0.5,0.5,0.5,0.5,0.624021006509053,0.375978993490947,0.5,0.5,0.375978993490947,0.71727959290707,0.733665764209734,0.266334235790266,0.624021006509053,0.375978993490947,0.156721451326792,0.758237896648776,0.375978993490947,0.0932585863980161,0.5,0.248042013018107,0.658781941638316,0.987507217960339,2.47713833357778,0.5,68.9742509710109
CBC_1027,CBC_1027_MSI_TV_v3_Vset2_Tset2_2023-07-21_16h36.05.936.csv,2,12,0,1,z,0,1,2,tac,B,63,1,0B,1B,0,1,z,2.11837000000014,0,1,1,1,1B,0B,B01,2.60268968544438,0.71727959290707,0.5,0.5,0.5,0.375978993490947,0.71727959290707,0.5,0.5,0.5,0.5,0.71727959290707,0.375978993490947,0.5,0.5,0.375978993490947,0.71727959290707,0.808091720871764,0.191908279128236,0.71727959290707,0.375978993490947,0.256639084448755,0.818679012919751,0.28272040709293,0.0701265388966291,0.5,0.248042013018107,0.658781941638316,0.987507217960339,2.47713833357778,0.5,68.9742509710109
CBC_1027,CBC_1027_MSI_TV_v3_Vset2_Tset2_2023-07-21_16h36.05.936.csv,2,13,1,0,z,0,1,0,tac,A,63,1,1A,0A,0,1,z,2.29766480000035,0,1,1,1,0A,1A,A10,2.63905732961526,0.71727959290707,0.5,0.5,0.5,0.375978993490947,0.787406131803699,0.5,0.5,0.5,0.5,0.71727959290707,0.375978993490947,0.5,0.5,0.375978993490947,0.71727959290707,0.71727959290707,0.28272040709293,0.71727959290707,0.5,0.200465297445768,0.743127865913679,0.28272040709293,0.0701265388966291,0.5,0.248042013018107,0.658781941638316,0.987507217960339,2.47713833357778,0.5,68.9742509710109
CBC_1027,CBC_1027_MSI_TV_v3_Vset2_Tset2_2023-07-21_16h36.05.936.csv,2,14,2,1,b,1,0,1,tac,C,9,1,2C,1C,1,0,z,2.91122300000097,0,1,0,0,1C,2C,C21,3.36729582998647,0.787406131803699,0.5,0.5,0.5,0.375978993490947,0.787406131803699,0.5,0.5,0.5,0.5,0.71727959290707,0.375978993490947,0.5,0.5,0.375978993490947,0.71727959290707,0.28272040709293,0.71727959290707,0.5,0.71727959290707,0.0399741137999717,0.256796994171383,-0.5,-0.124021006509053,0.5,0.248042013018107,0.658781941638316,0.987507217960339,2.47713833357778,0.5,68.9742509710109
CBC_1027,CBC_1027_MSI_TV_v3_Vset2_Tset2_2023-07-21_16h36.05.936.csv,2,15,0,1,b,1,0,0,tac,A,63,1,0A,1A,1,0,b,2.34309489999941,1,0,1,1,0A,1A,A01,3.40119738166216,0.787406131803699,0.5,0.5,0.5,0.375978993490947,0.787406131803699,0.5,0.5,0.5,0.375978993490947,0.71727959290707,0.375978993490947,0.5,0.5,0.375978993490947,0.71727959290707,0.787406131803699,0.212593868196301,0.787406131803699,0.5,0.203483690418755,0.803434836032415,0.212593868196301,0.0527322110227167,0.5,0.248042013018107,0.658781941638316,0.987507217960339,2.47713833357778,0.5,68.9742509710109
CBC_1027,CBC_1027_MSI_TV_v3_Vset2_Tset2_2023-07-21_16h36.05.936.csv,2,16,1,3,z,0,1,3,tac,D,27,1,1D,3D,0,1,z,1.78185109999868,0,1,1,1,3D,1D,D13,3.43398720448515,0.840138342826415,0.5,0.5,0.5,0.375978993490947,0.787406131803699,0.5,0.5,0.5,0.375978993490947,0.71727959290707,0.375978993490947,0.5,0.5,0.375978993490947,0.71727959290707,0.71727959290707,0.28272040709293,0.71727959290707,0.5,0.317773907406025,0.743473972094563,0.28272040709293,0.0701265388966291,0.5,0.248042013018107,0.658781941638316,0.987507217960339,2.47713833357778,0.5,68.9742509710109
CBC_1027,CBC_1027_MSI_TV_v3_Vset2_Tset2_2023-07-21_16h36.05.936.csv,2,17,1,0,b,1,0,2,tac,B,63,1,1B,0B,1,0,b,2.78130149999924,1,0,1,1,1B,0B,B10,2.77258872223978,0.840138342826415,0.5,0.5,0.5,0.375978993490947,0.787406131803699,0.5,0.5,0.5,0.375978993490947,0.71727959290707,0.375978993490947,0.5,0.5,0.375978993490947,0.787406131803699,0.860086826105617,0.139913173894383,0.787406131803699,0.375978993490947,0.131058958436695,0.853146472774664,0.212593868196301,0.0527322110227167,0.5,0.248042013018107,0.658781941638316,0.987507217960339,2.47713833357778,0.5,68.9742509710109
CBC_1027,CBC_1027_MSI_TV_v3_Vset2_Tset2_2023-07-21_16h36.05.936.csv,2,18,3,2,z,0,1,1,tac,C,63,0,3C,2C,1,0,z,1.44309129999965,0,1,1,0,2C,3C,C32,3.49650756146648,0.840138342826415,0.5,0.5,0.5,0.375978993490947,0.840138342826415,0.5,0.5,0.5,0.375978993490947,0.71727959290707,0.375978993490947,0.5,0.5,0.375978993490947,0.787406131803699,0.808091720871764,0.191908279128236,0.71727959290707,0.375978993490947,0.491132434451012,0.818769345320832,-0.71727959290707,-0.177915474121478,0.5,0.248042013018107,0.658781941638316,0.987507217960339,2.47713833357778,0.5,68.9742509710109
CBC_1027,CBC_1027_MSI_TV_v3_Vset2_Tset2_2023-07-21_16h36.05.936.csv,2,19,0,2,b,1,0,0,tac,A,27,1,0A,2A,1,0,z,3.38169779999953,0,1,0,0,2A,0A,A02,3.52636052461616,0.840138342826415,0.5,0.5,0.5,0.375978993490947,0.840138342826415,0.5,0.5,0.5,0.375978993490947,0.539364118785592,0.375978993490947,0.5,0.5,0.375978993490947,0.787406131803699,0.159861657173585,0.840138342826415,0.5,0.840138342826415,0.0134460358549797,0.158852757087232,-0.5,-0.124021006509053,0.5,0.248042013018107,0.658781941638316,0.987507217960339,2.47713833357778,0.5,68.9742509710109
CBC_1027,CBC_1027_MSI_TV_v3_Vset2_Tset2_2023-07-21_16h36.05.936.csv,2,20,2,3,z,0,1,3,tac,D,63,1,2D,3D,0,1,z,0.943765699999858,0,1,1,1,3D,2D,D23,2.4567357728213,0.840138342826415,0.5,0.375978993490947,0.5,0.375978993490947,0.840138342826415,0.5,0.5,0.5,0.375978993490947,0.539364118785592,0.375978993490947,0.5,0.5,0.375978993490947,0.787406131803699,0.860086826105617,0.139913173894383,0.787406131803699,0.375978993490947,0.493581892123733,0.853010995676389,0.212593868196301,0.0527322110227167,0.5,0.248042013018107,0.658781941638316,0.987507217960339,2.47713833357778,0.5,68.9742509710109
CBC_1027,CBC_1027_MSI_TV_v3_Vset2_Tset2_2023-07-21_16h36.05.936.csv,2,21,1,3,b,1,0,2,tac,B,27,1,1B,3B,1,0,b,2.10556170000018,1,0,1,1,1B,3B,B13,3.58351893845611,0.840138342826415,0.5,0.375978993490947,0.5,0.375978993490947,0.840138342826415,0.5,0.5,0.5,0.375978993490947,0.539364118785592,0.375978993490947,0.5,0.5,0.375978993490947,0.840138342826415,0.840138342826415,0.159861657173585,0.840138342826415,0.5,0.265092719419534,0.840786691111272,0.159861657173585,0.0396524072497464,0.5,0.248042013018107,0.658781941638316,0.987507217960339,2.47713833357778,0.5,68.9742509710109
CBC_1027,CBC_1027_MSI_TV_v3_Vset2_Tset2_2023-07-21_16h36.05.936.csv,2,22,2,3,b,1,0,1,tac,C,63,1,2C,3C,1,0,b,1.81747330000144,1,0,1,1,2C,3C,C23,2.51230562397611,0.840138342826415,0.5,0.375978993490947,0.5,0.375978993490947,0.879790750076162,0.5,0.5,0.5,0.375978993490947,0.539364118785592,0.375978993490947,0.5,0.5,0.375978993490947,0.840138342826415,0.660255666968397,0.339744333031603,0.539364118785592,0.375978993490947,0.280980852457493,0.686303131035199,0.460635881214408,0.114257051244791,0.5,0.248042013018107,0.658781941638316,0.987507217960339,2.47713833357778,0.5,68.9742509710109
CBC_1027,CBC_1027_MSI_TV_v3_Vset2_Tset2_2023-07-21_16h36.05.936.csv,2,23,1,0,z,0,1,0,tac,A,63,1,1A,0A,0,1,z,2.29386429999977,0,1,1,1,0A,1A,A10,2.53897387105828,0.840138342826415,0.5,0.375978993490947,0.5,0.375978993490947,0.879790750076162,0.5,0.5,0.5,0.375978993490947,0.653621170030383,0.375978993490947,0.5,0.5,0.375978993490947,0.840138342826415,0.840138342826415,0.159861657173585,0.840138342826415,0.5,0.218403131024209,0.840777327421455,0.159861657173585,0.0396524072497464,0.5,0.248042013018107,0.658781941638316,0.987507217960339,2.47713833357778,0.5,68.9742509710109
CBC_1027,CBC_1027_MSI_TV_v3_Vset2_Tset2_2023-07-21_16h36.05.936.csv,2,24,1,2,b,1,0,2,tac,B,9,1,1B,2B,1,0,b,1.92397549999987,1,0,1,1,1B,2B,B12,3.66356164612965,0.879790750076162,0.5,0.375978993490947,0.5,0.375978993490947,0.879790750076162,0.5,0.5,0.5,0.375978993490947,0.653621170030383,0.375978993490947,0.5,0.5,0.375978993490947,0.840138342826415,0.879790750076162,0.120209249923838,0.879790750076162,0.5,0.327951804946135,0.864901410551632,0.120209249923838,0.0298169443345056,0.5,0.248042013018107,0.658781941638316,0.987507217960339,2.47713833357778,0.5,68.9742509710109
CBC_1027,CBC_1027_MSI_TV_v3_Vset2_Tset2_2023-07-21_16h36.05.936.csv,2,25,3,2,z,0,1,1,tac,C,63,1,3C,2C,0,1,z,2.35015120000025,0,1,1,1,2C,3C,C32,2.99573227355399,0.879790750076162,0.5,0.375978993490947,0.5,0.375978993490947,0.909607694410667,0.5,0.5,0.5,0.375978993490947,0.653621170030383,0.375978993490947,0.5,0.5,0.375978993490947,0.840138342826415,0.757981650723253,0.242018349276747,0.653621170030383,0.375978993490947,0.198363527908358,0.78004080258462,0.346378829969617,0.0859165022525203,0.5,0.248042013018107,0.658781941638316,0.987507217960339,2.47713833357778,0.5,68.9742509710109
CBC_1027,CBC_1027_MSI_TV_v3_Vset2_Tset2_2023-07-21_16h36.05.936.csv,2,26,3,2,b,1,0,3,tac,D,63,1,3D,2D,1,0,b,0.93083359999946,1,0,1,1,3D,2D,D32,3.71357206670431,0.879790750076162,0.5,0.375978993490947,0.5,0.375978993490947,0.909607694410667,0.5,0.5,0.5,0.375978993490947,0.739537672282903,0.375978993490947,0.5,0.5,0.375978993490947,0.840138342826415,0.897146039266822,0.102853960733178,0.840138342826415,0.375978993490947,0.505302454700056,0.875036755937022,0.159861657173585,0.0396524072497464,0.5,0.248042013018107,0.658781941638316,0.987507217960339,2.47713833357778,0.5,68.9742509710109
CBC_1027,CBC_1027_MSI_TV_v3_Vset2_Tset2_2023-07-21_16h36.05.936.csv,2,27,1,0,b,1,0,2,tac,B,63,1,1B,0B,1,0,z,1.71299759999965,0,1,0,0,0B,1B,B10,2.63905732961526,0.879790750076162,0.5,0.375978993490947,0.5,0.375978993490947,0.909607694410667,0.5,0.5,0.5,0.375978993490947,0.739537672282903,0.375978993490947,0.5,0.5,0.375978993490947,0.879790750076162,0.0564920424862475,0.943507957513752,0.375978993490947,0.909607694410667,0.0495333196840372,0.103014408858405,-0.375978993490947,-0.0932585863980161,0.5,0.248042013018107,0.658781941638316,0.987507217960339,2.47713833357778,0.5,68.9742509710109
CBC_1027,CBC_1027_MSI_TV_v3_Vset2_Tset2_2023-07-21_16h36.05.936.csv,2,28,2,0,z,0,1,0,tac,A,27,1,2A,0A,0,1,z,2.80807629999981,0,1,1,1,0A,2A,A20,3.76120011569356,0.879790750076162,0.5,0.375978993490947,0.5,0.282720407092931,0.909607694410667,0.5,0.5,0.5,0.375978993490947,0.739537672282903,0.375978993490947,0.5,0.5,0.375978993490947,0.879790750076162,0.923938330833238,0.0760616691667617,0.879790750076162,0.375978993490947,0.120548470631051,0.888964917710513,0.120209249923838,0.0298169443345056,0.5,0.248042013018107,0.658781941638316,0.987507217960339,2.47713833357778,0.5,68.9742509710109
CBC_1027,CBC_1027_MSI_TV_v3_Vset2_Tset2_2023-07-21_16h36.05.936.csv,2,29,3,1,b,1,0,3,tac,D,27,1,3D,1D,1,0,b,1.05690529999993,1,0,1,1,3D,1D,D31,3.09104245335832,0.909607694410667,0.5,0.375978993490947,0.5,0.282720407092931,0.909607694410667,0.5,0.5,0.5,0.375978993490947,0.739537672282903,0.375978993490947,0.5,0.5,0.375978993490947,0.879790750076162,0.879790750076162,0.120209249923838,0.879790750076162,0.5,0.648769257086701,0.865189679083084,0.120209249923838,0.0298169443345056,0.5,0.248042013018107,0.658781941638316,0.987507217960339,2.47713833357778,0.5,68.9742509710109
CBC_1027,CBC_1027_MSI_TV_v3_Vset2_Tset2_2023-07-21_16h36.05.936.csv,2,30,0,1,b,1,0,0,tac,A,63,1,0A,1A,1,0,b,1.91738470000018,1,0,1,1,0A,1A,A01,3.11351530921037,0.909607694410667,0.5,0.375978993490947,0.5,0.282720407092931,0.909607694410667,0.5,0.5,0.5,0.375978993490947,0.739537672282903,0.375978993490947,0.5,0.5,0.375978993490947,0.909607694410667,0.909607694410667,0.0903923055893328,0.909607694410667,0.5,0.33548913028483,0.881534736308396,0.0903923055893328,0.022421089439726,0.5,0.248042013018107,0.658781941638316,0.987507217960339,2.47713833357778,0.5,68.9742509710109
CBC_1027,CBC_1027_MSI_TV_v3_Vset2_Tset2_2023-07-21_16h36.05.936.csv,2,31,0,2,z,0,1,1,tac,C,27,1,0C,2C,0,1,z,3.1428274000009,0,1,1,1,2C,0C,C02,3.8286413964891,0.932028783850393,0.5,0.375978993490947,0.5,0.282720407092931,0.909607694410667,0.5,0.5,0.5,0.375978993490947,0.739537672282903,0.375978993490947,0.5,0.5,0.375978993490947,0.909607694410667,0.739537672282903,0.260462327717097,0.739537672282903,0.5,0.0944908713700677,0.76312221325074,0.260462327717097,0.0646056000823305,0.5,0.248042013018107,0.658781941638316,0.987507217960339,2.47713833357778,0.5,68.9742509710109
CBC_1027,CBC_1027_MSI_TV_v3_Vset2_Tset2_2023-07-21_16h36.05.936.csv,2,32,3,2,b,1,0,3,tac,D,63,1,3D,2D,1,0,b,1.15712560000065,1,0,1,1,3D,2D,D32,3.15700042115011,0.932028783850393,0.5,0.375978993490947,0.5,0.282720407092931,0.909607694410667,0.5,0.5,0.5,0.375978993490947,0.804143272365234,0.375978993490947,0.5,0.5,0.375978993490947,0.909607694410667,0.943507957513752,0.0564920424862475,0.909607694410667,0.375978993490947,0.736528057450141,0.897481688784691,0.0903923055893328,0.022421089439726,0.5,0.248042013018107,0.658781941638316,0.987507217960339,2.47713833357778,0.5,68.9742509710109
CBC_1027,CBC_1027_MSI_TV_v3_Vset2_Tset2_2023-07-21_16h36.05.936.csv,2,33,0,1,z,0,1,2,tac,B,63,1,0B,1B,0,1,z,2.25980659999914,0,1,1,1,1B,0B,B01,2.77258872223978,0.932028783850393,0.5,0.375978993490947,0.5,0.282720407092931,0.909607694410667,0.5,0.5,0.5,0.375978993490947,0.804143272365234,0.375978993490947,0.5,0.5,0.375978993490947,0.932028783850393,0.962307086745636,0.0376929132543643,0.909607694410667,0.282720407092931,0.224557475543433,0.905664591843885,0.0903923055893328,0.022421089439726,0.5,0.248042013018107,0.658781941638316,0.987507217960339,2.47713833357778,0.5,68.9742509710109
CBC_1027,CBC_1027_MSI_TV_v3_Vset2_Tset2_2023-07-21_16h36.05.936.csv,2,34,1,0,z,0,1,0,tac,A,63,1,1A,0A,0,1,z,4.4611189999996,0,1,1,1,0A,1A,A10,2.50552593699074,0.932028783850393,0.5,0.375978993490947,0.5,0.282720407092931,0.932028783850393,0.5,0.5,0.5,0.375978993490947,0.804143272365234,0.375978993490947,0.5,0.5,0.375978993490947,0.932028783850393,0.932028783850393,0.0679712161496068,0.932028783850393,0.5,0.0173536051059169,0.892135627051838,0.0679712161496068,0.0168597172810373,0.5,0.248042013018107,0.658781941638316,0.987507217960339,2.47713833357778,0.5,68.9742509710109
CBC_1027,CBC_1027_MSI_TV_v3_Vset2_Tset2_2023-07-21_16h36.05.936.csv,2,35,3,2,b,1,0,3,tac,D,63,0,3D,2D,0,1,b,0.853427599999122,1,0,1,0,3D,2D,D32,2.81341071676004,0.948888501131431,0.5,0.375978993490947,0.5,0.282720407092931,0.932028783850393,0.5,0.5,0.5,0.375978993490947,0.804143272365234,0.375978993490947,0.5,0.5,0.375978993490947,0.932028783850393,0.957909455217776,0.0420905447822241,0.932028783850393,0.375978993490947,0.316958827474018,0.904057639456742,-0.932028783850393,-0.231182295737069,0.5,0.248042013018107,0.658781941638316,0.987507217960339,2.47713833357778,0.5,68.9742509710109
CBC_1027,CBC_1027_MSI_TV_v3_Vset2_Tset2_2023-07-21_16h36.05.936.csv,2,36,0,2,z,0,1,1,tac,C,27,1,0C,2C,0,1,z,1.53691359999902,0,1,1,1,2C,0C,C02,3.23867845216438,0.948888501131431,0.5,0.375978993490947,0.5,0.282720407092931,0.932028783850393,0.5,0.5,0.5,0.375978993490947,0.804143272365234,0.375978993490947,0.5,0.5,0.375978993490947,0.700846488113324,0.804143272365234,0.195856727634766,0.804143272365234,0.5,0.448821658450327,0.815564235498728,0.195856727634766,0.0485806969856664,0.5,0.248042013018107,0.658781941638316,0.987507217960339,2.47713833357778,0.5,68.9742509710109
CBC_1027,CBC_1027_MSI_TV_v3_Vset2_Tset2_2023-07-21_16h36.05.936.csv,2,37,1,0,z,0,1,0,tac,A,63,1,1A,0A,0,1,z,0.882762200000798,0,1,1,1,0A,1A,A10,2.34180580614733,0.948888501131431,0.5,0.375978993490947,0.5,0.282720407092931,0.932028783850393,0.5,0.5,0.5,0.375978993490947,0.8527239693509,0.375978993490947,0.5,0.5,0.375978993490947,0.700846488113324,0.948888501131431,0.0511114988685695,0.948888501131431,0.5,0.417151958640258,0.90008740104716,0.0511114988685695,0.0126777990677327,0.5,0.248042013018107,0.658781941638316,0.987507217960339,2.47713833357778,0.5,68.9742509710109
CBC_1027,CBC_1027_MSI_TV_v3_Vset2_Tset2_2023-07-21_16h36.05.936.csv,2,38,3,1,z,0,1,2,tac,B,27,1,3B,1B,0,1,b,3.2334721999996,1,0,0,0,3B,1B,B31,3.27714473299218,0.961566300199163,0.5,0.375978993490947,0.5,0.282720407092931,0.932028783850393,0.5,0.5,0.5,0.375978993490947,0.8527239693509,0.375978993490947,0.5,0.5,0.375978993490947,0.700846488113324,0.0679712161496068,0.932028783850393,0.5,0.932028783850393,0.0087841819122357,0.107732276284798,-0.5,-0.124021006509053,0.5,0.248042013018107,0.658781941638316,0.987507217960339,2.47713833357778,0.5,68.9742509710109
CBC_1027,CBC_1027_MSI_TV_v3_Vset2_Tset2_2023-07-21_16h36.05.936.csv,2,39,2,3,b,1,0,1,tac,C,63,1,2C,3C,1,0,b,1.67772469999909,1,0,1,1,2C,3C,C23,2.60268968544438,0.961566300199163,0.5,0.375978993490947,0.5,0.282720407092931,0.932028783850393,0.5,0.375978993490947,0.5,0.375978993490947,0.8527239693509,0.375978993490947,0.5,0.5,0.375978993490947,0.700846488113324,0.905747060345701,0.0942529396542995,0.8527239693509,0.375978993490947,0.437416735446364,0.879820259507324,0.1472760306491,0.036530643111519,0.5,0.248042013018107,0.658781941638316,0.987507217960339,2.47713833357778,0.5,68.9742509710109
CBC_1027,CBC_1027_MSI_TV_v3_Vset2_Tset2_2023-07-21_16h36.05.936.csv,2,40,2,3,z,0,1,3,tac,D,63,1,2D,3D,0,1,z,1.51670359999844,0,1,1,1,3D,2D,D23,2.62103882411258,0.961566300199163,0.5,0.375978993490947,0.5,0.282720407092931,0.932028783850393,0.5,0.375978993490947,0.5,0.375978993490947,0.889254612462419,0.375978993490947,0.5,0.5,0.375978993490947,0.700846488113324,0.79543164978775,0.20456835021225,0.700846488113324,0.375978993490947,0.452297177807491,0.810042088300465,0.299153511886676,0.0742026392898073,0.5,0.248042013018107,0.658781941638316,0.987507217960339,2.47713833357778,0.5,68.9742509710109
CBC_1027,CBC_1027_MSI_TV_v3_Vset2_Tset2_2023-07-21_16h36.05.936.csv,2,41,1,0,b,1,0,2,tac,B,63,1,1B,0B,1,0,b,2.12572010000076,1,0,1,1,1B,0B,B10,2.63905732961526,0.961566300199163,0.5,0.375978993490947,0.5,0.282720407092931,0.932028783850393,0.5,0.375978993490947,0.5,0.375978993490947,0.889254612462419,0.375978993490947,0.5,0.5,0.375978993490947,0.775049127403131,0.972058057002145,0.0279419429978549,0.932028783850393,0.282720407092931,0.263868703871035,0.909749581278681,0.0679712161496068,0.0168597172810373,0.5,0.248042013018107,0.658781941638316,0.987507217960339,2.47713833357778,0.5,68.9742509710109
CBC_1027,CBC_1027_MSI_TV_v3_Vset2_Tset2_2023-07-21_16h36.05.936.csv,2,42,0,2,b,1,0,0,tac,A,27,1,0A,2A,1,0,z,1.13420629999928,0,1,0,0,2A,0A,A02,3.3499040872746,0.961566300199163,0.5,0.375978993490947,0.5,0.282720407092931,0.948888501131431,0.5,0.375978993490947,0.5,0.375978993490947,0.889254612462419,0.375978993490947,0.5,0.5,0.375978993490947,0.775049127403131,0.0235159476917227,0.976484052308277,0.375978993490947,0.961566300199163,0.0757753290401413,0.088472806147728,-0.375978993490947,-0.0932585863980161,0.5,0.248042013018107,0.658781941638316,0.987507217960339,2.47713833357778,0.5,68.9742509710109
CBC_1027,CBC_1027_MSI_TV_v3_Vset2_Tset2_2023-07-21_16h36.05.936.csv,2,43,0,3,z,0,1,3,tac,D,9,1,0D,3D,0,1,z,1.04342309999993,0,1,1,1,3D,0D,D03,4.06044301054642,0.961566300199163,0.5,0.282720407092931,0.5,0.282720407092931,0.948888501131431,0.5,0.375978993490947,0.5,0.375978993490947,0.889254612462419,0.375978993490947,0.5,0.5,0.375978993490947,0.775049127403131,0.775049127403131,0.224950872596869,0.775049127403131,0.5,0.521938145466245,0.793288707728507,0.224950872596869,0.0557972672691071,0.5,0.248042013018107,0.658781941638316,0.987507217960339,2.47713833357778,0.5,68.9742509710109
CBC_1027,CBC_1027_MSI_TV_v3_Vset2_Tset2_2023-07-21_16h36.05.936.csv,2,44,2,3,b,1,0,1,tac,C,63,1,2C,3C,1,0,b,1.08015499999965,1,0,1,1,2C,3C,C23,2.46809953147162,0.961566300199163,0.5,0.282720407092931,0.5,0.282720407092931,0.948888501131431,0.5,0.375978993490947,0.5,0.375978993490947,0.889254612462419,0.375978993490947,0.5,0.5,0.375978993490947,0.830846394672238,0.930202271716614,0.0697977282833856,0.889254612462419,0.375978993490947,0.719785013007197,0.891324912761263,0.110745387537581,0.0274695088572918,0.5,0.248042013018107,0.658781941638316,0.987507217960339,2.47713833357778,0.5,68.9742509710109
CBC_1027,CBC_1027_MSI_AV_v3_Vset6_Aset2_2023-07-21_17h56.54.977.csv,3,1,1,0,b,1,0,2,aud,B,63,1,1B,0B,1,0,z,1.22603029999664,0,1,0,0,0B,1B,B10,2.77258872223978,0.5,0.5,0.5,0.5,0.5,0.5,0.5,0.5,0.5,0.5,0.5,0.5,0.5,0.5,0.5,0.5,0.5,0.5,0.5,0.5,0.320395538116043,0.499653203534155,-0.5,-0.0265610285745645,0.5,0.0531220571491291,0.650285494192949,3.38824097111302,2.36467976822663,0.5,62.2981574843507
CBC_1027,CBC_1027_MSI_AV_v3_Vset6_Aset2_2023-07-21_17h56.54.977.csv,3,2,1,0,z,0,1,0,aud,A,63,1,1A,0A,0,1,z,1.23057979999794,0,1,1,1,0A,1A,A10,2.83321334405622,0.5,0.5,0.5,0.5,0.473438971425435,0.5,0.5,0.5,0.5,0.5,0.5,0.5,0.5,0.5,0.5,0.5,0.5,0.5,0.5,0.5,0.319777558975409,0.499839243033561,0.5,0.0265610285745645,0.5,0.0531220571491291,0.650285494192949,3.38824097111302,2.36467976822663,0.5,62.2981574843507
CBC_1027,CBC_1027_MSI_AV_v3_Vset6_Aset2_2023-07-21_17h56.54.977.csv,3,3,3,2,b,1,0,3,aud,D,63,1,3D,2D,1,0,z,2.45798830000058,0,1,0,0,2D,3D,D32,2.89037175789616,0.526561028574565,0.5,0.5,0.5,0.473438971425435,0.5,0.5,0.5,0.5,0.5,0.5,0.5,0.5,0.5,0.5,0.5,0.5,0.5,0.5,0.5,0.11402581740135,0.500284773931771,-0.5,-0.0265610285745645,0.5,0.0531220571491291,0.650285494192949,3.38824097111302,2.36467976822663,0.5,62.2981574843507
CBC_1027,CBC_1027_MSI_AV_v3_Vset6_Aset2_2023-07-21_17h56.54.977.csv,3,4,1,2,b,1,0,2,aud,B,9,1,1B,2B,1,0,b,1.80080199999793,1,0,1,1,1B,2B,B12,2.94443897916644,0.526561028574565,0.5,0.5,0.5,0.473438971425435,0.5,0.5,0.5,0.5,0.5,0.5,0.5,0.5,0.5,0.473438971425435,0.5,0.5,0.5,0.5,0.5,0.202951416244695,0.499006898540252,0.5,0.0265610285745645,0.5,0.0531220571491291,0.650285494192949,3.38824097111302,2.36467976822663,0.5,62.2981574843507
CBC_1027,CBC_1027_MSI_AV_v3_Vset6_Aset2_2023-07-21_17h56.54.977.csv,3,5,2,0,z,0,1,0,aud,A,27,1,2A,0A,0,1,z,2.45484959999521,0,1,1,1,0A,2A,A20,2.99573227355399,0.526561028574565,0.5,0.5,0.5,0.473438971425435,0.526561028574565,0.5,0.5,0.5,0.5,0.5,0.5,0.5,0.5,0.473438971425435,0.5,0.526561028574565,0.473438971425435,0.526561028574565,0.5,0.137551965341984,0.606013859669163,0.473438971425435,0.0251500520966869,0.5,0.0531220571491291,0.650285494192949,3.38824097111302,2.36467976822663,0.5,62.2981574843507
CBC_1027,CBC_1027_MSI_AV_v3_Vset6_Aset2_2023-07-21_17h56.54.977.csv,3,6,3,2,z,0,1,1,aud,C,63,1,3C,2C,0,1,b,2.2766644000003,1,0,0,0,3C,2C,C32,3.04452243772342,0.551711080671251,0.5,0.5,0.5,0.473438971425435,0.526561028574565,0.5,0.5,0.5,0.5,0.5,0.5,0.5,0.5,0.473438971425435,0.5,0.5,0.5,0.5,0.5,0.133926359078095,0.50071795215424,-0.5,-0.0265610285745645,0.5,0.0531220571491291,0.650285494192949,3.38824097111302,2.36467976822663,0.5,62.2981574843507
CBC_1027,CBC_1027_MSI_AV_v3_Vset6_Aset2_2023-07-21_17h56.54.977.csv,3,7,3,1,b,1,0,3,aud,D,27,1,3D,1D,1,0,b,2.53893879999669,1,0,1,1,3D,1D,D31,3.09104245335832,0.551711080671251,0.5,0.5,0.5,0.473438971425435,0.526561028574565,0.5,0.5,0.5,0.5,0.5,0.473438971425435,0.5,0.5,0.473438971425435,0.5,0.5,0.5,0.5,0.5,0.105997723707225,0.499499760687097,0.5,0.0265610285745645,0.5,0.0531220571491291,0.650285494192949,3.38824097111302,2.36467976822663,0.5,62.2981574843507
CBC_1027,CBC_1027_MSI_AV_v3_Vset6_Aset2_2023-07-21_17h56.54.977.csv,3,8,0,1,b,1,0,0,aud,A,63,1,0A,1A,1,0,z,1.69109689999823,0,1,0,0,1A,0A,A01,3.13549421592915,0.551711080671251,0.5,0.5,0.5,0.473438971425435,0.526561028574565,0.5,0.5,0.5,0.5,0.5,0.473438971425435,0.5,0.5,0.473438971425435,0.526561028574565,0.448288919328749,0.551711080671251,0.5,0.551711080671251,0.138760481940066,0.304011756285942,-0.5,-0.0265610285745645,0.5,0.0531220571491291,0.650285494192949,3.38824097111302,2.36467976822663,0.5,62.2981574843507
CBC_1027,CBC_1027_MSI_AV_v3_Vset6_Aset2_2023-07-21_17h56.54.977.csv,3,9,0,2,z,0,1,1,aud,C,27,1,0C,2C,0,1,z,3.74649379999755,0,1,1,1,2C,0C,C02,3.17805383034795,0.551711080671251,0.473438971425435,0.5,0.5,0.473438971425435,0.526561028574565,0.5,0.5,0.5,0.5,0.5,0.473438971425435,0.5,0.5,0.473438971425435,0.526561028574565,0.5,0.5,0.5,0.5,0.0365862327547709,0.500471044847527,0.5,0.0265610285745645,0.5,0.0531220571491291,0.650285494192949,3.38824097111302,2.36467976822663,0.5,62.2981574843507
CBC_1027,CBC_1027_MSI_AV_v3_Vset6_Aset2_2023-07-21_17h56.54.977.csv,3,10,3,2,b,1,0,3,aud,D,63,1,3D,2D,1,0,z,1.91761699999552,0,1,0,0,2D,3D,D32,2.52572864430826,0.551711080671251,0.473438971425435,0.5,0.5,0.473438971425435,0.526561028574565,0.5,0.5,0.5,0.5,0.526561028574565,0.473438971425435,0.5,0.5,0.473438971425435,0.526561028574565,0.447027428954307,0.552972571045693,0.473438971425435,0.526561028574565,0.110727609387817,0.299913479809619,-0.473438971425435,-0.0251500520966869,0.5,0.0531220571491291,0.650285494192949,3.38824097111302,2.36467976822663,0.5,62.2981574843507
CBC_1027,CBC_1027_MSI_AV_v3_Vset6_Aset2_2023-07-21_17h56.54.977.csv,3,11,0,1,z,0,1,2,aud,B,63,1,0B,1B,0,1,z,2.100308699999,0,1,1,1,1B,0B,B01,3.25809653802148,0.551711080671251,0.473438971425435,0.5,0.5,0.473438971425435,0.526561028574565,0.5,0.5,0.5,0.5,0.526561028574565,0.473438971425435,0.5,0.5,0.448288919328749,0.526561028574565,0.552972571045693,0.447027428954307,0.526561028574565,0.473438971425435,0.217479544893781,0.700092032076407,0.473438971425435,0.0251500520966869,0.5,0.0531220571491291,0.650285494192949,3.38824097111302,2.36467976822663,0.5,62.2981574843507
CBC_1027,CBC_1027_MSI_AV_v3_Vset6_Aset2_2023-07-21_17h56.54.977.csv,3,12,1,0,z,0,1,0,aud,A,63,1,1A,0A,0,1,z,2.31831210000018,0,1,1,1,0A,1A,A10,2.60268968544438,0.551711080671251,0.473438971425435,0.5,0.5,0.473438971425435,0.551711080671251,0.5,0.5,0.5,0.5,0.526561028574565,0.473438971425435,0.5,0.5,0.448288919328749,0.526561028574565,0.577844432094278,0.422155567905722,0.551711080671251,0.473438971425435,0.190686312053229,0.776717465160055,0.448288919328749,0.0238140295919031,0.5,0.0531220571491291,0.650285494192949,3.38824097111302,2.36467976822663,0.5,62.2981574843507
CBC_1027,CBC_1027_MSI_AV_v3_Vset6_Aset2_2023-07-21_17h56.54.977.csv,3,13,3,2,b,1,0,3,aud,D,63,1,3D,2D,1,0,z,1.13531420000072,0,1,0,0,2D,3D,D32,2.23359222150709,0.575525110263155,0.473438971425435,0.5,0.5,0.473438971425435,0.551711080671251,0.5,0.5,0.5,0.5,0.526561028574565,0.473438971425435,0.5,0.5,0.448288919328749,0.526561028574565,0.422155567905722,0.577844432094278,0.448288919328749,0.526561028574565,0.165614214768377,0.223241575939179,-0.448288919328749,-0.0238140295919031,0.5,0.0531220571491291,0.650285494192949,3.38824097111302,2.36467976822663,0.5,62.2981574843507
CBC_1027,CBC_1027_MSI_AV_v3_Vset6_Aset2_2023-07-21_17h56.54.977.csv,3,14,0,2,z,0,1,1,aud,C,27,1,0C,2C,0,1,b,1.79521269999896,1,0,0,0,0C,2C,C02,2.67414864942653,0.575525110263155,0.473438971425435,0.5,0.5,0.473438971425435,0.551711080671251,0.5,0.5,0.5,0.5,0.526561028574565,0.473438971425435,0.5,0.5,0.424474889736845,0.526561028574565,0.473438971425435,0.526561028574565,0.5,0.526561028574565,0.161890868778533,0.394532899111269,-0.5,-0.0265610285745645,0.5,0.0531220571491291,0.650285494192949,3.38824097111302,2.36467976822663,0.5,62.2981574843507
CBC_1027,CBC_1027_MSI_AV_v3_Vset6_Aset2_2023-07-21_17h56.54.977.csv,3,15,1,0,z,0,1,0,aud,A,63,1,1A,0A,0,1,z,1.59153329999754,0,1,1,1,0A,1A,A10,2.30258509299405,0.575525110263155,0.473438971425435,0.5,0.5,0.473438971425435,0.551711080671251,0.5,0.5,0.473438971425435,0.5,0.526561028574565,0.473438971425435,0.5,0.5,0.424474889736845,0.526561028574565,0.601273510221609,0.398726489778391,0.575525110263155,0.473438971425435,0.439904658627129,0.835291665060686,0.424474889736845,0.022548979350971,0.5,0.0531220571491291,0.650285494192949,3.38824097111302,2.36467976822663,0.5,62.2981574843507
CBC_1027,CBC_1027_MSI_AV_v3_Vset6_Aset2_2023-07-21_17h56.54.977.csv,3,16,3,1,z,0,1,2,aud,B,27,1,3B,1B,0,1,z,2.32547079999858,0,1,1,1,1B,3B,B31,3.43398720448515,0.598074089614126,0.473438971425435,0.5,0.5,0.473438971425435,0.551711080671251,0.5,0.5,0.473438971425435,0.5,0.526561028574565,0.473438971425435,0.5,0.5,0.424474889736845,0.526561028574565,0.551711080671251,0.448288919328749,0.551711080671251,0.5,0.174953364969473,0.696287079867049,0.448288919328749,0.0238140295919031,0.5,0.0531220571491291,0.650285494192949,3.38824097111302,2.36467976822663,0.5,62.2981574843507
CBC_1027,CBC_1027_MSI_AV_v3_Vset6_Aset2_2023-07-21_17h56.54.977.csv,3,17,2,3,b,1,0,1,aud,C,63,1,2C,3C,1,0,b,1.5624071999955,1,0,1,1,2C,3C,C23,3.46573590279973,0.598074089614126,0.473438971425435,0.5,0.5,0.473438971425435,0.575525110263155,0.5,0.5,0.473438971425435,0.5,0.526561028574565,0.473438971425435,0.5,0.5,0.424474889736845,0.526561028574565,0.552972571045693,0.447027428954307,0.526561028574565,0.473438971425435,0.360339635349129,0.700301790248531,0.473438971425435,0.0251500520966869,0.5,0.0531220571491291,0.650285494192949,3.38824097111302,2.36467976822663,0.5,62.2981574843507
CBC_1027,CBC_1027_MSI_AV_v3_Vset6_Aset2_2023-07-21_17h56.54.977.csv,3,18,3,2,b,1,0,3,aud,D,63,0,3D,2D,0,1,b,1.34913479999886,1,0,1,0,3D,2D,D32,2.11021320034659,0.598074089614126,0.473438971425435,0.5,0.5,0.473438971425435,0.575525110263155,0.5,0.5,0.473438971425435,0.5,0.551711080671251,0.473438971425435,0.5,0.5,0.424474889736845,0.526561028574565,0.601273510221609,0.398726489778391,0.526561028574565,0.424474889736845,0.566247566628565,0.834983531066877,-0.526561028574565,-0.0279720050524422,0.5,0.0531220571491291,0.650285494192949,3.38824097111302,2.36467976822663,0.5,62.2981574843507
CBC_1027,CBC_1027_MSI_AV_v3_Vset6_Aset2_2023-07-21_17h56.54.977.csv,3,19,0,1,z,0,1,2,aud,B,63,1,0B,1B,0,1,z,3.097663499997,0,1,1,1,1B,0B,B01,2.83321334405622,0.598074089614126,0.473438971425435,0.5,0.5,0.473438971425435,0.575525110263155,0.5,0.5,0.473438971425435,0.5,0.551711080671251,0.473438971425435,0.5,0.5,0.424474889736845,0.498589023522122,0.601273510221609,0.398726489778391,0.575525110263155,0.473438971425435,0.0819674412917174,0.835249487648796,0.424474889736845,0.022548979350971,0.5,0.0531220571491291,0.650285494192949,3.38824097111302,2.36467976822663,0.5,62.2981574843507
CBC_1027,CBC_1027_MSI_AV_v3_Vset6_Aset2_2023-07-21_17h56.54.977.csv,3,20,0,2,b,1,0,0,aud,A,27,1,0A,2A,1,0,b,1.48560359999829,1,0,1,1,0A,2A,A02,3.55534806148941,0.598074089614126,0.473438971425435,0.5,0.5,0.473438971425435,0.598074089614126,0.5,0.5,0.473438971425435,0.5,0.551711080671251,0.473438971425435,0.5,0.5,0.424474889736845,0.498589023522122,0.598074089614126,0.401925910385874,0.598074089614126,0.5,0.486152088513469,0.827724573020793,0.401925910385874,0.0213511311812342,0.5,0.0531220571491291,0.650285494192949,3.38824097111302,2.36467976822663,0.5,62.2981574843507
CBC_1027,CBC_1027_MSI_AV_v3_Vset6_Aset2_2023-07-21_17h56.54.977.csv,3,21,3,0,b,1,0,3,aud,D,9,1,3D,0D,1,0,b,1.47691279999708,1,0,1,1,3D,0D,D30,3.58351893845611,0.61942522079536,0.473438971425435,0.5,0.5,0.473438971425435,0.598074089614126,0.5,0.5,0.473438971425435,0.5,0.551711080671251,0.473438971425435,0.5,0.5,0.424474889736845,0.498589023522122,0.498589023522122,0.501410976477878,0.498589023522122,0.5,0.265215955190722,0.493852326523887,0.501410976477878,0.0266359825476584,0.5,0.0531220571491291,0.650285494192949,3.38824097111302,2.36467976822663,0.5,62.2981574843507
CBC_1027,CBC_1027_MSI_AV_v3_Vset6_Aset2_2023-07-21_17h56.54.977.csv,3,22,3,2,z,0,1,1,aud,C,63,1,3C,2C,0,1,z,1.3074069999966,0,1,1,1,2C,3C,C32,2.91777073208428,0.61942522079536,0.473438971425435,0.5,0.5,0.473438971425435,0.598074089614126,0.5,0.5,0.473438971425435,0.5,0.551711080671251,0.473438971425435,0.5,0.5,0.424474889736845,0.525225006069781,0.577844432094278,0.422155567905722,0.551711080671251,0.473438971425435,0.51944122430415,0.776172587211547,0.448288919328749,0.0238140295919031,0.5,0.0531220571491291,0.650285494192949,3.38824097111302,2.36467976822663,0.5,62.2981574843507
CBC_1027,CBC_1027_MSI_AV_v3_Vset6_Aset2_2023-07-21_17h56.54.977.csv,3,23,1,3,b,1,0,2,aud,B,27,1,1B,3B,1,0,z,2.2560341999997,0,1,0,0,3B,1B,B13,3.63758615972639,0.61942522079536,0.473438971425435,0.5,0.5,0.473438971425435,0.598074089614126,0.5,0.5,0.473438971425435,0.5,0.575525110263155,0.473438971425435,0.5,0.5,0.424474889736845,0.525225006069781,0.401925910385874,0.598074089614126,0.5,0.598074089614126,0.0434120413398503,0.171557782196434,-0.5,-0.0265610285745645,0.5,0.0531220571491291,0.650285494192949,3.38824097111302,2.36467976822663,0.5,62.2981574843507
CBC_1027,CBC_1027_MSI_AV_v3_Vset6_Aset2_2023-07-21_17h56.54.977.csv,3,24,2,3,b,1,0,1,aud,C,63,1,2C,3C,1,0,b,0.882735799998045,1,0,1,1,2C,3C,C23,2.9704144655697,0.61942522079536,0.473438971425435,0.5,0.5,0.473438971425435,0.598074089614126,0.5,0.473438971425435,0.473438971425435,0.5,0.575525110263155,0.473438971425435,0.5,0.5,0.424474889736845,0.525225006069781,0.601273510221609,0.398726489778391,0.575525110263155,0.473438971425435,0.443790852107894,0.83540332967628,0.424474889736845,0.022548979350971,0.5,0.0531220571491291,0.650285494192949,3.38824097111302,2.36467976822663,0.5,62.2981574843507
CBC_1027,CBC_1027_MSI_AV_v3_Vset6_Aset2_2023-07-21_17h56.54.977.csv,3,25,3,2,b,1,0,3,aud,D,63,1,3D,2D,1,0,z,2.3183317999974,0,1,0,0,2D,3D,D32,2.07944154167984,0.61942522079536,0.473438971425435,0.5,0.5,0.473438971425435,0.598074089614126,0.5,0.473438971425435,0.473438971425435,0.5,0.598074089614126,0.473438971425435,0.5,0.5,0.424474889736845,0.525225006069781,0.400011841971417,0.599988158028583,0.424474889736845,0.525225006069781,0.0395315526843958,0.167958905841034,-0.424474889736845,-0.022548979350971,0.5,0.0531220571491291,0.650285494192949,3.38824097111302,2.36467976822663,0.5,62.2981574843507
CBC_1027,CBC_1027_MSI_AV_v3_Vset6_Aset2_2023-07-21_17h56.54.977.csv,3,26,0,1,z,0,1,2,aud,B,63,1,0B,1B,0,1,z,1.10529399999723,0,1,1,1,1B,0B,B01,2.6149597780362,0.61942522079536,0.473438971425435,0.5,0.5,0.473438971425435,0.598074089614126,0.5,0.473438971425435,0.473438971425435,0.5,0.598074089614126,0.473438971425435,0.5,0.5,0.401925910385874,0.525225006069781,0.623349838187805,0.376650161812195,0.598074089614126,0.473438971425435,0.758032377875699,0.878344234736652,0.401925910385874,0.0213511311812342,0.5,0.0531220571491291,0.650285494192949,3.38824097111302,2.36467976822663,0.5,62.2981574843507
CBC_1027,CBC_1027_MSI_AV_v3_Vset6_Aset2_2023-07-21_17h56.54.977.csv,3,27,3,0,z,0,1,0,aud,A,9,1,3A,0A,0,1,z,1.43489769999724,0,1,1,1,0A,3A,A30,3.73766961828337,0.61942522079536,0.473438971425435,0.5,0.5,0.473438971425435,0.61942522079536,0.5,0.473438971425435,0.473438971425435,0.5,0.598074089614126,0.473438971425435,0.5,0.5,0.401925910385874,0.525225006069781,0.61942522079536,0.38057477920464,0.61942522079536,0.5,0.559074353720058,0.871174016365429,0.38057477920464,0.0202169151704261,0.5,0.0531220571491291,0.650285494192949,3.38824097111302,2.36467976822663,0.5,62.2981574843507
CBC_1027,CBC_1027_MSI_AV_v3_Vset6_Aset2_2023-07-21_17h56.54.977.csv,3,28,3,2,b,1,0,3,aud,D,63,1,3D,2D,1,0,z,2.76712479999696,0,1,0,0,2D,3D,D32,1.96944064646551,0.639642135965786,0.473438971425435,0.5,0.5,0.473438971425435,0.61942522079536,0.5,0.473438971425435,0.473438971425435,0.5,0.598074089614126,0.473438971425435,0.5,0.5,0.401925910385874,0.525225006069781,0.377909076781818,0.622090923218182,0.401925910385874,0.525225006069781,0.015800863873934,0.12383133129401,-0.401925910385874,-0.0213511311812342,0.5,0.0531220571491291,0.650285494192949,3.38824097111302,2.36467976822663,0.5,62.2981574843507
CBC_1027,CBC_1027_MSI_AV_v3_Vset6_Aset2_2023-07-21_17h56.54.977.csv,3,29,0,2,z,0,1,1,aud,C,27,1,0C,2C,0,1,z,0.927258699997765,0,1,1,1,2C,0C,C02,2.68557734525015,0.639642135965786,0.473438971425435,0.5,0.5,0.473438971425435,0.61942522079536,0.5,0.473438971425435,0.473438971425435,0.5,0.598074089614126,0.473438971425435,0.5,0.5,0.38057477920464,0.525225006069781,0.623349838187805,0.376650161812195,0.598074089614126,0.473438971425435,0.633078657722204,0.878469940761584,0.401925910385874,0.0213511311812342,0.5,0.0531220571491291,0.650285494192949,3.38824097111302,2.36467976822663,0.5,62.2981574843507
CBC_1027,CBC_1027_MSI_AV_v3_Vset6_Aset2_2023-07-21_17h56.54.977.csv,3,30,0,1,b,1,0,0,aud,A,63,1,0A,1A,1,0,b,1.08457400000043,1,0,1,1,0A,1A,A01,3.11351530921037,0.639642135965786,0.473438971425435,0.5,0.5,0.473438971425435,0.61942522079536,0.5,0.473438971425435,0.473438971425435,0.5,0.61942522079536,0.473438971425435,0.5,0.5,0.38057477920464,0.525225006069781,0.663773397028253,0.336226602971747,0.639642135965786,0.473438971425435,0.937145229927635,0.932452363861798,0.360357864034214,0.0191429510473636,0.5,0.0531220571491291,0.650285494192949,3.38824097111302,2.36467976822663,0.5,62.2981574843507
CBC_1027,CBC_1027_MSI_AV_v3_Vset6_Aset2_2023-07-21_17h56.54.977.csv,3,31,0,1,z,0,1,2,aud,B,63,1,0B,1B,0,1,z,1.29845579999892,0,1,1,1,1B,0B,B01,2.4423470353692,0.658785087013149,0.473438971425435,0.5,0.5,0.473438971425435,0.61942522079536,0.5,0.473438971425435,0.473438971425435,0.5,0.61942522079536,0.473438971425435,0.5,0.5,0.38057477920464,0.525225006069781,0.644157150745234,0.355842849254766,0.61942522079536,0.473438971425435,0.715630947240462,0.909568255946288,0.38057477920464,0.0202169151704261,0.5,0.0531220571491291,0.650285494192949,3.38824097111302,2.36467976822663,0.5,62.2981574843507
CBC_1027,CBC_1027_MSI_AV_v3_Vset6_Aset2_2023-07-21_17h56.54.977.csv,3,32,1,3,z,0,1,3,aud,D,27,1,1D,3D,0,1,z,2.30686659999992,0,1,1,1,3D,1D,D13,3.85014760171006,0.658785087013149,0.473438971425435,0.5,0.5,0.473438971425435,0.639642135965786,0.5,0.473438971425435,0.473438971425435,0.5,0.61942522079536,0.473438971425435,0.5,0.5,0.38057477920464,0.525225006069781,0.525225006069781,0.474774993930219,0.525225006069781,0.5,0.155642840780935,0.599985268814145,0.474774993930219,0.0252210243605385,0.5,0.0531220571491291,0.650285494192949,3.38824097111302,2.36467976822663,0.5,62.2981574843507
CBC_1027,CBC_1027_MSI_AV_v3_Vset6_Aset2_2023-07-21_17h56.54.977.csv,3,33,2,3,b,1,0,1,aud,C,63,1,2C,3C,1,0,b,0.834572099996876,1,0,1,1,2C,3C,C23,2.77258872223978,0.658785087013149,0.473438971425435,0.5,0.5,0.473438971425435,0.639642135965786,0.5,0.473438971425435,0.473438971425435,0.5,0.61942522079536,0.473438971425435,0.5,0.5,0.38057477920464,0.550446030430319,0.644157150745234,0.355842849254766,0.61942522079536,0.473438971425435,0.389879438812309,0.909385601154677,0.38057477920464,0.0202169151704261,0.5,0.0531220571491291,0.650285494192949,3.38824097111302,2.36467976822663,0.5,62.2981574843507
CBC_1027,CBC_1027_MSI_AV_v3_Vset6_Aset2_2023-07-21_17h56.54.977.csv,3,34,0,1,z,0,1,2,aud,B,63,1,0B,1B,0,1,z,0.810980099999142,0,1,1,1,1B,0B,B01,2.28238238567653,0.658785087013149,0.473438971425435,0.5,0.5,0.473438971425435,0.639642135965786,0.5,0.473438971425435,0.473438971425435,0.5,0.639642135965786,0.473438971425435,0.5,0.5,0.38057477920464,0.550446030430319,0.663773397028253,0.336226602971747,0.639642135965786,0.473438971425435,0.318389688701357,0.932563258643829,0.360357864034214,0.0191429510473636,0.5,0.0531220571491291,0.650285494192949,3.38824097111302,2.36467976822663,0.5,62.2981574843507
CBC_1027,CBC_1027_MSI_AV_v3_Vset6_Aset2_2023-07-21_17h56.54.977.csv,3,35,1,0,z,0,1,0,aud,A,63,1,1A,0A,0,1,z,1.64961329999642,0,1,1,1,0A,1A,A10,2.52572864430826,0.658785087013149,0.473438971425435,0.5,0.5,0.473438971425435,0.658785087013149,0.5,0.473438971425435,0.473438971425435,0.5,0.639642135965786,0.473438971425435,0.5,0.5,0.38057477920464,0.550446030430319,0.682271203853974,0.317728796146026,0.658785087013149,0.473438971425435,0.466283125439201,0.948794602328498,0.341214912986851,0.0181260381078226,0.5,0.0531220571491291,0.650285494192949,3.38824097111302,2.36467976822663,0.5,62.2981574843507
CBC_1027,CBC_1027_MSI_AV_v3_Vset6_Aset2_2023-07-21_17h56.54.977.csv,3,36,2,1,b,1,0,1,aud,C,9,1,2C,1C,1,0,b,1.01661779999995,1,0,1,1,2C,1C,C21,3.93182563272433,0.676911125120972,0.473438971425435,0.5,0.5,0.473438971425435,0.658785087013149,0.5,0.473438971425435,0.473438971425435,0.5,0.639642135965786,0.473438971425435,0.5,0.5,0.38057477920464,0.550446030430319,0.639642135965786,0.360357864034214,0.639642135965786,0.5,0.819707626614042,0.903459044781516,0.360357864034214,0.0191429510473636,0.5,0.0531220571491291,0.650285494192949,3.38824097111302,2.36467976822663,0.5,62.2981574843507
CBC_1027,CBC_1027_MSI_AV_v3_Vset6_Aset2_2023-07-21_17h56.54.977.csv,3,37,0,1,b,1,0,0,aud,A,63,1,0A,1A,1,0,b,1.47027249999519,1,0,1,1,0A,1A,A01,2.85263142991332,0.676911125120972,0.473438971425435,0.5,0.5,0.473438971425435,0.658785087013149,0.5,0.473438971425435,0.473438971425435,0.5,0.658785087013149,0.473438971425435,0.5,0.5,0.38057477920464,0.550446030430319,0.699718295389817,0.300281704610183,0.676911125120972,0.473438971425435,0.631210521685605,0.960997523547729,0.323088874879028,0.0171631456755715,0.5,0.0531220571491291,0.650285494192949,3.38824097111302,2.36467976822663,0.5,62.2981574843507
CBC_1027,CBC_1027_MSI_AV_v3_Vset6_Aset2_2023-07-21_17h56.54.977.csv,3,38,1,3,z,0,1,3,aud,D,27,1,1D,3D,0,1,z,2.32207479999852,0,1,1,1,3D,1D,D13,3.27714473299218,0.694074270796543,0.473438971425435,0.5,0.5,0.473438971425435,0.658785087013149,0.5,0.473438971425435,0.473438971425435,0.5,0.658785087013149,0.473438971425435,0.5,0.5,0.38057477920464,0.550446030430319,0.550446030430319,0.449553969569681,0.550446030430319,0.5,0.174441830471552,0.691187281716124,0.449553969569681,0.0238812316630984,0.5,0.0531220571491291,0.650285494192949,3.38824097111302,2.36467976822663,0.5,62.2981574843507
CBC_1027,CBC_1027_MSI_AV_v3_Vset6_Aset2_2023-07-21_17h56.54.977.csv,3,39,1,0,b,1,0,2,aud,B,63,1,1B,0B,1,0,b,1.35388719999537,1,0,1,1,1B,0B,B10,3.29583686600433,0.694074270796543,0.473438971425435,0.5,0.5,0.473438971425435,0.658785087013149,0.5,0.473438971425435,0.473438971425435,0.5,0.658785087013149,0.473438971425435,0.5,0.5,0.38057477920464,0.574327262093418,0.682271203853974,0.317728796146026,0.658785087013149,0.473438971425435,0.744702841594791,0.948923217719648,0.341214912986851,0.0181260381078226,0.5,0.0531220571491291,0.650285494192949,3.38824097111302,2.36467976822663,0.5,62.2981574843507
CBC_1027,CBC_1027_MSI_AV_v3_Vset6_Aset2_2023-07-21_17h56.54.977.csv,3,40,3,2,z,0,1,1,aud,C,63,0,3C,2C,1,0,z,1.6215284999962,0,1,1,0,2C,3C,C32,2.90872089656436,0.694074270796543,0.473438971425435,0.5,0.5,0.473438971425435,0.676911125120972,0.5,0.473438971425435,0.473438971425435,0.5,0.658785087013149,0.473438971425435,0.5,0.5,0.38057477920464,0.574327262093418,0.682271203853974,0.317728796146026,0.658785087013149,0.473438971425435,0.48804265618212,0.948855987911139,-0.658785087013149,-0.0349960190413065,0.5,0.0531220571491291,0.650285494192949,3.38824097111302,2.36467976822663,0.5,62.2981574843507
CBC_1027,CBC_1027_MSI_AV_v3_Vset6_Aset2_2023-07-21_17h56.54.977.csv,3,41,0,2,b,1,0,0,aud,A,27,1,0A,2A,1,0,b,1.19325729999764,1,0,1,1,0A,2A,A02,3.3322045101752,0.694074270796543,0.473438971425435,0.5,0.5,0.473438971425435,0.676911125120972,0.5,0.473438971425435,0.473438971425435,0.5,0.623789067971843,0.473438971425435,0.5,0.5,0.38057477920464,0.574327262093418,0.694074270796543,0.305925729203457,0.694074270796543,0.5,0.963935185127487,0.957438270316125,0.305925729203457,0.016251404070135,0.5,0.0531220571491291,0.650285494192949,3.38824097111302,2.36467976822663,0.5,62.2981574843507
CBC_1027,CBC_1027_MSI_AV_v3_Vset6_Aset2_2023-07-21_17h56.54.977.csv,3,42,2,3,z,0,1,3,aud,D,63,1,2D,3D,0,1,z,2.38454849999835,0,1,1,1,3D,2D,D23,4.04305126783455,0.710325674866679,0.473438971425435,0.5,0.5,0.473438971425435,0.676911125120972,0.5,0.473438971425435,0.473438971425435,0.5,0.623789067971843,0.473438971425435,0.5,0.5,0.38057477920464,0.574327262093418,0.687108955140318,0.312891044859682,0.574327262093418,0.38057477920464,0.135054939994174,0.952501618227946,0.425672737906582,0.0226126115098997,0.5,0.0531220571491291,0.650285494192949,3.38824097111302,2.36467976822663,0.5,62.2981574843507
CBC_1027,CBC_1027_MSI_AV_v3_Vset6_Aset2_2023-07-21_17h56.54.977.csv,3,43,1,3,b,1,0,2,aud,B,27,1,1B,3B,1,0,b,2.64858509999613,1,0,1,1,1B,3B,B13,3.36729582998647,0.710325674866679,0.473438971425435,0.5,0.5,0.473438971425435,0.676911125120972,0.5,0.473438971425435,0.473438971425435,0.5,0.623789067971843,0.473438971425435,0.5,0.5,0.38057477920464,0.596939873603317,0.699718295389817,0.300281704610183,0.676911125120972,0.473438971425435,0.0760573377446173,0.961208276329177,0.323088874879028,0.0171631456755715,0.5,0.0531220571491291,0.650285494192949,3.38824097111302,2.36467976822663,0.5,62.2981574843507
CBC_1027,CBC_1027_MSI_AV_v3_Vset6_Aset2_2023-07-21_17h56.54.977.csv,3,44,3,2,z,0,1,1,aud,C,63,1,3C,2C,0,1,z,1.52843159999611,0,1,1,1,2C,3C,C32,2.69124308278583,0.710325674866679,0.473438971425435,0.5,0.5,0.473438971425435,0.694074270796543,0.5,0.473438971425435,0.473438971425435,0.5,0.623789067971843,0.473438971425435,0.5,0.5,0.38057477920464,0.596939873603317,0.648398381821314,0.351601618178686,0.623789067971843,0.473438971425435,0.541845089471112,0.915075287159349,0.376210932028157,0.0199850986313269,0.5,0.0531220571491291,0.650285494192949,3.38824097111302,2.36467976822663,0.5,62.2981574843507
CBC_1027,CBC_1027_MSI_TV_v3_Vset3_Tset3_2023-07-21_18h05.28.896.csv,4,1,1,0,z,0,1,0,tac,A,63,1,1A,0A,0,1,b,2.7988779000043,1,0,0,0,1A,0A,A10,2.77258872223978,0.5,0.5,0.5,0.5,0.5,0.5,0.5,0.5,0.5,0.5,0.5,0.5,0.5,0.5,0.5,0.5,0.5,0.5,0.5,0.5,0.135804412952548,0.499570578580686,-0.5,-0.0163456585295655,0.5,0.0326913170591311,1.09982103658992,3.95734434903393,2.67094061837162,0.5,70.7271569590313
CBC_1027,CBC_1027_MSI_TV_v3_Vset3_Tset3_2023-07-21_18h05.28.896.csv,4,2,3,2,b,1,0,3,tac,D,63,1,3D,2D,1,0,z,2.39605140000276,0,1,0,0,2D,3D,D32,2.83321334405622,0.5,0.483654341470434,0.5,0.5,0.5,0.5,0.5,0.5,0.5,0.5,0.5,0.5,0.5,0.5,0.5,0.5,0.5,0.5,0.5,0.5,0.179132431703005,0.499728010492477,-0.5,-0.0163456585295655,0.5,0.0326913170591311,1.09982103658992,3.95734434903393,2.67094061837162,0.5,70.7271569590313
CBC_1027,CBC_1027_MSI_TV_v3_Vset3_Tset3_2023-07-21_18h05.28.896.csv,4,3,2,0,b,1,0,1,tac,C,27,1,2C,0C,1,0,b,2.95685370000501,1,0,1,1,2C,0C,C20,2.89037175789616,0.5,0.483654341470434,0.5,0.5,0.5,0.5,0.5,0.5,0.5,0.5,0.5,0.5,0.5,0.5,0.483654341470434,0.5,0.5,0.5,0.5,0.5,0.121855529934343,0.49994736183555,0.5,0.0163456585295655,0.5,0.0326913170591311,1.09982103658992,3.95734434903393,2.67094061837162,0.5,70.7271569590313
CBC_1027,CBC_1027_MSI_TV_v3_Vset3_Tset3_2023-07-21_18h05.28.896.csv,4,4,1,0,z,0,1,0,tac,A,63,1,1A,0A,0,1,z,2.28536900000472,0,1,1,1,0A,1A,A10,2.2512917986065,0.5,0.483654341470434,0.5,0.5,0.5,0.5,0.5,0.5,0.5,0.5,0.516345658529566,0.5,0.5,0.5,0.483654341470434,0.5,0.516345658529566,0.483654341470434,0.5,0.483654341470434,0.227391073326981,0.585831884069206,0.5,0.0163456585295655,0.5,0.0326913170591311,1.09982103658992,3.95734434903393,2.67094061837162,0.5,70.7271569590313
CBC_1027,CBC_1027_MSI_TV_v3_Vset3_Tset3_2023-07-21_18h05.28.896.csv,4,5,3,1,z,0,1,2,tac,B,27,1,3B,1B,0,1,z,2.62197090000336,0,1,1,1,1B,3B,B31,2.99573227355399,0.516345658529566,0.483654341470434,0.5,0.5,0.5,0.5,0.5,0.5,0.5,0.5,0.516345658529566,0.5,0.5,0.5,0.483654341470434,0.5,0.5,0.5,0.5,0.5,0.153469425963834,0.499732492155914,0.5,0.0163456585295655,0.5,0.0326913170591311,1.09982103658992,3.95734434903393,2.67094061837162,0.5,70.7271569590313
CBC_1027,CBC_1027_MSI_TV_v3_Vset3_Tset3_2023-07-21_18h05.28.896.csv,4,6,2,3,b,1,0,1,tac,C,63,1,2C,3C,1,0,b,3.11231080000289,1,0,1,1,2C,3C,C23,3.04452243772342,0.516345658529566,0.483654341470434,0.5,0.5,0.5,0.516345658529566,0.5,0.5,0.5,0.5,0.516345658529566,0.5,0.5,0.5,0.483654341470434,0.5,0.516345658529566,0.483654341470434,0.516345658529566,0.5,0.12767250655693,0.5843759278435,0.483654341470434,0.0158112974240352,0.5,0.0326913170591311,1.09982103658992,3.95734434903393,2.67094061837162,0.5,70.7271569590313
CBC_1027,CBC_1027_MSI_TV_v3_Vset3_Tset3_2023-07-21_18h05.28.896.csv,4,7,2,3,z,0,1,3,tac,D,63,0,2D,3D,1,0,z,2.29855720000342,0,1,1,0,3D,2D,D23,3.09104245335832,0.516345658529566,0.483654341470434,0.5,0.5,0.5,0.516345658529566,0.5,0.5,0.5,0.5,0.532156955953601,0.5,0.5,0.5,0.483654341470434,0.5,0.516345658529566,0.483654341470434,0.5,0.483654341470434,0.225219881715761,0.585469304264827,-0.5,-0.0163456585295655,0.5,0.0326913170591311,1.09982103658992,3.95734434903393,2.67094061837162,0.5,70.7271569590313
CBC_1027,CBC_1027_MSI_TV_v3_Vset3_Tset3_2023-07-21_18h05.28.896.csv,4,8,1,0,b,1,0,2,tac,B,63,1,1B,0B,1,0,z,1.74061650000294,0,1,0,0,0B,1B,B10,3.13549421592915,0.516345658529566,0.483654341470434,0.5,0.5,0.5,0.516345658529566,0.5,0.5,0.5,0.5,0.532156955953601,0.5,0.5,0.5,0.483654341470434,0.483654341470434,0.483654341470434,0.516345658529566,0.5,0.516345658529566,0.215745411300567,0.413652493545447,-0.5,-0.0163456585295655,0.5,0.0326913170591311,1.09982103658992,3.95734434903393,2.67094061837162,0.5,70.7271569590313
CBC_1027,CBC_1027_MSI_TV_v3_Vset3_Tset3_2023-07-21_18h05.28.896.csv,4,9,0,2,b,1,0,0,tac,A,27,1,0A,2A,1,0,b,2.42849310000383,1,0,1,1,0A,2A,A02,3.17805383034795,0.516345658529566,0.483654341470434,0.5,0.5,0.483654341470434,0.516345658529566,0.5,0.5,0.5,0.5,0.532156955953601,0.5,0.5,0.5,0.483654341470434,0.483654341470434,0.516345658529566,0.483654341470434,0.516345658529566,0.5,0.206302999394654,0.586141641595363,0.483654341470434,0.0158112974240352,0.5,0.0326913170591311,1.09982103658992,3.95734434903393,2.67094061837162,0.5,70.7271569590313
CBC_1027,CBC_1027_MSI_TV_v3_Vset3_Tset3_2023-07-21_18h05.28.896.csv,4,10,0,3,z,0,1,3,tac,D,9,1,0D,3D,0,1,z,2.50271930000235,0,1,1,1,3D,0D,D03,3.2188758248682,0.532156955953601,0.483654341470434,0.5,0.5,0.483654341470434,0.516345658529566,0.5,0.5,0.5,0.5,0.532156955953601,0.5,0.5,0.5,0.483654341470434,0.483654341470434,0.483654341470434,0.516345658529566,0.483654341470434,0.5,0.138201813137933,0.413318120739652,0.516345658529566,0.0168800196350959,0.5,0.0326913170591311,1.09982103658992,3.95734434903393,2.67094061837162,0.5,70.7271569590313
CBC_1027,CBC_1027_MSI_TV_v3_Vset3_Tset3_2023-07-21_18h05.28.896.csv,4,11,3,2,z,0,1,1,tac,C,63,1,3C,2C,0,1,z,4.46046890000434,0,1,1,1,2C,3C,C32,3.25809653802148,0.532156955953601,0.483654341470434,0.5,0.5,0.483654341470434,0.516345658529566,0.5,0.5,0.5,0.5,0.532156955953601,0.5,0.5,0.5,0.483654341470434,0.50053436110553,0.532156955953601,0.467843044046399,0.532156955953601,0.5,0.0542600160334926,0.663445338314791,0.467843044046399,0.0152944052868299,0.5,0.0326913170591311,1.09982103658992,3.95734434903393,2.67094061837162,0.5,70.7271569590313
CBC_1027,CBC_1027_MSI_TV_v3_Vset3_Tset3_2023-07-21_18h05.28.896.csv,4,12,1,0,b,1,0,2,tac,B,63,1,1B,0B,1,0,b,2.60820620000231,1,0,1,1,1B,0B,B10,2.60268968544438,0.532156955953601,0.483654341470434,0.5,0.5,0.483654341470434,0.516345658529566,0.5,0.5,0.5,0.5,0.547451361240431,0.5,0.5,0.5,0.483654341470434,0.50053436110553,0.532656416421568,0.467343583578432,0.516345658529566,0.483654341470434,0.207974485406929,0.665491150951652,0.483654341470434,0.0158112974240352,0.5,0.0326913170591311,1.09982103658992,3.95734434903393,2.67094061837162,0.5,70.7271569590313
CBC_1027,CBC_1027_MSI_TV_v3_Vset3_Tset3_2023-07-21_18h05.28.896.csv,4,13,3,2,b,1,0,3,tac,D,63,1,3D,2D,1,0,z,1.51609510000344,0,1,0,0,2D,3D,D32,2.63905732961526,0.532156955953601,0.483654341470434,0.5,0.5,0.483654341470434,0.532156955953601,0.5,0.5,0.5,0.5,0.547451361240431,0.5,0.5,0.5,0.483654341470434,0.50053436110553,0.483120570097357,0.516879429902643,0.483654341470434,0.50053436110553,0.194074179362429,0.411656760737654,-0.483654341470434,-0.0158112974240352,0.5,0.0326913170591311,1.09982103658992,3.95734434903393,2.67094061837162,0.5,70.7271569590313
CBC_1027,CBC_1027_MSI_TV_v3_Vset3_Tset3_2023-07-21_18h05.28.896.csv,4,14,3,2,z,0,1,1,tac,C,63,1,3C,2C,0,1,b,2.43226940000386,1,0,0,0,3C,2C,C32,2.67414864942653,0.532156955953601,0.483654341470434,0.5,0.5,0.483654341470434,0.532156955953601,0.5,0.5,0.5,0.5,0.547451361240431,0.5,0.5,0.5,0.467843044046399,0.50053436110553,0.452548638759569,0.547451361240431,0.5,0.547451361240431,0.0962945322960946,0.268016871158917,-0.5,-0.0163456585295655,0.5,0.0326913170591311,1.09982103658992,3.95734434903393,2.67094061837162,0.5,70.7271569590313
CBC_1027,CBC_1027_MSI_TV_v3_Vset3_Tset3_2023-07-21_18h05.28.896.csv,4,15,1,3,b,1,0,2,tac,B,27,1,1B,3B,1,0,b,2.56184260000373,1,0,1,1,1B,3B,B13,3.40119738166216,0.532156955953601,0.483654341470434,0.5,0.5,0.483654341470434,0.532156955953601,0.5,0.5,0.5,0.5,0.547451361240431,0.483654341470434,0.5,0.5,0.467843044046399,0.50053436110553,0.532156955953601,0.467843044046399,0.532156955953601,0.5,0.214614491246321,0.664268718947884,0.467843044046399,0.0152944052868299,0.5,0.0326913170591311,1.09982103658992,3.95734434903393,2.67094061837162,0.5,70.7271569590313
CBC_1027,CBC_1027_MSI_TV_v3_Vset3_Tset3_2023-07-21_18h05.28.896.csv,4,16,3,0,z,0,1,0,tac,A,9,1,3A,0A,0,1,z,4.24691310000344,0,1,1,1,0A,3A,A30,3.43398720448515,0.532156955953601,0.483654341470434,0.5,0.5,0.483654341470434,0.547451361240431,0.5,0.5,0.5,0.5,0.547451361240431,0.483654341470434,0.5,0.5,0.467843044046399,0.50053436110553,0.532156955953601,0.467843044046399,0.532156955953601,0.5,0.0633303672545701,0.663399215238013,0.467843044046399,0.0152944052868299,0.5,0.0326913170591311,1.09982103658992,3.95734434903393,2.67094061837162,0.5,70.7271569590313
CBC_1027,CBC_1027_MSI_TV_v3_Vset3_Tset3_2023-07-21_18h05.28.896.csv,4,17,3,2,b,1,0,3,tac,D,63,1,3D,2D,1,0,z,2.43478310000137,0,1,0,0,2D,3D,D32,2.36712361413162,0.547451361240431,0.483654341470434,0.5,0.5,0.483654341470434,0.547451361240431,0.5,0.5,0.5,0.5,0.547451361240431,0.483654341470434,0.5,0.5,0.467843044046399,0.50053436110553,0.467310929781815,0.532689070218185,0.467843044046399,0.50053436110553,0.118016210341803,0.333342793961154,-0.467843044046399,-0.0152944052868299,0.5,0.0326913170591311,1.09982103658992,3.95734434903393,2.67094061837162,0.5,70.7271569590313
CBC_1027,CBC_1027_MSI_TV_v3_Vset3_Tset3_2023-07-21_18h05.28.896.csv,4,18,2,0,b,1,0,1,tac,C,27,1,2C,0C,1,0,z,2.73933170000237,0,1,0,0,0C,2C,C20,2.80336038090653,0.547451361240431,0.483654341470434,0.5,0.5,0.483654341470434,0.547451361240431,0.5,0.5,0.5,0.5,0.547451361240431,0.483654341470434,0.5,0.5,0.452548638759569,0.50053436110553,0.452548638759569,0.547451361240431,0.5,0.547451361240431,0.0765749631732011,0.268944397982363,-0.5,-0.0163456585295655,0.5,0.0326913170591311,1.09982103658992,3.95734434903393,2.67094061837162,0.5,70.7271569590313
CBC_1027,CBC_1027_MSI_TV_v3_Vset3_Tset3_2023-07-21_18h05.28.896.csv,4,19,1,0,z,0,1,0,tac,A,63,1,1A,0A,0,1,z,1.46309950000432,0,1,1,1,0A,1A,A10,2.42774823594805,0.547451361240431,0.483654341470434,0.5,0.5,0.483654341470434,0.547451361240431,0.5,0.5,0.483654341470434,0.5,0.547451361240431,0.483654341470434,0.5,0.5,0.452548638759569,0.50053436110553,0.56359970201311,0.43640029798689,0.547451361240431,0.483654341470434,0.39123478036313,0.793535726343932,0.452548638759569,0.0147944110343673,0.5,0.0326913170591311,1.09982103658992,3.95734434903393,2.67094061837162,0.5,70.7271569590313
CBC_1027,CBC_1027_MSI_TV_v3_Vset3_Tset3_2023-07-21_18h05.28.896.csv,4,20,0,1,z,0,1,2,tac,B,63,0,0B,1B,1,0,z,2.41613750000397,0,1,1,0,1B,0B,B01,3.55534806148941,0.562245772274798,0.483654341470434,0.5,0.5,0.483654341470434,0.547451361240431,0.5,0.5,0.483654341470434,0.5,0.547451361240431,0.483654341470434,0.5,0.5,0.452548638759569,0.50053436110553,0.56359970201311,0.43640029798689,0.547451361240431,0.483654341470434,0.29312814923151,0.79330341571045,-0.547451361240431,-0.0178969060247638,0.5,0.0326913170591311,1.09982103658992,3.95734434903393,2.67094061837162,0.5,70.7271569590313
CBC_1027,CBC_1027_MSI_TV_v3_Vset3_Tset3_2023-07-21_18h05.28.896.csv,4,21,1,3,z,0,1,3,tac,D,27,1,1D,3D,0,1,z,2.58119420000367,0,1,1,1,3D,1D,D13,3.58351893845611,0.562245772274798,0.483654341470434,0.5,0.5,0.483654341470434,0.529554455215667,0.5,0.5,0.483654341470434,0.5,0.547451361240431,0.483654341470434,0.5,0.5,0.452548638759569,0.50053436110553,0.50053436110553,0.49946563889447,0.50053436110553,0.5,0.158635177693545,0.502269638379977,0.49946563889447,0.0163281895612406,0.5,0.0326913170591311,1.09982103658992,3.95734434903393,2.67094061837162,0.5,70.7271569590313
CBC_1027,CBC_1027_MSI_TV_v3_Vset3_Tset3_2023-07-21_18h05.28.896.csv,4,22,2,3,b,1,0,1,tac,C,63,1,2C,3C,1,0,b,3.71788180000294,1,0,1,1,2C,3C,C23,2.91777073208428,0.562245772274798,0.483654341470434,0.5,0.5,0.483654341470434,0.529554455215667,0.5,0.5,0.483654341470434,0.5,0.547451361240431,0.483654341470434,0.5,0.5,0.452548638759569,0.516862550666771,0.56359970201311,0.43640029798689,0.547451361240431,0.483654341470434,0.101208542462678,0.793765969174052,0.452548638759569,0.0147944110343673,0.5,0.0326913170591311,1.09982103658992,3.95734434903393,2.67094061837162,0.5,70.7271569590313
CBC_1027,CBC_1027_MSI_TV_v3_Vset3_Tset3_2023-07-21_18h05.28.896.csv,4,23,1,0,b,1,0,2,tac,B,63,1,1B,0B,1,0,z,2.47834910000165,0,1,0,0,0B,1B,B10,2.53897387105828,0.562245772274798,0.483654341470434,0.5,0.5,0.483654341470434,0.529554455215667,0.5,0.5,0.483654341470434,0.5,0.562245772274798,0.483654341470434,0.5,0.5,0.452548638759569,0.516862550666771,0.454188410194748,0.545811589805252,0.483654341470434,0.529554455215667,0.0953283168396087,0.275069132840339,-0.483654341470434,-0.0158112974240352,0.5,0.0326913170591311,1.09982103658992,3.95734434903393,2.67094061837162,0.5,70.7271569590313
CBC_1027,CBC_1027_MSI_TV_v3_Vset3_Tset3_2023-07-21_18h05.28.896.csv,4,24,2,0,z,0,1,0,tac,A,27,1,2A,0A,0,1,z,2.41633090000323,0,1,1,1,0A,2A,A20,3.66356164612965,0.562245772274798,0.483654341470434,0.5,0.5,0.467843044046399,0.529554455215667,0.5,0.5,0.483654341470434,0.5,0.562245772274798,0.483654341470434,0.5,0.5,0.452548638759569,0.516862550666771,0.562245772274798,0.437754227725202,0.562245772274798,0.5,0.29087922250541,0.78840017806004,0.437754227725202,0.0143107622525397,0.5,0.0326913170591311,1.09982103658992,3.95734434903393,2.67094061837162,0.5,70.7271569590313
CBC_1027,CBC_1027_MSI_TV_v3_Vset3_Tset3_2023-07-21_18h05.28.896.csv,4,25,2,3,z,0,1,3,tac,D,63,1,2D,3D,0,1,b,2.23391420000189,1,0,0,0,2D,3D,D23,2.99573227355399,0.576556534527338,0.483654341470434,0.5,0.5,0.467843044046399,0.529554455215667,0.5,0.5,0.483654341470434,0.5,0.562245772274798,0.483654341470434,0.5,0.5,0.452548638759569,0.516862550666771,0.435891274731002,0.564108725268998,0.452548638759569,0.516862550666771,0.0877457238301837,0.205147837743669,-0.452548638759569,-0.0147944110343673,0.5,0.0326913170591311,1.09982103658992,3.95734434903393,2.67094061837162,0.5,70.7271569590313
CBC_1027,CBC_1027_MSI_TV_v3_Vset3_Tset3_2023-07-21_18h05.28.896.csv,4,26,2,0,b,1,0,1,tac,C,27,1,2C,0C,1,0,b,2.29278140000315,1,0,1,1,2C,0C,C20,2.6149597780362,0.576556534527338,0.483654341470434,0.5,0.5,0.467843044046399,0.529554455215667,0.5,0.5,0.483654341470434,0.5,0.562245772274798,0.483654341470434,0.5,0.5,0.437754227725202,0.516862550666771,0.578272876434666,0.421727123565334,0.562245772274798,0.483654341470434,0.349309728576432,0.839051551476674,0.437754227725202,0.0143107622525397,0.5,0.0326913170591311,1.09982103658992,3.95734434903393,2.67094061837162,0.5,70.7271569590313
CBC_1027,CBC_1027_MSI_TV_v3_Vset3_Tset3_2023-07-21_18h05.28.896.csv,4,27,1,0,b,1,0,2,tac,B,63,1,1B,0B,1,0,z,1.35420070000328,0,1,0,0,0B,1B,B10,2.35137525716348,0.576556534527338,0.483654341470434,0.5,0.5,0.467843044046399,0.529554455215667,0.5,0.5,0.483654341470434,0.5,0.576556534527338,0.483654341470434,0.5,0.5,0.437754227725202,0.516862550666771,0.438522297868215,0.561477702131785,0.467843044046399,0.529554455215667,0.0631555061015533,0.214099988572436,-0.467843044046399,-0.0152944052868299,0.5,0.0326913170591311,1.09982103658992,3.95734434903393,2.67094061837162,0.5,70.7271569590313
CBC_1027,CBC_1027_MSI_TV_v3_Vset3_Tset3_2023-07-21_18h05.28.896.csv,4,28,0,1,b,1,0,0,tac,A,63,1,0A,1A,1,0,b,2.50956410000435,1,0,1,1,0A,1A,A01,3.76120011569356,0.576556534527338,0.483654341470434,0.5,0.5,0.452548638759569,0.529554455215667,0.5,0.5,0.483654341470434,0.5,0.576556534527338,0.483654341470434,0.5,0.5,0.437754227725202,0.516862550666771,0.592439490157488,0.407560509842512,0.576556534527338,0.483654341470434,0.302163744826321,0.875879125584336,0.423443465472662,0.013842924586384,0.5,0.0326913170591311,1.09982103658992,3.95734434903393,2.67094061837162,0.5,70.7271569590313
CBC_1027,CBC_1027_MSI_TV_v3_Vset3_Tset3_2023-07-21_18h05.28.896.csv,4,29,3,2,z,0,1,1,tac,C,63,0,3C,2C,1,0,z,3.36070140000083,0,1,1,0,2C,3C,C32,2.68557734525015,0.590399459113722,0.483654341470434,0.5,0.5,0.452548638759569,0.529554455215667,0.5,0.5,0.483654341470434,0.5,0.576556534527338,0.483654341470434,0.5,0.5,0.437754227725202,0.516862550666771,0.592439490157488,0.407560509842512,0.576556534527338,0.483654341470434,0.133776867288335,0.875410072301596,-0.576556534527338,-0.0188483924727471,0.5,0.0326913170591311,1.09982103658992,3.95734434903393,2.67094061837162,0.5,70.7271569590313
CBC_1027,CBC_1027_MSI_TV_v3_Vset3_Tset3_2023-07-21_18h05.28.896.csv,4,30,3,1,b,1,0,3,tac,D,27,1,3D,1D,1,0,b,2.33563340000546,1,0,1,1,3D,1D,D31,3.80666248977032,0.590399459113722,0.483654341470434,0.5,0.5,0.452548638759569,0.529554455215667,0.5,0.5,0.483654341470434,0.5,0.557708142054591,0.483654341470434,0.5,0.5,0.437754227725202,0.516862550666771,0.516862550666771,0.483137449333229,0.516862550666771,0.5,0.220639439440589,0.588049806233989,0.483137449333229,0.0157943995392925,0.5,0.0326913170591311,1.09982103658992,3.95734434903393,2.67094061837162,0.5,70.7271569590313
CBC_1027,CBC_1027_MSI_TV_v3_Vset3_Tset3_2023-07-21_18h05.28.896.csv,4,31,1,0,z,0,1,0,tac,A,63,1,1A,0A,0,1,z,2.34392160000425,0,1,1,1,0A,1A,A10,2.4423470353692,0.590399459113722,0.483654341470434,0.5,0.5,0.452548638759569,0.529554455215667,0.5,0.5,0.483654341470434,0.5,0.557708142054591,0.483654341470434,0.5,0.5,0.437754227725202,0.532656950206063,0.606117901972691,0.393882098027309,0.590399459113722,0.483654341470434,0.367541781351655,0.904098113811975,0.409600540886278,0.0133903811497049,0.5,0.0326913170591311,1.09982103658992,3.95734434903393,2.67094061837162,0.5,70.7271569590313
CBC_1027,CBC_1027_MSI_TV_v3_Vset3_Tset3_2023-07-21_18h05.28.896.csv,4,32,3,2,b,1,0,3,tac,D,63,1,3D,2D,1,0,b,2.35856610000337,1,0,1,1,3D,2D,D32,2.46385324059017,0.603789840263427,0.483654341470434,0.5,0.5,0.452548638759569,0.529554455215667,0.5,0.5,0.483654341470434,0.5,0.557708142054591,0.483654341470434,0.5,0.5,0.437754227725202,0.532656950206063,0.594137289511721,0.405862710488279,0.532656950206063,0.437754227725202,0.350675861791319,0.879860041662646,0.467343049793937,0.0152780598161949,0.5,0.0326913170591311,1.09982103658992,3.95734434903393,2.67094061837162,0.5,70.7271569590313
CBC_1027,CBC_1027_MSI_TV_v3_Vset3_Tset3_2023-07-21_18h05.28.896.csv,4,33,2,1,z,0,1,2,tac,B,9,1,2B,1B,0,1,z,2.28106410000328,0,1,1,1,1B,2B,B21,3.87120101090789,0.603789840263427,0.483654341470434,0.5,0.5,0.452548638759569,0.529554455215667,0.5,0.5,0.483654341470434,0.5,0.557708142054591,0.483654341470434,0.5,0.5,0.437754227725202,0.547935010022258,0.529554455215667,0.470445544784333,0.529554455215667,0.5,0.256258650716802,0.651280475840735,0.470445544784333,0.0153794844636003,0.5,0.0326913170591311,1.09982103658992,3.95734434903393,2.67094061837162,0.5,70.7271569590313
CBC_1027,CBC_1027_MSI_TV_v3_Vset3_Tset3_2023-07-21_18h05.28.896.csv,4,34,1,0,z,0,1,0,tac,A,63,1,1A,0A,0,1,z,3.00834490000489,0,1,1,1,0A,1A,A10,2.28238238567653,0.603789840263427,0.483654341470434,0.5,0.5,0.452548638759569,0.544933939679267,0.5,0.5,0.483654341470434,0.5,0.557708142054591,0.483654341470434,0.5,0.5,0.437754227725202,0.547935010022258,0.619325747925272,0.380674252074728,0.603789840263427,0.483654341470434,0.177137418844329,0.925912659421386,0.396210159736573,0.0129526319539973,0.5,0.0326913170591311,1.09982103658992,3.95734434903393,2.67094061837162,0.5,70.7271569590313
CBC_1027,CBC_1027_MSI_TV_v3_Vset3_Tset3_2023-07-21_18h05.28.896.csv,4,35,2,1,b,1,0,1,tac,C,9,1,2C,1C,1,0,z,2.76250290000462,0,1,0,0,1C,2C,C21,3.91202300542815,0.616742472217424,0.483654341470434,0.5,0.5,0.452548638759569,0.544933939679267,0.5,0.5,0.483654341470434,0.5,0.557708142054591,0.483654341470434,0.5,0.5,0.437754227725202,0.547935010022258,0.442291857945409,0.557708142054591,0.5,0.557708142054591,0.0638348861346828,0.228513115932006,-0.5,-0.0163456585295655,0.5,0.0326913170591311,1.09982103658992,3.95734434903393,2.67094061837162,0.5,70.7271569590313
CBC_1027,CBC_1027_MSI_TV_v3_Vset3_Tset3_2023-07-21_18h05.28.896.csv,4,36,1,0,b,1,0,2,tac,B,63,1,1B,0B,1,0,b,2.308552100003,1,0,1,1,1B,0B,B10,2.32238772029023,0.616742472217424,0.483654341470434,0.5,0.5,0.452548638759569,0.544933939679267,0.5,0.5,0.483654341470434,0.483654341470434,0.557708142054591,0.483654341470434,0.5,0.5,0.437754227725202,0.547935010022258,0.591604036981878,0.408395963018122,0.544933939679267,0.452548638759569,0.364651186738337,0.874367517452366,0.455066060320733,0.0148767088607947,0.5,0.0326913170591311,1.09982103658992,3.95734434903393,2.67094061837162,0.5,70.7271569590313
CBC_1027,CBC_1027_MSI_TV_v3_Vset3_Tset3_2023-07-21_18h05.28.896.csv,4,37,0,1,b,1,0,0,tac,A,63,0,0A,1A,0,1,b,2.74784640000507,1,0,1,0,0A,1A,A01,3.25809653802148,0.616742472217424,0.483654341470434,0.5,0.5,0.452548638759569,0.559810648540062,0.5,0.5,0.483654341470434,0.483654341470434,0.557708142054591,0.483654341470434,0.5,0.5,0.437754227725202,0.547935010022258,0.632079973508955,0.367920026491045,0.616742472217424,0.483654341470434,0.231078955398661,0.942292017209903,-0.616742472217424,-0.0201621237030922,0.5,0.0326913170591311,1.09982103658992,3.95734434903393,2.67094061837162,0.5,70.7271569590313
CBC_1027,CBC_1027_MSI_TV_v3_Vset3_Tset3_2023-07-21_18h05.28.896.csv,4,38,0,1,z,0,1,2,tac,B,63,1,0B,1B,0,1,z,2.28649310000037,0,1,1,1,1B,0B,B01,3.27714473299218,0.596580348514332,0.483654341470434,0.5,0.5,0.452548638759569,0.559810648540062,0.5,0.5,0.483654341470434,0.483654341470434,0.557708142054591,0.483654341470434,0.5,0.5,0.437754227725202,0.547935010022258,0.606057998364115,0.393942001635885,0.559810648540062,0.452548638759569,0.389661797900395,0.903830404993462,0.440189351459938,0.0143903696546301,0.5,0.0326913170591311,1.09982103658992,3.95734434903393,2.67094061837162,0.5,70.7271569590313
CBC_1027,CBC_1027_MSI_TV_v3_Vset3_Tset3_2023-07-21_18h05.28.896.csv,4,39,1,3,z,0,1,3,tac,D,27,1,1D,3D,0,1,z,2.27200960000482,0,1,1,1,3D,1D,D13,3.29583686600433,0.596580348514332,0.483654341470434,0.5,0.5,0.452548638759569,0.574201018194692,0.5,0.5,0.483654341470434,0.483654341470434,0.557708142054591,0.483654341470434,0.5,0.5,0.437754227725202,0.547935010022258,0.547935010022258,0.452064989977742,0.547935010022258,0.5,0.297320275775576,0.733852691451725,0.452064989977742,0.0147785999186953,0.5,0.0326913170591311,1.09982103658992,3.95734434903393,2.67094061837162,0.5,70.7271569590313
CBC_1027,CBC_1027_MSI_TV_v3_Vset3_Tset3_2023-07-21_18h05.28.896.csv,4,40,3,2,z,0,1,1,tac,C,63,1,3C,2C,0,1,z,2.50871330000518,0,1,1,1,2C,3C,C32,2.62103882411258,0.596580348514332,0.483654341470434,0.5,0.5,0.452548638759569,0.574201018194692,0.5,0.5,0.483654341470434,0.483654341470434,0.557708142054591,0.483654341470434,0.5,0.5,0.437754227725202,0.562713609940954,0.573775437717444,0.426224562282556,0.557708142054591,0.483654341470434,0.284548573042854,0.825909453438918,0.442291857945409,0.0144591033607655,0.5,0.0326913170591311,1.09982103658992,3.95734434903393,2.67094061837162,0.5,70.7271569590313
CBC_1027,CBC_1027_MSI_TV_v3_Vset3_Tset3_2023-07-21_18h05.28.896.csv,4,41,0,2,b,1,0,0,tac,A,27,1,0A,2A,1,0,b,2.46007040000404,1,0,1,1,0A,2A,A02,3.3322045101752,0.596580348514332,0.483654341470434,0.5,0.5,0.452548638759569,0.574201018194692,0.5,0.5,0.483654341470434,0.483654341470434,0.572167245415356,0.483654341470434,0.5,0.5,0.437754227725202,0.562713609940954,0.596580348514332,0.403419651485668,0.596580348514332,0.5,0.320038647323159,0.88504536649865,0.403419651485668,0.0131883197346021,0.5,0.0326913170591311,1.09982103658992,3.95734434903393,2.67094061837162,0.5,70.7271569590313
CBC_1027,CBC_1027_MSI_TV_v3_Vset3_Tset3_2023-07-21_18h05.28.896.csv,4,42,2,3,z,0,1,3,tac,D,63,1,2D,3D,0,1,z,1.80908380000255,0,1,1,1,3D,2D,D23,2.94443897916644,0.609768668248934,0.483654341470434,0.5,0.5,0.452548638759569,0.574201018194692,0.5,0.5,0.483654341470434,0.483654341470434,0.572167245415356,0.483654341470434,0.5,0.5,0.437754227725202,0.562713609940954,0.623038186660447,0.376961813339553,0.562713609940954,0.437754227725202,0.666104080489968,0.931261227698311,0.437286390059046,0.0142954680230632,0.5,0.0326913170591311,1.09982103658992,3.95734434903393,2.67094061837162,0.5,70.7271569590313
CBC_1027,CBC_1027_MSI_TV_v3_Vset3_Tset3_2023-07-21_18h05.28.896.csv,4,43,1,3,b,1,0,2,tac,B,27,1,1B,3B,1,0,b,2.30724050000572,1,0,1,1,1B,3B,B13,3.36729582998647,0.609768668248934,0.483654341470434,0.5,0.5,0.452548638759569,0.574201018194692,0.5,0.5,0.483654341470434,0.483654341470434,0.572167245415356,0.483654341470434,0.5,0.5,0.437754227725202,0.577009077964017,0.574201018194692,0.425798981805308,0.574201018194692,0.5,0.338832920092604,0.828064234299425,0.425798981805308,0.0139199295176525,0.5,0.0326913170591311,1.09982103658992,3.95734434903393,2.67094061837162,0.5,70.7271569590313
