ID,filename,session,trial,visStimLeft,visStimRight,correctKey,leftCorrect,rightCorrect,secondStim,mod2Type,mod2Stim,frequency,rewardAccurate,stimPairLeft,stimPairRight,pCorrectLeft,pCorrectRight,key,reactionTime,choiceLeft,choiceRight,choiceAccurate,reward,chosenPair,otherPair,triplet,surprise,0A belief,1A belief,2A belief,3A belief,0B belief,1B belief,2B belief,3B belief,0C belief,1C belief,2C belief,3C belief,0D belief,1D belief,2D belief,3D belief,beliefPairNorm,beliefOtherPairNorm,beliefPair,beliefOtherPair,lik,corrLik,rewardPE,update2,fitCBCsimpleRW_CBCdriftDiffusionLR_startBelief,fitCBCsimpleRW_CBCdriftDiffusionLR_alpha1,fitCBCsimpleRW_CBCdriftDiffusionLR_nonDecisionTime,fitCBCsimpleRW_CBCdriftDiffusionLR_weight,fitCBCsimpleRW_CBCdriftDiffusionLR_startingBoundary,fitCBCsimpleRW_CBCdriftDiffusionLR_startingPoint,fit_CBCsimpleRW_CBCdriftDiffusionLR_NLL
CBC_1051,CBC_1051_MSI_AV_v3_Vset1_Aset1_2024-05-03_16h25.09.705.csv,1,1,1,0,z,0,1,1,aud,A,63,1,1A,0A,0,1,z,2.17660109999997,0,1,1,1,0A,1A,A10,2.77258872223978,0.5,0.5,0.5,0.5,0.5,0.5,0.5,0.5,0.5,0.5,0.5,0.5,0.5,0.5,0.5,0.5,0.5,0.5,0.5,0.5,0.177336668786697,0.498809583944087,0.5,0.00241194359492747,0.5,0.00482388718985494,0.876863200969022,0.0417072806659503,2.33913687663023,0.5,77.787698532201
CBC_1051,CBC_1051_MSI_AV_v3_Vset1_Aset1_2024-05-03_16h25.09.705.csv,1,2,3,2,b,1,0,3,aud,D,63,1,3D,2D,1,0,z,1.3570765000004,0,1,0,0,2D,3D,D32,2.83321334405622,0.502411943594927,0.5,0.5,0.5,0.5,0.5,0.5,0.5,0.5,0.5,0.5,0.5,0.5,0.5,0.5,0.5,0.5,0.5,0.5,0.5,0.336540705599507,0.498634077917368,-0.5,-0.00241194359492747,0.5,0.00482388718985494,0.876863200969022,0.0417072806659503,2.33913687663023,0.5,77.787698532201
CBC_1051,CBC_1051_MSI_AV_v3_Vset1_Aset1_2024-05-03_16h25.09.705.csv,1,3,2,0,b,1,0,2,aud,C,27,1,2C,0C,1,0,b,3.07710850000149,1,0,1,1,2C,0C,C20,2.89037175789616,0.502411943594927,0.5,0.5,0.5,0.5,0.5,0.5,0.5,0.5,0.5,0.5,0.5,0.5,0.5,0.497588056405073,0.5,0.5,0.5,0.5,0.5,0.0787296042247732,0.498752571182014,0.5,0.00241194359492747,0.5,0.00482388718985494,0.876863200969022,0.0417072806659503,2.33913687663023,0.5,77.787698532201
CBC_1051,CBC_1051_MSI_AV_v3_Vset1_Aset1_2024-05-03_16h25.09.705.csv,1,4,1,0,z,0,1,1,aud,A,63,1,1A,0A,0,1,b,1.21020999999746,1,0,0,0,1A,0A,A10,2.2512917986065,0.502411943594927,0.5,0.5,0.5,0.5,0.5,0.5,0.5,0.5,0.5,0.502411943594927,0.5,0.5,0.5,0.497588056405073,0.5,0.498796929939663,0.501203070060337,0.5,0.502411943594927,0.312052987015994,0.500808373917914,-0.5,-0.00241194359492747,0.5,0.00482388718985494,0.876863200969022,0.0417072806659503,2.33913687663023,0.5,77.787698532201
CBC_1051,CBC_1051_MSI_AV_v3_Vset1_Aset1_2024-05-03_16h25.09.705.csv,1,5,3,1,z,0,1,0,aud,B,27,1,3B,1B,0,1,b,2.30048379999789,1,0,0,0,3B,1B,B31,2.99573227355399,0.502411943594927,0.497588056405073,0.5,0.5,0.5,0.5,0.5,0.5,0.5,0.5,0.502411943594927,0.5,0.5,0.5,0.497588056405073,0.5,0.5,0.5,0.5,0.5,0.15885949372106,0.499583409890525,-0.5,-0.00241194359492747,0.5,0.00482388718985494,0.876863200969022,0.0417072806659503,2.33913687663023,0.5,77.787698532201
CBC_1051,CBC_1051_MSI_AV_v3_Vset1_Aset1_2024-05-03_16h25.09.705.csv,1,6,2,3,b,1,0,2,aud,C,63,1,2C,3C,1,0,z,2.86913639999693,0,1,0,0,3C,2C,C23,3.04452243772342,0.502411943594927,0.497588056405073,0.5,0.5,0.5,0.5,0.5,0.497588056405073,0.5,0.5,0.502411943594927,0.5,0.5,0.5,0.497588056405073,0.5,0.498796929939663,0.501203070060337,0.5,0.502411943594927,0.0952049361426455,0.499971965099016,-0.5,-0.00241194359492747,0.5,0.00482388718985494,0.876863200969022,0.0417072806659503,2.33913687663023,0.5,77.787698532201
CBC_1051,CBC_1051_MSI_AV_v3_Vset1_Aset1_2024-05-03_16h25.09.705.csv,1,7,2,3,z,0,1,3,aud,D,63,1,2D,3D,0,1,b,2.87228009999671,1,0,0,0,2D,3D,D23,3.09104245335832,0.502411943594927,0.497588056405073,0.5,0.5,0.5,0.5,0.5,0.497588056405073,0.5,0.5,0.502411943594927,0.497588056405073,0.5,0.5,0.497588056405073,0.5,0.498791112433914,0.501208887566086,0.497588056405073,0.5,0.0949426544496419,0.500010237325676,-0.497588056405073,-0.00240030865111725,0.5,0.00482388718985494,0.876863200969022,0.0417072806659503,2.33913687663023,0.5,77.787698532201
CBC_1051,CBC_1051_MSI_AV_v3_Vset1_Aset1_2024-05-03_16h25.09.705.csv,1,8,1,0,b,1,0,0,aud,B,63,1,1B,0B,NaN,NaN,[],NaN,NaN,NaN,NaN,NaN,,,B10,3.13549421592915,0.502411943594927,0.497588056405073,0.5,0.5,0.5,0.5,0.5,0.497588056405073,0.5,0.5,0.502411943594927,0.497588056405073,0.5,0.5,0.495187747753955,0.5,0,0,0,0,NaN,0,0,0,0.5,0.00482388718985494,0.876863200969022,0.0417072806659503,2.33913687663023,0.5,77.787698532201
CBC_1051,CBC_1051_MSI_AV_v3_Vset1_Aset1_2024-05-03_16h25.09.705.csv,1,9,0,2,b,1,0,1,aud,A,27,1,0A,2A,1,0,z,3.09242809999705,0,1,0,0,2A,0A,A02,3.17805383034795,0.502411943594927,0.497588056405073,0.5,0.5,0.5,0.5,0.5,0.497588056405073,0.5,0.5,0.502411943594927,0.497588056405073,0.5,0.5,0.495187747753955,0.5,0.498796929939663,0.501203070060337,0.5,0.502411943594927,0.0777509279841775,0.499404613282041,-0.5,-0.00241194359492747,0.5,0.00482388718985494,0.876863200969022,0.0417072806659503,2.33913687663023,0.5,77.787698532201
CBC_1051,CBC_1051_MSI_AV_v3_Vset1_Aset1_2024-05-03_16h25.09.705.csv,1,10,0,3,z,0,1,3,aud,D,9,1,0D,3D,0,1,z,2.73319499999707,0,1,1,1,3D,0D,D03,3.2188758248682,0.502411943594927,0.497588056405073,0.497588056405073,0.5,0.5,0.5,0.5,0.497588056405073,0.5,0.5,0.502411943594927,0.497588056405073,0.5,0.5,0.495187747753955,0.5,0.5,0.5,0.5,0.5,0.10767610259313,0.500218610948498,0.5,0.00241194359492747,0.5,0.00482388718985494,0.876863200969022,0.0417072806659503,2.33913687663023,0.5,77.787698532201
CBC_1051,CBC_1051_MSI_AV_v3_Vset1_Aset1_2024-05-03_16h25.09.705.csv,1,11,3,2,z,0,1,2,aud,C,63,1,3C,2C,0,1,b,2.5783620000002,1,0,0,0,3C,2C,C32,3.25809653802148,0.502411943594927,0.497588056405073,0.497588056405073,0.5,0.5,0.5,0.5,0.497588056405073,0.5,0.5,0.502411943594927,0.497588056405073,0.5,0.5,0.495187747753955,0.502411943594927,0.497588056405073,0.502411943594927,0.497588056405073,0.502411943594927,0.12381285288208,0.50022310588243,-0.497588056405073,-0.00240030865111725,0.5,0.00482388718985494,0.876863200969022,0.0417072806659503,2.33913687663023,0.5,77.787698532201
CBC_1051,CBC_1051_MSI_AV_v3_Vset1_Aset1_2024-05-03_16h25.09.705.csv,1,12,1,0,b,1,0,0,aud,B,63,1,1B,0B,1,0,z,1.9191893999996,0,1,0,0,0B,1B,B10,2.60268968544438,0.502411943594927,0.497588056405073,0.497588056405073,0.5,0.5,0.5,0.5,0.497588056405073,0.5,0.5,0.502411943594927,0.495187747753955,0.5,0.5,0.495187747753955,0.502411943594927,0.5,0.5,0.5,0.5,0.223537265479057,0.49917948011835,-0.5,-0.00241194359492747,0.5,0.00482388718985494,0.876863200969022,0.0417072806659503,2.33913687663023,0.5,77.787698532201
CBC_1051,CBC_1051_MSI_AV_v3_Vset1_Aset1_2024-05-03_16h25.09.705.csv,1,13,3,2,b,1,0,3,aud,D,63,1,3D,2D,1,0,b,2.4863093999993,1,0,1,1,3D,2D,D32,2.63905732961526,0.502411943594927,0.497588056405073,0.497588056405073,0.5,0.497588056405073,0.5,0.5,0.497588056405073,0.5,0.5,0.502411943594927,0.495187747753955,0.5,0.5,0.495187747753955,0.502411943594927,0.503620788931482,0.496379211068518,0.502411943594927,0.495187747753955,0.134742961630834,0.501018625103087,0.497588056405073,0.00240030865111725,0.5,0.00482388718985494,0.876863200969022,0.0417072806659503,2.33913687663023,0.5,77.787698532201
CBC_1051,CBC_1051_MSI_AV_v3_Vset1_Aset1_2024-05-03_16h25.09.705.csv,1,14,3,2,z,0,1,2,aud,C,63,1,3C,2C,0,1,b,3.24985939999897,1,0,0,0,3C,2C,C32,2.67414864942653,0.502411943594927,0.497588056405073,0.497588056405073,0.5,0.497588056405073,0.5,0.5,0.497588056405073,0.5,0.5,0.502411943594927,0.495187747753955,0.5,0.5,0.495187747753955,0.504812252246045,0.496379211068518,0.503620788931482,0.495187747753955,0.502411943594927,0.0675597956296896,0.500148910971586,-0.495187747753955,-0.00238872983296342,0.5,0.00482388718985494,0.876863200969022,0.0417072806659503,2.33913687663023,0.5,77.787698532201
CBC_1051,CBC_1051_MSI_AV_v3_Vset1_Aset1_2024-05-03_16h25.09.705.csv,1,15,1,3,b,1,0,0,aud,B,27,1,1B,3B,1,0,b,2.17568659999961,1,0,1,1,1B,3B,B13,3.40119738166216,0.502411943594927,0.497588056405073,0.497588056405073,0.5,0.497588056405073,0.5,0.5,0.497588056405073,0.5,0.5,0.502411943594927,0.492799017920992,0.5,0.5,0.495187747753955,0.504812252246045,0.501208887566086,0.498791112433914,0.5,0.497588056405073,0.177844402333519,0.499826217266767,0.5,0.00241194359492747,0.5,0.00482388718985494,0.876863200969022,0.0417072806659503,2.33913687663023,0.5,77.787698532201
CBC_1051,CBC_1051_MSI_AV_v3_Vset1_Aset1_2024-05-03_16h25.09.705.csv,1,16,3,0,z,0,1,1,aud,A,9,1,3A,0A,NaN,NaN,[],NaN,NaN,NaN,NaN,NaN,,,A30,3.43398720448515,0.502411943594927,0.497588056405073,0.497588056405073,0.5,0.497588056405073,0.502411943594927,0.5,0.497588056405073,0.5,0.5,0.502411943594927,0.492799017920992,0.5,0.5,0.495187747753955,0.504812252246045,0,0,0,0,NaN,0,0,0,0.5,0.00482388718985494,0.876863200969022,0.0417072806659503,2.33913687663023,0.5,77.787698532201
CBC_1051,CBC_1051_MSI_AV_v3_Vset1_Aset1_2024-05-03_16h25.09.705.csv,1,17,3,2,b,1,0,3,aud,D,63,1,3D,2D,1,0,z,1.43304010000065,0,1,0,0,2D,3D,D32,2.36712361413162,0.502411943594927,0.497588056405073,0.497588056405073,0.5,0.497588056405073,0.502411943594927,0.5,0.497588056405073,0.5,0.5,0.502411943594927,0.492799017920992,0.5,0.5,0.495187747753955,0.504812252246045,0.495187747753955,0.504812252246045,0.495187747753955,0.504812252246045,0.328774601407847,0.499901845106957,-0.495187747753955,-0.00238872983296342,0.5,0.00482388718985494,0.876863200969022,0.0417072806659503,2.33913687663023,0.5,77.787698532201
CBC_1051,CBC_1051_MSI_AV_v3_Vset1_Aset1_2024-05-03_16h25.09.705.csv,1,18,2,0,b,1,0,2,aud,C,27,1,2C,0C,1,0,z,2.51855099999739,0,1,0,0,0C,2C,C20,2.80336038090653,0.502411943594927,0.497588056405073,0.497588056405073,0.5,0.497588056405073,0.502411943594927,0.5,0.497588056405073,0.5,0.5,0.502411943594927,0.492799017920992,0.5,0.5,0.492799017920992,0.504812252246045,0.498796929939663,0.501203070060337,0.5,0.502411943594927,0.130764369225141,0.5005683372003,-0.5,-0.00241194359492747,0.5,0.00482388718985494,0.876863200969022,0.0417072806659503,2.33913687663023,0.5,77.787698532201
CBC_1051,CBC_1051_MSI_AV_v3_Vset1_Aset1_2024-05-03_16h25.09.705.csv,1,19,1,0,z,0,1,1,aud,A,63,1,1A,0A,0,1,z,1.43823060000068,0,1,1,1,0A,1A,A10,2.42774823594805,0.502411943594927,0.497588056405073,0.497588056405073,0.5,0.497588056405073,0.502411943594927,0.5,0.497588056405073,0.497588056405073,0.5,0.502411943594927,0.492799017920992,0.5,0.5,0.492799017920992,0.504812252246045,0.502411943594927,0.497588056405073,0.502411943594927,0.497588056405073,0.327909795474082,0.499874305975204,0.497588056405073,0.00240030865111725,0.5,0.00482388718985494,0.876863200969022,0.0417072806659503,2.33913687663023,0.5,77.787698532201
CBC_1051,CBC_1051_MSI_AV_v3_Vset1_Aset1_2024-05-03_16h25.09.705.csv,1,20,0,1,z,0,1,0,aud,B,63,0,0B,1B,1,0,b,2.8874293000008,1,0,0,1,0B,1B,B01,3.55534806148941,0.504812252246045,0.497588056405073,0.497588056405073,0.5,0.497588056405073,0.502411943594927,0.5,0.497588056405073,0.497588056405073,0.5,0.502411943594927,0.492799017920992,0.5,0.5,0.492799017920992,0.504812252246045,0.497588056405073,0.502411943594927,0.497588056405073,0.502411943594927,0.0935897071770087,0.499665517750344,0.502411943594927,0.00242357853873769,0.5,0.00482388718985494,0.876863200969022,0.0417072806659503,2.33913687663023,0.5,77.787698532201
CBC_1051,CBC_1051_MSI_AV_v3_Vset1_Aset1_2024-05-03_16h25.09.705.csv,1,21,1,3,z,0,1,3,aud,D,27,1,1D,3D,0,1,z,2.79226639999979,0,1,1,1,3D,1D,D13,3.58351893845611,0.504812252246045,0.497588056405073,0.497588056405073,0.5,0.50001163494381,0.502411943594927,0.5,0.497588056405073,0.497588056405073,0.5,0.502411943594927,0.492799017920992,0.5,0.5,0.492799017920992,0.504812252246045,0.502394602690845,0.497605397309155,0.504812252246045,0.5,0.10191004817021,0.499338056210215,0.495187747753955,0.00238872983296342,0.5,0.00482388718985494,0.876863200969022,0.0417072806659503,2.33913687663023,0.5,77.787698532201
CBC_1051,CBC_1051_MSI_AV_v3_Vset1_Aset1_2024-05-03_16h25.09.705.csv,1,22,2,3,b,1,0,2,aud,C,63,1,2C,3C,1,0,b,2.74458909999885,1,0,1,1,2C,3C,C23,2.91777073208428,0.504812252246045,0.497588056405073,0.497588056405073,0.5,0.50001163494381,0.502411943594927,0.5,0.497588056405073,0.497588056405073,0.5,0.502411943594927,0.492799017920992,0.5,0.5,0.492799017920992,0.507200982079008,0.504829591938624,0.495170408061376,0.502411943594927,0.492799017920992,0.106426261951735,0.499519201092121,0.497588056405073,0.00240030865111725,0.5,0.00482388718985494,0.876863200969022,0.0417072806659503,2.33913687663023,0.5,77.787698532201
CBC_1051,CBC_1051_MSI_AV_v3_Vset1_Aset1_2024-05-03_16h25.09.705.csv,1,23,1,0,b,1,0,0,aud,B,63,1,1B,0B,1,0,b,2.6061093999997,1,0,1,1,1B,0B,B10,2.53897387105828,0.504812252246045,0.497588056405073,0.497588056405073,0.5,0.50001163494381,0.502411943594927,0.5,0.497588056405073,0.497588056405073,0.5,0.504812252246045,0.492799017920992,0.5,0.5,0.492799017920992,0.507200982079008,0.501197252689635,0.498802747310365,0.502411943594927,0.50001163494381,0.121006228247658,0.501271932458568,0.497588056405073,0.00240030865111725,0.5,0.00482388718985494,0.876863200969022,0.0417072806659503,2.33913687663023,0.5,77.787698532201
CBC_1051,CBC_1051_MSI_AV_v3_Vset1_Aset1_2024-05-03_16h25.09.705.csv,1,24,2,0,z,0,1,1,aud,A,27,1,2A,0A,0,1,b,1.08173689999967,1,0,0,0,2A,0A,A20,3.66356164612965,0.504812252246045,0.497588056405073,0.497588056405073,0.5,0.50001163494381,0.504812252246045,0.5,0.497588056405073,0.497588056405073,0.5,0.504812252246045,0.492799017920992,0.5,0.5,0.492799017920992,0.507200982079008,0.496396551468199,0.503603448531801,0.497588056405073,0.504812252246045,0.178755470618531,0.500449775442507,-0.497588056405073,-0.00240030865111725,0.5,0.00482388718985494,0.876863200969022,0.0417072806659503,2.33913687663023,0.5,77.787698532201
CBC_1051,CBC_1051_MSI_AV_v3_Vset1_Aset1_2024-05-03_16h25.09.705.csv,1,25,2,3,z,0,1,3,aud,D,63,1,2D,3D,0,1,z,3.28585469999962,0,1,1,1,3D,2D,D23,2.99573227355399,0.504812252246045,0.497588056405073,0.495187747753955,0.5,0.50001163494381,0.504812252246045,0.5,0.497588056405073,0.497588056405073,0.5,0.504812252246045,0.492799017920992,0.5,0.5,0.492799017920992,0.507200982079008,0.507200982079008,0.492799017920992,0.507200982079008,0.492799017920992,0.065392946796354,0.500081624907941,0.492799017920992,0.00237720686972217,0.5,0.00482388718985494,0.876863200969022,0.0417072806659503,2.33913687663023,0.5,77.787698532201
CBC_1051,CBC_1051_MSI_AV_v3_Vset1_Aset1_2024-05-03_16h25.09.705.csv,1,26,2,0,b,1,0,2,aud,C,27,1,2C,0C,1,0,b,1.83576789999643,1,0,1,1,2C,0C,C20,2.6149597780362,0.504812252246045,0.497588056405073,0.495187747753955,0.5,0.50001163494381,0.504812252246045,0.5,0.497588056405073,0.497588056405073,0.5,0.504812252246045,0.492799017920992,0.5,0.5,0.492799017920992,0.50957818894873,0.503603448531801,0.496396551468199,0.504812252246045,0.497588056405073,0.241039286655447,0.499923449228971,0.495187747753955,0.00238872983296342,0.5,0.00482388718985494,0.876863200969022,0.0417072806659503,2.33913687663023,0.5,77.787698532201
CBC_1051,CBC_1051_MSI_AV_v3_Vset1_Aset1_2024-05-03_16h25.09.705.csv,1,27,1,0,b,1,0,0,aud,B,63,1,1B,0B,1,0,z,1.65088589999868,0,1,0,0,0B,1B,B10,2.35137525716348,0.504812252246045,0.497588056405073,0.495187747753955,0.5,0.50001163494381,0.504812252246045,0.5,0.497588056405073,0.497588056405073,0.5,0.507200982079008,0.492799017920992,0.5,0.5,0.492799017920992,0.50957818894873,0.497611214580268,0.502388785419732,0.50001163494381,0.504812252246045,0.282825348433372,0.500664037393744,-0.50001163494381,-0.00241199972058387,0.5,0.00482388718985494,0.876863200969022,0.0417072806659503,2.33913687663023,0.5,77.787698532201
CBC_1051,CBC_1051_MSI_AV_v3_Vset1_Aset1_2024-05-03_16h25.09.705.csv,1,28,0,1,b,1,0,1,aud,A,63,1,0A,1A,1,0,b,2.0391664000017,1,0,1,1,0A,1A,A01,3.76120011569356,0.504812252246045,0.497588056405073,0.495187747753955,0.5,0.497599635223226,0.504812252246045,0.5,0.497588056405073,0.497588056405073,0.5,0.507200982079008,0.492799017920992,0.5,0.5,0.492799017920992,0.50957818894873,0.503603448531801,0.496396551468199,0.504812252246045,0.497588056405073,0.201098400413782,0.499919424801653,0.495187747753955,0.00238872983296342,0.5,0.00482388718985494,0.876863200969022,0.0417072806659503,2.33913687663023,0.5,77.787698532201
CBC_1051,CBC_1051_MSI_AV_v3_Vset1_Aset1_2024-05-03_16h25.09.705.csv,1,29,3,2,z,0,1,2,aud,C,63,1,3C,2C,0,1,b,1.66131280000263,1,0,0,0,3C,2C,C32,2.68557734525015,0.507200982079008,0.497588056405073,0.495187747753955,0.5,0.497599635223226,0.504812252246045,0.5,0.497588056405073,0.497588056405073,0.5,0.507200982079008,0.492799017920992,0.5,0.5,0.492799017920992,0.50957818894873,0.492799017920992,0.507200982079008,0.492799017920992,0.507200982079008,0.279958213945299,0.499858582427718,-0.492799017920992,-0.00237720686972217,0.5,0.00482388718985494,0.876863200969022,0.0417072806659503,2.33913687663023,0.5,77.787698532201
CBC_1051,CBC_1051_MSI_AV_v3_Vset1_Aset1_2024-05-03_16h25.09.705.csv,1,30,3,1,b,1,0,3,aud,D,27,1,3D,1D,1,0,z,2.39321139999811,0,1,0,0,1D,3D,D31,3.80666248977032,0.507200982079008,0.497588056405073,0.495187747753955,0.5,0.497599635223226,0.504812252246045,0.5,0.497588056405073,0.497588056405073,0.5,0.507200982079008,0.49042181105127,0.5,0.5,0.492799017920992,0.50957818894873,0.495256341186063,0.504743658813937,0.5,0.50957818894873,0.146105152171516,0.499526909044875,-0.5,-0.00241194359492747,0.5,0.00482388718985494,0.876863200969022,0.0417072806659503,2.33913687663023,0.5,77.787698532201
CBC_1051,CBC_1051_MSI_AV_v3_Vset1_Aset1_2024-05-03_16h25.09.705.csv,1,31,1,0,z,0,1,1,aud,A,63,1,1A,0A,0,1,z,1.82008989999667,0,1,1,1,0A,1A,A10,2.4423470353692,0.507200982079008,0.497588056405073,0.495187747753955,0.5,0.497599635223226,0.504812252246045,0.5,0.497588056405073,0.497588056405073,0.5,0.507200982079008,0.49042181105127,0.5,0.497588056405073,0.492799017920992,0.50957818894873,0.504783554211757,0.495216445788243,0.507200982079008,0.497588056405073,0.244665973406985,0.500498861657412,0.492799017920992,0.00237720686972217,0.5,0.00482388718985494,0.876863200969022,0.0417072806659503,2.33913687663023,0.5,77.787698532201
CBC_1051,CBC_1051_MSI_AV_v3_Vset1_Aset1_2024-05-03_16h25.09.705.csv,1,32,3,2,b,1,0,3,aud,D,63,1,3D,2D,1,0,b,2.57863240000006,1,0,1,1,3D,2D,D32,2.46385324059017,0.50957818894873,0.497588056405073,0.495187747753955,0.5,0.497599635223226,0.504812252246045,0.5,0.497588056405073,0.497588056405073,0.5,0.507200982079008,0.49042181105127,0.5,0.497588056405073,0.492799017920992,0.50957818894873,0.508369689031606,0.491630310968394,0.50957818894873,0.492799017920992,0.123721022684597,0.499973987765089,0.49042181105127,0.00236573949195568,0.5,0.00482388718985494,0.876863200969022,0.0417072806659503,2.33913687663023,0.5,77.787698532201
CBC_1051,CBC_1051_MSI_AV_v3_Vset1_Aset1_2024-05-03_16h25.09.705.csv,1,33,2,1,z,0,1,0,aud,B,9,1,2B,1B,0,1,b,1.89045120000083,1,0,0,0,2B,1B,B21,3.87120101090789,0.50957818894873,0.497588056405073,0.495187747753955,0.5,0.497599635223226,0.504812252246045,0.5,0.497588056405073,0.497588056405073,0.5,0.507200982079008,0.49042181105127,0.5,0.497588056405073,0.492799017920992,0.511943928440686,0.497605397309155,0.502394602690845,0.5,0.504812252246045,0.230043786043638,0.500753258769905,-0.5,-0.00241194359492747,0.5,0.00482388718985494,0.876863200969022,0.0417072806659503,2.33913687663023,0.5,77.787698532201
CBC_1051,CBC_1051_MSI_AV_v3_Vset1_Aset1_2024-05-03_16h25.09.705.csv,1,34,1,0,z,0,1,1,aud,A,63,1,1A,0A,0,1,z,1.12896460000047,0,1,1,1,0A,1A,A10,2.28238238567653,0.50957818894873,0.497588056405073,0.495187747753955,0.5,0.497599635223226,0.504812252246045,0.497588056405073,0.497588056405073,0.497588056405073,0.5,0.507200982079008,0.49042181105127,0.5,0.497588056405073,0.492799017920992,0.511943928440686,0.505952409842452,0.494047590157549,0.50957818894873,0.497588056405073,0.244269986183593,0.499456645290506,0.49042181105127,0.00236573949195568,0.5,0.00482388718985494,0.876863200969022,0.0417072806659503,2.33913687663023,0.5,77.787698532201
CBC_1051,CBC_1051_MSI_AV_v3_Vset1_Aset1_2024-05-03_16h25.09.705.csv,1,35,2,1,b,1,0,2,aud,C,9,1,2C,1C,1,0,z,2.31324799999857,0,1,0,0,1C,2C,C21,3.91202300542815,0.511943928440686,0.497588056405073,0.495187747753955,0.5,0.497599635223226,0.504812252246045,0.497588056405073,0.497588056405073,0.497588056405073,0.5,0.507200982079008,0.49042181105127,0.5,0.497588056405073,0.492799017920992,0.511943928440686,0.496425250666384,0.503574749333616,0.5,0.507200982079008,0.156957479969712,0.499312584600815,-0.5,-0.00241194359492747,0.5,0.00482388718985494,0.876863200969022,0.0417072806659503,2.33913687663023,0.5,77.787698532201
CBC_1051,CBC_1051_MSI_AV_v3_Vset1_Aset1_2024-05-03_16h25.09.705.csv,1,36,1,0,b,1,0,0,aud,B,63,1,1B,0B,1,0,b,1.61254040000131,1,0,1,1,1B,0B,B10,2.32238772029023,0.511943928440686,0.497588056405073,0.495187747753955,0.5,0.497599635223226,0.504812252246045,0.497588056405073,0.497588056405073,0.497588056405073,0.497588056405073,0.507200982079008,0.49042181105127,0.5,0.497588056405073,0.492799017920992,0.511943928440686,0.503597631429246,0.496402368570754,0.504812252246045,0.497599635223226,0.291496659173963,0.500290142917633,0.495187747753955,0.00238872983296342,0.5,0.00482388718985494,0.876863200969022,0.0417072806659503,2.33913687663023,0.5,77.787698532201
CBC_1051,CBC_1051_MSI_AV_v3_Vset1_Aset1_2024-05-03_16h25.09.705.csv,1,37,0,1,b,1,0,1,aud,A,63,0,0A,1A,0,1,b,1.61197299999913,1,0,1,0,0A,1A,A01,3.25809653802148,0.511943928440686,0.497588056405073,0.495187747753955,0.5,0.497599635223226,0.507200982079008,0.497588056405073,0.497588056405073,0.497588056405073,0.497588056405073,0.507200982079008,0.49042181105127,0.5,0.497588056405073,0.492799017920992,0.511943928440686,0.507110162060792,0.492889837939208,0.511943928440686,0.497588056405073,0.29170834472895,0.500428221930429,-0.511943928440686,-0.00246955975832904,0.5,0.00482388718985494,0.876863200969022,0.0417072806659503,2.33913687663023,0.5,77.787698532201
CBC_1051,CBC_1051_MSI_AV_v3_Vset1_Aset1_2024-05-03_16h25.09.705.csv,1,38,0,1,z,0,1,0,aud,B,63,1,0B,1B,0,1,b,2.43618670000069,1,0,0,0,0B,1B,B01,3.27714473299218,0.509474368682357,0.497588056405073,0.495187747753955,0.5,0.497599635223226,0.507200982079008,0.497588056405073,0.497588056405073,0.497588056405073,0.497588056405073,0.507200982079008,0.49042181105127,0.5,0.497588056405073,0.492799017920992,0.511943928440686,0.495222262660646,0.504777737339354,0.497599635223226,0.507200982079008,0.140755424707636,0.500247971740972,-0.497599635223226,-0.00240036450602981,0.5,0.00482388718985494,0.876863200969022,0.0417072806659503,2.33913687663023,0.5,77.787698532201
CBC_1051,CBC_1051_MSI_AV_v3_Vset1_Aset1_2024-05-03_16h25.09.705.csv,1,39,1,3,z,0,1,3,aud,D,27,1,1D,3D,0,1,b,1.71705169999768,1,0,0,0,1D,3D,D13,3.29583686600433,0.509474368682357,0.497588056405073,0.495187747753955,0.5,0.495199270717196,0.507200982079008,0.497588056405073,0.497588056405073,0.497588056405073,0.497588056405073,0.507200982079008,0.49042181105127,0.5,0.497588056405073,0.492799017920992,0.511943928440686,0.492889837939208,0.507110162060792,0.497588056405073,0.511943928440686,0.266816722965707,0.499210273495022,-0.497588056405073,-0.00240030865111725,0.5,0.00482388718985494,0.876863200969022,0.0417072806659503,2.33913687663023,0.5,77.787698532201
CBC_1051,CBC_1051_MSI_AV_v3_Vset1_Aset1_2024-05-03_16h25.09.705.csv,1,40,3,2,z,0,1,2,aud,C,63,1,3C,2C,0,1,b,2.61744579999868,1,0,0,0,3C,2C,C32,2.62103882411258,0.509474368682357,0.497588056405073,0.495187747753955,0.5,0.495199270717196,0.507200982079008,0.497588056405073,0.497588056405073,0.497588056405073,0.497588056405073,0.507200982079008,0.49042181105127,0.5,0.495187747753955,0.492799017920992,0.511943928440686,0.491590423182348,0.508409576817652,0.49042181105127,0.507200982079008,0.119305609819571,0.499305372466181,-0.49042181105127,-0.00236573949195568,0.5,0.00482388718985494,0.876863200969022,0.0417072806659503,2.33913687663023,0.5,77.787698532201
CBC_1051,CBC_1051_MSI_AV_v3_Vset1_Aset1_2024-05-03_16h25.09.705.csv,1,41,0,2,b,1,0,1,aud,A,27,1,0A,2A,1,0,z,1.03571649999867,0,1,0,0,2A,0A,A02,3.3322045101752,0.509474368682357,0.497588056405073,0.495187747753955,0.5,0.495199270717196,0.507200982079008,0.497588056405073,0.497588056405073,0.497588056405073,0.497588056405073,0.507200982079008,0.488056071559314,0.5,0.495187747753955,0.492799017920992,0.511943928440686,0.492889837939208,0.507110162060792,0.495187747753955,0.509474368682357,0.0994511344690005,0.500034006959832,-0.495187747753955,-0.00238872983296342,0.5,0.00482388718985494,0.876863200969022,0.0417072806659503,2.33913687663023,0.5,77.787698532201
CBC_1051,CBC_1051_MSI_AV_v3_Vset1_Aset1_2024-05-03_16h25.09.705.csv,1,42,2,3,z,0,1,3,aud,D,63,1,2D,3D,0,1,b,2.11018889999832,1,0,0,0,2D,3D,D23,2.94443897916644,0.509474368682357,0.497588056405073,0.492799017920992,0.5,0.495199270717196,0.507200982079008,0.497588056405073,0.497588056405073,0.497588056405073,0.497588056405073,0.507200982079008,0.488056071559314,0.5,0.495187747753955,0.492799017920992,0.511943928440686,0.490472732060961,0.509527267939039,0.492799017920992,0.511943928440686,0.18849143905639,0.499439235307535,-0.492799017920992,-0.00237720686972217,0.5,0.00482388718985494,0.876863200969022,0.0417072806659503,2.33913687663023,0.5,77.787698532201
CBC_1051,CBC_1051_MSI_AV_v3_Vset1_Aset1_2024-05-03_16h25.09.705.csv,1,43,1,3,b,1,0,0,aud,B,27,1,1B,3B,1,0,b,2.633199099997,1,0,1,1,1B,3B,B13,3.36729582998647,0.509474368682357,0.497588056405073,0.492799017920992,0.5,0.495199270717196,0.507200982079008,0.497588056405073,0.497588056405073,0.497588056405073,0.497588056405073,0.507200982079008,0.488056071559314,0.5,0.495187747753955,0.49042181105127,0.511943928440686,0.504783554211757,0.495216445788243,0.507200982079008,0.497588056405073,0.117684521267095,0.499567955954808,0.492799017920992,0.00237720686972217,0.5,0.00482388718985494,0.876863200969022,0.0417072806659503,2.33913687663023,0.5,77.787698532201
CBC_1051,CBC_1051_MSI_AV_v3_Vset1_Aset1_2024-05-03_16h25.09.705.csv,1,44,3,2,z,0,1,2,aud,C,63,1,3C,2C,0,1,z,3.06426450000072,0,1,1,1,2C,3C,C32,2.46809953147162,0.509474368682357,0.497588056405073,0.492799017920992,0.5,0.495199270717196,0.50957818894873,0.497588056405073,0.497588056405073,0.497588056405073,0.497588056405073,0.507200982079008,0.488056071559314,0.5,0.495187747753955,0.49042181105127,0.511943928440686,0.509618073265448,0.490381926734552,0.507200982079008,0.488056071559314,0.0799445066745485,0.500615425144715,0.492799017920992,0.00237720686972217,0.5,0.00482388718985494,0.876863200969022,0.0417072806659503,2.33913687663023,0.5,77.787698532201
CBC_1051,CBC_1051_MSI_TV_v3_Vset2_Tset1_2024-05-03_17h13.22.033.csv,2,1,0,1,z,0,1,0,tac,B,63,1,0B,1B,0,1,b,1.45111499999985,1,0,0,0,0B,1B,B01,2.77258872223978,0.5,0.5,0.5,0.5,0.5,0.5,0.5,0.5,0.5,0.5,0.5,0.5,0.5,0.5,0.5,0.5,0.5,0.5,0.5,0.5,0.0955309606726561,0.499775040618377,-0.5,-0.18382878618049,0.5,0.36765757236098,1.09764769848938,2.25132343581469,3.11526627405633,0.5,68.2550307657128
CBC_1051,CBC_1051_MSI_TV_v3_Vset2_Tset1_2024-05-03_17h13.22.033.csv,2,2,1,0,z,0,1,1,tac,A,63,1,1A,0A,0,1,z,2.70806789999915,0,1,1,1,0A,1A,A10,2.83321334405622,0.5,0.5,0.5,0.5,0.31617121381951,0.5,0.5,0.5,0.5,0.5,0.5,0.5,0.5,0.5,0.5,0.5,0.5,0.5,0.5,0.5,0.142111516316067,0.499964124259564,0.5,0.18382878618049,0.5,0.36765757236098,1.09764769848938,2.25132343581469,3.11526627405633,0.5,68.2550307657128
CBC_1051,CBC_1051_MSI_TV_v3_Vset2_Tset1_2024-05-03_17h13.22.033.csv,2,3,2,1,b,1,0,2,tac,C,9,1,2C,1C,1,0,b,2.62259279999853,1,0,1,1,2C,1C,C21,2.89037175789616,0.68382878618049,0.5,0.5,0.5,0.31617121381951,0.5,0.5,0.5,0.5,0.5,0.5,0.5,0.5,0.5,0.5,0.5,0.5,0.5,0.5,0.5,0.148188604152408,0.500065238262947,0.5,0.18382878618049,0.5,0.36765757236098,1.09764769848938,2.25132343581469,3.11526627405633,0.5,68.2550307657128
CBC_1051,CBC_1051_MSI_TV_v3_Vset2_Tset1_2024-05-03_17h13.22.033.csv,2,4,0,1,b,1,0,1,tac,A,63,1,0A,1A,1,0,b,2.36873399999968,1,0,1,1,0A,1A,A01,2.94443897916644,0.68382878618049,0.5,0.5,0.5,0.31617121381951,0.5,0.5,0.5,0.5,0.5,0.68382878618049,0.5,0.5,0.5,0.5,0.5,0.577641627035272,0.422358372964727,0.68382878618049,0.5,0.266132120772905,0.748624666978978,0.31617121381951,0.116242740923305,0.5,0.36765757236098,1.09764769848938,2.25132343581469,3.11526627405633,0.5,68.2550307657128
CBC_1051,CBC_1051_MSI_TV_v3_Vset2_Tset1_2024-05-03_17h13.22.033.csv,2,5,1,3,z,0,1,3,tac,D,27,1,1D,3D,0,1,z,2.51931550000154,0,1,1,1,3D,1D,D13,2.99573227355399,0.800071527103795,0.5,0.5,0.5,0.31617121381951,0.5,0.5,0.5,0.5,0.5,0.68382878618049,0.5,0.5,0.5,0.5,0.5,0.5,0.5,0.5,0.5,0.155760084257835,0.500319681403208,0.5,0.18382878618049,0.5,0.36765757236098,1.09764769848938,2.25132343581469,3.11526627405633,0.5,68.2550307657128
CBC_1051,CBC_1051_MSI_TV_v3_Vset2_Tset1_2024-05-03_17h13.22.033.csv,2,6,1,0,b,1,0,0,tac,B,63,1,1B,0B,1,0,b,2.90356520000205,1,0,1,1,1B,0B,B10,3.04452243772342,0.800071527103795,0.5,0.5,0.5,0.31617121381951,0.5,0.5,0.5,0.5,0.5,0.68382878618049,0.5,0.5,0.5,0.5,0.68382878618049,0.61261655830779,0.387383441692209,0.5,0.31617121381951,0.225227102309373,0.829028570962551,0.5,0.18382878618049,0.5,0.36765757236098,1.09764769848938,2.25132343581469,3.11526627405633,0.5,68.2550307657128
CBC_1051,CBC_1051_MSI_TV_v3_Vset2_Tset1_2024-05-03_17h13.22.033.csv,2,7,3,2,z,0,1,2,tac,C,63,1,3C,2C,0,1,z,3.33921610000107,0,1,1,1,2C,3C,C32,3.09104245335832,0.800071527103795,0.5,0.5,0.5,0.31617121381951,0.68382878618049,0.5,0.5,0.5,0.5,0.68382878618049,0.5,0.5,0.5,0.5,0.68382878618049,0.577641627035272,0.422358372964727,0.68382878618049,0.5,0.155422038823266,0.747346840010143,0.31617121381951,0.116242740923305,0.5,0.36765757236098,1.09764769848938,2.25132343581469,3.11526627405633,0.5,68.2550307657128
CBC_1051,CBC_1051_MSI_TV_v3_Vset2_Tset1_2024-05-03_17h13.22.033.csv,2,8,0,2,b,1,0,1,tac,A,27,1,0A,2A,1,0,b,2.94129579999935,1,0,1,1,0A,2A,A02,3.13549421592915,0.800071527103795,0.5,0.5,0.5,0.31617121381951,0.68382878618049,0.5,0.5,0.5,0.5,0.800071527103795,0.5,0.5,0.5,0.5,0.68382878618049,0.615405776085364,0.384594223914636,0.800071527103795,0.5,0.221749607625626,0.834869924697596,0.199928472896205,0.0735052169908566,0.5,0.36765757236098,1.09764769848938,2.25132343581469,3.11526627405633,0.5,68.2550307657128
CBC_1051,CBC_1051_MSI_TV_v3_Vset2_Tset1_2024-05-03_17h13.22.033.csv,2,9,2,3,z,0,1,3,tac,D,63,1,2D,3D,0,1,z,3.59057969999776,0,1,1,1,3D,2D,D23,3.17805383034795,0.873576744094652,0.5,0.5,0.5,0.31617121381951,0.68382878618049,0.5,0.5,0.5,0.5,0.800071527103795,0.5,0.5,0.5,0.5,0.68382878618049,0.577641627035272,0.422358372964727,0.68382878618049,0.5,0.134850900756335,0.748082566284525,0.31617121381951,0.116242740923305,0.5,0.36765757236098,1.09764769848938,2.25132343581469,3.11526627405633,0.5,68.2550307657128
CBC_1051,CBC_1051_MSI_TV_v3_Vset2_Tset1_2024-05-03_17h13.22.033.csv,2,10,1,3,b,1,0,0,tac,B,27,1,1B,3B,1,0,z,2.7097978999991,0,1,0,0,3B,1B,B13,3.2188758248682,0.873576744094652,0.5,0.5,0.5,0.31617121381951,0.68382878618049,0.5,0.5,0.5,0.5,0.800071527103795,0.5,0.5,0.5,0.5,0.800071527103795,0.422358372964727,0.577641627035272,0.5,0.68382878618049,0.0744456349655181,0.251042964339846,-0.5,-0.18382878618049,0.5,0.36765757236098,1.09764769848938,2.25132343581469,3.11526627405633,0.5,68.2550307657128
CBC_1051,CBC_1051_MSI_TV_v3_Vset2_Tset1_2024-05-03_17h13.22.033.csv,2,11,2,3,b,1,0,2,tac,C,63,1,2C,3C,1,0,z,2.25165310000011,0,1,0,0,3C,2C,C23,3.25809653802148,0.873576744094652,0.5,0.5,0.5,0.31617121381951,0.68382878618049,0.5,0.31617121381951,0.5,0.5,0.800071527103795,0.5,0.5,0.5,0.5,0.800071527103795,0.384594223914636,0.615405776085364,0.5,0.800071527103795,0.0665509732813839,0.164958407649943,-0.5,-0.18382878618049,0.5,0.36765757236098,1.09764769848938,2.25132343581469,3.11526627405633,0.5,68.2550307657128
CBC_1051,CBC_1051_MSI_TV_v3_Vset2_Tset1_2024-05-03_17h13.22.033.csv,2,12,3,1,z,0,1,0,tac,B,27,1,3B,1B,0,1,z,1.81397490000018,0,1,1,1,1B,3B,B31,3.29583686600433,0.873576744094652,0.5,0.5,0.5,0.31617121381951,0.68382878618049,0.5,0.31617121381951,0.5,0.5,0.800071527103795,0.31617121381951,0.5,0.5,0.5,0.800071527103795,0.68382878618049,0.31617121381951,0.68382878618049,0.31617121381951,0.535278786888064,0.929468545887898,0.31617121381951,0.116242740923305,0.5,0.36765757236098,1.09764769848938,2.25132343581469,3.11526627405633,0.5,68.2550307657128
CBC_1051,CBC_1051_MSI_TV_v3_Vset2_Tset1_2024-05-03_17h13.22.033.csv,2,13,2,3,b,1,0,2,tac,C,63,1,2C,3C,1,0,b,2.37071580000338,1,0,1,1,2C,3C,C23,2.63905732961526,0.873576744094652,0.5,0.5,0.5,0.31617121381951,0.800071527103795,0.5,0.31617121381951,0.5,0.5,0.800071527103795,0.31617121381951,0.5,0.5,0.5,0.800071527103795,0.716754069497475,0.283245930502524,0.800071527103795,0.31617121381951,0.415540914142235,0.954460939972457,0.199928472896205,0.0735052169908566,0.5,0.36765757236098,1.09764769848938,2.25132343581469,3.11526627405633,0.5,68.2550307657128
CBC_1051,CBC_1051_MSI_TV_v3_Vset2_Tset1_2024-05-03_17h13.22.033.csv,2,14,2,3,z,0,1,3,tac,D,63,1,2D,3D,0,1,z,2.46285780000107,0,1,1,1,3D,2D,D23,2.67414864942653,0.873576744094652,0.5,0.5,0.5,0.31617121381951,0.800071527103795,0.5,0.31617121381951,0.5,0.5,0.873576744094652,0.31617121381951,0.5,0.5,0.5,0.800071527103795,0.615405776085364,0.384594223914636,0.800071527103795,0.5,0.298605482524517,0.83466218511237,0.199928472896205,0.0735052169908566,0.5,0.36765757236098,1.09764769848938,2.25132343581469,3.11526627405633,0.5,68.2550307657128
CBC_1051,CBC_1051_MSI_TV_v3_Vset2_Tset1_2024-05-03_17h13.22.033.csv,2,15,3,0,z,0,1,1,tac,A,9,1,3A,0A,0,1,z,2.52667199999996,0,1,1,1,0A,3A,A30,3.40119738166216,0.873576744094652,0.5,0.5,0.5,0.31617121381951,0.800071527103795,0.5,0.31617121381951,0.5,0.5,0.873576744094652,0.31617121381951,0.5,0.5,0.5,0.873576744094652,0.635986848095948,0.364013151904052,0.873576744094652,0.5,0.307646233776564,0.870159412975253,0.126423255905348,0.0464804673561312,0.5,0.36765757236098,1.09764769848938,2.25132343581469,3.11526627405633,0.5,68.2550307657128
CBC_1051,CBC_1051_MSI_TV_v3_Vset2_Tset1_2024-05-03_17h13.22.033.csv,2,16,1,0,b,1,0,0,tac,B,63,0,1B,0B,0,1,z,2.74562980000337,0,1,0,1,0B,1B,B10,2.7408400239252,0.920057211450783,0.5,0.5,0.5,0.31617121381951,0.800071527103795,0.5,0.31617121381951,0.5,0.5,0.873576744094652,0.31617121381951,0.5,0.5,0.5,0.873576744094652,0.283245930502524,0.716754069497475,0.31617121381951,0.800071527103795,0.0139445150417789,0.0457176089390494,0.68382878618049,0.251414831437675,0.5,0.36765757236098,1.09764769848938,2.25132343581469,3.11526627405633,0.5,68.2550307657128
CBC_1051,CBC_1051_MSI_TV_v3_Vset2_Tset1_2024-05-03_17h13.22.033.csv,2,17,3,2,b,1,0,3,tac,D,63,1,3D,2D,1,0,b,2.50900929999989,1,0,1,1,3D,2D,D32,3.46573590279973,0.920057211450783,0.5,0.5,0.5,0.567586045257185,0.800071527103795,0.5,0.31617121381951,0.5,0.5,0.873576744094652,0.31617121381951,0.5,0.5,0.5,0.873576744094652,0.635986848095948,0.364013151904052,0.873576744094652,0.5,0.311520401894979,0.870621601288648,0.126423255905348,0.0464804673561312,0.5,0.36765757236098,1.09764769848938,2.25132343581469,3.11526627405633,0.5,68.2550307657128
CBC_1051,CBC_1051_MSI_TV_v3_Vset2_Tset1_2024-05-03_17h13.22.033.csv,2,18,2,0,b,1,0,2,tac,C,27,1,2C,0C,1,0,z,1.92535590000261,0,1,0,0,0C,2C,C20,3.49650756146648,0.920057211450783,0.5,0.5,0.5,0.567586045257185,0.800071527103795,0.5,0.31617121381951,0.5,0.5,0.873576744094652,0.31617121381951,0.5,0.5,0.5,0.920057211450783,0.364013151904052,0.635986848095948,0.5,0.873576744094652,0.0628720766616165,0.129268485545853,-0.5,-0.18382878618049,0.5,0.36765757236098,1.09764769848938,2.25132343581469,3.11526627405633,0.5,68.2550307657128
CBC_1051,CBC_1051_MSI_TV_v3_Vset2_Tset1_2024-05-03_17h13.22.033.csv,2,19,1,0,z,0,1,1,tac,A,63,1,1A,0A,0,1,z,2.47438490000422,0,1,1,1,0A,1A,A10,2.83321334405622,0.920057211450783,0.5,0.5,0.5,0.567586045257185,0.800071527103795,0.5,0.31617121381951,0.31617121381951,0.5,0.873576744094652,0.31617121381951,0.5,0.5,0.5,0.920057211450783,0.647901509905237,0.352098490094763,0.920057211450783,0.5,0.330160860867844,0.887883263373643,0.0799427885492168,0.0293915715657722,0.5,0.36765757236098,1.09764769848938,2.25132343581469,3.11526627405633,0.5,68.2550307657128
CBC_1051,CBC_1051_MSI_TV_v3_Vset2_Tset1_2024-05-03_17h13.22.033.csv,2,20,0,1,z,0,1,0,tac,B,63,1,0B,1B,0,1,b,3.80118200000288,1,0,0,0,0B,1B,B01,2.86220088092947,0.949448783016555,0.5,0.5,0.5,0.567586045257185,0.800071527103795,0.5,0.31617121381951,0.31617121381951,0.5,0.873576744094652,0.31617121381951,0.5,0.5,0.5,0.920057211450783,0.415005961088172,0.584994038911828,0.567586045257185,0.800071527103795,0.0371377742950232,0.233643084653775,-0.567586045257185,-0.208677307505226,0.5,0.36765757236098,1.09764769848938,2.25132343581469,3.11526627405633,0.5,68.2550307657128
CBC_1051,CBC_1051_MSI_TV_v3_Vset2_Tset1_2024-05-03_17h13.22.033.csv,2,21,3,1,b,1,0,3,tac,D,27,1,3D,1D,1,0,b,4.18418820000079,1,0,1,1,3D,1D,D31,3.58351893845611,0.949448783016555,0.5,0.5,0.5,0.358908737751959,0.800071527103795,0.5,0.31617121381951,0.31617121381951,0.5,0.873576744094652,0.31617121381951,0.5,0.5,0.5,0.920057211450783,0.647901509905237,0.352098490094763,0.920057211450783,0.5,0.0959336306181371,0.888165969145505,0.0799427885492168,0.0293915715657722,0.5,0.36765757236098,1.09764769848938,2.25132343581469,3.11526627405633,0.5,68.2550307657128
CBC_1051,CBC_1051_MSI_TV_v3_Vset2_Tset1_2024-05-03_17h13.22.033.csv,2,22,2,3,b,1,0,2,tac,C,63,1,2C,3C,1,0,b,2.02530489999845,1,0,1,1,2C,3C,C23,2.51230562397611,0.949448783016555,0.5,0.5,0.5,0.358908737751959,0.800071527103795,0.5,0.31617121381951,0.31617121381951,0.5,0.873576744094652,0.31617121381951,0.5,0.5,0.5,0.949448783016555,0.734253619250741,0.265746380749259,0.873576744094652,0.31617121381951,0.580699886193544,0.964033755326424,0.126423255905348,0.0464804673561312,0.5,0.36765757236098,1.09764769848938,2.25132343581469,3.11526627405633,0.5,68.2550307657128
CBC_1051,CBC_1051_MSI_TV_v3_Vset2_Tset1_2024-05-03_17h13.22.033.csv,2,23,1,0,z,0,1,1,tac,A,63,1,1A,0A,0,1,z,2.46226100000058,0,1,1,1,0A,1A,A10,2.53897387105828,0.949448783016555,0.5,0.5,0.5,0.358908737751959,0.800071527103795,0.5,0.31617121381951,0.31617121381951,0.5,0.920057211450783,0.31617121381951,0.5,0.5,0.5,0.949448783016555,0.655041277857771,0.344958722142229,0.949448783016555,0.5,0.340238771907091,0.898211070521067,0.0505512169834446,0.0185855377160264,0.5,0.36765757236098,1.09764769848938,2.25132343581469,3.11526627405633,0.5,68.2550307657128
CBC_1051,CBC_1051_MSI_TV_v3_Vset2_Tset1_2024-05-03_17h13.22.033.csv,2,24,3,2,b,1,0,3,tac,D,63,1,3D,2D,1,0,b,2.35033769999791,1,0,1,1,3D,2D,D32,2.9704144655697,0.968034320732582,0.5,0.5,0.5,0.358908737751959,0.800071527103795,0.5,0.31617121381951,0.31617121381951,0.5,0.920057211450783,0.31617121381951,0.5,0.5,0.5,0.949448783016555,0.655041277857771,0.344958722142229,0.949448783016555,0.5,0.367422469395393,0.897973391808712,0.0505512169834446,0.0185855377160264,0.5,0.36765757236098,1.09764769848938,2.25132343581469,3.11526627405633,0.5,68.2550307657128
CBC_1051,CBC_1051_MSI_TV_v3_Vset2_Tset1_2024-05-03_17h13.22.033.csv,2,25,0,2,z,0,1,2,tac,C,27,1,0C,2C,0,1,z,2.47503750000033,0,1,1,1,2C,0C,C02,3.68887945411394,0.968034320732582,0.5,0.5,0.5,0.358908737751959,0.800071527103795,0.5,0.31617121381951,0.31617121381951,0.5,0.920057211450783,0.31617121381951,0.5,0.5,0.5,0.968034320732582,0.744245313118098,0.255754686881901,0.920057211450783,0.31617121381951,0.383121279755299,0.968368194368625,0.0799427885492168,0.0293915715657722,0.5,0.36765757236098,1.09764769848938,2.25132343581469,3.11526627405633,0.5,68.2550307657128
CBC_1051,CBC_1051_MSI_TV_v3_Vset2_Tset1_2024-05-03_17h13.22.033.csv,2,26,1,0,z,0,1,1,tac,A,63,1,1A,0A,0,1,z,3.02927110000019,0,1,1,1,0A,1A,A10,2.32727770558442,0.968034320732582,0.5,0.5,0.5,0.358908737751959,0.800071527103795,0.5,0.31617121381951,0.31617121381951,0.5,0.949448783016555,0.31617121381951,0.5,0.5,0.5,0.968034320732582,0.659408507731285,0.340591492268715,0.968034320732582,0.5,0.225159360888468,0.903243328663013,0.0319656792674182,0.0117524240383287,0.5,0.36765757236098,1.09764769848938,2.25132343581469,3.11526627405633,0.5,68.2550307657128
CBC_1051,CBC_1051_MSI_TV_v3_Vset2_Tset1_2024-05-03_17h13.22.033.csv,2,27,3,1,z,0,1,0,tac,B,27,1,3B,1B,0,1,z,2.75845420000405,0,1,1,1,1B,3B,B31,3.04452243772342,0.97978674477091,0.5,0.5,0.5,0.358908737751959,0.800071527103795,0.5,0.31617121381951,0.31617121381951,0.5,0.949448783016555,0.31617121381951,0.5,0.5,0.5,0.968034320732582,0.716754069497475,0.283245930502524,0.800071527103795,0.31617121381951,0.287463127660692,0.954356885102792,0.199928472896205,0.0735052169908566,0.5,0.36765757236098,1.09764769848938,2.25132343581469,3.11526627405633,0.5,68.2550307657128
CBC_1051,CBC_1051_MSI_TV_v3_Vset2_Tset1_2024-05-03_17h13.22.033.csv,2,28,2,3,b,1,0,2,tac,C,63,1,2C,3C,1,0,b,1.63495980000152,1,0,1,1,2C,3C,C23,2.37490575457367,0.97978674477091,0.5,0.5,0.5,0.358908737751959,0.873576744094652,0.5,0.31617121381951,0.31617121381951,0.5,0.949448783016555,0.31617121381951,0.5,0.5,0.5,0.968034320732582,0.750184720050324,0.249815279949676,0.949448783016555,0.31617121381951,0.678961579870325,0.971026903717755,0.0505512169834446,0.0185855377160264,0.5,0.36765757236098,1.09764769848938,2.25132343581469,3.11526627405633,0.5,68.2550307657128
CBC_1051,CBC_1051_MSI_TV_v3_Vset2_Tset1_2024-05-03_17h13.22.033.csv,2,29,2,3,z,0,1,3,tac,D,63,1,2D,3D,0,1,z,2.57859470000039,0,1,1,1,3D,2D,D23,2.68557734525015,0.97978674477091,0.5,0.5,0.5,0.358908737751959,0.873576744094652,0.5,0.31617121381951,0.31617121381951,0.5,0.968034320732582,0.31617121381951,0.5,0.5,0.5,0.968034320732582,0.659408507731285,0.340591492268715,0.968034320732582,0.5,0.316408621393589,0.903972577842119,0.0319656792674182,0.0117524240383287,0.5,0.36765757236098,1.09764769848938,2.25132343581469,3.11526627405633,0.5,68.2550307657128
CBC_1051,CBC_1051_MSI_TV_v3_Vset2_Tset1_2024-05-03_17h13.22.033.csv,2,30,1,0,b,1,0,0,tac,B,63,1,1B,0B,1,0,b,2.68789630000174,1,0,1,1,1B,0B,B10,2.70805020110221,0.97978674477091,0.5,0.5,0.5,0.358908737751959,0.873576744094652,0.5,0.31617121381951,0.31617121381951,0.5,0.968034320732582,0.31617121381951,0.5,0.5,0.5,0.97978674477091,0.708792725725083,0.291207274274917,0.873576744094652,0.358908737751959,0.307409940090015,0.949245069507731,0.126423255905348,0.0464804673561312,0.5,0.36765757236098,1.09764769848938,2.25132343581469,3.11526627405633,0.5,68.2550307657128
CBC_1051,CBC_1051_MSI_TV_v3_Vset2_Tset1_2024-05-03_17h13.22.033.csv,2,31,0,2,b,1,0,1,tac,A,27,1,0A,2A,1,0,b,2.34152549999999,1,0,1,1,0A,2A,A02,3.13549421592915,0.97978674477091,0.5,0.5,0.5,0.358908737751959,0.920057211450783,0.5,0.31617121381951,0.31617121381951,0.5,0.968034320732582,0.31617121381951,0.5,0.5,0.5,0.97978674477091,0.662113475629621,0.337886524370379,0.97978674477091,0.5,0.377981913627237,0.907144392803773,0.0202132552290896,0.00743155634703996,0.5,0.36765757236098,1.09764769848938,2.25132343581469,3.11526627405633,0.5,68.2550307657128
CBC_1051,CBC_1051_MSI_TV_v3_Vset2_Tset1_2024-05-03_17h13.22.033.csv,2,32,0,3,z,0,1,3,tac,D,9,1,0D,3D,0,1,z,2.84419300000081,0,1,1,1,3D,0D,D03,3.85014760171006,0.98721830111795,0.5,0.5,0.5,0.358908737751959,0.920057211450783,0.5,0.31617121381951,0.31617121381951,0.5,0.968034320732582,0.31617121381951,0.5,0.5,0.5,0.97978674477091,0.662113475629621,0.337886524370379,0.97978674477091,0.5,0.260099985987396,0.906774745890126,0.0202132552290896,0.00743155634703996,0.5,0.36765757236098,1.09764769848938,2.25132343581469,3.11526627405633,0.5,68.2550307657128
CBC_1051,CBC_1051_MSI_TV_v3_Vset2_Tset1_2024-05-03_17h13.22.033.csv,2,33,2,3,b,1,0,2,tac,C,63,1,2C,3C,1,0,b,1.92069609999817,1,0,1,1,2C,3C,C23,2.26176309847379,0.98721830111795,0.5,0.5,0.5,0.358908737751959,0.920057211450783,0.5,0.31617121381951,0.31617121381951,0.5,0.968034320732582,0.31617121381951,0.5,0.5,0.5,0.98721830111795,0.753800147007009,0.246199852992991,0.968034320732582,0.31617121381951,0.660672862380575,0.972418069106812,0.0319656792674182,0.0117524240383287,0.5,0.36765757236098,1.09764769848938,2.25132343581469,3.11526627405633,0.5,68.2550307657128
CBC_1051,CBC_1051_MSI_TV_v3_Vset2_Tset1_2024-05-03_17h13.22.033.csv,2,34,1,0,b,1,0,0,tac,B,63,1,1B,0B,NaN,NaN,None,NaN,NaN,NaN,NaN,NaN,,,B10,2.50552593699074,0.98721830111795,0.5,0.5,0.5,0.358908737751959,0.920057211450783,0.5,0.31617121381951,0.31617121381951,0.5,0.97978674477091,0.31617121381951,0.5,0.5,0.5,0.98721830111795,0,0,0,0,NaN,0,0,0,0.5,0.36765757236098,1.09764769848938,2.25132343581469,3.11526627405633,0.5,68.2550307657128
CBC_1051,CBC_1051_MSI_TV_v3_Vset2_Tset1_2024-05-03_17h13.22.033.csv,2,35,1,0,z,0,1,1,tac,A,63,0,1A,0A,1,0,z,2.27716959999816,0,1,1,0,0A,1A,A10,2.30258509299405,0.98721830111795,0.5,0.5,0.5,0.358908737751959,0.920057211450783,0.5,0.31617121381951,0.31617121381951,0.5,0.97978674477091,0.31617121381951,0.5,0.5,0.5,0.98721830111795,0.663801877892339,0.33619812210766,0.98721830111795,0.5,0.396218148064068,0.908272873894125,-0.98721830111795,-0.362958283979357,0.5,0.36765757236098,1.09764769848938,2.25132343581469,3.11526627405633,0.5,68.2550307657128
CBC_1051,CBC_1051_MSI_TV_v3_Vset2_Tset1_2024-05-03_17h13.22.033.csv,2,36,3,2,b,1,0,3,tac,D,63,1,3D,2D,1,0,b,2.77213570000094,1,0,1,1,3D,2D,D32,2.83321334405622,0.624260017138594,0.5,0.5,0.5,0.358908737751959,0.920057211450783,0.5,0.31617121381951,0.31617121381951,0.5,0.97978674477091,0.31617121381951,0.5,0.5,0.5,0.98721830111795,0.663801877892339,0.33619812210766,0.98721830111795,0.5,0.27529633960817,0.908177153573558,0.0127816988820496,0.00469928838162341,0.5,0.36765757236098,1.09764769848938,2.25132343581469,3.11526627405633,0.5,68.2550307657128
CBC_1051,CBC_1051_MSI_TV_v3_Vset2_Tset1_2024-05-03_17h13.22.033.csv,2,37,2,1,z,0,1,0,tac,B,9,1,2B,1B,0,1,z,3.4840363000003,0,1,1,1,1B,2B,B21,3.95124371858143,0.624260017138594,0.5,0.5,0.5,0.358908737751959,0.920057211450783,0.5,0.31617121381951,0.31617121381951,0.5,0.97978674477091,0.31617121381951,0.5,0.5,0.5,0.991917589499574,0.647901509905237,0.352098490094763,0.920057211450783,0.5,0.159867251736787,0.888602584575206,0.0799427885492168,0.0293915715657722,0.5,0.36765757236098,1.09764769848938,2.25132343581469,3.11526627405633,0.5,68.2550307657128
CBC_1051,CBC_1051_MSI_TV_v3_Vset2_Tset1_2024-05-03_17h13.22.033.csv,2,38,0,2,b,1,0,1,tac,A,27,1,0A,2A,1,0,b,2.64886120000301,1,0,1,1,0A,2A,A02,2.87167962488401,0.624260017138594,0.5,0.5,0.5,0.358908737751959,0.949448783016555,0.5,0.31617121381951,0.31617121381951,0.5,0.97978674477091,0.31617121381951,0.5,0.5,0.5,0.991917589499574,0.555263024231198,0.444736975768802,0.624260017138594,0.5,0.205251866772456,0.684097827925356,0.375739982861406,0.138143649937781,0.5,0.36765757236098,1.09764769848938,2.25132343581469,3.11526627405633,0.5,68.2550307657128
CBC_1051,CBC_1051_MSI_TV_v3_Vset2_Tset1_2024-05-03_17h13.22.033.csv,2,39,3,2,z,0,1,2,tac,C,63,1,3C,2C,0,1,z,1.70537720000357,0,1,1,1,2C,3C,C32,3.29583686600433,0.762403667076375,0.5,0.5,0.5,0.358908737751959,0.949448783016555,0.5,0.31617121381951,0.31617121381951,0.5,0.97978674477091,0.31617121381951,0.5,0.5,0.5,0.991917589499574,0.756032815938411,0.243967184061589,0.97978674477091,0.31617121381951,0.715847892250912,0.973058656103741,0.0202132552290896,0.00743155634703996,0.5,0.36765757236098,1.09764769848938,2.25132343581469,3.11526627405633,0.5,68.2550307657128
CBC_1051,CBC_1051_MSI_TV_v3_Vset2_Tset1_2024-05-03_17h13.22.033.csv,2,40,3,1,b,1,0,3,tac,D,27,1,3D,1D,1,0,z,3.1098716000015,0,1,0,0,1D,3D,D31,3.31418600467253,0.762403667076375,0.5,0.5,0.5,0.358908737751959,0.949448783016555,0.5,0.31617121381951,0.31617121381951,0.5,0.98721830111795,0.31617121381951,0.5,0.5,0.5,0.991917589499574,0.335139154815992,0.664860845184007,0.5,0.991917589499574,0.0209592960281456,0.0898753963990596,-0.5,-0.18382878618049,0.5,0.36765757236098,1.09764769848938,2.25132343581469,3.11526627405633,0.5,68.2550307657128
CBC_1051,CBC_1051_MSI_TV_v3_Vset2_Tset1_2024-05-03_17h13.22.033.csv,2,41,1,0,z,0,1,1,tac,A,63,1,1A,0A,0,1,b,2.97907499999928,1,0,0,0,1A,0A,A10,2.23359222150709,0.762403667076375,0.5,0.5,0.5,0.358908737751959,0.949448783016555,0.5,0.31617121381951,0.31617121381951,0.5,0.98721830111795,0.31617121381951,0.5,0.31617121381951,0.5,0.991917589499574,0.396069825397418,0.603930174602582,0.5,0.762403667076375,0.0487999081108796,0.188975377061791,-0.5,-0.18382878618049,0.5,0.36765757236098,1.09764769848938,2.25132343581469,3.11526627405633,0.5,68.2550307657128
CBC_1051,CBC_1051_MSI_TV_v3_Vset2_Tset1_2024-05-03_17h13.22.033.csv,2,42,2,0,b,1,0,2,tac,C,27,1,2C,0C,1,0,b,2.16180970000278,1,0,1,1,2C,0C,C20,3.3499040872746,0.762403667076375,0.31617121381951,0.5,0.5,0.358908737751959,0.949448783016555,0.5,0.31617121381951,0.31617121381951,0.5,0.98721830111795,0.31617121381951,0.5,0.31617121381951,0.5,0.991917589499574,0.757423847440816,0.242576152559184,0.98721830111795,0.31617121381951,0.538776673926884,0.973757734016184,0.0127816988820496,0.00469928838162341,0.5,0.36765757236098,1.09764769848938,2.25132343581469,3.11526627405633,0.5,68.2550307657128
CBC_1051,CBC_1051_MSI_TV_v3_Vset2_Tset1_2024-05-03_17h13.22.033.csv,2,43,2,3,z,0,1,3,tac,D,63,1,2D,3D,0,1,z,2.36169660000087,0,1,1,1,3D,2D,D23,2.67414864942653,0.762403667076375,0.31617121381951,0.5,0.5,0.358908737751959,0.949448783016555,0.5,0.31617121381951,0.31617121381951,0.5,0.991917589499574,0.31617121381951,0.5,0.31617121381951,0.5,0.991917589499574,0.664860845184007,0.335139154815992,0.991917589499574,0.5,0.374776373643012,0.9094657610058,0.00808241050042624,0.00297155942341161,0.5,0.36765757236098,1.09764769848938,2.25132343581469,3.11526627405633,0.5,68.2550307657128
CBC_1051,CBC_1051_MSI_TV_v3_Vset2_Tset1_2024-05-03_17h13.22.033.csv,2,44,0,1,z,0,1,0,tac,B,63,1,0B,1B,0,1,z,3.15100119999988,0,1,1,1,1B,0B,B01,2.97892515523761,0.762403667076375,0.31617121381951,0.5,0.5,0.358908737751959,0.949448783016555,0.5,0.31617121381951,0.31617121381951,0.5,0.991917589499574,0.31617121381951,0.5,0.31617121381951,0.5,0.994889148922985,0.725679921539229,0.274320078460771,0.949448783016555,0.358908737751959,0.192098150807477,0.959454504523318,0.0505512169834446,0.0185855377160264,0.5,0.36765757236098,1.09764769848938,2.25132343581469,3.11526627405633,0.5,68.2550307657128
CBC_1051,CBC_1051_MSI_AV_v3_Vset4_Aset2_2024-05-03_17h21.50.264.csv,3,1,3,1,z,0,1,0,aud,B,27,1,3B,1B,0,1,b,2.60309880000204,1,0,0,0,3B,1B,B31,2.77258872223978,0.5,0.5,0.5,0.5,0.5,0.5,0.5,0.5,0.5,0.5,0.5,0.5,0.5,0.5,0.5,0.5,0.5,0.5,0.5,0.5,0.112788915623411,0.500876036635437,-0.5,-0.00547329065927332,0.5,0.0109465813185466,0.587156074166125,2.28096949627612,2.79766452376324,0.5,91.5697036359504
CBC_1051,CBC_1051_MSI_AV_v3_Vset4_Aset2_2024-05-03_17h21.50.264.csv,3,2,2,3,b,1,0,2,aud,C,63,1,2C,3C,1,0,z,1.77799600000071,0,1,0,0,3C,2C,C23,2.83321334405622,0.5,0.5,0.5,0.5,0.5,0.5,0.5,0.494526709340727,0.5,0.5,0.5,0.5,0.5,0.5,0.5,0.5,0.5,0.5,0.5,0.5,0.188370709705486,0.50086304736777,-0.5,-0.00547329065927332,0.5,0.0109465813185466,0.587156074166125,2.28096949627612,2.79766452376324,0.5,91.5697036359504
CBC_1051,CBC_1051_MSI_AV_v3_Vset4_Aset2_2024-05-03_17h21.50.264.csv,3,3,2,3,z,0,1,3,aud,D,63,1,2D,3D,0,1,b,2.56480170000214,1,0,0,0,2D,3D,D23,2.89037175789616,0.5,0.5,0.5,0.5,0.5,0.5,0.5,0.494526709340727,0.5,0.5,0.5,0.494526709340727,0.5,0.5,0.5,0.5,0.5,0.5,0.5,0.5,0.115461300724378,0.500523485448327,-0.5,-0.00547329065927332,0.5,0.0109465813185466,0.587156074166125,2.28096949627612,2.79766452376324,0.5,91.5697036359504
CBC_1051,CBC_1051_MSI_AV_v3_Vset4_Aset2_2024-05-03_17h21.50.264.csv,3,4,1,0,b,1,0,0,aud,B,63,1,1B,0B,1,0,b,0.763518000003387,1,0,1,1,1B,0B,B10,2.94443897916644,0.5,0.5,0.5,0.5,0.5,0.5,0.5,0.494526709340727,0.5,0.5,0.5,0.494526709340727,0.5,0.5,0.494526709340727,0.5,0.5,0.5,0.5,0.5,0.0293467835463297,0.499695980623355,0.5,0.00547329065927332,0.5,0.0109465813185466,0.587156074166125,2.28096949627612,2.79766452376324,0.5,91.5697036359504
CBC_1051,CBC_1051_MSI_AV_v3_Vset4_Aset2_2024-05-03_17h21.50.264.csv,3,5,3,0,z,0,1,1,aud,A,9,1,3A,0A,0,1,z,1.7478431999989,0,1,1,1,0A,3A,A30,2.99573227355399,0.5,0.5,0.5,0.5,0.5,0.505473290659273,0.5,0.494526709340727,0.5,0.5,0.5,0.494526709340727,0.5,0.5,0.494526709340727,0.5,0.5,0.5,0.5,0.5,0.190958209353805,0.498790960585347,0.5,0.00547329065927332,0.5,0.0109465813185466,0.587156074166125,2.28096949627612,2.79766452376324,0.5,91.5697036359504
CBC_1051,CBC_1051_MSI_AV_v3_Vset4_Aset2_2024-05-03_17h21.50.264.csv,3,6,2,3,z,0,1,3,aud,D,63,1,2D,3D,0,1,b,2.01608060000217,1,0,0,0,2D,3D,D23,2.35137525716348,0.505473290659273,0.5,0.5,0.5,0.5,0.505473290659273,0.5,0.494526709340727,0.5,0.5,0.5,0.494526709340727,0.5,0.5,0.494526709340727,0.5,0.497248293782426,0.502751706217574,0.494526709340727,0.5,0.160117397253527,0.492116546001075,-0.494526709340727,-0.00541337683799155,0.5,0.0109465813185466,0.587156074166125,2.28096949627612,2.79766452376324,0.5,91.5697036359504
CBC_1051,CBC_1051_MSI_AV_v3_Vset4_Aset2_2024-05-03_17h21.50.264.csv,3,7,2,0,b,1,0,2,aud,C,27,1,2C,0C,1,0,b,2.23607510000147,1,0,1,1,2C,0C,C20,3.09104245335832,0.505473290659273,0.5,0.5,0.5,0.5,0.505473290659273,0.5,0.494526709340727,0.5,0.5,0.5,0.494526709340727,0.5,0.5,0.489113332502735,0.5,0.5,0.5,0.5,0.5,0.141767565283598,0.499817268664183,0.5,0.00547329065927332,0.5,0.0109465813185466,0.587156074166125,2.28096949627612,2.79766452376324,0.5,91.5697036359504
CBC_1051,CBC_1051_MSI_AV_v3_Vset4_Aset2_2024-05-03_17h21.50.264.csv,3,8,1,0,z,0,1,1,aud,A,63,1,1A,0A,0,1,b,2.62150720000136,1,0,0,0,1A,0A,A10,3.13549421592915,0.505473290659273,0.5,0.5,0.5,0.5,0.505473290659273,0.5,0.494526709340727,0.5,0.5,0.505473290659273,0.494526709340727,0.5,0.5,0.489113332502735,0.5,0.49727825159051,0.50272174840949,0.5,0.505473290659273,0.109219485621972,0.49068531581497,-0.5,-0.00547329065927332,0.5,0.0109465813185466,0.587156074166125,2.28096949627612,2.79766452376324,0.5,91.5697036359504
CBC_1051,CBC_1051_MSI_AV_v3_Vset4_Aset2_2024-05-03_17h21.50.264.csv,3,9,0,1,z,0,1,0,aud,B,63,1,0B,1B,0,1,b,2.56320050000431,1,0,0,0,0B,1B,B01,3.17805383034795,0.505473290659273,0.494526709340727,0.5,0.5,0.5,0.505473290659273,0.5,0.494526709340727,0.5,0.5,0.505473290659273,0.494526709340727,0.5,0.5,0.489113332502735,0.5,0.49727825159051,0.50272174840949,0.5,0.505473290659273,0.113570513210808,0.491831373509663,-0.5,-0.00547329065927332,0.5,0.0109465813185466,0.587156074166125,2.28096949627612,2.79766452376324,0.5,91.5697036359504
CBC_1051,CBC_1051_MSI_AV_v3_Vset4_Aset2_2024-05-03_17h21.50.264.csv,3,10,3,1,b,1,0,3,aud,D,27,1,3D,1D,1,0,z,2.80484889999934,0,1,0,0,1D,3D,D31,3.2188758248682,0.505473290659273,0.494526709340727,0.5,0.5,0.494526709340727,0.505473290659273,0.5,0.494526709340727,0.5,0.5,0.505473290659273,0.494526709340727,0.5,0.5,0.489113332502735,0.5,0.5,0.5,0.5,0.5,0.0992084796686984,0.500292052186364,-0.5,-0.00547329065927332,0.5,0.0109465813185466,0.587156074166125,2.28096949627612,2.79766452376324,0.5,91.5697036359504
CBC_1051,CBC_1051_MSI_AV_v3_Vset4_Aset2_2024-05-03_17h21.50.264.csv,3,11,2,3,b,1,0,2,aud,C,63,1,2C,3C,1,0,z,1.89868170000409,0,1,0,0,3C,2C,C23,2.56494935746154,0.505473290659273,0.494526709340727,0.5,0.5,0.494526709340727,0.505473290659273,0.5,0.494526709340727,0.5,0.5,0.505473290659273,0.494526709340727,0.5,0.494526709340727,0.489113332502735,0.5,0.494526709340727,0.505473290659273,0.494526709340727,0.505473290659273,0.168182240779116,0.480789432580123,-0.494526709340727,-0.00541337683799155,0.5,0.0109465813185466,0.587156074166125,2.28096949627612,2.79766452376324,0.5,91.5697036359504
CBC_1051,CBC_1051_MSI_AV_v3_Vset4_Aset2_2024-05-03_17h21.50.264.csv,3,12,0,1,z,0,1,0,aud,B,63,1,0B,1B,0,1,b,2.12622890000421,1,0,0,0,0B,1B,B01,2.60268968544438,0.505473290659273,0.494526709340727,0.5,0.5,0.494526709340727,0.505473290659273,0.5,0.494526709340727,0.5,0.5,0.505473290659273,0.489113332502735,0.5,0.494526709340727,0.489113332502735,0.5,0.494526709340727,0.505473290659273,0.494526709340727,0.505473290659273,0.146758642129883,0.482994770682093,-0.494526709340727,-0.00541337683799155,0.5,0.0109465813185466,0.587156074166125,2.28096949627612,2.79766452376324,0.5,91.5697036359504
CBC_1051,CBC_1051_MSI_AV_v3_Vset4_Aset2_2024-05-03_17h21.50.264.csv,3,13,1,0,z,0,1,1,aud,A,63,1,1A,0A,0,1,z,2.23199860000386,0,1,1,1,0A,1A,A10,2.63905732961526,0.505473290659273,0.494526709340727,0.5,0.5,0.489113332502735,0.505473290659273,0.5,0.494526709340727,0.5,0.5,0.505473290659273,0.489113332502735,0.5,0.494526709340727,0.489113332502735,0.5,0.505473290659273,0.494526709340727,0.505473290659273,0.494526709340727,0.147294728855105,0.517925765743209,0.494526709340727,0.00541337683799154,0.5,0.0109465813185466,0.587156074166125,2.28096949627612,2.79766452376324,0.5,91.5697036359504
CBC_1051,CBC_1051_MSI_AV_v3_Vset4_Aset2_2024-05-03_17h21.50.264.csv,3,14,2,1,b,1,0,2,aud,C,9,1,2C,1C,1,0,z,1.73403980000148,0,1,0,0,1C,2C,C21,3.36729582998647,0.510886667497265,0.494526709340727,0.5,0.5,0.489113332502735,0.505473290659273,0.5,0.494526709340727,0.5,0.5,0.505473290659273,0.489113332502735,0.5,0.494526709340727,0.489113332502735,0.5,0.49727825159051,0.50272174840949,0.5,0.505473290659273,0.189548321848916,0.491093653618431,-0.5,-0.00547329065927332,0.5,0.0109465813185466,0.587156074166125,2.28096949627612,2.79766452376324,0.5,91.5697036359504
CBC_1051,CBC_1051_MSI_AV_v3_Vset4_Aset2_2024-05-03_17h21.50.264.csv,3,15,0,1,b,1,0,1,aud,A,63,1,0A,1A,1,0,b,3.22823180000341,1,0,1,1,0A,1A,A01,3.40119738166216,0.510886667497265,0.494526709340727,0.5,0.5,0.489113332502735,0.505473290659273,0.5,0.494526709340727,0.5,0.494526709340727,0.505473290659273,0.489113332502735,0.5,0.494526709340727,0.489113332502735,0.5,0.508135936189744,0.491864063810256,0.510886667497265,0.494526709340727,0.0798325739161957,0.525986804862856,0.489113332502735,0.00535411886822653,0.5,0.0109465813185466,0.587156074166125,2.28096949627612,2.79766452376324,0.5,91.5697036359504
CBC_1051,CBC_1051_MSI_AV_v3_Vset4_Aset2_2024-05-03_17h21.50.264.csv,3,16,1,3,z,0,1,3,aud,D,27,1,1D,3D,0,1,z,2.91567900000155,0,1,1,1,3D,1D,D13,3.43398720448515,0.516240786365492,0.494526709340727,0.5,0.5,0.489113332502735,0.505473290659273,0.5,0.494526709340727,0.5,0.494526709340727,0.505473290659273,0.489113332502735,0.5,0.494526709340727,0.489113332502735,0.5,0.502751706217574,0.497248293782426,0.5,0.494526709340727,0.0941707725991815,0.509266025516818,0.5,0.00547329065927332,0.5,0.0109465813185466,0.587156074166125,2.28096949627612,2.79766452376324,0.5,91.5697036359504
CBC_1051,CBC_1051_MSI_AV_v3_Vset4_Aset2_2024-05-03_17h21.50.264.csv,3,17,1,0,b,1,0,0,aud,B,63,1,1B,0B,1,0,z,4.29094560000158,0,1,0,0,0B,1B,B10,2.77258872223978,0.516240786365492,0.494526709340727,0.5,0.5,0.489113332502735,0.505473290659273,0.5,0.494526709340727,0.5,0.494526709340727,0.505473290659273,0.489113332502735,0.5,0.494526709340727,0.489113332502735,0.505473290659273,0.491775498596328,0.508224501403672,0.489113332502735,0.505473290659273,0.0367600550636139,0.473687435359662,-0.489113332502735,-0.00535411886822653,0.5,0.0109465813185466,0.587156074166125,2.28096949627612,2.79766452376324,0.5,91.5697036359504
CBC_1051,CBC_1051_MSI_AV_v3_Vset4_Aset2_2024-05-03_17h21.50.264.csv,3,18,3,2,z,0,1,2,aud,C,63,0,3C,2C,1,0,z,2.27262190000329,0,1,1,0,2C,3C,C32,3.49650756146648,0.516240786365492,0.494526709340727,0.5,0.5,0.483759213634509,0.505473290659273,0.5,0.494526709340727,0.5,0.494526709340727,0.505473290659273,0.489113332502735,0.5,0.494526709340727,0.489113332502735,0.505473290659273,0.508224501403672,0.491775498596328,0.505473290659273,0.489113332502735,0.145745493074818,0.525658770067787,-0.505473290659273,-0.0055332044805551,0.5,0.0109465813185466,0.587156074166125,2.28096949627612,2.79766452376324,0.5,91.5697036359504
CBC_1051,CBC_1051_MSI_AV_v3_Vset4_Aset2_2024-05-03_17h21.50.264.csv,3,19,0,2,b,1,0,1,aud,A,27,1,0A,2A,1,0,z,0.943967900002463,0,1,0,0,2A,0A,A02,3.52636052461616,0.516240786365492,0.494526709340727,0.5,0.5,0.483759213634509,0.505473290659273,0.5,0.494526709340727,0.5,0.494526709340727,0.499940086178718,0.489113332502735,0.5,0.494526709340727,0.489113332502735,0.505473290659273,0.492009380757303,0.507990619242697,0.5,0.516240786365492,0.160566121942359,0.475329745044163,-0.5,-0.00547329065927332,0.5,0.0109465813185466,0.587156074166125,2.28096949627612,2.79766452376324,0.5,91.5697036359504
CBC_1051,CBC_1051_MSI_AV_v3_Vset4_Aset2_2024-05-03_17h21.50.264.csv,3,20,2,3,z,0,1,3,aud,D,63,1,2D,3D,0,1,z,2.55712410000342,0,1,1,1,3D,2D,D23,2.4567357728213,0.516240786365492,0.494526709340727,0.494526709340727,0.5,0.483759213634509,0.505473290659273,0.5,0.494526709340727,0.5,0.494526709340727,0.499940086178718,0.489113332502735,0.5,0.494526709340727,0.489113332502735,0.505473290659273,0.508224501403672,0.491775498596328,0.505473290659273,0.489113332502735,0.12222879443146,0.527310452687964,0.494526709340727,0.00541337683799154,0.5,0.0109465813185466,0.587156074166125,2.28096949627612,2.79766452376324,0.5,91.5697036359504
CBC_1051,CBC_1051_MSI_AV_v3_Vset4_Aset2_2024-05-03_17h21.50.264.csv,3,21,1,3,b,1,0,0,aud,B,27,1,1B,3B,1,0,b,3.4279776000003,1,0,1,1,1B,3B,B13,3.58351893845611,0.516240786365492,0.494526709340727,0.494526709340727,0.5,0.483759213634509,0.505473290659273,0.5,0.494526709340727,0.5,0.494526709340727,0.499940086178718,0.489113332502735,0.5,0.494526709340727,0.489113332502735,0.510886667497265,0.505473290659273,0.494526709340727,0.505473290659273,0.494526709340727,0.0692923463295325,0.517714410294413,0.494526709340727,0.00541337683799154,0.5,0.0109465813185466,0.587156074166125,2.28096949627612,2.79766452376324,0.5,91.5697036359504
CBC_1051,CBC_1051_MSI_AV_v3_Vset4_Aset2_2024-05-03_17h21.50.264.csv,3,22,2,3,b,1,0,2,aud,C,63,1,2C,3C,1,0,b,1.93746050000118,1,0,1,1,2C,3C,C23,2.51230562397611,0.516240786365492,0.494526709340727,0.494526709340727,0.5,0.483759213634509,0.510886667497265,0.5,0.494526709340727,0.5,0.494526709340727,0.499940086178718,0.489113332502735,0.5,0.494526709340727,0.489113332502735,0.510886667497265,0.505473290659273,0.494526709340727,0.499940086178718,0.489113332502735,0.176493161080928,0.516702274894539,0.500059913821282,0.00547394651079009,0.5,0.0109465813185466,0.587156074166125,2.28096949627612,2.79766452376324,0.5,91.5697036359504
CBC_1051,CBC_1051_MSI_AV_v3_Vset4_Aset2_2024-05-03_17h21.50.264.csv,3,23,1,0,z,0,1,1,aud,A,63,1,1A,0A,0,1,z,2.50338670000201,0,1,1,1,0A,1A,A10,2.53897387105828,0.516240786365492,0.494526709340727,0.494526709340727,0.5,0.483759213634509,0.510886667497265,0.5,0.494526709340727,0.5,0.494526709340727,0.505414032689508,0.489113332502735,0.5,0.494526709340727,0.489113332502735,0.510886667497265,0.510741380741371,0.489258619258629,0.516240786365492,0.494526709340727,0.128061291992516,0.534061427143053,0.483759213634508,0.00529550957064633,0.5,0.0109465813185466,0.587156074166125,2.28096949627612,2.79766452376324,0.5,91.5697036359504
CBC_1051,CBC_1051_MSI_AV_v3_Vset4_Aset2_2024-05-03_17h21.50.264.csv,3,24,1,2,b,1,0,0,aud,B,9,1,1B,2B,1,0,z,2.71202550000089,0,1,0,0,2B,1B,B12,3.66356164612965,0.521536295936138,0.494526709340727,0.494526709340727,0.5,0.483759213634509,0.510886667497265,0.5,0.494526709340727,0.5,0.494526709340727,0.505414032689508,0.489113332502735,0.5,0.494526709340727,0.489113332502735,0.510886667497265,0.494615287822413,0.505384712177587,0.5,0.510886667497265,0.101370661117033,0.482175229756334,-0.5,-0.00547329065927332,0.5,0.0109465813185466,0.587156074166125,2.28096949627612,2.79766452376324,0.5,91.5697036359504
CBC_1051,CBC_1051_MSI_AV_v3_Vset4_Aset2_2024-05-03_17h21.50.264.csv,3,25,3,2,z,0,1,2,aud,C,63,1,3C,2C,0,1,b,2.07118110000374,1,0,0,0,3C,2C,C32,2.99573227355399,0.521536295936138,0.494526709340727,0.494526709340727,0.5,0.483759213634509,0.510886667497265,0.494526709340727,0.494526709340727,0.5,0.494526709340727,0.505414032689508,0.489113332502735,0.5,0.494526709340727,0.489113332502735,0.510886667497265,0.491804800572973,0.508195199427028,0.489113332502735,0.505414032689508,0.149010403429632,0.473771625852977,-0.489113332502735,-0.00535411886822653,0.5,0.0109465813185466,0.587156074166125,2.28096949627612,2.79766452376324,0.5,91.5697036359504
CBC_1051,CBC_1051_MSI_AV_v3_Vset4_Aset2_2024-05-03_17h21.50.264.csv,3,26,3,2,b,1,0,3,aud,D,63,1,3D,2D,1,0,z,2.76904470000227,0,1,0,0,2D,3D,D32,3.71357206670431,0.521536295936138,0.494526709340727,0.494526709340727,0.5,0.483759213634509,0.510886667497265,0.494526709340727,0.494526709340727,0.5,0.494526709340727,0.505414032689508,0.483759213634509,0.5,0.494526709340727,0.489113332502735,0.510886667497265,0.489113332502735,0.510886667497265,0.489113332502735,0.510886667497265,0.0943095912510064,0.465107485731732,-0.489113332502735,-0.00535411886822653,0.5,0.0109465813185466,0.587156074166125,2.28096949627612,2.79766452376324,0.5,91.5697036359504
CBC_1051,CBC_1051_MSI_AV_v3_Vset4_Aset2_2024-05-03_17h21.50.264.csv,3,27,1,0,b,1,0,0,aud,B,63,1,1B,0B,1,0,b,2.43502910000097,1,0,1,1,1B,0B,B10,2.63905732961526,0.521536295936138,0.494526709340727,0.494526709340727,0.5,0.483759213634509,0.510886667497265,0.494526709340727,0.494526709340727,0.5,0.494526709340727,0.505414032689508,0.483759213634509,0.5,0.494526709340727,0.483759213634509,0.510886667497265,0.513636739656474,0.486363260343526,0.510886667497265,0.483759213634509,0.135976063023462,0.543105474439804,0.489113332502735,0.00535411886822653,0.5,0.0109465813185466,0.587156074166125,2.28096949627612,2.79766452376324,0.5,91.5697036359504
CBC_1051,CBC_1051_MSI_AV_v3_Vset4_Aset2_2024-05-03_17h21.50.264.csv,3,28,2,0,z,0,1,1,aud,A,27,1,2A,0A,0,1,z,2.4384272999996,0,1,1,1,0A,2A,A20,3.76120011569356,0.521536295936138,0.494526709340727,0.494526709340727,0.5,0.483759213634509,0.516240786365492,0.494526709340727,0.494526709340727,0.5,0.494526709340727,0.505414032689508,0.483759213634509,0.5,0.494526709340727,0.483759213634509,0.510886667497265,0.513291295153518,0.486708704846482,0.521536295936138,0.494526709340727,0.135528507070266,0.542482958335482,0.478463704063862,0.0052375418445081,0.5,0.0109465813185466,0.587156074166125,2.28096949627612,2.79766452376324,0.5,91.5697036359504
CBC_1051,CBC_1051_MSI_AV_v3_Vset4_Aset2_2024-05-03_17h21.50.264.csv,3,29,3,1,b,1,0,3,aud,D,27,1,3D,1D,1,0,b,2.49026990000493,1,0,1,1,3D,1D,D31,3.09104245335832,0.526773837780646,0.494526709340727,0.494526709340727,0.5,0.483759213634509,0.516240786365492,0.494526709340727,0.494526709340727,0.5,0.494526709340727,0.505414032689508,0.483759213634509,0.5,0.494526709340727,0.483759213634509,0.510886667497265,0.508135936189744,0.491864063810256,0.510886667497265,0.494526709340727,0.127195722973073,0.526094844625764,0.489113332502735,0.00535411886822653,0.5,0.0109465813185466,0.587156074166125,2.28096949627612,2.79766452376324,0.5,91.5697036359504
CBC_1051,CBC_1051_MSI_AV_v3_Vset4_Aset2_2024-05-03_17h21.50.264.csv,3,30,0,1,b,1,0,1,aud,A,63,1,0A,1A,1,0,b,3.83213790000445,1,0,1,1,0A,1A,A01,3.11351530921037,0.526773837780646,0.494526709340727,0.494526709340727,0.5,0.483759213634509,0.516240786365492,0.494526709340727,0.494526709340727,0.5,0.494526709340727,0.505414032689508,0.483759213634509,0.5,0.494526709340727,0.483759213634509,0.516240786365492,0.515787286382452,0.484212713617548,0.526773837780646,0.494526709340727,0.0568850905544406,0.550035854477692,0.473226162219354,0.00518020866679791,0.5,0.0109465813185466,0.587156074166125,2.28096949627612,2.79766452376324,0.5,91.5697036359504
CBC_1051,CBC_1051_MSI_AV_v3_Vset4_Aset2_2024-05-03_17h21.50.264.csv,3,31,0,2,z,0,1,2,aud,C,27,1,0C,2C,0,1,z,1.66157440000461,0,1,1,1,2C,0C,C02,3.8286413964891,0.531954046447444,0.494526709340727,0.494526709340727,0.5,0.483759213634509,0.516240786365492,0.494526709340727,0.494526709340727,0.5,0.494526709340727,0.505414032689508,0.483759213634509,0.5,0.494526709340727,0.483759213634509,0.516240786365492,0.502692439389883,0.497307560610117,0.505414032689508,0.5,0.204808596797594,0.509019055395751,0.494585967310492,0.00541402551017635,0.5,0.0109465813185466,0.587156074166125,2.28096949627612,2.79766452376324,0.5,91.5697036359504
CBC_1051,CBC_1051_MSI_AV_v3_Vset4_Aset2_2024-05-03_17h21.50.264.csv,3,32,3,2,b,1,0,3,aud,D,63,1,3D,2D,1,0,b,2.62234680000256,1,0,1,1,3D,2D,D32,3.15700042115011,0.531954046447444,0.494526709340727,0.494526709340727,0.5,0.483759213634509,0.516240786365492,0.494526709340727,0.494526709340727,0.5,0.494526709340727,0.510828058199685,0.483759213634509,0.5,0.494526709340727,0.483759213634509,0.516240786365492,0.516240786365491,0.483759213634509,0.516240786365492,0.483759213634509,0.122680408106291,0.551572104852667,0.483759213634508,0.00529550957064633,0.5,0.0109465813185466,0.587156074166125,2.28096949627612,2.79766452376324,0.5,91.5697036359504
CBC_1051,CBC_1051_MSI_AV_v3_Vset4_Aset2_2024-05-03_17h21.50.264.csv,3,33,0,1,z,0,1,0,aud,B,63,1,0B,1B,0,1,z,2.16207930000382,0,1,1,1,1B,0B,B01,2.77258872223978,0.531954046447444,0.494526709340727,0.494526709340727,0.5,0.483759213634509,0.516240786365492,0.494526709340727,0.494526709340727,0.5,0.494526709340727,0.510828058199685,0.483759213634509,0.5,0.494526709340727,0.483759213634509,0.521536295936138,0.516240786365491,0.483759213634509,0.516240786365492,0.483759213634509,0.163893604772079,0.551108730487199,0.483759213634508,0.00529550957064633,0.5,0.0109465813185466,0.587156074166125,2.28096949627612,2.79766452376324,0.5,91.5697036359504
CBC_1051,CBC_1051_MSI_AV_v3_Vset4_Aset2_2024-05-03_17h21.50.264.csv,3,34,1,0,z,0,1,1,aud,A,63,1,1A,0A,0,1,b,2.51303220000045,1,0,0,0,1A,0A,A10,2.50552593699074,0.531954046447444,0.494526709340727,0.494526709340727,0.5,0.483759213634509,0.521536295936138,0.494526709340727,0.494526709340727,0.5,0.494526709340727,0.510828058199685,0.483759213634509,0.5,0.494526709340727,0.483759213634509,0.521536295936138,0.481769099471339,0.518230900528661,0.494526709340727,0.531954046447444,0.105198585068299,0.441367126806806,-0.494526709340727,-0.00541337683799155,0.5,0.0109465813185466,0.587156074166125,2.28096949627612,2.79766452376324,0.5,91.5697036359504
CBC_1051,CBC_1051_MSI_AV_v3_Vset4_Aset2_2024-05-03_17h21.50.264.csv,3,35,3,2,b,1,0,3,aud,D,63,0,3D,2D,0,1,z,3.40238500000123,0,1,0,1,2D,3D,D32,2.81341071676004,0.531954046447444,0.489113332502735,0.494526709340727,0.5,0.483759213634509,0.521536295936138,0.494526709340727,0.494526709340727,0.5,0.494526709340727,0.510828058199685,0.483759213634509,0.5,0.494526709340727,0.483759213634509,0.521536295936138,0.481210956409343,0.518789043590657,0.483759213634509,0.521536295936138,0.0597682227466495,0.440662601996894,0.516240786365491,0.00565107174790032,0.5,0.0109465813185466,0.587156074166125,2.28096949627612,2.79766452376324,0.5,91.5697036359504
CBC_1051,CBC_1051_MSI_AV_v3_Vset4_Aset2_2024-05-03_17h21.50.264.csv,3,36,0,2,z,0,1,2,aud,C,27,1,0C,2C,0,1,z,2.52533950000361,0,1,1,1,2C,0C,C02,3.23867845216438,0.531954046447444,0.489113332502735,0.494526709340727,0.5,0.483759213634509,0.521536295936138,0.494526709340727,0.494526709340727,0.5,0.494526709340727,0.510828058199685,0.483759213634509,0.5,0.494526709340727,0.489410285382409,0.521536295936138,0.505356033655699,0.494643966344301,0.510828058199685,0.5,0.122592551241943,0.518390759391847,0.489171941800315,0.00535476043966852,0.5,0.0109465813185466,0.587156074166125,2.28096949627612,2.79766452376324,0.5,91.5697036359504
CBC_1051,CBC_1051_MSI_AV_v3_Vset4_Aset2_2024-05-03_17h21.50.264.csv,3,37,1,0,z,0,1,1,aud,A,63,1,1A,0A,0,1,z,1.82261020000078,0,1,1,1,0A,1A,A10,2.34180580614733,0.531954046447444,0.489113332502735,0.494526709340727,0.5,0.483759213634509,0.521536295936138,0.494526709340727,0.494526709340727,0.5,0.494526709340727,0.516182818639353,0.483759213634509,0.5,0.494526709340727,0.489410285382409,0.521536295936138,0.520978397130244,0.479021602869756,0.531954046447444,0.489113332502735,0.208486439722464,0.567399414610265,0.468045953552556,0.00512350309137976,0.5,0.0109465813185466,0.587156074166125,2.28096949627612,2.79766452376324,0.5,91.5697036359504
CBC_1051,CBC_1051_MSI_AV_v3_Vset4_Aset2_2024-05-03_17h21.50.264.csv,3,38,3,1,z,0,1,0,aud,B,27,1,3B,1B,0,1,b,2.13012230000095,1,0,0,0,3B,1B,B31,3.27714473299218,0.537077549538824,0.489113332502735,0.494526709340727,0.5,0.483759213634509,0.521536295936138,0.494526709340727,0.494526709340727,0.5,0.494526709340727,0.516182818639353,0.483759213634509,0.5,0.494526709340727,0.489410285382409,0.521536295936138,0.486708704846482,0.513291295153518,0.494526709340727,0.521536295936138,0.138552635814667,0.456793465441953,-0.494526709340727,-0.00541337683799155,0.5,0.0109465813185466,0.587156074166125,2.28096949627612,2.79766452376324,0.5,91.5697036359504
CBC_1051,CBC_1051_MSI_AV_v3_Vset4_Aset2_2024-05-03_17h21.50.264.csv,3,39,2,3,b,1,0,2,aud,C,63,1,2C,3C,1,0,z,2.10156750000169,0,1,0,0,3C,2C,C23,2.60268968544438,0.537077549538824,0.489113332502735,0.494526709340727,0.5,0.483759213634509,0.521536295936138,0.494526709340727,0.489113332502735,0.5,0.494526709340727,0.516182818639353,0.483759213634509,0.5,0.494526709340727,0.489410285382409,0.521536295936138,0.483787257681771,0.516212742318229,0.483759213634509,0.516182818639353,0.138369116319945,0.447940721173371,-0.483759213634509,-0.00529550957064633,0.5,0.0109465813185466,0.587156074166125,2.28096949627612,2.79766452376324,0.5,91.5697036359504
CBC_1051,CBC_1051_MSI_AV_v3_Vset4_Aset2_2024-05-03_17h21.50.264.csv,3,40,2,3,z,0,1,3,aud,D,63,1,2D,3D,NaN,NaN,[],NaN,NaN,NaN,NaN,NaN,,,D23,2.62103882411258,0.537077549538824,0.489113332502735,0.494526709340727,0.5,0.483759213634509,0.521536295936138,0.494526709340727,0.489113332502735,0.5,0.494526709340727,0.516182818639353,0.478463704063862,0.5,0.494526709340727,0.489410285382409,0.521536295936138,0,0,0,0,NaN,0,0,0,0.5,0.0109465813185466,0.587156074166125,2.28096949627612,2.79766452376324,0.5,91.5697036359504
CBC_1051,CBC_1051_MSI_AV_v3_Vset4_Aset2_2024-05-03_17h21.50.264.csv,3,41,1,0,b,1,0,0,aud,B,63,1,1B,0B,1,0,z,2.2156888999998,0,1,0,0,0B,1B,B10,2.63905732961526,0.537077549538824,0.489113332502735,0.494526709340727,0.5,0.483759213634509,0.521536295936138,0.494526709340727,0.489113332502735,0.5,0.494526709340727,0.516182818639353,0.478463704063862,0.5,0.494526709340727,0.489410285382409,0.521536295936138,0.481210956409343,0.518789043590657,0.483759213634509,0.521536295936138,0.126485945483174,0.439746812251108,-0.483759213634509,-0.00529550957064633,0.5,0.0109465813185466,0.587156074166125,2.28096949627612,2.79766452376324,0.5,91.5697036359504
CBC_1051,CBC_1051_MSI_AV_v3_Vset4_Aset2_2024-05-03_17h21.50.264.csv,3,42,0,2,b,1,0,1,aud,A,27,1,0A,2A,1,0,b,3.29533200000151,1,0,1,1,0A,2A,A02,3.3499040872746,0.537077549538824,0.489113332502735,0.494526709340727,0.5,0.478463704063862,0.521536295936138,0.494526709340727,0.489113332502735,0.5,0.494526709340727,0.516182818639353,0.478463704063862,0.5,0.494526709340727,0.489410285382409,0.521536295936138,0.520623625693593,0.479376374306407,0.537077549538824,0.494526709340727,0.0819687277882721,0.564996226029299,0.462922450461176,0.00506741824815415,0.5,0.0109465813185466,0.587156074166125,2.28096949627612,2.79766452376324,0.5,91.5697036359504
CBC_1051,CBC_1051_MSI_AV_v3_Vset4_Aset2_2024-05-03_17h21.50.264.csv,3,43,0,3,z,0,1,3,aud,D,9,1,0D,3D,0,1,z,2.76557900000262,0,1,1,1,3D,0D,D03,4.06044301054642,0.542144967786978,0.489113332502735,0.494526709340727,0.5,0.478463704063862,0.521536295936138,0.494526709340727,0.489113332502735,0.5,0.494526709340727,0.516182818639353,0.478463704063862,0.5,0.494526709340727,0.489410285382409,0.521536295936138,0.510541131050269,0.489458868949731,0.521536295936138,0.5,0.108304758400792,0.532943618751971,0.478463704063862,0.0052375418445081,0.5,0.0109465813185466,0.587156074166125,2.28096949627612,2.79766452376324,0.5,91.5697036359504
CBC_1051,CBC_1051_MSI_AV_v3_Vset4_Aset2_2024-05-03_17h21.50.264.csv,3,44,2,3,b,1,0,2,aud,C,63,1,2C,3C,1,0,z,1.57568190000165,0,1,0,0,3C,2C,C23,2.46809953147162,0.542144967786978,0.489113332502735,0.494526709340727,0.5,0.478463704063862,0.521536295936138,0.494526709340727,0.489113332502735,0.5,0.494526709340727,0.516182818639353,0.478463704063862,0.5,0.494526709340727,0.489410285382409,0.526773837780646,0.481038935081691,0.518961064918309,0.478463704063862,0.516182818639353,0.185866645516766,0.439226200839435,-0.478463704063862,-0.00523754184450811,0.5,0.0109465813185466,0.587156074166125,2.28096949627612,2.79766452376324,0.5,91.5697036359504
