ID,filename,session,trial,visStimLeft,visStimRight,correctKey,leftCorrect,rightCorrect,secondStim,mod2Type,mod2Stim,frequency,rewardAccurate,stimPairLeft,stimPairRight,pCorrectLeft,pCorrectRight,key,reactionTime,choiceLeft,choiceRight,choiceAccurate,reward,chosenPair,otherPair,triplet,surprise,0A belief,1A belief,2A belief,3A belief,0B belief,1B belief,2B belief,3B belief,0C belief,1C belief,2C belief,3C belief,0D belief,1D belief,2D belief,3D belief,beliefPairNorm,beliefOtherPairNorm,beliefPair,beliefOtherPair,lik,corrLik,rewardPE,update2,fitCBCsimpleRW_CBCdriftDiffusionLR_pwBelief_startBelief,fitCBCsimpleRW_CBCdriftDiffusionLR_pwBelief_alpha1,fitCBCsimpleRW_CBCdriftDiffusionLR_pwBelief_nonDecisionTime,fitCBCsimpleRW_CBCdriftDiffusionLR_pwBelief_weight,fitCBCsimpleRW_CBCdriftDiffusionLR_pwBelief_startingBoundary,fitCBCsimpleRW_CBCdriftDiffusionLR_pwBelief_startingPoint,fit_CBCsimpleRW_CBCdriftDiffusionLR_pwBelief_NLL
CBC_1051,CBC_1051_MSI_AV_v3_Vset1_Aset1_2024-05-03_16h25.09.705.csv,1,1,1,0,z,0,1,1,aud,A,63,1,1A,0A,0,1,z,2.17660109999997,0,1,1,1,0A,1A,A10,2.77258872223978,0.5,0.5,0.5,0.5,0.5,0.5,0.5,0.5,0.5,0.5,0.5,0.5,0.5,0.5,0.5,0.5,0.5,0.5,0.5,0.5,0.180424570434659,0.500621339810963,0.5,0.00612708612343837,0.5,0.0122541722468767,0.892703827591297,0.035202727415132,2.33455130811307,0.5,77.8684760133333
CBC_1051,CBC_1051_MSI_AV_v3_Vset1_Aset1_2024-05-03_16h25.09.705.csv,1,2,3,2,b,1,0,3,aud,D,63,1,3D,2D,1,0,z,1.3570765000004,0,1,0,0,2D,3D,D32,2.83321334405622,0.506127086123438,0.5,0.5,0.5,0.5,0.5,0.5,0.5,0.5,0.5,0.5,0.5,0.5,0.5,0.5,0.5,0.5,0.5,0.5,0.5,0.338748859933909,0.499130144169985,-0.5,-0.00612708612343837,0.5,0.0122541722468767,0.892703827591297,0.035202727415132,2.33455130811307,0.5,77.8684760133333
CBC_1051,CBC_1051_MSI_AV_v3_Vset1_Aset1_2024-05-03_16h25.09.705.csv,1,3,2,0,b,1,0,2,aud,C,27,1,2C,0C,1,0,b,3.07710850000149,1,0,1,1,2C,0C,C20,2.89037175789616,0.506127086123438,0.5,0.5,0.5,0.5,0.5,0.5,0.5,0.5,0.5,0.5,0.5,0.5,0.5,0.493872913876562,0.5,0.5,0.5,0.5,0.5,0.0797870065961499,0.500188753859023,0.5,0.00612708612343837,0.5,0.0122541722468767,0.892703827591297,0.035202727415132,2.33455130811307,0.5,77.8684760133333
CBC_1051,CBC_1051_MSI_AV_v3_Vset1_Aset1_2024-05-03_16h25.09.705.csv,1,4,1,0,z,0,1,1,aud,A,63,1,1A,0A,0,1,b,1.21020999999746,1,0,0,0,1A,0A,A10,2.2512917986065,0.506127086123438,0.5,0.5,0.5,0.5,0.5,0.5,0.5,0.5,0.5,0.506127086123438,0.5,0.5,0.5,0.493872913876562,0.5,0.493872913876562,0.506127086123438,0.5,0.506127086123438,0.304657048284501,0.500244610328986,-0.5,-0.00612708612343837,0.5,0.0122541722468767,0.892703827591297,0.035202727415132,2.33455130811307,0.5,77.8684760133333
CBC_1051,CBC_1051_MSI_AV_v3_Vset1_Aset1_2024-05-03_16h25.09.705.csv,1,5,3,1,z,0,1,0,aud,B,27,1,3B,1B,0,1,b,2.30048379999789,1,0,0,0,3B,1B,B31,2.99573227355399,0.506127086123438,0.493872913876562,0.5,0.5,0.5,0.5,0.5,0.5,0.5,0.5,0.506127086123438,0.5,0.5,0.5,0.493872913876562,0.5,0.5,0.5,0.5,0.5,0.160740279724131,0.498864202863012,-0.5,-0.00612708612343837,0.5,0.0122541722468767,0.892703827591297,0.035202727415132,2.33455130811307,0.5,77.8684760133333
CBC_1051,CBC_1051_MSI_AV_v3_Vset1_Aset1_2024-05-03_16h25.09.705.csv,1,6,2,3,b,1,0,2,aud,C,63,1,2C,3C,1,0,z,2.86913639999693,0,1,0,0,3C,2C,C23,3.04452243772342,0.506127086123438,0.493872913876562,0.5,0.5,0.5,0.5,0.5,0.493872913876562,0.5,0.5,0.506127086123438,0.5,0.5,0.5,0.493872913876562,0.5,0.493872913876562,0.506127086123438,0.5,0.506127086123438,0.0963561312836166,0.500380966870931,-0.5,-0.00612708612343837,0.5,0.0122541722468767,0.892703827591297,0.035202727415132,2.33455130811307,0.5,77.8684760133333
CBC_1051,CBC_1051_MSI_AV_v3_Vset1_Aset1_2024-05-03_16h25.09.705.csv,1,7,2,3,z,0,1,3,aud,D,63,1,2D,3D,0,1,b,2.87228009999671,1,0,0,0,2D,3D,D23,3.09104245335832,0.506127086123438,0.493872913876562,0.5,0.5,0.5,0.5,0.5,0.493872913876562,0.5,0.5,0.506127086123438,0.493872913876562,0.5,0.5,0.493872913876562,0.5,0.493872913876562,0.506127086123438,0.493872913876562,0.5,0.0959613748249663,0.499751420467698,-0.493872913876562,-0.00605200375471031,0.5,0.0122541722468767,0.892703827591297,0.035202727415132,2.33455130811307,0.5,77.8684760133333
CBC_1051,CBC_1051_MSI_AV_v3_Vset1_Aset1_2024-05-03_16h25.09.705.csv,1,8,1,0,b,1,0,0,aud,B,63,1,1B,0B,NaN,NaN,[],NaN,NaN,NaN,NaN,NaN,,,B10,3.13549421592915,0.506127086123438,0.493872913876562,0.5,0.5,0.5,0.5,0.5,0.493872913876562,0.5,0.5,0.506127086123438,0.493872913876562,0.5,0.5,0.487820910121851,0.5,0,0,0,0,NaN,0,0,0,0.5,0.0122541722468767,0.892703827591297,0.035202727415132,2.33455130811307,0.5,77.8684760133333
CBC_1051,CBC_1051_MSI_AV_v3_Vset1_Aset1_2024-05-03_16h25.09.705.csv,1,9,0,2,b,1,0,1,aud,A,27,1,0A,2A,1,0,z,3.09242809999705,0,1,0,0,2A,0A,A02,3.17805383034795,0.506127086123438,0.493872913876562,0.5,0.5,0.5,0.5,0.5,0.493872913876562,0.5,0.5,0.506127086123438,0.493872913876562,0.5,0.5,0.487820910121851,0.5,0.493872913876562,0.506127086123438,0.5,0.506127086123438,0.0785353395060913,0.49921922208912,-0.5,-0.00612708612343837,0.5,0.0122541722468767,0.892703827591297,0.035202727415132,2.33455130811307,0.5,77.8684760133333
CBC_1051,CBC_1051_MSI_AV_v3_Vset1_Aset1_2024-05-03_16h25.09.705.csv,1,10,0,3,z,0,1,3,aud,D,9,1,0D,3D,0,1,z,2.73319499999707,0,1,1,1,3D,0D,D03,3.2188758248682,0.506127086123438,0.493872913876562,0.493872913876562,0.5,0.5,0.5,0.5,0.493872913876562,0.5,0.5,0.506127086123438,0.493872913876562,0.5,0.5,0.487820910121851,0.5,0.5,0.5,0.5,0.5,0.109028078663745,0.500616156944567,0.5,0.00612708612343837,0.5,0.0122541722468767,0.892703827591297,0.035202727415132,2.33455130811307,0.5,77.8684760133333
CBC_1051,CBC_1051_MSI_AV_v3_Vset1_Aset1_2024-05-03_16h25.09.705.csv,1,11,3,2,z,0,1,2,aud,C,63,1,3C,2C,0,1,b,2.5783620000002,1,0,0,0,3C,2C,C32,3.25809653802148,0.506127086123438,0.493872913876562,0.493872913876562,0.5,0.5,0.5,0.5,0.493872913876562,0.5,0.5,0.506127086123438,0.493872913876562,0.5,0.5,0.487820910121851,0.506127086123438,0.487747667621398,0.512252332378602,0.493872913876562,0.506127086123438,0.125316620153287,0.500143211440008,-0.493872913876562,-0.00605200375471031,0.5,0.0122541722468767,0.892703827591297,0.035202727415132,2.33455130811307,0.5,77.8684760133333
CBC_1051,CBC_1051_MSI_AV_v3_Vset1_Aset1_2024-05-03_16h25.09.705.csv,1,12,1,0,b,1,0,0,aud,B,63,1,1B,0B,1,0,z,1.9191893999996,0,1,0,0,0B,1B,B10,2.60268968544438,0.506127086123438,0.493872913876562,0.493872913876562,0.5,0.5,0.5,0.5,0.493872913876562,0.5,0.5,0.506127086123438,0.487820910121851,0.5,0.5,0.487820910121851,0.506127086123438,0.5,0.5,0.5,0.5,0.226744182002683,0.499088725678447,-0.5,-0.00612708612343837,0.5,0.0122541722468767,0.892703827591297,0.035202727415132,2.33455130811307,0.5,77.8684760133333
CBC_1051,CBC_1051_MSI_AV_v3_Vset1_Aset1_2024-05-03_16h25.09.705.csv,1,13,3,2,b,1,0,3,aud,D,63,1,3D,2D,1,0,b,2.4863093999993,1,0,1,1,3D,2D,D32,2.63905732961526,0.506127086123438,0.493872913876562,0.493872913876562,0.5,0.493872913876562,0.5,0.5,0.493872913876562,0.5,0.5,0.506127086123438,0.487820910121851,0.5,0.5,0.487820910121851,0.506127086123438,0.518300713433889,0.481699286566111,0.506127086123438,0.487820910121851,0.136249710334143,0.500298914361026,0.493872913876562,0.00605200375471031,0.5,0.0122541722468767,0.892703827591297,0.035202727415132,2.33455130811307,0.5,77.8684760133333
CBC_1051,CBC_1051_MSI_AV_v3_Vset1_Aset1_2024-05-03_16h25.09.705.csv,1,14,3,2,z,0,1,2,aud,C,63,1,3C,2C,0,1,b,3.24985939999897,1,0,0,0,3C,2C,C32,2.67414864942653,0.506127086123438,0.493872913876562,0.493872913876562,0.5,0.493872913876562,0.5,0.5,0.493872913876562,0.5,0.5,0.506127086123438,0.487820910121851,0.5,0.5,0.487820910121851,0.512179089878149,0.481699286566111,0.518300713433889,0.487820910121851,0.506127086123438,0.0681065237573409,0.499254053957647,-0.487820910121851,-0.00597784145826135,0.5,0.0122541722468767,0.892703827591297,0.035202727415132,2.33455130811307,0.5,77.8684760133333
CBC_1051,CBC_1051_MSI_AV_v3_Vset1_Aset1_2024-05-03_16h25.09.705.csv,1,15,1,3,b,1,0,0,aud,B,27,1,1B,3B,1,0,b,2.17568659999961,1,0,1,1,1B,3B,B13,3.40119738166216,0.506127086123438,0.493872913876562,0.493872913876562,0.5,0.493872913876562,0.5,0.5,0.493872913876562,0.5,0.5,0.506127086123438,0.48184306866359,0.5,0.5,0.487820910121851,0.512179089878149,0.506127086123438,0.493872913876562,0.5,0.493872913876562,0.180535290519182,0.500514859892056,0.5,0.00612708612343837,0.5,0.0122541722468767,0.892703827591297,0.035202727415132,2.33455130811307,0.5,77.8684760133333
CBC_1051,CBC_1051_MSI_AV_v3_Vset1_Aset1_2024-05-03_16h25.09.705.csv,1,16,3,0,z,0,1,1,aud,A,9,1,3A,0A,NaN,NaN,[],NaN,NaN,NaN,NaN,NaN,,,A30,3.43398720448515,0.506127086123438,0.493872913876562,0.493872913876562,0.5,0.493872913876562,0.506127086123438,0.5,0.493872913876562,0.5,0.5,0.506127086123438,0.48184306866359,0.5,0.5,0.487820910121851,0.512179089878149,0,0,0,0,NaN,0,0,0,0.5,0.0122541722468767,0.892703827591297,0.035202727415132,2.33455130811307,0.5,77.8684760133333
CBC_1051,CBC_1051_MSI_AV_v3_Vset1_Aset1_2024-05-03_16h25.09.705.csv,1,17,3,2,b,1,0,3,aud,D,63,1,3D,2D,1,0,z,1.43304010000065,0,1,0,0,2D,3D,D32,2.36712361413162,0.506127086123438,0.493872913876562,0.493872913876562,0.5,0.493872913876562,0.506127086123438,0.5,0.493872913876562,0.5,0.5,0.506127086123438,0.48184306866359,0.5,0.5,0.487820910121851,0.512179089878149,0.475656263891632,0.524343736108368,0.487820910121851,0.512179089878149,0.331479576000321,0.498838237607966,-0.487820910121851,-0.00597784145826135,0.5,0.0122541722468767,0.892703827591297,0.035202727415132,2.33455130811307,0.5,77.8684760133333
CBC_1051,CBC_1051_MSI_AV_v3_Vset1_Aset1_2024-05-03_16h25.09.705.csv,1,18,2,0,b,1,0,2,aud,C,27,1,2C,0C,1,0,z,2.51855099999739,0,1,0,0,0C,2C,C20,2.80336038090653,0.506127086123438,0.493872913876562,0.493872913876562,0.5,0.493872913876562,0.506127086123438,0.5,0.493872913876562,0.5,0.5,0.506127086123438,0.48184306866359,0.5,0.5,0.48184306866359,0.512179089878149,0.493872913876562,0.506127086123438,0.5,0.506127086123438,0.13216764244061,0.499683338584667,-0.5,-0.00612708612343837,0.5,0.0122541722468767,0.892703827591297,0.035202727415132,2.33455130811307,0.5,77.8684760133333
CBC_1051,CBC_1051_MSI_AV_v3_Vset1_Aset1_2024-05-03_16h25.09.705.csv,1,19,1,0,z,0,1,1,aud,A,63,1,1A,0A,0,1,z,1.43823060000068,0,1,1,1,0A,1A,A10,2.42774823594805,0.506127086123438,0.493872913876562,0.493872913876562,0.5,0.493872913876562,0.506127086123438,0.5,0.493872913876562,0.493872913876562,0.5,0.506127086123438,0.48184306866359,0.5,0.5,0.48184306866359,0.512179089878149,0.512252332378602,0.487747667621398,0.506127086123438,0.493872913876562,0.331169322936914,0.499547900263971,0.493872913876562,0.00605200375471031,0.5,0.0122541722468767,0.892703827591297,0.035202727415132,2.33455130811307,0.5,77.8684760133333
CBC_1051,CBC_1051_MSI_AV_v3_Vset1_Aset1_2024-05-03_16h25.09.705.csv,1,20,0,1,z,0,1,0,aud,B,63,0,0B,1B,1,0,b,2.8874293000008,1,0,0,1,0B,1B,B01,3.55534806148941,0.512179089878149,0.493872913876562,0.493872913876562,0.5,0.493872913876562,0.506127086123438,0.5,0.493872913876562,0.493872913876562,0.5,0.506127086123438,0.48184306866359,0.5,0.5,0.48184306866359,0.512179089878149,0.487747667621398,0.512252332378602,0.493872913876562,0.506127086123438,0.0949357072639171,0.501238945743387,0.506127086123438,0.00620216849216644,0.5,0.0122541722468767,0.892703827591297,0.035202727415132,2.33455130811307,0.5,77.8684760133333
CBC_1051,CBC_1051_MSI_AV_v3_Vset1_Aset1_2024-05-03_16h25.09.705.csv,1,21,1,3,z,0,1,3,aud,D,27,1,1D,3D,0,1,z,2.79226639999979,0,1,1,1,3D,1D,D13,3.58351893845611,0.512179089878149,0.493872913876562,0.493872913876562,0.5,0.500075082368728,0.506127086123438,0.5,0.493872913876562,0.493872913876562,0.5,0.506127086123438,0.48184306866359,0.5,0.5,0.48184306866359,0.512179089878149,0.512179089878149,0.487820910121851,0.512179089878149,0.5,0.10336000882448,0.500664752913152,0.487820910121851,0.00597784145826135,0.5,0.0122541722468767,0.892703827591297,0.035202727415132,2.33455130811307,0.5,77.8684760133333
CBC_1051,CBC_1051_MSI_AV_v3_Vset1_Aset1_2024-05-03_16h25.09.705.csv,1,22,2,3,b,1,0,2,aud,C,63,1,2C,3C,1,0,b,2.74458909999885,1,0,1,1,2C,3C,C23,2.91777073208428,0.512179089878149,0.493872913876562,0.493872913876562,0.5,0.500075082368728,0.506127086123438,0.5,0.493872913876562,0.493872913876562,0.5,0.506127086123438,0.48184306866359,0.5,0.5,0.48184306866359,0.51815693133641,0.524273215967871,0.475726784032129,0.506127086123438,0.48184306866359,0.10804290646105,0.50123739488312,0.493872913876562,0.00605200375471031,0.5,0.0122541722468767,0.892703827591297,0.035202727415132,2.33455130811307,0.5,77.8684760133333
CBC_1051,CBC_1051_MSI_AV_v3_Vset1_Aset1_2024-05-03_16h25.09.705.csv,1,23,1,0,b,1,0,0,aud,B,63,1,1B,0B,1,0,b,2.6061093999997,1,0,1,1,1B,0B,B10,2.53897387105828,0.512179089878149,0.493872913876562,0.493872913876562,0.5,0.500075082368728,0.506127086123438,0.5,0.493872913876562,0.493872913876562,0.5,0.512179089878149,0.48184306866359,0.5,0.5,0.48184306866359,0.51815693133641,0.506052014891293,0.493947985108707,0.506127086123438,0.500075082368728,0.122324269002475,0.50062018834389,0.493872913876562,0.00605200375471031,0.5,0.0122541722468767,0.892703827591297,0.035202727415132,2.33455130811307,0.5,77.8684760133333
CBC_1051,CBC_1051_MSI_AV_v3_Vset1_Aset1_2024-05-03_16h25.09.705.csv,1,24,2,0,z,0,1,1,aud,A,27,1,2A,0A,0,1,b,1.08173689999967,1,0,0,0,2A,0A,A20,3.66356164612965,0.512179089878149,0.493872913876562,0.493872913876562,0.5,0.500075082368728,0.512179089878149,0.5,0.493872913876562,0.493872913876562,0.5,0.512179089878149,0.48184306866359,0.5,0.5,0.48184306866359,0.51815693133641,0.481699286566111,0.518300713433889,0.493872913876562,0.512179089878149,0.153976335904799,0.499256214880881,-0.493872913876562,-0.00605200375471031,0.5,0.0122541722468767,0.892703827591297,0.035202727415132,2.33455130811307,0.5,77.8684760133333
CBC_1051,CBC_1051_MSI_AV_v3_Vset1_Aset1_2024-05-03_16h25.09.705.csv,1,25,2,3,z,0,1,3,aud,D,63,1,2D,3D,0,1,z,3.28585469999962,0,1,1,1,3D,2D,D23,2.99573227355399,0.512179089878149,0.493872913876562,0.487820910121851,0.5,0.500075082368728,0.512179089878149,0.5,0.493872913876562,0.493872913876562,0.5,0.512179089878149,0.48184306866359,0.5,0.5,0.48184306866359,0.51815693133641,0.536266038769993,0.463733961230007,0.51815693133641,0.48184306866359,0.0662996064475224,0.5021122930081,0.48184306866359,0.00590458795936729,0.5,0.0122541722468767,0.892703827591297,0.035202727415132,2.33455130811307,0.5,77.8684760133333
CBC_1051,CBC_1051_MSI_AV_v3_Vset1_Aset1_2024-05-03_16h25.09.705.csv,1,26,2,0,b,1,0,2,aud,C,27,1,2C,0C,1,0,b,1.83576789999643,1,0,1,1,2C,0C,C20,2.6149597780362,0.512179089878149,0.493872913876562,0.487820910121851,0.5,0.500075082368728,0.512179089878149,0.5,0.493872913876562,0.493872913876562,0.5,0.512179089878149,0.48184306866359,0.5,0.5,0.48184306866359,0.524061519295777,0.518300713433889,0.481699286566111,0.512179089878149,0.493872913876562,0.244948765644784,0.500671157777288,0.487820910121851,0.00597784145826135,0.5,0.0122541722468767,0.892703827591297,0.035202727415132,2.33455130811307,0.5,77.8684760133333
CBC_1051,CBC_1051_MSI_AV_v3_Vset1_Aset1_2024-05-03_16h25.09.705.csv,1,27,1,0,b,1,0,0,aud,B,63,1,1B,0B,1,0,z,1.65088589999868,0,1,0,0,0B,1B,B10,2.35137525716348,0.512179089878149,0.493872913876562,0.487820910121851,0.5,0.500075082368728,0.512179089878149,0.5,0.493872913876562,0.493872913876562,0.5,0.51815693133641,0.48184306866359,0.5,0.5,0.48184306866359,0.524061519295777,0.487895948217109,0.512104051782891,0.500075082368728,0.512179089878149,0.285704910387918,0.498522882787236,-0.500075082368728,-0.00612800619571747,0.5,0.0122541722468767,0.892703827591297,0.035202727415132,2.33455130811307,0.5,77.8684760133333
CBC_1051,CBC_1051_MSI_AV_v3_Vset1_Aset1_2024-05-03_16h25.09.705.csv,1,28,0,1,b,1,0,1,aud,A,63,1,0A,1A,1,0,b,2.0391664000017,1,0,1,1,0A,1A,A01,3.76120011569356,0.512179089878149,0.493872913876562,0.487820910121851,0.5,0.493947076173011,0.512179089878149,0.5,0.493872913876562,0.493872913876562,0.5,0.51815693133641,0.48184306866359,0.5,0.5,0.48184306866359,0.524061519295777,0.518300713433889,0.481699286566111,0.512179089878149,0.493872913876562,0.204061730467258,0.500190072063653,0.487820910121851,0.00597784145826135,0.5,0.0122541722468767,0.892703827591297,0.035202727415132,2.33455130811307,0.5,77.8684760133333
CBC_1051,CBC_1051_MSI_AV_v3_Vset1_Aset1_2024-05-03_16h25.09.705.csv,1,29,3,2,z,0,1,2,aud,C,63,1,3C,2C,0,1,b,1.66131280000263,1,0,0,0,3C,2C,C32,2.68557734525015,0.51815693133641,0.493872913876562,0.487820910121851,0.5,0.493947076173011,0.512179089878149,0.5,0.493872913876562,0.493872913876562,0.5,0.51815693133641,0.48184306866359,0.5,0.5,0.48184306866359,0.524061519295777,0.463733961230007,0.536266038769993,0.48184306866359,0.51815693133641,0.283667351399134,0.49920896404384,-0.48184306866359,-0.00590458795936729,0.5,0.0122541722468767,0.892703827591297,0.035202727415132,2.33455130811307,0.5,77.8684760133333
CBC_1051,CBC_1051_MSI_AV_v3_Vset1_Aset1_2024-05-03_16h25.09.705.csv,1,30,3,1,b,1,0,3,aud,D,27,1,3D,1D,1,0,z,2.39321139999811,0,1,0,0,1D,3D,D31,3.80666248977032,0.51815693133641,0.493872913876562,0.487820910121851,0.5,0.493947076173011,0.512179089878149,0.5,0.493872913876562,0.493872913876562,0.5,0.51815693133641,0.475938480704223,0.5,0.5,0.48184306866359,0.524061519295777,0.475938480704223,0.524061519295777,0.5,0.524061519295777,0.147897364700753,0.499180541227308,-0.5,-0.00612708612343837,0.5,0.0122541722468767,0.892703827591297,0.035202727415132,2.33455130811307,0.5,77.8684760133333
CBC_1051,CBC_1051_MSI_AV_v3_Vset1_Aset1_2024-05-03_16h25.09.705.csv,1,31,1,0,z,0,1,1,aud,A,63,1,1A,0A,0,1,z,1.82008989999667,0,1,1,1,0A,1A,A10,2.4423470353692,0.51815693133641,0.493872913876562,0.487820910121851,0.5,0.493947076173011,0.512179089878149,0.5,0.493872913876562,0.493872913876562,0.5,0.51815693133641,0.475938480704223,0.5,0.493872913876562,0.48184306866359,0.524061519295777,0.52427321596787,0.47572678403213,0.51815693133641,0.493872913876562,0.24884870693695,0.501668386009355,0.48184306866359,0.00590458795936729,0.5,0.0122541722468767,0.892703827591297,0.035202727415132,2.33455130811307,0.5,77.8684760133333
CBC_1051,CBC_1051_MSI_AV_v3_Vset1_Aset1_2024-05-03_16h25.09.705.csv,1,32,3,2,b,1,0,3,aud,D,63,1,3D,2D,1,0,b,2.57863240000006,1,0,1,1,3D,2D,D32,2.46385324059017,0.524061519295777,0.493872913876562,0.487820910121851,0.5,0.493947076173011,0.512179089878149,0.5,0.493872913876562,0.493872913876562,0.5,0.51815693133641,0.475938480704223,0.5,0.493872913876562,0.48184306866359,0.524061519295777,0.542144801183858,0.457855198816142,0.524061519295777,0.48184306866359,0.12558917516082,0.501354138120702,0.475938480704223,0.00583223212146637,0.5,0.0122541722468767,0.892703827591297,0.035202727415132,2.33455130811307,0.5,77.8684760133333
CBC_1051,CBC_1051_MSI_AV_v3_Vset1_Aset1_2024-05-03_16h25.09.705.csv,1,33,2,1,z,0,1,0,aud,B,9,1,2B,1B,0,1,b,1.89045120000083,1,0,0,0,2B,1B,B21,3.87120101090789,0.524061519295777,0.493872913876562,0.487820910121851,0.5,0.493947076173011,0.512179089878149,0.5,0.493872913876562,0.493872913876562,0.5,0.51815693133641,0.475938480704223,0.5,0.493872913876562,0.48184306866359,0.529893751417244,0.487820910121851,0.512179089878149,0.5,0.512179089878149,0.233011540231726,0.499915628426321,-0.5,-0.00612708612343837,0.5,0.0122541722468767,0.892703827591297,0.035202727415132,2.33455130811307,0.5,77.8684760133333
CBC_1051,CBC_1051_MSI_AV_v3_Vset1_Aset1_2024-05-03_16h25.09.705.csv,1,34,1,0,z,0,1,1,aud,A,63,1,1A,0A,0,1,z,1.12896460000047,0,1,1,1,0A,1A,A10,2.28238238567653,0.524061519295777,0.493872913876562,0.487820910121851,0.5,0.493947076173011,0.512179089878149,0.493872913876562,0.493872913876562,0.493872913876562,0.5,0.51815693133641,0.475938480704223,0.5,0.493872913876562,0.48184306866359,0.529893751417244,0.530170813449039,0.469829186550961,0.524061519295777,0.493872913876562,0.227394551609984,0.501252145874118,0.475938480704223,0.00583223212146637,0.5,0.0122541722468767,0.892703827591297,0.035202727415132,2.33455130811307,0.5,77.8684760133333
CBC_1051,CBC_1051_MSI_AV_v3_Vset1_Aset1_2024-05-03_16h25.09.705.csv,1,35,2,1,b,1,0,2,aud,C,9,1,2C,1C,1,0,z,2.31324799999857,0,1,0,0,1C,2C,C21,3.91202300542815,0.529893751417244,0.493872913876562,0.487820910121851,0.5,0.493947076173011,0.512179089878149,0.493872913876562,0.493872913876562,0.493872913876562,0.5,0.51815693133641,0.475938480704223,0.5,0.493872913876562,0.48184306866359,0.529893751417244,0.48184306866359,0.51815693133641,0.5,0.51815693133641,0.159321579986816,0.500204016651747,-0.5,-0.00612708612343837,0.5,0.0122541722468767,0.892703827591297,0.035202727415132,2.33455130811307,0.5,77.8684760133333
CBC_1051,CBC_1051_MSI_AV_v3_Vset1_Aset1_2024-05-03_16h25.09.705.csv,1,36,1,0,b,1,0,0,aud,B,63,1,1B,0B,1,0,b,1.61254040000131,1,0,1,1,1B,0B,B10,2.32238772029023,0.529893751417244,0.493872913876562,0.487820910121851,0.5,0.493947076173011,0.512179089878149,0.493872913876562,0.493872913876562,0.493872913876562,0.493872913876562,0.51815693133641,0.475938480704223,0.5,0.493872913876562,0.48184306866359,0.529893751417244,0.518226639099175,0.481773360900825,0.512179089878149,0.493947076173011,0.295850531416602,0.500616490834584,0.487820910121851,0.00597784145826135,0.5,0.0122541722468767,0.892703827591297,0.035202727415132,2.33455130811307,0.5,77.8684760133333
CBC_1051,CBC_1051_MSI_AV_v3_Vset1_Aset1_2024-05-03_16h25.09.705.csv,1,37,0,1,b,1,0,1,aud,A,63,0,0A,1A,0,1,b,1.61197299999913,1,0,1,0,0A,1A,A01,3.25809653802148,0.529893751417244,0.493872913876562,0.487820910121851,0.5,0.493947076173011,0.51815693133641,0.493872913876562,0.493872913876562,0.493872913876562,0.493872913876562,0.51815693133641,0.475938480704223,0.5,0.493872913876562,0.48184306866359,0.529893751417244,0.535994466326022,0.464005533673978,0.529893751417244,0.493872913876562,0.296467453287531,0.501436191582423,-0.529893751417244,-0.00649340930241059,0.5,0.0122541722468767,0.892703827591297,0.035202727415132,2.33455130811307,0.5,77.8684760133333
CBC_1051,CBC_1051_MSI_AV_v3_Vset1_Aset1_2024-05-03_16h25.09.705.csv,1,38,0,1,z,0,1,0,aud,B,63,1,0B,1B,0,1,b,2.43618670000069,1,0,0,0,0B,1B,B01,3.27714473299218,0.523400342114833,0.493872913876562,0.487820910121851,0.5,0.493947076173011,0.51815693133641,0.493872913876562,0.493872913876562,0.493872913876562,0.493872913876562,0.51815693133641,0.475938480704223,0.5,0.493872913876562,0.48184306866359,0.529893751417244,0.475800783056521,0.524199216943479,0.493947076173011,0.51815693133641,0.142130765378166,0.498744354994103,-0.493947076173011,-0.00605291255226522,0.5,0.0122541722468767,0.892703827591297,0.035202727415132,2.33455130811307,0.5,77.8684760133333
CBC_1051,CBC_1051_MSI_AV_v3_Vset1_Aset1_2024-05-03_16h25.09.705.csv,1,39,1,3,z,0,1,3,aud,D,27,1,1D,3D,0,1,b,1.71705169999768,1,0,0,0,1D,3D,D13,3.29583686600433,0.523400342114833,0.493872913876562,0.487820910121851,0.5,0.487894163620745,0.51815693133641,0.493872913876562,0.493872913876562,0.493872913876562,0.493872913876562,0.51815693133641,0.475938480704223,0.5,0.493872913876562,0.48184306866359,0.529893751417244,0.464005533673978,0.535994466326022,0.493872913876562,0.529893751417244,0.270083434020043,0.497987945499755,-0.493872913876562,-0.00605200375471031,0.5,0.0122541722468767,0.892703827591297,0.035202727415132,2.33455130811307,0.5,77.8684760133333
CBC_1051,CBC_1051_MSI_AV_v3_Vset1_Aset1_2024-05-03_16h25.09.705.csv,1,40,3,2,z,0,1,2,aud,C,63,1,3C,2C,0,1,b,2.61744579999868,1,0,0,0,3C,2C,C32,2.62103882411258,0.523400342114833,0.493872913876562,0.487820910121851,0.5,0.487894163620745,0.51815693133641,0.493872913876562,0.493872913876562,0.493872913876562,0.493872913876562,0.51815693133641,0.475938480704223,0.5,0.487820910121851,0.48184306866359,0.529893751417244,0.457855198816142,0.542144801183858,0.475938480704223,0.51815693133641,0.120397572439598,0.497819463570369,-0.475938480704223,-0.00583223212146637,0.5,0.0122541722468767,0.892703827591297,0.035202727415132,2.33455130811307,0.5,77.8684760133333
CBC_1051,CBC_1051_MSI_AV_v3_Vset1_Aset1_2024-05-03_16h25.09.705.csv,1,41,0,2,b,1,0,1,aud,A,27,1,0A,2A,1,0,z,1.03571649999867,0,1,0,0,2A,0A,A02,3.3322045101752,0.523400342114833,0.493872913876562,0.487820910121851,0.5,0.487894163620745,0.51815693133641,0.493872913876562,0.493872913876562,0.493872913876562,0.493872913876562,0.51815693133641,0.470106248582756,0.5,0.487820910121851,0.48184306866359,0.529893751417244,0.464461081644656,0.535538918355344,0.487820910121851,0.523400342114833,0.0733032604718359,0.498780205918308,-0.487820910121851,-0.00597784145826135,0.5,0.0122541722468767,0.892703827591297,0.035202727415132,2.33455130811307,0.5,77.8684760133333
CBC_1051,CBC_1051_MSI_AV_v3_Vset1_Aset1_2024-05-03_16h25.09.705.csv,1,42,2,3,z,0,1,3,aud,D,63,1,2D,3D,0,1,b,2.11018889999832,1,0,0,0,2D,3D,D23,2.94443897916644,0.523400342114833,0.493872913876562,0.48184306866359,0.5,0.487894163620745,0.51815693133641,0.493872913876562,0.493872913876562,0.493872913876562,0.493872913876562,0.51815693133641,0.470106248582756,0.5,0.487820910121851,0.48184306866359,0.529893751417244,0.452053414804693,0.547946585195307,0.48184306866359,0.529893751417244,0.190694437313158,0.498321668786479,-0.48184306866359,-0.00590458795936729,0.5,0.0122541722468767,0.892703827591297,0.035202727415132,2.33455130811307,0.5,77.8684760133333
CBC_1051,CBC_1051_MSI_AV_v3_Vset1_Aset1_2024-05-03_16h25.09.705.csv,1,43,1,3,b,1,0,0,aud,B,27,1,1B,3B,1,0,b,2.633199099997,1,0,1,1,1B,3B,B13,3.36729582998647,0.523400342114833,0.493872913876562,0.48184306866359,0.5,0.487894163620745,0.51815693133641,0.493872913876562,0.493872913876562,0.493872913876562,0.493872913876562,0.51815693133641,0.470106248582756,0.5,0.487820910121851,0.475938480704223,0.529893751417244,0.52427321596787,0.47572678403213,0.51815693133641,0.493872913876562,0.119486244600728,0.501147333852426,0.48184306866359,0.00590458795936729,0.5,0.0122541722468767,0.892703827591297,0.035202727415132,2.33455130811307,0.5,77.8684760133333
CBC_1051,CBC_1051_MSI_AV_v3_Vset1_Aset1_2024-05-03_16h25.09.705.csv,1,44,3,2,z,0,1,2,aud,C,63,1,3C,2C,0,1,z,3.06426450000072,0,1,1,1,2C,3C,C32,2.46809953147162,0.523400342114833,0.493872913876562,0.48184306866359,0.5,0.487894163620745,0.524061519295777,0.493872913876562,0.493872913876562,0.493872913876562,0.493872913876562,0.51815693133641,0.470106248582756,0.5,0.487820910121851,0.475938480704223,0.529893751417244,0.547946585195307,0.452053414804693,0.51815693133641,0.470106248582756,0.0810178180639774,0.502034744846129,0.48184306866359,0.00590458795936729,0.5,0.0122541722468767,0.892703827591297,0.035202727415132,2.33455130811307,0.5,77.8684760133333
CBC_1051,CBC_1051_MSI_TV_v3_Vset2_Tset1_2024-05-03_17h13.22.033.csv,2,1,0,1,z,0,1,0,tac,B,63,1,0B,1B,0,1,b,1.45111499999985,1,0,0,0,0B,1B,B01,2.77258872223978,0.5,0.5,0.5,0.5,0.5,0.5,0.5,0.5,0.5,0.5,0.5,0.5,0.5,0.5,0.5,0.5,0.5,0.5,0.5,0.5,0.118714937809589,0.499295313424239,-0.5,-0.183785233438965,0.5,0.367570466877931,1.09604513619662,0.890338615711304,3.00051581262151,0.5,69.3808835240266
CBC_1051,CBC_1051_MSI_TV_v3_Vset2_Tset1_2024-05-03_17h13.22.033.csv,2,2,1,0,z,0,1,1,tac,A,63,1,1A,0A,0,1,z,2.70806789999915,0,1,1,1,0A,1A,A10,2.83321334405622,0.5,0.5,0.5,0.5,0.316214766561035,0.5,0.5,0.5,0.5,0.5,0.5,0.5,0.5,0.5,0.5,0.5,0.5,0.5,0.5,0.5,0.143932219892381,0.500284843325037,0.5,0.183785233438965,0.5,0.367570466877931,1.09604513619662,0.890338615711304,3.00051581262151,0.5,69.3808835240266
CBC_1051,CBC_1051_MSI_TV_v3_Vset2_Tset1_2024-05-03_17h13.22.033.csv,2,3,2,1,b,1,0,2,tac,C,9,1,2C,1C,1,0,b,2.62259279999853,1,0,1,1,2C,1C,C21,2.89037175789616,0.683785233438965,0.5,0.5,0.5,0.316214766561035,0.5,0.5,0.5,0.5,0.5,0.5,0.5,0.5,0.5,0.5,0.5,0.5,0.5,0.5,0.5,0.150414813127916,0.499469247475866,0.5,0.183785233438965,0.5,0.367570466877931,1.09604513619662,0.890338615711304,3.00051581262151,0.5,69.3808835240266
CBC_1051,CBC_1051_MSI_TV_v3_Vset2_Tset1_2024-05-03_17h13.22.033.csv,2,4,0,1,b,1,0,1,tac,A,63,1,0A,1A,1,0,b,2.36873399999968,1,0,1,1,0A,1A,A01,2.94443897916644,0.683785233438965,0.5,0.5,0.5,0.316214766561035,0.5,0.5,0.5,0.5,0.5,0.683785233438965,0.5,0.5,0.5,0.5,0.5,0.683785233438965,0.316214766561035,0.683785233438965,0.5,0.262438330958936,0.72817551960328,0.316214766561035,0.116231209378535,0.5,0.367570466877931,1.09604513619662,0.890338615711304,3.00051581262151,0.5,69.3808835240266
CBC_1051,CBC_1051_MSI_TV_v3_Vset2_Tset1_2024-05-03_17h13.22.033.csv,2,5,1,3,z,0,1,3,tac,D,27,1,1D,3D,0,1,z,2.51931550000154,0,1,1,1,3D,1D,D13,2.99573227355399,0.800016442817501,0.5,0.5,0.5,0.316214766561035,0.5,0.5,0.5,0.5,0.5,0.683785233438965,0.5,0.5,0.5,0.5,0.5,0.5,0.5,0.5,0.5,0.158672852663437,0.498958463933859,0.5,0.183785233438965,0.5,0.367570466877931,1.09604513619662,0.890338615711304,3.00051581262151,0.5,69.3808835240266
CBC_1051,CBC_1051_MSI_TV_v3_Vset2_Tset1_2024-05-03_17h13.22.033.csv,2,6,1,0,b,1,0,0,tac,B,63,1,1B,0B,1,0,b,2.90356520000205,1,0,1,1,1B,0B,B10,3.04452243772342,0.800016442817501,0.5,0.5,0.5,0.316214766561035,0.5,0.5,0.5,0.5,0.5,0.683785233438965,0.5,0.5,0.5,0.5,0.683785233438965,0.683785233438965,0.316214766561035,0.5,0.316214766561035,0.191690994948279,0.726587128621457,0.5,0.183785233438965,0.5,0.367570466877931,1.09604513619662,0.890338615711304,3.00051581262151,0.5,69.3808835240266
CBC_1051,CBC_1051_MSI_TV_v3_Vset2_Tset1_2024-05-03_17h13.22.033.csv,2,7,3,2,z,0,1,2,tac,C,63,1,3C,2C,0,1,z,3.33921610000107,0,1,1,1,2C,3C,C32,3.09104245335832,0.800016442817501,0.5,0.5,0.5,0.316214766561035,0.683785233438965,0.5,0.5,0.5,0.5,0.683785233438965,0.5,0.5,0.5,0.5,0.683785233438965,0.683785233438965,0.316214766561035,0.683785233438965,0.5,0.147681100842722,0.726702542385967,0.316214766561035,0.116231209378535,0.5,0.367570466877931,1.09604513619662,0.890338615711304,3.00051581262151,0.5,69.3808835240266
CBC_1051,CBC_1051_MSI_TV_v3_Vset2_Tset1_2024-05-03_17h13.22.033.csv,2,8,0,2,b,1,0,1,tac,A,27,1,0A,2A,1,0,b,2.94129579999935,1,0,1,1,0A,2A,A02,3.13549421592915,0.800016442817501,0.5,0.5,0.5,0.316214766561035,0.683785233438965,0.5,0.5,0.5,0.5,0.800016442817501,0.5,0.5,0.5,0.5,0.683785233438965,0.800016442817501,0.199983557182499,0.800016442817501,0.5,0.217114754365249,0.832179011335364,0.199983557182499,0.0735080494814806,0.5,0.367570466877931,1.09604513619662,0.890338615711304,3.00051581262151,0.5,69.3808835240266
CBC_1051,CBC_1051_MSI_TV_v3_Vset2_Tset1_2024-05-03_17h13.22.033.csv,2,9,2,3,z,0,1,3,tac,D,63,1,2D,3D,0,1,z,3.59057969999776,0,1,1,1,3D,2D,D23,3.17805383034795,0.873524492298981,0.5,0.5,0.5,0.316214766561035,0.683785233438965,0.5,0.5,0.5,0.5,0.800016442817501,0.5,0.5,0.5,0.5,0.683785233438965,0.683785233438965,0.316214766561035,0.683785233438965,0.5,0.127159487594618,0.727927252701201,0.316214766561035,0.116231209378535,0.5,0.367570466877931,1.09604513619662,0.890338615711304,3.00051581262151,0.5,69.3808835240266
CBC_1051,CBC_1051_MSI_TV_v3_Vset2_Tset1_2024-05-03_17h13.22.033.csv,2,10,1,3,b,1,0,0,tac,B,27,1,1B,3B,1,0,z,2.7097978999991,0,1,0,0,3B,1B,B13,3.2188758248682,0.873524492298981,0.5,0.5,0.5,0.316214766561035,0.683785233438965,0.5,0.5,0.5,0.5,0.800016442817501,0.5,0.5,0.5,0.5,0.800016442817501,0.316214766561035,0.683785233438965,0.5,0.683785233438965,0.0808459664855296,0.273119399150733,-0.5,-0.183785233438965,0.5,0.367570466877931,1.09604513619662,0.890338615711304,3.00051581262151,0.5,69.3808835240266
CBC_1051,CBC_1051_MSI_TV_v3_Vset2_Tset1_2024-05-03_17h13.22.033.csv,2,11,2,3,b,1,0,2,tac,C,63,1,2C,3C,1,0,z,2.25165310000011,0,1,0,0,3C,2C,C23,3.25809653802148,0.873524492298981,0.5,0.5,0.5,0.316214766561035,0.683785233438965,0.5,0.316214766561035,0.5,0.5,0.800016442817501,0.5,0.5,0.5,0.5,0.800016442817501,0.199983557182499,0.800016442817501,0.5,0.800016442817501,0.0694625582032326,0.168509572554093,-0.5,-0.183785233438965,0.5,0.367570466877931,1.09604513619662,0.890338615711304,3.00051581262151,0.5,69.3808835240266
CBC_1051,CBC_1051_MSI_TV_v3_Vset2_Tset1_2024-05-03_17h13.22.033.csv,2,12,3,1,z,0,1,0,tac,B,27,1,3B,1B,0,1,z,1.81397490000018,0,1,1,1,1B,3B,B31,3.29583686600433,0.873524492298981,0.5,0.5,0.5,0.316214766561035,0.683785233438965,0.5,0.316214766561035,0.5,0.5,0.800016442817501,0.316214766561035,0.5,0.5,0.5,0.800016442817501,0.823819805071802,0.176180194928198,0.683785233438965,0.316214766561035,0.432375483042198,0.849289208282746,0.316214766561035,0.116231209378535,0.5,0.367570466877931,1.09604513619662,0.890338615711304,3.00051581262151,0.5,69.3808835240266
CBC_1051,CBC_1051_MSI_TV_v3_Vset2_Tset1_2024-05-03_17h13.22.033.csv,2,13,2,3,b,1,0,2,tac,C,63,1,2C,3C,1,0,b,2.37071580000338,1,0,1,1,2C,3C,C23,2.63905732961526,0.873524492298981,0.5,0.5,0.5,0.316214766561035,0.800016442817501,0.5,0.316214766561035,0.5,0.5,0.800016442817501,0.316214766561035,0.5,0.5,0.5,0.800016442817501,0.896378636605044,0.103621363394956,0.800016442817501,0.316214766561035,0.360209137654604,0.892774778047779,0.199983557182499,0.0735080494814806,0.5,0.367570466877931,1.09604513619662,0.890338615711304,3.00051581262151,0.5,69.3808835240266
CBC_1051,CBC_1051_MSI_TV_v3_Vset2_Tset1_2024-05-03_17h13.22.033.csv,2,14,2,3,z,0,1,3,tac,D,63,1,2D,3D,0,1,z,2.46285780000107,0,1,1,1,3D,2D,D23,2.67414864942653,0.873524492298981,0.5,0.5,0.5,0.316214766561035,0.800016442817501,0.5,0.316214766561035,0.5,0.5,0.873524492298981,0.316214766561035,0.5,0.5,0.5,0.800016442817501,0.800016442817501,0.199983557182499,0.800016442817501,0.5,0.300351052210758,0.83259127436518,0.199983557182499,0.0735080494814806,0.5,0.367570466877931,1.09604513619662,0.890338615711304,3.00051581262151,0.5,69.3808835240266
CBC_1051,CBC_1051_MSI_TV_v3_Vset2_Tset1_2024-05-03_17h13.22.033.csv,2,15,3,0,z,0,1,1,tac,A,9,1,3A,0A,0,1,z,2.52667199999996,0,1,1,1,0A,3A,A30,3.40119738166216,0.873524492298981,0.5,0.5,0.5,0.316214766561035,0.800016442817501,0.5,0.316214766561035,0.5,0.5,0.873524492298981,0.316214766561035,0.5,0.5,0.5,0.873524492298981,0.873524492298981,0.126475507701019,0.873524492298981,0.5,0.313157423842097,0.880468944203965,0.126475507701019,0.0464886614142867,0.5,0.367570466877931,1.09604513619662,0.890338615711304,3.00051581262151,0.5,69.3808835240266
CBC_1051,CBC_1051_MSI_TV_v3_Vset2_Tset1_2024-05-03_17h13.22.033.csv,2,16,1,0,b,1,0,0,tac,B,63,0,1B,0B,0,1,z,2.74562980000337,0,1,0,1,0B,1B,B10,2.7408400239252,0.920013153713268,0.5,0.5,0.5,0.316214766561035,0.800016442817501,0.5,0.316214766561035,0.5,0.5,0.873524492298981,0.316214766561035,0.5,0.5,0.5,0.873524492298981,0.103621363394956,0.896378636605044,0.316214766561035,0.800016442817501,0.0323724843719658,0.107219458395888,0.683785233438965,0.251339257499396,0.5,0.367570466877931,1.09604513619662,0.890338615711304,3.00051581262151,0.5,69.3808835240266
CBC_1051,CBC_1051_MSI_TV_v3_Vset2_Tset1_2024-05-03_17h13.22.033.csv,2,17,3,2,b,1,0,3,tac,D,63,1,3D,2D,1,0,b,2.50900929999989,1,0,1,1,3D,2D,D32,3.46573590279973,0.920013153713268,0.5,0.5,0.5,0.56755402406043,0.800016442817501,0.5,0.316214766561035,0.5,0.5,0.873524492298981,0.316214766561035,0.5,0.5,0.5,0.873524492298981,0.873524492298981,0.126475507701019,0.873524492298981,0.5,0.317231630736138,0.88035148965889,0.126475507701019,0.0464886614142867,0.5,0.367570466877931,1.09604513619662,0.890338615711304,3.00051581262151,0.5,69.3808835240266
CBC_1051,CBC_1051_MSI_TV_v3_Vset2_Tset1_2024-05-03_17h13.22.033.csv,2,18,2,0,b,1,0,2,tac,C,27,1,2C,0C,1,0,z,1.92535590000261,0,1,0,0,0C,2C,C20,3.49650756146648,0.920013153713268,0.5,0.5,0.5,0.56755402406043,0.800016442817501,0.5,0.316214766561035,0.5,0.5,0.873524492298981,0.316214766561035,0.5,0.5,0.5,0.920013153713268,0.126475507701019,0.873524492298981,0.5,0.873524492298981,0.0626078106135561,0.119663594712179,-0.5,-0.183785233438965,0.5,0.367570466877931,1.09604513619662,0.890338615711304,3.00051581262151,0.5,69.3808835240266
CBC_1051,CBC_1051_MSI_TV_v3_Vset2_Tset1_2024-05-03_17h13.22.033.csv,2,19,1,0,z,0,1,1,tac,A,63,1,1A,0A,0,1,z,2.47438490000422,0,1,1,1,0A,1A,A10,2.83321334405622,0.920013153713268,0.5,0.5,0.5,0.56755402406043,0.800016442817501,0.5,0.316214766561035,0.316214766561035,0.5,0.873524492298981,0.316214766561035,0.5,0.5,0.5,0.920013153713268,0.920013153713268,0.0799868462867318,0.920013153713268,0.5,0.340190373491875,0.904514405663933,0.0799868462867318,0.0294008024337073,0.5,0.367570466877931,1.09604513619662,0.890338615711304,3.00051581262151,0.5,69.3808835240266
CBC_1051,CBC_1051_MSI_TV_v3_Vset2_Tset1_2024-05-03_17h13.22.033.csv,2,20,0,1,z,0,1,0,tac,B,63,1,0B,1B,0,1,b,3.80118200000288,1,0,0,0,0B,1B,B01,2.86220088092947,0.949413956146976,0.5,0.5,0.5,0.56755402406043,0.800016442817501,0.5,0.316214766561035,0.316214766561035,0.5,0.873524492298981,0.316214766561035,0.5,0.5,0.5,0.920013153713268,0.247029442295841,0.752970557704159,0.56755402406043,0.800016442817501,0.0305941210938358,0.205412535841663,-0.56755402406043,-0.208616097602341,0.5,0.367570466877931,1.09604513619662,0.890338615711304,3.00051581262151,0.5,69.3808835240266
CBC_1051,CBC_1051_MSI_TV_v3_Vset2_Tset1_2024-05-03_17h13.22.033.csv,2,21,3,1,b,1,0,3,tac,D,27,1,3D,1D,1,0,b,4.18418820000079,1,0,1,1,3D,1D,D31,3.58351893845611,0.949413956146976,0.5,0.5,0.5,0.358937926458089,0.800016442817501,0.5,0.316214766561035,0.316214766561035,0.5,0.873524492298981,0.316214766561035,0.5,0.5,0.5,0.920013153713268,0.920013153713268,0.0799868462867318,0.920013153713268,0.5,0.0832155317011217,0.903867304837997,0.0799868462867318,0.0294008024337073,0.5,0.367570466877931,1.09604513619662,0.890338615711304,3.00051581262151,0.5,69.3808835240266
CBC_1051,CBC_1051_MSI_TV_v3_Vset2_Tset1_2024-05-03_17h13.22.033.csv,2,22,2,3,b,1,0,2,tac,C,63,1,2C,3C,1,0,b,2.02530489999845,1,0,1,1,2C,3C,C23,2.51230562397611,0.949413956146976,0.5,0.5,0.5,0.358937926458089,0.800016442817501,0.5,0.316214766561035,0.316214766561035,0.5,0.873524492298981,0.316214766561035,0.5,0.5,0.5,0.949413956146976,0.937245193370007,0.0627548066299928,0.873524492298981,0.316214766561035,0.482962462664326,0.911907035852837,0.126475507701019,0.0464886614142867,0.5,0.367570466877931,1.09604513619662,0.890338615711304,3.00051581262151,0.5,69.3808835240266
CBC_1051,CBC_1051_MSI_TV_v3_Vset2_Tset1_2024-05-03_17h13.22.033.csv,2,23,1,0,z,0,1,1,tac,A,63,1,1A,0A,0,1,z,2.46226100000058,0,1,1,1,0A,1A,A10,2.53897387105828,0.949413956146976,0.5,0.5,0.5,0.358937926458089,0.800016442817501,0.5,0.316214766561035,0.316214766561035,0.5,0.920013153713268,0.316214766561035,0.5,0.5,0.5,0.949413956146976,0.949413956146976,0.0505860438530245,0.949413956146976,0.5,0.35110961524477,0.916607054177048,0.0505860438530245,0.0185939357565637,0.5,0.367570466877931,1.09604513619662,0.890338615711304,3.00051581262151,0.5,69.3808835240266
CBC_1051,CBC_1051_MSI_TV_v3_Vset2_Tset1_2024-05-03_17h13.22.033.csv,2,24,3,2,b,1,0,3,tac,D,63,1,3D,2D,1,0,b,2.35033769999791,1,0,1,1,3D,2D,D32,2.9704144655697,0.968007891903539,0.5,0.5,0.5,0.358937926458089,0.800016442817501,0.5,0.316214766561035,0.316214766561035,0.5,0.920013153713268,0.316214766561035,0.5,0.5,0.5,0.949413956146976,0.949413956146976,0.0505860438530245,0.949413956146976,0.5,0.385133456161646,0.916712364181621,0.0505860438530245,0.0185939357565637,0.5,0.367570466877931,1.09604513619662,0.890338615711304,3.00051581262151,0.5,69.3808835240266
CBC_1051,CBC_1051_MSI_TV_v3_Vset2_Tset1_2024-05-03_17h13.22.033.csv,2,25,0,2,z,0,1,2,tac,C,27,1,0C,2C,0,1,z,2.47503750000033,0,1,1,1,2C,0C,C02,3.68887945411394,0.968007891903539,0.5,0.5,0.5,0.358937926458089,0.800016442817501,0.5,0.316214766561035,0.316214766561035,0.5,0.920013153713268,0.316214766561035,0.5,0.5,0.5,0.968007891903539,0.96134837455155,0.0386516254484499,0.920013153713268,0.316214766561035,0.350409293026154,0.921655709855952,0.0799868462867318,0.0294008024337073,0.5,0.367570466877931,1.09604513619662,0.890338615711304,3.00051581262151,0.5,69.3808835240266
CBC_1051,CBC_1051_MSI_TV_v3_Vset2_Tset1_2024-05-03_17h13.22.033.csv,2,26,1,0,z,0,1,1,tac,A,63,1,1A,0A,0,1,z,3.02927110000019,0,1,1,1,0A,1A,A10,2.32727770558442,0.968007891903539,0.5,0.5,0.5,0.358937926458089,0.800016442817501,0.5,0.316214766561035,0.316214766561035,0.5,0.949413956146976,0.316214766561035,0.5,0.5,0.5,0.968007891903539,0.968007891903539,0.0319921080964608,0.968007891903539,0.5,0.215646139060832,0.924102995380795,0.0319921080964608,0.0117593541094253,0.5,0.367570466877931,1.09604513619662,0.890338615711304,3.00051581262151,0.5,69.3808835240266
CBC_1051,CBC_1051_MSI_TV_v3_Vset2_Tset1_2024-05-03_17h13.22.033.csv,2,27,3,1,z,0,1,0,tac,B,27,1,3B,1B,0,1,z,2.75845420000405,0,1,1,1,1B,3B,B31,3.04452243772342,0.979767246012964,0.5,0.5,0.5,0.358937926458089,0.800016442817501,0.5,0.316214766561035,0.316214766561035,0.5,0.949413956146976,0.316214766561035,0.5,0.5,0.5,0.968007891903539,0.896378636605043,0.103621363394957,0.800016442817501,0.316214766561035,0.266853712509601,0.892814718031762,0.199983557182499,0.0735080494814806,0.5,0.367570466877931,1.09604513619662,0.890338615711304,3.00051581262151,0.5,69.3808835240266
CBC_1051,CBC_1051_MSI_TV_v3_Vset2_Tset1_2024-05-03_17h13.22.033.csv,2,28,2,3,b,1,0,2,tac,C,63,1,2C,3C,1,0,b,1.63495980000152,1,0,1,1,2C,3C,C23,2.37490575457367,0.979767246012964,0.5,0.5,0.5,0.358937926458089,0.873524492298981,0.5,0.316214766561035,0.316214766561035,0.5,0.949413956146976,0.316214766561035,0.5,0.5,0.5,0.968007891903539,0.975952700968936,0.0240472990310642,0.949413956146976,0.316214766561035,0.550403562760974,0.926945667332217,0.0505860438530245,0.0185939357565637,0.5,0.367570466877931,1.09604513619662,0.890338615711304,3.00051581262151,0.5,69.3808835240266
CBC_1051,CBC_1051_MSI_TV_v3_Vset2_Tset1_2024-05-03_17h13.22.033.csv,2,29,2,3,z,0,1,3,tac,D,63,1,2D,3D,0,1,z,2.57859470000039,0,1,1,1,3D,2D,D23,2.68557734525015,0.979767246012964,0.5,0.5,0.5,0.358937926458089,0.873524492298981,0.5,0.316214766561035,0.316214766561035,0.5,0.968007891903539,0.316214766561035,0.5,0.5,0.5,0.968007891903539,0.968007891903539,0.0319921080964608,0.968007891903539,0.5,0.321478733190108,0.92394154372472,0.0319921080964608,0.0117593541094253,0.5,0.367570466877931,1.09604513619662,0.890338615711304,3.00051581262151,0.5,69.3808835240266
CBC_1051,CBC_1051_MSI_TV_v3_Vset2_Tset1_2024-05-03_17h13.22.033.csv,2,30,1,0,b,1,0,0,tac,B,63,1,1B,0B,1,0,b,2.68789630000174,1,0,1,1,1B,0B,B10,2.70805020110221,0.979767246012964,0.5,0.5,0.5,0.358937926458089,0.873524492298981,0.5,0.316214766561035,0.316214766561035,0.5,0.968007891903539,0.316214766561035,0.5,0.5,0.5,0.979767246012964,0.925011008664559,0.0749889913354412,0.873524492298981,0.358937926458089,0.286914949438274,0.906481753801378,0.126475507701019,0.0464886614142867,0.5,0.367570466877931,1.09604513619662,0.890338615711304,3.00051581262151,0.5,69.3808835240266
CBC_1051,CBC_1051_MSI_TV_v3_Vset2_Tset1_2024-05-03_17h13.22.033.csv,2,31,0,2,b,1,0,1,tac,A,27,1,0A,2A,1,0,b,2.34152549999999,1,0,1,1,0A,2A,A02,3.13549421592915,0.979767246012964,0.5,0.5,0.5,0.358937926458089,0.920013153713268,0.5,0.316214766561035,0.316214766561035,0.5,0.968007891903539,0.316214766561035,0.5,0.5,0.5,0.979767246012964,0.979767246012964,0.0202327539870355,0.979767246012964,0.5,0.397778022127892,0.928145407398114,0.0202327539870355,0.00743696282924096,0.5,0.367570466877931,1.09604513619662,0.890338615711304,3.00051581262151,0.5,69.3808835240266
CBC_1051,CBC_1051_MSI_TV_v3_Vset2_Tset1_2024-05-03_17h13.22.033.csv,2,32,0,3,z,0,1,3,tac,D,9,1,0D,3D,0,1,z,2.84419300000081,0,1,1,1,3D,0D,D03,3.85014760171006,0.987204208842205,0.5,0.5,0.5,0.358937926458089,0.920013153713268,0.5,0.316214766561035,0.316214766561035,0.5,0.968007891903539,0.316214766561035,0.5,0.5,0.5,0.979767246012964,0.979767246012964,0.0202327539870355,0.979767246012964,0.5,0.254436460946251,0.928328541798253,0.0202327539870355,0.00743696282924096,0.5,0.367570466877931,1.09604513619662,0.890338615711304,3.00051581262151,0.5,69.3808835240266
CBC_1051,CBC_1051_MSI_TV_v3_Vset2_Tset1_2024-05-03_17h13.22.033.csv,2,33,2,3,b,1,0,2,tac,C,63,1,2C,3C,1,0,b,1.92069609999817,1,0,1,1,2C,3C,C23,2.26176309847379,0.987204208842205,0.5,0.5,0.5,0.358937926458089,0.920013153713268,0.5,0.316214766561035,0.316214766561035,0.5,0.968007891903539,0.316214766561035,0.5,0.5,0.5,0.987204208842205,0.984946447295139,0.015053552704861,0.968007891903539,0.316214766561035,0.548777053149448,0.930462479912843,0.0319921080964608,0.0117593541094253,0.5,0.367570466877931,1.09604513619662,0.890338615711304,3.00051581262151,0.5,69.3808835240266
CBC_1051,CBC_1051_MSI_TV_v3_Vset2_Tset1_2024-05-03_17h13.22.033.csv,2,34,1,0,b,1,0,0,tac,B,63,1,1B,0B,NaN,NaN,None,NaN,NaN,NaN,NaN,NaN,,,B10,2.50552593699074,0.987204208842205,0.5,0.5,0.5,0.358937926458089,0.920013153713268,0.5,0.316214766561035,0.316214766561035,0.5,0.979767246012964,0.316214766561035,0.5,0.5,0.5,0.987204208842205,0,0,0,0,NaN,0,0,0,0.5,0.367570466877931,1.09604513619662,0.890338615711304,3.00051581262151,0.5,69.3808835240266
CBC_1051,CBC_1051_MSI_TV_v3_Vset2_Tset1_2024-05-03_17h13.22.033.csv,2,35,1,0,z,0,1,1,tac,A,63,0,1A,0A,1,0,z,2.27716959999816,0,1,1,0,0A,1A,A10,2.30258509299405,0.987204208842205,0.5,0.5,0.5,0.358937926458089,0.920013153713268,0.5,0.316214766561035,0.316214766561035,0.5,0.979767246012964,0.316214766561035,0.5,0.5,0.5,0.987204208842205,0.987204208842205,0.0127957911577945,0.987204208842205,0.5,0.42310247357063,0.931090466078729,-0.987204208842205,-0.362867111947988,0.5,0.367570466877931,1.09604513619662,0.890338615711304,3.00051581262151,0.5,69.3808835240266
CBC_1051,CBC_1051_MSI_TV_v3_Vset2_Tset1_2024-05-03_17h13.22.033.csv,2,36,3,2,b,1,0,3,tac,D,63,1,3D,2D,1,0,b,2.77213570000094,1,0,1,1,3D,2D,D32,2.83321334405622,0.624337096894218,0.5,0.5,0.5,0.358937926458089,0.920013153713268,0.5,0.316214766561035,0.316214766561035,0.5,0.979767246012964,0.316214766561035,0.5,0.5,0.5,0.987204208842205,0.987204208842205,0.0127957911577945,0.987204208842205,0.5,0.27180734482224,0.931106107710307,0.0127957911577945,0.00470335492994303,0.5,0.367570466877931,1.09604513619662,0.890338615711304,3.00051581262151,0.5,69.3808835240266
CBC_1051,CBC_1051_MSI_TV_v3_Vset2_Tset1_2024-05-03_17h13.22.033.csv,2,37,2,1,z,0,1,0,tac,B,9,1,2B,1B,0,1,z,3.4840363000003,0,1,1,1,1B,2B,B21,3.95124371858143,0.624337096894218,0.5,0.5,0.5,0.358937926458089,0.920013153713268,0.5,0.316214766561035,0.316214766561035,0.5,0.979767246012964,0.316214766561035,0.5,0.5,0.5,0.991907563772149,0.920013153713268,0.0799868462867318,0.920013153713268,0.5,0.148451424944129,0.903990882115085,0.0799868462867318,0.0294008024337073,0.5,0.367570466877931,1.09604513619662,0.890338615711304,3.00051581262151,0.5,69.3808835240266
CBC_1051,CBC_1051_MSI_TV_v3_Vset2_Tset1_2024-05-03_17h13.22.033.csv,2,38,0,2,b,1,0,1,tac,A,27,1,0A,2A,1,0,b,2.64886120000301,1,0,1,1,0A,2A,A02,2.87167962488401,0.624337096894218,0.5,0.5,0.5,0.358937926458089,0.949413956146976,0.5,0.316214766561035,0.316214766561035,0.5,0.979767246012964,0.316214766561035,0.5,0.5,0.5,0.991907563772149,0.624337096894218,0.375662903105782,0.624337096894218,0.5,0.199539128719629,0.661070111712981,0.375662903105782,0.138082588683311,0.5,0.367570466877931,1.09604513619662,0.890338615711304,3.00051581262151,0.5,69.3808835240266
CBC_1051,CBC_1051_MSI_TV_v3_Vset2_Tset1_2024-05-03_17h13.22.033.csv,2,39,3,2,z,0,1,2,tac,C,63,1,3C,2C,0,1,z,1.70537720000357,0,1,1,1,2C,3C,C32,3.29583686600433,0.762419685577529,0.5,0.5,0.5,0.358937926458089,0.949413956146976,0.5,0.316214766561035,0.316214766561035,0.5,0.979767246012964,0.316214766561035,0.5,0.5,0.5,0.991907563772149,0.990540530881923,0.0094594691180767,0.979767246012964,0.316214766561035,0.583469172303334,0.932267455553046,0.0202327539870355,0.00743696282924096,0.5,0.367570466877931,1.09604513619662,0.890338615711304,3.00051581262151,0.5,69.3808835240266
CBC_1051,CBC_1051_MSI_TV_v3_Vset2_Tset1_2024-05-03_17h13.22.033.csv,2,40,3,1,b,1,0,3,tac,D,27,1,3D,1D,1,0,z,3.1098716000015,0,1,0,0,1D,3D,D31,3.31418600467253,0.762419685577529,0.5,0.5,0.5,0.358937926458089,0.949413956146976,0.5,0.316214766561035,0.316214766561035,0.5,0.987204208842205,0.316214766561035,0.5,0.5,0.5,0.991907563772149,0.0080924362278515,0.991907563772149,0.5,0.991907563772149,0.0143510555357568,0.0673340312136339,-0.5,-0.183785233438965,0.5,0.367570466877931,1.09604513619662,0.890338615711304,3.00051581262151,0.5,69.3808835240266
CBC_1051,CBC_1051_MSI_TV_v3_Vset2_Tset1_2024-05-03_17h13.22.033.csv,2,41,1,0,z,0,1,1,tac,A,63,1,1A,0A,0,1,b,2.97907499999928,1,0,0,0,1A,0A,A10,2.23359222150709,0.762419685577529,0.5,0.5,0.5,0.358937926458089,0.949413956146976,0.5,0.316214766561035,0.316214766561035,0.5,0.987204208842205,0.316214766561035,0.5,0.316214766561035,0.5,0.991907563772149,0.237580314422471,0.762419685577529,0.5,0.762419685577529,0.0501953331016631,0.197593301229061,-0.5,-0.183785233438965,0.5,0.367570466877931,1.09604513619662,0.890338615711304,3.00051581262151,0.5,69.3808835240266
CBC_1051,CBC_1051_MSI_TV_v3_Vset2_Tset1_2024-05-03_17h13.22.033.csv,2,42,2,0,b,1,0,2,tac,C,27,1,2C,0C,1,0,b,2.16180970000278,1,0,1,1,2C,0C,C20,3.3499040872746,0.762419685577529,0.316214766561035,0.5,0.5,0.358937926458089,0.949413956146976,0.5,0.316214766561035,0.316214766561035,0.5,0.987204208842205,0.316214766561035,0.5,0.316214766561035,0.5,0.991907563772149,0.994041634386107,0.00595836561389251,0.987204208842205,0.316214766561035,0.468593855882077,0.933368817649979,0.0127957911577945,0.00470335492994303,0.5,0.367570466877931,1.09604513619662,0.890338615711304,3.00051581262151,0.5,69.3808835240266
CBC_1051,CBC_1051_MSI_TV_v3_Vset2_Tset1_2024-05-03_17h13.22.033.csv,2,43,2,3,z,0,1,3,tac,D,63,1,2D,3D,0,1,z,2.36169660000087,0,1,1,1,3D,2D,D23,2.67414864942653,0.762419685577529,0.316214766561035,0.5,0.5,0.358937926458089,0.949413956146976,0.5,0.316214766561035,0.316214766561035,0.5,0.991907563772149,0.316214766561035,0.5,0.316214766561035,0.5,0.991907563772149,0.991907563772149,0.0080924362278515,0.991907563772149,0.5,0.394606068581121,0.932586358827667,0.0080924362278515,0.00297454056245126,0.5,0.367570466877931,1.09604513619662,0.890338615711304,3.00051581262151,0.5,69.3808835240266
CBC_1051,CBC_1051_MSI_TV_v3_Vset2_Tset1_2024-05-03_17h13.22.033.csv,2,44,0,1,z,0,1,0,tac,B,63,1,0B,1B,0,1,z,3.15100119999988,0,1,1,1,1B,0B,B01,2.97892515523761,0.762419685577529,0.316214766561035,0.5,0.5,0.358937926458089,0.949413956146976,0.5,0.316214766561035,0.316214766561035,0.5,0.991907563772149,0.316214766561035,0.5,0.316214766561035,0.5,0.9948821043346,0.971031391116594,0.0289686088834061,0.949413956146976,0.358937926458089,0.193228411252601,0.925133315136232,0.0505860438530245,0.0185939357565637,0.5,0.367570466877931,1.09604513619662,0.890338615711304,3.00051581262151,0.5,69.3808835240266
CBC_1051,CBC_1051_MSI_AV_v3_Vset4_Aset2_2024-05-03_17h21.50.264.csv,3,1,3,1,z,0,1,0,aud,B,27,1,3B,1B,0,1,b,2.60309880000204,1,0,0,0,3B,1B,B31,2.77258872223978,0.5,0.5,0.5,0.5,0.5,0.5,0.5,0.5,0.5,0.5,0.5,0.5,0.5,0.5,0.5,0.5,0.5,0.5,0.5,0.5,0.113166701699495,0.499417732898575,-0.5,-0.0096851176946674,0.5,0.0193702353893348,0.587461584335311,0.648449893053393,2.8312112320051,0.5,91.5903076674636
CBC_1051,CBC_1051_MSI_AV_v3_Vset4_Aset2_2024-05-03_17h21.50.264.csv,3,2,2,3,b,1,0,2,aud,C,63,1,2C,3C,1,0,z,1.77799600000071,0,1,0,0,3C,2C,C23,2.83321334405622,0.5,0.5,0.5,0.5,0.5,0.5,0.5,0.490314882305333,0.5,0.5,0.5,0.5,0.5,0.5,0.5,0.5,0.5,0.5,0.5,0.5,0.18633694654927,0.498989982807662,-0.5,-0.0096851176946674,0.5,0.0193702353893348,0.587461584335311,0.648449893053393,2.8312112320051,0.5,91.5903076674636
CBC_1051,CBC_1051_MSI_AV_v3_Vset4_Aset2_2024-05-03_17h21.50.264.csv,3,3,2,3,z,0,1,3,aud,D,63,1,2D,3D,0,1,b,2.56480170000214,1,0,0,0,2D,3D,D23,2.89037175789616,0.5,0.5,0.5,0.5,0.5,0.5,0.5,0.490314882305333,0.5,0.5,0.5,0.490314882305333,0.5,0.5,0.5,0.5,0.5,0.5,0.5,0.5,0.115807500889168,0.499178379825455,-0.5,-0.0096851176946674,0.5,0.0193702353893348,0.587461584335311,0.648449893053393,2.8312112320051,0.5,91.5903076674636
CBC_1051,CBC_1051_MSI_AV_v3_Vset4_Aset2_2024-05-03_17h21.50.264.csv,3,4,1,0,b,1,0,0,aud,B,63,1,1B,0B,1,0,b,0.763518000003387,1,0,1,1,1B,0B,B10,2.94443897916644,0.5,0.5,0.5,0.5,0.5,0.5,0.5,0.490314882305333,0.5,0.5,0.5,0.490314882305333,0.5,0.5,0.490314882305333,0.5,0.5,0.5,0.5,0.5,0.0258175153726798,0.50021888954106,0.5,0.0096851176946674,0.5,0.0193702353893348,0.587461584335311,0.648449893053393,2.8312112320051,0.5,91.5903076674636
CBC_1051,CBC_1051_MSI_AV_v3_Vset4_Aset2_2024-05-03_17h21.50.264.csv,3,5,3,0,z,0,1,1,aud,A,9,1,3A,0A,0,1,z,1.7478431999989,0,1,1,1,0A,3A,A30,2.99573227355399,0.5,0.5,0.5,0.5,0.5,0.509685117694667,0.5,0.490314882305333,0.5,0.5,0.5,0.490314882305333,0.5,0.5,0.490314882305333,0.5,0.5,0.5,0.5,0.5,0.189740461138161,0.499446873373519,0.5,0.0096851176946674,0.5,0.0193702353893348,0.587461584335311,0.648449893053393,2.8312112320051,0.5,91.5903076674636
CBC_1051,CBC_1051_MSI_AV_v3_Vset4_Aset2_2024-05-03_17h21.50.264.csv,3,6,2,3,z,0,1,3,aud,D,63,1,2D,3D,0,1,b,2.01608060000217,1,0,0,0,2D,3D,D23,2.35137525716348,0.509685117694667,0.5,0.5,0.5,0.5,0.509685117694667,0.5,0.490314882305333,0.5,0.5,0.5,0.490314882305333,0.5,0.5,0.490314882305333,0.5,0.490314882305333,0.509685117694667,0.490314882305333,0.5,0.159347425496054,0.491139323326903,-0.490314882305333,-0.00949751468514828,0.5,0.0193702353893348,0.587461584335311,0.648449893053393,2.8312112320051,0.5,91.5903076674636
CBC_1051,CBC_1051_MSI_AV_v3_Vset4_Aset2_2024-05-03_17h21.50.264.csv,3,7,2,0,b,1,0,2,aud,C,27,1,2C,0C,1,0,b,2.23607510000147,1,0,1,1,2C,0C,C20,3.09104245335832,0.509685117694667,0.5,0.5,0.5,0.5,0.509685117694667,0.5,0.490314882305333,0.5,0.5,0.5,0.490314882305333,0.5,0.5,0.480817367620184,0.5,0.5,0.5,0.5,0.5,0.142112033749947,0.5006912753421,0.5,0.0096851176946674,0.5,0.0193702353893348,0.587461584335311,0.648449893053393,2.8312112320051,0.5,91.5903076674636
CBC_1051,CBC_1051_MSI_AV_v3_Vset4_Aset2_2024-05-03_17h21.50.264.csv,3,8,1,0,z,0,1,1,aud,A,63,1,1A,0A,0,1,b,2.62150720000136,1,0,0,0,1A,0A,A10,3.13549421592915,0.509685117694667,0.5,0.5,0.5,0.5,0.509685117694667,0.5,0.490314882305333,0.5,0.5,0.509685117694667,0.490314882305333,0.5,0.5,0.480817367620184,0.5,0.490314882305333,0.509685117694667,0.5,0.509685117694667,0.109872947309332,0.490403525448147,-0.5,-0.0096851176946674,0.5,0.0193702353893348,0.587461584335311,0.648449893053393,2.8312112320051,0.5,91.5903076674636
CBC_1051,CBC_1051_MSI_AV_v3_Vset4_Aset2_2024-05-03_17h21.50.264.csv,3,9,0,1,z,0,1,0,aud,B,63,1,0B,1B,0,1,b,2.56320050000431,1,0,0,0,0B,1B,B01,3.17805383034795,0.509685117694667,0.490314882305333,0.5,0.5,0.5,0.509685117694667,0.5,0.490314882305333,0.5,0.5,0.509685117694667,0.490314882305333,0.5,0.5,0.480817367620184,0.5,0.490314882305333,0.509685117694667,0.5,0.509685117694667,0.11409152157218,0.491296910635774,-0.5,-0.0096851176946674,0.5,0.0193702353893348,0.587461584335311,0.648449893053393,2.8312112320051,0.5,91.5903076674636
CBC_1051,CBC_1051_MSI_AV_v3_Vset4_Aset2_2024-05-03_17h21.50.264.csv,3,10,3,1,b,1,0,3,aud,D,27,1,3D,1D,1,0,z,2.80484889999934,0,1,0,0,1D,3D,D31,3.2188758248682,0.509685117694667,0.490314882305333,0.5,0.5,0.490314882305333,0.509685117694667,0.5,0.490314882305333,0.5,0.5,0.509685117694667,0.490314882305333,0.5,0.5,0.480817367620184,0.5,0.5,0.5,0.5,0.5,0.100092829321734,0.500091794761396,-0.5,-0.0096851176946674,0.5,0.0193702353893348,0.587461584335311,0.648449893053393,2.8312112320051,0.5,91.5903076674636
CBC_1051,CBC_1051_MSI_AV_v3_Vset4_Aset2_2024-05-03_17h21.50.264.csv,3,11,2,3,b,1,0,2,aud,C,63,1,2C,3C,1,0,z,1.89868170000409,0,1,0,0,3C,2C,C23,2.56494935746154,0.509685117694667,0.490314882305333,0.5,0.5,0.490314882305333,0.509685117694667,0.5,0.490314882305333,0.5,0.5,0.509685117694667,0.490314882305333,0.5,0.490314882305333,0.480817367620184,0.5,0.480637029713663,0.519362970286337,0.490314882305333,0.509685117694667,0.167498103358552,0.481165256157998,-0.490314882305333,-0.00949751468514828,0.5,0.0193702353893348,0.587461584335311,0.648449893053393,2.8312112320051,0.5,91.5903076674636
CBC_1051,CBC_1051_MSI_AV_v3_Vset4_Aset2_2024-05-03_17h21.50.264.csv,3,12,0,1,z,0,1,0,aud,B,63,1,0B,1B,0,1,b,2.12622890000421,1,0,0,0,0B,1B,B01,2.60268968544438,0.509685117694667,0.490314882305333,0.5,0.5,0.490314882305333,0.509685117694667,0.5,0.490314882305333,0.5,0.5,0.509685117694667,0.480817367620184,0.5,0.490314882305333,0.480817367620184,0.5,0.480637029713663,0.519362970286337,0.490314882305333,0.509685117694667,0.146218595551448,0.481707827439237,-0.490314882305333,-0.00949751468514828,0.5,0.0193702353893348,0.587461584335311,0.648449893053393,2.8312112320051,0.5,91.5903076674636
CBC_1051,CBC_1051_MSI_AV_v3_Vset4_Aset2_2024-05-03_17h21.50.264.csv,3,13,1,0,z,0,1,1,aud,A,63,1,1A,0A,0,1,z,2.23199860000386,0,1,1,1,0A,1A,A10,2.63905732961526,0.509685117694667,0.490314882305333,0.5,0.5,0.480817367620184,0.509685117694667,0.5,0.490314882305333,0.5,0.5,0.509685117694667,0.480817367620184,0.5,0.490314882305333,0.480817367620184,0.5,0.519362970286337,0.480637029713663,0.509685117694667,0.490314882305333,0.14742949267417,0.518072686402678,0.490314882305333,0.00949751468514828,0.5,0.0193702353893348,0.587461584335311,0.648449893053393,2.8312112320051,0.5,91.5903076674636
CBC_1051,CBC_1051_MSI_AV_v3_Vset4_Aset2_2024-05-03_17h21.50.264.csv,3,14,2,1,b,1,0,2,aud,C,9,1,2C,1C,1,0,z,1.73403980000148,0,1,0,0,1C,2C,C21,3.36729582998647,0.519182632379816,0.490314882305333,0.5,0.5,0.480817367620184,0.509685117694667,0.5,0.490314882305333,0.5,0.5,0.509685117694667,0.480817367620184,0.5,0.490314882305333,0.480817367620184,0.5,0.490314882305333,0.509685117694667,0.5,0.509685117694667,0.188391774648854,0.492019542245121,-0.5,-0.0096851176946674,0.5,0.0193702353893348,0.587461584335311,0.648449893053393,2.8312112320051,0.5,91.5903076674636
CBC_1051,CBC_1051_MSI_AV_v3_Vset4_Aset2_2024-05-03_17h21.50.264.csv,3,15,0,1,b,1,0,1,aud,A,63,1,0A,1A,1,0,b,3.22823180000341,1,0,1,1,0A,1A,A01,3.40119738166216,0.519182632379816,0.490314882305333,0.5,0.5,0.480817367620184,0.509685117694667,0.5,0.490314882305333,0.5,0.490314882305333,0.509685117694667,0.480817367620184,0.5,0.490314882305333,0.480817367620184,0.5,0.528846313103944,0.471153686896056,0.519182632379816,0.490314882305333,0.081105481181549,0.52609475634197,0.480817367620184,0.0093135455900833,0.5,0.0193702353893348,0.587461584335311,0.648449893053393,2.8312112320051,0.5,91.5903076674636
CBC_1051,CBC_1051_MSI_AV_v3_Vset4_Aset2_2024-05-03_17h21.50.264.csv,3,16,1,3,z,0,1,3,aud,D,27,1,1D,3D,0,1,z,2.91567900000155,0,1,1,1,3D,1D,D13,3.43398720448515,0.528496177969899,0.490314882305333,0.5,0.5,0.480817367620184,0.509685117694667,0.5,0.490314882305333,0.5,0.490314882305333,0.509685117694667,0.480817367620184,0.5,0.490314882305333,0.480817367620184,0.5,0.509685117694667,0.490314882305333,0.5,0.490314882305333,0.095070700468715,0.50854130812261,0.5,0.0096851176946674,0.5,0.0193702353893348,0.587461584335311,0.648449893053393,2.8312112320051,0.5,91.5903076674636
CBC_1051,CBC_1051_MSI_AV_v3_Vset4_Aset2_2024-05-03_17h21.50.264.csv,3,17,1,0,b,1,0,0,aud,B,63,1,1B,0B,1,0,z,4.29094560000158,0,1,0,0,0B,1B,B10,2.77258872223978,0.528496177969899,0.490314882305333,0.5,0.5,0.480817367620184,0.509685117694667,0.5,0.490314882305333,0.5,0.490314882305333,0.509685117694667,0.480817367620184,0.5,0.490314882305333,0.480817367620184,0.509685117694667,0.471153686896056,0.528846313103944,0.480817367620184,0.509685117694667,0.0379067914562535,0.473367896850682,-0.480817367620184,-0.0093135455900833,0.5,0.0193702353893348,0.587461584335311,0.648449893053393,2.8312112320051,0.5,91.5903076674636
CBC_1051,CBC_1051_MSI_AV_v3_Vset4_Aset2_2024-05-03_17h21.50.264.csv,3,18,3,2,z,0,1,2,aud,C,63,0,3C,2C,1,0,z,2.27262190000329,0,1,1,0,2C,3C,C32,3.49650756146648,0.528496177969899,0.490314882305333,0.5,0.5,0.471503822030101,0.509685117694667,0.5,0.490314882305333,0.5,0.490314882305333,0.509685117694667,0.480817367620184,0.5,0.490314882305333,0.480817367620184,0.509685117694667,0.528846313103944,0.471153686896056,0.509685117694667,0.480817367620184,0.146082112003489,0.526197842457468,-0.509685117694667,-0.00987272070418652,0.5,0.0193702353893348,0.587461584335311,0.648449893053393,2.8312112320051,0.5,91.5903076674636
CBC_1051,CBC_1051_MSI_AV_v3_Vset4_Aset2_2024-05-03_17h21.50.264.csv,3,19,0,2,b,1,0,1,aud,A,27,1,0A,2A,1,0,z,0.943967900002463,0,1,0,0,2A,0A,A02,3.52636052461616,0.528496177969899,0.490314882305333,0.5,0.5,0.471503822030101,0.509685117694667,0.5,0.490314882305333,0.5,0.490314882305333,0.499812396990481,0.480817367620184,0.5,0.490314882305333,0.480817367620184,0.509685117694667,0.471503822030101,0.528496177969899,0.5,0.528496177969899,0.151491240072536,0.473931199638034,-0.5,-0.0096851176946674,0.5,0.0193702353893348,0.587461584335311,0.648449893053393,2.8312112320051,0.5,91.5903076674636
CBC_1051,CBC_1051_MSI_AV_v3_Vset4_Aset2_2024-05-03_17h21.50.264.csv,3,20,2,3,z,0,1,3,aud,D,63,1,2D,3D,0,1,z,2.55712410000342,0,1,1,1,3D,2D,D23,2.4567357728213,0.528496177969899,0.490314882305333,0.490314882305333,0.5,0.471503822030101,0.509685117694667,0.5,0.490314882305333,0.5,0.490314882305333,0.499812396990481,0.480817367620184,0.5,0.490314882305333,0.480817367620184,0.509685117694667,0.528846313103944,0.471153686896056,0.509685117694667,0.480817367620184,0.122897340593371,0.527231156836143,0.490314882305333,0.00949751468514828,0.5,0.0193702353893348,0.587461584335311,0.648449893053393,2.8312112320051,0.5,91.5903076674636
CBC_1051,CBC_1051_MSI_AV_v3_Vset4_Aset2_2024-05-03_17h21.50.264.csv,3,21,1,3,b,1,0,0,aud,B,27,1,1B,3B,1,0,b,3.4279776000003,1,0,1,1,1B,3B,B13,3.58351893845611,0.528496177969899,0.490314882305333,0.490314882305333,0.5,0.471503822030101,0.509685117694667,0.5,0.490314882305333,0.5,0.490314882305333,0.499812396990481,0.480817367620184,0.5,0.490314882305333,0.480817367620184,0.519182632379816,0.519362970286337,0.480637029713663,0.509685117694667,0.490314882305333,0.0705793784119521,0.517630310423237,0.490314882305333,0.00949751468514828,0.5,0.0193702353893348,0.587461584335311,0.648449893053393,2.8312112320051,0.5,91.5903076674636
CBC_1051,CBC_1051_MSI_AV_v3_Vset4_Aset2_2024-05-03_17h21.50.264.csv,3,22,2,3,b,1,0,2,aud,C,63,1,2C,3C,1,0,b,1.93746050000118,1,0,1,1,2C,3C,C23,2.51230562397611,0.528496177969899,0.490314882305333,0.490314882305333,0.5,0.471503822030101,0.519182632379816,0.5,0.490314882305333,0.5,0.490314882305333,0.499812396990481,0.480817367620184,0.5,0.490314882305333,0.480817367620184,0.519182632379816,0.518995302805368,0.481004697194632,0.499812396990481,0.480817367620184,0.176277588850198,0.518209636610613,0.500187603009519,0.00968875160912153,0.5,0.0193702353893348,0.587461584335311,0.648449893053393,2.8312112320051,0.5,91.5903076674636
CBC_1051,CBC_1051_MSI_AV_v3_Vset4_Aset2_2024-05-03_17h21.50.264.csv,3,23,1,0,z,0,1,1,aud,A,63,1,1A,0A,0,1,z,2.50338670000201,0,1,1,1,0A,1A,A10,2.53897387105828,0.528496177969899,0.490314882305333,0.490314882305333,0.5,0.471503822030101,0.519182632379816,0.5,0.490314882305333,0.5,0.490314882305333,0.509501148599602,0.480817367620184,0.5,0.490314882305333,0.480817367620184,0.519182632379816,0.538139191699847,0.461860808300153,0.528496177969899,0.490314882305333,0.128873430313807,0.534864215399337,0.471503822030101,0.00913314001969408,0.5,0.0193702353893348,0.587461584335311,0.648449893053393,2.8312112320051,0.5,91.5903076674636
CBC_1051,CBC_1051_MSI_AV_v3_Vset4_Aset2_2024-05-03_17h21.50.264.csv,3,24,1,2,b,1,0,0,aud,B,9,1,1B,2B,1,0,z,2.71202550000089,0,1,0,0,2B,1B,B12,3.66356164612965,0.537629317989593,0.490314882305333,0.490314882305333,0.5,0.471503822030101,0.519182632379816,0.5,0.490314882305333,0.5,0.490314882305333,0.509501148599602,0.480817367620184,0.5,0.490314882305333,0.480817367620184,0.519182632379816,0.480817367620184,0.519182632379816,0.5,0.519182632379816,0.102171107877769,0.482155612204067,-0.5,-0.0096851176946674,0.5,0.0193702353893348,0.587461584335311,0.648449893053393,2.8312112320051,0.5,91.5903076674636
CBC_1051,CBC_1051_MSI_AV_v3_Vset4_Aset2_2024-05-03_17h21.50.264.csv,3,25,3,2,z,0,1,2,aud,C,63,1,3C,2C,0,1,b,2.07118110000374,1,0,0,0,3C,2C,C32,2.99573227355399,0.537629317989593,0.490314882305333,0.490314882305333,0.5,0.471503822030101,0.519182632379816,0.490314882305333,0.490314882305333,0.5,0.490314882305333,0.509501148599602,0.480817367620184,0.5,0.490314882305333,0.480817367620184,0.519182632379816,0.471337115070931,0.528662884929069,0.480817367620184,0.509501148599602,0.148587713640864,0.473326497202026,-0.480817367620184,-0.0093135455900833,0.5,0.0193702353893348,0.587461584335311,0.648449893053393,2.8312112320051,0.5,91.5903076674636
CBC_1051,CBC_1051_MSI_AV_v3_Vset4_Aset2_2024-05-03_17h21.50.264.csv,3,26,3,2,b,1,0,3,aud,D,63,1,3D,2D,1,0,z,2.76904470000227,0,1,0,0,2D,3D,D32,3.71357206670431,0.537629317989593,0.490314882305333,0.490314882305333,0.5,0.471503822030101,0.519182632379816,0.490314882305333,0.490314882305333,0.5,0.490314882305333,0.509501148599602,0.471503822030101,0.5,0.490314882305333,0.480817367620184,0.519182632379816,0.461691121830674,0.538308878169326,0.480817367620184,0.519182632379816,0.095099609968974,0.464893246749985,-0.480817367620184,-0.0093135455900833,0.5,0.0193702353893348,0.587461584335311,0.648449893053393,2.8312112320051,0.5,91.5903076674636
CBC_1051,CBC_1051_MSI_AV_v3_Vset4_Aset2_2024-05-03_17h21.50.264.csv,3,27,1,0,b,1,0,0,aud,B,63,1,1B,0B,1,0,b,2.43502910000097,1,0,1,1,1B,0B,B10,2.63905732961526,0.537629317989593,0.490314882305333,0.490314882305333,0.5,0.471503822030101,0.519182632379816,0.490314882305333,0.490314882305333,0.5,0.490314882305333,0.509501148599602,0.471503822030101,0.5,0.490314882305333,0.471503822030101,0.519182632379816,0.547574786802182,0.452425213197818,0.519182632379816,0.471503822030101,0.136479751461152,0.543043757715391,0.480817367620184,0.0093135455900833,0.5,0.0193702353893348,0.587461584335311,0.648449893053393,2.8312112320051,0.5,91.5903076674636
CBC_1051,CBC_1051_MSI_AV_v3_Vset4_Aset2_2024-05-03_17h21.50.264.csv,3,28,2,0,z,0,1,1,aud,A,27,1,2A,0A,0,1,z,2.4384272999996,0,1,1,1,0A,2A,A20,3.76120011569356,0.537629317989593,0.490314882305333,0.490314882305333,0.5,0.471503822030101,0.528496177969899,0.490314882305333,0.490314882305333,0.5,0.490314882305333,0.509501148599602,0.471503822030101,0.5,0.490314882305333,0.471503822030101,0.519182632379816,0.547245562167042,0.452754437832958,0.537629317989593,0.490314882305333,0.136056655928262,0.542498217845271,0.462370682010407,0.00895622894766885,0.5,0.0193702353893348,0.587461584335311,0.648449893053393,2.8312112320051,0.5,91.5903076674636
CBC_1051,CBC_1051_MSI_AV_v3_Vset4_Aset2_2024-05-03_17h21.50.264.csv,3,29,3,1,b,1,0,3,aud,D,27,1,3D,1D,1,0,b,2.49026990000493,1,0,1,1,3D,1D,D31,3.09104245335832,0.546585546937262,0.490314882305333,0.490314882305333,0.5,0.471503822030101,0.528496177969899,0.490314882305333,0.490314882305333,0.5,0.490314882305333,0.509501148599602,0.471503822030101,0.5,0.490314882305333,0.471503822030101,0.519182632379816,0.528846313103944,0.471153686896056,0.519182632379816,0.490314882305333,0.128016404721443,0.527059347771032,0.480817367620184,0.0093135455900833,0.5,0.0193702353893348,0.587461584335311,0.648449893053393,2.8312112320051,0.5,91.5903076674636
CBC_1051,CBC_1051_MSI_AV_v3_Vset4_Aset2_2024-05-03_17h21.50.264.csv,3,30,0,1,b,1,0,1,aud,A,63,1,0A,1A,1,0,b,3.83213790000445,1,0,1,1,0A,1A,A01,3.11351530921037,0.546585546937262,0.490314882305333,0.490314882305333,0.5,0.471503822030101,0.528496177969899,0.490314882305333,0.490314882305333,0.5,0.490314882305333,0.509501148599602,0.471503822030101,0.5,0.490314882305333,0.471503822030101,0.528496177969899,0.556169293323367,0.443830706676633,0.546585546937262,0.490314882305333,0.058415494772173,0.55110463233024,0.453414453062738,0.00878274468475173,0.5,0.0193702353893348,0.587461584335311,0.648449893053393,2.8312112320051,0.5,91.5903076674636
CBC_1051,CBC_1051_MSI_AV_v3_Vset4_Aset2_2024-05-03_17h21.50.264.csv,3,31,0,2,z,0,1,2,aud,C,27,1,0C,2C,0,1,z,1.66157440000461,0,1,1,1,2C,0C,C02,3.8286413964891,0.555368291622014,0.490314882305333,0.490314882305333,0.5,0.471503822030101,0.528496177969899,0.490314882305333,0.490314882305333,0.5,0.490314882305333,0.509501148599602,0.471503822030101,0.5,0.490314882305333,0.471503822030101,0.528496177969899,0.509501148599602,0.490498851400398,0.509501148599602,0.5,0.20284865927916,0.508985827156359,0.490498851400398,0.00950107820982405,0.5,0.0193702353893348,0.587461584335311,0.648449893053393,2.8312112320051,0.5,91.5903076674636
CBC_1051,CBC_1051_MSI_AV_v3_Vset4_Aset2_2024-05-03_17h21.50.264.csv,3,32,3,2,b,1,0,3,aud,D,63,1,3D,2D,1,0,b,2.62234680000256,1,0,1,1,3D,2D,D32,3.15700042115011,0.555368291622014,0.490314882305333,0.490314882305333,0.5,0.471503822030101,0.528496177969899,0.490314882305333,0.490314882305333,0.5,0.490314882305333,0.519002226809426,0.471503822030101,0.5,0.490314882305333,0.471503822030101,0.528496177969899,0.556807836778433,0.443192163221567,0.528496177969899,0.471503822030101,0.123605202765681,0.552030999603107,0.471503822030101,0.00913314001969408,0.5,0.0193702353893348,0.587461584335311,0.648449893053393,2.8312112320051,0.5,91.5903076674636
CBC_1051,CBC_1051_MSI_AV_v3_Vset4_Aset2_2024-05-03_17h21.50.264.csv,3,33,0,1,z,0,1,0,aud,B,63,1,0B,1B,0,1,z,2.16207930000382,0,1,1,1,1B,0B,B01,2.77258872223978,0.555368291622014,0.490314882305333,0.490314882305333,0.5,0.471503822030101,0.528496177969899,0.490314882305333,0.490314882305333,0.5,0.490314882305333,0.519002226809426,0.471503822030101,0.5,0.490314882305333,0.471503822030101,0.537629317989593,0.556807836778433,0.443192163221567,0.528496177969899,0.471503822030101,0.164116898973674,0.552046533883168,0.471503822030101,0.00913314001969408,0.5,0.0193702353893348,0.587461584335311,0.648449893053393,2.8312112320051,0.5,91.5903076674636
CBC_1051,CBC_1051_MSI_AV_v3_Vset4_Aset2_2024-05-03_17h21.50.264.csv,3,34,1,0,z,0,1,1,aud,A,63,1,1A,0A,0,1,b,2.51303220000045,1,0,0,0,1A,0A,A10,2.50552593699074,0.555368291622014,0.490314882305333,0.490314882305333,0.5,0.471503822030101,0.537629317989593,0.490314882305333,0.490314882305333,0.5,0.490314882305333,0.519002226809426,0.471503822030101,0.5,0.490314882305333,0.471503822030101,0.537629317989593,0.435085831165448,0.564914168834552,0.490314882305333,0.555368291622014,0.105455273225787,0.440203082523551,-0.490314882305333,-0.00949751468514828,0.5,0.0193702353893348,0.587461584335311,0.648449893053393,2.8312112320051,0.5,91.5903076674636
CBC_1051,CBC_1051_MSI_AV_v3_Vset4_Aset2_2024-05-03_17h21.50.264.csv,3,35,3,2,b,1,0,3,aud,D,63,0,3D,2D,0,1,z,3.40238500000123,0,1,0,1,2D,3D,D32,2.81341071676004,0.555368291622014,0.480817367620184,0.490314882305333,0.5,0.471503822030101,0.537629317989593,0.490314882305333,0.490314882305333,0.5,0.490314882305333,0.519002226809426,0.471503822030101,0.5,0.490314882305333,0.471503822030101,0.537629317989593,0.434156916021464,0.565843083978536,0.471503822030101,0.537629317989593,0.0606763356429501,0.439261908972166,0.528496177969899,0.0102370953696407,0.5,0.0193702353893348,0.587461584335311,0.648449893053393,2.8312112320051,0.5,91.5903076674636
CBC_1051,CBC_1051_MSI_AV_v3_Vset4_Aset2_2024-05-03_17h21.50.264.csv,3,36,0,2,z,0,1,2,aud,C,27,1,0C,2C,0,1,z,2.52533950000361,0,1,1,1,2C,0C,C02,3.23867845216438,0.555368291622014,0.480817367620184,0.490314882305333,0.5,0.471503822030101,0.537629317989593,0.490314882305333,0.490314882305333,0.5,0.490314882305333,0.519002226809426,0.471503822030101,0.5,0.490314882305333,0.481740917399742,0.537629317989593,0.519002226809426,0.480997773190574,0.519002226809426,0.5,0.122943282500313,0.517226762867849,0.480997773190574,0.00931704008844728,0.5,0.0193702353893348,0.587461584335311,0.648449893053393,2.8312112320051,0.5,91.5903076674636
CBC_1051,CBC_1051_MSI_AV_v3_Vset4_Aset2_2024-05-03_17h21.50.264.csv,3,37,1,0,z,0,1,1,aud,A,63,1,1A,0A,0,1,z,1.82261020000078,0,1,1,1,0A,1A,A10,2.34180580614733,0.555368291622014,0.480817367620184,0.490314882305333,0.5,0.471503822030101,0.537629317989593,0.490314882305333,0.490314882305333,0.5,0.490314882305333,0.528319266897874,0.471503822030101,0.5,0.490314882305333,0.481740917399742,0.537629317989593,0.574235538892598,0.425764461107402,0.555368291622014,0.480817367620184,0.207518074621442,0.568180029711129,0.444631708377986,0.00861262085284366,0.5,0.0193702353893348,0.587461584335311,0.648449893053393,2.8312112320051,0.5,91.5903076674636
CBC_1051,CBC_1051_MSI_AV_v3_Vset4_Aset2_2024-05-03_17h21.50.264.csv,3,38,3,1,z,0,1,0,aud,B,27,1,3B,1B,0,1,b,2.13012230000095,1,0,0,0,3B,1B,B31,3.27714473299218,0.563980912474857,0.480817367620184,0.490314882305333,0.5,0.471503822030101,0.537629317989593,0.490314882305333,0.490314882305333,0.5,0.490314882305333,0.528319266897874,0.471503822030101,0.5,0.490314882305333,0.481740917399742,0.537629317989593,0.452754437832958,0.547245562167042,0.490314882305333,0.537629317989593,0.138450257161988,0.456876666390158,-0.490314882305333,-0.00949751468514828,0.5,0.0193702353893348,0.587461584335311,0.648449893053393,2.8312112320051,0.5,91.5903076674636
CBC_1051,CBC_1051_MSI_AV_v3_Vset4_Aset2_2024-05-03_17h21.50.264.csv,3,39,2,3,b,1,0,2,aud,C,63,1,2C,3C,1,0,z,2.10156750000169,0,1,0,0,3C,2C,C23,2.60268968544438,0.563980912474857,0.480817367620184,0.490314882305333,0.5,0.471503822030101,0.537629317989593,0.490314882305333,0.480817367620184,0.5,0.490314882305333,0.528319266897874,0.471503822030101,0.5,0.490314882305333,0.481740917399742,0.537629317989593,0.443367363215431,0.556632636784569,0.471503822030101,0.528319266897874,0.138075645483431,0.447584397068868,-0.471503822030101,-0.00913314001969408,0.5,0.0193702353893348,0.587461584335311,0.648449893053393,2.8312112320051,0.5,91.5903076674636
CBC_1051,CBC_1051_MSI_AV_v3_Vset4_Aset2_2024-05-03_17h21.50.264.csv,3,40,2,3,z,0,1,3,aud,D,63,1,2D,3D,NaN,NaN,[],NaN,NaN,NaN,NaN,NaN,,,D23,2.62103882411258,0.563980912474857,0.480817367620184,0.490314882305333,0.5,0.471503822030101,0.537629317989593,0.490314882305333,0.480817367620184,0.5,0.490314882305333,0.528319266897874,0.462370682010407,0.5,0.490314882305333,0.481740917399742,0.537629317989593,0,0,0,0,NaN,0,0,0,0.5,0.0193702353893348,0.587461584335311,0.648449893053393,2.8312112320051,0.5,91.5903076674636
CBC_1051,CBC_1051_MSI_AV_v3_Vset4_Aset2_2024-05-03_17h21.50.264.csv,3,41,1,0,b,1,0,0,aud,B,63,1,1B,0B,1,0,z,2.2156888999998,0,1,0,0,0B,1B,B10,2.63905732961526,0.563980912474857,0.480817367620184,0.490314882305333,0.5,0.471503822030101,0.537629317989593,0.490314882305333,0.480817367620184,0.5,0.490314882305333,0.528319266897874,0.462370682010407,0.5,0.490314882305333,0.481740917399742,0.537629317989593,0.434156916021464,0.565843083978536,0.471503822030101,0.537629317989593,0.126525442998074,0.43965957546702,-0.471503822030101,-0.00913314001969408,0.5,0.0193702353893348,0.587461584335311,0.648449893053393,2.8312112320051,0.5,91.5903076674636
CBC_1051,CBC_1051_MSI_AV_v3_Vset4_Aset2_2024-05-03_17h21.50.264.csv,3,42,0,2,b,1,0,1,aud,A,27,1,0A,2A,1,0,b,3.29533200000151,1,0,1,1,0A,2A,A02,3.3499040872746,0.563980912474857,0.480817367620184,0.490314882305333,0.5,0.462370682010407,0.537629317989593,0.490314882305333,0.480817367620184,0.5,0.490314882305333,0.528319266897874,0.462370682010407,0.5,0.490314882305333,0.481740917399742,0.537629317989593,0.573483889278122,0.426516110721878,0.563980912474857,0.490314882305333,0.0834844061538076,0.56587549404791,0.436019087525143,0.00844579235960499,0.5,0.0193702353893348,0.587461584335311,0.648449893053393,2.8312112320051,0.5,91.5903076674636
CBC_1051,CBC_1051_MSI_AV_v3_Vset4_Aset2_2024-05-03_17h21.50.264.csv,3,43,0,3,z,0,1,3,aud,D,9,1,0D,3D,0,1,z,2.76557900000262,0,1,1,1,3D,0D,D03,4.06044301054642,0.572426704834462,0.480817367620184,0.490314882305333,0.5,0.462370682010407,0.537629317989593,0.490314882305333,0.480817367620184,0.5,0.490314882305333,0.528319266897874,0.462370682010407,0.5,0.490314882305333,0.481740917399742,0.537629317989593,0.537629317989593,0.462370682010407,0.537629317989593,0.5,0.109717638940114,0.535209139666574,0.462370682010407,0.00895622894766885,0.5,0.0193702353893348,0.587461584335311,0.648449893053393,2.8312112320051,0.5,91.5903076674636
CBC_1051,CBC_1051_MSI_AV_v3_Vset4_Aset2_2024-05-03_17h21.50.264.csv,3,44,2,3,b,1,0,2,aud,C,63,1,2C,3C,1,0,z,1.57568190000165,0,1,0,0,3C,2C,C23,2.46809953147162,0.572426704834462,0.480817367620184,0.490314882305333,0.5,0.462370682010407,0.537629317989593,0.490314882305333,0.480817367620184,0.5,0.490314882305333,0.528319266897874,0.462370682010407,0.5,0.490314882305333,0.481740917399742,0.546585546937262,0.434331330364623,0.565668669635377,0.462370682010407,0.528319266897874,0.183603491175026,0.438889187190553,-0.462370682010407,-0.00895622894766885,0.5,0.0193702353893348,0.587461584335311,0.648449893053393,2.8312112320051,0.5,91.5903076674636
