ID,filename,session,trial,visStimLeft,visStimRight,correctKey,leftCorrect,rightCorrect,secondStim,mod2Type,mod2Stim,frequency,rewardAccurate,stimPairLeft,stimPairRight,pCorrectLeft,pCorrectRight,key,reactionTime,choiceLeft,choiceRight,choiceAccurate,reward,chosenPair,otherPair,triplet,surprise,0A belief,1A belief,2A belief,3A belief,0B belief,1B belief,2B belief,3B belief,0C belief,1C belief,2C belief,3C belief,0D belief,1D belief,2D belief,3D belief,beliefPairNorm,beliefOtherPairNorm,beliefPair,beliefOtherPair,lik,corrLik,rewardPE,update2,fitCBCsimpleRW_CBCdriftDiffusionLR_startBelief,fitCBCsimpleRW_CBCdriftDiffusionLR_alpha1,fitCBCsimpleRW_CBCdriftDiffusionLR_nonDecisionTime,fitCBCsimpleRW_CBCdriftDiffusionLR_weight,fitCBCsimpleRW_CBCdriftDiffusionLR_startingBoundary,fitCBCsimpleRW_CBCdriftDiffusionLR_startingPoint,fit_CBCsimpleRW_CBCdriftDiffusionLR_NLL
CBC_1035,CBC_1035_MSI_TV_v3_Vset6_Tset2_2024-07-26_14h50.42.748.csv,1,1,1,0,b,1,0,0,tac,B,63,1,1B,0B,1,0,z,3.72010529999989,0,1,0,0,0B,1B,B10,2.77258872223978,0.5,0.5,0.5,0.5,0.5,0.5,0.5,0.5,0.5,0.5,0.5,0.5,0.5,0.5,0.5,0.5,0.5,0.5,0.5,0.5,0.0709006617187003,0.498478222108136,-0.5,-0.00918494721493629,0.5,0.0183698944298726,0.764348519781313,9.61693685668372,3.07798212502134,0.5,79.8261531366713
CBC_1035,CBC_1035_MSI_TV_v3_Vset6_Tset2_2024-07-26_14h50.42.748.csv,1,2,0,1,b,1,0,2,tac,A,63,1,0A,1A,1,0,b,2.5333770999996,1,0,1,1,0A,1A,A01,2.83321334405622,0.5,0.5,0.5,0.5,0.490815052785064,0.5,0.5,0.5,0.5,0.5,0.5,0.5,0.5,0.5,0.5,0.5,0.5,0.5,0.5,0.5,0.131680082967712,0.499889186940986,0.5,0.00918494721493629,0.5,0.0183698944298726,0.764348519781313,9.61693685668372,3.07798212502134,0.5,79.8261531366713
CBC_1035,CBC_1035_MSI_TV_v3_Vset6_Tset2_2024-07-26_14h50.42.748.csv,1,3,1,2,z,0,1,1,tac,C,9,1,1C,2C,0,1,z,2.69498850000036,0,1,1,1,2C,1C,C12,2.89037175789616,0.509184947214936,0.5,0.5,0.5,0.490815052785064,0.5,0.5,0.5,0.5,0.5,0.5,0.5,0.5,0.5,0.5,0.5,0.5,0.5,0.5,0.5,0.121159173458842,0.499881236144152,0.5,0.00918494721493629,0.5,0.0183698944298726,0.764348519781313,9.61693685668372,3.07798212502134,0.5,79.8261531366713
CBC_1035,CBC_1035_MSI_TV_v3_Vset6_Tset2_2024-07-26_14h50.42.748.csv,1,4,1,0,z,0,1,2,tac,A,63,1,1A,0A,0,1,b,2.72622229999979,1,0,0,0,1A,0A,A10,2.94443897916644,0.509184947214936,0.5,0.5,0.5,0.490815052785064,0.5,0.5,0.5,0.5,0.5,0.509184947214936,0.5,0.5,0.5,0.5,0.5,0.49544932411037,0.50455067588963,0.5,0.509184947214936,0.103636234742389,0.433899061072358,-0.5,-0.00918494721493629,0.5,0.0183698944298726,0.764348519781313,9.61693685668372,3.07798212502134,0.5,79.8261531366713
CBC_1035,CBC_1035_MSI_TV_v3_Vset6_Tset2_2024-07-26_14h50.42.748.csv,1,5,3,1,b,1,0,3,tac,D,27,1,3D,1D,1,0,z,3.24923619999936,0,1,0,0,1D,3D,D31,2.99573227355399,0.509184947214936,0.490815052785064,0.5,0.5,0.490815052785064,0.5,0.5,0.5,0.5,0.5,0.509184947214936,0.5,0.5,0.5,0.5,0.5,0.5,0.5,0.5,0.5,0.0908752457064435,0.4999872052449,-0.5,-0.00918494721493629,0.5,0.0183698944298726,0.764348519781313,9.61693685668372,3.07798212502134,0.5,79.8261531366713
CBC_1035,CBC_1035_MSI_TV_v3_Vset6_Tset2_2024-07-26_14h50.42.748.csv,1,6,0,1,z,0,1,0,tac,B,63,1,0B,1B,NaN,NaN,None,NaN,NaN,NaN,NaN,NaN,,,B01,3.04452243772342,0.509184947214936,0.490815052785064,0.5,0.5,0.490815052785064,0.5,0.5,0.5,0.5,0.5,0.509184947214936,0.5,0.5,0.490815052785064,0.5,0.5,0,0,0,0,NaN,0,0,0,0.5,0.0183698944298726,0.764348519781313,9.61693685668372,3.07798212502134,0.5,79.8261531366713
CBC_1035,CBC_1035_MSI_TV_v3_Vset6_Tset2_2024-07-26_14h50.42.748.csv,1,7,2,3,b,1,0,1,tac,C,63,1,2C,3C,1,0,z,3.52796880000005,0,1,0,0,3C,2C,C23,3.09104245335832,0.509184947214936,0.490815052785064,0.5,0.5,0.490815052785064,0.5,0.5,0.5,0.5,0.5,0.509184947214936,0.5,0.5,0.490815052785064,0.5,0.5,0.49544932411037,0.50455067588963,0.5,0.509184947214936,0.0679499258887129,0.432911797435985,-0.5,-0.00918494721493629,0.5,0.0183698944298726,0.764348519781313,9.61693685668372,3.07798212502134,0.5,79.8261531366713
CBC_1035,CBC_1035_MSI_TV_v3_Vset6_Tset2_2024-07-26_14h50.42.748.csv,1,8,2,0,z,0,1,2,tac,A,27,1,2A,0A,0,1,z,3.36531240000022,0,1,1,1,0A,2A,A20,3.13549421592915,0.509184947214936,0.490815052785064,0.5,0.5,0.490815052785064,0.5,0.5,0.5,0.5,0.5,0.509184947214936,0.490815052785064,0.5,0.490815052785064,0.5,0.5,0.50455067588963,0.49544932411037,0.509184947214936,0.5,0.0969395234141641,0.567096421913273,0.490815052785064,0.00901622070425396,0.5,0.0183698944298726,0.764348519781313,9.61693685668372,3.07798212502134,0.5,79.8261531366713
CBC_1035,CBC_1035_MSI_TV_v3_Vset6_Tset2_2024-07-26_14h50.42.748.csv,1,9,3,2,b,1,0,3,tac,D,63,1,3D,2D,1,0,b,3.61155820000022,1,0,1,1,3D,2D,D32,3.17805383034795,0.51820116791919,0.490815052785064,0.5,0.5,0.490815052785064,0.5,0.5,0.5,0.5,0.5,0.509184947214936,0.490815052785064,0.5,0.490815052785064,0.5,0.5,0.5,0.5,0.5,0.5,0.0754470523417003,0.501286831569095,0.5,0.00918494721493629,0.5,0.0183698944298726,0.764348519781313,9.61693685668372,3.07798212502134,0.5,79.8261531366713
CBC_1035,CBC_1035_MSI_TV_v3_Vset6_Tset2_2024-07-26_14h50.42.748.csv,1,10,3,1,z,0,1,0,tac,B,27,1,3B,1B,0,1,z,2.58527319999939,0,1,1,1,1B,3B,B31,3.2188758248682,0.51820116791919,0.490815052785064,0.5,0.5,0.490815052785064,0.5,0.5,0.5,0.5,0.5,0.509184947214936,0.490815052785064,0.5,0.490815052785064,0.5,0.509184947214936,0.5,0.5,0.5,0.5,0.128145477526795,0.499616753411333,0.5,0.00918494721493629,0.5,0.0183698944298726,0.764348519781313,9.61693685668372,3.07798212502134,0.5,79.8261531366713
CBC_1035,CBC_1035_MSI_TV_v3_Vset6_Tset2_2024-07-26_14h50.42.748.csv,1,11,3,2,z,0,1,1,tac,C,63,1,3C,2C,0,1,b,2.47453659999974,1,0,0,0,3C,2C,C32,3.25809653802148,0.51820116791919,0.490815052785064,0.5,0.5,0.490815052785064,0.509184947214936,0.5,0.5,0.5,0.5,0.509184947214936,0.490815052785064,0.5,0.490815052785064,0.5,0.509184947214936,0.490815052785064,0.509184947214936,0.490815052785064,0.509184947214936,0.100617119395304,0.366990494516737,-0.490815052785064,-0.00901622070425396,0.5,0.0183698944298726,0.764348519781313,9.61693685668372,3.07798212502134,0.5,79.8261531366713
CBC_1035,CBC_1035_MSI_TV_v3_Vset6_Tset2_2024-07-26_14h50.42.748.csv,1,12,1,3,b,1,0,0,tac,B,27,1,1B,3B,1,0,z,2.69454159999987,0,1,0,0,3B,1B,B13,3.29583686600433,0.51820116791919,0.490815052785064,0.5,0.5,0.490815052785064,0.509184947214936,0.5,0.5,0.5,0.5,0.509184947214936,0.48179883208081,0.5,0.490815052785064,0.5,0.509184947214936,0.49544932411037,0.50455067588963,0.5,0.509184947214936,0.105394737469093,0.434043079497151,-0.5,-0.00918494721493629,0.5,0.0183698944298726,0.764348519781313,9.61693685668372,3.07798212502134,0.5,79.8261531366713
CBC_1035,CBC_1035_MSI_TV_v3_Vset6_Tset2_2024-07-26_14h50.42.748.csv,1,13,3,2,z,0,1,1,tac,C,63,1,3C,2C,0,1,b,1.68273279999994,1,0,0,0,3C,2C,C32,2.63905732961526,0.51820116791919,0.490815052785064,0.5,0.5,0.490815052785064,0.509184947214936,0.5,0.490815052785064,0.5,0.5,0.509184947214936,0.48179883208081,0.5,0.490815052785064,0.5,0.509184947214936,0.486182359536909,0.513817640463091,0.48179883208081,0.509184947214936,0.123382353785941,0.305695653558336,-0.48179883208081,-0.00885059368176038,0.5,0.0183698944298726,0.764348519781313,9.61693685668372,3.07798212502134,0.5,79.8261531366713
CBC_1035,CBC_1035_MSI_TV_v3_Vset6_Tset2_2024-07-26_14h50.42.748.csv,1,14,3,2,b,1,0,3,tac,D,63,1,3D,2D,1,0,b,2.59399320000011,1,0,1,1,3D,2D,D32,2.67414864942653,0.51820116791919,0.490815052785064,0.5,0.5,0.490815052785064,0.509184947214936,0.5,0.490815052785064,0.5,0.5,0.509184947214936,0.472948238399049,0.5,0.490815052785064,0.5,0.509184947214936,0.50455067588963,0.49544932411037,0.509184947214936,0.5,0.144837469066927,0.566110323673354,0.490815052785064,0.00901622070425396,0.5,0.0183698944298726,0.764348519781313,9.61693685668372,3.07798212502134,0.5,79.8261531366713
CBC_1035,CBC_1035_MSI_TV_v3_Vset6_Tset2_2024-07-26_14h50.42.748.csv,1,15,0,3,b,1,0,2,tac,A,9,1,0A,3A,NaN,NaN,None,NaN,NaN,NaN,NaN,NaN,,,A03,3.40119738166216,0.51820116791919,0.490815052785064,0.5,0.5,0.490815052785064,0.509184947214936,0.5,0.490815052785064,0.5,0.5,0.509184947214936,0.472948238399049,0.5,0.490815052785064,0.5,0.51820116791919,0,0,0,0,NaN,0,0,0,0.5,0.0183698944298726,0.764348519781313,9.61693685668372,3.07798212502134,0.5,79.8261531366713
CBC_1035,CBC_1035_MSI_TV_v3_Vset6_Tset2_2024-07-26_14h50.42.748.csv,1,16,0,1,z,0,1,0,tac,B,63,0,0B,1B,1,0,z,3.17580249999992,0,1,1,0,1B,0B,B01,2.7408400239252,0.51820116791919,0.490815052785064,0.5,0.5,0.490815052785064,0.509184947214936,0.5,0.490815052785064,0.5,0.5,0.509184947214936,0.472948238399049,0.5,0.490815052785064,0.5,0.51820116791919,0.509184947214936,0.490815052785064,0.509184947214936,0.490815052785064,0.119255649910129,0.632230600103953,-0.509184947214936,-0.00935367372561862,0.5,0.0183698944298726,0.764348519781313,9.61693685668372,3.07798212502134,0.5,79.8261531366713
CBC_1035,CBC_1035_MSI_TV_v3_Vset6_Tset2_2024-07-26_14h50.42.748.csv,1,17,2,3,z,0,1,3,tac,D,63,1,2D,3D,0,1,b,3.52430249999998,1,0,0,0,2D,3D,D23,3.46573590279973,0.51820116791919,0.490815052785064,0.5,0.5,0.490815052785064,0.499831273489318,0.5,0.490815052785064,0.5,0.5,0.509184947214936,0.472948238399049,0.5,0.490815052785064,0.5,0.51820116791919,0.49106209632602,0.50893790367398,0.5,0.51820116791919,0.0578712148827985,0.369745815477391,-0.5,-0.00918494721493629,0.5,0.0183698944298726,0.764348519781313,9.61693685668372,3.07798212502134,0.5,79.8261531366713
CBC_1035,CBC_1035_MSI_TV_v3_Vset6_Tset2_2024-07-26_14h50.42.748.csv,1,18,0,2,z,0,1,1,tac,C,27,1,0C,2C,0,1,z,2.0889975,0,1,1,1,2C,0C,C02,3.49650756146648,0.51820116791919,0.490815052785064,0.5,0.5,0.490815052785064,0.499831273489318,0.5,0.490815052785064,0.5,0.5,0.509184947214936,0.472948238399049,0.5,0.490815052785064,0.490815052785064,0.51820116791919,0.50455067588963,0.49544932411037,0.509184947214936,0.5,0.187324785646363,0.567665695933571,0.490815052785064,0.00901622070425396,0.5,0.0183698944298726,0.764348519781313,9.61693685668372,3.07798212502134,0.5,79.8261531366713
CBC_1035,CBC_1035_MSI_TV_v3_Vset6_Tset2_2024-07-26_14h50.42.748.csv,1,19,0,1,b,1,0,2,tac,A,63,1,0A,1A,1,0,z,1.9476611,0,1,0,0,1A,0A,A01,2.83321334405622,0.51820116791919,0.490815052785064,0.5,0.5,0.490815052785064,0.499831273489318,0.5,0.490815052785064,0.5,0.5,0.51820116791919,0.472948238399049,0.5,0.490815052785064,0.490815052785064,0.51820116791919,0.486429298869441,0.513570701130559,0.490815052785064,0.51820116791919,0.112065099205436,0.307669632990686,-0.490815052785064,-0.00901622070425396,0.5,0.0183698944298726,0.764348519781313,9.61693685668372,3.07798212502134,0.5,79.8261531366713
CBC_1035,CBC_1035_MSI_TV_v3_Vset6_Tset2_2024-07-26_14h50.42.748.csv,1,20,1,0,b,1,0,0,tac,B,63,1,1B,0B,1,0,b,2.56146309999986,1,0,1,1,1B,0B,B10,2.86220088092947,0.51820116791919,0.48179883208081,0.5,0.5,0.490815052785064,0.499831273489318,0.5,0.490815052785064,0.5,0.5,0.51820116791919,0.472948238399049,0.5,0.490815052785064,0.490815052785064,0.51820116791919,0.50455067588963,0.49544932411037,0.499831273489318,0.490815052785064,0.147108625365495,0.565403786979203,0.500168726510682,0.00918804670312504,0.5,0.0183698944298726,0.764348519781313,9.61693685668372,3.07798212502134,0.5,79.8261531366713
CBC_1035,CBC_1035_MSI_TV_v3_Vset6_Tset2_2024-07-26_14h50.42.748.csv,1,21,1,3,z,0,1,3,tac,D,27,1,1D,3D,0,1,b,3.14670990000013,1,0,0,0,1D,3D,D13,3.58351893845611,0.51820116791919,0.48179883208081,0.5,0.5,0.490815052785064,0.509019320192443,0.5,0.490815052785064,0.5,0.5,0.51820116791919,0.472948238399049,0.5,0.490815052785064,0.490815052785064,0.51820116791919,0.486429298869441,0.513570701130559,0.490815052785064,0.51820116791919,0.0592329401139083,0.309744996117243,-0.490815052785064,-0.00901622070425396,0.5,0.0183698944298726,0.764348519781313,9.61693685668372,3.07798212502134,0.5,79.8261531366713
CBC_1035,CBC_1035_MSI_TV_v3_Vset6_Tset2_2024-07-26_14h50.42.748.csv,1,22,3,2,z,0,1,1,tac,C,63,1,3C,2C,0,1,z,1.53868629999943,0,1,1,1,2C,3C,C32,2.51230562397611,0.51820116791919,0.48179883208081,0.5,0.5,0.490815052785064,0.509019320192443,0.5,0.490815052785064,0.5,0.5,0.51820116791919,0.472948238399049,0.5,0.48179883208081,0.490815052785064,0.51820116791919,0.522828510632034,0.477171489367966,0.51820116791919,0.472948238399049,0.355611637260632,0.793766902269088,0.48179883208081,0.00885059368176038,0.5,0.0183698944298726,0.764348519781313,9.61693685668372,3.07798212502134,0.5,79.8261531366713
CBC_1035,CBC_1035_MSI_TV_v3_Vset6_Tset2_2024-07-26_14h50.42.748.csv,1,23,0,1,b,1,0,2,tac,A,63,1,0A,1A,1,0,b,3.2585425999996,1,0,1,1,0A,1A,A01,2.53897387105828,0.51820116791919,0.48179883208081,0.5,0.5,0.490815052785064,0.509019320192443,0.5,0.490815052785064,0.5,0.5,0.527051761600951,0.472948238399049,0.5,0.48179883208081,0.490815052785064,0.51820116791919,0.51820116791919,0.48179883208081,0.51820116791919,0.48179883208081,0.132961782284806,0.745557038818046,0.48179883208081,0.00885059368176038,0.5,0.0183698944298726,0.764348519781313,9.61693685668372,3.07798212502134,0.5,79.8261531366713
CBC_1035,CBC_1035_MSI_TV_v3_Vset6_Tset2_2024-07-26_14h50.42.748.csv,1,24,2,3,z,0,1,3,tac,D,63,1,2D,3D,0,1,z,1.80371899999955,0,1,1,1,3D,2D,D23,2.9704144655697,0.527051761600951,0.48179883208081,0.5,0.5,0.490815052785064,0.509019320192443,0.5,0.490815052785064,0.5,0.5,0.527051761600951,0.472948238399049,0.5,0.48179883208081,0.490815052785064,0.51820116791919,0.513570701130559,0.486429298869441,0.51820116791919,0.490815052785064,0.267405434992221,0.690789026848876,0.48179883208081,0.00885059368176038,0.5,0.0183698944298726,0.764348519781313,9.61693685668372,3.07798212502134,0.5,79.8261531366713
CBC_1035,CBC_1035_MSI_TV_v3_Vset6_Tset2_2024-07-26_14h50.42.748.csv,1,25,2,0,b,1,0,1,tac,C,27,1,2C,0C,NaN,NaN,None,NaN,NaN,NaN,NaN,NaN,,,C20,3.68887945411394,0.527051761600951,0.48179883208081,0.5,0.5,0.490815052785064,0.509019320192443,0.5,0.490815052785064,0.5,0.5,0.527051761600951,0.472948238399049,0.5,0.48179883208081,0.490815052785064,0.527051761600951,0,0,0,0,NaN,0,0,0,0.5,0.0183698944298726,0.764348519781313,9.61693685668372,3.07798212502134,0.5,79.8261531366713
CBC_1035,CBC_1035_MSI_TV_v3_Vset6_Tset2_2024-07-26_14h50.42.748.csv,1,26,0,1,b,1,0,2,tac,A,63,1,0A,1A,1,0,z,4.30473780000011,0,1,0,0,1A,0A,A01,2.32727770558442,0.527051761600951,0.48179883208081,0.5,0.5,0.490815052785064,0.509019320192443,0.5,0.490815052785064,0.5,0.5,0.527051761600951,0.472948238399049,0.5,0.48179883208081,0.490815052785064,0.527051761600951,0.477572036036083,0.522427963963917,0.48179883208081,0.527051761600951,0.0193989036992052,0.209311103518891,-0.48179883208081,-0.00885059368176038,0.5,0.0183698944298726,0.764348519781313,9.61693685668372,3.07798212502134,0.5,79.8261531366713
CBC_1035,CBC_1035_MSI_TV_v3_Vset6_Tset2_2024-07-26_14h50.42.748.csv,1,27,1,3,b,1,0,0,tac,B,27,1,1B,3B,1,0,b,2.47078789999978,1,0,1,1,1B,3B,B13,3.04452243772342,0.527051761600951,0.472948238399049,0.5,0.5,0.490815052785064,0.509019320192443,0.5,0.490815052785064,0.5,0.5,0.527051761600951,0.472948238399049,0.5,0.48179883208081,0.490815052785064,0.527051761600951,0.509103641512727,0.490896358487273,0.509019320192443,0.490815052785064,0.173462810859355,0.631575299446629,0.490980679807557,0.0090192632551719,0.5,0.0183698944298726,0.764348519781313,9.61693685668372,3.07798212502134,0.5,79.8261531366713
CBC_1035,CBC_1035_MSI_TV_v3_Vset6_Tset2_2024-07-26_14h50.42.748.csv,1,28,3,2,z,0,1,1,tac,C,63,1,3C,2C,0,1,z,2.3939719,0,1,1,1,2C,3C,C32,2.37490575457367,0.527051761600951,0.472948238399049,0.5,0.5,0.490815052785064,0.518038583447615,0.5,0.490815052785064,0.5,0.5,0.527051761600951,0.472948238399049,0.5,0.48179883208081,0.490815052785064,0.527051761600951,0.527051761600951,0.472948238399049,0.527051761600951,0.472948238399049,0.252701626618969,0.832430340223483,0.472948238399049,0.00868800921018474,0.5,0.0183698944298726,0.764348519781313,9.61693685668372,3.07798212502134,0.5,79.8261531366713
CBC_1035,CBC_1035_MSI_TV_v3_Vset6_Tset2_2024-07-26_14h50.42.748.csv,1,29,3,2,b,1,0,3,tac,D,63,1,3D,2D,1,0,b,2.07506139999987,1,0,1,1,3D,2D,D32,2.68557734525015,0.527051761600951,0.472948238399049,0.5,0.5,0.490815052785064,0.518038583447615,0.5,0.490815052785064,0.5,0.5,0.535739770811135,0.472948238399049,0.5,0.48179883208081,0.490815052785064,0.527051761600951,0.517800319405121,0.48219968059488,0.527051761600951,0.490815052785064,0.259547589437901,0.741755197308468,0.472948238399049,0.00868800921018474,0.5,0.0183698944298726,0.764348519781313,9.61693685668372,3.07798212502134,0.5,79.8261531366713
CBC_1035,CBC_1035_MSI_TV_v3_Vset6_Tset2_2024-07-26_14h50.42.748.csv,1,30,0,1,z,0,1,0,tac,B,63,1,0B,1B,0,1,z,0.983409700000266,0,1,1,1,1B,0B,B01,2.70805020110221,0.527051761600951,0.472948238399049,0.5,0.5,0.490815052785064,0.518038583447615,0.5,0.490815052785064,0.5,0.5,0.535739770811135,0.472948238399049,0.5,0.48179883208081,0.490815052785064,0.535739770811135,0.513492309332507,0.486507690667493,0.518038583447615,0.490815052785064,0.0397423497404662,0.689207933655732,0.481961416552385,0.00885358034133916,0.5,0.0183698944298726,0.764348519781313,9.61693685668372,3.07798212502134,0.5,79.8261531366713
CBC_1035,CBC_1035_MSI_TV_v3_Vset6_Tset2_2024-07-26_14h50.42.748.csv,1,31,2,0,z,0,1,2,tac,A,27,1,2A,0A,0,1,z,2.20857179999985,0,1,1,1,0A,2A,A20,3.13549421592915,0.527051761600951,0.472948238399049,0.5,0.5,0.490815052785064,0.526892163788954,0.5,0.490815052785064,0.5,0.5,0.535739770811135,0.472948238399049,0.5,0.48179883208081,0.490815052785064,0.535739770811135,0.513169619396194,0.486830380603806,0.527051761600951,0.5,0.218374640440454,0.684687192702694,0.472948238399049,0.00868800921018474,0.5,0.0183698944298726,0.764348519781313,9.61693685668372,3.07798212502134,0.5,79.8261531366713
CBC_1035,CBC_1035_MSI_TV_v3_Vset6_Tset2_2024-07-26_14h50.42.748.csv,1,32,3,0,b,1,0,3,tac,D,9,1,3D,0D,NaN,NaN,None,NaN,NaN,NaN,NaN,NaN,,,D30,3.85014760171006,0.535739770811135,0.472948238399049,0.5,0.5,0.490815052785064,0.526892163788954,0.5,0.490815052785064,0.5,0.5,0.535739770811135,0.472948238399049,0.5,0.48179883208081,0.490815052785064,0.535739770811135,0,0,0,0,NaN,0,0,0,0.5,0.0183698944298726,0.764348519781313,9.61693685668372,3.07798212502134,0.5,79.8261531366713
CBC_1035,CBC_1035_MSI_TV_v3_Vset6_Tset2_2024-07-26_14h50.42.748.csv,1,33,3,2,z,0,1,1,tac,C,63,1,3C,2C,0,1,z,1.95323019999978,0,1,1,1,2C,3C,C32,2.26176309847379,0.535739770811135,0.472948238399049,0.5,0.5,0.490815052785064,0.526892163788954,0.5,0.490815052785064,0.5,0.5,0.535739770811135,0.472948238399049,0.5,0.48179883208081,0.490815052785064,0.535739770811135,0.531125348888232,0.468874651111768,0.535739770811135,0.472948238399049,0.354428970051822,0.862795836126833,0.464260229188865,0.00852841139818789,0.5,0.0183698944298726,0.764348519781313,9.61693685668372,3.07798212502134,0.5,79.8261531366713
CBC_1035,CBC_1035_MSI_TV_v3_Vset6_Tset2_2024-07-26_14h50.42.748.csv,1,34,0,1,z,0,1,0,tac,B,63,1,0B,1B,NaN,NaN,None,NaN,NaN,NaN,NaN,NaN,,,B01,2.50552593699074,0.535739770811135,0.472948238399049,0.5,0.5,0.490815052785064,0.526892163788954,0.5,0.490815052785064,0.5,0.5,0.544268182209323,0.472948238399049,0.5,0.48179883208081,0.490815052785064,0.535739770811135,0,0,0,0,NaN,0,0,0,0.5,0.0183698944298726,0.764348519781313,9.61693685668372,3.07798212502134,0.5,79.8261531366713
CBC_1035,CBC_1035_MSI_TV_v3_Vset6_Tset2_2024-07-26_14h50.42.748.csv,1,35,0,1,b,1,0,2,tac,A,63,0,0A,1A,0,1,b,5.96616300000005,1,0,1,0,0A,1A,A01,2.30258509299405,0.535739770811135,0.472948238399049,0.5,0.5,0.490815052785064,0.526892163788954,0.5,0.490815052785064,0.5,0.5,0.544268182209323,0.472948238399049,0.5,0.48179883208081,0.490815052785064,0.535739770811135,0.531125348888232,0.468874651111768,0.535739770811135,0.472948238399049,0.0218538622630761,0.863083866389022,-0.535739770811135,-0.00984148303168469,0.5,0.0183698944298726,0.764348519781313,9.61693685668372,3.07798212502134,0.5,79.8261531366713
CBC_1035,CBC_1035_MSI_TV_v3_Vset6_Tset2_2024-07-26_14h50.42.748.csv,1,36,2,3,z,0,1,3,tac,D,63,1,2D,3D,0,1,z,3.73939710000013,0,1,1,1,3D,2D,D23,2.83321334405622,0.525898287779451,0.472948238399049,0.5,0.5,0.490815052785064,0.526892163788954,0.5,0.490815052785064,0.5,0.5,0.544268182209323,0.472948238399049,0.5,0.48179883208081,0.490815052785064,0.535739770811135,0.521881304823396,0.478118695176604,0.535739770811135,0.490815052785064,0.103378804523498,0.784867613837948,0.464260229188865,0.00852841139818789,0.5,0.0183698944298726,0.764348519781313,9.61693685668372,3.07798212502134,0.5,79.8261531366713
CBC_1035,CBC_1035_MSI_TV_v3_Vset6_Tset2_2024-07-26_14h50.42.748.csv,1,37,1,2,b,1,0,0,tac,B,9,1,1B,2B,1,0,b,2.71112119999998,1,0,1,1,1B,2B,B12,3.95124371858143,0.525898287779451,0.472948238399049,0.5,0.5,0.490815052785064,0.526892163788954,0.5,0.490815052785064,0.5,0.5,0.544268182209323,0.472948238399049,0.5,0.48179883208081,0.490815052785064,0.544268182209323,0.513093957056664,0.486906042943336,0.526892163788954,0.5,0.166313462628529,0.684020190981255,0.473107836211046,0.00869094100514236,0.5,0.0183698944298726,0.764348519781313,9.61693685668372,3.07798212502134,0.5,79.8261531366713
CBC_1035,CBC_1035_MSI_TV_v3_Vset6_Tset2_2024-07-26_14h50.42.748.csv,1,38,2,0,z,0,1,2,tac,A,27,1,2A,0A,0,1,z,4.14312859999973,0,1,1,1,0A,2A,A20,2.87167962488401,0.525898287779451,0.472948238399049,0.5,0.5,0.490815052785064,0.535583104794096,0.5,0.490815052785064,0.5,0.5,0.544268182209323,0.472948238399049,0.5,0.48179883208081,0.490815052785064,0.544268182209323,0.51262224924632,0.48737775075368,0.525898287779451,0.5,0.0750400782684347,0.678552737520972,0.474101712220549,0.00870919840251332,0.5,0.0183698944298726,0.764348519781313,9.61693685668372,3.07798212502134,0.5,79.8261531366713
CBC_1035,CBC_1035_MSI_TV_v3_Vset6_Tset2_2024-07-26_14h50.42.748.csv,1,39,2,3,b,1,0,1,tac,C,63,1,2C,3C,1,0,b,2.78737480000018,1,0,1,1,2C,3C,C23,3.29583686600433,0.534607486181964,0.472948238399049,0.5,0.5,0.490815052785064,0.535583104794096,0.5,0.490815052785064,0.5,0.5,0.544268182209323,0.472948238399049,0.5,0.48179883208081,0.490815052785064,0.544268182209323,0.535056425734663,0.464943574265337,0.544268182209323,0.472948238399049,0.205918817205767,0.888720279772579,0.455731817790677,0.00837174538114866,0.5,0.0183698944298726,0.764348519781313,9.61693685668372,3.07798212502134,0.5,79.8261531366713
CBC_1035,CBC_1035_MSI_TV_v3_Vset6_Tset2_2024-07-26_14h50.42.748.csv,1,40,1,3,z,0,1,3,tac,D,27,1,1D,3D,0,1,b,3.48048009999911,1,0,0,0,1D,3D,D13,3.31418600467253,0.534607486181964,0.472948238399049,0.5,0.5,0.490815052785064,0.535583104794096,0.5,0.490815052785064,0.5,0.5,0.552639927590472,0.472948238399049,0.5,0.48179883208081,0.490815052785064,0.544268182209323,0.469558835213248,0.530441164786752,0.48179883208081,0.544268182209323,0.0206547141331204,0.142242963068543,-0.48179883208081,-0.00885059368176038,0.5,0.0183698944298726,0.764348519781313,9.61693685668372,3.07798212502134,0.5,79.8261531366713
CBC_1035,CBC_1035_MSI_TV_v3_Vset6_Tset2_2024-07-26_14h50.42.748.csv,1,41,0,1,b,1,0,2,tac,A,63,1,0A,1A,1,0,b,2.4169738999999,1,0,1,1,0A,1A,A01,2.23359222150709,0.534607486181964,0.472948238399049,0.5,0.5,0.490815052785064,0.535583104794096,0.5,0.490815052785064,0.5,0.5,0.552639927590472,0.472948238399049,0.5,0.472948238399049,0.490815052785064,0.544268182209323,0.530598430577403,0.469401569422597,0.534607486181964,0.472948238399049,0.259680124253084,0.85945438791697,0.465392513818036,0.00854921134729034,0.5,0.0183698944298726,0.764348519781313,9.61693685668372,3.07798212502134,0.5,79.8261531366713
CBC_1035,CBC_1035_MSI_TV_v3_Vset6_Tset2_2024-07-26_14h50.42.748.csv,1,42,0,2,z,0,1,1,tac,C,27,1,0C,2C,0,1,z,1.93632929999967,0,1,1,1,2C,0C,C02,3.3499040872746,0.543156697529254,0.472948238399049,0.5,0.5,0.490815052785064,0.535583104794096,0.5,0.490815052785064,0.5,0.5,0.552639927590472,0.472948238399049,0.5,0.472948238399049,0.490815052785064,0.544268182209323,0.525003767295321,0.474996232704679,0.552639927590472,0.5,0.322301522635411,0.814792113740165,0.447360072409528,0.00821795730230318,0.5,0.0183698944298726,0.764348519781313,9.61693685668372,3.07798212502134,0.5,79.8261531366713
CBC_1035,CBC_1035_MSI_TV_v3_Vset6_Tset2_2024-07-26_14h50.42.748.csv,1,43,3,2,b,1,0,3,tac,D,63,1,3D,2D,1,0,b,3.20090379999965,1,0,1,1,3D,2D,D32,2.67414864942653,0.543156697529254,0.472948238399049,0.5,0.5,0.490815052785064,0.535583104794096,0.5,0.490815052785064,0.5,0.5,0.560857884892775,0.472948238399049,0.5,0.472948238399049,0.490815052785064,0.544268182209323,0.525820691330466,0.474179308669534,0.544268182209323,0.490815052785064,0.148206994389708,0.821956503294262,0.455731817790677,0.00837174538114866,0.5,0.0183698944298726,0.764348519781313,9.61693685668372,3.07798212502134,0.5,79.8261531366713
CBC_1035,CBC_1035_MSI_TV_v3_Vset6_Tset2_2024-07-26_14h50.42.748.csv,1,44,1,0,b,1,0,0,tac,B,63,1,1B,0B,1,0,b,2.52091399999972,1,0,1,1,1B,0B,B10,2.97892515523761,0.543156697529254,0.472948238399049,0.5,0.5,0.490815052785064,0.535583104794096,0.5,0.490815052785064,0.5,0.5,0.560857884892775,0.472948238399049,0.5,0.472948238399049,0.490815052785064,0.552639927590472,0.521808326368503,0.478191673631497,0.535583104794096,0.490815052785064,0.216571306444528,0.78427819446521,0.464416895205904,0.00853128933638165,0.5,0.0183698944298726,0.764348519781313,9.61693685668372,3.07798212502134,0.5,79.8261531366713
CBC_1035,CBC_1035_MSI_AV_v3_Vset4_Aset3_2024-07-26_16h27.09.209.csv,2,1,1,0,z,0,1,2,aud,A,63,1,1A,0A,0,1,z,2.49780780000037,0,1,1,1,0A,1A,A10,2.77258872223978,0.5,0.5,0.5,0.5,0.5,0.5,0.5,0.5,0.5,0.5,0.5,0.5,0.5,0.5,0.5,0.5,0.5,0.5,0.5,0.5,0.166844408945679,0.500822342171908,0.5,0.122968973763441,0.5,0.245937947526882,1.09322260382132,0.27804821185516,2.63361469135642,0.5,86.7369704451461
CBC_1035,CBC_1035_MSI_AV_v3_Vset4_Aset3_2024-07-26_16h27.09.209.csv,2,2,2,3,b,1,0,1,aud,C,63,1,2C,3C,1,0,b,2.48440149999988,1,0,1,1,2C,3C,C23,2.83321334405622,0.622968973763441,0.5,0.5,0.5,0.5,0.5,0.5,0.5,0.5,0.5,0.5,0.5,0.5,0.5,0.5,0.5,0.5,0.5,0.5,0.5,0.168145259052801,0.499976037566905,0.5,0.122968973763441,0.5,0.245937947526882,1.09322260382132,0.27804821185516,2.63361469135642,0.5,86.7369704451461
CBC_1035,CBC_1035_MSI_AV_v3_Vset4_Aset3_2024-07-26_16h27.09.209.csv,2,3,2,0,z,0,1,2,aud,A,27,1,2A,0A,0,1,b,3.19212300000072,1,0,0,0,2A,0A,A20,2.89037175789616,0.622968973763441,0.5,0.5,0.5,0.5,0.5,0.5,0.5,0.5,0.5,0.622968973763441,0.5,0.5,0.5,0.5,0.5,0.445248276383215,0.554751723616785,0.5,0.622968973763441,0.0975279556491513,0.479387791654794,-0.5,-0.122968973763441,0.5,0.245937947526882,1.09322260382132,0.27804821185516,2.63361469135642,0.5,86.7369704451461
CBC_1035,CBC_1035_MSI_AV_v3_Vset4_Aset3_2024-07-26_16h27.09.209.csv,2,4,0,1,z,0,1,0,aud,B,63,1,0B,1B,0,1,b,2.57145850000052,1,0,0,0,0B,1B,B01,2.94443897916644,0.622968973763441,0.5,0.377031026236559,0.5,0.5,0.5,0.5,0.5,0.5,0.5,0.622968973763441,0.5,0.5,0.5,0.5,0.5,0.5,0.5,0.5,0.5,0.157927285616643,0.499385911757772,-0.5,-0.122968973763441,0.5,0.245937947526882,1.09322260382132,0.27804821185516,2.63361469135642,0.5,86.7369704451461
CBC_1035,CBC_1035_MSI_AV_v3_Vset4_Aset3_2024-07-26_16h27.09.209.csv,2,5,1,0,b,1,0,0,aud,B,63,1,1B,0B,1,0,z,2.09528099999989,0,1,0,0,0B,1B,B10,2.99573227355399,0.622968973763441,0.5,0.377031026236559,0.5,0.377031026236559,0.5,0.5,0.5,0.5,0.5,0.622968973763441,0.5,0.5,0.5,0.5,0.5,0.429894741414614,0.570105258585386,0.377031026236559,0.5,0.208756036739918,0.474593845152229,-0.377031026236559,-0.0927262367465733,0.5,0.245937947526882,1.09322260382132,0.27804821185516,2.63361469135642,0.5,86.7369704451461
CBC_1035,CBC_1035_MSI_AV_v3_Vset4_Aset3_2024-07-26_16h27.09.209.csv,2,6,2,3,b,1,0,1,aud,C,63,1,2C,3C,1,0,z,2.87104760000148,0,1,0,0,3C,2C,C23,2.35137525716348,0.622968973763441,0.5,0.377031026236559,0.5,0.284304789489986,0.5,0.5,0.5,0.5,0.5,0.622968973763441,0.5,0.5,0.5,0.5,0.5,0.445248276383215,0.554751723616785,0.5,0.622968973763441,0.122842359157755,0.480474568548388,-0.5,-0.122968973763441,0.5,0.245937947526882,1.09322260382132,0.27804821185516,2.63361469135642,0.5,86.7369704451461
CBC_1035,CBC_1035_MSI_AV_v3_Vset4_Aset3_2024-07-26_16h27.09.209.csv,2,7,1,3,z,0,1,3,aud,D,27,1,1D,3D,0,1,z,4.27679160000116,0,1,1,1,3D,1D,D13,3.09104245335832,0.622968973763441,0.5,0.377031026236559,0.5,0.284304789489986,0.5,0.5,0.5,0.5,0.5,0.622968973763441,0.377031026236559,0.5,0.5,0.5,0.5,0.5,0.5,0.5,0.5,0.0471411696980506,0.501220400113677,0.5,0.122968973763441,0.5,0.245937947526882,1.09322260382132,0.27804821185516,2.63361469135642,0.5,86.7369704451461
CBC_1035,CBC_1035_MSI_AV_v3_Vset4_Aset3_2024-07-26_16h27.09.209.csv,2,8,2,1,b,1,0,1,aud,C,9,1,2C,1C,1,0,b,3.92701730000044,1,0,1,1,2C,1C,C21,3.13549421592915,0.622968973763441,0.5,0.377031026236559,0.5,0.284304789489986,0.5,0.5,0.5,0.5,0.5,0.622968973763441,0.377031026236559,0.5,0.5,0.5,0.622968973763441,0.554751723616785,0.445248276383215,0.622968973763441,0.5,0.0626094015683408,0.51927066964994,0.377031026236559,0.0927262367465733,0.5,0.245937947526882,1.09322260382132,0.27804821185516,2.63361469135642,0.5,86.7369704451461
CBC_1035,CBC_1035_MSI_AV_v3_Vset4_Aset3_2024-07-26_16h27.09.209.csv,2,9,1,3,b,1,0,0,aud,B,27,1,1B,3B,1,0,z,2.50264210000023,0,1,0,0,3B,1B,B13,3.17805383034795,0.622968973763441,0.5,0.377031026236559,0.5,0.284304789489986,0.5,0.5,0.5,0.5,0.5,0.715695210510014,0.377031026236559,0.5,0.5,0.5,0.622968973763441,0.5,0.5,0.5,0.5,0.166042327238398,0.500118349413708,-0.5,-0.122968973763441,0.5,0.245937947526882,1.09322260382132,0.27804821185516,2.63361469135642,0.5,86.7369704451461
CBC_1035,CBC_1035_MSI_AV_v3_Vset4_Aset3_2024-07-26_16h27.09.209.csv,2,10,2,3,z,0,1,3,aud,D,63,1,2D,3D,0,1,b,3.29311049999887,1,0,0,0,2D,3D,D23,3.2188758248682,0.622968973763441,0.5,0.377031026236559,0.5,0.284304789489986,0.5,0.5,0.377031026236559,0.5,0.5,0.715695210510014,0.377031026236559,0.5,0.5,0.5,0.622968973763441,0.445248276383215,0.554751723616785,0.5,0.622968973763441,0.0907881191851202,0.479521303653931,-0.5,-0.122968973763441,0.5,0.245937947526882,1.09322260382132,0.27804821185516,2.63361469135642,0.5,86.7369704451461
CBC_1035,CBC_1035_MSI_AV_v3_Vset4_Aset3_2024-07-26_16h27.09.209.csv,2,11,0,1,z,0,1,0,aud,B,63,1,0B,1B,0,1,b,2.4102266000009,1,0,0,0,0B,1B,B01,2.56494935746154,0.622968973763441,0.5,0.377031026236559,0.5,0.284304789489986,0.5,0.5,0.377031026236559,0.5,0.5,0.715695210510014,0.377031026236559,0.5,0.5,0.377031026236559,0.622968973763441,0.362492736624574,0.637507263375426,0.284304789489986,0.5,0.159575950347613,0.449817167793672,-0.284304789489986,-0.0699213363992293,0.5,0.245937947526882,1.09322260382132,0.27804821185516,2.63361469135642,0.5,86.7369704451461
CBC_1035,CBC_1035_MSI_AV_v3_Vset4_Aset3_2024-07-26_16h27.09.209.csv,2,12,2,0,b,1,0,1,aud,C,27,1,2C,0C,1,0,z,2.40776060000098,0,1,0,0,0C,2C,C20,3.29583686600433,0.622968973763441,0.5,0.377031026236559,0.5,0.214383453090756,0.5,0.5,0.377031026236559,0.5,0.5,0.715695210510014,0.377031026236559,0.5,0.5,0.377031026236559,0.622968973763441,0.411287299380112,0.588712700619888,0.5,0.715695210510014,0.165911148249813,0.467188448721913,-0.5,-0.122968973763441,0.5,0.245937947526882,1.09322260382132,0.27804821185516,2.63361469135642,0.5,86.7369704451461
CBC_1035,CBC_1035_MSI_AV_v3_Vset4_Aset3_2024-07-26_16h27.09.209.csv,2,13,2,3,z,0,1,3,aud,D,63,0,2D,3D,1,0,b,4.93239410000206,1,0,0,1,2D,3D,D23,2.63905732961526,0.622968973763441,0.5,0.377031026236559,0.5,0.214383453090756,0.5,0.5,0.377031026236559,0.377031026236559,0.5,0.715695210510014,0.377031026236559,0.5,0.5,0.377031026236559,0.622968973763441,0.377031026236559,0.622968973763441,0.377031026236559,0.622968973763441,0.0266822940535969,0.454586807695901,0.622968973763441,0.153211710780309,0.5,0.245937947526882,1.09322260382132,0.27804821185516,2.63361469135642,0.5,86.7369704451461
CBC_1035,CBC_1035_MSI_AV_v3_Vset4_Aset3_2024-07-26_16h27.09.209.csv,2,14,0,1,b,1,0,2,aud,A,63,1,0A,1A,1,0,b,2.0851171000013,1,0,1,1,0A,1A,A01,3.36729582998647,0.622968973763441,0.5,0.377031026236559,0.5,0.214383453090756,0.5,0.5,0.377031026236559,0.377031026236559,0.5,0.715695210510014,0.377031026236559,0.5,0.5,0.530242737016868,0.622968973763441,0.554751723616785,0.445248276383215,0.622968973763441,0.5,0.230763545086756,0.521242782498755,0.377031026236559,0.0927262367465733,0.5,0.245937947526882,1.09322260382132,0.27804821185516,2.63361469135642,0.5,86.7369704451461
CBC_1035,CBC_1035_MSI_AV_v3_Vset4_Aset3_2024-07-26_16h27.09.209.csv,2,15,3,2,z,0,1,1,aud,C,63,1,3C,2C,0,1,z,1.78448050000043,0,1,1,1,2C,3C,C32,3.40119738166216,0.715695210510014,0.5,0.377031026236559,0.5,0.214383453090756,0.5,0.5,0.377031026236559,0.377031026236559,0.5,0.715695210510014,0.377031026236559,0.5,0.5,0.530242737016868,0.622968973763441,0.654962960019051,0.345037039980949,0.715695210510014,0.377031026236559,0.291265773009857,0.556387200179141,0.284304789489986,0.0699213363992293,0.5,0.245937947526882,1.09322260382132,0.27804821185516,2.63361469135642,0.5,86.7369704451461
CBC_1035,CBC_1035_MSI_AV_v3_Vset4_Aset3_2024-07-26_16h27.09.209.csv,2,16,2,0,z,0,1,2,aud,A,27,1,2A,0A,0,1,b,2.07709650000106,1,0,0,0,2A,0A,A20,2.7408400239252,0.715695210510014,0.5,0.377031026236559,0.5,0.214383453090756,0.5,0.5,0.377031026236559,0.377031026236559,0.5,0.785616546909244,0.377031026236559,0.5,0.5,0.530242737016868,0.622968973763441,0.345037039980949,0.654962960019051,0.377031026236559,0.715695210510014,0.198096655319977,0.444097629109538,-0.377031026236559,-0.0927262367465733,0.5,0.245937947526882,1.09322260382132,0.27804821185516,2.63361469135642,0.5,86.7369704451461
CBC_1035,CBC_1035_MSI_AV_v3_Vset4_Aset3_2024-07-26_16h27.09.209.csv,2,17,3,2,b,1,0,3,aud,D,63,1,3D,2D,1,0,z,1.79889340000045,0,1,0,0,2D,3D,D32,3.46573590279973,0.715695210510014,0.5,0.284304789489986,0.5,0.214383453090756,0.5,0.5,0.377031026236559,0.377031026236559,0.5,0.785616546909244,0.377031026236559,0.5,0.5,0.530242737016868,0.622968973763441,0.459796524835916,0.540203475164084,0.530242737016868,0.622968973763441,0.251851985693424,0.485426526443234,-0.530242737016868,-0.130406810432965,0.5,0.245937947526882,1.09322260382132,0.27804821185516,2.63361469135642,0.5,86.7369704451461
CBC_1035,CBC_1035_MSI_AV_v3_Vset4_Aset3_2024-07-26_16h27.09.209.csv,2,18,2,3,z,0,1,3,aud,D,63,1,2D,3D,0,1,b,1.66896249999991,1,0,0,0,2D,3D,D23,2.39789527279837,0.715695210510014,0.5,0.284304789489986,0.5,0.214383453090756,0.5,0.5,0.377031026236559,0.377031026236559,0.5,0.785616546909244,0.377031026236559,0.5,0.5,0.399835926583903,0.622968973763441,0.390921011864647,0.609078988135353,0.399835926583903,0.622968973763441,0.245923794932964,0.459987529890258,-0.399835926583903,-0.0983348271315542,0.5,0.245937947526882,1.09322260382132,0.27804821185516,2.63361469135642,0.5,86.7369704451461
CBC_1035,CBC_1035_MSI_AV_v3_Vset4_Aset3_2024-07-26_16h27.09.209.csv,2,19,1,3,b,1,0,0,aud,B,27,1,1B,3B,1,0,z,2.62897630000043,0,1,0,0,3B,1B,B13,2.83321334405622,0.715695210510014,0.5,0.284304789489986,0.5,0.214383453090756,0.5,0.5,0.377031026236559,0.377031026236559,0.5,0.785616546909244,0.377031026236559,0.5,0.5,0.301501099452349,0.622968973763441,0.429894741414614,0.570105258585386,0.377031026236559,0.5,0.143973019586326,0.474117322740989,-0.377031026236559,-0.0927262367465733,0.5,0.245937947526882,1.09322260382132,0.27804821185516,2.63361469135642,0.5,86.7369704451461
CBC_1035,CBC_1035_MSI_AV_v3_Vset4_Aset3_2024-07-26_16h27.09.209.csv,2,20,3,0,b,1,0,3,aud,D,9,1,3D,0D,1,0,b,1.53287830000045,1,0,1,1,3D,0D,D30,3.55534806148941,0.715695210510014,0.5,0.284304789489986,0.5,0.214383453090756,0.5,0.5,0.284304789489986,0.377031026236559,0.5,0.785616546909244,0.377031026236559,0.5,0.5,0.301501099452349,0.622968973763441,0.554751723616785,0.445248276383215,0.622968973763441,0.5,0.260580717934467,0.519192996412124,0.377031026236559,0.0927262367465733,0.5,0.245937947526882,1.09322260382132,0.27804821185516,2.63361469135642,0.5,86.7369704451461
CBC_1035,CBC_1035_MSI_AV_v3_Vset4_Aset3_2024-07-26_16h27.09.209.csv,2,21,0,1,z,0,1,0,aud,B,63,1,0B,1B,0,1,z,3.76191480000125,0,1,1,1,1B,0B,B01,2.484906649788,0.715695210510014,0.5,0.284304789489986,0.5,0.214383453090756,0.5,0.5,0.284304789489986,0.377031026236559,0.5,0.785616546909244,0.377031026236559,0.5,0.5,0.301501099452349,0.715695210510014,0.699904229075809,0.300095770924191,0.5,0.214383453090756,0.0774002328738605,0.573976808497676,0.5,0.122968973763441,0.5,0.245937947526882,1.09322260382132,0.27804821185516,2.63361469135642,0.5,86.7369704451461
CBC_1035,CBC_1035_MSI_AV_v3_Vset4_Aset3_2024-07-26_16h27.09.209.csv,2,22,0,1,b,1,0,2,aud,A,63,1,0A,1A,1,0,b,2.17428350000046,1,0,1,1,0A,1A,A01,2.91777073208428,0.715695210510014,0.5,0.284304789489986,0.5,0.214383453090756,0.622968973763441,0.5,0.284304789489986,0.377031026236559,0.5,0.785616546909244,0.377031026236559,0.5,0.5,0.301501099452349,0.715695210510014,0.588712700619888,0.411287299380112,0.715695210510014,0.5,0.221854408681088,0.531482143200259,0.284304789489986,0.0699213363992293,0.5,0.245937947526882,1.09322260382132,0.27804821185516,2.63361469135642,0.5,86.7369704451461
CBC_1035,CBC_1035_MSI_AV_v3_Vset4_Aset3_2024-07-26_16h27.09.209.csv,2,23,3,2,z,0,1,1,aud,C,63,1,3C,2C,0,1,z,2.4011473999999,0,1,1,1,2C,3C,C32,2.94443897916644,0.785616546909244,0.5,0.284304789489986,0.5,0.214383453090756,0.622968973763441,0.5,0.284304789489986,0.377031026236559,0.5,0.785616546909244,0.377031026236559,0.5,0.5,0.301501099452349,0.715695210510014,0.675713401941383,0.324286598058617,0.785616546909244,0.377031026236559,0.20191959512222,0.565070326212707,0.214383453090756,0.0527250264368662,0.5,0.245937947526882,1.09322260382132,0.27804821185516,2.63361469135642,0.5,86.7369704451461
CBC_1035,CBC_1035_MSI_AV_v3_Vset4_Aset3_2024-07-26_16h27.09.209.csv,2,24,2,0,z,0,1,2,aud,A,27,1,2A,0A,0,1,b,2.62552630000027,1,0,0,0,2A,0A,A20,2.56494935746154,0.785616546909244,0.5,0.284304789489986,0.5,0.214383453090756,0.622968973763441,0.5,0.284304789489986,0.377031026236559,0.5,0.83834157334611,0.377031026236559,0.5,0.5,0.301501099452349,0.715695210510014,0.265724946141181,0.734275053858819,0.284304789489986,0.785616546909244,0.126647497622862,0.415431818289844,-0.284304789489986,-0.0699213363992293,0.5,0.245937947526882,1.09322260382132,0.27804821185516,2.63361469135642,0.5,86.7369704451461
CBC_1035,CBC_1035_MSI_AV_v3_Vset4_Aset3_2024-07-26_16h27.09.209.csv,2,25,0,1,z,0,1,0,aud,B,63,1,0B,1B,0,1,z,3.07861170000069,0,1,1,1,1B,0B,B01,2.30258509299405,0.785616546909244,0.5,0.214383453090756,0.5,0.214383453090756,0.622968973763441,0.5,0.284304789489986,0.377031026236559,0.5,0.83834157334611,0.377031026236559,0.5,0.5,0.301501099452349,0.715695210510014,0.743974644109934,0.256025355890066,0.622968973763441,0.214383453090756,0.129571946464754,0.588811620958831,0.377031026236559,0.0927262367465733,0.5,0.245937947526882,1.09322260382132,0.27804821185516,2.63361469135642,0.5,86.7369704451461
CBC_1035,CBC_1035_MSI_AV_v3_Vset4_Aset3_2024-07-26_16h27.09.209.csv,2,26,3,2,b,1,0,3,aud,D,63,1,3D,2D,1,0,b,3.13429890000043,1,0,1,1,3D,2D,D32,3.02042488614436,0.785616546909244,0.5,0.214383453090756,0.5,0.214383453090756,0.715695210510014,0.5,0.284304789489986,0.377031026236559,0.5,0.83834157334611,0.377031026236559,0.5,0.5,0.301501099452349,0.715695210510014,0.703595956356247,0.296404043643753,0.715695210510014,0.301501099452349,0.121367378195254,0.573561464100257,0.284304789489986,0.0699213363992293,0.5,0.245937947526882,1.09322260382132,0.27804821185516,2.63361469135642,0.5,86.7369704451461
CBC_1035,CBC_1035_MSI_AV_v3_Vset4_Aset3_2024-07-26_16h27.09.209.csv,2,27,2,1,z,0,1,0,aud,B,9,1,2B,1B,0,1,z,1.24632290000045,0,1,1,1,1B,2B,B21,3.73766961828337,0.785616546909244,0.5,0.214383453090756,0.5,0.214383453090756,0.715695210510014,0.5,0.284304789489986,0.377031026236559,0.5,0.83834157334611,0.377031026236559,0.5,0.5,0.301501099452349,0.785616546909244,0.588712700619888,0.411287299380112,0.715695210510014,0.5,0.0325267319230464,0.533016727017215,0.284304789489986,0.0699213363992293,0.5,0.245937947526882,1.09322260382132,0.27804821185516,2.63361469135642,0.5,86.7369704451461
CBC_1035,CBC_1035_MSI_AV_v3_Vset4_Aset3_2024-07-26_16h27.09.209.csv,2,28,3,1,b,1,0,3,aud,D,27,1,3D,1D,1,0,b,3.62328400000115,1,0,1,1,3D,1D,D31,3.76120011569356,0.785616546909244,0.5,0.214383453090756,0.5,0.214383453090756,0.785616546909244,0.5,0.284304789489986,0.377031026236559,0.5,0.83834157334611,0.377031026236559,0.5,0.5,0.301501099452349,0.785616546909244,0.611081545891695,0.388918454108305,0.785616546909244,0.5,0.0808862122429804,0.541065672814592,0.214383453090756,0.0527250264368662,0.5,0.245937947526882,1.09322260382132,0.27804821185516,2.63361469135642,0.5,86.7369704451461
CBC_1035,CBC_1035_MSI_AV_v3_Vset4_Aset3_2024-07-26_16h27.09.209.csv,2,29,0,1,b,1,0,2,aud,A,63,1,0A,1A,1,0,z,2.17735279999943,0,1,0,0,1A,0A,A01,2.68557734525015,0.785616546909244,0.5,0.214383453090756,0.5,0.214383453090756,0.785616546909244,0.5,0.284304789489986,0.377031026236559,0.5,0.83834157334611,0.377031026236559,0.5,0.5,0.301501099452349,0.83834157334611,0.388918454108305,0.611081545891695,0.5,0.785616546909244,0.190774282033288,0.457700760079494,-0.5,-0.122968973763441,0.5,0.245937947526882,1.09322260382132,0.27804821185516,2.63361469135642,0.5,86.7369704451461
CBC_1035,CBC_1035_MSI_AV_v3_Vset4_Aset3_2024-07-26_16h27.09.209.csv,2,30,1,0,z,0,1,2,aud,A,63,1,1A,0A,0,1,b,2.47443449999992,1,0,0,0,1A,0A,A10,3.11351530921037,0.785616546909244,0.377031026236559,0.214383453090756,0.5,0.214383453090756,0.785616546909244,0.5,0.284304789489986,0.377031026236559,0.5,0.83834157334611,0.377031026236559,0.5,0.5,0.301501099452349,0.83834157334611,0.324286598058617,0.675713401941383,0.377031026236559,0.785616546909244,0.148259301034673,0.437055011218628,-0.377031026236559,-0.0927262367465733,0.5,0.245937947526882,1.09322260382132,0.27804821185516,2.63361469135642,0.5,86.7369704451461
CBC_1035,CBC_1035_MSI_AV_v3_Vset4_Aset3_2024-07-26_16h27.09.209.csv,2,31,2,0,b,1,0,1,aud,C,27,1,2C,0C,1,0,z,1.8921835000001,0,1,0,0,0C,2C,C20,3.13549421592915,0.785616546909244,0.284304789489986,0.214383453090756,0.5,0.214383453090756,0.785616546909244,0.5,0.284304789489986,0.377031026236559,0.5,0.83834157334611,0.377031026236559,0.5,0.5,0.301501099452349,0.83834157334611,0.310218468283737,0.689781531716263,0.377031026236559,0.83834157334611,0.215355468239488,0.431270040085599,-0.377031026236559,-0.0927262367465733,0.5,0.245937947526882,1.09322260382132,0.27804821185516,2.63361469135642,0.5,86.7369704451461
CBC_1035,CBC_1035_MSI_AV_v3_Vset4_Aset3_2024-07-26_16h27.09.209.csv,2,32,0,1,b,1,0,2,aud,A,63,1,0A,1A,1,0,b,3.29781490000096,1,0,1,1,0A,1A,A01,2.46385324059017,0.785616546909244,0.284304789489986,0.214383453090756,0.5,0.214383453090756,0.785616546909244,0.5,0.284304789489986,0.284304789489986,0.5,0.83834157334611,0.377031026236559,0.5,0.5,0.301501099452349,0.83834157334611,0.734275053858819,0.265724946141181,0.785616546909244,0.284304789489986,0.10998076782288,0.585090320374317,0.214383453090756,0.0527250264368662,0.5,0.245937947526882,1.09322260382132,0.27804821185516,2.63361469135642,0.5,86.7369704451461
CBC_1035,CBC_1035_MSI_AV_v3_Vset4_Aset3_2024-07-26_16h27.09.209.csv,2,33,0,1,z,0,1,0,aud,B,63,1,0B,1B,0,1,z,2.37674599999991,0,1,1,1,1B,0B,B01,2.26176309847379,0.83834157334611,0.284304789489986,0.214383453090756,0.5,0.214383453090756,0.785616546909244,0.5,0.284304789489986,0.284304789489986,0.5,0.83834157334611,0.377031026236559,0.5,0.5,0.301501099452349,0.83834157334611,0.785616546909244,0.214383453090756,0.785616546909244,0.214383453090756,0.220291056429799,0.603894042251301,0.214383453090756,0.0527250264368662,0.5,0.245937947526882,1.09322260382132,0.27804821185516,2.63361469135642,0.5,86.7369704451461
CBC_1035,CBC_1035_MSI_AV_v3_Vset4_Aset3_2024-07-26_16h27.09.209.csv,2,34,2,3,z,0,1,3,aud,D,63,1,2D,3D,NaN,NaN,[],NaN,NaN,NaN,NaN,NaN,,,D23,2.50552593699074,0.83834157334611,0.284304789489986,0.214383453090756,0.5,0.214383453090756,0.83834157334611,0.5,0.284304789489986,0.284304789489986,0.5,0.83834157334611,0.377031026236559,0.5,0.5,0.301501099452349,0.83834157334611,0,0,0,0,NaN,0,0,0,0.5,0.245937947526882,1.09322260382132,0.27804821185516,2.63361469135642,0.5,86.7369704451461
CBC_1035,CBC_1035_MSI_AV_v3_Vset4_Aset3_2024-07-26_16h27.09.209.csv,2,35,1,3,b,1,0,0,aud,B,27,1,1B,3B,1,0,z,2.69933710000078,0,1,0,0,3B,1B,B13,2.81341071676004,0.83834157334611,0.284304789489986,0.214383453090756,0.5,0.214383453090756,0.83834157334611,0.5,0.284304789489986,0.284304789489986,0.5,0.83834157334611,0.377031026236559,0.5,0.5,0.301501099452349,0.83834157334611,0.253245188245885,0.746754811754115,0.284304789489986,0.83834157334611,0.118652474180429,0.410329358187742,-0.284304789489986,-0.0699213363992293,0.5,0.245937947526882,1.09322260382132,0.27804821185516,2.63361469135642,0.5,86.7369704451461
CBC_1035,CBC_1035_MSI_AV_v3_Vset4_Aset3_2024-07-26_16h27.09.209.csv,2,36,2,3,b,1,0,1,aud,C,63,1,2C,3C,1,0,b,2.75672860000122,1,0,1,1,2C,3C,C23,2.83321334405622,0.83834157334611,0.284304789489986,0.214383453090756,0.5,0.214383453090756,0.83834157334611,0.5,0.214383453090756,0.284304789489986,0.5,0.83834157334611,0.377031026236559,0.5,0.5,0.301501099452349,0.83834157334611,0.689781531716263,0.310218468283737,0.83834157334611,0.377031026236559,0.157965519320087,0.569431810330506,0.16165842665389,0.0397579416516828,0.5,0.245937947526882,1.09322260382132,0.27804821185516,2.63361469135642,0.5,86.7369704451461
CBC_1035,CBC_1035_MSI_AV_v3_Vset4_Aset3_2024-07-26_16h27.09.209.csv,2,37,0,2,z,0,1,1,aud,C,27,1,0C,2C,0,1,z,3.09876919999988,0,1,1,1,2C,0C,C02,3.95124371858143,0.83834157334611,0.284304789489986,0.214383453090756,0.5,0.214383453090756,0.83834157334611,0.5,0.214383453090756,0.284304789489986,0.5,0.878099514997793,0.377031026236559,0.5,0.5,0.301501099452349,0.83834157334611,0.75541660643173,0.24458339356827,0.878099514997793,0.284304789489986,0.128250308093874,0.591430536962227,0.121900485002207,0.0299799550839744,0.5,0.245937947526882,1.09322260382132,0.27804821185516,2.63361469135642,0.5,86.7369704451461
CBC_1035,CBC_1035_MSI_AV_v3_Vset4_Aset3_2024-07-26_16h27.09.209.csv,2,38,0,1,z,0,1,0,aud,B,63,1,0B,1B,0,1,z,4.54585020000013,0,1,1,1,1B,0B,B01,2.17853244432407,0.83834157334611,0.284304789489986,0.214383453090756,0.5,0.214383453090756,0.83834157334611,0.5,0.214383453090756,0.284304789489986,0.5,0.908079470081767,0.377031026236559,0.5,0.5,0.301501099452349,0.83834157334611,0.796353798278763,0.203646201721237,0.83834157334611,0.214383453090756,0.0460635616809236,0.607352373538388,0.16165842665389,0.0397579416516828,0.5,0.245937947526882,1.09322260382132,0.27804821185516,2.63361469135642,0.5,86.7369704451461
CBC_1035,CBC_1035_MSI_AV_v3_Vset4_Aset3_2024-07-26_16h27.09.209.csv,2,39,0,3,b,1,0,2,aud,A,9,1,0A,3A,1,0,b,2.35098670000116,1,0,1,1,0A,3A,A03,3.98898404656427,0.83834157334611,0.284304789489986,0.214383453090756,0.5,0.214383453090756,0.878099514997793,0.5,0.214383453090756,0.284304789489986,0.5,0.908079470081767,0.377031026236559,0.5,0.5,0.301501099452349,0.83834157334611,0.626403296469447,0.373596703530553,0.83834157334611,0.5,0.202243625044716,0.546927264826654,0.16165842665389,0.0397579416516828,0.5,0.245937947526882,1.09322260382132,0.27804821185516,2.63361469135642,0.5,86.7369704451461
CBC_1035,CBC_1035_MSI_AV_v3_Vset4_Aset3_2024-07-26_16h27.09.209.csv,2,40,2,3,b,1,0,1,aud,C,63,0,2C,3C,0,1,z,2.78871210000034,0,1,0,1,3C,2C,C23,2.62103882411258,0.878099514997793,0.284304789489986,0.214383453090756,0.5,0.214383453090756,0.878099514997793,0.5,0.214383453090756,0.284304789489986,0.5,0.908079470081767,0.377031026236559,0.5,0.5,0.301501099452349,0.83834157334611,0.293384131027413,0.706615868972587,0.377031026236559,0.908079470081767,0.115576130120642,0.426268596159196,0.622968973763441,0.153211710780309,0.5,0.245937947526882,1.09322260382132,0.27804821185516,2.63361469135642,0.5,86.7369704451461
CBC_1035,CBC_1035_MSI_AV_v3_Vset4_Aset3_2024-07-26_16h27.09.209.csv,2,41,0,1,b,1,0,2,aud,A,63,1,0A,1A,1,0,b,2.16057910000018,1,0,1,1,0A,1A,A01,2.41591377830105,0.878099514997793,0.284304789489986,0.214383453090756,0.5,0.214383453090756,0.878099514997793,0.5,0.214383453090756,0.284304789489986,0.5,0.908079470081767,0.530242737016868,0.5,0.5,0.301501099452349,0.83834157334611,0.75541660643173,0.24458339356827,0.878099514997793,0.284304789489986,0.250544145421437,0.591309842873111,0.121900485002207,0.0299799550839744,0.5,0.245937947526882,1.09322260382132,0.27804821185516,2.63361469135642,0.5,86.7369704451461
CBC_1035,CBC_1035_MSI_AV_v3_Vset4_Aset3_2024-07-26_16h27.09.209.csv,2,42,2,3,z,0,1,3,aud,D,63,1,2D,3D,0,1,z,4.01834589999999,0,1,1,1,3D,2D,D23,2.43361335540045,0.908079470081767,0.284304789489986,0.214383453090756,0.5,0.214383453090756,0.878099514997793,0.5,0.214383453090756,0.284304789489986,0.5,0.908079470081767,0.530242737016868,0.5,0.5,0.301501099452349,0.83834157334611,0.735488847147541,0.264511152852459,0.83834157334611,0.301501099452349,0.0654853313495635,0.585290534192964,0.16165842665389,0.0397579416516828,0.5,0.245937947526882,1.09322260382132,0.27804821185516,2.63361469135642,0.5,86.7369704451461
CBC_1035,CBC_1035_MSI_AV_v3_Vset4_Aset3_2024-07-26_16h27.09.209.csv,2,43,3,2,z,0,1,1,aud,C,63,1,3C,2C,0,1,b,2.42753559999983,1,0,0,0,3C,2C,C32,2.96183072187831,0.908079470081767,0.284304789489986,0.214383453090756,0.5,0.214383453090756,0.878099514997793,0.5,0.214383453090756,0.284304789489986,0.5,0.908079470081767,0.530242737016868,0.5,0.5,0.301501099452349,0.878099514997793,0.368653653819659,0.631346346180341,0.530242737016868,0.908079470081767,0.158873750338254,0.453411651649568,-0.530242737016868,-0.130406810432965,0.5,0.245937947526882,1.09322260382132,0.27804821185516,2.63361469135642,0.5,86.7369704451461
CBC_1035,CBC_1035_MSI_AV_v3_Vset4_Aset3_2024-07-26_16h27.09.209.csv,2,44,3,1,b,1,0,3,aud,D,27,1,3D,1D,1,0,z,2.94642779999958,0,1,0,0,1D,3D,D31,3.38439026334577,0.908079470081767,0.284304789489986,0.214383453090756,0.5,0.214383453090756,0.878099514997793,0.5,0.214383453090756,0.284304789489986,0.5,0.908079470081767,0.399835926583903,0.5,0.5,0.301501099452349,0.878099514997793,0.362818500811098,0.637181499188902,0.5,0.878099514997793,0.108811111472808,0.449179516888284,-0.5,-0.122968973763441,0.5,0.245937947526882,1.09322260382132,0.27804821185516,2.63361469135642,0.5,86.7369704451461
