ID,session,trialNr,mod2Stim,visStimLeft,visStimRight,correctKey,frequency,rewardAccurate,probFB,stimPairLeft,stimPairRight,leftCorrect,rightCorrect,pCorrectLeft,pCorrectRight,triplet,rt,surprise,0A belief,1A belief,2A belief,3A belief,0B belief,1B belief,2B belief,3B belief,0C belief,1C belief,2C belief,3C belief,0D belief,1D belief,2D belief,3D belief,reactionTime,choice,choiceLeft,choiceRight,chosenPair,otherPair,beliefPair,beliefOtherPair,beliefPairNorm,beliefOtherPairNorm,choiceAccurate,reward,rewardPE,update2,sim_CBCsimpleRW_CBCdriftDiffusionLR_startBelief,sim_CBCsimpleRW_CBCdriftDiffusionLR_alpha1,sim_CBCsimpleRW_CBCdriftDiffusionLR_nonDecisionTime,sim_CBCsimpleRW_CBCdriftDiffusionLR_weight,sim_CBCsimpleRW_CBCdriftDiffusionLR_startingBoundary,sim_CBCsimpleRW_CBCdriftDiffusionLR_startingPoint,lik,corrLik,fitCBCsimpleRW_CBCdriftDiffusionLR_startBelief,fitCBCsimpleRW_CBCdriftDiffusionLR_alpha1,fitCBCsimpleRW_CBCdriftDiffusionLR_nonDecisionTime,fitCBCsimpleRW_CBCdriftDiffusionLR_weight,fitCBCsimpleRW_CBCdriftDiffusionLR_startingBoundary,fitCBCsimpleRW_CBCdriftDiffusionLR_startingPoint,fit_CBCsimpleRW_CBCdriftDiffusionLR_NLL
167,1,1,A,1,0,l,63,1,0.95,1A,0A,0,1,0,1,A10,0.993744719384652,2.77258872223978,0.5,0.5,0.5,0.5,0.5,0.5,0.5,0.5,0.5,0.5,0.5,0.5,0.5,0.5,0.5,0.5,2.7893027447707,0,0,1,0A,1A,0.5,0.5,0.5,0.5,1,1,0.5,0.413216898026668,0.5,0.764863565590875,1.05630274477069,7.15961111224284,4.03666601135992,0.5,0.100975681194781,0.498213215080526,0.5,0.826433796053335,1.07879334027851,7.48958701494985,4.24715257563208,0.5,7.07318002032841
167,1,2,C,2,3,a,63,1,0.95,2C,3C,1,0,1,0,C23,2.57415469723702,2.83321334405622,0.913216898026668,0.5,0.5,0.5,0.5,0.5,0.5,0.5,0.5,0.5,0.5,0.5,0.5,0.5,0.5,0.5,4.9603027447707,0,0,1,3C,2C,0.5,0.5,0.5,0.5,0,0,-0.5,-0.413216898026668,0.5,0.764863565590875,1.05630274477069,7.15961111224284,4.03666601135992,0.5,0.0602121561333867,0.500189227011238,0.5,0.826433796053335,1.07879334027851,7.48958701494985,4.24715257563208,0.5,7.07318002032841
167,1,3,A,2,0,l,27,1,0.95,2A,0A,0,1,0,1,A20,1.80918198249859,2.89037175789616,0.913216898026668,0.5,0.5,0.5,0.5,0.5,0.5,0.5,0.5,0.5,0.5,0.0867831019733323,0.5,0.5,0.5,0.5,1.9263027447707,0,0,1,0A,2A,0.913216898026668,0.5,0.646197267596948,0.353802732403052,1,1,0.0867831019733323,0.0717204883971047,0.5,0.764863565590875,1.05630274477069,7.15961111224284,4.03666601135992,0.5,1.04065529301278,0.999908312180303,0.5,0.826433796053335,1.07879334027851,7.48958701494985,4.24715257563208,0.5,7.07318002032841
167,1,4,B,0,1,l,63,1,0.95,0B,1B,0,1,0,1,B01,2.11639065576278,2.94443897916644,0.984937386423772,0.5,0.5,0.5,0.5,0.5,0.5,0.5,0.5,0.5,0.5,0.0867831019733323,0.5,0.5,0.5,0.5,9.19530274477069,1,1,0,0B,1B,0.5,0.5,0.5,0.5,0,0,-0.5,-0.413216898026668,0.5,0.764863565590875,1.05630274477069,7.15961111224284,4.03666601135992,0.5,0.0188655746105157,0.498908709381498,0.5,0.826433796053335,1.07879334027851,7.48958701494985,4.24715257563208,0.5,7.07318002032841
167,1,5,B,1,0,a,63,1,0.95,1B,0B,1,0,1,0,B10,1.6681446132773,2.99573227355399,0.984937386423772,0.5,0.5,0.5,0.0867831019733323,0.5,0.5,0.5,0.5,0.5,0.5,0.0867831019733323,0.5,0.5,0.5,0.5,1.48630274477069,1,1,0,1B,0B,0.5,0.0867831019733323,0.852103610888787,0.147896389111213,1,1,0.5,0.413216898026668,0.5,0.764863565590875,1.05630274477069,7.15961111224284,4.03666601135992,0.5,3.25398944190271,0.9999999998133,0.5,0.826433796053335,1.07879334027851,7.48958701494985,4.24715257563208,0.5,7.07318002032841
167,1,6,C,2,3,a,63,1,0.95,2C,3C,1,0,1,0,C23,1.19102028239291,2.35137525716348,0.984937386423772,0.5,0.5,0.5,0.0867831019733323,0.913216898026668,0.5,0.5,0.5,0.5,0.5,0.0867831019733323,0.5,0.5,0.5,0.5,1.5353027447707,1,1,0,2C,3C,0.5,0.0867831019733323,0.852103610888787,0.147896389111213,1,1,0.5,0.413216898026668,0.5,0.764863565590875,1.05630274477069,7.15961111224284,4.03666601135992,0.5,2.51456906587481,0.999999999812659,0.5,0.826433796053335,1.07879334027851,7.48958701494985,4.24715257563208,0.5,7.07318002032841
167,1,7,D,1,3,l,27,1,0.95,1D,3D,0,1,0,1,D13,3.08068004680725,3.09104245335832,0.984937386423772,0.5,0.5,0.5,0.0867831019733323,0.913216898026668,0.5,0.5,0.5,0.5,0.913216898026668,0.0867831019733323,0.5,0.5,0.5,0.5,4.55730274477069,0,0,1,3D,1D,0.5,0.5,0.5,0.5,1,1,0.5,0.413216898026668,0.5,0.764863565590875,1.05630274477069,7.15961111224284,4.03666601135992,0.5,0.0670147749323395,0.499019001809271,0.5,0.826433796053335,1.07879334027851,7.48958701494985,4.24715257563208,0.5,7.07318002032841
167,1,8,C,2,1,a,9,1,0.95,2C,1C,1,0,1,0,C21,2.20193278437947,3.13549421592915,0.984937386423772,0.5,0.5,0.5,0.0867831019733323,0.913216898026668,0.5,0.5,0.5,0.5,0.913216898026668,0.0867831019733323,0.5,0.5,0.5,0.913216898026668,2.34330274477069,1,1,0,2C,1C,0.913216898026668,0.5,0.646197267596948,0.353802732403052,1,1,0.0867831019733323,0.0717204883971047,0.5,0.764863565590875,1.05630274477069,7.15961111224284,4.03666601135992,0.5,0.505010622688313,0.99990897113769,0.5,0.826433796053335,1.07879334027851,7.48958701494985,4.24715257563208,0.5,7.07318002032841
167,1,9,B,1,3,a,27,1,0.95,1B,3B,1,0,1,0,B13,0.103847813657465,3.17805383034795,0.984937386423772,0.5,0.5,0.5,0.0867831019733323,0.913216898026668,0.5,0.5,0.5,0.5,0.984937386423772,0.0867831019733323,0.5,0.5,0.5,0.913216898026668,2.20330274477069,1,1,0,1B,3B,0.913216898026668,0.5,0.646197267596948,0.353802732403052,1,1,0.0867831019733323,0.0717204883971047,0.5,0.764863565590875,1.05630274477069,7.15961111224284,4.03666601135992,0.5,0.675116669770449,0.999908566783867,0.5,0.826433796053335,1.07879334027851,7.48958701494985,4.24715257563208,0.5,7.07318002032841
167,1,10,D,2,3,l,63,1,0.95,2D,3D,0,1,0,1,D23,1.40978877976648,3.2188758248682,0.984937386423772,0.5,0.5,0.5,0.0867831019733323,0.984937386423772,0.5,0.5,0.5,0.5,0.984937386423772,0.0867831019733323,0.5,0.5,0.5,0.913216898026668,2.32330274477069,0,0,1,3D,2D,0.913216898026668,0.5,0.646197267596948,0.353802732403052,1,1,0.0867831019733323,0.0717204883971047,0.5,0.764863565590875,1.05630274477069,7.15961111224284,4.03666601135992,0.5,0.527421816278734,0.999908861489595,0.5,0.826433796053335,1.07879334027851,7.48958701494985,4.24715257563208,0.5,7.07318002032841
167,1,11,B,0,1,l,63,1,0.95,0B,1B,0,1,0,1,B01,0.148622495513462,2.56494935746154,0.984937386423772,0.5,0.5,0.5,0.0867831019733323,0.984937386423772,0.5,0.5,0.5,0.5,0.984937386423772,0.0867831019733323,0.5,0.5,0.5,0.984937386423772,1.45130274477069,0,0,1,1B,0B,0.984937386423772,0.0867831019733323,0.919024500405766,0.0809754995942343,1,1,0.0150626135762276,0.0124482529162863,0.5,0.764863565590875,1.05630274477069,7.15961111224284,4.03666601135992,0.5,3.50343815879622,0.999999999997347,0.5,0.826433796053335,1.07879334027851,7.48958701494985,4.24715257563208,0.5,7.07318002032841
167,1,12,C,2,0,a,27,1,0.95,2C,0C,1,0,1,0,C20,0.439813834691918,3.29583686600433,0.984937386423772,0.5,0.5,0.5,0.0867831019733323,0.997385639340059,0.5,0.5,0.5,0.5,0.984937386423772,0.0867831019733323,0.5,0.5,0.5,0.984937386423772,1.92830274477069,1,1,0,2C,0C,0.984937386423772,0.5,0.66328546605984,0.33671453394016,1,1,0.0150626135762276,0.0124482529162863,0.5,0.764863565590875,1.05630274477069,7.15961111224284,4.03666601135992,0.5,1.08074558535449,0.999969425026278,0.5,0.826433796053335,1.07879334027851,7.48958701494985,4.24715257563208,0.5,7.07318002032841
167,1,13,D,2,3,l,63,0,0.95,2D,3D,0,1,1,0,D23,1.62433749214843,2.63905732961526,0.984937386423772,0.5,0.5,0.5,0.0867831019733323,0.997385639340059,0.5,0.5,0.5,0.5,0.997385639340059,0.0867831019733323,0.5,0.5,0.5,0.984937386423772,3.9863027447707,0,0,1,3D,2D,0.984937386423772,0.5,0.66328546605984,0.33671453394016,1,0,-0.984937386423772,-0.813985543137049,0.5,0.764863565590875,1.05630274477069,7.15961111224284,4.03666601135992,0.5,0.00234344428121643,0.999969331047697,0.5,0.826433796053335,1.07879334027851,7.48958701494985,4.24715257563208,0.5,7.07318002032841
167,1,14,A,0,1,a,63,1,0.95,0A,1A,1,0,1,0,A01,2.55325475222109,3.36729582998647,0.984937386423772,0.5,0.5,0.5,0.0867831019733323,0.997385639340059,0.5,0.5,0.5,0.5,0.997385639340059,0.0867831019733323,0.5,0.5,0.5,0.170951843286723,1.73030274477069,1,1,0,0A,1A,0.984937386423772,0.5,0.66328546605984,0.33671453394016,1,1,0.0150626135762276,0.0124482529162863,0.5,0.764863565590875,1.05630274477069,7.15961111224284,4.03666601135992,0.5,1.29844006061854,0.999969185201662,0.5,0.826433796053335,1.07879334027851,7.48958701494985,4.24715257563208,0.5,7.07318002032841
167,1,15,C,3,2,l,63,1,0.95,3C,2C,0,1,0,1,C32,2.84175338120186,3.40119738166216,0.997385639340059,0.5,0.5,0.5,0.0867831019733323,0.997385639340059,0.5,0.5,0.5,0.5,0.997385639340059,0.0867831019733323,0.5,0.5,0.5,0.170951843286723,1.3173027447707,0,0,1,2C,3C,0.997385639340059,0.0867831019733323,0.919954248202913,0.0800457517970874,1,1,0.00261436065994136,0.00216059600444784,0.5,0.764863565590875,1.05630274477069,7.15961111224284,4.03666601135992,0.5,3.2199413821397,0.999999999997496,0.5,0.826433796053335,1.07879334027851,7.48958701494985,4.24715257563208,0.5,7.07318002032841
167,1,16,A,2,0,l,27,1,0.95,2A,0A,0,1,0,1,A20,0.780065517595228,2.7408400239252,0.997385639340059,0.5,0.5,0.5,0.0867831019733323,0.997385639340059,0.5,0.5,0.5,0.5,0.999546235344506,0.0867831019733323,0.5,0.5,0.5,0.170951843286723,1.6113027447707,0,0,1,0A,2A,0.997385639340059,0.5,0.666084683288158,0.333915316711842,1,1,0.00261436065994136,0.00216059600444784,0.5,0.764863565590875,1.05630274477069,7.15961111224284,4.03666601135992,0.5,1.19812332910489,0.999974291358461,0.5,0.826433796053335,1.07879334027851,7.48958701494985,4.24715257563208,0.5,7.07318002032841
167,1,17,D,3,2,a,63,1,0.95,3D,2D,1,0,1,0,D32,3.22751411671086,3.46573590279973,0.999546235344506,0.5,0.5,0.5,0.0867831019733323,0.997385639340059,0.5,0.5,0.5,0.5,0.999546235344506,0.0867831019733323,0.5,0.5,0.5,0.170951843286723,1.74630274477069,0,0,1,2D,3D,0.5,0.170951843286723,0.745209965518093,0.254790034481907,0,0,-0.5,-0.413216898026668,0.5,0.764863565590875,1.05630274477069,7.15961111224284,4.03666601135992,0.5,1.4327843251267,0.999999832448255,0.5,0.826433796053335,1.07879334027851,7.48958701494985,4.24715257563208,0.5,7.07318002032841
167,1,18,D,2,3,l,63,1,0.95,2D,3D,0,1,0,1,D23,0.231931220824939,2.39789527279837,0.999546235344506,0.5,0.5,0.5,0.0867831019733323,0.997385639340059,0.5,0.5,0.5,0.5,0.999546235344506,0.0867831019733323,0.5,0.5,0.0867831019733323,0.170951843286723,1.63430274477069,0,0,1,3D,2D,0.170951843286723,0.0867831019733323,0.66328546605984,0.33671453394016,1,1,0.829048156713277,0.685153415263574,0.5,0.764863565590875,1.05630274477069,7.15961111224284,4.03666601135992,0.5,1.20774291834352,0.999969090304299,0.5,0.826433796053335,1.07879334027851,7.48958701494985,4.24715257563208,0.5,7.07318002032841
167,1,19,B,1,3,a,27,1,0.95,1B,3B,1,0,1,0,B13,2.52319358104989,2.83321334405622,0.999546235344506,0.5,0.5,0.5,0.0867831019733323,0.997385639340059,0.5,0.5,0.5,0.5,0.999546235344506,0.0867831019733323,0.5,0.5,0.0867831019733323,0.856105258550297,1.6803027447707,1,1,0,1B,3B,0.997385639340059,0.5,0.666084683288158,0.333915316711842,1,1,0.00261436065994136,0.00216059600444784,0.5,0.764863565590875,1.05630274477069,7.15961111224284,4.03666601135992,0.5,1.30984297820422,0.999974260788379,0.5,0.826433796053335,1.07879334027851,7.48958701494985,4.24715257563208,0.5,7.07318002032841
167,1,20,D,3,0,a,9,1,0.95,3D,0D,1,0,1,0,D30,1.22511474984479,3.55534806148941,0.999546235344506,0.5,0.5,0.5,0.0867831019733323,0.999546235344506,0.5,0.5,0.5,0.5,0.999546235344506,0.0867831019733323,0.5,0.5,0.0867831019733323,0.856105258550297,1.58030274477069,1,1,0,3D,0D,0.856105258550297,0.5,0.631297056885901,0.368702943114099,1,1,0.143894741449703,0.118919477408391,0.5,0.764863565590875,1.05630274477069,7.15961111224284,4.03666601135992,0.5,0.656545310450876,0.999763753253169,0.5,0.826433796053335,1.07879334027851,7.48958701494985,4.24715257563208,0.5,7.07318002032841
167,1,21,B,0,1,l,63,1,0.95,0B,1B,0,1,0,1,B01,1.79340612216744,2.484906649788,0.999546235344506,0.5,0.5,0.5,0.0867831019733323,0.999546235344506,0.5,0.5,0.5,0.5,0.999546235344506,0.0867831019733323,0.5,0.5,0.0867831019733323,0.975024735958688,1.4833027447707,0,0,1,1B,0B,0.999546235344506,0.0867831019733323,0.920113450873378,0.0798865491266221,1,1,0.000453764655493516,0.00037500644675434,0.5,0.764863565590875,1.05630274477069,7.15961111224284,4.03666601135992,0.5,2.64379261986771,0.999999999997518,0.5,0.826433796053335,1.07879334027851,7.48958701494985,4.24715257563208,0.5,7.07318002032841
167,1,22,A,0,1,a,63,1,0.95,0A,1A,1,0,1,0,A01,3.25340150261916,2.91777073208428,0.999546235344506,0.5,0.5,0.5,0.0867831019733323,0.999921241791261,0.5,0.5,0.5,0.5,0.999546235344506,0.0867831019733323,0.5,0.5,0.0867831019733323,0.975024735958688,1.98030274477069,1,1,0,0A,1A,0.999546235344506,0.5,0.666565799563273,0.333434200436727,1,1,0.000453764655493516,0.00037500644675434,0.5,0.764863565590875,1.05630274477069,7.15961111224284,4.03666601135992,0.5,0.981227662828902,0.999974898227125,0.5,0.826433796053335,1.07879334027851,7.48958701494985,4.24715257563208,0.5,7.07318002032841
167,1,23,C,3,2,l,63,1,0.95,3C,2C,0,1,0,1,C32,3.26594709454889,2.94443897916644,0.999921241791261,0.5,0.5,0.5,0.0867831019733323,0.999921241791261,0.5,0.5,0.5,0.5,0.999546235344506,0.0867831019733323,0.5,0.5,0.0867831019733323,0.975024735958688,1.4263027447707,0,0,1,2C,3C,0.999546235344506,0.0867831019733323,0.920113450873378,0.0798865491266221,1,1,0.000453764655493516,0.00037500644675434,0.5,0.764863565590875,1.05630274477069,7.15961111224284,4.03666601135992,0.5,4.11140128240349,0.999999999997544,0.5,0.826433796053335,1.07879334027851,7.48958701494985,4.24715257563208,0.5,7.07318002032841
167,1,24,A,2,0,l,27,1,0.95,2A,0A,0,1,0,1,A20,2.92684696191059,2.56494935746154,0.999921241791261,0.5,0.5,0.5,0.0867831019733323,0.999921241791261,0.5,0.5,0.5,0.5,0.999921241791261,0.0867831019733323,0.5,0.5,0.0867831019733323,0.975024735958688,1.40530274477069,0,0,1,0A,2A,0.999921241791261,0.5,0.666649163923513,0.333350836076487,1,1,7.87582087391492e-05,6.5088445418656e-05,0.5,0.764863565590875,1.05630274477069,7.15961111224284,4.03666601135992,0.5,0.330125882493424,0.999975185986615,0.5,0.826433796053335,1.07879334027851,7.48958701494985,4.24715257563208,0.5,7.07318002032841
167,1,25,B,0,1,l,63,1,0.95,0B,1B,0,1,0,1,B01,1.08159694532358,2.30258509299405,0.999986330236679,0.5,0.5,0.5,0.0867831019733323,0.999921241791261,0.5,0.5,0.5,0.5,0.999921241791261,0.0867831019733323,0.5,0.5,0.0867831019733323,0.975024735958688,1.4893027447707,0,0,1,1B,0B,0.999921241791261,0.0867831019733323,0.920141018602451,0.079858981397549,1,1,7.87582087391492e-05,6.5088445418656e-05,0.5,0.764863565590875,1.05630274477069,7.15961111224284,4.03666601135992,0.5,2.48849587997612,0.999999999997544,0.5,0.826433796053335,1.07879334027851,7.48958701494985,4.24715257563208,0.5,7.07318002032841
167,1,26,D,3,2,a,63,1,0.95,3D,2D,1,0,1,0,D32,3.1196068908731,3.02042488614436,0.999986330236679,0.5,0.5,0.5,0.0867831019733323,0.999986330236679,0.5,0.5,0.5,0.5,0.999921241791261,0.0867831019733323,0.5,0.5,0.0867831019733323,0.975024735958688,1.3663027447707,1,1,0,3D,2D,0.975024735958688,0.0867831019733323,0.918268542693797,0.0817314573062027,1,1,0.0249752640413118,0.0206404022690957,0.5,0.764863565590875,1.05630274477069,7.15961111224284,4.03666601135992,0.5,4.5894820616319,0.999999999997239,0.5,0.826433796053335,1.07879334027851,7.48958701494985,4.24715257563208,0.5,7.07318002032841
167,1,27,B,2,1,l,9,1,0.95,2B,1B,0,1,0,1,B21,0.657190080558477,3.73766961828337,0.999986330236679,0.5,0.5,0.5,0.0867831019733323,0.999986330236679,0.5,0.5,0.5,0.5,0.999921241791261,0.0867831019733323,0.5,0.5,0.0867831019733323,0.995665138227784,1.51230274477069,0,0,1,1B,2B,0.999986330236679,0.5,0.666663628913801,0.333336371086199,1,1,1.36697633205118e-05,1.12971543921212e-05,0.5,0.764863565590875,1.05630274477069,7.15961111224284,4.03666601135992,0.5,0.850016243814172,0.999975183592836,0.5,0.826433796053335,1.07879334027851,7.48958701494985,4.24715257563208,0.5,7.07318002032841
167,1,28,D,3,1,a,27,1,0.95,3D,1D,1,0,1,0,D31,1.59917576096491,3.76120011569356,0.999986330236679,0.5,0.5,0.5,0.0867831019733323,0.999997627391072,0.5,0.5,0.5,0.5,0.999921241791261,0.0867831019733323,0.5,0.5,0.0867831019733323,0.995665138227784,1.7773027447707,1,1,0,3D,1D,0.995665138227784,0.5,0.665700572126425,0.334299427873575,1,1,0.00433486177221609,0.00358247626977903,0.5,0.764863565590875,1.05630274477069,7.15961111224284,4.03666601135992,0.5,1.301085765608,0.999973475688768,0.5,0.826433796053335,1.07879334027851,7.48958701494985,4.24715257563208,0.5,7.07318002032841
167,1,29,A,0,1,a,63,1,0.95,0A,1A,1,0,1,0,A01,0.462989083869338,2.68557734525015,0.999986330236679,0.5,0.5,0.5,0.0867831019733323,0.999997627391072,0.5,0.5,0.5,0.5,0.999921241791261,0.0867831019733323,0.5,0.5,0.0867831019733323,0.999247614497563,2.16630274477069,1,1,0,0A,1A,0.999986330236679,0.5,0.666663628913801,0.333336371086199,1,1,1.36697633205118e-05,1.12971543921212e-05,0.5,0.764863565590875,1.05630274477069,7.15961111224284,4.03666601135992,0.5,0.636410385078952,0.999975059327592,0.5,0.826433796053335,1.07879334027851,7.48958701494985,4.24715257563208,0.5,7.07318002032841
167,1,30,A,1,0,l,63,1,0.95,1A,0A,0,1,0,1,A10,0.116023730744716,3.11351530921037,0.999997627391072,0.5,0.5,0.5,0.0867831019733323,0.999997627391072,0.5,0.5,0.5,0.5,0.999921241791261,0.0867831019733323,0.5,0.5,0.0867831019733323,0.999247614497563,1.69930274477069,0,0,1,0A,1A,0.999997627391072,0.5,0.666666139419404,0.333333860580596,1,1,2.37260892843594e-06,1.96080420327735e-06,0.5,0.764863565590875,1.05630274477069,7.15961111224284,4.03666601135992,0.5,1.32937941563631,0.99997527969819,0.5,0.826433796053335,1.07879334027851,7.48958701494985,4.24715257563208,0.5,7.07318002032841
167,1,31,C,2,0,a,27,1,0.95,2C,0C,1,0,1,0,C20,3.17098086607449,3.13549421592915,0.999999588195275,0.5,0.5,0.5,0.0867831019733323,0.999997627391072,0.5,0.5,0.5,0.5,0.999921241791261,0.0867831019733323,0.5,0.5,0.0867831019733323,0.999247614497563,1.8733027447707,1,1,0,2C,0C,0.999921241791261,0.5,0.666649163923513,0.333350836076487,1,1,7.87582087391492e-05,6.5088445418656e-05,0.5,0.764863565590875,1.05630274477069,7.15961111224284,4.03666601135992,0.5,1.18129668842166,0.999974974134343,0.5,0.826433796053335,1.07879334027851,7.48958701494985,4.24715257563208,0.5,7.07318002032841
167,1,32,A,0,1,a,63,1,0.95,0A,1A,1,0,1,0,A01,0.197658024428281,2.46385324059017,0.999999588195275,0.5,0.5,0.5,0.0867831019733323,0.999997627391072,0.5,0.5,0.5,0.5,0.999986330236679,0.0867831019733323,0.5,0.5,0.0867831019733323,0.999247614497563,1.65130274477069,1,1,0,0A,1A,0.999999588195275,0.5,0.66666657515448,0.33333342484552,1,1,4.11804725208853e-07,3.40329342287053e-07,0.5,0.764863565590875,1.05630274477069,7.15961111224284,4.03666601135992,0.5,1.28470947205151,0.999975279144756,0.5,0.826433796053335,1.07879334027851,7.48958701494985,4.24715257563208,0.5,7.07318002032841
167,1,33,B,0,1,l,63,1,0.95,0B,1B,0,1,0,1,B01,1.54618468153852,2.26176309847379,0.999999928524617,0.5,0.5,0.5,0.0867831019733323,0.999997627391072,0.5,0.5,0.5,0.5,0.999986330236679,0.0867831019733323,0.5,0.5,0.0867831019733323,0.999247614497563,1.31830274477069,0,0,1,1B,0B,0.999997627391072,0.0867831019733323,0.920146631580331,0.079853368419669,1,1,2.37260892843594e-06,1.96080420327735e-06,0.5,0.764863565590875,1.05630274477069,7.15961111224284,4.03666601135992,0.5,3.27160901181166,0.999999999997538,0.5,0.826433796053335,1.07879334027851,7.48958701494985,4.24715257563208,0.5,7.07318002032841
167,1,34,D,2,3,l,63,1,0.95,2D,3D,0,1,0,1,D23,0.961828941755487,2.50552593699074,0.999999928524617,0.5,0.5,0.5,0.0867831019733323,0.999999588195275,0.5,0.5,0.5,0.5,0.999986330236679,0.0867831019733323,0.5,0.5,0.0867831019733323,0.999247614497563,1.45130274477069,0,0,1,3D,2D,0.999247614497563,0.0867831019733323,0.920091484838166,0.0799085151618343,1,1,0.000752385502437058,0.000621796806874554,0.5,0.764863565590875,1.05630274477069,7.15961111224284,4.03666601135992,0.5,3.49214293789285,0.99999999999751,0.5,0.826433796053335,1.07879334027851,7.48958701494985,4.24715257563208,0.5,7.07318002032841
167,1,35,B,1,3,a,27,1,0.95,1B,3B,1,0,1,0,B13,1.06302638087143,2.81341071676004,0.999999928524617,0.5,0.5,0.5,0.0867831019733323,0.999999588195275,0.5,0.5,0.5,0.5,0.999986330236679,0.0867831019733323,0.5,0.5,0.0867831019733323,0.999869411304438,2.04630274477069,1,1,0,1B,3B,0.999999588195275,0.5,0.66666657515448,0.33333342484552,1,1,4.11804725208853e-07,3.40329342287053e-07,0.5,0.764863565590875,1.05630274477069,7.15961111224284,4.03666601135992,0.5,0.852375799539413,0.999974951823151,0.5,0.826433796053335,1.07879334027851,7.48958701494985,4.24715257563208,0.5,7.07318002032841
167,1,36,C,2,3,a,63,1,0.95,2C,3C,1,0,1,0,C23,0.873081139262031,2.83321334405622,0.999999928524617,0.5,0.5,0.5,0.0867831019733323,0.999999928524617,0.5,0.5,0.5,0.5,0.999986330236679,0.0867831019733323,0.5,0.5,0.0867831019733323,0.999869411304438,1.4023027447707,1,1,0,2C,3C,0.999986330236679,0.0867831019733323,0.920145801490889,0.0798541985091112,1,1,1.36697633205118e-05,1.12971543921212e-05,0.5,0.764863565590875,1.05630274477069,7.15961111224284,4.03666601135992,0.5,4.5503769804517,0.999999999997549,0.5,0.826433796053335,1.07879334027851,7.48958701494985,4.24715257563208,0.5,7.07318002032841
167,1,37,C,0,2,l,27,1,0.95,0C,2C,0,1,0,1,C02,1.94483060457133,3.95124371858143,0.999999928524617,0.5,0.5,0.5,0.0867831019733323,0.999999928524617,0.5,0.5,0.5,0.5,0.999997627391072,0.0867831019733323,0.5,0.5,0.0867831019733323,0.999869411304438,3.51830274477069,0,0,1,2C,0C,0.999997627391072,0.5,0.666666139419404,0.333333860580596,1,1,2.37260892843594e-06,1.96080420327735e-06,0.5,0.764863565590875,1.05630274477069,7.15961111224284,4.03666601135992,0.5,0.00881151182572851,0.999975197134096,0.5,0.826433796053335,1.07879334027851,7.48958701494985,4.24715257563208,0.5,7.07318002032841
167,1,38,B,0,1,l,63,1,0.95,0B,1B,0,1,0,1,B01,2.5938194164128,2.17853244432407,0.999999928524617,0.5,0.5,0.5,0.0867831019733323,0.999999928524617,0.5,0.5,0.5,0.5,0.999999588195275,0.0867831019733323,0.5,0.5,0.0867831019733323,0.999869411304438,1.3543027447707,0,0,1,1B,0B,0.999999928524617,0.0867831019733323,0.920146800660322,0.0798531993396782,1,1,7.14753829456072e-08,5.9069672052104e-08,0.5,0.764863565590875,1.05630274477069,7.15961111224284,4.03666601135992,0.5,4.44748303687364,0.999999999997537,0.5,0.826433796053335,1.07879334027851,7.48958701494985,4.24715257563208,0.5,7.07318002032841
167,1,39,A,0,3,a,9,1,0.95,0A,3A,1,0,1,0,A03,3.01606949825257,3.98898404656427,0.999999928524617,0.5,0.5,0.5,0.0867831019733323,0.999999987594289,0.5,0.5,0.5,0.5,0.999999588195275,0.0867831019733323,0.5,0.5,0.0867831019733323,0.999869411304438,1.91730274477069,1,1,0,0A,3A,0.999999928524617,0.5,0.666666650783247,0.333333349216753,1,1,7.14753829456072e-08,5.9069672052104e-08,0.5,0.764863565590875,1.05630274477069,7.15961111224284,4.03666601135992,0.5,1.10270755130528,0.999975010283019,0.5,0.826433796053335,1.07879334027851,7.48958701494985,4.24715257563208,0.5,7.07318002032841
167,1,40,C,2,3,a,63,0,0.95,2C,3C,1,0,0,1,C23,1.08475323618637,2.62103882411258,0.999999987594289,0.5,0.5,0.5,0.0867831019733323,0.999999987594289,0.5,0.5,0.5,0.5,0.999999588195275,0.0867831019733323,0.5,0.5,0.0867831019733323,0.999869411304438,1.28030274477069,1,1,0,2C,3C,0.999999588195275,0.0867831019733323,0.920146775654047,0.0798532243459532,1,0,-0.999999588195275,-0.826433455723993,0.5,0.764863565590875,1.05630274477069,7.15961111224284,4.03666601135992,0.5,1.52331065531775,0.999999999997528,0.5,0.826433796053335,1.07879334027851,7.48958701494985,4.24715257563208,0.5,7.07318002032841
167,1,41,A,0,1,a,63,1,0.95,0A,1A,1,0,1,0,A01,0.963776073706797,2.41591377830105,0.999999987594289,0.5,0.5,0.5,0.0867831019733323,0.999999987594289,0.5,0.5,0.5,0.5,0.173566132471282,0.0867831019733323,0.5,0.5,0.0867831019733323,0.999869411304438,1.83530274477069,1,1,0,0A,1A,0.999999987594289,0.5,0.666666663909842,0.333333336090158,1,1,1.24057109029962e-08,1.02524987543034e-08,0.5,0.764863565590875,1.05630274477069,7.15961111224284,4.03666601135992,0.5,1.24132929982002,0.999975134416286,0.5,0.826433796053335,1.07879334027851,7.48958701494985,4.24715257563208,0.5,7.07318002032841
167,1,42,D,2,3,l,63,1,0.95,2D,3D,0,1,0,1,D23,1.07360226356826,2.43361335540045,0.999999997846788,0.5,0.5,0.5,0.0867831019733323,0.999999987594289,0.5,0.5,0.5,0.5,0.173566132471282,0.0867831019733323,0.5,0.5,0.0867831019733323,0.999869411304438,1.4043027447707,0,0,1,3D,2D,0.999869411304438,0.0867831019733323,0.92013720953761,0.0798627904623903,1,1,0.000130588695562484,0.000107922911395357,0.5,0.764863565590875,1.05630274477069,7.15961111224284,4.03666601135992,0.5,4.52251699214413,0.999999999997536,0.5,0.826433796053335,1.07879334027851,7.48958701494985,4.24715257563208,0.5,7.07318002032841
167,1,43,C,3,2,l,63,1,0.95,3C,2C,0,1,0,1,C32,3.32221255147194,2.96183072187831,0.999999997846788,0.5,0.5,0.5,0.0867831019733323,0.999999987594289,0.5,0.5,0.5,0.5,0.173566132471282,0.0867831019733323,0.5,0.5,0.0867831019733323,0.999977334215833,2.03030274477069,0,0,1,2C,3C,0.173566132471282,0.0867831019733323,0.66666657515448,0.33333342484552,1,1,0.826433867528718,0.682992878328798,0.5,0.764863565590875,1.05630274477069,7.15961111224284,4.03666601135992,0.5,0.882794438214046,0.999975180412222,0.5,0.826433796053335,1.07879334027851,7.48958701494985,4.24715257563208,0.5,7.07318002032841
167,1,44,D,3,1,a,27,1,0.95,3D,1D,1,0,1,0,D31,2.64327883065314,3.38439026334577,0.999999997846788,0.5,0.5,0.5,0.0867831019733323,0.999999987594289,0.5,0.5,0.5,0.5,0.85655901080008,0.0867831019733323,0.5,0.5,0.0867831019733323,0.999977334215833,1.64630274477069,1,1,0,3D,1D,0.999977334215833,0.5,0.66666162974963,0.33333837025037,1,1,2.26657841670974e-05,1.87317700497399e-05,0.5,0.764863565590875,1.05630274477069,7.15961111224284,4.03666601135992,0.5,1.27560954344577,0.999975105821691,0.5,0.826433796053335,1.07879334027851,7.48958701494985,4.24715257563208,0.5,7.07318002032841
