ID,filename,session,trial,visStimLeft,visStimRight,correctKey,leftCorrect,rightCorrect,secondStim,mod2Type,mod2Stim,frequency,rewardAccurate,stimPairLeft,stimPairRight,pCorrectLeft,pCorrectRight,key,reactionTime,choiceLeft,choiceRight,choiceAccurate,reward,chosenPair,otherPair,triplet,surprise,0A belief,1A belief,2A belief,3A belief,0B belief,1B belief,2B belief,3B belief,0C belief,1C belief,2C belief,3C belief,0D belief,1D belief,2D belief,3D belief,beliefPairNorm,beliefOtherPairNorm,beliefPair,beliefOtherPair,lik,corrLik,rewardPE,update2,fitCBCsimpleRW_CBCdriftDiffusionLR_startBelief,fitCBCsimpleRW_CBCdriftDiffusionLR_alpha1,fitCBCsimpleRW_CBCdriftDiffusionLR_nonDecisionTime,fitCBCsimpleRW_CBCdriftDiffusionLR_weight,fitCBCsimpleRW_CBCdriftDiffusionLR_startingBoundary,fitCBCsimpleRW_CBCdriftDiffusionLR_startingPoint,fit_CBCsimpleRW_CBCdriftDiffusionLR_NLL
CBC_1048,CBC_1048_MSI_TV_v3_Vset6_Tset3_2024-01-21_14h45.03.891.csv,1,1,1,0,b,1,0,1,tac,B,63,1,1B,0B,1,0,z,2.6480300000012,0,1,0,0,0B,1B,B10,2.77258872223978,0.5,0.5,0.5,0.5,0.5,0.5,0.5,0.5,0.5,0.5,0.5,0.5,0.5,0.5,0.5,0.5,0.5,0.5,0.5,0.5,0.148620185353554,0.500226829022139,-0.5,-0.0104182816934421,0.5,0.0208365633868841,1.07303030208848,6.86189027909816,2.77911080343533,0.5,77.6683328998221
CBC_1048,CBC_1048_MSI_TV_v3_Vset6_Tset3_2024-01-21_14h45.03.891.csv,1,2,3,2,b,1,0,2,tac,D,63,1,3D,2D,1,0,b,2.96057220000057,1,0,1,1,3D,2D,D32,2.83321334405622,0.5,0.5,0.5,0.5,0.489581718306558,0.5,0.5,0.5,0.5,0.5,0.5,0.5,0.5,0.5,0.5,0.5,0.5,0.5,0.5,0.5,0.121779014654173,0.500099457863111,0.5,0.0104182816934421,0.5,0.0208365633868841,1.07303030208848,6.86189027909816,2.77911080343533,0.5,77.6683328998221
CBC_1048,CBC_1048_MSI_TV_v3_Vset6_Tset3_2024-01-21_14h45.03.891.csv,1,3,3,1,z,0,1,1,tac,B,27,1,3B,1B,0,1,z,2.71306970000023,0,1,1,1,1B,3B,B31,2.89037175789616,0.5,0.5,0.5,0.5,0.489581718306558,0.5,0.5,0.5,0.5,0.5,0.5,0.5,0.5,0.5,0.5,0.510418281693442,0.5,0.5,0.5,0.5,0.142448774533024,0.499663857510016,0.5,0.0104182816934421,0.5,0.0208365633868841,1.07303030208848,6.86189027909816,2.77911080343533,0.5,77.6683328998221
CBC_1048,CBC_1048_MSI_TV_v3_Vset6_Tset3_2024-01-21_14h45.03.891.csv,1,4,2,3,b,1,0,3,tac,C,63,1,2C,3C,1,0,b,2.60535080000045,1,0,1,1,2C,3C,C23,2.94443897916644,0.5,0.5,0.5,0.5,0.489581718306558,0.510418281693442,0.5,0.5,0.5,0.5,0.5,0.5,0.5,0.5,0.5,0.510418281693442,0.5,0.5,0.5,0.5,0.152875654273268,0.500824864031923,0.5,0.0104182816934421,0.5,0.0208365633868841,1.07303030208848,6.86189027909816,2.77911080343533,0.5,77.6683328998221
CBC_1048,CBC_1048_MSI_TV_v3_Vset6_Tset3_2024-01-21_14h45.03.891.csv,1,5,0,2,z,0,1,3,tac,C,27,1,0C,2C,0,1,z,2.85749730000043,0,1,1,1,2C,0C,C02,2.99573227355399,0.5,0.5,0.5,0.5,0.489581718306558,0.510418281693442,0.5,0.5,0.5,0.5,0.510418281693442,0.5,0.5,0.5,0.5,0.510418281693442,0.505155430123444,0.494844569876556,0.510418281693442,0.5,0.142857516842886,0.54914466643532,0.489581718306558,0.0102012005065542,0.5,0.0208365633868841,1.07303030208848,6.86189027909816,2.77911080343533,0.5,77.6683328998221
CBC_1048,CBC_1048_MSI_TV_v3_Vset6_Tset3_2024-01-21_14h45.03.891.csv,1,6,0,3,b,1,0,0,tac,A,9,1,0A,3A,1,0,b,2.62309970000024,1,0,1,1,0A,3A,A03,3.04452243772342,0.5,0.5,0.5,0.5,0.489581718306558,0.510418281693442,0.5,0.5,0.5,0.5,0.520619482199996,0.5,0.5,0.5,0.5,0.510418281693442,0.5,0.5,0.5,0.5,0.150899125353085,0.499936229118032,0.5,0.0104182816934421,0.5,0.0208365633868841,1.07303030208848,6.86189027909816,2.77911080343533,0.5,77.6683328998221
CBC_1048,CBC_1048_MSI_TV_v3_Vset6_Tset3_2024-01-21_14h45.03.891.csv,1,7,2,3,b,1,0,3,tac,C,63,1,2C,3C,1,0,b,2.53818980000051,1,0,1,1,2C,3C,C23,2.39789527279837,0.510418281693442,0.5,0.5,0.5,0.489581718306558,0.510418281693442,0.5,0.5,0.5,0.5,0.520619482199996,0.5,0.5,0.5,0.5,0.510418281693442,0.510101454341999,0.489898545658001,0.520619482199996,0.5,0.190339349576106,0.595060456261669,0.479380517800004,0.0099886425455771,0.5,0.0208365633868841,1.07303030208848,6.86189027909816,2.77911080343533,0.5,77.6683328998221
CBC_1048,CBC_1048_MSI_TV_v3_Vset6_Tset3_2024-01-21_14h45.03.891.csv,1,8,1,0,z,0,1,0,tac,A,63,1,1A,0A,0,1,z,2.94660510000085,0,1,1,1,0A,1A,A10,3.13549421592915,0.510418281693442,0.5,0.5,0.5,0.489581718306558,0.510418281693442,0.5,0.5,0.5,0.5,0.530608124745573,0.5,0.5,0.5,0.5,0.510418281693442,0.505155430123444,0.494844569876556,0.510418281693442,0.5,0.134667065326756,0.548048651206249,0.489581718306558,0.0102012005065542,0.5,0.0208365633868841,1.07303030208848,6.86189027909816,2.77911080343533,0.5,77.6683328998221
CBC_1048,CBC_1048_MSI_TV_v3_Vset6_Tset3_2024-01-21_14h45.03.891.csv,1,9,2,3,z,0,1,2,tac,D,63,1,2D,3D,0,1,z,2.5489946000007,0,1,1,1,3D,2D,D23,3.17805383034795,0.520619482199996,0.5,0.5,0.5,0.489581718306558,0.510418281693442,0.5,0.5,0.5,0.5,0.530608124745573,0.5,0.5,0.5,0.5,0.510418281693442,0.505155430123444,0.494844569876556,0.510418281693442,0.5,0.173815033922006,0.548884375788525,0.489581718306558,0.0102012005065542,0.5,0.0208365633868841,1.07303030208848,6.86189027909816,2.77911080343533,0.5,77.6683328998221
CBC_1048,CBC_1048_MSI_TV_v3_Vset6_Tset3_2024-01-21_14h45.03.891.csv,1,10,3,2,z,0,1,3,tac,C,63,1,3C,2C,0,1,z,2.36693920000107,0,1,1,1,2C,3C,C32,3.2188758248682,0.520619482199996,0.5,0.5,0.5,0.489581718306558,0.510418281693442,0.5,0.5,0.5,0.5,0.530608124745573,0.5,0.5,0.5,0.5,0.520619482199996,0.514849545627796,0.485150454372204,0.530608124745573,0.5,0.229079363432198,0.63809024581471,0.469391875254427,0.00978051356202726,0.5,0.0208365633868841,1.07303030208848,6.86189027909816,2.77911080343533,0.5,77.6683328998221
CBC_1048,CBC_1048_MSI_TV_v3_Vset6_Tset3_2024-01-21_14h45.03.891.csv,1,11,3,1,b,1,0,2,tac,D,27,1,3D,1D,1,0,b,2.65877560000081,1,0,1,1,3D,1D,D31,3.25809653802148,0.520619482199996,0.5,0.5,0.5,0.489581718306558,0.510418281693442,0.5,0.5,0.5,0.5,0.540388638307601,0.5,0.5,0.5,0.5,0.520619482199996,0.510101454341999,0.489898545658001,0.520619482199996,0.5,0.176281306467404,0.595463051010245,0.479380517800004,0.0099886425455771,0.5,0.0208365633868841,1.07303030208848,6.86189027909816,2.77911080343533,0.5,77.6683328998221
CBC_1048,CBC_1048_MSI_TV_v3_Vset6_Tset3_2024-01-21_14h45.03.891.csv,1,12,0,1,b,1,0,0,tac,A,63,0,0A,1A,0,1,z,2.54955530000097,0,1,0,1,1A,0A,A01,3.29583686600433,0.520619482199996,0.5,0.5,0.5,0.489581718306558,0.510418281693442,0.5,0.5,0.5,0.5,0.540388638307601,0.5,0.5,0.5,0.5,0.530608124745573,0.489898545658001,0.510101454341999,0.5,0.520619482199996,0.12848170371737,0.404594873173452,0.5,0.0104182816934421,0.5,0.0208365633868841,1.07303030208848,6.86189027909816,2.77911080343533,0.5,77.6683328998221
CBC_1048,CBC_1048_MSI_TV_v3_Vset6_Tset3_2024-01-21_14h45.03.891.csv,1,13,3,2,z,0,1,3,tac,C,63,1,3C,2C,0,1,z,2.38821650000136,0,1,1,1,2C,3C,C32,2.63905732961526,0.520619482199996,0.510418281693442,0.5,0.5,0.489581718306558,0.510418281693442,0.5,0.5,0.5,0.5,0.540388638307601,0.5,0.5,0.5,0.5,0.530608124745573,0.519410361099916,0.480589638900084,0.540388638307601,0.5,0.241752073240279,0.677142901056584,0.459611361692399,0.0095767212712358,0.5,0.0208365633868841,1.07303030208848,6.86189027909816,2.77911080343533,0.5,77.6683328998221
CBC_1048,CBC_1048_MSI_TV_v3_Vset6_Tset3_2024-01-21_14h45.03.891.csv,1,14,2,0,z,0,1,0,tac,A,27,1,2A,0A,0,1,b,3.21361190000061,1,0,0,0,2A,0A,A20,3.36729582998647,0.520619482199996,0.510418281693442,0.5,0.5,0.489581718306558,0.510418281693442,0.5,0.5,0.5,0.5,0.549965359578836,0.5,0.5,0.5,0.5,0.530608124745573,0.489898545658001,0.510101454341999,0.5,0.520619482199996,0.0838074557775409,0.405354382928544,-0.5,-0.0104182816934421,0.5,0.0208365633868841,1.07303030208848,6.86189027909816,2.77911080343533,0.5,77.6683328998221
CBC_1048,CBC_1048_MSI_TV_v3_Vset6_Tset3_2024-01-21_14h45.03.891.csv,1,15,1,0,b,1,0,1,tac,B,63,1,1B,0B,1,0,b,2.71027230000072,1,0,1,1,1B,0B,B10,2.70805020110221,0.520619482199996,0.510418281693442,0.489581718306558,0.5,0.489581718306558,0.510418281693442,0.5,0.5,0.5,0.5,0.549965359578836,0.5,0.5,0.5,0.5,0.530608124745573,0.510418281693442,0.489581718306558,0.510418281693442,0.489581718306558,0.171443932747192,0.598561828256435,0.489581718306558,0.0102012005065542,0.5,0.0208365633868841,1.07303030208848,6.86189027909816,2.77911080343533,0.5,77.6683328998221
CBC_1048,CBC_1048_MSI_TV_v3_Vset6_Tset3_2024-01-21_14h45.03.891.csv,1,16,2,3,z,0,1,2,tac,D,63,1,2D,3D,0,1,z,2.31874380000136,0,1,1,1,3D,2D,D23,2.7408400239252,0.520619482199996,0.510418281693442,0.489581718306558,0.5,0.489581718306558,0.520619482199996,0.5,0.5,0.5,0.5,0.549965359578836,0.5,0.5,0.5,0.5,0.530608124745573,0.514849545627796,0.485150454372204,0.530608124745573,0.5,0.23613205875333,0.637895296036043,0.469391875254427,0.00978051356202726,0.5,0.0208365633868841,1.07303030208848,6.86189027909816,2.77911080343533,0.5,77.6683328998221
CBC_1048,CBC_1048_MSI_TV_v3_Vset6_Tset3_2024-01-21_14h45.03.891.csv,1,17,2,1,z,0,1,1,tac,B,9,1,2B,1B,0,1,b,2.69697840000117,1,0,0,0,2B,1B,B21,3.46573590279973,0.520619482199996,0.510418281693442,0.489581718306558,0.5,0.489581718306558,0.520619482199996,0.5,0.5,0.5,0.5,0.549965359578836,0.5,0.5,0.5,0.5,0.540388638307601,0.489898545658001,0.510101454341999,0.5,0.520619482199996,0.117136625359957,0.405563487595625,-0.5,-0.0104182816934421,0.5,0.0208365633868841,1.07303030208848,6.86189027909816,2.77911080343533,0.5,77.6683328998221
CBC_1048,CBC_1048_MSI_TV_v3_Vset6_Tset3_2024-01-21_14h45.03.891.csv,1,18,3,1,b,1,0,2,tac,D,27,1,3D,1D,1,0,b,2.25447280000026,1,0,1,1,3D,1D,D31,2.80336038090653,0.520619482199996,0.510418281693442,0.489581718306558,0.5,0.489581718306558,0.520619482199996,0.489581718306558,0.5,0.5,0.5,0.549965359578836,0.5,0.5,0.5,0.5,0.540388638307601,0.519410361099916,0.480589638900084,0.540388638307601,0.5,0.263830030227364,0.677566766827476,0.459611361692399,0.0095767212712358,0.5,0.0208365633868841,1.07303030208848,6.86189027909816,2.77911080343533,0.5,77.6683328998221
CBC_1048,CBC_1048_MSI_TV_v3_Vset6_Tset3_2024-01-21_14h45.03.891.csv,1,19,1,0,z,0,1,0,tac,A,63,1,1A,0A,0,1,b,2.38219110000136,1,0,0,0,1A,0A,A10,2.83321334405622,0.520619482199996,0.510418281693442,0.489581718306558,0.5,0.489581718306558,0.520619482199996,0.489581718306558,0.5,0.5,0.5,0.549965359578836,0.5,0.5,0.5,0.5,0.549965359578836,0.495052945263599,0.504947054736401,0.510418281693442,0.520619482199996,0.159777408407241,0.454423115236183,-0.510418281693442,-0.0106353628803299,0.5,0.0208365633868841,1.07303030208848,6.86189027909816,2.77911080343533,0.5,77.6683328998221
CBC_1048,CBC_1048_MSI_TV_v3_Vset6_Tset3_2024-01-21_14h45.03.891.csv,1,20,0,1,b,1,0,0,tac,A,63,1,0A,1A,1,0,b,2.50759630000084,1,0,1,1,0A,1A,A01,2.86220088092947,0.520619482199996,0.499782918813112,0.489581718306558,0.5,0.489581718306558,0.520619482199996,0.489581718306558,0.5,0.5,0.5,0.549965359578836,0.5,0.5,0.5,0.5,0.549965359578836,0.510209973715368,0.489790026284632,0.520619482199996,0.499782918813112,0.194513423052867,0.596262511588355,0.479380517800004,0.0099886425455771,0.5,0.0208365633868841,1.07303030208848,6.86189027909816,2.77911080343533,0.5,77.6683328998221
CBC_1048,CBC_1048_MSI_TV_v3_Vset6_Tset3_2024-01-21_14h45.03.891.csv,1,21,0,2,z,0,1,3,tac,C,27,1,0C,2C,0,1,z,2.50718460000098,0,1,1,1,2C,0C,C02,2.89037175789616,0.530608124745573,0.499782918813112,0.489581718306558,0.5,0.489581718306558,0.520619482199996,0.489581718306558,0.5,0.5,0.5,0.549965359578836,0.5,0.5,0.5,0.5,0.549965359578836,0.523793813349651,0.476206186650349,0.549965359578836,0.5,0.236671273833697,0.712156429000251,0.450034640421164,0.00937717531142917,0.5,0.0208365633868841,1.07303030208848,6.86189027909816,2.77911080343533,0.5,77.6683328998221
CBC_1048,CBC_1048_MSI_TV_v3_Vset6_Tset3_2024-01-21_14h45.03.891.csv,1,22,1,0,b,1,0,1,tac,B,63,1,1B,0B,1,0,z,3.12857540000005,0,1,0,0,0B,1B,B10,2.51230562397611,0.530608124745573,0.499782918813112,0.489581718306558,0.5,0.489581718306558,0.520619482199996,0.489581718306558,0.5,0.5,0.5,0.559342534890266,0.5,0.5,0.5,0.5,0.549965359578836,0.484637830623308,0.515362169376692,0.489581718306558,0.520619482199996,0.0781025856913957,0.358233963372338,-0.489581718306558,-0.0102012005065542,0.5,0.0208365633868841,1.07303030208848,6.86189027909816,2.77911080343533,0.5,77.6683328998221
CBC_1048,CBC_1048_MSI_TV_v3_Vset6_Tset3_2024-01-21_14h45.03.891.csv,1,23,0,2,z,0,1,3,tac,C,27,1,0C,2C,0,1,z,1.37355260000095,0,1,1,1,2C,0C,C02,2.53897387105828,0.530608124745573,0.499782918813112,0.489581718306558,0.5,0.479380517800004,0.520619482199996,0.489581718306558,0.5,0.5,0.5,0.559342534890266,0.5,0.5,0.5,0.5,0.549965359578836,0.528009134409208,0.471990865590792,0.559342534890266,0.5,0.226488788511977,0.745149704261565,0.440657465109734,0.00918178720366266,0.5,0.0208365633868841,1.07303030208848,6.86189027909816,2.77911080343533,0.5,77.6683328998221
CBC_1048,CBC_1048_MSI_TV_v3_Vset6_Tset3_2024-01-21_14h45.03.891.csv,1,24,2,3,z,0,1,2,tac,D,63,1,2D,3D,0,1,z,4.21459720000075,0,1,1,1,3D,2D,D23,2.56494935746154,0.530608124745573,0.499782918813112,0.489581718306558,0.5,0.479380517800004,0.520619482199996,0.489581718306558,0.5,0.5,0.5,0.568524322093928,0.5,0.5,0.5,0.5,0.549965359578836,0.523793813349651,0.476206186650349,0.549965359578836,0.5,0.0727632989476986,0.712481454531705,0.450034640421164,0.00937717531142917,0.5,0.0208365633868841,1.07303030208848,6.86189027909816,2.77911080343533,0.5,77.6683328998221
CBC_1048,CBC_1048_MSI_TV_v3_Vset6_Tset3_2024-01-21_14h45.03.891.csv,1,25,0,1,b,1,0,0,tac,A,63,1,0A,1A,1,0,z,3.17771790000097,0,1,0,0,1A,0A,A01,2.59026716544583,0.530608124745573,0.499782918813112,0.489581718306558,0.5,0.479380517800004,0.520619482199996,0.489581718306558,0.5,0.5,0.5,0.568524322093928,0.5,0.5,0.5,0.5,0.559342534890266,0.485041986668479,0.514958013331521,0.499782918813112,0.530608124745573,0.0762124571427034,0.361024554789798,-0.499782918813112,-0.0104137584675314,0.5,0.0208365633868841,1.07303030208848,6.86189027909816,2.77911080343533,0.5,77.6683328998221
CBC_1048,CBC_1048_MSI_TV_v3_Vset6_Tset3_2024-01-21_14h45.03.891.csv,1,26,2,3,b,1,0,3,tac,C,63,1,2C,3C,1,0,b,2.49311010000019,1,0,1,1,2C,3C,C23,2.6149597780362,0.530608124745573,0.489369160345581,0.489581718306558,0.5,0.479380517800004,0.520619482199996,0.489581718306558,0.5,0.5,0.5,0.568524322093928,0.5,0.5,0.5,0.5,0.559342534890266,0.53206493323411,0.46793506676589,0.568524322093928,0.5,0.26305502197435,0.772337283720727,0.431475677906072,0.00899047031258866,0.5,0.0208365633868841,1.07303030208848,6.86189027909816,2.77911080343533,0.5,77.6683328998221
CBC_1048,CBC_1048_MSI_TV_v3_Vset6_Tset3_2024-01-21_14h45.03.891.csv,1,27,0,2,b,1,0,0,tac,A,27,1,0A,2A,1,0,b,2.45459790000041,1,0,1,1,0A,2A,A02,3.73766961828337,0.530608124745573,0.489369160345581,0.489581718306558,0.5,0.479380517800004,0.520619482199996,0.489581718306558,0.5,0.5,0.5,0.577514792406517,0.5,0.5,0.5,0.5,0.559342534890266,0.520107241175954,0.479892758824046,0.530608124745573,0.489581718306558,0.233417069100197,0.682292417898129,0.469391875254427,0.00978051356202726,0.5,0.0208365633868841,1.07303030208848,6.86189027909816,2.77911080343533,0.5,77.6683328998221
CBC_1048,CBC_1048_MSI_TV_v3_Vset6_Tset3_2024-01-21_14h45.03.891.csv,1,28,2,3,z,0,1,2,tac,D,63,1,2D,3D,0,1,z,2.38864270000067,0,1,1,1,3D,2D,D23,2.37490575457367,0.540388638307601,0.489369160345581,0.489581718306558,0.5,0.479380517800004,0.520619482199996,0.489581718306558,0.5,0.5,0.5,0.577514792406517,0.5,0.5,0.5,0.5,0.559342534890266,0.528009134409208,0.471990865590792,0.559342534890266,0.5,0.270972697189629,0.744901196331577,0.440657465109734,0.00918178720366266,0.5,0.0208365633868841,1.07303030208848,6.86189027909816,2.77911080343533,0.5,77.6683328998221
CBC_1048,CBC_1048_MSI_TV_v3_Vset6_Tset3_2024-01-21_14h45.03.891.csv,1,29,2,3,z,0,1,2,tac,D,63,1,2D,3D,0,1,z,2.25915190000069,0,1,1,1,3D,2D,D23,2.17475172148416,0.540388638307601,0.489369160345581,0.489581718306558,0.5,0.479380517800004,0.520619482199996,0.489581718306558,0.5,0.5,0.5,0.577514792406517,0.5,0.5,0.5,0.5,0.568524322093928,0.53206493323411,0.46793506676589,0.568524322093928,0.5,0.311014006153252,0.77249647252942,0.431475677906072,0.00899047031258866,0.5,0.0208365633868841,1.07303030208848,6.86189027909816,2.77911080343533,0.5,77.6683328998221
CBC_1048,CBC_1048_MSI_TV_v3_Vset6_Tset3_2024-01-21_14h45.03.891.csv,1,30,1,3,b,1,0,1,tac,B,27,1,1B,3B,1,0,b,2.65349170000081,1,0,1,1,1B,3B,B13,3.80666248977032,0.540388638307601,0.489369160345581,0.489581718306558,0.5,0.479380517800004,0.520619482199996,0.489581718306558,0.5,0.5,0.5,0.577514792406517,0.5,0.5,0.5,0.5,0.577514792406517,0.510101454341999,0.489898545658001,0.520619482199996,0.5,0.17677145910832,0.595105005807294,0.479380517800004,0.0099886425455771,0.5,0.0208365633868841,1.07303030208848,6.86189027909816,2.77911080343533,0.5,77.6683328998221
CBC_1048,CBC_1048_MSI_TV_v3_Vset6_Tset3_2024-01-21_14h45.03.891.csv,1,31,3,0,b,1,0,2,tac,D,9,1,3D,0D,1,0,b,2.76693850000083,1,0,1,1,3D,0D,D30,3.8286413964891,0.540388638307601,0.489369160345581,0.489581718306558,0.5,0.479380517800004,0.530608124745573,0.489581718306558,0.5,0.5,0.5,0.577514792406517,0.5,0.5,0.5,0.5,0.577514792406517,0.535969247453854,0.464030752546146,0.577514792406517,0.5,0.222388260818065,0.797254002156952,0.422485207593483,0.0088031398080425,0.5,0.0208365633868841,1.07303030208848,6.86189027909816,2.77911080343533,0.5,77.6683328998221
CBC_1048,CBC_1048_MSI_TV_v3_Vset6_Tset3_2024-01-21_14h45.03.891.csv,1,32,0,1,z,0,1,1,tac,B,63,1,0B,1B,0,1,b,3.17581470000096,1,0,0,0,0B,1B,B01,3.85014760171006,0.540388638307601,0.489369160345581,0.489581718306558,0.5,0.479380517800004,0.530608124745573,0.489581718306558,0.5,0.5,0.5,0.577514792406517,0.5,0.5,0.5,0.5,0.586317932214559,0.474639513363014,0.525360486636986,0.479380517800004,0.530608124745573,0.0575333822093488,0.275099160557573,-0.479380517800004,-0.00998864254557711,0.5,0.0208365633868841,1.07303030208848,6.86189027909816,2.77911080343533,0.5,77.6683328998221
CBC_1048,CBC_1048_MSI_TV_v3_Vset6_Tset3_2024-01-21_14h45.03.891.csv,1,33,0,1,b,1,0,0,tac,A,63,1,0A,1A,1,0,z,2.81832640000084,0,1,0,0,1A,0A,A01,2.484906649788,0.540388638307601,0.489369160345581,0.489581718306558,0.5,0.469391875254427,0.530608124745573,0.489581718306558,0.5,0.5,0.5,0.577514792406517,0.5,0.5,0.5,0.5,0.586317932214559,0.4752274379331,0.5247725620669,0.489369160345581,0.540388638307601,0.075027540067663,0.279487013265747,-0.489369160345581,-0.0101967715291269,0.5,0.0208365633868841,1.07303030208848,6.86189027909816,2.77911080343533,0.5,77.6683328998221
CBC_1048,CBC_1048_MSI_TV_v3_Vset6_Tset3_2024-01-21_14h45.03.891.csv,1,34,0,1,z,0,1,1,tac,B,63,1,0B,1B,0,1,b,2.89334880000115,1,0,0,0,0B,1B,B01,3.19867311755068,0.540388638307601,0.479172388816454,0.489581718306558,0.5,0.469391875254427,0.530608124745573,0.489581718306558,0.5,0.5,0.5,0.577514792406517,0.5,0.5,0.5,0.5,0.586317932214559,0.469391875254427,0.530608124745573,0.469391875254427,0.530608124745573,0.0602780413397701,0.236948813679827,-0.469391875254427,-0.00978051356202726,0.5,0.0208365633868841,1.07303030208848,6.86189027909816,2.77911080343533,0.5,77.6683328998221
CBC_1048,CBC_1048_MSI_TV_v3_Vset6_Tset3_2024-01-21_14h45.03.891.csv,1,35,2,3,b,1,0,3,tac,C,63,1,2C,3C,1,0,b,2.33293850000064,1,0,1,1,2C,3C,C23,2.52572864430826,0.540388638307601,0.479172388816454,0.489581718306558,0.5,0.459611361692399,0.530608124745573,0.489581718306558,0.5,0.5,0.5,0.577514792406517,0.5,0.5,0.5,0.5,0.586317932214559,0.535969247453854,0.464030752546146,0.577514792406517,0.5,0.308538257113984,0.798263760045638,0.422485207593483,0.0088031398080425,0.5,0.0208365633868841,1.07303030208848,6.86189027909816,2.77911080343533,0.5,77.6683328998221
CBC_1048,CBC_1048_MSI_TV_v3_Vset6_Tset3_2024-01-21_14h45.03.891.csv,1,36,2,0,z,0,1,0,tac,A,27,1,2A,0A,0,1,z,2.43583950000084,0,1,1,1,0A,2A,A20,3.23867845216438,0.540388638307601,0.479172388816454,0.489581718306558,0.5,0.459611361692399,0.530608124745573,0.489581718306558,0.5,0.5,0.5,0.586317932214559,0.5,0.5,0.5,0.5,0.586317932214559,0.524664263235721,0.475335736764279,0.540388638307601,0.489581718306558,0.250969480002588,0.71828224244695,0.459611361692399,0.0095767212712358,0.5,0.0208365633868841,1.07303030208848,6.86189027909816,2.77911080343533,0.5,77.6683328998221
CBC_1048,CBC_1048_MSI_TV_v3_Vset6_Tset3_2024-01-21_14h45.03.891.csv,1,37,0,1,z,0,1,1,tac,B,63,1,0B,1B,0,1,b,3.3371216000005,1,0,0,0,0B,1B,B01,2.85263142991332,0.549965359578836,0.479172388816454,0.489581718306558,0.5,0.459611361692399,0.530608124745573,0.489581718306558,0.5,0.5,0.5,0.586317932214559,0.5,0.5,0.5,0.5,0.586317932214559,0.464150996811543,0.535849003188457,0.459611361692399,0.530608124745573,0.0367479803673919,0.203086700131734,-0.459611361692399,-0.0095767212712358,0.5,0.0208365633868841,1.07303030208848,6.86189027909816,2.77911080343533,0.5,77.6683328998221
CBC_1048,CBC_1048_MSI_TV_v3_Vset6_Tset3_2024-01-21_14h45.03.891.csv,1,38,1,3,b,1,0,1,tac,B,27,1,1B,3B,1,0,z,3.69448210000064,0,1,0,0,3B,1B,B13,3.27714473299218,0.549965359578836,0.479172388816454,0.489581718306558,0.5,0.450034640421164,0.530608124745573,0.489581718306558,0.5,0.5,0.5,0.586317932214559,0.5,0.5,0.5,0.5,0.586317932214559,0.485150454372204,0.514849545627796,0.5,0.530608124745573,0.054364622685312,0.362094988620351,-0.5,-0.0104182816934421,0.5,0.0208365633868841,1.07303030208848,6.86189027909816,2.77911080343533,0.5,77.6683328998221
CBC_1048,CBC_1048_MSI_TV_v3_Vset6_Tset3_2024-01-21_14h45.03.891.csv,1,39,2,3,b,1,0,3,tac,C,63,1,2C,3C,NaN,NaN,None,NaN,NaN,NaN,NaN,NaN,,,C23,2.37954613413017,0.549965359578836,0.479172388816454,0.489581718306558,0.5,0.450034640421164,0.530608124745573,0.489581718306558,0.489581718306558,0.5,0.5,0.586317932214559,0.5,0.5,0.5,0.5,0.586317932214559,0,0,0,0,NaN,0,0,0,0.5,0.0208365633868841,1.07303030208848,6.86189027909816,2.77911080343533,0.5,77.6683328998221
CBC_1048,CBC_1048_MSI_TV_v3_Vset6_Tset3_2024-01-21_14h45.03.891.csv,1,40,1,3,z,0,1,2,tac,D,27,1,1D,3D,0,1,z,2.29882200000065,0,1,1,1,3D,1D,D13,4.00733318523247,0.549965359578836,0.479172388816454,0.489581718306558,0.5,0.450034640421164,0.530608124745573,0.489581718306558,0.489581718306558,0.5,0.5,0.586317932214559,0.5,0.5,0.5,0.5,0.586317932214559,0.539729590046715,0.460270409953285,0.586317932214559,0.5,0.328882104174666,0.820390386132784,0.413682067785441,0.00861971262742862,0.5,0.0208365633868841,1.07303030208848,6.86189027909816,2.77911080343533,0.5,77.6683328998221
CBC_1048,CBC_1048_MSI_TV_v3_Vset6_Tset3_2024-01-21_14h45.03.891.csv,1,41,2,1,b,1,0,3,tac,C,9,1,2C,1C,1,0,b,2.40252000000055,1,0,1,1,2C,1C,C21,4.02535169073515,0.549965359578836,0.479172388816454,0.489581718306558,0.5,0.450034640421164,0.530608124745573,0.489581718306558,0.489581718306558,0.5,0.5,0.586317932214559,0.5,0.5,0.5,0.5,0.594937644841988,0.539729590046715,0.460270409953285,0.586317932214559,0.5,0.303776549300817,0.820379739873851,0.413682067785441,0.00861971262742862,0.5,0.0208365633868841,1.07303030208848,6.86189027909816,2.77911080343533,0.5,77.6683328998221
CBC_1048,CBC_1048_MSI_TV_v3_Vset6_Tset3_2024-01-21_14h45.03.891.csv,1,42,1,0,b,1,0,1,tac,B,63,0,1B,0B,0,1,b,2.92775990000064,1,0,1,0,1B,0B,B10,2.65675690671466,0.549965359578836,0.479172388816454,0.489581718306558,0.5,0.450034640421164,0.530608124745573,0.489581718306558,0.489581718306558,0.5,0.5,0.594937644841988,0.5,0.5,0.5,0.5,0.594937644841988,0.541081975611532,0.458918024388468,0.530608124745573,0.450034640421164,0.20276247384978,0.827853137247941,-0.530608124745573,-0.0110560498248569,0.5,0.0208365633868841,1.07303030208848,6.86189027909816,2.77911080343533,0.5,77.6683328998221
CBC_1048,CBC_1048_MSI_TV_v3_Vset6_Tset3_2024-01-21_14h45.03.891.csv,1,43,2,3,z,0,1,2,tac,D,63,1,2D,3D,0,1,z,2.14643100000012,0,1,1,1,3D,2D,D23,2.26868354131836,0.549965359578836,0.479172388816454,0.489581718306558,0.5,0.450034640421164,0.519552074920717,0.489581718306558,0.489581718306558,0.5,0.5,0.594937644841988,0.5,0.5,0.5,0.5,0.594937644841988,0.543352991510164,0.456647008489836,0.594937644841988,0.5,0.382041184017047,0.838805377919777,0.405062355158012,0.00844010743889048,0.5,0.0208365633868841,1.07303030208848,6.86189027909816,2.77911080343533,0.5,77.6683328998221
CBC_1048,CBC_1048_MSI_TV_v3_Vset6_Tset3_2024-01-21_14h45.03.891.csv,1,44,1,0,z,0,1,0,tac,A,63,1,1A,0A,0,1,b,2.78609460000007,1,0,0,0,1A,0A,A10,2.97892515523761,0.549965359578836,0.479172388816454,0.489581718306558,0.5,0.450034640421164,0.519552074920717,0.489581718306558,0.489581718306558,0.5,0.5,0.594937644841988,0.5,0.5,0.5,0.5,0.603377752280879,0.465605687444286,0.534394312555714,0.479172388816454,0.549965359578836,0.0582368239693132,0.211773353288085,-0.479172388816454,-0.00998430585281872,0.5,0.0208365633868841,1.07303030208848,6.86189027909816,2.77911080343533,0.5,77.6683328998221
CBC_1048,CBC_1048_MSI_AV_v3_Vset4_Aset3_2024-01-21_16h38.11.911.csv,2,1,0,2,z,0,1,3,aud,C,27,1,0C,2C,0,1,z,1.60270229999878,0,1,1,1,2C,0C,C02,2.77258872223978,0.5,0.5,0.5,0.5,0.5,0.5,0.5,0.5,0.5,0.5,0.5,0.5,0.5,0.5,0.5,0.5,0.5,0.5,0.5,0.5,0.179155303515439,0.498870190704202,0.5,0.288079019376001,0.5,0.576158038752002,0.569166993637604,1.79218463932612,3.1563225258691,0.5,73.8423686493816
CBC_1048,CBC_1048_MSI_AV_v3_Vset4_Aset3_2024-01-21_16h38.11.911.csv,2,2,2,3,z,0,1,2,aud,D,63,1,2D,3D,0,1,b,1.67972379999992,1,0,0,0,2D,3D,D23,2.83321334405622,0.5,0.5,0.5,0.5,0.5,0.5,0.5,0.5,0.5,0.5,0.788079019376001,0.5,0.5,0.5,0.5,0.5,0.5,0.5,0.5,0.5,0.175007295207161,0.499375354614898,-0.5,-0.288079019376001,0.5,0.576158038752002,0.569166993637604,1.79218463932612,3.1563225258691,0.5,73.8423686493816
CBC_1048,CBC_1048_MSI_AV_v3_Vset4_Aset3_2024-01-21_16h38.11.911.csv,2,3,0,1,b,1,0,0,aud,A,63,1,0A,1A,1,0,z,2.41560779999963,0,1,0,0,1A,0A,A01,2.89037175789616,0.5,0.5,0.5,0.5,0.5,0.5,0.5,0.5,0.5,0.5,0.788079019376001,0.5,0.5,0.5,0.211920980623999,0.5,0.5,0.5,0.5,0.5,0.126074274505888,0.499909640296696,-0.5,-0.288079019376001,0.5,0.576158038752002,0.569166993637604,1.79218463932612,3.1563225258691,0.5,73.8423686493816
CBC_1048,CBC_1048_MSI_AV_v3_Vset4_Aset3_2024-01-21_16h38.11.911.csv,2,4,3,2,z,0,1,3,aud,C,63,1,3C,2C,0,1,z,1.3431614000001,0,1,1,1,2C,3C,C32,2.94443897916644,0.5,0.211920980623999,0.5,0.5,0.5,0.5,0.5,0.5,0.5,0.5,0.788079019376001,0.5,0.5,0.5,0.211920980623999,0.5,0.611825056942376,0.388174943057624,0.788079019376001,0.5,0.327405662963096,0.780068721443605,0.211920980623999,0.122099976566724,0.5,0.576158038752002,0.569166993637604,1.79218463932612,3.1563225258691,0.5,73.8423686493816
CBC_1048,CBC_1048_MSI_AV_v3_Vset4_Aset3_2024-01-21_16h38.11.911.csv,2,5,2,0,z,0,1,0,aud,A,27,1,2A,0A,0,1,z,2.44388369999979,0,1,1,1,0A,2A,A20,2.99573227355399,0.5,0.211920980623999,0.5,0.5,0.5,0.5,0.5,0.5,0.5,0.5,0.910178995942725,0.5,0.5,0.5,0.211920980623999,0.5,0.5,0.5,0.5,0.5,0.124223586993963,0.499413167072738,0.5,0.288079019376001,0.5,0.576158038752002,0.569166993637604,1.79218463932612,3.1563225258691,0.5,73.8423686493816
CBC_1048,CBC_1048_MSI_AV_v3_Vset4_Aset3_2024-01-21_16h38.11.911.csv,2,6,3,2,b,1,0,2,aud,D,63,1,3D,2D,1,0,b,2.41348069999913,1,0,1,1,3D,2D,D32,3.04452243772342,0.788079019376001,0.211920980623999,0.5,0.5,0.5,0.5,0.5,0.5,0.5,0.5,0.910178995942725,0.5,0.5,0.5,0.211920980623999,0.5,0.702325136648944,0.297674863351056,0.5,0.211920980623999,0.244096935822159,0.907926505951563,0.5,0.288079019376001,0.5,0.576158038752002,0.569166993637604,1.79218463932612,3.1563225258691,0.5,73.8423686493816
CBC_1048,CBC_1048_MSI_AV_v3_Vset4_Aset3_2024-01-21_16h38.11.911.csv,2,7,2,3,z,0,1,2,aud,D,63,1,2D,3D,0,1,z,1.22890000000007,0,1,1,1,3D,2D,D23,2.39789527279837,0.788079019376001,0.211920980623999,0.5,0.5,0.5,0.5,0.5,0.5,0.5,0.5,0.910178995942725,0.5,0.5,0.5,0.211920980623999,0.788079019376001,0.788079019376001,0.211920980623999,0.788079019376001,0.211920980623999,0.637724100102413,0.962832268549474,0.211920980623999,0.122099976566724,0.5,0.576158038752002,0.569166993637604,1.79218463932612,3.1563225258691,0.5,73.8423686493816
CBC_1048,CBC_1048_MSI_AV_v3_Vset4_Aset3_2024-01-21_16h38.11.911.csv,2,8,1,3,b,1,0,1,aud,B,27,1,1B,3B,1,0,b,2.47087810000085,1,0,1,1,1B,3B,B13,3.13549421592915,0.788079019376001,0.211920980623999,0.5,0.5,0.5,0.5,0.5,0.5,0.5,0.5,0.910178995942725,0.5,0.5,0.5,0.211920980623999,0.910178995942725,0.5,0.5,0.5,0.5,0.122731290024707,0.499965294004385,0.5,0.288079019376001,0.5,0.576158038752002,0.569166993637604,1.79218463932612,3.1563225258691,0.5,73.8423686493816
CBC_1048,CBC_1048_MSI_AV_v3_Vset4_Aset3_2024-01-21_16h38.11.911.csv,2,9,3,0,b,1,0,2,aud,D,9,1,3D,0D,1,0,b,2.47877639999933,1,0,1,1,3D,0D,D30,3.17805383034795,0.788079019376001,0.211920980623999,0.5,0.5,0.5,0.788079019376001,0.5,0.5,0.5,0.5,0.910178995942725,0.5,0.5,0.5,0.211920980623999,0.910178995942725,0.645435082043792,0.354564917956208,0.910178995942725,0.5,0.214855503058046,0.83866260328912,0.0898210040572746,0.051751093536375,0.5,0.576158038752002,0.569166993637604,1.79218463932612,3.1563225258691,0.5,73.8423686493816
CBC_1048,CBC_1048_MSI_AV_v3_Vset4_Aset3_2024-01-21_16h38.11.911.csv,2,10,0,1,z,0,1,1,aud,B,63,1,0B,1B,0,1,z,2.4208792999998,0,1,1,1,1B,0B,B01,3.2188758248682,0.788079019376001,0.211920980623999,0.5,0.5,0.5,0.788079019376001,0.5,0.5,0.5,0.5,0.910178995942725,0.5,0.5,0.5,0.211920980623999,0.9619300894791,0.611825056942376,0.388174943057624,0.788079019376001,0.5,0.204206580261291,0.780448005144347,0.211920980623999,0.122099976566724,0.5,0.576158038752002,0.569166993637604,1.79218463932612,3.1563225258691,0.5,73.8423686493816
CBC_1048,CBC_1048_MSI_AV_v3_Vset4_Aset3_2024-01-21_16h38.11.911.csv,2,11,0,1,b,1,0,0,aud,A,63,1,0A,1A,1,0,b,2.93719359999886,1,0,1,1,0A,1A,A01,2.56494935746154,0.788079019376001,0.211920980623999,0.5,0.5,0.5,0.910178995942725,0.5,0.5,0.5,0.5,0.910178995942725,0.5,0.5,0.5,0.211920980623999,0.9619300894791,0.788079019376001,0.211920980623999,0.788079019376001,0.211920980623999,0.140736084888334,0.963091393536945,0.211920980623999,0.122099976566724,0.5,0.576158038752002,0.569166993637604,1.79218463932612,3.1563225258691,0.5,73.8423686493816
CBC_1048,CBC_1048_MSI_AV_v3_Vset4_Aset3_2024-01-21_16h38.11.911.csv,2,12,1,0,b,1,0,1,aud,B,63,1,1B,0B,1,0,b,2.87912349999897,1,0,1,1,1B,0B,B10,3.29583686600433,0.910178995942725,0.211920980623999,0.5,0.5,0.5,0.910178995942725,0.5,0.5,0.5,0.5,0.910178995942725,0.5,0.5,0.5,0.211920980623999,0.9619300894791,0.645435082043792,0.354564917956208,0.910178995942725,0.5,0.16686815173178,0.837411267807592,0.0898210040572746,0.051751093536375,0.5,0.576158038752002,0.569166993637604,1.79218463932612,3.1563225258691,0.5,73.8423686493816
CBC_1048,CBC_1048_MSI_AV_v3_Vset4_Aset3_2024-01-21_16h38.11.911.csv,2,13,3,2,b,1,0,2,aud,D,63,1,3D,2D,1,0,b,3.32347010000012,1,0,1,1,3D,2D,D32,2.63905732961526,0.910178995942725,0.211920980623999,0.5,0.5,0.5,0.9619300894791,0.5,0.5,0.5,0.5,0.910178995942725,0.5,0.5,0.5,0.211920980623999,0.9619300894791,0.819465189391201,0.180534810608799,0.9619300894791,0.211920980623999,0.0808818266810154,0.973650485758582,0.0380699105208996,0.0219342849811857,0.5,0.576158038752002,0.569166993637604,1.79218463932612,3.1563225258691,0.5,73.8423686493816
CBC_1048,CBC_1048_MSI_AV_v3_Vset4_Aset3_2024-01-21_16h38.11.911.csv,2,14,3,1,z,0,1,1,aud,B,27,1,3B,1B,0,1,z,1.70687719999842,0,1,1,1,1B,3B,B31,3.36729582998647,0.910178995942725,0.211920980623999,0.5,0.5,0.5,0.9619300894791,0.5,0.5,0.5,0.5,0.910178995942725,0.5,0.5,0.5,0.211920980623999,0.983864374460286,0.657986381429392,0.342013618570608,0.9619300894791,0.5,0.353209142715567,0.856305096451434,0.0380699105208996,0.0219342849811857,0.5,0.576158038752002,0.569166993637604,1.79218463932612,3.1563225258691,0.5,73.8423686493816
CBC_1048,CBC_1048_MSI_AV_v3_Vset4_Aset3_2024-01-21_16h38.11.911.csv,2,15,2,3,b,1,0,3,aud,C,63,1,2C,3C,1,0,b,0.80354719999923,1,0,1,1,2C,3C,C23,3.40119738166216,0.910178995942725,0.211920980623999,0.5,0.5,0.5,0.983864374460286,0.5,0.5,0.5,0.5,0.910178995942725,0.5,0.5,0.5,0.211920980623999,0.983864374460286,0.645435082043792,0.354564917956208,0.910178995942725,0.5,0.0603032279343822,0.83838198514553,0.0898210040572746,0.051751093536375,0.5,0.576158038752002,0.569166993637604,1.79218463932612,3.1563225258691,0.5,73.8423686493816
CBC_1048,CBC_1048_MSI_AV_v3_Vset4_Aset3_2024-01-21_16h38.11.911.csv,2,16,0,2,z,0,1,3,aud,C,27,1,0C,2C,0,1,b,0.837957699997787,1,0,0,0,0C,2C,C02,2.7408400239252,0.910178995942725,0.211920980623999,0.5,0.5,0.5,0.983864374460286,0.5,0.5,0.5,0.5,0.9619300894791,0.5,0.5,0.5,0.211920980623999,0.983864374460286,0.342013618570608,0.657986381429392,0.5,0.9619300894791,0.0172287876758913,0.143510477917299,-0.5,-0.288079019376001,0.5,0.576158038752002,0.569166993637604,1.79218463932612,3.1563225258691,0.5,73.8423686493816
CBC_1048,CBC_1048_MSI_AV_v3_Vset4_Aset3_2024-01-21_16h38.11.911.csv,2,17,3,0,z,0,1,0,aud,A,9,1,3A,0A,0,1,z,1.85332559999915,0,1,1,1,0A,3A,A30,3.46573590279973,0.910178995942725,0.211920980623999,0.5,0.5,0.5,0.983864374460286,0.5,0.5,0.211920980623999,0.5,0.9619300894791,0.5,0.5,0.5,0.211920980623999,0.983864374460286,0.645435082043792,0.354564917956208,0.910178995942725,0.5,0.312825719973999,0.837577721331339,0.0898210040572746,0.051751093536375,0.5,0.576158038752002,0.569166993637604,1.79218463932612,3.1563225258691,0.5,73.8423686493816
CBC_1048,CBC_1048_MSI_AV_v3_Vset4_Aset3_2024-01-21_16h38.11.911.csv,2,18,3,2,z,0,1,3,aud,C,63,0,3C,2C,1,0,z,2.10622139999941,0,1,1,0,2C,3C,C32,2.80336038090653,0.9619300894791,0.211920980623999,0.5,0.5,0.5,0.983864374460286,0.5,0.5,0.211920980623999,0.5,0.9619300894791,0.5,0.5,0.5,0.211920980623999,0.983864374460286,0.657986381429392,0.342013618570608,0.9619300894791,0.5,0.279426004821607,0.856612309280239,-0.9619300894791,-0.554223753770817,0.5,0.576158038752002,0.569166993637604,1.79218463932612,3.1563225258691,0.5,73.8423686493816
CBC_1048,CBC_1048_MSI_AV_v3_Vset4_Aset3_2024-01-21_16h38.11.911.csv,2,19,0,1,b,1,0,0,aud,A,63,1,0A,1A,1,0,b,1.33967959999973,1,0,1,1,0A,1A,A01,2.42774823594805,0.9619300894791,0.211920980623999,0.5,0.5,0.5,0.983864374460286,0.5,0.5,0.211920980623999,0.5,0.407706335708284,0.5,0.5,0.5,0.211920980623999,0.983864374460286,0.819465189391201,0.180534810608799,0.9619300894791,0.211920980623999,0.679649043831126,0.973732193378794,0.0380699105208996,0.0219342849811857,0.5,0.576158038752002,0.569166993637604,1.79218463932612,3.1563225258691,0.5,73.8423686493816
CBC_1048,CBC_1048_MSI_AV_v3_Vset4_Aset3_2024-01-21_16h38.11.911.csv,2,20,2,3,z,0,1,2,aud,D,63,1,2D,3D,0,1,z,3.02121879999868,0,1,1,1,3D,2D,D23,2.4567357728213,0.983864374460286,0.211920980623999,0.5,0.5,0.5,0.983864374460286,0.5,0.5,0.211920980623999,0.5,0.407706335708284,0.5,0.5,0.5,0.211920980623999,0.983864374460286,0.822776738548482,0.177223261451518,0.983864374460286,0.211920980623999,0.112575414805815,0.974711495426235,0.0161356255397138,0.00929667036499823,0.5,0.576158038752002,0.569166993637604,1.79218463932612,3.1563225258691,0.5,73.8423686493816
CBC_1048,CBC_1048_MSI_AV_v3_Vset4_Aset3_2024-01-21_16h38.11.911.csv,2,21,2,3,b,1,0,3,aud,C,63,1,2C,3C,1,0,b,2.600239899999,1,0,1,1,2C,3C,C23,2.89037175789616,0.983864374460286,0.211920980623999,0.5,0.5,0.5,0.983864374460286,0.5,0.5,0.211920980623999,0.5,0.407706335708284,0.5,0.5,0.5,0.211920980623999,0.993161044825284,0.44916105536506,0.55083894463494,0.407706335708284,0.5,0.0835412748414075,0.360051385892635,0.592293664291716,0.341254755983552,0.5,0.576158038752002,0.569166993637604,1.79218463932612,3.1563225258691,0.5,73.8423686493816
CBC_1048,CBC_1048_MSI_AV_v3_Vset4_Aset3_2024-01-21_16h38.11.911.csv,2,22,1,3,z,0,1,2,aud,D,27,1,1D,3D,0,1,z,2.1358837000007,0,1,1,1,3D,1D,D13,3.61091791264422,0.983864374460286,0.211920980623999,0.5,0.5,0.5,0.983864374460286,0.5,0.5,0.211920980623999,0.5,0.748961091691836,0.5,0.5,0.5,0.211920980623999,0.993161044825284,0.665139938030927,0.334860061969073,0.993161044825284,0.5,0.279056941686802,0.866363842632124,0.00683895517471556,0.00394031900057697,0.5,0.576158038752002,0.569166993637604,1.79218463932612,3.1563225258691,0.5,73.8423686493816
CBC_1048,CBC_1048_MSI_AV_v3_Vset4_Aset3_2024-01-21_16h38.11.911.csv,2,23,1,0,z,0,1,0,aud,A,63,1,1A,0A,0,1,z,1.43546429999878,0,1,1,1,0A,1A,A10,3.63758615972639,0.983864374460286,0.211920980623999,0.5,0.5,0.5,0.983864374460286,0.5,0.5,0.211920980623999,0.5,0.748961091691836,0.5,0.5,0.5,0.211920980623999,0.997101363825861,0.822776738548482,0.177223261451518,0.983864374460286,0.211920980623999,0.644552661893686,0.974661097428837,0.0161356255397138,0.00929667036499823,0.5,0.576158038752002,0.569166993637604,1.79218463932612,3.1563225258691,0.5,73.8423686493816
CBC_1048,CBC_1048_MSI_AV_v3_Vset4_Aset3_2024-01-21_16h38.11.911.csv,2,24,2,3,b,1,0,3,aud,C,63,1,2C,3C,1,0,b,2.03828169999906,1,0,1,1,2C,3C,C23,2.56494935746154,0.993161044825284,0.211920980623999,0.5,0.5,0.5,0.983864374460286,0.5,0.5,0.211920980623999,0.5,0.748961091691836,0.5,0.5,0.5,0.211920980623999,0.997101363825861,0.599667272802948,0.400332727197052,0.748961091691836,0.5,0.241468542685751,0.755209604978899,0.251038908308164,0.144638085061276,0.5,0.576158038752002,0.569166993637604,1.79218463932612,3.1563225258691,0.5,73.8423686493816
CBC_1048,CBC_1048_MSI_AV_v3_Vset4_Aset3_2024-01-21_16h38.11.911.csv,2,25,2,0,z,0,1,0,aud,A,27,1,2A,0A,0,1,z,1.68249560000004,0,1,1,1,0A,2A,A20,2.99573227355399,0.993161044825284,0.211920980623999,0.5,0.5,0.5,0.983864374460286,0.5,0.5,0.211920980623999,0.5,0.893599176753112,0.5,0.5,0.5,0.211920980623999,0.997101363825861,0.665139938030927,0.334860061969073,0.993161044825284,0.5,0.366604715102992,0.866282537848616,0.00683895517471556,0.00394031900057697,0.5,0.576158038752002,0.569166993637604,1.79218463932612,3.1563225258691,0.5,73.8423686493816
CBC_1048,CBC_1048_MSI_AV_v3_Vset4_Aset3_2024-01-21_16h38.11.911.csv,2,26,0,1,z,0,1,1,aud,B,63,1,0B,1B,0,1,z,2.35946399999921,0,1,1,1,1B,0B,B01,3.02042488614436,0.997101363825861,0.211920980623999,0.5,0.5,0.5,0.983864374460286,0.5,0.5,0.211920980623999,0.5,0.893599176753112,0.5,0.5,0.5,0.211920980623999,0.997101363825861,0.663041981055808,0.336958018944192,0.983864374460286,0.5,0.240013935054035,0.863324842779497,0.0161356255397138,0.00929667036499823,0.5,0.576158038752002,0.569166993637604,1.79218463932612,3.1563225258691,0.5,73.8423686493816
CBC_1048,CBC_1048_MSI_AV_v3_Vset4_Aset3_2024-01-21_16h38.11.911.csv,2,27,1,0,b,1,0,1,aud,B,63,1,1B,0B,1,0,b,2.46451539999907,1,0,1,1,1B,0B,B10,3.04452243772342,0.997101363825861,0.211920980623999,0.5,0.5,0.5,0.993161044825284,0.5,0.5,0.211920980623999,0.5,0.893599176753112,0.5,0.5,0.5,0.211920980623999,0.997101363825861,0.665139938030927,0.334860061969073,0.993161044825284,0.5,0.224895809190083,0.866541372914912,0.00683895517471556,0.00394031900057697,0.5,0.576158038752002,0.569166993637604,1.79218463932612,3.1563225258691,0.5,73.8423686493816
CBC_1048,CBC_1048_MSI_AV_v3_Vset4_Aset3_2024-01-21_16h38.11.911.csv,2,28,2,3,b,1,0,3,aud,C,63,1,2C,3C,1,0,b,1.62515379999968,1,0,1,1,2C,3C,C23,2.37490575457367,0.997101363825861,0.211920980623999,0.5,0.5,0.5,0.997101363825861,0.5,0.5,0.211920980623999,0.5,0.893599176753112,0.5,0.5,0.5,0.211920980623999,0.997101363825861,0.641216780017818,0.358783219982182,0.893599176753112,0.5,0.346268050252932,0.831611685520986,0.106400823246888,0.0613036896435257,0.5,0.576158038752002,0.569166993637604,1.79218463932612,3.1563225258691,0.5,73.8423686493816
CBC_1048,CBC_1048_MSI_AV_v3_Vset4_Aset3_2024-01-21_16h38.11.911.csv,2,29,1,3,z,0,1,2,aud,D,27,1,1D,3D,0,1,b,4.26291680000031,1,0,0,0,1D,3D,D13,3.09104245335832,0.997101363825861,0.211920980623999,0.5,0.5,0.5,0.997101363825861,0.5,0.5,0.211920980623999,0.5,0.954902866396637,0.5,0.5,0.5,0.211920980623999,0.997101363825861,0.333978721869736,0.666021278130264,0.5,0.997101363825861,0.0102850373320392,0.132573610643386,-0.5,-0.288079019376001,0.5,0.576158038752002,0.569166993637604,1.79218463932612,3.1563225258691,0.5,73.8423686493816
CBC_1048,CBC_1048_MSI_AV_v3_Vset4_Aset3_2024-01-21_16h38.11.911.csv,2,30,2,1,b,1,0,3,aud,C,9,1,2C,1C,1,0,z,3.28093359999912,0,1,0,0,1C,2C,C21,3.80666248977032,0.997101363825861,0.211920980623999,0.5,0.5,0.5,0.997101363825861,0.5,0.5,0.211920980623999,0.5,0.954902866396637,0.5,0.5,0.211920980623999,0.211920980623999,0.997101363825861,0.343665554277415,0.656334445722585,0.5,0.954902866396637,0.0223103544335532,0.146316369625831,-0.5,-0.288079019376001,0.5,0.576158038752002,0.569166993637604,1.79218463932612,3.1563225258691,0.5,73.8423686493816
CBC_1048,CBC_1048_MSI_AV_v3_Vset4_Aset3_2024-01-21_16h38.11.911.csv,2,31,1,3,b,1,0,1,aud,B,27,1,1B,3B,1,0,b,1.39131310000084,1,0,1,1,1B,3B,B13,3.13549421592915,0.997101363825861,0.211920980623999,0.5,0.5,0.5,0.997101363825861,0.5,0.5,0.211920980623999,0.211920980623999,0.954902866396637,0.5,0.5,0.211920980623999,0.211920980623999,0.997101363825861,0.666021278130264,0.333978721869736,0.997101363825861,0.5,0.411493600284193,0.86811199233706,0.00289863617413855,0.00167007253314727,0.5,0.576158038752002,0.569166993637604,1.79218463932612,3.1563225258691,0.5,73.8423686493816
CBC_1048,CBC_1048_MSI_AV_v3_Vset4_Aset3_2024-01-21_16h38.11.911.csv,2,32,2,3,z,0,1,2,aud,D,63,1,2D,3D,0,1,z,2.30404579999959,0,1,1,1,3D,2D,D23,2.46385324059017,0.997101363825861,0.211920980623999,0.5,0.5,0.5,0.998771436359009,0.5,0.5,0.211920980623999,0.211920980623999,0.954902866396637,0.5,0.5,0.211920980623999,0.211920980623999,0.997101363825861,0.824717068632484,0.175282931367517,0.997101363825861,0.211920980623999,0.258084290827151,0.975184007358152,0.00289863617413855,0.00167007253314727,0.5,0.576158038752002,0.569166993637604,1.79218463932612,3.1563225258691,0.5,73.8423686493816
CBC_1048,CBC_1048_MSI_AV_v3_Vset4_Aset3_2024-01-21_16h38.11.911.csv,2,33,1,0,b,1,0,1,aud,B,63,1,1B,0B,1,0,b,2.27170680000017,1,0,1,1,1B,0B,B10,2.77258872223978,0.997101363825861,0.211920980623999,0.5,0.5,0.5,0.998771436359009,0.5,0.5,0.211920980623999,0.211920980623999,0.954902866396637,0.5,0.5,0.211920980623999,0.211920980623999,0.998771436359009,0.666393428730762,0.333606571269238,0.998771436359009,0.5,0.256184201248794,0.86832461563431,0.00122856364099122,0.000707846817875521,0.5,0.576158038752002,0.569166993637604,1.79218463932612,3.1563225258691,0.5,73.8423686493816
CBC_1048,CBC_1048_MSI_AV_v3_Vset4_Aset3_2024-01-21_16h38.11.911.csv,2,34,0,1,b,1,0,0,aud,A,63,0,0A,1A,0,1,b,2.72230989999844,1,0,1,0,0A,1A,A01,2.50552593699074,0.997101363825861,0.211920980623999,0.5,0.5,0.5,0.999479283176884,0.5,0.5,0.211920980623999,0.211920980623999,0.954902866396637,0.5,0.5,0.211920980623999,0.211920980623999,0.998771436359009,0.824717068632484,0.175282931367517,0.997101363825861,0.211920980623999,0.1581859464748,0.975342067068251,-0.997101363825861,-0.574487966218855,0.5,0.576158038752002,0.569166993637604,1.79218463932612,3.1563225258691,0.5,73.8423686493816
CBC_1048,CBC_1048_MSI_AV_v3_Vset4_Aset3_2024-01-21_16h38.11.911.csv,2,35,3,2,z,0,1,3,aud,C,63,1,3C,2C,0,1,z,2.41098409999904,0,1,1,1,2C,3C,C32,2.81341071676004,0.422613397607006,0.211920980623999,0.5,0.5,0.5,0.999479283176884,0.5,0.5,0.211920980623999,0.211920980623999,0.954902866396637,0.5,0.5,0.211920980623999,0.211920980623999,0.998771436359009,0.656334445722585,0.343665554277415,0.954902866396637,0.5,0.229019253216616,0.853811797099249,0.0450971336033628,0.0259830760502505,0.5,0.576158038752002,0.569166993637604,1.79218463932612,3.1563225258691,0.5,73.8423686493816
CBC_1048,CBC_1048_MSI_AV_v3_Vset4_Aset3_2024-01-21_16h38.11.911.csv,2,36,2,0,z,0,1,0,aud,A,27,1,2A,0A,0,1,b,1.80741339999986,1,0,0,0,2A,0A,A20,2.83321334405622,0.422613397607006,0.211920980623999,0.5,0.5,0.5,0.999479283176884,0.5,0.5,0.211920980623999,0.211920980623999,0.980885942446888,0.5,0.5,0.211920980623999,0.211920980623999,0.998771436359009,0.541938802641341,0.45806119735866,0.5,0.422613397607006,0.208492244585199,0.61578721740113,-0.5,-0.288079019376001,0.5,0.576158038752002,0.569166993637604,1.79218463932612,3.1563225258691,0.5,73.8423686493816
CBC_1048,CBC_1048_MSI_AV_v3_Vset4_Aset3_2024-01-21_16h38.11.911.csv,2,37,1,0,b,1,0,1,aud,B,63,1,1B,0B,1,0,b,2.5096510000003,1,0,1,1,1B,0B,B10,2.56494935746154,0.422613397607006,0.211920980623999,0.211920980623999,0.5,0.5,0.999479283176884,0.5,0.5,0.211920980623999,0.211920980623999,0.980885942446888,0.5,0.5,0.211920980623999,0.211920980623999,0.998771436359009,0.666550911633357,0.333449088366643,0.999479283176884,0.5,0.218599111122455,0.867927285358206,0.000520716823115719,0.000300015183551526,0.5,0.576158038752002,0.569166993637604,1.79218463932612,3.1563225258691,0.5,73.8423686493816
CBC_1048,CBC_1048_MSI_AV_v3_Vset4_Aset3_2024-01-21_16h38.11.911.csv,2,38,3,2,b,1,0,2,aud,D,63,1,3D,2D,1,0,b,1.46560469999895,1,0,1,1,3D,2D,D32,2.87167962488401,0.422613397607006,0.211920980623999,0.211920980623999,0.5,0.5,0.999779298360436,0.5,0.5,0.211920980623999,0.211920980623999,0.980885942446888,0.5,0.5,0.211920980623999,0.211920980623999,0.998771436359009,0.824958860193329,0.175041139806671,0.998771436359009,0.211920980623999,0.633070337616069,0.975398871795765,0.00122856364099122,0.000707846817875521,0.5,0.576158038752002,0.569166993637604,1.79218463932612,3.1563225258691,0.5,73.8423686493816
CBC_1048,CBC_1048_MSI_AV_v3_Vset4_Aset3_2024-01-21_16h38.11.911.csv,2,39,2,1,z,0,1,1,aud,B,9,1,2B,1B,0,1,z,2.40610869999909,0,1,1,1,1B,2B,B21,3.98898404656427,0.422613397607006,0.211920980623999,0.211920980623999,0.5,0.5,0.999779298360436,0.5,0.5,0.211920980623999,0.211920980623999,0.980885942446888,0.5,0.5,0.211920980623999,0.211920980623999,0.999479283176884,0.666617614640633,0.333382385359367,0.999779298360436,0.5,0.234404466188206,0.868525051355802,0.000220701639564225,0.000127159023800675,0.5,0.576158038752002,0.569166993637604,1.79218463932612,3.1563225258691,0.5,73.8423686493816
CBC_1048,CBC_1048_MSI_AV_v3_Vset4_Aset3_2024-01-21_16h38.11.911.csv,2,40,3,1,b,1,0,2,aud,D,27,1,3D,1D,1,0,b,2.33503419999943,1,0,1,1,3D,1D,D31,4.00733318523247,0.422613397607006,0.211920980623999,0.211920980623999,0.5,0.5,0.999906457384236,0.5,0.5,0.211920980623999,0.211920980623999,0.980885942446888,0.5,0.5,0.211920980623999,0.211920980623999,0.999479283176884,0.825061140436707,0.174938859563293,0.999479283176884,0.211920980623999,0.248540956592789,0.975457995826079,0.000520716823115719,0.000300015183551526,0.5,0.576158038752002,0.569166993637604,1.79218463932612,3.1563225258691,0.5,73.8423686493816
CBC_1048,CBC_1048_MSI_AV_v3_Vset4_Aset3_2024-01-21_16h38.11.911.csv,2,41,0,1,b,1,0,0,aud,A,63,1,0A,1A,1,0,b,4.06939679999959,1,0,1,1,0A,1A,A01,2.41591377830105,0.422613397607006,0.211920980623999,0.211920980623999,0.5,0.5,0.999906457384236,0.5,0.5,0.211920980623999,0.211920980623999,0.980885942446888,0.5,0.5,0.211920980623999,0.211920980623999,0.999779298360436,0.666021278130264,0.333978721869736,0.422613397607006,0.211920980623999,0.0766068581244357,0.867800570166064,0.577386602392994,0.332665932436429,0.5,0.576158038752002,0.569166993637604,1.79218463932612,3.1563225258691,0.5,73.8423686493816
CBC_1048,CBC_1048_MSI_AV_v3_Vset4_Aset3_2024-01-21_16h38.11.911.csv,2,42,1,0,z,0,1,0,aud,A,63,1,1A,0A,0,1,z,1.5142339999984,0,1,1,1,0A,1A,A10,3.3499040872746,0.755279330043436,0.211920980623999,0.211920980623999,0.5,0.5,0.999906457384236,0.5,0.5,0.211920980623999,0.211920980623999,0.980885942446888,0.5,0.5,0.211920980623999,0.211920980623999,0.999779298360436,0.780892356746909,0.219107643253091,0.755279330043436,0.211920980623999,0.556645918761659,0.959980399624516,0.244720669956564,0.14099778124425,0.5,0.576158038752002,0.569166993637604,1.79218463932612,3.1563225258691,0.5,73.8423686493816
CBC_1048,CBC_1048_MSI_AV_v3_Vset4_Aset3_2024-01-21_16h38.11.911.csv,2,43,0,2,z,0,1,3,aud,C,27,1,0C,2C,0,1,z,2.56433699999798,0,1,1,1,2C,0C,C02,2.96183072187831,0.896277111287686,0.211920980623999,0.211920980623999,0.5,0.5,0.999906457384236,0.5,0.5,0.211920980623999,0.211920980623999,0.980885942446888,0.5,0.5,0.211920980623999,0.211920980623999,0.999779298360436,0.822334213085881,0.17766578691412,0.980885942446888,0.211920980623999,0.191816705750033,0.974525010572905,0.0191140575531122,0.011012717912394,0.5,0.576158038752002,0.569166993637604,1.79218463932612,3.1563225258691,0.5,73.8423686493816
CBC_1048,CBC_1048_MSI_AV_v3_Vset4_Aset3_2024-01-21_16h38.11.911.csv,2,44,1,0,b,1,0,1,aud,B,63,1,1B,0B,1,0,b,2.87567299999864,1,0,1,1,1B,0B,B10,2.46809953147162,0.896277111287686,0.211920980623999,0.211920980623999,0.5,0.5,0.999906457384236,0.5,0.5,0.211920980623999,0.211920980623999,0.991898660359282,0.5,0.5,0.211920980623999,0.211920980623999,0.999779298360436,0.666645878122309,0.333354121877691,0.999906457384236,0.5,0.171085739364243,0.868465017607811,9.35426157635533e-05,5.3895330038061e-05,0.5,0.576158038752002,0.569166993637604,1.79218463932612,3.1563225258691,0.5,73.8423686493816
