ID,session,trialNr,mod2Stim,visStimLeft,visStimRight,correctKey,frequency,rewardAccurate,probFB,stimPairLeft,stimPairRight,leftCorrect,rightCorrect,pCorrectLeft,pCorrectRight,triplet,rt,surprise,0A belief,1A belief,2A belief,3A belief,0B belief,1B belief,2B belief,3B belief,0C belief,1C belief,2C belief,3C belief,0D belief,1D belief,2D belief,3D belief,reactionTime,choice,choiceLeft,choiceRight,chosenPair,otherPair,beliefPair,beliefOtherPair,beliefPairNorm,beliefOtherPairNorm,choiceAccurate,reward,rewardPE,update2,sim_CBCsimpleRW_CBCdriftDiffusionLR_startBelief,sim_CBCsimpleRW_CBCdriftDiffusionLR_alpha1,sim_CBCsimpleRW_CBCdriftDiffusionLR_nonDecisionTime,sim_CBCsimpleRW_CBCdriftDiffusionLR_weight,sim_CBCsimpleRW_CBCdriftDiffusionLR_startingBoundary,sim_CBCsimpleRW_CBCdriftDiffusionLR_startingPoint,lik,corrLik,fitCBCsimpleRW_CBCdriftDiffusionLR_startBelief,fitCBCsimpleRW_CBCdriftDiffusionLR_alpha1,fitCBCsimpleRW_CBCdriftDiffusionLR_nonDecisionTime,fitCBCsimpleRW_CBCdriftDiffusionLR_weight,fitCBCsimpleRW_CBCdriftDiffusionLR_startingBoundary,fitCBCsimpleRW_CBCdriftDiffusionLR_startingPoint,fit_CBCsimpleRW_CBCdriftDiffusionLR_NLL
181,1,1,A,1,0,l,63,1,1,1A,0A,0,1,0,1,A10,0.959585878808989,2.77258872223978,0.5,0.5,0.5,0.5,0.5,0.5,0.5,0.5,0.5,0.5,0.5,0.5,0.5,0.5,0.5,0.5,1.49253064987974,1,1,0,1A,0A,0.5,0.5,0.5,0.5,0,0,-0.5,-0.347080625440977,0.5,0.903167346308354,0.679530649879745,1.32958188371601,1.76617012018928,0.5,0.278533692538771,0.499880151335727,0.5,0.694161250881954,0.654010338474409,2.83833255361545,1.9730377691133,0.5,28.3468255347698
181,1,2,C,2,3,a,63,1,1,2C,3C,1,0,1,0,C23,0.214980247335305,2.83321334405622,0.5,0.152919374559023,0.5,0.5,0.5,0.5,0.5,0.5,0.5,0.5,0.5,0.5,0.5,0.5,0.5,0.5,1.03453064987974,1,1,0,2C,3C,0.5,0.5,0.5,0.5,1,1,0.5,0.347080625440977,0.5,0.903167346308354,0.679530649879745,1.32958188371601,1.76617012018928,0.5,0.466705655961693,0.500020215460483,0.5,0.694161250881954,0.654010338474409,2.83833255361545,1.9730377691133,0.5,28.3468255347698
181,1,3,A,2,0,l,27,1,1,2A,0A,0,1,0,1,A20,2.75845460280122,2.89037175789616,0.5,0.152919374559023,0.5,0.5,0.5,0.5,0.5,0.5,0.5,0.5,0.847080625440977,0.5,0.5,0.5,0.5,0.5,1.34653064987974,0,0,1,0A,2A,0.5,0.5,0.5,0.5,1,1,0.5,0.347080625440977,0.5,0.903167346308354,0.679530649879745,1.32958188371601,1.76617012018928,0.5,0.334207175413725,0.499487327649197,0.5,0.694161250881954,0.654010338474409,2.83833255361545,1.9730377691133,0.5,28.3468255347698
181,1,4,B,0,1,l,63,1,1,0B,1B,0,1,0,1,B01,1.65820515052047,2.94443897916644,0.847080625440977,0.152919374559023,0.5,0.5,0.5,0.5,0.5,0.5,0.5,0.5,0.847080625440977,0.5,0.5,0.5,0.5,0.5,1.22253064987974,0,0,1,1B,0B,0.5,0.5,0.5,0.5,1,1,0.5,0.347080625440977,0.5,0.903167346308354,0.679530649879745,1.32958188371601,1.76617012018928,0.5,0.3879869208442,0.498883409917602,0.5,0.694161250881954,0.654010338474409,2.83833255361545,1.9730377691133,0.5,28.3468255347698
181,1,5,B,1,0,a,63,1,1,1B,0B,1,0,1,0,B10,1.71933542520174,2.99573227355399,0.847080625440977,0.152919374559023,0.5,0.5,0.5,0.847080625440977,0.5,0.5,0.5,0.5,0.847080625440977,0.5,0.5,0.5,0.5,0.5,1.24853064987974,1,1,0,1B,0B,0.847080625440977,0.5,0.628826968069323,0.371173031930677,1,1,0.152919374559023,0.106150704327977,0.5,0.903167346308354,0.679530649879745,1.32958188371601,1.76617012018928,0.5,0.661471598785384,0.8086550542481,0.5,0.694161250881954,0.654010338474409,2.83833255361545,1.9730377691133,0.5,28.3468255347698
181,1,6,C,2,3,a,63,1,1,2C,3C,1,0,1,0,C23,0.810547842028658,2.35137525716348,0.847080625440977,0.152919374559023,0.5,0.5,0.5,0.953231329768955,0.5,0.5,0.5,0.5,0.847080625440977,0.5,0.5,0.5,0.5,0.5,2.54353064987974,1,1,0,2C,3C,0.847080625440977,0.5,0.628826968069323,0.371173031930677,1,1,0.152919374559023,0.106150704327977,0.5,0.903167346308354,0.679530649879745,1.32958188371601,1.76617012018928,0.5,0.0913110630569642,0.808900715527888,0.5,0.694161250881954,0.654010338474409,2.83833255361545,1.9730377691133,0.5,28.3468255347698
181,1,7,D,1,3,l,27,1,1,1D,3D,0,1,0,1,D13,3.04768211713635,3.09104245335832,0.847080625440977,0.152919374559023,0.5,0.5,0.5,0.953231329768955,0.5,0.5,0.5,0.5,0.953231329768955,0.5,0.5,0.5,0.5,0.5,0.900530649879745,1,1,0,1D,3D,0.5,0.5,0.5,0.5,0,0,-0.5,-0.347080625440977,0.5,0.903167346308354,0.679530649879745,1.32958188371601,1.76617012018928,0.5,0.446417367949832,0.499728968043565,0.5,0.694161250881954,0.654010338474409,2.83833255361545,1.9730377691133,0.5,28.3468255347698
181,1,8,C,2,1,a,9,1,1,2C,1C,1,0,1,0,C21,3.44399163715775,3.13549421592915,0.847080625440977,0.152919374559023,0.5,0.5,0.5,0.953231329768955,0.5,0.5,0.5,0.5,0.953231329768955,0.5,0.5,0.152919374559023,0.5,0.5,1.12953064987974,1,1,0,2C,1C,0.953231329768955,0.5,0.655939154518852,0.344060845481148,1,1,0.0467686702310455,0.0324649986296681,0.5,0.903167346308354,0.679530649879745,1.32958188371601,1.76617012018928,0.5,0.857679331717662,0.852026910304596,0.5,0.694161250881954,0.654010338474409,2.83833255361545,1.9730377691133,0.5,28.3468255347698
181,1,9,B,1,3,a,27,1,1,1B,3B,1,0,1,0,B13,2.12417469150626,3.17805383034795,0.847080625440977,0.152919374559023,0.5,0.5,0.5,0.953231329768955,0.5,0.5,0.5,0.5,0.985696328398623,0.5,0.5,0.152919374559023,0.5,0.5,1.80353064987974,1,1,0,1B,3B,0.953231329768955,0.5,0.655939154518852,0.344060845481148,1,1,0.0467686702310455,0.0324649986296681,0.5,0.903167346308354,0.679530649879745,1.32958188371601,1.76617012018928,0.5,0.286862049606991,0.851653999827253,0.5,0.694161250881954,0.654010338474409,2.83833255361545,1.9730377691133,0.5,28.3468255347698
181,1,10,D,2,3,l,63,1,1,2D,3D,0,1,0,1,D23,3.48896957496163,3.2188758248682,0.847080625440977,0.152919374559023,0.5,0.5,0.5,0.985696328398623,0.5,0.5,0.5,0.5,0.985696328398623,0.5,0.5,0.152919374559023,0.5,0.5,1.44653064987974,0,0,1,3D,2D,0.5,0.5,0.5,0.5,1,1,0.5,0.347080625440977,0.5,0.903167346308354,0.679530649879745,1.32958188371601,1.76617012018928,0.5,0.295540002735332,0.50053793976794,0.5,0.694161250881954,0.654010338474409,2.83833255361545,1.9730377691133,0.5,28.3468255347698
181,1,11,B,0,1,l,63,1,1,0B,1B,0,1,0,1,B01,2.50890932303214,2.56494935746154,0.847080625440977,0.152919374559023,0.5,0.5,0.5,0.985696328398623,0.5,0.5,0.5,0.5,0.985696328398623,0.5,0.5,0.152919374559023,0.5,0.847080625440977,1.13953064987974,0,0,1,1B,0B,0.985696328398623,0.5,0.663457470788171,0.336542529211829,1,1,0.0143036716013774,0.00992905457101679,0.5,0.903167346308354,0.679530649879745,1.32958188371601,1.76617012018928,0.5,0.864286521315335,0.861730888518945,0.5,0.694161250881954,0.654010338474409,2.83833255361545,1.9730377691133,0.5,28.3468255347698
181,1,12,C,2,0,a,27,1,1,2C,0C,1,0,1,0,C20,1.93124892073293,3.29583686600433,0.847080625440977,0.152919374559023,0.5,0.5,0.5,0.995625382969639,0.5,0.5,0.5,0.5,0.985696328398623,0.5,0.5,0.152919374559023,0.5,0.847080625440977,0.905530649879745,1,1,0,2C,0C,0.985696328398623,0.5,0.663457470788171,0.336542529211829,1,1,0.0143036716013774,0.00992905457101679,0.5,0.903167346308354,0.679530649879745,1.32958188371601,1.76617012018928,0.5,1.01033482163455,0.861857514871499,0.5,0.694161250881954,0.654010338474409,2.83833255361545,1.9730377691133,0.5,28.3468255347698
181,1,13,D,2,3,l,63,1,1,2D,3D,0,1,0,1,D23,3.11381957055546,2.63905732961526,0.847080625440977,0.152919374559023,0.5,0.5,0.5,0.995625382969639,0.5,0.5,0.5,0.5,0.995625382969639,0.5,0.5,0.152919374559023,0.5,0.847080625440977,1.04953064987974,1,1,0,2D,3D,0.5,0.847080625440977,0.371173031930677,0.628826968069323,0,0,-0.5,-0.347080625440977,0.5,0.903167346308354,0.679530649879745,1.32958188371601,1.76617012018928,0.5,0.201756350266644,0.190658242697731,0.5,0.694161250881954,0.654010338474409,2.83833255361545,1.9730377691133,0.5,28.3468255347698
181,1,14,A,0,1,a,63,1,1,0A,1A,1,0,1,0,A01,0.0892523395187113,3.36729582998647,0.847080625440977,0.152919374559023,0.5,0.5,0.5,0.995625382969639,0.5,0.5,0.5,0.5,0.995625382969639,0.5,0.5,0.152919374559023,0.152919374559023,0.847080625440977,1.54653064987974,1,1,0,0A,1A,0.847080625440977,0.152919374559023,0.847080625440977,0.152919374559023,1,1,0.152919374559023,0.106150704327977,0.5,0.903167346308354,0.679530649879745,1.32958188371601,1.76617012018928,0.5,0.321541061892425,0.979903440801586,0.5,0.694161250881954,0.654010338474409,2.83833255361545,1.9730377691133,0.5,28.3468255347698
181,1,15,C,3,2,l,63,1,1,3C,2C,0,1,0,1,C32,0.957086931131419,3.40119738166216,0.953231329768955,0.152919374559023,0.5,0.5,0.5,0.995625382969639,0.5,0.5,0.5,0.5,0.995625382969639,0.5,0.5,0.152919374559023,0.152919374559023,0.847080625440977,1.68253064987974,1,1,0,3C,2C,0.5,0.995625382969639,0.334308313895572,0.665691686104428,0,0,-0.5,-0.347080625440977,0.5,0.903167346308354,0.679530649879745,1.32958188371601,1.76617012018928,0.5,0.054793786964246,0.134838850031021,0.5,0.694161250881954,0.654010338474409,2.83833255361545,1.9730377691133,0.5,28.3468255347698
181,1,16,A,2,0,l,27,1,1,2A,0A,0,1,0,1,A20,2.22350679972149,2.7408400239252,0.953231329768955,0.152919374559023,0.5,0.5,0.5,0.995625382969639,0.5,0.5,0.5,0.5,0.995625382969639,0.152919374559023,0.5,0.152919374559023,0.152919374559023,0.847080625440977,2.22453064987974,1,1,0,2A,0A,0.5,0.953231329768955,0.344060845481148,0.655939154518852,0,0,-0.5,-0.347080625440977,0.5,0.903167346308354,0.679530649879745,1.32958188371601,1.76617012018928,0.5,0.0249327460286726,0.148726046213293,0.5,0.694161250881954,0.654010338474409,2.83833255361545,1.9730377691133,0.5,28.3468255347698
181,1,17,D,3,2,a,63,1,1,3D,2D,1,0,1,0,D32,2.47347786066293,3.46573590279973,0.953231329768955,0.152919374559023,0.152919374559023,0.5,0.5,0.995625382969639,0.5,0.5,0.5,0.5,0.995625382969639,0.152919374559023,0.5,0.152919374559023,0.152919374559023,0.847080625440977,1.15153064987974,1,1,0,3D,2D,0.847080625440977,0.152919374559023,0.847080625440977,0.152919374559023,1,1,0.152919374559023,0.106150704327977,0.5,0.903167346308354,0.679530649879745,1.32958188371601,1.76617012018928,0.5,1.12009216849713,0.979820407736233,0.5,0.694161250881954,0.654010338474409,2.83833255361545,1.9730377691133,0.5,28.3468255347698
181,1,18,D,2,3,l,63,1,1,2D,3D,0,1,0,1,D23,3.33205819886889,2.39789527279837,0.953231329768955,0.152919374559023,0.152919374559023,0.5,0.5,0.995625382969639,0.5,0.5,0.5,0.5,0.995625382969639,0.152919374559023,0.5,0.152919374559023,0.152919374559023,0.953231329768955,1.07753064987974,0,0,1,3D,2D,0.953231329768955,0.152919374559023,0.861755388338403,0.138244611661597,1,1,0.0467686702310455,0.0324649986296681,0.5,0.903167346308354,0.679530649879745,1.32958188371601,1.76617012018928,0.5,1.40464158769253,0.982897686832943,0.5,0.694161250881954,0.654010338474409,2.83833255361545,1.9730377691133,0.5,28.3468255347698
181,1,19,B,1,3,a,27,1,1,1B,3B,1,0,1,0,B13,0.973141590955261,2.83321334405622,0.953231329768955,0.152919374559023,0.152919374559023,0.5,0.5,0.995625382969639,0.5,0.5,0.5,0.5,0.995625382969639,0.152919374559023,0.5,0.152919374559023,0.152919374559023,0.985696328398623,1.12853064987974,1,1,0,1B,3B,0.995625382969639,0.5,0.665691686104428,0.334308313895572,1,1,0.00437461703036057,0.0030366896299246,0.5,0.903167346308354,0.679530649879745,1.32958188371601,1.76617012018928,0.5,0.884760771315775,0.864890902787888,0.5,0.694161250881954,0.654010338474409,2.83833255361545,1.9730377691133,0.5,28.3468255347698
181,1,20,D,3,0,a,9,1,1,3D,0D,1,0,1,0,D30,2.74912256272096,3.55534806148941,0.953231329768955,0.152919374559023,0.152919374559023,0.5,0.5,0.998662072599564,0.5,0.5,0.5,0.5,0.995625382969639,0.152919374559023,0.5,0.152919374559023,0.152919374559023,0.985696328398623,1.64253064987974,1,1,0,3D,0D,0.985696328398623,0.5,0.663457470788171,0.336542529211829,1,1,0.0143036716013774,0.00992905457101679,0.5,0.903167346308354,0.679530649879745,1.32958188371601,1.76617012018928,0.5,0.376109694898934,0.861653218647534,0.5,0.694161250881954,0.654010338474409,2.83833255361545,1.9730377691133,0.5,28.3468255347698
181,1,21,B,0,1,l,63,1,1,0B,1B,0,1,0,1,B01,0.666266865794112,2.484906649788,0.953231329768955,0.152919374559023,0.152919374559023,0.5,0.5,0.998662072599564,0.5,0.5,0.5,0.5,0.995625382969639,0.152919374559023,0.5,0.152919374559023,0.152919374559023,0.995625382969639,1.34553064987974,0,0,1,1B,0B,0.998662072599564,0.5,0.666369084037267,0.333630915962733,1,1,0.00133792740043592,0.000928737357875842,0.5,0.903167346308354,0.679530649879745,1.32958188371601,1.76617012018928,0.5,0.624813433323428,0.865780390406782,0.5,0.694161250881954,0.654010338474409,2.83833255361545,1.9730377691133,0.5,28.3468255347698
181,1,22,A,0,1,a,63,1,1,0A,1A,1,0,1,0,A01,1.99236139890623,2.91777073208428,0.953231329768955,0.152919374559023,0.152919374559023,0.5,0.5,0.99959080995744,0.5,0.5,0.5,0.5,0.995625382969639,0.152919374559023,0.5,0.152919374559023,0.152919374559023,0.995625382969639,0.805530649879745,1,1,0,0A,1A,0.953231329768955,0.152919374559023,0.861755388338403,0.138244611661597,1,1,0.0467686702310455,0.0324649986296681,0.5,0.903167346308354,0.679530649879745,1.32958188371601,1.76617012018928,0.5,1.48195402043019,0.982927376931003,0.5,0.694161250881954,0.654010338474409,2.83833255361545,1.9730377691133,0.5,28.3468255347698
181,1,23,C,3,2,l,63,1,1,3C,2C,0,1,0,1,C32,0.418601786826452,2.94443897916644,0.985696328398623,0.152919374559023,0.152919374559023,0.5,0.5,0.99959080995744,0.5,0.5,0.5,0.5,0.995625382969639,0.152919374559023,0.5,0.152919374559023,0.152919374559023,0.995625382969639,0.778530649879745,0,0,1,2C,3C,0.995625382969639,0.152919374559023,0.866858149361056,0.133141850638944,1,1,0.00437461703036057,0.0030366896299246,0.5,0.903167346308354,0.679530649879745,1.32958188371601,1.76617012018928,0.5,1.07119632794744,0.983830940989017,0.5,0.694161250881954,0.654010338474409,2.83833255361545,1.9730377691133,0.5,28.3468255347698
181,1,24,A,2,0,l,27,1,1,2A,0A,0,1,0,1,A20,1.49118836957439,2.56494935746154,0.985696328398623,0.152919374559023,0.152919374559023,0.5,0.5,0.99959080995744,0.5,0.5,0.5,0.5,0.998662072599564,0.152919374559023,0.5,0.152919374559023,0.152919374559023,0.995625382969639,0.837530649879745,0,0,1,0A,2A,0.985696328398623,0.152919374559023,0.86569711434525,0.134302885654749,1,1,0.0143036716013774,0.00992905457101679,0.5,0.903167346308354,0.679530649879745,1.32958188371601,1.76617012018928,0.5,1.84069114103254,0.983554335027891,0.5,0.694161250881954,0.654010338474409,2.83833255361545,1.9730377691133,0.5,28.3468255347698
181,1,25,B,0,1,l,63,1,1,0B,1B,0,1,0,1,B01,1.82064695531404,2.30258509299405,0.995625382969639,0.152919374559023,0.152919374559023,0.5,0.5,0.99959080995744,0.5,0.5,0.5,0.5,0.998662072599564,0.152919374559023,0.5,0.152919374559023,0.152919374559023,0.995625382969639,2.09253064987974,0,0,1,1B,0B,0.99959080995744,0.5,0.666575710733923,0.333424289266077,1,1,0.000409190042560126,0.000284043871791977,0.5,0.903167346308354,0.679530649879745,1.32958188371601,1.76617012018928,0.5,0.174178692439318,0.865612127561755,0.5,0.694161250881954,0.654010338474409,2.83833255361545,1.9730377691133,0.5,28.3468255347698
181,1,26,D,3,2,a,63,1,1,3D,2D,1,0,1,0,D32,2.61479762317189,3.02042488614436,0.995625382969639,0.152919374559023,0.152919374559023,0.5,0.5,0.999874853829232,0.5,0.5,0.5,0.5,0.998662072599564,0.152919374559023,0.5,0.152919374559023,0.152919374559023,0.995625382969639,1.07653064987974,1,1,0,3D,2D,0.995625382969639,0.152919374559023,0.866858149361056,0.133141850638944,1,1,0.00437461703036057,0.0030366896299246,0.5,0.903167346308354,0.679530649879745,1.32958188371601,1.76617012018928,0.5,1.41351272349863,0.983857738780732,0.5,0.694161250881954,0.654010338474409,2.83833255361545,1.9730377691133,0.5,28.3468255347698
181,1,27,B,2,1,l,9,1,1,2B,1B,0,1,0,1,B21,1.08564677308948,3.73766961828337,0.995625382969639,0.152919374559023,0.152919374559023,0.5,0.5,0.999874853829232,0.5,0.5,0.5,0.5,0.998662072599564,0.152919374559023,0.5,0.152919374559023,0.152919374559023,0.998662072599564,0.793530649879745,0,0,1,1B,2B,0.999874853829232,0.5,0.666638854086071,0.333361145913929,1,1,0.000125146170768198,8.68716224435388e-05,0.5,0.903167346308354,0.679530649879745,1.32958188371601,1.76617012018928,0.5,0.55238491311918,0.866480175280896,0.5,0.694161250881954,0.654010338474409,2.83833255361545,1.9730377691133,0.5,28.3468255347698
181,1,28,D,3,1,a,27,1,1,3D,1D,1,0,1,0,D31,1.5889384243385,3.76120011569356,0.995625382969639,0.152919374559023,0.152919374559023,0.5,0.5,0.999961725451675,0.5,0.5,0.5,0.5,0.998662072599564,0.152919374559023,0.5,0.152919374559023,0.152919374559023,0.998662072599564,0.942530649879745,1,1,0,3D,1D,0.998662072599564,0.152919374559023,0.86720924087798,0.13279075912202,1,1,0.00133792740043592,0.000928737357875842,0.5,0.903167346308354,0.679530649879745,1.32958188371601,1.76617012018928,0.5,1.9634714934406,0.983880926055029,0.5,0.694161250881954,0.654010338474409,2.83833255361545,1.9730377691133,0.5,28.3468255347698
181,1,29,A,0,1,a,63,1,1,0A,1A,1,0,1,0,A01,0.195111710507429,2.68557734525015,0.995625382969639,0.152919374559023,0.152919374559023,0.5,0.5,0.999961725451675,0.5,0.5,0.5,0.5,0.998662072599564,0.152919374559023,0.5,0.152919374559023,0.152919374559023,0.99959080995744,0.889530649879745,1,1,0,0A,1A,0.995625382969639,0.152919374559023,0.866858149361056,0.133141850638944,1,1,0.00437461703036057,0.0030366896299246,0.5,0.903167346308354,0.679530649879745,1.32958188371601,1.76617012018928,0.5,2.04298540780873,0.983862174712695,0.5,0.694161250881954,0.654010338474409,2.83833255361545,1.9730377691133,0.5,28.3468255347698
181,1,30,A,1,0,l,63,1,1,1A,0A,0,1,0,1,A10,2.43783121980174,3.11351530921037,0.998662072599564,0.152919374559023,0.152919374559023,0.5,0.5,0.999961725451675,0.5,0.5,0.5,0.5,0.998662072599564,0.152919374559023,0.5,0.152919374559023,0.152919374559023,0.99959080995744,1.07353064987974,0,0,1,0A,1A,0.998662072599564,0.152919374559023,0.86720924087798,0.13279075912202,1,1,0.00133792740043592,0.000928737357875842,0.5,0.903167346308354,0.679530649879745,1.32958188371601,1.76617012018928,0.5,1.42659813773252,0.983922997977464,0.5,0.694161250881954,0.654010338474409,2.83833255361545,1.9730377691133,0.5,28.3468255347698
181,1,31,C,2,0,a,27,1,1,2C,0C,1,0,1,0,C20,1.08325359570481,3.13549421592915,0.99959080995744,0.152919374559023,0.152919374559023,0.5,0.5,0.999961725451675,0.5,0.5,0.5,0.5,0.998662072599564,0.152919374559023,0.5,0.152919374559023,0.152919374559023,0.99959080995744,0.856530649879744,0,0,1,0C,2C,0.5,0.998662072599564,0.333630915962733,0.666369084037267,0,0,-0.5,-0.347080625440977,0.5,0.903167346308354,0.679530649879745,1.32958188371601,1.76617012018928,0.5,0.140517847093531,0.134211303525721,0.5,0.694161250881954,0.654010338474409,2.83833255361545,1.9730377691133,0.5,28.3468255347698
181,1,32,A,0,1,a,63,1,1,0A,1A,1,0,1,0,A01,1.54416138826108,2.46385324059017,0.99959080995744,0.152919374559023,0.152919374559023,0.5,0.5,0.999961725451675,0.5,0.5,0.152919374559023,0.5,0.998662072599564,0.152919374559023,0.5,0.152919374559023,0.152919374559023,0.99959080995744,0.869530649879745,1,1,0,0A,1A,0.99959080995744,0.152919374559023,0.867316248816334,0.132683751183666,1,1,0.000409190042560126,0.000284043871791977,0.5,0.903167346308354,0.679530649879745,1.32958188371601,1.76617012018928,0.5,2.01286745349996,0.983883594525684,0.5,0.694161250881954,0.654010338474409,2.83833255361545,1.9730377691133,0.5,28.3468255347698
181,1,33,B,0,1,l,63,1,1,0B,1B,0,1,0,1,B01,1.62953948072718,2.26176309847379,0.999874853829232,0.152919374559023,0.152919374559023,0.5,0.5,0.999961725451675,0.5,0.5,0.152919374559023,0.5,0.998662072599564,0.152919374559023,0.5,0.152919374559023,0.152919374559023,0.99959080995744,2.47453064987974,0,0,1,1B,0B,0.999961725451675,0.5,0.66665816099445,0.33334183900555,1,1,3.82745483246127e-05,2.6568708341955e-05,0.5,0.903167346308354,0.679530649879745,1.32958188371601,1.76617012018928,0.5,0.0904195888304855,0.865969718834029,0.5,0.694161250881954,0.654010338474409,2.83833255361545,1.9730377691133,0.5,28.3468255347698
181,1,34,D,2,3,l,63,1,1,2D,3D,0,1,0,1,D23,3.38414694335991,2.50552593699074,0.999874853829232,0.152919374559023,0.152919374559023,0.5,0.5,0.999988294160017,0.5,0.5,0.152919374559023,0.5,0.998662072599564,0.152919374559023,0.5,0.152919374559023,0.152919374559023,0.99959080995744,0.949530649879745,0,0,1,3D,2D,0.99959080995744,0.152919374559023,0.867316248816334,0.132683751183666,1,1,0.000409190042560126,0.000284043871791977,0.5,0.903167346308354,0.679530649879745,1.32958188371601,1.76617012018928,0.5,1.94281924403319,0.983934417187938,0.5,0.694161250881954,0.654010338474409,2.83833255361545,1.9730377691133,0.5,28.3468255347698
181,1,35,B,1,3,a,27,1,1,1B,3B,1,0,1,0,B13,1.21446945197441,2.81341071676004,0.999874853829232,0.152919374559023,0.152919374559023,0.5,0.5,0.999988294160017,0.5,0.5,0.152919374559023,0.5,0.998662072599564,0.152919374559023,0.5,0.152919374559023,0.152919374559023,0.999874853829232,1.20853064987974,1,1,0,1B,3B,0.999988294160017,0.5,0.666664065348592,0.333335934651408,1,1,1.17058399826675e-05,8.12574052499246e-06,0.5,0.903167346308354,0.679530649879745,1.32958188371601,1.76617012018928,0.5,0.783815652222362,0.865827570264704,0.5,0.694161250881954,0.654010338474409,2.83833255361545,1.9730377691133,0.5,28.3468255347698
181,1,36,C,2,3,a,63,1,1,2C,3C,1,0,1,0,C23,1.97821831836654,2.83321334405622,0.999874853829232,0.152919374559023,0.152919374559023,0.5,0.5,0.999996419900542,0.5,0.5,0.152919374559023,0.5,0.998662072599564,0.152919374559023,0.5,0.152919374559023,0.152919374559023,0.999874853829232,0.763530649879745,1,1,0,2C,3C,0.998662072599564,0.152919374559023,0.86720924087798,0.13279075912202,1,1,0.00133792740043592,0.000928737357875842,0.5,0.903167346308354,0.679530649879745,1.32958188371601,1.76617012018928,0.5,0.786197828834214,0.983865942441677,0.5,0.694161250881954,0.654010338474409,2.83833255361545,1.9730377691133,0.5,28.3468255347698
181,1,37,C,0,2,l,27,1,1,0C,2C,0,1,0,1,C02,0.162970176415646,3.95124371858143,0.999874853829232,0.152919374559023,0.152919374559023,0.5,0.5,0.999996419900542,0.5,0.5,0.152919374559023,0.5,0.99959080995744,0.152919374559023,0.5,0.152919374559023,0.152919374559023,0.999874853829232,1.06253064987974,0,0,1,2C,0C,0.99959080995744,0.152919374559023,0.867316248816334,0.132683751183666,1,1,0.000409190042560126,0.000284043871791977,0.5,0.903167346308354,0.679530649879745,1.32958188371601,1.76617012018928,0.5,1.47367825696251,0.983892851711331,0.5,0.694161250881954,0.654010338474409,2.83833255361545,1.9730377691133,0.5,28.3468255347698
181,1,38,B,0,1,l,63,1,1,0B,1B,0,1,0,1,B01,1.04309822523164,2.17853244432407,0.999874853829232,0.152919374559023,0.152919374559023,0.5,0.5,0.999996419900542,0.5,0.5,0.152919374559023,0.5,0.999874853829232,0.152919374559023,0.5,0.152919374559023,0.152919374559023,0.999874853829232,1.06853064987974,0,0,1,1B,0B,0.999996419900542,0.5,0.666665871087111,0.333334128912889,1,1,3.58009945766735e-06,2.48516631781617e-06,0.5,0.903167346308354,0.679530649879745,1.32958188371601,1.76617012018928,0.5,0.962962031034754,0.866134660578868,0.5,0.694161250881954,0.654010338474409,2.83833255361545,1.9730377691133,0.5,28.3468255347698
181,1,39,A,0,3,a,9,1,1,0A,3A,1,0,1,0,A03,0.996567853079124,3.98898404656427,0.999874853829232,0.152919374559023,0.152919374559023,0.5,0.5,0.99999890506686,0.5,0.5,0.152919374559023,0.5,0.999874853829232,0.152919374559023,0.5,0.152919374559023,0.152919374559023,0.999874853829232,1.35653064987974,1,1,0,0A,3A,0.999874853829232,0.5,0.666638854086071,0.333361145913929,1,1,0.000125146170768198,8.68716224435388e-05,0.5,0.903167346308354,0.679530649879745,1.32958188371601,1.76617012018928,0.5,0.613164213944441,0.865601235408894,0.5,0.694161250881954,0.654010338474409,2.83833255361545,1.9730377691133,0.5,28.3468255347698
181,1,40,C,2,3,a,63,1,1,2C,3C,1,0,1,0,C23,2.98787026868889,2.62103882411258,0.999961725451675,0.152919374559023,0.152919374559023,0.5,0.5,0.99999890506686,0.5,0.5,0.152919374559023,0.5,0.999874853829232,0.152919374559023,0.5,0.152919374559023,0.152919374559023,0.999874853829232,1.30853064987974,1,1,0,2C,3C,0.999874853829232,0.152919374559023,0.867348941560175,0.132651058439825,1,1,0.000125146170768198,8.68716224435388e-05,0.5,0.903167346308354,0.679530649879745,1.32958188371601,1.76617012018928,0.5,0.660721023324825,0.983965079387475,0.5,0.694161250881954,0.654010338474409,2.83833255361545,1.9730377691133,0.5,28.3468255347698
181,1,41,A,0,1,a,63,1,1,0A,1A,1,0,1,0,A01,0.530542313378826,2.41591377830105,0.999961725451675,0.152919374559023,0.152919374559023,0.5,0.5,0.99999890506686,0.5,0.5,0.152919374559023,0.5,0.999961725451675,0.152919374559023,0.5,0.152919374559023,0.152919374559023,0.999874853829232,0.941530649879745,1,1,0,0A,1A,0.999961725451675,0.152919374559023,0.867358937051181,0.132641062948819,1,1,3.82745483246127e-05,2.6568708341955e-05,0.5,0.903167346308354,0.679530649879745,1.32958188371601,1.76617012018928,0.5,1.96689090876384,0.983899220299422,0.5,0.694161250881954,0.654010338474409,2.83833255361545,1.9730377691133,0.5,28.3468255347698
181,1,42,D,2,3,l,63,1,1,2D,3D,0,1,0,1,D23,2.26769532511349,2.43361335540045,0.999988294160017,0.152919374559023,0.152919374559023,0.5,0.5,0.99999890506686,0.5,0.5,0.152919374559023,0.5,0.999961725451675,0.152919374559023,0.5,0.152919374559023,0.152919374559023,0.999874853829232,1.59253064987974,0,0,1,3D,2D,0.999874853829232,0.152919374559023,0.867348941560175,0.132651058439825,1,1,0.000125146170768198,8.68716224435388e-05,0.5,0.903167346308354,0.679530649879745,1.32958188371601,1.76617012018928,0.5,0.249949766465525,0.98388659869572,0.5,0.694161250881954,0.654010338474409,2.83833255361545,1.9730377691133,0.5,28.3468255347698
181,1,43,C,3,2,l,63,1,1,3C,2C,0,1,0,1,C32,0.22225337973779,2.96183072187831,0.999988294160017,0.152919374559023,0.152919374559023,0.5,0.5,0.99999890506686,0.5,0.5,0.152919374559023,0.5,0.999961725451675,0.152919374559023,0.5,0.152919374559023,0.152919374559023,0.999961725451675,2.24353064987974,0,0,1,2C,3C,0.999961725451675,0.152919374559023,0.867358937051181,0.132641062948819,1,1,3.82745483246127e-05,2.6568708341955e-05,0.5,0.903167346308354,0.679530649879745,1.32958188371601,1.76617012018928,0.5,0.0264940057064923,0.983961994659902,0.5,0.694161250881954,0.654010338474409,2.83833255361545,1.9730377691133,0.5,28.3468255347698
181,1,44,D,3,1,a,27,1,1,3D,1D,1,0,1,0,D31,0.923164102132596,3.38439026334577,0.999988294160017,0.152919374559023,0.152919374559023,0.5,0.5,0.99999890506686,0.5,0.5,0.152919374559023,0.5,0.999988294160017,0.152919374559023,0.5,0.152919374559023,0.152919374559023,0.999961725451675,1.15853064987974,1,1,0,3D,1D,0.999961725451675,0.152919374559023,0.867358937051181,0.132641062948819,1,1,3.82745483246127e-05,2.6568708341955e-05,0.5,0.903167346308354,0.679530649879745,1.32958188371601,1.76617012018928,0.5,1.09218011458423,0.983896101333661,0.5,0.694161250881954,0.654010338474409,2.83833255361545,1.9730377691133,0.5,28.3468255347698
