ID,session,trialNr,mod2Stim,visStimLeft,visStimRight,correctKey,frequency,rewardAccurate,probFB,stimPairLeft,stimPairRight,leftCorrect,rightCorrect,pCorrectLeft,pCorrectRight,triplet,rt,surprise,0A belief,1A belief,2A belief,3A belief,0B belief,1B belief,2B belief,3B belief,0C belief,1C belief,2C belief,3C belief,0D belief,1D belief,2D belief,3D belief,reactionTime,choice,choiceLeft,choiceRight,chosenPair,otherPair,beliefPair,beliefOtherPair,beliefPairNorm,beliefOtherPairNorm,choiceAccurate,reward,rewardPE,update2,sim_CBCsimpleRW_CBCdriftDiffusionLR_pwBelief_startBelief,sim_CBCsimpleRW_CBCdriftDiffusionLR_pwBelief_alpha1,sim_CBCsimpleRW_CBCdriftDiffusionLR_pwBelief_nonDecisionTime,sim_CBCsimpleRW_CBCdriftDiffusionLR_pwBelief_weight,sim_CBCsimpleRW_CBCdriftDiffusionLR_pwBelief_startingBoundary,sim_CBCsimpleRW_CBCdriftDiffusionLR_pwBelief_startingPoint,lik,corrLik,fitCBCsimpleRW_CBCdriftDiffusionLR_pwBelief_startBelief,fitCBCsimpleRW_CBCdriftDiffusionLR_pwBelief_alpha1,fitCBCsimpleRW_CBCdriftDiffusionLR_pwBelief_nonDecisionTime,fitCBCsimpleRW_CBCdriftDiffusionLR_pwBelief_weight,fitCBCsimpleRW_CBCdriftDiffusionLR_pwBelief_startingBoundary,fitCBCsimpleRW_CBCdriftDiffusionLR_pwBelief_startingPoint,fit_CBCsimpleRW_CBCdriftDiffusionLR_pwBelief_NLL
104,1,1,C,0,2,l,27,1,0.95,0C,2C,0,1,0,1,C02,1.73990677742057,2.77258872223978,0.5,0.5,0.5,0.5,0.5,0.5,0.5,0.5,0.5,0.5,0.5,0.5,0.5,0.5,0.5,0.5,1.8863847072314,0,0,1,2C,0C,0.5,0.5,0.5,0.5,1,1,0.5,0.320860399298416,0.5,0.71003349333612,1.0813847072314,7.58263912979568,4.01823206649386,0.5,0.0998436733009801,0.498468577778765,0.5,0.641720798596831,1.08782050127431,7.79222830144003,3.90678281197314,0.5,-28.3818430304319
104,1,2,D,2,3,l,63,1,0.95,2D,3D,0,1,0,1,D23,2.69071750684746,2.83321334405622,0.5,0.5,0.5,0.5,0.5,0.5,0.5,0.5,0.5,0.5,0.820860399298416,0.5,0.5,0.5,0.5,0.5,3.6323847072314,1,1,0,2D,3D,0.5,0.5,0.5,0.5,0,0,-0.5,-0.320860399298416,0.5,0.71003349333612,1.0813847072314,7.58263912979568,4.01823206649386,0.5,0.0901736901313376,0.500776530719876,0.5,0.641720798596831,1.08782050127431,7.79222830144003,3.90678281197314,0.5,-28.3818430304319
104,1,3,A,0,1,a,63,1,0.95,0A,1A,1,0,1,0,A01,1.13815753989137,2.89037175789616,0.5,0.5,0.5,0.5,0.5,0.5,0.5,0.5,0.5,0.5,0.820860399298416,0.5,0.5,0.5,0.179139600701584,0.5,4.2873847072314,0,0,1,1A,0A,0.5,0.5,0.5,0.5,0,0,-0.5,-0.320860399298416,0.5,0.71003349333612,1.0813847072314,7.58263912979568,4.01823206649386,0.5,0.073007230751979,0.499373186919323,0.5,0.641720798596831,1.08782050127431,7.79222830144003,3.90678281197314,0.5,-28.3818430304319
104,1,4,C,3,2,l,63,1,0.95,3C,2C,0,1,0,1,C32,2.52424731509856,2.94443897916644,0.5,0.179139600701584,0.5,0.5,0.5,0.5,0.5,0.5,0.5,0.5,0.820860399298416,0.5,0.5,0.5,0.179139600701584,0.5,1.6283847072314,0,0,1,2C,3C,0.820860399298416,0.5,0.820860399298416,0.179139600701584,1,1,0.179139600701584,0.114957607622538,0.5,0.71003349333612,1.0813847072314,7.58263912979568,4.01823206649386,0.5,1.16649592968969,0.999999996712279,0.5,0.641720798596831,1.08782050127431,7.79222830144003,3.90678281197314,0.5,-28.3818430304319
104,1,5,A,2,0,l,27,1,0.95,2A,0A,0,1,0,1,A20,2.34758202997319,2.99573227355399,0.5,0.179139600701584,0.5,0.5,0.5,0.5,0.5,0.5,0.5,0.5,0.935818006920954,0.5,0.5,0.5,0.179139600701584,0.5,2.5133847072314,1,1,0,2A,0A,0.5,0.5,0.5,0.5,0,0,-0.5,-0.320860399298416,0.5,0.71003349333612,1.0813847072314,7.58263912979568,4.01823206649386,0.5,0.120134317647306,0.500235461146037,0.5,0.641720798596831,1.08782050127431,7.79222830144003,3.90678281197314,0.5,-28.3818430304319
104,1,6,D,3,2,a,63,1,0.95,3D,2D,1,0,1,0,D32,2.93826844143708,3.04452243772342,0.5,0.179139600701584,0.179139600701584,0.5,0.5,0.5,0.5,0.5,0.5,0.5,0.935818006920954,0.5,0.5,0.5,0.179139600701584,0.5,1.4443847072314,1,1,0,3D,2D,0.5,0.179139600701584,0.820860399298416,0.179139600701584,1,1,0.5,0.320860399298416,0.5,0.71003349333612,1.0813847072314,7.58263912979568,4.01823206649386,0.5,3.51339571470112,0.999999996706852,0.5,0.641720798596831,1.08782050127431,7.79222830144003,3.90678281197314,0.5,-28.3818430304319
104,1,7,D,2,3,l,63,1,0.95,2D,3D,0,1,0,1,D23,2.73095215387067,2.39789527279837,0.5,0.179139600701584,0.179139600701584,0.5,0.5,0.5,0.5,0.5,0.5,0.5,0.935818006920954,0.5,0.5,0.5,0.179139600701584,0.820860399298416,1.3603847072314,0,0,1,3D,2D,0.820860399298416,0.179139600701584,0.954539071217814,0.0454609287821857,1,1,0.179139600701584,0.114957607622538,0.5,0.71003349333612,1.0813847072314,7.58263912979568,4.01823206649386,0.5,5.47128827748614,0.999999999999043,0.5,0.641720798596831,1.08782050127431,7.79222830144003,3.90678281197314,0.5,-28.3818430304319
104,1,8,B,1,3,a,27,1,0.95,1B,3B,1,0,1,0,B13,3.01375823060678,3.13549421592915,0.5,0.179139600701584,0.179139600701584,0.5,0.5,0.5,0.5,0.5,0.5,0.5,0.935818006920954,0.5,0.5,0.5,0.179139600701584,0.935818006920954,6.0283847072314,0,0,1,3B,1B,0.5,0.5,0.5,0.5,0,0,-0.5,-0.320860399298416,0.5,0.71003349333612,1.0813847072314,7.58263912979568,4.01823206649386,0.5,0.0415809490249019,0.498987367541781,0.5,0.641720798596831,1.08782050127431,7.79222830144003,3.90678281197314,0.5,-28.3818430304319
104,1,9,D,3,0,a,9,1,0.95,3D,0D,1,0,1,0,D30,3.45172423288718,3.17805383034795,0.5,0.179139600701584,0.179139600701584,0.5,0.5,0.5,0.5,0.179139600701584,0.5,0.5,0.935818006920954,0.5,0.5,0.5,0.179139600701584,0.935818006920954,1.4973847072314,1,1,0,3D,0D,0.935818006920954,0.5,0.935818006920954,0.0641819930790463,1,1,0.0641819930790463,0.0411869198542218,0.5,0.71003349333612,1.0813847072314,7.58263912979568,4.01823206649386,0.5,1.28477005686528,0.999999999997026,0.5,0.641720798596831,1.08782050127431,7.79222830144003,3.90678281197314,0.5,-28.3818430304319
104,1,10,B,0,1,l,63,1,0.95,0B,1B,0,1,0,1,B01,3.13106071110084,3.2188758248682,0.5,0.179139600701584,0.179139600701584,0.5,0.5,0.5,0.5,0.179139600701584,0.5,0.5,0.935818006920954,0.5,0.5,0.5,0.179139600701584,0.977004926775176,6.1563847072314,0,0,1,1B,0B,0.5,0.5,0.5,0.5,1,1,0.5,0.320860399298416,0.5,0.71003349333612,1.0813847072314,7.58263912979568,4.01823206649386,0.5,0.0401157950954841,0.501745322675794,0.5,0.641720798596831,1.08782050127431,7.79222830144003,3.90678281197314,0.5,-28.3818430304319
104,1,11,A,0,1,a,63,1,0.95,0A,1A,1,0,1,0,A01,3.32782151444891,2.56494935746154,0.5,0.179139600701584,0.179139600701584,0.5,0.5,0.820860399298416,0.5,0.179139600701584,0.5,0.5,0.935818006920954,0.5,0.5,0.5,0.179139600701584,0.977004926775176,1.6993847072314,1,1,0,0A,1A,0.5,0.179139600701584,0.820860399298416,0.179139600701584,1,1,0.5,0.320860399298416,0.5,0.71003349333612,1.0813847072314,7.58263912979568,4.01823206649386,0.5,0.599585038202851,0.999999996743941,0.5,0.641720798596831,1.08782050127431,7.79222830144003,3.90678281197314,0.5,-28.3818430304319
104,1,12,B,1,0,a,63,1,0.95,1B,0B,1,0,1,0,B10,1.15398339409011,3.29583686600433,0.820860399298416,0.179139600701584,0.179139600701584,0.5,0.5,0.820860399298416,0.5,0.179139600701584,0.5,0.5,0.935818006920954,0.5,0.5,0.5,0.179139600701584,0.977004926775176,1.3903847072314,1,1,0,1B,0B,0.820860399298416,0.5,0.820860399298416,0.179139600701584,1,1,0.179139600701584,0.114957607622538,0.5,0.71003349333612,1.0813847072314,7.58263912979568,4.01823206649386,0.5,3.39857135969111,0.999999996723664,0.5,0.641720798596831,1.08782050127431,7.79222830144003,3.90678281197314,0.5,-28.3818430304319
104,1,13,D,3,2,a,63,1,0.95,3D,2D,1,0,1,0,D32,0.453503492404263,2.63905732961526,0.820860399298416,0.179139600701584,0.179139600701584,0.5,0.5,0.935818006920954,0.5,0.179139600701584,0.5,0.5,0.935818006920954,0.5,0.5,0.5,0.179139600701584,0.977004926775176,1.3033847072314,1,1,0,3D,2D,0.977004926775176,0.179139600701584,0.994889830189656,0.0051101698103444,1,1,0.0229950732248244,0.0147564167536269,0.5,0.71003349333612,1.0813847072314,7.58263912979568,4.01823206649386,0.5,6.39806719647263,0.999999999999918,0.5,0.641720798596831,1.08782050127431,7.79222830144003,3.90678281197314,0.5,-28.3818430304319
104,1,14,B,3,1,l,27,1,0.95,3B,1B,0,1,0,1,B31,1.59120297314821,3.36729582998647,0.820860399298416,0.179139600701584,0.179139600701584,0.5,0.5,0.935818006920954,0.5,0.179139600701584,0.5,0.5,0.935818006920954,0.5,0.5,0.5,0.179139600701584,0.991761343528803,1.2573847072314,0,0,1,1B,3B,0.935818006920954,0.179139600701584,0.985253395279511,0.0147466047204895,1,1,0.0641819930790463,0.0411869198542218,0.5,0.71003349333612,1.0813847072314,7.58263912979568,4.01823206649386,0.5,2.9575766441827,0.999999999999852,0.5,0.641720798596831,1.08782050127431,7.79222830144003,3.90678281197314,0.5,-28.3818430304319
104,1,15,C,2,3,a,63,1,0.95,2C,3C,1,0,1,0,C23,0.833462711852849,3.40119738166216,0.820860399298416,0.179139600701584,0.179139600701584,0.5,0.5,0.977004926775176,0.5,0.179139600701584,0.5,0.5,0.935818006920954,0.5,0.5,0.5,0.179139600701584,0.991761343528803,1.5253847072314,1,1,0,2C,3C,0.935818006920954,0.5,0.935818006920954,0.0641819930790463,1,1,0.0641819930790463,0.0411869198542218,0.5,0.71003349333612,1.0813847072314,7.58263912979568,4.01823206649386,0.5,0.82322734792968,0.999999999997002,0.5,0.641720798596831,1.08782050127431,7.79222830144003,3.90678281197314,0.5,-28.3818430304319
104,1,16,C,0,2,l,27,1,0.95,0C,2C,0,1,0,1,C02,1.03545273266787,2.7408400239252,0.820860399298416,0.179139600701584,0.179139600701584,0.5,0.5,0.977004926775176,0.5,0.179139600701584,0.5,0.5,0.977004926775176,0.5,0.5,0.5,0.179139600701584,0.991761343528803,1.3113847072314,0,0,1,2C,0C,0.977004926775176,0.5,0.977004926775176,0.0229950732248244,1,1,0.0229950732248244,0.0147564167536269,0.5,0.71003349333612,1.0813847072314,7.58263912979568,4.01823206649386,0.5,6.09786591594162,0.999999999999757,0.5,0.641720798596831,1.08782050127431,7.79222830144003,3.90678281197314,0.5,-28.3818430304319
104,1,17,A,3,0,l,9,1,0.95,3A,0A,0,1,0,1,A30,2.73469251028684,3.46573590279973,0.820860399298416,0.179139600701584,0.179139600701584,0.5,0.5,0.977004926775176,0.5,0.179139600701584,0.5,0.5,0.991761343528803,0.5,0.5,0.5,0.179139600701584,0.991761343528803,1.2973847072314,0,0,1,0A,3A,0.820860399298416,0.5,0.820860399298416,0.179139600701584,1,1,0.179139600701584,0.114957607622538,0.5,0.71003349333612,1.0813847072314,7.58263912979568,4.01823206649386,0.5,1.14833505973093,0.999999996717536,0.5,0.641720798596831,1.08782050127431,7.79222830144003,3.90678281197314,0.5,-28.3818430304319
104,1,18,C,3,2,l,63,0,0.95,3C,2C,0,1,1,0,C32,3.35951506311171,2.80336038090653,0.935818006920954,0.179139600701584,0.179139600701584,0.5,0.5,0.977004926775176,0.5,0.179139600701584,0.5,0.5,0.991761343528803,0.5,0.5,0.5,0.179139600701584,0.991761343528803,1.4093847072314,0,0,1,2C,3C,0.991761343528803,0.5,0.991761343528803,0.00823865647119748,1,0,-0.991761343528803,-0.636433881386769,0.5,0.71003349333612,1.0813847072314,7.58263912979568,4.01823206649386,0.5,2.84777814368942,0.999999999999901,0.5,0.641720798596831,1.08782050127431,7.79222830144003,3.90678281197314,0.5,-28.3818430304319
104,1,19,A,0,1,a,63,1,0.95,0A,1A,1,0,1,0,A01,2.73748036253194,2.42774823594805,0.935818006920954,0.179139600701584,0.179139600701584,0.5,0.5,0.977004926775176,0.5,0.179139600701584,0.5,0.5,0.355327462142033,0.5,0.5,0.5,0.179139600701584,0.991761343528803,1.4223847072314,1,1,0,0A,1A,0.935818006920954,0.179139600701584,0.985253395279511,0.0147466047204894,1,1,0.0641819930790463,0.0411869198542218,0.5,0.71003349333612,1.0813847072314,7.58263912979568,4.01823206649386,0.5,2.44941318883227,0.999999999999853,0.5,0.641720798596831,1.08782050127431,7.79222830144003,3.90678281197314,0.5,-28.3818430304319
104,1,20,D,2,3,l,63,1,0.95,2D,3D,0,1,0,1,D23,2.85244813477816,2.4567357728213,0.977004926775176,0.179139600701584,0.179139600701584,0.5,0.5,0.977004926775176,0.5,0.179139600701584,0.5,0.5,0.355327462142033,0.5,0.5,0.5,0.179139600701584,0.991761343528803,1.3193847072314,0,0,1,3D,2D,0.991761343528803,0.179139600701584,0.998190390365821,0.00180960963417881,1,1,0.00823865647119748,0.0052869172100618,0.5,0.71003349333612,1.0813847072314,7.58263912979568,4.01823206649386,0.5,6.63650865070539,0.999999999999932,0.5,0.641720798596831,1.08782050127431,7.79222830144003,3.90678281197314,0.5,-28.3818430304319
104,1,21,C,2,3,a,63,1,0.95,2C,3C,1,0,1,0,C23,3.07967976325895,2.89037175789616,0.977004926775176,0.179139600701584,0.179139600701584,0.5,0.5,0.977004926775176,0.5,0.179139600701584,0.5,0.5,0.355327462142033,0.5,0.5,0.5,0.179139600701584,0.997048260738864,1.7993847072314,0,0,1,3C,2C,0.5,0.355327462142033,0.644672537857967,0.355327462142033,0,0,-0.5,-0.320860399298416,0.5,0.71003349333612,1.0813847072314,7.58263912979568,4.01823206649386,0.5,1.19151212779846,0.999850182842807,0.5,0.641720798596831,1.08782050127431,7.79222830144003,3.90678281197314,0.5,-28.3818430304319
104,1,22,D,1,3,l,27,1,0.95,1D,3D,0,1,0,1,D13,2.23453395957388,3.61091791264422,0.977004926775176,0.179139600701584,0.179139600701584,0.5,0.5,0.977004926775176,0.5,0.179139600701584,0.5,0.5,0.355327462142033,0.179139600701584,0.5,0.5,0.179139600701584,0.997048260738864,1.3233847072314,0,0,1,3D,1D,0.997048260738864,0.5,0.997048260738864,0.00295173926113568,1,1,0.00295173926113568,0.00189419247590561,0.5,0.71003349333612,1.0813847072314,7.58263912979568,4.01823206649386,0.5,6.58196111573999,0.999999999999929,0.5,0.641720798596831,1.08782050127431,7.79222830144003,3.90678281197314,0.5,-28.3818430304319
104,1,23,A,1,0,l,63,1,0.95,1A,0A,0,1,0,1,A10,2.33976553322579,3.63758615972639,0.977004926775176,0.179139600701584,0.179139600701584,0.5,0.5,0.977004926775176,0.5,0.179139600701584,0.5,0.5,0.355327462142033,0.179139600701584,0.5,0.5,0.179139600701584,0.99894245321477,1.4343847072314,0,0,1,0A,1A,0.977004926775176,0.179139600701584,0.994889830189656,0.00511016981034437,1,1,0.0229950732248244,0.0147564167536269,0.5,0.71003349333612,1.0813847072314,7.58263912979568,4.01823206649386,0.5,1.81001470558956,0.999999999999918,0.5,0.641720798596831,1.08782050127431,7.79222830144003,3.90678281197314,0.5,-28.3818430304319
104,1,24,C,2,3,a,63,1,0.95,2C,3C,1,0,1,0,C23,2.74896258843745,2.56494935746154,0.991761343528803,0.179139600701584,0.179139600701584,0.5,0.5,0.977004926775176,0.5,0.179139600701584,0.5,0.5,0.355327462142033,0.179139600701584,0.5,0.5,0.179139600701584,0.99894245321477,1.9023847072314,1,1,0,2C,3C,0.355327462142033,0.179139600701584,0.71636161662512,0.28363838337488,1,1,0.644672537857967,0.41369977582766,0.5,0.71003349333612,1.0813847072314,7.58263912979568,4.01823206649386,0.5,0.720145993315892,0.999998102545001,0.5,0.641720798596831,1.08782050127431,7.79222830144003,3.90678281197314,0.5,-28.3818430304319
104,1,25,A,2,0,l,27,1,0.95,2A,0A,0,1,0,1,A20,2.99311088392111,2.99573227355399,0.991761343528803,0.179139600701584,0.179139600701584,0.5,0.5,0.977004926775176,0.5,0.179139600701584,0.5,0.5,0.769027237969693,0.179139600701584,0.5,0.5,0.179139600701584,0.99894245321477,1.3163847072314,0,0,1,0A,2A,0.991761343528803,0.179139600701584,0.998190390365821,0.00180960963417881,1,1,0.00823865647119748,0.0052869172100618,0.5,0.71003349333612,1.0813847072314,7.58263912979568,4.01823206649386,0.5,6.64988139257204,0.999999999999933,0.5,0.641720798596831,1.08782050127431,7.79222830144003,3.90678281197314,0.5,-28.3818430304319
104,1,26,B,0,1,l,63,1,0.95,0B,1B,0,1,0,1,B01,0.74524065884899,3.02042488614436,0.997048260738864,0.179139600701584,0.179139600701584,0.5,0.5,0.977004926775176,0.5,0.179139600701584,0.5,0.5,0.769027237969693,0.179139600701584,0.5,0.5,0.179139600701584,0.99894245321477,1.4433847072314,0,0,1,1B,0B,0.977004926775176,0.5,0.977004926775176,0.0229950732248244,1,1,0.0229950732248244,0.0147564167536269,0.5,0.71003349333612,1.0813847072314,7.58263912979568,4.01823206649386,0.5,1.88196247556936,0.999999999999757,0.5,0.641720798596831,1.08782050127431,7.79222830144003,3.90678281197314,0.5,-28.3818430304319
104,1,27,B,1,0,a,63,1,0.95,1B,0B,1,0,1,0,B10,2.1548985883418,3.04452243772342,0.997048260738864,0.179139600701584,0.179139600701584,0.5,0.5,0.991761343528803,0.5,0.179139600701584,0.5,0.5,0.769027237969693,0.179139600701584,0.5,0.5,0.179139600701584,0.99894245321477,1.2933847072314,1,1,0,1B,0B,0.991761343528803,0.5,0.991761343528803,0.00823865647119748,1,1,0.00823865647119748,0.0052869172100618,0.5,0.71003349333612,1.0813847072314,7.58263912979568,4.01823206649386,0.5,5.90681241337466,0.999999999999901,0.5,0.641720798596831,1.08782050127431,7.79222830144003,3.90678281197314,0.5,-28.3818430304319
104,1,28,C,2,3,a,63,1,0.95,2C,3C,1,0,1,0,C23,1.79084500140107,2.37490575457367,0.997048260738864,0.179139600701584,0.179139600701584,0.5,0.5,0.997048260738864,0.5,0.179139600701584,0.5,0.5,0.769027237969693,0.179139600701584,0.5,0.5,0.179139600701584,0.99894245321477,1.3223847072314,1,1,0,2C,3C,0.769027237969693,0.179139600701584,0.938486641654657,0.0615133583453427,1,1,0.230972762030307,0.148220025304204,0.5,0.71003349333612,1.0813847072314,7.58263912979568,4.01823206649386,0.5,5.2774576698338,0.999999999997445,0.5,0.641720798596831,1.08782050127431,7.79222830144003,3.90678281197314,0.5,-28.3818430304319
104,1,29,D,1,3,l,27,1,0.95,1D,3D,0,1,0,1,D13,2.02401810113375,3.09104245335832,0.997048260738864,0.179139600701584,0.179139600701584,0.5,0.5,0.997048260738864,0.5,0.179139600701584,0.5,0.5,0.917247263273898,0.179139600701584,0.5,0.5,0.179139600701584,0.99894245321477,1.3433847072314,0,0,1,3D,1D,0.99894245321477,0.5,0.99894245321477,0.00105754678523007,1,1,0.00105754678523007,0.000678649767571351,0.5,0.71003349333612,1.0813847072314,7.58263912979568,4.01823206649386,0.5,6.01816639971633,0.999999999999936,0.5,0.641720798596831,1.08782050127431,7.79222830144003,3.90678281197314,0.5,-28.3818430304319
104,1,30,C,2,1,a,9,1,0.95,2C,1C,1,0,1,0,C21,1.41566212135699,3.80666248977032,0.997048260738864,0.179139600701584,0.179139600701584,0.5,0.5,0.997048260738864,0.5,0.179139600701584,0.5,0.5,0.917247263273898,0.179139600701584,0.5,0.5,0.179139600701584,0.999621102982341,1.3183847072314,1,1,0,2C,1C,0.917247263273898,0.5,0.917247263273898,0.0827527367261024,1,1,0.0827527367261024,0.0531041522979477,0.5,0.71003349333612,1.0813847072314,7.58263912979568,4.01823206649386,0.5,4.49879123147794,0.999999999990696,0.5,0.641720798596831,1.08782050127431,7.79222830144003,3.90678281197314,0.5,-28.3818430304319
104,1,31,B,1,3,a,27,1,0.95,1B,3B,1,0,1,0,B13,1.86805386544145,3.13549421592915,0.997048260738864,0.179139600701584,0.179139600701584,0.5,0.5,0.997048260738864,0.5,0.179139600701584,0.5,0.5,0.970351415571845,0.179139600701584,0.5,0.5,0.179139600701584,0.999621102982341,1.3053847072314,1,1,0,1B,3B,0.997048260738864,0.179139600701584,0.999354340401093,0.000645659598906501,1,1,0.00295173926113568,0.00189419247590561,0.5,0.71003349333612,1.0813847072314,7.58263912979568,4.01823206649386,0.5,6.57466242688822,0.999999999999938,0.5,0.641720798596831,1.08782050127431,7.79222830144003,3.90678281197314,0.5,-28.3818430304319
104,1,32,D,2,3,l,63,1,0.95,2D,3D,0,1,0,1,D23,0.475703558342426,2.46385324059017,0.997048260738864,0.179139600701584,0.179139600701584,0.5,0.5,0.99894245321477,0.5,0.179139600701584,0.5,0.5,0.970351415571845,0.179139600701584,0.5,0.5,0.179139600701584,0.999621102982341,1.3303847072314,0,0,1,3D,2D,0.999621102982341,0.179139600701584,0.999917287310027,8.27126899728009e-05,1,1,0.000378897017658697,0.000243146096757897,0.5,0.71003349333612,1.0813847072314,7.58263912979568,4.01823206649386,0.5,6.4692998086978,0.99999999999994,0.5,0.641720798596831,1.08782050127431,7.79222830144003,3.90678281197314,0.5,-28.3818430304319
104,1,33,B,1,0,a,63,1,0.95,1B,0B,1,0,1,0,B10,1.29432482413518,2.77258872223978,0.997048260738864,0.179139600701584,0.179139600701584,0.5,0.5,0.99894245321477,0.5,0.179139600701584,0.5,0.5,0.970351415571845,0.179139600701584,0.5,0.5,0.179139600701584,0.999864249079099,1.2773847072314,1,1,0,1B,0B,0.99894245321477,0.5,0.99894245321477,0.00105754678523007,1,1,0.00105754678523007,0.000678649767571351,0.5,0.71003349333612,1.0813847072314,7.58263912979568,4.01823206649386,0.5,5.15162019969195,0.999999999999936,0.5,0.641720798596831,1.08782050127431,7.79222830144003,3.90678281197314,0.5,-28.3818430304319
104,1,34,A,0,1,a,63,0,0.95,0A,1A,1,0,0,1,A01,0.370595715911463,2.50552593699074,0.997048260738864,0.179139600701584,0.179139600701584,0.5,0.5,0.999621102982341,0.5,0.179139600701584,0.5,0.5,0.970351415571845,0.179139600701584,0.5,0.5,0.179139600701584,0.999864249079099,1.3863847072314,1,1,0,0A,1A,0.997048260738864,0.179139600701584,0.999354340401093,0.000645659598906501,1,0,-0.997048260738864,-0.639826606120925,0.5,0.71003349333612,1.0813847072314,7.58263912979568,4.01823206649386,0.5,3.79707398015212,0.999999999999937,0.5,0.641720798596831,1.08782050127431,7.79222830144003,3.90678281197314,0.5,-28.3818430304319
104,1,35,C,3,2,l,63,1,0.95,3C,2C,0,1,0,1,C32,3.31971763704083,2.81341071676004,0.357221654617939,0.179139600701584,0.179139600701584,0.5,0.5,0.999621102982341,0.5,0.179139600701584,0.5,0.5,0.970351415571845,0.179139600701584,0.5,0.5,0.179139600701584,0.999864249079099,1.3483847072314,0,0,1,2C,3C,0.970351415571845,0.179139600701584,0.993376143090392,0.00662385690960798,1,1,0.0296485844281547,0.019026113276501,0.5,0.71003349333612,1.0813847072314,7.58263912979568,4.01823206649386,0.5,5.83091978497864,0.99999999999991,0.5,0.641720798596831,1.08782050127431,7.79222830144003,3.90678281197314,0.5,-28.3818430304319
104,1,36,A,2,0,l,27,1,0.95,2A,0A,0,1,0,1,A20,2.77766977647211,2.83321334405622,0.357221654617939,0.179139600701584,0.179139600701584,0.5,0.5,0.999621102982341,0.5,0.179139600701584,0.5,0.5,0.989377528848346,0.179139600701584,0.5,0.5,0.179139600701584,0.999864249079099,1.7343847072314,0,0,1,0A,2A,0.357221654617939,0.179139600701584,0.71803678650318,0.28196321349682,1,1,0.642778345382061,0.412484233119326,0.5,0.71003349333612,1.0813847072314,7.58263912979568,4.01823206649386,0.5,1.43181412802893,0.999998281016443,0.5,0.641720798596831,1.08782050127431,7.79222830144003,3.90678281197314,0.5,-28.3818430304319
104,1,37,B,1,0,a,63,1,0.95,1B,0B,1,0,1,0,B10,2.7163509604325,2.56494935746154,0.769705887737265,0.179139600701584,0.179139600701584,0.5,0.5,0.999621102982341,0.5,0.179139600701584,0.5,0.5,0.989377528848346,0.179139600701584,0.5,0.5,0.179139600701584,0.999864249079099,1.3493847072314,1,1,0,1B,0B,0.999621102982341,0.5,0.999621102982341,0.000378897017658697,1,1,0.000378897017658697,0.000243146096757897,0.5,0.71003349333612,1.0813847072314,7.58263912979568,4.01823206649386,0.5,5.74923294240866,0.999999999999938,0.5,0.641720798596831,1.08782050127431,7.79222830144003,3.90678281197314,0.5,-28.3818430304319
104,1,38,D,3,2,a,63,1,0.95,3D,2D,1,0,1,0,D32,3.00340627392009,2.87167962488401,0.769705887737265,0.179139600701584,0.179139600701584,0.5,0.5,0.999864249079099,0.5,0.179139600701584,0.5,0.5,0.989377528848346,0.179139600701584,0.5,0.5,0.179139600701584,0.999864249079099,1.2803847072314,1,1,0,3D,2D,0.999864249079099,0.179139600701584,0.999970371397064,2.96286029359827e-05,1,1,0.00013575092090079,8.71141893707103e-05,0.5,0.71003349333612,1.0813847072314,7.58263912979568,4.01823206649386,0.5,5.41426785626745,0.99999999999994,0.5,0.641720798596831,1.08782050127431,7.79222830144003,3.90678281197314,0.5,-28.3818430304319
104,1,39,B,2,1,l,9,1,0.95,2B,1B,0,1,0,1,B21,3.13062225509026,3.98898404656427,0.769705887737265,0.179139600701584,0.179139600701584,0.5,0.5,0.999864249079099,0.5,0.179139600701584,0.5,0.5,0.989377528848346,0.179139600701584,0.5,0.5,0.179139600701584,0.99995136326847,1.2693847072314,0,0,1,1B,2B,0.999864249079099,0.5,0.999864249079099,0.00013575092090079,1,1,0.00013575092090079,8.71141893707103e-05,0.5,0.71003349333612,1.0813847072314,7.58263912979568,4.01823206649386,0.5,4.52277130964696,0.999999999999939,0.5,0.641720798596831,1.08782050127431,7.79222830144003,3.90678281197314,0.5,-28.3818430304319
104,1,40,D,3,1,a,27,1,0.95,3D,1D,1,0,1,0,D31,3.24632438287016,4.00733318523247,0.769705887737265,0.179139600701584,0.179139600701584,0.5,0.5,0.99995136326847,0.5,0.179139600701584,0.5,0.5,0.989377528848346,0.179139600701584,0.5,0.5,0.179139600701584,0.99995136326847,1.2703847072314,1,1,0,3D,1D,0.99995136326847,0.5,0.99995136326847,4.86367315301051e-05,1,1,4.86367315301051e-05,3.12112021986387e-05,0.5,0.71003349333612,1.0813847072314,7.58263912979568,4.01823206649386,0.5,4.61542138850544,0.99999999999994,0.5,0.641720798596831,1.08782050127431,7.79222830144003,3.90678281197314,0.5,-28.3818430304319
104,1,41,A,0,1,a,63,1,0.95,0A,1A,1,0,1,0,A01,1.76386602175024,2.41591377830105,0.769705887737265,0.179139600701584,0.179139600701584,0.5,0.5,0.99995136326847,0.5,0.179139600701584,0.5,0.5,0.989377528848346,0.179139600701584,0.5,0.5,0.179139600701584,0.999982574470669,1.3693847072314,1,1,0,0A,1A,0.769705887737265,0.179139600701584,0.938707066047606,0.0612929339523943,1,1,0.230294112262735,0.147784521633391,0.5,0.71003349333612,1.0813847072314,7.58263912979568,4.01823206649386,0.5,5.20852724723589,0.999999999997491,0.5,0.641720798596831,1.08782050127431,7.79222830144003,3.90678281197314,0.5,-28.3818430304319
104,1,42,A,1,0,l,63,1,0.95,1A,0A,0,1,0,1,A10,1.7936551570955,3.3499040872746,0.917490409370656,0.179139600701584,0.179139600701584,0.5,0.5,0.99995136326847,0.5,0.179139600701584,0.5,0.5,0.989377528848346,0.179139600701584,0.5,0.5,0.179139600701584,0.999982574470669,1.2473847072314,0,0,1,0A,1A,0.917490409370656,0.179139600701584,0.980752052642766,0.019247947357234,1,1,0.0825095906293445,0.0529481203905606,0.5,0.71003349333612,1.0813847072314,7.58263912979568,4.01823206649386,0.5,2.02400631925111,0.999999999999807,0.5,0.641720798596831,1.08782050127431,7.79222830144003,3.90678281197314,0.5,-28.3818430304319
104,1,43,C,0,2,l,27,1,0.95,0C,2C,0,1,0,1,C02,3.36637745468588,2.96183072187831,0.970438529761216,0.179139600701584,0.179139600701584,0.5,0.5,0.99995136326847,0.5,0.179139600701584,0.5,0.5,0.989377528848346,0.179139600701584,0.5,0.5,0.179139600701584,0.999982574470669,1.4233847072314,0,0,1,2C,0C,0.989377528848346,0.5,0.989377528848346,0.0106224711516537,1,1,0.0106224711516537,0.00681666067051102,0.5,0.71003349333612,1.0813847072314,7.58263912979568,4.01823206649386,0.5,2.32075443200849,0.999999999999885,0.5,0.641720798596831,1.08782050127431,7.79222830144003,3.90678281197314,0.5,-28.3818430304319
104,1,44,B,1,0,a,63,1,0.95,1B,0B,1,0,1,0,B10,3.07978555763831,2.46809953147162,0.970438529761216,0.179139600701584,0.179139600701584,0.5,0.5,0.99995136326847,0.5,0.179139600701584,0.5,0.5,0.996194189518857,0.179139600701584,0.5,0.5,0.179139600701584,0.999982574470669,1.3733847072314,1,1,0,1B,0B,0.99995136326847,0.5,0.99995136326847,4.86367315301051e-05,1,1,4.86367315301051e-05,3.12112021986387e-05,0.5,0.71003349333612,1.0813847072314,7.58263912979568,4.01823206649386,0.5,4.48890735524886,0.999999999999939,0.5,0.641720798596831,1.08782050127431,7.79222830144003,3.90678281197314,0.5,-28.3818430304319
