ID,filename,session,trial,visStimLeft,visStimRight,correctKey,leftCorrect,rightCorrect,secondStim,mod2Type,mod2Stim,frequency,rewardAccurate,stimPairLeft,stimPairRight,pCorrectLeft,pCorrectRight,key,reactionTime,choiceLeft,choiceRight,choiceAccurate,reward,chosenPair,otherPair,triplet,surprise,0A belief,1A belief,2A belief,3A belief,0B belief,1B belief,2B belief,3B belief,0C belief,1C belief,2C belief,3C belief,0D belief,1D belief,2D belief,3D belief,beliefPairNorm,beliefOtherPairNorm,beliefPair,beliefOtherPair,lik,corrLik,rewardPE,update2,fitCBCsimpleRW_CBCdriftDiffusionLR_startBelief,fitCBCsimpleRW_CBCdriftDiffusionLR_alpha1,fitCBCsimpleRW_CBCdriftDiffusionLR_nonDecisionTime,fitCBCsimpleRW_CBCdriftDiffusionLR_weight,fitCBCsimpleRW_CBCdriftDiffusionLR_startingBoundary,fitCBCsimpleRW_CBCdriftDiffusionLR_startingPoint,fit_CBCsimpleRW_CBCdriftDiffusionLR_NLL
CBC_1036,CBC_1036_MSI_TV_v3_Vset2_Tset3_2023-12-06_14h51.37.594.csv,1,1,1,0,b,1,0,0,tac,B,63,1,1B,0B,1,0,z,1.62051460000112,0,1,0,0,0B,1B,B10,2.77258872223978,0.5,0.5,0.5,0.5,0.5,0.5,0.5,0.5,0.5,0.5,0.5,0.5,0.5,0.5,0.5,0.5,0.5,0.5,0.5,0.5,0.241299154742544,0.500407635576871,-0.5,-0.00968697754007924,0.5,0.0193739550801585,0.819803552674979,12.2019369662938,2.69722638264789,0.5,77.5618435880011
CBC_1036,CBC_1036_MSI_TV_v3_Vset2_Tset3_2023-12-06_14h51.37.594.csv,1,2,0,1,b,1,0,2,tac,A,63,1,0A,1A,1,0,z,3.26313550000032,0,1,0,0,1A,0A,A01,2.83321334405622,0.5,0.5,0.5,0.5,0.490313022459921,0.5,0.5,0.5,0.5,0.5,0.5,0.5,0.5,0.5,0.5,0.5,0.5,0.5,0.5,0.5,0.0822424353542842,0.499501147332002,-0.5,-0.00968697754007924,0.5,0.0193739550801585,0.819803552674979,12.2019369662938,2.69722638264789,0.5,77.5618435880011
CBC_1036,CBC_1036_MSI_TV_v3_Vset2_Tset3_2023-12-06_14h51.37.594.csv,1,3,1,2,z,0,1,3,tac,C,9,1,1C,2C,0,1,z,3.13625040000079,0,1,1,1,2C,1C,C12,2.89037175789616,0.5,0.490313022459921,0.5,0.5,0.490313022459921,0.5,0.5,0.5,0.5,0.5,0.5,0.5,0.5,0.5,0.5,0.5,0.5,0.5,0.5,0.5,0.0897110740650579,0.499930431052909,0.5,0.00968697754007924,0.5,0.0193739550801585,0.819803552674979,12.2019369662938,2.69722638264789,0.5,77.5618435880011
CBC_1036,CBC_1036_MSI_TV_v3_Vset2_Tset3_2023-12-06_14h51.37.594.csv,1,4,1,0,z,0,1,2,tac,A,63,1,1A,0A,0,1,b,3.51263160000053,1,0,0,0,1A,0A,A10,2.94443897916644,0.5,0.490313022459921,0.5,0.5,0.490313022459921,0.5,0.5,0.5,0.5,0.5,0.509686977540079,0.5,0.5,0.5,0.5,0.5,0.49510913351618,0.50489086648382,0.490313022459921,0.5,0.0581999601228257,0.42122823830453,-0.490313022459921,-0.00949930247235524,0.5,0.0193739550801585,0.819803552674979,12.2019369662938,2.69722638264789,0.5,77.5618435880011
CBC_1036,CBC_1036_MSI_TV_v3_Vset2_Tset3_2023-12-06_14h51.37.594.csv,1,5,3,1,b,1,0,1,tac,D,27,1,3D,1D,NaN,NaN,None,NaN,NaN,NaN,NaN,NaN,,,D31,2.99573227355399,0.5,0.480813719987566,0.5,0.5,0.490313022459921,0.5,0.5,0.5,0.5,0.5,0.509686977540079,0.5,0.5,0.5,0.5,0.5,0,0,0,0,NaN,0,0,0,0.5,0.0193739550801585,0.819803552674979,12.2019369662938,2.69722638264789,0.5,77.5618435880011
CBC_1036,CBC_1036_MSI_TV_v3_Vset2_Tset3_2023-12-06_14h51.37.594.csv,1,6,0,1,z,0,1,0,tac,B,63,1,0B,1B,0,1,z,2.45815770000081,0,1,1,1,1B,0B,B01,3.04452243772342,0.5,0.480813719987566,0.5,0.5,0.490313022459921,0.5,0.5,0.5,0.5,0.5,0.509686977540079,0.5,0.5,0.5,0.5,0.5,0.50489086648382,0.49510913351618,0.5,0.490313022459921,0.165204411895779,0.58070332721981,0.5,0.00968697754007924,0.5,0.0193739550801585,0.819803552674979,12.2019369662938,2.69722638264789,0.5,77.5618435880011
CBC_1036,CBC_1036_MSI_TV_v3_Vset2_Tset3_2023-12-06_14h51.37.594.csv,1,7,2,3,b,1,0,3,tac,C,63,1,2C,3C,1,0,b,2.14206970000123,1,0,1,1,2C,3C,C23,3.09104245335832,0.5,0.480813719987566,0.5,0.5,0.490313022459921,0.509686977540079,0.5,0.5,0.5,0.5,0.509686977540079,0.5,0.5,0.5,0.5,0.5,0.504797020143649,0.495202979856351,0.509686977540079,0.5,0.204189925406825,0.579069283684877,0.490313022459921,0.00949930247235525,0.5,0.0193739550801585,0.819803552674979,12.2019369662938,2.69722638264789,0.5,77.5618435880011
CBC_1036,CBC_1036_MSI_TV_v3_Vset2_Tset3_2023-12-06_14h51.37.594.csv,1,8,2,0,z,0,1,2,tac,A,27,1,2A,0A,0,1,z,2.79192860000057,0,1,1,1,0A,2A,A20,3.13549421592915,0.5,0.480813719987566,0.5,0.5,0.490313022459921,0.509686977540079,0.5,0.5,0.5,0.5,0.519186280012434,0.5,0.5,0.5,0.5,0.5,0.5,0.5,0.5,0.5,0.113429110173241,0.500470862058383,0.5,0.00968697754007924,0.5,0.0193739550801585,0.819803552674979,12.2019369662938,2.69722638264789,0.5,77.5618435880011
CBC_1036,CBC_1036_MSI_TV_v3_Vset2_Tset3_2023-12-06_14h51.37.594.csv,1,9,3,2,b,1,0,1,tac,D,63,1,3D,2D,1,0,b,4.34973530000116,1,0,1,1,3D,2D,D32,3.17805383034795,0.509686977540079,0.480813719987566,0.5,0.5,0.490313022459921,0.509686977540079,0.5,0.5,0.5,0.5,0.519186280012434,0.5,0.5,0.5,0.5,0.5,0.5,0.5,0.5,0.5,0.0393437475013647,0.49936328462802,0.5,0.00968697754007924,0.5,0.0193739550801585,0.819803552674979,12.2019369662938,2.69722638264789,0.5,77.5618435880011
CBC_1036,CBC_1036_MSI_TV_v3_Vset2_Tset3_2023-12-06_14h51.37.594.csv,1,10,3,1,z,0,1,0,tac,B,27,1,3B,1B,0,1,z,1.92230570000083,0,1,1,1,1B,3B,B31,3.2188758248682,0.509686977540079,0.480813719987566,0.5,0.5,0.490313022459921,0.509686977540079,0.5,0.5,0.5,0.5,0.519186280012434,0.5,0.5,0.5,0.5,0.509686977540079,0.504797020143649,0.495202979856351,0.509686977540079,0.5,0.236558664052133,0.580059590366005,0.490313022459921,0.00949930247235525,0.5,0.0193739550801585,0.819803552674979,12.2019369662938,2.69722638264789,0.5,77.5618435880011
CBC_1036,CBC_1036_MSI_TV_v3_Vset2_Tset3_2023-12-06_14h51.37.594.csv,1,11,3,2,z,0,1,3,tac,C,63,1,3C,2C,0,1,b,2.76861460000055,1,0,0,0,3C,2C,C32,3.25809653802148,0.509686977540079,0.480813719987566,0.5,0.5,0.490313022459921,0.519186280012434,0.5,0.5,0.5,0.5,0.519186280012434,0.5,0.5,0.5,0.5,0.509686977540079,0.49058745177957,0.509412548220429,0.5,0.519186280012434,0.0801392439980451,0.349511645939015,-0.5,-0.00968697754007924,0.5,0.0193739550801585,0.819803552674979,12.2019369662938,2.69722638264789,0.5,77.5618435880011
CBC_1036,CBC_1036_MSI_TV_v3_Vset2_Tset3_2023-12-06_14h51.37.594.csv,1,12,1,3,b,1,0,0,tac,B,27,1,1B,3B,1,0,z,1.49464910000097,0,1,0,0,3B,1B,B13,3.29583686600433,0.509686977540079,0.480813719987566,0.5,0.5,0.490313022459921,0.519186280012434,0.5,0.5,0.5,0.5,0.519186280012434,0.490313022459921,0.5,0.5,0.5,0.509686977540079,0.49058745177957,0.509412548220429,0.5,0.519186280012434,0.182143841323456,0.350771076369123,-0.5,-0.00968697754007924,0.5,0.0193739550801585,0.819803552674979,12.2019369662938,2.69722638264789,0.5,77.5618435880011
CBC_1036,CBC_1036_MSI_TV_v3_Vset2_Tset3_2023-12-06_14h51.37.594.csv,1,13,3,2,z,0,1,3,tac,C,63,1,3C,2C,0,1,z,3.27219720000085,0,1,1,1,2C,3C,C32,2.63905732961526,0.509686977540079,0.480813719987566,0.5,0.5,0.490313022459921,0.519186280012434,0.5,0.490313022459921,0.5,0.5,0.519186280012434,0.490313022459921,0.5,0.5,0.5,0.509686977540079,0.514300781328823,0.485699218671177,0.519186280012434,0.490313022459921,0.112833390646848,0.719451549150924,0.480813719987566,0.009315263412963,0.5,0.0193739550801585,0.819803552674979,12.2019369662938,2.69722638264789,0.5,77.5618435880011
CBC_1036,CBC_1036_MSI_TV_v3_Vset2_Tset3_2023-12-06_14h51.37.594.csv,1,14,3,2,b,1,0,1,tac,D,63,1,3D,2D,1,0,b,3.10910500000045,1,0,1,1,3D,2D,D32,2.67414864942653,0.509686977540079,0.480813719987566,0.5,0.5,0.490313022459921,0.519186280012434,0.5,0.490313022459921,0.5,0.5,0.528501543425397,0.490313022459921,0.5,0.5,0.5,0.509686977540079,0.504797020143649,0.495202979856351,0.509686977540079,0.5,0.105363162557427,0.578336563735457,0.490313022459921,0.00949930247235525,0.5,0.0193739550801585,0.819803552674979,12.2019369662938,2.69722638264789,0.5,77.5618435880011
CBC_1036,CBC_1036_MSI_TV_v3_Vset2_Tset3_2023-12-06_14h51.37.594.csv,1,15,0,3,b,1,0,2,tac,A,9,1,0A,3A,1,0,z,2.83274390000042,0,1,0,0,3A,0A,A03,3.40119738166216,0.509686977540079,0.480813719987566,0.5,0.5,0.490313022459921,0.519186280012434,0.5,0.490313022459921,0.5,0.5,0.528501543425397,0.490313022459921,0.5,0.5,0.5,0.519186280012434,0.495202979856351,0.504797020143649,0.5,0.509686977540079,0.0925981568659134,0.420622531077372,-0.5,-0.00968697754007924,0.5,0.0193739550801585,0.819803552674979,12.2019369662938,2.69722638264789,0.5,77.5618435880011
CBC_1036,CBC_1036_MSI_TV_v3_Vset2_Tset3_2023-12-06_14h51.37.594.csv,1,16,0,1,z,0,1,0,tac,B,63,0,0B,1B,1,0,b,2.06046560000141,1,0,0,1,0B,1B,B01,2.7408400239252,0.509686977540079,0.480813719987566,0.5,0.490313022459921,0.490313022459921,0.519186280012434,0.5,0.490313022459921,0.5,0.5,0.528501543425397,0.490313022459921,0.5,0.5,0.5,0.519186280012434,0.485699218671177,0.514300781328823,0.490313022459921,0.519186280012434,0.10772179297447,0.281514473304948,0.509686977540079,0.00987465260780324,0.5,0.0193739550801585,0.819803552674979,12.2019369662938,2.69722638264789,0.5,77.5618435880011
CBC_1036,CBC_1036_MSI_TV_v3_Vset2_Tset3_2023-12-06_14h51.37.594.csv,1,17,2,3,z,0,1,1,tac,D,63,1,2D,3D,0,1,b,2.57219520000035,1,0,0,0,2D,3D,D23,3.46573590279973,0.509686977540079,0.480813719987566,0.5,0.490313022459921,0.500187675067724,0.519186280012434,0.5,0.490313022459921,0.5,0.5,0.528501543425397,0.490313022459921,0.5,0.5,0.5,0.519186280012434,0.49058745177957,0.509412548220429,0.5,0.519186280012434,0.092170104465864,0.350062107356782,-0.5,-0.00968697754007924,0.5,0.0193739550801585,0.819803552674979,12.2019369662938,2.69722638264789,0.5,77.5618435880011
CBC_1036,CBC_1036_MSI_TV_v3_Vset2_Tset3_2023-12-06_14h51.37.594.csv,1,18,0,2,z,0,1,3,tac,C,27,1,0C,2C,0,1,z,1.6499059000007,0,1,1,1,2C,0C,C02,3.49650756146648,0.509686977540079,0.480813719987566,0.5,0.490313022459921,0.500187675067724,0.519186280012434,0.5,0.490313022459921,0.5,0.5,0.528501543425397,0.490313022459921,0.5,0.5,0.490313022459921,0.519186280012434,0.513855858363845,0.486144141636155,0.528501543425397,0.5,0.358170390169362,0.714043723201796,0.471498456574603,0.00913478991804041,0.5,0.0193739550801585,0.819803552674979,12.2019369662938,2.69722638264789,0.5,77.5618435880011
CBC_1036,CBC_1036_MSI_TV_v3_Vset2_Tset3_2023-12-06_14h51.37.594.csv,1,19,0,1,b,1,0,2,tac,A,63,1,0A,1A,1,0,z,2.2884793000012,0,1,0,0,1A,0A,A01,2.83321334405622,0.509686977540079,0.480813719987566,0.5,0.490313022459921,0.500187675067724,0.519186280012434,0.5,0.490313022459921,0.5,0.5,0.537636333343438,0.490313022459921,0.5,0.5,0.490313022459921,0.519186280012434,0.485424918112333,0.514575081887667,0.480813719987566,0.509686977540079,0.0897996258935498,0.276832040033394,-0.480813719987566,-0.009315263412963,0.5,0.0193739550801585,0.819803552674979,12.2019369662938,2.69722638264789,0.5,77.5618435880011
CBC_1036,CBC_1036_MSI_TV_v3_Vset2_Tset3_2023-12-06_14h51.37.594.csv,1,20,1,0,b,1,0,0,tac,B,63,1,1B,0B,1,0,b,1.78913840000041,1,0,1,1,1B,0B,B10,2.86220088092947,0.509686977540079,0.471498456574602,0.5,0.490313022459921,0.500187675067724,0.519186280012434,0.5,0.490313022459921,0.5,0.5,0.537636333343438,0.490313022459921,0.5,0.5,0.490313022459921,0.519186280012434,0.509318761211246,0.490681238788754,0.519186280012434,0.500187675067724,0.291446243587911,0.647849866165402,0.480813719987566,0.009315263412963,0.5,0.0193739550801585,0.819803552674979,12.2019369662938,2.69722638264789,0.5,77.5618435880011
CBC_1036,CBC_1036_MSI_TV_v3_Vset2_Tset3_2023-12-06_14h51.37.594.csv,1,21,1,3,z,0,1,1,tac,D,27,1,1D,3D,0,1,b,2.42839430000004,1,0,0,0,1D,3D,D13,3.58351893845611,0.509686977540079,0.471498456574602,0.5,0.490313022459921,0.500187675067724,0.528501543425397,0.5,0.490313022459921,0.5,0.5,0.537636333343438,0.490313022459921,0.5,0.5,0.490313022459921,0.519186280012434,0.49058745177957,0.509412548220429,0.5,0.519186280012434,0.102094306721247,0.350490064160597,-0.5,-0.00968697754007924,0.5,0.0193739550801585,0.819803552674979,12.2019369662938,2.69722638264789,0.5,77.5618435880011
CBC_1036,CBC_1036_MSI_TV_v3_Vset2_Tset3_2023-12-06_14h51.37.594.csv,1,22,3,2,z,0,1,3,tac,C,63,1,3C,2C,0,1,z,1.94823670000096,0,1,1,1,2C,3C,C32,2.51230562397611,0.509686977540079,0.471498456574602,0.5,0.490313022459921,0.500187675067724,0.528501543425397,0.5,0.490313022459921,0.5,0.5,0.537636333343438,0.490313022459921,0.5,0.490313022459921,0.490313022459921,0.519186280012434,0.523018308546209,0.476981691453791,0.537636333343438,0.490313022459921,0.355990593308229,0.81947044133037,0.462363666656562,0.00895781290850161,0.5,0.0193739550801585,0.819803552674979,12.2019369662938,2.69722638264789,0.5,77.5618435880011
CBC_1036,CBC_1036_MSI_TV_v3_Vset2_Tset3_2023-12-06_14h51.37.594.csv,1,23,0,1,b,1,0,2,tac,A,63,1,0A,1A,1,0,b,1.74942180000107,1,0,1,1,0A,1A,A01,2.53897387105828,0.509686977540079,0.471498456574602,0.5,0.490313022459921,0.500187675067724,0.528501543425397,0.5,0.490313022459921,0.5,0.5,0.546594146251939,0.490313022459921,0.5,0.490313022459921,0.490313022459921,0.519186280012434,0.519460399450352,0.480539600549648,0.509686977540079,0.471498456574602,0.385377009901871,0.78293661778939,0.490313022459921,0.00949930247235525,0.5,0.0193739550801585,0.819803552674979,12.2019369662938,2.69722638264789,0.5,77.5618435880011
CBC_1036,CBC_1036_MSI_TV_v3_Vset2_Tset3_2023-12-06_14h51.37.594.csv,1,24,2,3,z,0,1,1,tac,D,63,1,2D,3D,0,1,z,1.17393360000005,0,1,1,1,3D,2D,D23,2.9704144655697,0.519186280012434,0.471498456574602,0.5,0.490313022459921,0.500187675067724,0.528501543425397,0.5,0.490313022459921,0.5,0.5,0.546594146251939,0.490313022459921,0.5,0.490313022459921,0.490313022459921,0.519186280012434,0.514300781328823,0.485699218671177,0.519186280012434,0.490313022459921,0.307172061368439,0.719902598432714,0.480813719987566,0.009315263412963,0.5,0.0193739550801585,0.819803552674979,12.2019369662938,2.69722638264789,0.5,77.5618435880011
CBC_1036,CBC_1036_MSI_TV_v3_Vset2_Tset3_2023-12-06_14h51.37.594.csv,1,25,2,0,b,1,0,3,tac,C,27,1,2C,0C,1,0,b,1.08981170000061,1,0,1,1,2C,0C,C20,3.68887945411394,0.519186280012434,0.471498456574602,0.5,0.490313022459921,0.500187675067724,0.528501543425397,0.5,0.490313022459921,0.5,0.5,0.546594146251939,0.490313022459921,0.5,0.490313022459921,0.490313022459921,0.528501543425397,0.522259892441976,0.477740107558024,0.546594146251939,0.5,0.264250896105227,0.812414762435168,0.453405853748061,0.00878426464359584,0.5,0.0193739550801585,0.819803552674979,12.2019369662938,2.69722638264789,0.5,77.5618435880011
CBC_1036,CBC_1036_MSI_TV_v3_Vset2_Tset3_2023-12-06_14h51.37.594.csv,1,26,0,1,b,1,0,2,tac,A,63,1,0A,1A,1,0,b,2.48914780000086,1,0,1,1,0A,1A,A01,2.32727770558442,0.519186280012434,0.471498456574602,0.5,0.490313022459921,0.500187675067724,0.528501543425397,0.5,0.490313022459921,0.5,0.5,0.555378410895535,0.490313022459921,0.5,0.490313022459921,0.490313022459921,0.528501543425397,0.524068112526957,0.475931887473043,0.519186280012434,0.471498456574602,0.230478461543291,0.830482370948842,0.480813719987566,0.009315263412963,0.5,0.0193739550801585,0.819803552674979,12.2019369662938,2.69722638264789,0.5,77.5618435880011
CBC_1036,CBC_1036_MSI_TV_v3_Vset2_Tset3_2023-12-06_14h51.37.594.csv,1,27,1,3,b,1,0,0,tac,B,27,1,1B,3B,1,0,z,3.70434490000116,0,1,0,0,3B,1B,B13,3.04452243772342,0.528501543425397,0.471498456574602,0.5,0.490313022459921,0.500187675067724,0.528501543425397,0.5,0.490313022459921,0.5,0.5,0.555378410895535,0.490313022459921,0.5,0.490313022459921,0.490313022459921,0.528501543425397,0.481258355423937,0.518741644576063,0.490313022459921,0.528501543425397,0.0243761524593703,0.225675974932222,-0.490313022459921,-0.00949930247235524,0.5,0.0193739550801585,0.819803552674979,12.2019369662938,2.69722638264789,0.5,77.5618435880011
CBC_1036,CBC_1036_MSI_TV_v3_Vset2_Tset3_2023-12-06_14h51.37.594.csv,1,28,3,2,z,0,1,3,tac,C,63,1,3C,2C,0,1,z,1.55796310000096,0,1,1,1,2C,3C,C32,2.37490575457367,0.528501543425397,0.471498456574602,0.5,0.490313022459921,0.500187675067724,0.528501543425397,0.5,0.480813719987566,0.5,0.5,0.555378410895535,0.490313022459921,0.5,0.490313022459921,0.490313022459921,0.528501543425397,0.53111117981852,0.46888882018148,0.555378410895535,0.490313022459921,0.556841198558609,0.885708081630383,0.444621589104465,0.00861407869497859,0.5,0.0193739550801585,0.819803552674979,12.2019369662938,2.69722638264789,0.5,77.5618435880011
CBC_1036,CBC_1036_MSI_TV_v3_Vset2_Tset3_2023-12-06_14h51.37.594.csv,1,29,3,2,b,1,0,1,tac,D,63,1,3D,2D,NaN,NaN,None,NaN,NaN,NaN,NaN,NaN,,,D32,2.68557734525015,0.528501543425397,0.471498456574602,0.5,0.490313022459921,0.500187675067724,0.528501543425397,0.5,0.480813719987566,0.5,0.5,0.563992489590514,0.490313022459921,0.5,0.490313022459921,0.490313022459921,0.528501543425397,0,0,0,0,NaN,0,0,0,0.5,0.0193739550801585,0.819803552674979,12.2019369662938,2.69722638264789,0.5,77.5618435880011
CBC_1036,CBC_1036_MSI_TV_v3_Vset2_Tset3_2023-12-06_14h51.37.594.csv,1,30,0,1,z,0,1,0,tac,B,63,1,0B,1B,0,1,b,2.55589940000118,1,0,0,0,0B,1B,B01,2.70805020110221,0.528501543425397,0.471498456574602,0.5,0.490313022459921,0.500187675067724,0.528501543425397,0.5,0.480813719987566,0.5,0.5,0.563992489590514,0.490313022459921,0.5,0.490313022459921,0.490313022459921,0.528501543425397,0.486237890001827,0.513762109998173,0.500187675067724,0.528501543425397,0.0765842650028323,0.287581062469453,-0.500187675067724,-0.00969061354841099,0.5,0.0193739550801585,0.819803552674979,12.2019369662938,2.69722638264789,0.5,77.5618435880011
CBC_1036,CBC_1036_MSI_TV_v3_Vset2_Tset3_2023-12-06_14h51.37.594.csv,1,31,2,0,z,0,1,2,tac,A,27,1,2A,0A,0,1,z,2.45090140000138,0,1,1,1,0A,2A,A20,3.13549421592915,0.528501543425397,0.471498456574602,0.5,0.490313022459921,0.490497061519313,0.528501543425397,0.5,0.480813719987566,0.5,0.5,0.563992489590514,0.490313022459921,0.5,0.490313022459921,0.490313022459921,0.528501543425397,0.513855858363845,0.486144141636155,0.528501543425397,0.5,0.204881198513685,0.712351970340726,0.471498456574603,0.00913478991804041,0.5,0.0193739550801585,0.819803552674979,12.2019369662938,2.69722638264789,0.5,77.5618435880011
CBC_1036,CBC_1036_MSI_TV_v3_Vset2_Tset3_2023-12-06_14h51.37.594.csv,1,32,3,0,b,1,0,1,tac,D,9,1,3D,0D,1,0,z,3.59216110000125,0,1,0,0,0D,3D,D30,3.85014760171006,0.537636333343438,0.471498456574602,0.5,0.490313022459921,0.490497061519313,0.528501543425397,0.5,0.480813719987566,0.5,0.5,0.563992489590514,0.490313022459921,0.5,0.490313022459921,0.490313022459921,0.528501543425397,0.486144141636155,0.513855858363845,0.5,0.528501543425397,0.0356274474942513,0.28661653515375,-0.5,-0.00968697754007924,0.5,0.0193739550801585,0.819803552674979,12.2019369662938,2.69722638264789,0.5,77.5618435880011
CBC_1036,CBC_1036_MSI_TV_v3_Vset2_Tset3_2023-12-06_14h51.37.594.csv,1,33,3,2,z,0,1,3,tac,C,63,1,3C,2C,0,1,z,1.13757380000152,0,1,1,1,2C,3C,C32,2.26176309847379,0.537636333343438,0.471498456574602,0.5,0.490313022459921,0.490497061519313,0.528501543425397,0.5,0.480813719987566,0.5,0.5,0.563992489590514,0.490313022459921,0.490313022459921,0.490313022459921,0.490313022459921,0.528501543425397,0.534942180557939,0.465057819442061,0.563992489590514,0.490313022459921,0.482965182326017,0.908813340146701,0.436007510409486,0.00844718992128512,0.5,0.0193739550801585,0.819803552674979,12.2019369662938,2.69722638264789,0.5,77.5618435880011
CBC_1036,CBC_1036_MSI_TV_v3_Vset2_Tset3_2023-12-06_14h51.37.594.csv,1,34,0,1,z,0,1,0,tac,B,63,1,0B,1B,0,1,z,3.25850570000057,0,1,1,1,1B,0B,B01,2.50552593699074,0.537636333343438,0.471498456574602,0.5,0.490313022459921,0.490497061519313,0.528501543425397,0.5,0.480813719987566,0.5,0.5,0.572439679511799,0.490313022459921,0.490313022459921,0.490313022459921,0.490313022459921,0.528501543425397,0.518647955807627,0.481352044192373,0.528501543425397,0.490497061519313,0.118512108163338,0.773378618183324,0.471498456574603,0.00913478991804041,0.5,0.0193739550801585,0.819803552674979,12.2019369662938,2.69722638264789,0.5,77.5618435880011
CBC_1036,CBC_1036_MSI_TV_v3_Vset2_Tset3_2023-12-06_14h51.37.594.csv,1,35,0,1,b,1,0,2,tac,A,63,0,0A,1A,0,1,b,2.73553600000105,1,0,1,0,0A,1A,A01,2.30258509299405,0.537636333343438,0.471498456574602,0.5,0.490313022459921,0.490497061519313,0.537636333343438,0.5,0.480813719987566,0.5,0.5,0.572439679511799,0.490313022459921,0.490313022459921,0.490313022459921,0.490313022459921,0.528501543425397,0.532769595018227,0.467230404981773,0.537636333343438,0.471498456574602,0.187632257046952,0.896170618082436,-0.537636333343438,-0.0104161421716569,0.5,0.0193739550801585,0.819803552674979,12.2019369662938,2.69722638264789,0.5,77.5618435880011
CBC_1036,CBC_1036_MSI_TV_v3_Vset2_Tset3_2023-12-06_14h51.37.594.csv,1,36,2,3,z,0,1,1,tac,D,63,1,2D,3D,0,1,z,2.55894520000038,0,1,1,1,3D,2D,D23,2.83321334405622,0.527220191171781,0.471498456574602,0.5,0.490313022459921,0.490497061519313,0.537636333343438,0.5,0.480813719987566,0.5,0.5,0.572439679511799,0.490313022459921,0.490313022459921,0.490313022459921,0.490313022459921,0.528501543425397,0.518741644576063,0.481258355423937,0.528501543425397,0.490313022459921,0.204964297921466,0.774301011167133,0.471498456574603,0.00913478991804041,0.5,0.0193739550801585,0.819803552674979,12.2019369662938,2.69722638264789,0.5,77.5618435880011
CBC_1036,CBC_1036_MSI_TV_v3_Vset2_Tset3_2023-12-06_14h51.37.594.csv,1,37,1,2,b,1,0,0,tac,B,9,1,1B,2B,1,0,b,3.95194710000033,1,0,1,1,1B,2B,B12,3.95124371858143,0.527220191171781,0.471498456574602,0.5,0.490313022459921,0.490497061519313,0.537636333343438,0.5,0.480813719987566,0.5,0.5,0.572439679511799,0.490313022459921,0.490313022459921,0.490313022459921,0.490313022459921,0.537636333343438,0.518135608851594,0.481864391148406,0.537636333343438,0.5,0.0689603696188467,0.767654225350384,0.462363666656562,0.00895781290850161,0.5,0.0193739550801585,0.819803552674979,12.2019369662938,2.69722638264789,0.5,77.5618435880011
CBC_1036,CBC_1036_MSI_TV_v3_Vset2_Tset3_2023-12-06_14h51.37.594.csv,1,38,2,0,z,0,1,2,tac,A,27,1,2A,0A,0,1,z,1.81506300000092,0,1,1,1,0A,2A,A20,2.87167962488401,0.527220191171781,0.471498456574602,0.5,0.490313022459921,0.490497061519313,0.546594146251939,0.5,0.480813719987566,0.5,0.5,0.572439679511799,0.490313022459921,0.490313022459921,0.490313022459921,0.490313022459921,0.537636333343438,0.513249443208826,0.486750556791173,0.527220191171781,0.5,0.318730167436349,0.705737833050128,0.472779808828219,0.00915961477904383,0.5,0.0193739550801585,0.819803552674979,12.2019369662938,2.69722638264789,0.5,77.5618435880011
CBC_1036,CBC_1036_MSI_TV_v3_Vset2_Tset3_2023-12-06_14h51.37.594.csv,1,39,2,3,b,1,0,3,tac,C,63,1,2C,3C,1,0,b,1.59187700000075,1,0,1,1,2C,3C,C23,3.29583686600433,0.536379805950825,0.471498456574602,0.5,0.490313022459921,0.490497061519313,0.546594146251939,0.5,0.480813719987566,0.5,0.5,0.572439679511799,0.490313022459921,0.490313022459921,0.490313022459921,0.490313022459921,0.537636333343438,0.538638648906518,0.461361351093482,0.572439679511799,0.490313022459921,0.617397621636435,0.926908092132466,0.427560320488201,0.00828353444319658,0.5,0.0193739550801585,0.819803552674979,12.2019369662938,2.69722638264789,0.5,77.5618435880011
CBC_1036,CBC_1036_MSI_TV_v3_Vset2_Tset3_2023-12-06_14h51.37.594.csv,1,40,1,3,z,0,1,1,tac,D,27,1,1D,3D,0,1,z,-0.0172404999993887,0,1,1,1,3D,1D,D13,3.31418600467253,0.536379805950825,0.471498456574602,0.5,0.490313022459921,0.490497061519313,0.546594146251939,0.5,0.480813719987566,0.5,0.5,0.580723213954995,0.490313022459921,0.490313022459921,0.490313022459921,0.490313022459921,0.537636333343438,0.523018308546209,0.476981691453791,0.537636333343438,0.490313022459921,1e-20,0.5,0.462363666656562,0.00895781290850161,0.5,0.0193739550801585,0.819803552674979,12.2019369662938,2.69722638264789,0.5,77.5618435880011
CBC_1036,CBC_1036_MSI_TV_v3_Vset2_Tset3_2023-12-06_14h51.37.594.csv,1,41,0,1,b,1,0,2,tac,A,63,1,0A,1A,1,0,z,3.02735070000108,0,1,0,0,1A,0A,A01,2.23359222150709,0.536379805950825,0.471498456574602,0.5,0.490313022459921,0.490497061519313,0.546594146251939,0.5,0.480813719987566,0.5,0.5,0.580723213954995,0.490313022459921,0.490313022459921,0.490313022459921,0.490313022459921,0.546594146251939,0.467812903706421,0.532187096293579,0.471498456574602,0.536379805950825,0.0169977634439505,0.10753554002472,-0.471498456574602,-0.00913478991804041,0.5,0.0193739550801585,0.819803552674979,12.2019369662938,2.69722638264789,0.5,77.5618435880011
CBC_1036,CBC_1036_MSI_TV_v3_Vset2_Tset3_2023-12-06_14h51.37.594.csv,1,42,0,2,z,0,1,3,tac,C,27,1,0C,2C,0,1,z,1.03407420000076,0,1,1,1,2C,0C,C02,3.3499040872746,0.536379805950825,0.462363666656562,0.5,0.490313022459921,0.490497061519313,0.546594146251939,0.5,0.480813719987566,0.5,0.5,0.580723213954995,0.490313022459921,0.490313022459921,0.490313022459921,0.490313022459921,0.546594146251939,0.537346849273082,0.462653150726918,0.580723213954995,0.5,0.243621115781978,0.921312080167784,0.419276786045005,0.00812304961898914,0.5,0.0193739550801585,0.819803552674979,12.2019369662938,2.69722638264789,0.5,77.5618435880011
CBC_1036,CBC_1036_MSI_TV_v3_Vset2_Tset3_2023-12-06_14h51.37.594.csv,1,43,3,2,b,1,0,1,tac,D,63,1,3D,2D,1,0,b,1.93908370000099,1,0,1,1,3D,2D,D32,2.67414864942653,0.536379805950825,0.462363666656562,0.5,0.490313022459921,0.490497061519313,0.546594146251939,0.5,0.480813719987566,0.5,0.5,0.588846263573985,0.490313022459921,0.490313022459921,0.490313022459921,0.490313022459921,0.546594146251939,0.527138940442439,0.472861059557561,0.546594146251939,0.490313022459921,0.383465984971619,0.856301831967011,0.453405853748061,0.00878426464359584,0.5,0.0193739550801585,0.819803552674979,12.2019369662938,2.69722638264789,0.5,77.5618435880011
CBC_1036,CBC_1036_MSI_TV_v3_Vset2_Tset3_2023-12-06_14h51.37.594.csv,1,44,1,0,b,1,0,0,tac,B,63,1,1B,0B,1,0,b,1.89912220000042,1,0,1,1,1B,0B,B10,2.97892515523761,0.536379805950825,0.462363666656562,0.5,0.490313022459921,0.490497061519313,0.546594146251939,0.5,0.480813719987566,0.5,0.5,0.588846263573985,0.490313022459921,0.490313022459921,0.490313022459921,0.490313022459921,0.555378410895535,0.527045395965308,0.472954604034692,0.546594146251939,0.490497061519313,0.396332306972907,0.855690088862522,0.453405853748061,0.00878426464359584,0.5,0.0193739550801585,0.819803552674979,12.2019369662938,2.69722638264789,0.5,77.5618435880011
CBC_1036,CBC_1036_MSI_AV_v3_Vset3_Aset1_2023-12-06_15h58.00.246.csv,2,1,0,1,b,1,0,2,aud,A,63,1,0A,1A,1,0,z,2.50189169999976,0,1,0,0,1A,0A,A01,2.77258872223978,0.5,0.5,0.5,0.5,0.5,0.5,0.5,0.5,0.5,0.5,0.5,0.5,0.5,0.5,0.5,0.5,0.5,0.5,0.5,0.5,0.121957533546216,0.50016960433007,-0.5,-0.0603448394211043,0.5,0.120689678842209,0.85763649926185,3.0525023856798,2.20694309761841,0.5,62.9552396994888
CBC_1036,CBC_1036_MSI_AV_v3_Vset3_Aset1_2023-12-06_15h58.00.246.csv,2,2,2,3,z,0,1,1,aud,D,63,1,2D,3D,0,1,b,1.77505129999918,1,0,0,0,2D,3D,D23,2.83321334405622,0.5,0.439655160578896,0.5,0.5,0.5,0.5,0.5,0.5,0.5,0.5,0.5,0.5,0.5,0.5,0.5,0.5,0.5,0.5,0.5,0.5,0.254264382178674,0.500192367967649,-0.5,-0.0603448394211043,0.5,0.120689678842209,0.85763649926185,3.0525023856798,2.20694309761841,0.5,62.9552396994888
CBC_1036,CBC_1036_MSI_AV_v3_Vset3_Aset1_2023-12-06_15h58.00.246.csv,2,3,0,2,z,0,1,3,aud,C,27,1,0C,2C,0,1,z,1.90761849999944,0,1,1,1,2C,0C,C02,2.89037175789616,0.5,0.439655160578896,0.5,0.5,0.5,0.5,0.5,0.5,0.5,0.5,0.5,0.5,0.5,0.5,0.439655160578896,0.5,0.5,0.5,0.5,0.5,0.222248729277424,0.499478103346555,0.5,0.0603448394211043,0.5,0.120689678842209,0.85763649926185,3.0525023856798,2.20694309761841,0.5,62.9552396994888
CBC_1036,CBC_1036_MSI_AV_v3_Vset3_Aset1_2023-12-06_15h58.00.246.csv,2,4,0,1,b,1,0,2,aud,A,63,1,0A,1A,1,0,b,2.21218090000002,1,0,1,1,0A,1A,A01,2.2512917986065,0.5,0.439655160578896,0.5,0.5,0.5,0.5,0.5,0.5,0.5,0.5,0.560344839421104,0.5,0.5,0.5,0.439655160578896,0.5,0.532110098445012,0.467889901554988,0.5,0.439655160578896,0.19790139023264,0.606918453273919,0.5,0.0603448394211043,0.5,0.120689678842209,0.85763649926185,3.0525023856798,2.20694309761841,0.5,62.9552396994888
CBC_1036,CBC_1036_MSI_AV_v3_Vset3_Aset1_2023-12-06_15h58.00.246.csv,2,5,1,3,b,1,0,0,aud,B,27,1,1B,3B,1,0,z,3.56627889999982,0,1,0,0,3B,1B,B13,2.99573227355399,0.560344839421104,0.439655160578896,0.5,0.5,0.5,0.5,0.5,0.5,0.5,0.5,0.560344839421104,0.5,0.5,0.5,0.439655160578896,0.5,0.5,0.5,0.5,0.5,0.0415395485616159,0.500864300966237,-0.5,-0.0603448394211043,0.5,0.120689678842209,0.85763649926185,3.0525023856798,2.20694309761841,0.5,62.9552396994888
CBC_1036,CBC_1036_MSI_AV_v3_Vset3_Aset1_2023-12-06_15h58.00.246.csv,2,6,3,2,z,0,1,3,aud,C,63,1,3C,2C,0,1,z,2.11944999999832,0,1,1,1,2C,3C,C32,3.04452243772342,0.560344839421104,0.439655160578896,0.5,0.5,0.5,0.5,0.5,0.439655160578896,0.5,0.5,0.560344839421104,0.5,0.5,0.5,0.439655160578896,0.5,0.528455289815929,0.471544710184071,0.560344839421104,0.5,0.213535452541754,0.594951936064917,0.439655160578896,0.0530618401315866,0.5,0.120689678842209,0.85763649926185,3.0525023856798,2.20694309761841,0.5,62.9552396994888
CBC_1036,CBC_1036_MSI_AV_v3_Vset3_Aset1_2023-12-06_15h58.00.246.csv,2,7,3,2,b,1,0,1,aud,D,63,1,3D,2D,1,0,b,2.81906199999867,1,0,1,1,3D,2D,D32,3.09104245335832,0.560344839421104,0.439655160578896,0.5,0.5,0.5,0.5,0.5,0.439655160578896,0.5,0.5,0.613406679552691,0.5,0.5,0.5,0.439655160578896,0.5,0.532110098445012,0.467889901554988,0.5,0.439655160578896,0.105502093031499,0.605125293448857,0.5,0.0603448394211043,0.5,0.120689678842209,0.85763649926185,3.0525023856798,2.20694309761841,0.5,62.9552396994888
CBC_1036,CBC_1036_MSI_AV_v3_Vset3_Aset1_2023-12-06_15h58.00.246.csv,2,8,0,1,z,0,1,0,aud,B,63,1,0B,1B,0,1,b,2.27020369999991,1,0,0,0,0B,1B,B01,3.13549421592915,0.560344839421104,0.439655160578896,0.5,0.5,0.5,0.5,0.5,0.439655160578896,0.5,0.5,0.613406679552691,0.5,0.5,0.5,0.439655160578896,0.560344839421104,0.5,0.5,0.5,0.5,0.154131384075519,0.499878304110702,-0.5,-0.0603448394211043,0.5,0.120689678842209,0.85763649926185,3.0525023856798,2.20694309761841,0.5,62.9552396994888
CBC_1036,CBC_1036_MSI_AV_v3_Vset3_Aset1_2023-12-06_15h58.00.246.csv,2,9,2,0,z,0,1,2,aud,A,27,1,2A,0A,0,1,z,1.15904249999949,0,1,1,1,0A,2A,A20,3.17805383034795,0.560344839421104,0.439655160578896,0.5,0.5,0.439655160578896,0.5,0.5,0.439655160578896,0.5,0.5,0.613406679552691,0.5,0.5,0.5,0.439655160578896,0.560344839421104,0.528455289815929,0.471544710184071,0.560344839421104,0.5,0.425951903372871,0.595148512416709,0.439655160578896,0.0530618401315866,0.5,0.120689678842209,0.85763649926185,3.0525023856798,2.20694309761841,0.5,62.9552396994888
CBC_1036,CBC_1036_MSI_AV_v3_Vset3_Aset1_2023-12-06_15h58.00.246.csv,2,10,3,0,b,1,0,1,aud,D,9,1,3D,0D,1,0,b,1.35654799999975,1,0,1,1,3D,0D,D30,3.2188758248682,0.613406679552691,0.439655160578896,0.5,0.5,0.439655160578896,0.5,0.5,0.439655160578896,0.5,0.5,0.613406679552691,0.5,0.5,0.5,0.439655160578896,0.560344839421104,0.528455289815929,0.471544710184071,0.560344839421104,0.5,0.443162521442605,0.594680454665155,0.439655160578896,0.0530618401315866,0.5,0.120689678842209,0.85763649926185,3.0525023856798,2.20694309761841,0.5,62.9552396994888
CBC_1036,CBC_1036_MSI_AV_v3_Vset3_Aset1_2023-12-06_15h58.00.246.csv,2,11,2,3,b,1,0,3,aud,C,63,1,2C,3C,1,0,b,2.01124589999927,1,0,1,1,2C,3C,C23,3.25809653802148,0.613406679552691,0.439655160578896,0.5,0.5,0.439655160578896,0.5,0.5,0.439655160578896,0.5,0.5,0.613406679552691,0.5,0.5,0.5,0.439655160578896,0.613406679552691,0.550927788397251,0.449072211602749,0.613406679552691,0.5,0.266985199052758,0.664900059175543,0.386593320447309,0.0466578236873288,0.5,0.120689678842209,0.85763649926185,3.0525023856798,2.20694309761841,0.5,62.9552396994888
CBC_1036,CBC_1036_MSI_AV_v3_Vset3_Aset1_2023-12-06_15h58.00.246.csv,2,12,0,1,z,0,1,0,aud,B,63,1,0B,1B,0,1,z,2.63437369999883,0,1,1,1,1B,0B,B01,2.60268968544438,0.613406679552691,0.439655160578896,0.5,0.5,0.439655160578896,0.5,0.5,0.439655160578896,0.5,0.5,0.66006450324002,0.5,0.5,0.5,0.439655160578896,0.613406679552691,0.532110098445012,0.467889901554988,0.5,0.439655160578896,0.127857084923704,0.606242174251509,0.5,0.0603448394211043,0.5,0.120689678842209,0.85763649926185,3.0525023856798,2.20694309761841,0.5,62.9552396994888
CBC_1036,CBC_1036_MSI_AV_v3_Vset3_Aset1_2023-12-06_15h58.00.246.csv,2,13,2,3,z,0,1,1,aud,D,63,1,2D,3D,0,1,z,1.33622389999982,0,1,1,1,3D,2D,D23,2.63905732961526,0.613406679552691,0.439655160578896,0.5,0.5,0.439655160578896,0.560344839421104,0.5,0.439655160578896,0.5,0.5,0.66006450324002,0.5,0.5,0.5,0.439655160578896,0.613406679552691,0.582498250507341,0.417501749492659,0.613406679552691,0.439655160578896,0.611003432365358,0.752236945404442,0.386593320447309,0.0466578236873288,0.5,0.120689678842209,0.85763649926185,3.0525023856798,2.20694309761841,0.5,62.9552396994888
CBC_1036,CBC_1036_MSI_AV_v3_Vset3_Aset1_2023-12-06_15h58.00.246.csv,2,14,2,3,b,1,0,3,aud,C,63,1,2C,3C,1,0,b,1.75161620000108,1,0,1,1,2C,3C,C23,2.67414864942653,0.613406679552691,0.439655160578896,0.5,0.5,0.439655160578896,0.560344839421104,0.5,0.439655160578896,0.5,0.5,0.66006450324002,0.5,0.5,0.5,0.439655160578896,0.66006450324002,0.56898948411617,0.43101051588383,0.66006450324002,0.5,0.383006730411627,0.717730878195619,0.33993549675998,0.0410267059310287,0.5,0.120689678842209,0.85763649926185,3.0525023856798,2.20694309761841,0.5,62.9552396994888
CBC_1036,CBC_1036_MSI_AV_v3_Vset3_Aset1_2023-12-06_15h58.00.246.csv,2,15,3,1,z,0,1,0,aud,B,27,1,3B,1B,0,1,z,1.67034160000003,0,1,1,1,1B,3B,B31,3.40119738166216,0.613406679552691,0.439655160578896,0.5,0.5,0.439655160578896,0.560344839421104,0.5,0.439655160578896,0.5,0.5,0.701091209171048,0.5,0.5,0.5,0.439655160578896,0.66006450324002,0.560344839421104,0.439655160578896,0.560344839421104,0.439655160578896,0.400804751492405,0.692988070090065,0.439655160578896,0.0530618401315866,0.5,0.120689678842209,0.85763649926185,3.0525023856798,2.20694309761841,0.5,62.9552396994888
CBC_1036,CBC_1036_MSI_AV_v3_Vset3_Aset1_2023-12-06_15h58.00.246.csv,2,16,0,3,b,1,0,2,aud,A,9,1,0A,3A,1,0,b,3.13476150000133,1,0,1,1,0A,3A,A03,3.43398720448515,0.613406679552691,0.439655160578896,0.5,0.5,0.439655160578896,0.613406679552691,0.5,0.439655160578896,0.5,0.5,0.701091209171048,0.5,0.5,0.5,0.439655160578896,0.66006450324002,0.550927788397251,0.449072211602749,0.613406679552691,0.5,0.0810300028971492,0.664705484019566,0.386593320447309,0.0466578236873288,0.5,0.120689678842209,0.85763649926185,3.0525023856798,2.20694309761841,0.5,62.9552396994888
CBC_1036,CBC_1036_MSI_AV_v3_Vset3_Aset1_2023-12-06_15h58.00.246.csv,2,17,2,3,z,0,1,1,aud,D,63,1,2D,3D,0,1,z,1.29914309999913,0,1,1,1,3D,2D,D23,2.36712361413162,0.66006450324002,0.439655160578896,0.5,0.5,0.439655160578896,0.613406679552691,0.5,0.439655160578896,0.5,0.5,0.701091209171048,0.5,0.5,0.5,0.439655160578896,0.66006450324002,0.600211603880813,0.399788396119187,0.66006450324002,0.439655160578896,0.682943532505367,0.793875233200126,0.33993549675998,0.0410267059310287,0.5,0.120689678842209,0.85763649926185,3.0525023856798,2.20694309761841,0.5,62.9552396994888
CBC_1036,CBC_1036_MSI_AV_v3_Vset3_Aset1_2023-12-06_15h58.00.246.csv,2,18,0,2,z,0,1,3,aud,C,27,1,0C,2C,0,1,z,3.04245059999994,0,1,1,1,2C,0C,C02,2.80336038090653,0.66006450324002,0.439655160578896,0.5,0.5,0.439655160578896,0.613406679552691,0.5,0.439655160578896,0.5,0.5,0.701091209171048,0.5,0.5,0.5,0.439655160578896,0.701091209171048,0.583711881177548,0.416288118822452,0.701091209171048,0.5,0.0931564647549481,0.755329228482482,0.298908790828952,0.0360752059682591,0.5,0.120689678842209,0.85763649926185,3.0525023856798,2.20694309761841,0.5,62.9552396994888
CBC_1036,CBC_1036_MSI_AV_v3_Vset3_Aset1_2023-12-06_15h58.00.246.csv,2,19,0,1,b,1,0,2,aud,A,63,1,0A,1A,1,0,z,1.79947849999917,0,1,0,0,1A,0A,A01,2.42774823594805,0.66006450324002,0.439655160578896,0.5,0.5,0.439655160578896,0.613406679552691,0.5,0.439655160578896,0.5,0.5,0.737166415139307,0.5,0.5,0.5,0.439655160578896,0.701091209171048,0.399788396119187,0.600211603880813,0.439655160578896,0.66006450324002,0.105875384029992,0.205852102891259,-0.439655160578896,-0.0530618401315866,0.5,0.120689678842209,0.85763649926185,3.0525023856798,2.20694309761841,0.5,62.9552396994888
CBC_1036,CBC_1036_MSI_AV_v3_Vset3_Aset1_2023-12-06_15h58.00.246.csv,2,20,1,0,b,1,0,0,aud,B,63,0,1B,0B,0,1,b,1.4566305999997,1,0,1,0,1B,0B,B10,3.55534806148941,0.66006450324002,0.386593320447309,0.5,0.5,0.439655160578896,0.613406679552691,0.5,0.439655160578896,0.5,0.5,0.737166415139307,0.5,0.5,0.5,0.439655160578896,0.701091209171048,0.582498250507341,0.417501749492659,0.613406679552691,0.439655160578896,0.554022059371157,0.751733595384292,-0.613406679552691,-0.0740318551548798,0.5,0.120689678842209,0.85763649926185,3.0525023856798,2.20694309761841,0.5,62.9552396994888
CBC_1036,CBC_1036_MSI_AV_v3_Vset3_Aset1_2023-12-06_15h58.00.246.csv,2,21,3,1,b,1,0,1,aud,D,27,1,3D,1D,1,0,b,1.60951380000006,1,0,1,1,3D,1D,D31,3.58351893845611,0.66006450324002,0.386593320447309,0.5,0.5,0.439655160578896,0.539374824397811,0.5,0.439655160578896,0.5,0.5,0.737166415139307,0.5,0.5,0.5,0.439655160578896,0.701091209171048,0.583711881177548,0.416288118822452,0.701091209171048,0.5,0.477028257396283,0.75609041068316,0.298908790828952,0.0360752059682591,0.5,0.120689678842209,0.85763649926185,3.0525023856798,2.20694309761841,0.5,62.9552396994888
CBC_1036,CBC_1036_MSI_AV_v3_Vset3_Aset1_2023-12-06_15h58.00.246.csv,2,22,3,2,z,0,1,3,aud,C,63,1,3C,2C,0,1,z,1.45993019999878,0,1,1,1,2C,3C,C32,2.91777073208428,0.66006450324002,0.386593320447309,0.5,0.5,0.439655160578896,0.539374824397811,0.5,0.439655160578896,0.5,0.5,0.737166415139307,0.5,0.5,0.5,0.439655160578896,0.737166415139307,0.595850652037221,0.404149347962779,0.737166415139307,0.5,0.588894084140793,0.784202194028908,0.262833584860693,0.0317213009457834,0.5,0.120689678842209,0.85763649926185,3.0525023856798,2.20694309761841,0.5,62.9552396994888
CBC_1036,CBC_1036_MSI_AV_v3_Vset3_Aset1_2023-12-06_15h58.00.246.csv,2,23,0,1,z,0,1,0,aud,B,63,1,0B,1B,0,1,b,1.92474779999975,1,0,0,0,0B,1B,B01,2.53897387105828,0.66006450324002,0.386593320447309,0.5,0.5,0.439655160578896,0.539374824397811,0.5,0.439655160578896,0.5,0.5,0.768887716085091,0.5,0.5,0.5,0.439655160578896,0.737166415139307,0.449072211602749,0.550927788397251,0.439655160578896,0.539374824397811,0.147336506248091,0.33482295966517,-0.439655160578896,-0.0530618401315866,0.5,0.120689678842209,0.85763649926185,3.0525023856798,2.20694309761841,0.5,62.9552396994888
CBC_1036,CBC_1036_MSI_AV_v3_Vset3_Aset1_2023-12-06_15h58.00.246.csv,2,24,0,2,b,1,0,2,aud,A,27,1,0A,2A,1,0,z,1.93698489999952,0,1,0,0,2A,0A,A02,3.66356164612965,0.66006450324002,0.386593320447309,0.5,0.5,0.386593320447309,0.539374824397811,0.5,0.439655160578896,0.5,0.5,0.768887716085091,0.5,0.5,0.5,0.439655160578896,0.737166415139307,0.43101051588383,0.56898948411617,0.5,0.66006450324002,0.123524350746292,0.28351593721712,-0.5,-0.0603448394211043,0.5,0.120689678842209,0.85763649926185,3.0525023856798,2.20694309761841,0.5,62.9552396994888
CBC_1036,CBC_1036_MSI_AV_v3_Vset3_Aset1_2023-12-06_15h58.00.246.csv,2,25,3,2,b,1,0,1,aud,D,63,1,3D,2D,1,0,b,1.39045139999871,1,0,1,1,3D,2D,D32,2.99573227355399,0.66006450324002,0.386593320447309,0.439655160578896,0.5,0.386593320447309,0.539374824397811,0.5,0.439655160578896,0.5,0.5,0.768887716085091,0.5,0.5,0.5,0.439655160578896,0.737166415139307,0.626404571729084,0.373595428270916,0.737166415139307,0.439655160578896,0.721957935280887,0.846104231801339,0.262833584860693,0.0317213009457834,0.5,0.120689678842209,0.85763649926185,3.0525023856798,2.20694309761841,0.5,62.9552396994888
CBC_1036,CBC_1036_MSI_AV_v3_Vset3_Aset1_2023-12-06_15h58.00.246.csv,2,26,0,2,z,0,1,3,aud,C,27,1,0C,2C,0,1,z,1.80430460000025,0,1,1,1,2C,0C,C02,2.6149597780362,0.66006450324002,0.386593320447309,0.439655160578896,0.5,0.386593320447309,0.539374824397811,0.5,0.439655160578896,0.5,0.5,0.768887716085091,0.5,0.5,0.5,0.439655160578896,0.768887716085091,0.605954101642142,0.394045898357858,0.768887716085091,0.5,0.413370136926191,0.806442416549798,0.231112283914909,0.0278928673221797,0.5,0.120689678842209,0.85763649926185,3.0525023856798,2.20694309761841,0.5,62.9552396994888
CBC_1036,CBC_1036_MSI_AV_v3_Vset3_Aset1_2023-12-06_15h58.00.246.csv,2,27,0,1,z,0,1,0,aud,B,63,1,0B,1B,0,1,z,2.22459329999947,0,1,1,1,1B,0B,B01,2.35137525716348,0.66006450324002,0.386593320447309,0.439655160578896,0.5,0.386593320447309,0.539374824397811,0.5,0.439655160578896,0.5,0.5,0.796780583407271,0.5,0.5,0.5,0.439655160578896,0.768887716085091,0.582498250507341,0.417501749492659,0.539374824397811,0.386593320447309,0.236647402414674,0.75234936731895,0.460625175602189,0.0555927045100641,0.5,0.120689678842209,0.85763649926185,3.0525023856798,2.20694309761841,0.5,62.9552396994888
CBC_1036,CBC_1036_MSI_AV_v3_Vset3_Aset1_2023-12-06_15h58.00.246.csv,2,28,1,0,z,0,1,2,aud,A,63,1,1A,0A,0,1,z,2.2670190000008,0,1,1,1,0A,1A,A10,3.76120011569356,0.66006450324002,0.386593320447309,0.439655160578896,0.5,0.386593320447309,0.594967528907875,0.5,0.439655160578896,0.5,0.5,0.796780583407271,0.5,0.5,0.5,0.439655160578896,0.768887716085091,0.630640203800935,0.369359796199065,0.66006450324002,0.386593320447309,0.238197583471698,0.853276635770204,0.33993549675998,0.0410267059310287,0.5,0.120689678842209,0.85763649926185,3.0525023856798,2.20694309761841,0.5,62.9552396994888
CBC_1036,CBC_1036_MSI_AV_v3_Vset3_Aset1_2023-12-06_15h58.00.246.csv,2,29,2,3,b,1,0,3,aud,C,63,1,2C,3C,1,0,b,1.49295189999975,1,0,1,1,2C,3C,C23,2.68557734525015,0.701091209171048,0.386593320447309,0.439655160578896,0.5,0.386593320447309,0.594967528907875,0.5,0.439655160578896,0.5,0.5,0.796780583407271,0.5,0.5,0.5,0.439655160578896,0.768887716085091,0.614429760595075,0.385570239404925,0.796780583407271,0.5,0.616446830815338,0.823769379817318,0.203219416592729,0.0245264861230775,0.5,0.120689678842209,0.85763649926185,3.0525023856798,2.20694309761841,0.5,62.9552396994888
CBC_1036,CBC_1036_MSI_AV_v3_Vset3_Aset1_2023-12-06_15h58.00.246.csv,2,30,1,3,z,0,1,1,aud,D,27,1,1D,3D,0,1,z,1.60721550000017,0,1,1,1,3D,1D,D13,3.80666248977032,0.701091209171048,0.386593320447309,0.439655160578896,0.5,0.386593320447309,0.594967528907875,0.5,0.439655160578896,0.5,0.5,0.821307069530348,0.5,0.5,0.5,0.439655160578896,0.768887716085091,0.605954101642142,0.394045898357858,0.768887716085091,0.5,0.523390269998327,0.806784843358841,0.231112283914909,0.0278928673221797,0.5,0.120689678842209,0.85763649926185,3.0525023856798,2.20694309761841,0.5,62.9552396994888
CBC_1036,CBC_1036_MSI_AV_v3_Vset3_Aset1_2023-12-06_15h58.00.246.csv,2,31,0,1,b,1,0,2,aud,A,63,1,0A,1A,1,0,z,1.88536589999967,0,1,0,0,1A,0A,A01,2.4423470353692,0.701091209171048,0.386593320447309,0.439655160578896,0.5,0.386593320447309,0.594967528907875,0.5,0.439655160578896,0.5,0.5,0.821307069530348,0.5,0.5,0.5,0.439655160578896,0.796780583407271,0.35542780091113,0.64457219908887,0.386593320447309,0.701091209171048,0.0575253115664563,0.124689090155566,-0.386593320447309,-0.0466578236873288,0.5,0.120689678842209,0.85763649926185,3.0525023856798,2.20694309761841,0.5,62.9552396994888
CBC_1036,CBC_1036_MSI_AV_v3_Vset3_Aset1_2023-12-06_15h58.00.246.csv,2,32,2,3,z,0,1,1,aud,D,63,1,2D,3D,0,1,z,1.03983779999908,0,1,1,1,3D,2D,D23,2.46385324059017,0.701091209171048,0.33993549675998,0.439655160578896,0.5,0.386593320447309,0.594967528907875,0.5,0.439655160578896,0.5,0.5,0.821307069530348,0.5,0.5,0.5,0.439655160578896,0.796780583407271,0.644417299712249,0.355582700287751,0.796780583407271,0.439655160578896,0.493793631312257,0.875061340882007,0.203219416592729,0.0245264861230775,0.5,0.120689678842209,0.85763649926185,3.0525023856798,2.20694309761841,0.5,62.9552396994888
CBC_1036,CBC_1036_MSI_AV_v3_Vset3_Aset1_2023-12-06_15h58.00.246.csv,2,33,1,2,b,1,0,0,aud,B,9,1,1B,2B,1,0,b,1.45292349999909,1,0,1,1,1B,2B,B12,3.87120101090789,0.701091209171048,0.33993549675998,0.439655160578896,0.5,0.386593320447309,0.594967528907875,0.5,0.439655160578896,0.5,0.5,0.821307069530348,0.5,0.5,0.5,0.439655160578896,0.821307069530348,0.54336545440877,0.45663454559123,0.594967528907875,0.5,0.451747002616649,0.642094426229145,0.405032471092125,0.0488832388567747,0.5,0.120689678842209,0.85763649926185,3.0525023856798,2.20694309761841,0.5,62.9552396994888
CBC_1036,CBC_1036_MSI_AV_v3_Vset3_Aset1_2023-12-06_15h58.00.246.csv,2,34,0,1,b,1,0,2,aud,A,63,1,0A,1A,1,0,z,2.46441409999898,0,1,0,0,1A,0A,A01,2.28238238567653,0.701091209171048,0.33993549675998,0.439655160578896,0.5,0.386593320447309,0.64385076776465,0.5,0.439655160578896,0.5,0.5,0.821307069530348,0.5,0.5,0.5,0.439655160578896,0.821307069530348,0.326538689952208,0.673461310047792,0.33993549675998,0.701091209171048,0.0160236630045018,0.0882394379897468,-0.33993549675998,-0.0410267059310287,0.5,0.120689678842209,0.85763649926185,3.0525023856798,2.20694309761841,0.5,62.9552396994888
CBC_1036,CBC_1036_MSI_AV_v3_Vset3_Aset1_2023-12-06_15h58.00.246.csv,2,35,1,2,z,0,1,3,aud,C,9,1,1C,2C,0,1,z,1.55881129999943,0,1,1,1,2C,1C,C12,3.91202300542815,0.701091209171048,0.298908790828952,0.439655160578896,0.5,0.386593320447309,0.64385076776465,0.5,0.439655160578896,0.5,0.5,0.821307069530348,0.5,0.5,0.5,0.439655160578896,0.821307069530348,0.621586827520932,0.378413172479068,0.821307069530348,0.5,0.58611971734451,0.836776951376236,0.178692930469652,0.0215663923897554,0.5,0.120689678842209,0.85763649926185,3.0525023856798,2.20694309761841,0.5,62.9552396994888
CBC_1036,CBC_1036_MSI_AV_v3_Vset3_Aset1_2023-12-06_15h58.00.246.csv,2,36,0,1,z,0,1,0,aud,B,63,1,0B,1B,0,1,z,2.48839969999972,0,1,1,1,1B,0B,B01,2.32238772029023,0.701091209171048,0.298908790828952,0.439655160578896,0.5,0.386593320447309,0.64385076776465,0.5,0.439655160578896,0.5,0.5,0.842873461920103,0.5,0.5,0.5,0.439655160578896,0.821307069530348,0.624828435749356,0.375171564250644,0.64385076776465,0.386593320447309,0.178455339818136,0.843261197538629,0.35614923223535,0.0429835364583836,0.5,0.120689678842209,0.85763649926185,3.0525023856798,2.20694309761841,0.5,62.9552396994888
CBC_1036,CBC_1036_MSI_AV_v3_Vset3_Aset1_2023-12-06_15h58.00.246.csv,2,37,1,0,z,0,1,2,aud,A,63,0,1A,0A,1,0,z,2.11896379999962,0,1,1,0,0A,1A,A10,3.25809653802148,0.701091209171048,0.298908790828952,0.439655160578896,0.5,0.386593320447309,0.686834304223033,0.5,0.439655160578896,0.5,0.5,0.842873461920103,0.5,0.5,0.5,0.439655160578896,0.821307069530348,0.701091209171048,0.298908790828952,0.701091209171048,0.298908790828952,0.269212674836421,0.937544944299589,-0.701091209171048,-0.0846144728739495,0.5,0.120689678842209,0.85763649926185,3.0525023856798,2.20694309761841,0.5,62.9552396994888
CBC_1036,CBC_1036_MSI_AV_v3_Vset3_Aset1_2023-12-06_15h58.00.246.csv,2,38,1,0,b,1,0,0,aud,B,63,1,1B,0B,1,0,b,1.80012449999958,1,0,1,1,1B,0B,B10,3.27714473299218,0.616476736297099,0.298908790828952,0.439655160578896,0.5,0.386593320447309,0.686834304223033,0.5,0.439655160578896,0.5,0.5,0.842873461920103,0.5,0.5,0.5,0.439655160578896,0.821307069530348,0.639851526491099,0.360148473508901,0.686834304223033,0.386593320447309,0.451064428108391,0.868169695199752,0.313165695776967,0.0377958672477189,0.5,0.120689678842209,0.85763649926185,3.0525023856798,2.20694309761841,0.5,62.9552396994888
CBC_1036,CBC_1036_MSI_AV_v3_Vset3_Aset1_2023-12-06_15h58.00.246.csv,2,39,3,1,b,1,0,1,aud,D,27,1,3D,1D,1,0,b,1.27743329999976,1,0,1,1,3D,1D,D31,3.29583686600433,0.616476736297099,0.298908790828952,0.439655160578896,0.5,0.386593320447309,0.724630171470752,0.5,0.439655160578896,0.5,0.5,0.842873461920103,0.5,0.5,0.5,0.439655160578896,0.821307069530348,0.621586827520932,0.378413172479068,0.821307069530348,0.5,0.766582484148456,0.837120264623118,0.178692930469652,0.0215663923897554,0.5,0.120689678842209,0.85763649926185,3.0525023856798,2.20694309761841,0.5,62.9552396994888
CBC_1036,CBC_1036_MSI_AV_v3_Vset3_Aset1_2023-12-06_15h58.00.246.csv,2,40,2,3,b,1,0,3,aud,C,63,1,2C,3C,1,0,b,1.36505730000135,1,0,1,1,2C,3C,C23,2.62103882411258,0.616476736297099,0.298908790828952,0.439655160578896,0.5,0.386593320447309,0.724630171470752,0.5,0.439655160578896,0.5,0.5,0.842873461920103,0.5,0.5,0.5,0.439655160578896,0.842873461920103,0.627664099277771,0.372335900722229,0.842873461920103,0.5,0.743262236868426,0.848248482282237,0.157126538079897,0.0189635514184508,0.5,0.120689678842209,0.85763649926185,3.0525023856798,2.20694309761841,0.5,62.9552396994888
CBC_1036,CBC_1036_MSI_AV_v3_Vset3_Aset1_2023-12-06_15h58.00.246.csv,2,41,2,0,z,0,1,2,aud,A,27,1,2A,0A,0,1,b,1.23787409999932,1,0,0,0,2A,0A,A20,3.3322045101752,0.616476736297099,0.298908790828952,0.439655160578896,0.5,0.386593320447309,0.724630171470752,0.5,0.439655160578896,0.5,0.5,0.861837013338554,0.5,0.5,0.5,0.439655160578896,0.842873461920103,0.416288118822452,0.583711881177548,0.439655160578896,0.616476736297099,0.204894440151068,0.244411715661816,-0.439655160578896,-0.0530618401315866,0.5,0.120689678842209,0.85763649926185,3.0525023856798,2.20694309761841,0.5,62.9552396994888
CBC_1036,CBC_1036_MSI_AV_v3_Vset3_Aset1_2023-12-06_15h58.00.246.csv,2,42,3,2,b,1,0,1,aud,D,63,1,3D,2D,1,0,z,0.946077099999457,0,1,0,0,2D,3D,D32,2.94443897916644,0.616476736297099,0.298908790828952,0.386593320447309,0.5,0.386593320447309,0.724630171470752,0.5,0.439655160578896,0.5,0.5,0.861837013338554,0.5,0.5,0.5,0.439655160578896,0.842873461920103,0.342803390790788,0.657196609209212,0.439655160578896,0.842873461920103,0.00572070879871011,0.107787925112782,-0.439655160578896,-0.0530618401315866,0.5,0.120689678842209,0.85763649926185,3.0525023856798,2.20694309761841,0.5,62.9552396994888
CBC_1036,CBC_1036_MSI_AV_v3_Vset3_Aset1_2023-12-06_15h58.00.246.csv,2,43,3,1,z,0,1,0,aud,B,27,1,3B,1B,0,1,z,1.61601340000016,0,1,1,1,1B,3B,B31,3.36729582998647,0.616476736297099,0.298908790828952,0.386593320447309,0.5,0.386593320447309,0.724630171470752,0.5,0.439655160578896,0.5,0.5,0.861837013338554,0.5,0.5,0.5,0.386593320447309,0.842873461920103,0.62238194669608,0.37761805330392,0.724630171470752,0.439655160578896,0.548988716993599,0.839211952810422,0.275369828529248,0.0332342961680289,0.5,0.120689678842209,0.85763649926185,3.0525023856798,2.20694309761841,0.5,62.9552396994888
CBC_1036,CBC_1036_MSI_AV_v3_Vset3_Aset1_2023-12-06_15h58.00.246.csv,2,44,2,3,b,1,0,3,aud,C,63,1,2C,3C,1,0,b,1.75559399999838,1,0,1,1,2C,3C,C23,2.46809953147162,0.616476736297099,0.298908790828952,0.386593320447309,0.5,0.386593320447309,0.757864467638781,0.5,0.439655160578896,0.5,0.5,0.861837013338554,0.5,0.5,0.5,0.386593320447309,0.842873461920103,0.63284886876863,0.36715113123137,0.861837013338554,0.5,0.472071870125685,0.856991360254791,0.138162986661446,0.0166748464880502,0.5,0.120689678842209,0.85763649926185,3.0525023856798,2.20694309761841,0.5,62.9552396994888
CBC_1036,CBC_1036_MSI_TV_v3_Vset6_Tset2_2023-12-06_16h06.44.053.csv,3,1,1,3,b,1,0,0,tac,B,27,1,1B,3B,1,0,z,2.46109009999964,0,1,0,0,3B,1B,B13,2.77258872223978,0.5,0.5,0.5,0.5,0.5,0.5,0.5,0.5,0.5,0.5,0.5,0.5,0.5,0.5,0.5,0.5,0.5,0.5,0.5,0.5,0.169211738729565,0.500786446428372,-0.5,-0.492713799911049,0.5,0.985427599822098,1.09503053683497,0.38132780887018,2.39057962905236,0.5,73.6135460792794
CBC_1036,CBC_1036_MSI_TV_v3_Vset6_Tset2_2023-12-06_16h06.44.053.csv,3,2,3,2,z,0,1,3,tac,C,63,1,3C,2C,0,1,b,2.55984849999913,1,0,0,0,3C,2C,C32,2.83321334405622,0.5,0.5,0.5,0.5,0.5,0.5,0.5,0.00728620008895092,0.5,0.5,0.5,0.5,0.5,0.5,0.5,0.5,0.5,0.5,0.5,0.5,0.155313333086547,0.500512881771172,-0.5,-0.492713799911049,0.5,0.985427599822098,1.09503053683497,0.38132780887018,2.39057962905236,0.5,73.6135460792794
CBC_1036,CBC_1036_MSI_TV_v3_Vset6_Tset2_2023-12-06_16h06.44.053.csv,3,3,3,2,b,1,0,1,tac,D,63,1,3D,2D,1,0,b,3.34627429999819,1,0,1,1,3D,2D,D32,2.89037175789616,0.5,0.5,0.5,0.5,0.5,0.5,0.5,0.00728620008895092,0.5,0.5,0.5,0.00728620008895092,0.5,0.5,0.5,0.5,0.5,0.5,0.5,0.5,0.078650921397476,0.499779975434761,0.5,0.492713799911049,0.5,0.985427599822098,1.09503053683497,0.38132780887018,2.39057962905236,0.5,73.6135460792794
CBC_1036,CBC_1036_MSI_TV_v3_Vset6_Tset2_2023-12-06_16h06.44.053.csv,3,4,0,1,z,0,1,0,tac,B,63,1,0B,1B,0,1,b,3.24426179999864,1,0,0,0,0B,1B,B01,2.94443897916644,0.5,0.5,0.5,0.5,0.5,0.5,0.5,0.00728620008895092,0.5,0.5,0.5,0.00728620008895092,0.5,0.5,0.5,0.992713799911049,0.5,0.5,0.5,0.5,0.0859858874777947,0.500318245290146,-0.5,-0.492713799911049,0.5,0.985427599822098,1.09503053683497,0.38132780887018,2.39057962905236,0.5,73.6135460792794
CBC_1036,CBC_1036_MSI_TV_v3_Vset6_Tset2_2023-12-06_16h06.44.053.csv,3,5,0,3,b,1,0,2,tac,A,9,1,0A,3A,1,0,z,3.27280389999942,0,1,0,0,3A,0A,A03,2.99573227355399,0.5,0.5,0.5,0.5,0.00728620008895092,0.5,0.5,0.00728620008895092,0.5,0.5,0.5,0.00728620008895092,0.5,0.5,0.5,0.992713799911049,0.5,0.5,0.5,0.5,0.083627958683405,0.498740853337771,-0.5,-0.492713799911049,0.5,0.985427599822098,1.09503053683497,0.38132780887018,2.39057962905236,0.5,73.6135460792794
CBC_1036,CBC_1036_MSI_TV_v3_Vset6_Tset2_2023-12-06_16h06.44.053.csv,3,6,3,2,b,1,0,1,tac,D,63,1,3D,2D,1,0,z,2.40830099999948,0,1,0,0,2D,3D,D32,2.35137525716348,0.5,0.5,0.5,0.00728620008895092,0.00728620008895092,0.5,0.5,0.00728620008895092,0.5,0.5,0.5,0.00728620008895092,0.5,0.5,0.5,0.992713799911049,0.334960392293416,0.665039607706584,0.5,0.992713799911049,0.150430995600303,0.425037075117152,-0.5,-0.492713799911049,0.5,0.985427599822098,1.09503053683497,0.38132780887018,2.39057962905236,0.5,73.6135460792794
CBC_1036,CBC_1036_MSI_TV_v3_Vset6_Tset2_2023-12-06_16h06.44.053.csv,3,7,0,2,z,0,1,3,tac,C,27,1,0C,2C,0,1,b,2.62412849999964,1,0,0,0,0C,2C,C02,3.09104245335832,0.5,0.5,0.5,0.00728620008895092,0.00728620008895092,0.5,0.5,0.00728620008895092,0.5,0.5,0.5,0.00728620008895092,0.5,0.5,0.00728620008895092,0.992713799911049,0.5,0.5,0.5,0.5,0.146930388282308,0.500501325121633,-0.5,-0.492713799911049,0.5,0.985427599822098,1.09503053683497,0.38132780887018,2.39057962905236,0.5,73.6135460792794
CBC_1036,CBC_1036_MSI_TV_v3_Vset6_Tset2_2023-12-06_16h06.44.053.csv,3,8,0,1,b,1,0,2,tac,A,63,1,0A,1A,1,0,z,2.50271319999956,0,1,0,0,1A,0A,A01,3.13549421592915,0.5,0.5,0.5,0.00728620008895092,0.00728620008895092,0.5,0.5,0.00728620008895092,0.00728620008895092,0.5,0.5,0.00728620008895092,0.5,0.5,0.00728620008895092,0.992713799911049,0.5,0.5,0.5,0.5,0.162946624040747,0.499862725820027,-0.5,-0.492713799911049,0.5,0.985427599822098,1.09503053683497,0.38132780887018,2.39057962905236,0.5,73.6135460792794
CBC_1036,CBC_1036_MSI_TV_v3_Vset6_Tset2_2023-12-06_16h06.44.053.csv,3,9,1,0,b,1,0,0,tac,B,63,1,1B,0B,1,0,b,3.30617309999798,1,0,1,1,1B,0B,B10,3.17805383034795,0.5,0.00728620008895092,0.5,0.00728620008895092,0.00728620008895092,0.5,0.5,0.00728620008895092,0.00728620008895092,0.5,0.5,0.00728620008895092,0.5,0.5,0.00728620008895092,0.992713799911049,0.985636904596117,0.0143630954038831,0.5,0.00728620008895092,0.108996569890161,0.708183886291733,0.5,0.492713799911049,0.5,0.985427599822098,1.09503053683497,0.38132780887018,2.39057962905236,0.5,73.6135460792794
CBC_1036,CBC_1036_MSI_TV_v3_Vset6_Tset2_2023-12-06_16h06.44.053.csv,3,10,1,3,z,0,1,1,tac,D,27,1,1D,3D,0,1,z,2.34682129999965,0,1,1,1,3D,1D,D13,3.2188758248682,0.5,0.00728620008895092,0.5,0.00728620008895092,0.00728620008895092,0.992713799911049,0.5,0.00728620008895092,0.00728620008895092,0.5,0.5,0.00728620008895092,0.5,0.5,0.00728620008895092,0.992713799911049,0.665039607706584,0.334960392293416,0.992713799911049,0.5,0.214872920726024,0.575535871497341,0.00728620008895087,0.00718002266547841,0.5,0.985427599822098,1.09503053683497,0.38132780887018,2.39057962905236,0.5,73.6135460792794
CBC_1036,CBC_1036_MSI_TV_v3_Vset6_Tset2_2023-12-06_16h06.44.053.csv,3,11,3,2,z,0,1,3,tac,C,63,1,3C,2C,0,1,z,1.78873779999776,0,1,1,1,2C,3C,C32,2.56494935746154,0.5,0.00728620008895092,0.5,0.00728620008895092,0.00728620008895092,0.992713799911049,0.5,0.00728620008895092,0.00728620008895092,0.5,0.5,0.00728620008895092,0.5,0.5,0.00728620008895092,0.999893822576528,0.985636904596117,0.0143630954038831,0.5,0.00728620008895092,0.437277434270683,0.708070260073837,0.5,0.492713799911049,0.5,0.985427599822098,1.09503053683497,0.38132780887018,2.39057962905236,0.5,73.6135460792794
CBC_1036,CBC_1036_MSI_TV_v3_Vset6_Tset2_2023-12-06_16h06.44.053.csv,3,12,1,0,b,1,0,0,tac,B,63,1,1B,0B,1,0,z,1.83391949999896,0,1,0,0,0B,1B,B10,2.60268968544438,0.5,0.00728620008895092,0.5,0.00728620008895092,0.00728620008895092,0.992713799911049,0.5,0.00728620008895092,0.00728620008895092,0.5,0.992713799911049,0.00728620008895092,0.5,0.5,0.00728620008895092,0.999893822576528,0.00728620008895092,0.992713799911049,0.00728620008895092,0.992713799911049,0.172774514209331,0.289500464070185,-0.00728620008895092,-0.00718002266547847,0.5,0.985427599822098,1.09503053683497,0.38132780887018,2.39057962905236,0.5,73.6135460792794
CBC_1036,CBC_1036_MSI_TV_v3_Vset6_Tset2_2023-12-06_16h06.44.053.csv,3,13,0,1,b,1,0,2,tac,A,63,1,0A,1A,1,0,b,2.05921449999914,1,0,1,1,0A,1A,A01,2.63905732961526,0.5,0.00728620008895092,0.5,0.00728620008895092,0.000106177423472457,0.992713799911049,0.5,0.00728620008895092,0.00728620008895092,0.5,0.992713799911049,0.00728620008895092,0.5,0.5,0.00728620008895092,0.999893822576528,0.985636904596117,0.0143630954038831,0.5,0.00728620008895092,0.347450655471964,0.708566940903723,0.5,0.492713799911049,0.5,0.985427599822098,1.09503053683497,0.38132780887018,2.39057962905236,0.5,73.6135460792794
CBC_1036,CBC_1036_MSI_TV_v3_Vset6_Tset2_2023-12-06_16h06.44.053.csv,3,14,1,2,z,0,1,3,tac,C,9,1,1C,2C,0,1,z,2.47630619999836,0,1,1,1,2C,1C,C12,3.36729582998647,0.992713799911049,0.00728620008895092,0.5,0.00728620008895092,0.000106177423472457,0.992713799911049,0.5,0.00728620008895092,0.00728620008895092,0.5,0.992713799911049,0.00728620008895092,0.5,0.5,0.00728620008895092,0.999893822576528,0.665039607706584,0.334960392293416,0.992713799911049,0.5,0.191661814105492,0.574525447722544,0.00728620008895087,0.00718002266547841,0.5,0.985427599822098,1.09503053683497,0.38132780887018,2.39057962905236,0.5,73.6135460792794
CBC_1036,CBC_1036_MSI_TV_v3_Vset6_Tset2_2023-12-06_16h06.44.053.csv,3,15,1,0,z,0,1,2,tac,A,63,1,1A,0A,0,1,z,2.43085599999904,0,1,1,1,0A,1A,A10,3.40119738166216,0.992713799911049,0.00728620008895092,0.5,0.00728620008895092,0.000106177423472457,0.992713799911049,0.5,0.00728620008895092,0.00728620008895092,0.5,0.999893822576528,0.00728620008895092,0.5,0.5,0.00728620008895092,0.999893822576528,0.992713799911049,0.00728620008895092,0.992713799911049,0.00728620008895092,0.247152717511112,0.710270652677666,0.00728620008895087,0.00718002266547841,0.5,0.985427599822098,1.09503053683497,0.38132780887018,2.39057962905236,0.5,73.6135460792794
CBC_1036,CBC_1036_MSI_TV_v3_Vset6_Tset2_2023-12-06_16h06.44.053.csv,3,16,3,1,b,1,0,1,tac,D,27,1,3D,1D,1,0,b,1.64685739999913,1,0,1,1,3D,1D,D31,3.43398720448515,0.999893822576528,0.00728620008895092,0.5,0.00728620008895092,0.000106177423472457,0.992713799911049,0.5,0.00728620008895092,0.00728620008895092,0.5,0.999893822576528,0.00728620008895092,0.5,0.5,0.00728620008895092,0.999893822576528,0.666643070013385,0.333356929986615,0.999893822576528,0.5,0.369505469206258,0.575560401542978,0.000106177423472409,0.00010463016356771,0.5,0.985427599822098,1.09503053683497,0.38132780887018,2.39057962905236,0.5,73.6135460792794
CBC_1036,CBC_1036_MSI_TV_v3_Vset6_Tset2_2023-12-06_16h06.44.053.csv,3,17,0,1,z,0,1,0,tac,B,63,1,0B,1B,0,1,z,2.999058899999,0,1,1,1,1B,0B,B01,2.77258872223978,0.999893822576528,0.00728620008895092,0.5,0.00728620008895092,0.000106177423472457,0.992713799911049,0.5,0.00728620008895092,0.00728620008895092,0.5,0.999893822576528,0.00728620008895092,0.5,0.5,0.00728620008895092,0.999998452740095,0.999893054706899,0.000106945293100887,0.992713799911049,0.000106177423472457,0.145847437623207,0.713244768421581,0.00728620008895087,0.00718002266547841,0.5,0.985427599822098,1.09503053683497,0.38132780887018,2.39057962905236,0.5,73.6135460792794
CBC_1036,CBC_1036_MSI_TV_v3_Vset6_Tset2_2023-12-06_16h06.44.053.csv,3,18,2,3,b,1,0,3,tac,C,63,0,2C,3C,0,1,b,1.93939109999883,1,0,1,0,2C,3C,C23,3.49650756146648,0.999893822576528,0.00728620008895092,0.5,0.00728620008895092,0.000106177423472457,0.999893822576528,0.5,0.00728620008895092,0.00728620008895092,0.5,0.999893822576528,0.00728620008895092,0.5,0.5,0.00728620008895092,0.999998452740095,0.992765742047119,0.00723425795288132,0.999893822576528,0.00728620008895092,0.38859287574523,0.711448642283638,-0.999893822576528,-0.98532296965853,0.5,0.985427599822098,1.09503053683497,0.38132780887018,2.39057962905236,0.5,73.6135460792794
CBC_1036,CBC_1036_MSI_TV_v3_Vset6_Tset2_2023-12-06_16h06.44.053.csv,3,19,2,0,z,0,1,2,tac,A,27,1,2A,0A,0,1,b,2.5757311999987,1,0,0,0,2A,0A,A20,3.52636052461616,0.999893822576528,0.00728620008895092,0.5,0.00728620008895092,0.000106177423472457,0.999893822576528,0.5,0.00728620008895092,0.00728620008895092,0.5,0.0145708529179972,0.00728620008895092,0.5,0.5,0.00728620008895092,0.999998452740095,0.333356929986615,0.666643070013385,0.5,0.999893822576528,0.129590392699111,0.423582321567406,-0.5,-0.492713799911049,0.5,0.985427599822098,1.09503053683497,0.38132780887018,2.39057962905236,0.5,73.6135460792794
CBC_1036,CBC_1036_MSI_TV_v3_Vset6_Tset2_2023-12-06_16h06.44.053.csv,3,20,3,2,b,1,0,1,tac,D,63,1,3D,2D,1,0,b,1.47777759999917,1,0,1,1,3D,2D,D32,2.4567357728213,0.999893822576528,0.00728620008895092,0.00728620008895092,0.00728620008895092,0.000106177423472457,0.999893822576528,0.5,0.00728620008895092,0.00728620008895092,0.5,0.0145708529179972,0.00728620008895092,0.5,0.5,0.00728620008895092,0.999998452740095,0.992766493494677,0.007233506505323,0.999998452740095,0.00728620008895092,0.475753342918505,0.71125203876378,1.54725990464399e-06,1.5247126141343e-06,0.5,0.985427599822098,1.09503053683497,0.38132780887018,2.39057962905236,0.5,73.6135460792794
CBC_1036,CBC_1036_MSI_TV_v3_Vset6_Tset2_2023-12-06_16h06.44.053.csv,3,21,3,1,z,0,1,0,tac,B,27,1,3B,1B,0,1,z,3.05446989999837,0,1,1,1,1B,3B,B31,3.58351893845611,0.999893822576528,0.00728620008895092,0.00728620008895092,0.00728620008895092,0.000106177423472457,0.999893822576528,0.5,0.00728620008895092,0.00728620008895092,0.5,0.0145708529179972,0.00728620008895092,0.5,0.5,0.00728620008895092,0.99999997745271,0.992765742047119,0.00723425795288132,0.999893822576528,0.00728620008895092,0.138203535250745,0.711120037971081,0.000106177423472409,0.00010463016356771,0.5,0.985427599822098,1.09503053683497,0.38132780887018,2.39057962905236,0.5,73.6135460792794
CBC_1036,CBC_1036_MSI_TV_v3_Vset6_Tset2_2023-12-06_16h06.44.053.csv,3,22,3,2,z,0,1,3,tac,C,63,1,3C,2C,0,1,z,2.49770099999841,0,1,1,1,2C,3C,C32,2.51230562397611,0.999893822576528,0.00728620008895092,0.00728620008895092,0.00728620008895092,0.000106177423472457,0.999998452740095,0.5,0.00728620008895092,0.00728620008895092,0.5,0.0145708529179972,0.00728620008895092,0.5,0.5,0.00728620008895092,0.99999997745271,0.666643070013386,0.333356929986614,0.0145708529179972,0.00728620008895092,0.188306973812349,0.575073191974677,0.985429147082003,0.971069079203755,0.5,0.985427599822098,1.09503053683497,0.38132780887018,2.39057962905236,0.5,73.6135460792794
CBC_1036,CBC_1036_MSI_TV_v3_Vset6_Tset2_2023-12-06_16h06.44.053.csv,3,23,0,1,b,1,0,2,tac,A,63,1,0A,1A,1,0,z,2.67150219999894,0,1,0,0,1A,0A,A01,2.53897387105828,0.999893822576528,0.00728620008895092,0.00728620008895092,0.00728620008895092,0.000106177423472457,0.999998452740095,0.5,0.00728620008895092,0.00728620008895092,0.5,0.985639932121753,0.00728620008895092,0.5,0.5,0.00728620008895092,0.99999997745271,0.00723425795288132,0.992765742047119,0.00728620008895092,0.999893822576528,0.0804743712706968,0.289487139821038,-0.00728620008895092,-0.00718002266547847,0.5,0.985427599822098,1.09503053683497,0.38132780887018,2.39057962905236,0.5,73.6135460792794
CBC_1036,CBC_1036_MSI_TV_v3_Vset6_Tset2_2023-12-06_16h06.44.053.csv,3,24,2,1,z,0,1,0,tac,B,9,1,2B,1B,0,1,z,3.2862830999984,0,1,1,1,1B,2B,B21,3.66356164612965,0.999893822576528,0.000106177423472457,0.00728620008895092,0.00728620008895092,0.000106177423472457,0.999998452740095,0.5,0.00728620008895092,0.00728620008895092,0.5,0.985639932121753,0.00728620008895092,0.5,0.5,0.00728620008895092,0.99999997745271,0.666666322830778,0.333333677169222,0.999998452740095,0.5,0.0945543143065176,0.573914028015465,1.54725990464399e-06,1.5247126141343e-06,0.5,0.985427599822098,1.09503053683497,0.38132780887018,2.39057962905236,0.5,73.6135460792794
CBC_1036,CBC_1036_MSI_TV_v3_Vset6_Tset2_2023-12-06_16h06.44.053.csv,3,25,2,3,b,1,0,3,tac,C,63,1,2C,3C,1,0,b,1.35344709999845,1,0,1,1,2C,3C,C23,2.99573227355399,0.999893822576528,0.000106177423472457,0.00728620008895092,0.00728620008895092,0.000106177423472457,0.99999997745271,0.5,0.00728620008895092,0.00728620008895092,0.5,0.985639932121753,0.00728620008895092,0.5,0.5,0.00728620008895092,0.99999997745271,0.992661891098859,0.00733810890114105,0.985639932121753,0.00728620008895092,0.351087574802205,0.709489060127258,0.0143600678782474,0.0141508072225437,0.5,0.985427599822098,1.09503053683497,0.38132780887018,2.39057962905236,0.5,73.6135460792794
CBC_1036,CBC_1036_MSI_TV_v3_Vset6_Tset2_2023-12-06_16h06.44.053.csv,3,26,2,3,z,0,1,1,tac,D,63,1,2D,3D,0,1,b,2.75189309999951,1,0,0,0,2D,3D,D23,3.71357206670431,0.999893822576528,0.000106177423472457,0.00728620008895092,0.00728620008895092,0.000106177423472457,0.99999997745271,0.5,0.00728620008895092,0.00728620008895092,0.5,0.999790739344296,0.00728620008895092,0.5,0.5,0.00728620008895092,0.99999997745271,0.00723349555608249,0.992766504443918,0.00728620008895092,0.99999997745271,0.0746423315452615,0.289442010573099,-0.00728620008895092,-0.00718002266547847,0.5,0.985427599822098,1.09503053683497,0.38132780887018,2.39057962905236,0.5,73.6135460792794
CBC_1036,CBC_1036_MSI_TV_v3_Vset6_Tset2_2023-12-06_16h06.44.053.csv,3,27,0,1,z,0,1,0,tac,B,63,1,0B,1B,0,1,z,1.79700479999883,0,1,1,1,1B,0B,B01,2.63905732961526,0.999893822576528,0.000106177423472457,0.00728620008895092,0.00728620008895092,0.000106177423472457,0.99999997745271,0.5,0.00728620008895092,0.00728620008895092,0.5,0.999790739344296,0.00728620008895092,0.5,0.5,0.000106177423472457,0.99999997745271,0.999893833846582,0.000106166153417586,0.99999997745271,0.000106177423472457,0.438907573579642,0.713354035123604,2.25472904791246e-08,2.22187223393354e-08,0.5,0.985427599822098,1.09503053683497,0.38132780887018,2.39057962905236,0.5,73.6135460792794
CBC_1036,CBC_1036_MSI_TV_v3_Vset6_Tset2_2023-12-06_16h06.44.053.csv,3,28,0,2,b,1,0,2,tac,A,27,1,0A,2A,1,0,z,2.73903280000013,0,1,0,0,2A,0A,A02,3.76120011569356,0.999893822576528,0.000106177423472457,0.00728620008895092,0.00728620008895092,0.000106177423472457,0.999999999671432,0.5,0.00728620008895092,0.00728620008895092,0.5,0.999790739344296,0.00728620008895092,0.5,0.5,0.000106177423472457,0.99999997745271,0.00723425795288132,0.992765742047119,0.00728620008895092,0.999893822576528,0.0755080801609504,0.289312529155282,-0.00728620008895092,-0.00718002266547847,0.5,0.985427599822098,1.09503053683497,0.38132780887018,2.39057962905236,0.5,73.6135460792794
CBC_1036,CBC_1036_MSI_TV_v3_Vset6_Tset2_2023-12-06_16h06.44.053.csv,3,29,1,3,z,0,1,1,tac,D,27,1,1D,3D,0,1,b,2.38619729999846,1,0,0,0,1D,3D,D13,3.09104245335832,0.999893822576528,0.000106177423472457,0.000106177423472457,0.00728620008895092,0.000106177423472457,0.999999999671432,0.5,0.00728620008895092,0.00728620008895092,0.5,0.999790739344296,0.00728620008895092,0.5,0.5,0.000106177423472457,0.99999997745271,0.333333338343842,0.666666661656158,0.5,0.99999997745271,0.153322895563599,0.424966286113399,-0.5,-0.492713799911049,0.5,0.985427599822098,1.09503053683497,0.38132780887018,2.39057962905236,0.5,73.6135460792794
CBC_1036,CBC_1036_MSI_TV_v3_Vset6_Tset2_2023-12-06_16h06.44.053.csv,3,30,1,0,z,0,1,2,tac,A,63,1,1A,0A,0,1,z,2.52697019999869,0,1,1,1,0A,1A,A10,3.11351530921037,0.999893822576528,0.000106177423472457,0.000106177423472457,0.00728620008895092,0.000106177423472457,0.999999999671432,0.5,0.00728620008895092,0.00728620008895092,0.5,0.999790739344296,0.00728620008895092,0.5,0.00728620008895092,0.000106177423472457,0.99999997745271,0.999893822576528,0.000106177423472457,0.999893822576528,0.000106177423472457,0.226533102022556,0.712141876614685,0.000106177423472409,0.00010463016356771,0.5,0.985427599822098,1.09503053683497,0.38132780887018,2.39057962905236,0.5,73.6135460792794
CBC_1036,CBC_1036_MSI_TV_v3_Vset6_Tset2_2023-12-06_16h06.44.053.csv,3,31,2,0,b,1,0,3,tac,C,27,1,2C,0C,1,0,z,1.85456679999879,0,1,0,0,0C,2C,C20,3.8286413964891,0.999998452740095,0.000106177423472457,0.000106177423472457,0.00728620008895092,0.000106177423472457,0.999999999671432,0.5,0.00728620008895092,0.00728620008895092,0.5,0.999790739344296,0.00728620008895092,0.5,0.00728620008895092,0.000106177423472457,0.99999997745271,0.00723499844316898,0.992765001556831,0.00728620008895092,0.999790739344296,0.169828403297611,0.289375567170972,-0.00728620008895092,-0.00718002266547847,0.5,0.985427599822098,1.09503053683497,0.38132780887018,2.39057962905236,0.5,73.6135460792794
CBC_1036,CBC_1036_MSI_TV_v3_Vset6_Tset2_2023-12-06_16h06.44.053.csv,3,32,2,3,z,0,1,1,tac,D,63,1,2D,3D,0,1,z,2.29019649999827,0,1,1,1,3D,2D,D23,3.15700042115011,0.999998452740095,0.000106177423472457,0.000106177423472457,0.00728620008895092,0.000106177423472457,0.999999999671432,0.5,0.00728620008895092,0.000106177423472457,0.5,0.999790739344296,0.00728620008895092,0.5,0.00728620008895092,0.000106177423472457,0.99999997745271,0.999893833846582,0.000106166153417586,0.99999997745271,0.000106177423472457,0.283041312279727,0.713382260833635,2.25472904791246e-08,2.22187223393354e-08,0.5,0.985427599822098,1.09503053683497,0.38132780887018,2.39057962905236,0.5,73.6135460792794
CBC_1036,CBC_1036_MSI_TV_v3_Vset6_Tset2_2023-12-06_16h06.44.053.csv,3,33,1,0,b,1,0,0,tac,B,63,1,1B,0B,1,0,z,1.84455099999832,0,1,0,0,0B,1B,B10,2.77258872223978,0.999998452740095,0.000106177423472457,0.000106177423472457,0.00728620008895092,0.000106177423472457,0.999999999671432,0.5,0.00728620008895092,0.000106177423472457,0.5,0.999790739344296,0.00728620008895092,0.5,0.00728620008895092,0.000106177423472457,0.999999999671432,0.00010616615105896,0.999893833848941,0.000106177423472457,0.999999999671432,0.169637482479651,0.286284738368446,-0.000106177423472457,-0.000104630163567757,0.5,0.985427599822098,1.09503053683497,0.38132780887018,2.39057962905236,0.5,73.6135460792794
CBC_1036,CBC_1036_MSI_TV_v3_Vset6_Tset2_2023-12-06_16h06.44.053.csv,3,34,0,1,b,1,0,2,tac,A,63,1,0A,1A,1,0,b,2.38617899999917,1,0,1,1,0A,1A,A01,2.50552593699074,0.999998452740095,0.000106177423472457,0.000106177423472457,0.00728620008895092,1.54725990469918e-06,0.999999999671432,0.5,0.00728620008895092,0.000106177423472457,0.5,0.999790739344296,0.00728620008895092,0.5,0.00728620008895092,0.000106177423472457,0.999999999671432,0.999893833684726,0.000106166315273524,0.999998452740095,0.000106177423472457,0.258470531380646,0.712461252528248,1.54725990464399e-06,1.5247126141343e-06,0.5,0.985427599822098,1.09503053683497,0.38132780887018,2.39057962905236,0.5,73.6135460792794
CBC_1036,CBC_1036_MSI_TV_v3_Vset6_Tset2_2023-12-06_16h06.44.053.csv,3,35,2,3,z,0,1,1,tac,D,63,0,2D,3D,1,0,b,2.33924709999883,1,0,0,1,2D,3D,D23,2.81341071676004,0.99999997745271,0.000106177423472457,0.000106177423472457,0.00728620008895092,1.54725990469918e-06,0.999999999671432,0.5,0.00728620008895092,0.000106177423472457,0.5,0.999790739344296,0.00728620008895092,0.5,0.00728620008895092,0.000106177423472457,0.999999999671432,0.00010616615105896,0.999893833848941,0.000106177423472457,0.999999999671432,0.108584815216489,0.286473284569062,0.999893822576528,0.98532296965853,0.5,0.985427599822098,1.09503053683497,0.38132780887018,2.39057962905236,0.5,73.6135460792794
CBC_1036,CBC_1036_MSI_TV_v3_Vset6_Tset2_2023-12-06_16h06.44.053.csv,3,36,2,0,b,1,0,3,tac,C,27,1,2C,0C,1,0,b,2.02747649999765,1,0,1,1,2C,0C,C20,3.23867845216438,0.99999997745271,0.000106177423472457,0.000106177423472457,0.00728620008895092,1.54725990469918e-06,0.999999999671432,0.5,0.00728620008895092,0.000106177423472457,0.5,0.999790739344296,0.00728620008895092,0.5,0.00728620008895092,0.985429147082003,0.999999999671432,0.999893811630287,0.000106188369712832,0.999790739344296,0.000106177423472457,0.360197439088233,0.712859835588418,0.000209260655703702,0.000206211225687298,0.5,0.985427599822098,1.09503053683497,0.38132780887018,2.39057962905236,0.5,73.6135460792794
CBC_1036,CBC_1036_MSI_TV_v3_Vset6_Tset2_2023-12-06_16h06.44.053.csv,3,37,0,1,b,1,0,2,tac,A,63,1,0A,1A,1,0,b,2.51266519999808,1,0,1,1,0A,1A,A01,2.34180580614733,0.99999997745271,0.000106177423472457,0.000106177423472457,0.00728620008895092,1.54725990469918e-06,0.999999999671432,0.5,0.00728620008895092,0.000106177423472457,0.5,0.999996950569984,0.00728620008895092,0.5,0.00728620008895092,0.985429147082003,0.999999999671432,0.999893833846582,0.000106166153417586,0.99999997745271,0.000106177423472457,0.229964622633223,0.713387846942006,2.25472904791246e-08,2.22187223393354e-08,0.5,0.985427599822098,1.09503053683497,0.38132780887018,2.39057962905236,0.5,73.6135460792794
CBC_1036,CBC_1036_MSI_TV_v3_Vset6_Tset2_2023-12-06_16h06.44.053.csv,3,38,1,3,b,1,0,0,tac,B,27,1,1B,3B,1,0,b,2.63982069999838,1,0,1,1,1B,3B,B13,3.27714473299218,0.999999999671432,0.000106177423472457,0.000106177423472457,0.00728620008895092,1.54725990469918e-06,0.999999999671432,0.5,0.00728620008895092,0.000106177423472457,0.5,0.999996950569984,0.00728620008895092,0.5,0.00728620008895092,0.985429147082003,0.999999999671432,0.992766504603474,0.00723349539652602,0.999999999671432,0.00728620008895092,0.203440116593613,0.71049590309375,3.28568172669463e-10,3.23780145771602e-10,0.5,0.985427599822098,1.09503053683497,0.38132780887018,2.39057962905236,0.5,73.6135460792794
CBC_1036,CBC_1036_MSI_TV_v3_Vset6_Tset2_2023-12-06_16h06.44.053.csv,3,39,3,2,z,0,1,3,tac,C,63,1,3C,2C,0,1,z,1.36631339999985,0,1,1,1,2C,3C,C32,2.60268968544438,0.999999999671432,0.000106177423472457,0.000106177423472457,0.00728620008895092,1.54725990469918e-06,0.999999999995212,0.5,0.00728620008895092,0.000106177423472457,0.5,0.999996950569984,0.00728620008895092,0.5,0.00728620008895092,0.985429147082003,0.999999999671432,0.992766482707286,0.00723351729271408,0.999996950569984,0.00728620008895092,0.373328208446828,0.711331355437378,3.04943001638858e-06,3.00499250187526e-06,0.5,0.985427599822098,1.09503053683497,0.38132780887018,2.39057962905236,0.5,73.6135460792794
CBC_1036,CBC_1036_MSI_TV_v3_Vset6_Tset2_2023-12-06_16h06.44.053.csv,3,40,3,2,b,1,0,1,tac,D,63,1,3D,2D,1,0,z,1.75780049999776,0,1,0,0,2D,3D,D32,2.62103882411258,0.999999999671432,0.000106177423472457,0.000106177423472457,0.00728620008895092,1.54725990469918e-06,0.999999999995212,0.5,0.00728620008895092,0.000106177423472457,0.5,0.999999955562485,0.00728620008895092,0.5,0.00728620008895092,0.985429147082003,0.999999999671432,0.496330553368461,0.503669446631539,0.985429147082003,0.999999999671432,0.299499732121062,0.498149358862203,-0.985429147082003,-0.971069079203755,0.5,0.985427599822098,1.09503053683497,0.38132780887018,2.39057962905236,0.5,73.6135460792794
CBC_1036,CBC_1036_MSI_TV_v3_Vset6_Tset2_2023-12-06_16h06.44.053.csv,3,41,0,1,z,0,1,0,tac,B,63,1,0B,1B,0,1,z,1.42328989999805,0,1,1,1,1B,0B,B01,2.63905732961526,0.999999999671432,0.000106177423472457,0.000106177423472457,0.00728620008895092,1.54725990469918e-06,0.999999999995212,0.5,0.00728620008895092,0.000106177423472457,0.5,0.999999955562485,0.00728620008895092,0.5,0.00728620008895092,0.0143600678782474,0.999999999671432,0.999998452742489,1.54725751069708e-06,0.999999999995212,1.54725990469918e-06,0.443172251267287,0.713371050963544,4.78805883830091e-12,4.71828532883385e-12,0.5,0.985427599822098,1.09503053683497,0.38132780887018,2.39057962905236,0.5,73.6135460792794
CBC_1036,CBC_1036_MSI_TV_v3_Vset6_Tset2_2023-12-06_16h06.44.053.csv,3,42,2,0,z,0,1,2,tac,A,27,1,2A,0A,0,1,b,2.08762319999914,1,0,0,0,2A,0A,A20,3.3499040872746,0.999999999671432,0.000106177423472457,0.000106177423472457,0.00728620008895092,1.54725990469918e-06,0.99999999999993,0.5,0.00728620008895092,0.000106177423472457,0.5,0.999999955562485,0.00728620008895092,0.5,0.00728620008895092,0.0143600678782474,0.999999999671432,0.00010616615105896,0.999893833848941,0.000106177423472457,0.999999999671432,0.136881242532921,0.28603192496808,-0.000106177423472457,-0.000104630163567757,0.5,0.985427599822098,1.09503053683497,0.38132780887018,2.39057962905236,0.5,73.6135460792794
CBC_1036,CBC_1036_MSI_TV_v3_Vset6_Tset2_2023-12-06_16h06.44.053.csv,3,43,3,0,b,1,0,1,tac,D,9,1,3D,0D,1,0,b,1.66003089999867,1,0,1,1,3D,0D,D30,4.06044301054642,0.999999999671432,0.000106177423472457,1.54725990469918e-06,0.00728620008895092,1.54725990469918e-06,0.99999999999993,0.5,0.00728620008895092,0.000106177423472457,0.5,0.999999955562485,0.00728620008895092,0.5,0.00728620008895092,0.0143600678782474,0.999999999671432,0.666666666593652,0.333333333406349,0.999999999671432,0.5,0.36761379857868,0.575667057045911,3.28568172669463e-10,3.23780145771602e-10,0.5,0.985427599822098,1.09503053683497,0.38132780887018,2.39057962905236,0.5,73.6135460792794
CBC_1036,CBC_1036_MSI_TV_v3_Vset6_Tset2_2023-12-06_16h06.44.053.csv,3,44,3,2,z,0,1,3,tac,C,63,1,3C,2C,0,1,b,2.5487781999982,1,0,0,0,3C,2C,C32,2.46809953147162,0.999999999671432,0.000106177423472457,1.54725990469918e-06,0.00728620008895092,1.54725990469918e-06,0.99999999999993,0.5,0.00728620008895092,0.000106177423472457,0.5,0.999999955562485,0.00728620008895092,0.5,0.00728620008895092,0.0143600678782474,0.999999999995212,0.00723349571327997,0.99276650428672,0.00728620008895092,0.999999955562485,0.0903422353487821,0.289801426167859,-0.00728620008895092,-0.00718002266547847,0.5,0.985427599822098,1.09503053683497,0.38132780887018,2.39057962905236,0.5,73.6135460792794
