ID,filename,session,trial,visStimLeft,visStimRight,correctKey,leftCorrect,rightCorrect,secondStim,mod2Type,mod2Stim,frequency,rewardAccurate,stimPairLeft,stimPairRight,pCorrectLeft,pCorrectRight,key,reactionTime,choiceLeft,choiceRight,choiceAccurate,reward,chosenPair,otherPair,triplet,surprise,0A belief,1A belief,2A belief,3A belief,0B belief,1B belief,2B belief,3B belief,0C belief,1C belief,2C belief,3C belief,0D belief,1D belief,2D belief,3D belief,beliefPairNorm,beliefOtherPairNorm,beliefPair,beliefOtherPair,lik,corrLik,rewardPE,update2,fitCBCsimpleRW_CBCdriftDiffusionLR_pwBelief_startBelief,fitCBCsimpleRW_CBCdriftDiffusionLR_pwBelief_alpha1,fitCBCsimpleRW_CBCdriftDiffusionLR_pwBelief_nonDecisionTime,fitCBCsimpleRW_CBCdriftDiffusionLR_pwBelief_weight,fitCBCsimpleRW_CBCdriftDiffusionLR_pwBelief_startingBoundary,fitCBCsimpleRW_CBCdriftDiffusionLR_pwBelief_startingPoint,fit_CBCsimpleRW_CBCdriftDiffusionLR_pwBelief_NLL
CBC_1036,CBC_1036_MSI_TV_v3_Vset2_Tset3_2023-12-06_14h51.37.594.csv,1,1,1,0,b,1,0,0,tac,B,63,1,1B,0B,1,0,z,1.62051460000112,0,1,0,0,0B,1B,B10,2.77258872223978,0.5,0.5,0.5,0.5,0.5,0.5,0.5,0.5,0.5,0.5,0.5,0.5,0.5,0.5,0.5,0.5,0.5,0.5,0.5,0.5,0.256928779396847,0.500340149098993,-0.5,-0.00357289277162243,0.5,0.00714578554324485,0.852816265336161,14.840714513904,2.59663317251563,0.5,77.3723453492445
CBC_1036,CBC_1036_MSI_TV_v3_Vset2_Tset3_2023-12-06_14h51.37.594.csv,1,2,0,1,b,1,0,2,tac,A,63,1,0A,1A,1,0,z,3.26313550000032,0,1,0,0,1A,0A,A01,2.83321334405622,0.5,0.5,0.5,0.5,0.496427107228378,0.5,0.5,0.5,0.5,0.5,0.5,0.5,0.5,0.5,0.5,0.5,0.5,0.5,0.5,0.5,0.0798002778619513,0.499787587695069,-0.5,-0.00357289277162243,0.5,0.00714578554324485,0.852816265336161,14.840714513904,2.59663317251563,0.5,77.3723453492445
CBC_1036,CBC_1036_MSI_TV_v3_Vset2_Tset3_2023-12-06_14h51.37.594.csv,1,3,1,2,z,0,1,3,tac,C,9,1,1C,2C,0,1,z,3.13625040000079,0,1,1,1,2C,1C,C12,2.89037175789616,0.5,0.496427107228378,0.5,0.5,0.496427107228378,0.5,0.5,0.5,0.5,0.5,0.5,0.5,0.5,0.5,0.5,0.5,0.5,0.5,0.5,0.5,0.0876069082221049,0.500021926242234,0.5,0.00357289277162243,0.5,0.00714578554324485,0.852816265336161,14.840714513904,2.59663317251563,0.5,77.3723453492445
CBC_1036,CBC_1036_MSI_TV_v3_Vset2_Tset3_2023-12-06_14h51.37.594.csv,1,4,1,0,z,0,1,2,tac,A,63,1,1A,0A,0,1,b,3.51263160000053,1,0,0,0,1A,0A,A10,2.94443897916644,0.5,0.496427107228378,0.5,0.5,0.496427107228378,0.5,0.5,0.5,0.5,0.5,0.503572892771622,0.5,0.5,0.5,0.5,0.5,0.496427107228378,0.503572892771622,0.496427107228378,0.5,0.0572204229001293,0.43247875463259,-0.496427107228378,-0.0035473616461074,0.5,0.00714578554324485,0.852816265336161,14.840714513904,2.59663317251563,0.5,77.3723453492445
CBC_1036,CBC_1036_MSI_TV_v3_Vset2_Tset3_2023-12-06_14h51.37.594.csv,1,5,3,1,b,1,0,1,tac,D,27,1,3D,1D,NaN,NaN,None,NaN,NaN,NaN,NaN,NaN,,,D31,2.99573227355399,0.5,0.49287974558227,0.5,0.5,0.496427107228378,0.5,0.5,0.5,0.5,0.5,0.503572892771622,0.5,0.5,0.5,0.5,0.5,0,0,0,0,NaN,0,0,0,0.5,0.00714578554324485,0.852816265336161,14.840714513904,2.59663317251563,0.5,77.3723453492445
CBC_1036,CBC_1036_MSI_TV_v3_Vset2_Tset3_2023-12-06_14h51.37.594.csv,1,6,0,1,z,0,1,0,tac,B,63,1,0B,1B,0,1,z,2.45815770000081,0,1,1,1,1B,0B,B01,3.04452243772342,0.5,0.49287974558227,0.5,0.5,0.496427107228378,0.5,0.5,0.5,0.5,0.5,0.503572892771622,0.5,0.5,0.5,0.5,0.5,0.503572892771622,0.496427107228378,0.5,0.496427107228378,0.163232529722642,0.567086971499424,0.5,0.00357289277162243,0.5,0.00714578554324485,0.852816265336161,14.840714513904,2.59663317251563,0.5,77.3723453492445
CBC_1036,CBC_1036_MSI_TV_v3_Vset2_Tset3_2023-12-06_14h51.37.594.csv,1,7,2,3,b,1,0,3,tac,C,63,1,2C,3C,1,0,b,2.14206970000123,1,0,1,1,2C,3C,C23,3.09104245335832,0.5,0.49287974558227,0.5,0.5,0.496427107228378,0.503572892771622,0.5,0.5,0.5,0.5,0.503572892771622,0.5,0.5,0.5,0.5,0.5,0.503572892771622,0.496427107228378,0.503572892771622,0.5,0.206080303322144,0.567838397069264,0.496427107228378,0.0035473616461074,0.5,0.00714578554324485,0.852816265336161,14.840714513904,2.59663317251563,0.5,77.3723453492445
CBC_1036,CBC_1036_MSI_TV_v3_Vset2_Tset3_2023-12-06_14h51.37.594.csv,1,8,2,0,z,0,1,2,tac,A,27,1,2A,0A,0,1,z,2.79192860000057,0,1,1,1,0A,2A,A20,3.13549421592915,0.5,0.49287974558227,0.5,0.5,0.496427107228378,0.503572892771622,0.5,0.5,0.5,0.5,0.50712025441773,0.5,0.5,0.5,0.5,0.5,0.5,0.5,0.5,0.5,0.112865513347048,0.500702657238673,0.5,0.00357289277162243,0.5,0.00714578554324485,0.852816265336161,14.840714513904,2.59663317251563,0.5,77.3723453492445
CBC_1036,CBC_1036_MSI_TV_v3_Vset2_Tset3_2023-12-06_14h51.37.594.csv,1,9,3,2,b,1,0,1,tac,D,63,1,3D,2D,1,0,b,4.34973530000116,1,0,1,1,3D,2D,D32,3.17805383034795,0.503572892771622,0.49287974558227,0.5,0.5,0.496427107228378,0.503572892771622,0.5,0.5,0.5,0.5,0.50712025441773,0.5,0.5,0.5,0.5,0.5,0.5,0.5,0.5,0.5,0.0360491118905995,0.500102320733939,0.5,0.00357289277162243,0.5,0.00714578554324485,0.852816265336161,14.840714513904,2.59663317251563,0.5,77.3723453492445
CBC_1036,CBC_1036_MSI_TV_v3_Vset2_Tset3_2023-12-06_14h51.37.594.csv,1,10,3,1,z,0,1,0,tac,B,27,1,3B,1B,0,1,z,1.92230570000083,0,1,1,1,1B,3B,B31,3.2188758248682,0.503572892771622,0.49287974558227,0.5,0.5,0.496427107228378,0.503572892771622,0.5,0.5,0.5,0.5,0.50712025441773,0.5,0.5,0.5,0.5,0.503572892771622,0.503572892771622,0.496427107228378,0.503572892771622,0.5,0.241802050618867,0.568887491053822,0.496427107228378,0.0035473616461074,0.5,0.00714578554324485,0.852816265336161,14.840714513904,2.59663317251563,0.5,77.3723453492445
CBC_1036,CBC_1036_MSI_TV_v3_Vset2_Tset3_2023-12-06_14h51.37.594.csv,1,11,3,2,z,0,1,3,tac,C,63,1,3C,2C,0,1,b,2.76861460000055,1,0,0,0,3C,2C,C32,3.25809653802148,0.503572892771622,0.49287974558227,0.5,0.5,0.496427107228378,0.50712025441773,0.5,0.5,0.5,0.5,0.50712025441773,0.5,0.5,0.5,0.5,0.503572892771622,0.49287974558227,0.50712025441773,0.5,0.50712025441773,0.0832649078035738,0.365211730275876,-0.5,-0.00357289277162243,0.5,0.00714578554324485,0.852816265336161,14.840714513904,2.59663317251563,0.5,77.3723453492445
CBC_1036,CBC_1036_MSI_TV_v3_Vset2_Tset3_2023-12-06_14h51.37.594.csv,1,12,1,3,b,1,0,0,tac,B,27,1,1B,3B,1,0,z,1.49464910000097,0,1,0,0,3B,1B,B13,3.29583686600433,0.503572892771622,0.49287974558227,0.5,0.5,0.496427107228378,0.50712025441773,0.5,0.5,0.5,0.5,0.50712025441773,0.496427107228378,0.5,0.5,0.5,0.503572892771622,0.49287974558227,0.50712025441773,0.5,0.50712025441773,0.202736151623206,0.365651821148681,-0.5,-0.00357289277162243,0.5,0.00714578554324485,0.852816265336161,14.840714513904,2.59663317251563,0.5,77.3723453492445
CBC_1036,CBC_1036_MSI_TV_v3_Vset2_Tset3_2023-12-06_14h51.37.594.csv,1,13,3,2,z,0,1,3,tac,C,63,1,3C,2C,0,1,z,3.27219720000085,0,1,1,1,2C,3C,C32,2.63905732961526,0.503572892771622,0.49287974558227,0.5,0.5,0.496427107228378,0.50712025441773,0.5,0.496427107228378,0.5,0.5,0.50712025441773,0.496427107228378,0.5,0.5,0.5,0.503572892771622,0.510692059169451,0.489307940830549,0.50712025441773,0.496427107228378,0.105940186134924,0.694434406733324,0.49287974558227,0.00352201296053999,0.5,0.00714578554324485,0.852816265336161,14.840714513904,2.59663317251563,0.5,77.3723453492445
CBC_1036,CBC_1036_MSI_TV_v3_Vset2_Tset3_2023-12-06_14h51.37.594.csv,1,14,3,2,b,1,0,1,tac,D,63,1,3D,2D,1,0,b,3.10910500000045,1,0,1,1,3D,2D,D32,2.67414864942653,0.503572892771622,0.49287974558227,0.5,0.5,0.496427107228378,0.50712025441773,0.5,0.496427107228378,0.5,0.5,0.51064226737827,0.496427107228378,0.5,0.5,0.5,0.503572892771622,0.503572892771622,0.496427107228378,0.503572892771622,0.5,0.101245377090681,0.568330642102579,0.496427107228378,0.0035473616461074,0.5,0.00714578554324485,0.852816265336161,14.840714513904,2.59663317251563,0.5,77.3723453492445
CBC_1036,CBC_1036_MSI_TV_v3_Vset2_Tset3_2023-12-06_14h51.37.594.csv,1,15,0,3,b,1,0,2,tac,A,9,1,0A,3A,1,0,z,2.83274390000042,0,1,0,0,3A,0A,A03,3.40119738166216,0.503572892771622,0.49287974558227,0.5,0.5,0.496427107228378,0.50712025441773,0.5,0.496427107228378,0.5,0.5,0.51064226737827,0.496427107228378,0.5,0.5,0.5,0.50712025441773,0.496427107228378,0.503572892771622,0.5,0.503572892771622,0.0940934822073482,0.430821156881172,-0.5,-0.00357289277162243,0.5,0.00714578554324485,0.852816265336161,14.840714513904,2.59663317251563,0.5,77.3723453492445
CBC_1036,CBC_1036_MSI_TV_v3_Vset2_Tset3_2023-12-06_14h51.37.594.csv,1,16,0,1,z,0,1,0,tac,B,63,0,0B,1B,1,0,b,2.06046560000141,1,0,0,1,0B,1B,B01,2.7408400239252,0.503572892771622,0.49287974558227,0.5,0.496427107228378,0.496427107228378,0.50712025441773,0.5,0.496427107228378,0.5,0.5,0.51064226737827,0.496427107228378,0.5,0.5,0.5,0.50712025441773,0.489307940830549,0.510692059169451,0.496427107228378,0.50712025441773,0.119550465568777,0.304559982263791,0.503572892771622,0.00359842389713745,0.5,0.00714578554324485,0.852816265336161,14.840714513904,2.59663317251563,0.5,77.3723453492445
CBC_1036,CBC_1036_MSI_TV_v3_Vset2_Tset3_2023-12-06_14h51.37.594.csv,1,17,2,3,z,0,1,1,tac,D,63,1,2D,3D,0,1,b,2.57219520000035,1,0,0,0,2D,3D,D23,3.46573590279973,0.503572892771622,0.49287974558227,0.5,0.496427107228378,0.500025531125515,0.50712025441773,0.5,0.496427107228378,0.5,0.5,0.51064226737827,0.496427107228378,0.5,0.5,0.5,0.50712025441773,0.49287974558227,0.50712025441773,0.5,0.50712025441773,0.0970748882971392,0.367145954096638,-0.5,-0.00357289277162243,0.5,0.00714578554324485,0.852816265336161,14.840714513904,2.59663317251563,0.5,77.3723453492445
CBC_1036,CBC_1036_MSI_TV_v3_Vset2_Tset3_2023-12-06_14h51.37.594.csv,1,18,0,2,z,0,1,3,tac,C,27,1,0C,2C,0,1,z,1.6499059000007,0,1,1,1,2C,0C,C02,3.49650756146648,0.503572892771622,0.49287974558227,0.5,0.496427107228378,0.500025531125515,0.50712025441773,0.5,0.496427107228378,0.5,0.5,0.51064226737827,0.496427107228378,0.5,0.5,0.496427107228378,0.50712025441773,0.51064226737827,0.48935773262173,0.51064226737827,0.5,0.366235660388849,0.694738573566047,0.48935773262173,0.00349684541124344,0.5,0.00714578554324485,0.852816265336161,14.840714513904,2.59663317251563,0.5,77.3723453492445
CBC_1036,CBC_1036_MSI_TV_v3_Vset2_Tset3_2023-12-06_14h51.37.594.csv,1,19,0,1,b,1,0,2,tac,A,63,1,0A,1A,1,0,z,2.2884793000012,0,1,0,0,1A,0A,A01,2.83321334405622,0.503572892771622,0.49287974558227,0.5,0.496427107228378,0.500025531125515,0.50712025441773,0.5,0.496427107228378,0.5,0.5,0.514139112789513,0.496427107228378,0.5,0.5,0.496427107228378,0.50712025441773,0.489307940830549,0.510692059169451,0.49287974558227,0.503572892771622,0.10047821972111,0.305417138061936,-0.49287974558227,-0.00352201296053999,0.5,0.00714578554324485,0.852816265336161,14.840714513904,2.59663317251563,0.5,77.3723453492445
CBC_1036,CBC_1036_MSI_TV_v3_Vset2_Tset3_2023-12-06_14h51.37.594.csv,1,20,1,0,b,1,0,0,tac,B,63,1,1B,0B,1,0,b,1.78913840000041,1,0,1,1,1B,0B,B10,2.86220088092947,0.503572892771622,0.48935773262173,0.5,0.496427107228378,0.500025531125515,0.50712025441773,0.5,0.496427107228378,0.5,0.5,0.514139112789513,0.496427107228378,0.5,0.5,0.496427107228378,0.50712025441773,0.507094728451164,0.492905271548836,0.50712025441773,0.500025531125515,0.298236771346252,0.632867453521031,0.49287974558227,0.00352201296053999,0.5,0.00714578554324485,0.852816265336161,14.840714513904,2.59663317251563,0.5,77.3723453492445
CBC_1036,CBC_1036_MSI_TV_v3_Vset2_Tset3_2023-12-06_14h51.37.594.csv,1,21,1,3,z,0,1,1,tac,D,27,1,1D,3D,0,1,b,2.42839430000004,1,0,0,0,1D,3D,D13,3.58351893845611,0.503572892771622,0.48935773262173,0.5,0.496427107228378,0.500025531125515,0.51064226737827,0.5,0.496427107228378,0.5,0.5,0.514139112789513,0.496427107228378,0.5,0.5,0.496427107228378,0.50712025441773,0.49287974558227,0.50712025441773,0.5,0.50712025441773,0.108036934100187,0.366683279942315,-0.5,-0.00357289277162243,0.5,0.00714578554324485,0.852816265336161,14.840714513904,2.59663317251563,0.5,77.3723453492445
CBC_1036,CBC_1036_MSI_TV_v3_Vset2_Tset3_2023-12-06_14h51.37.594.csv,1,22,3,2,z,0,1,3,tac,C,63,1,3C,2C,0,1,z,1.94823670000096,0,1,1,1,2C,3C,C32,2.51230562397611,0.503572892771622,0.48935773262173,0.5,0.496427107228378,0.500025531125515,0.51064226737827,0.5,0.496427107228378,0.5,0.5,0.514139112789513,0.496427107228378,0.5,0.496427107228378,0.496427107228378,0.50712025441773,0.517708427216848,0.482291572783152,0.514139112789513,0.496427107228378,0.35391110113944,0.796866273699256,0.485860887210487,0.00347185770385681,0.5,0.00714578554324485,0.852816265336161,14.840714513904,2.59663317251563,0.5,77.3723453492445
CBC_1036,CBC_1036_MSI_TV_v3_Vset2_Tset3_2023-12-06_14h51.37.594.csv,1,23,0,1,b,1,0,2,tac,A,63,1,0A,1A,1,0,b,1.74942180000107,1,0,1,1,0A,1A,A01,2.53897387105828,0.503572892771622,0.48935773262173,0.5,0.496427107228378,0.500025531125515,0.51064226737827,0.5,0.496427107228378,0.5,0.5,0.51761097049337,0.496427107228378,0.5,0.496427107228378,0.496427107228378,0.50712025441773,0.514212998427865,0.485787001572135,0.503572892771622,0.48935773262173,0.380202707829851,0.749833127416757,0.496427107228378,0.0035473616461074,0.5,0.00714578554324485,0.852816265336161,14.840714513904,2.59663317251563,0.5,77.3723453492445
CBC_1036,CBC_1036_MSI_TV_v3_Vset2_Tset3_2023-12-06_14h51.37.594.csv,1,24,2,3,z,0,1,1,tac,D,63,1,2D,3D,0,1,z,1.17393360000005,0,1,1,1,3D,2D,D23,2.9704144655697,0.50712025441773,0.48935773262173,0.5,0.496427107228378,0.500025531125515,0.51064226737827,0.5,0.496427107228378,0.5,0.5,0.51761097049337,0.496427107228378,0.5,0.496427107228378,0.496427107228378,0.50712025441773,0.510692059169451,0.489307940830549,0.50712025441773,0.496427107228378,0.306274632576492,0.694840264309204,0.49287974558227,0.00352201296053999,0.5,0.00714578554324485,0.852816265336161,14.840714513904,2.59663317251563,0.5,77.3723453492445
CBC_1036,CBC_1036_MSI_TV_v3_Vset2_Tset3_2023-12-06_14h51.37.594.csv,1,25,2,0,b,1,0,3,tac,C,27,1,2C,0C,1,0,b,1.08981170000061,1,0,1,1,2C,0C,C20,3.68887945411394,0.50712025441773,0.48935773262173,0.5,0.496427107228378,0.500025531125515,0.51064226737827,0.5,0.496427107228378,0.5,0.5,0.51761097049337,0.496427107228378,0.5,0.496427107228378,0.496427107228378,0.51064226737827,0.51761097049337,0.48238902950663,0.51761097049337,0.5,0.244444694821614,0.795140860106095,0.48238902950663,0.00344704855326839,0.5,0.00714578554324485,0.852816265336161,14.840714513904,2.59663317251563,0.5,77.3723453492445
CBC_1036,CBC_1036_MSI_TV_v3_Vset2_Tset3_2023-12-06_14h51.37.594.csv,1,26,0,1,b,1,0,2,tac,A,63,1,0A,1A,1,0,b,2.48914780000086,1,0,1,1,0A,1A,A01,2.32727770558442,0.50712025441773,0.48935773262173,0.5,0.496427107228378,0.500025531125515,0.51064226737827,0.5,0.496427107228378,0.5,0.5,0.521058019046638,0.496427107228378,0.5,0.496427107228378,0.496427107228378,0.51064226737827,0.517757139560737,0.482242860439263,0.50712025441773,0.48935773262173,0.222319085023051,0.797999089748801,0.49287974558227,0.00352201296053999,0.5,0.00714578554324485,0.852816265336161,14.840714513904,2.59663317251563,0.5,77.3723453492445
CBC_1036,CBC_1036_MSI_TV_v3_Vset2_Tset3_2023-12-06_14h51.37.594.csv,1,27,1,3,b,1,0,0,tac,B,27,1,1B,3B,1,0,z,3.70434490000116,0,1,0,0,3B,1B,B13,3.04452243772342,0.51064226737827,0.48935773262173,0.5,0.496427107228378,0.500025531125515,0.51064226737827,0.5,0.496427107228378,0.5,0.5,0.521058019046638,0.496427107228378,0.5,0.496427107228378,0.496427107228378,0.51064226737827,0.485787001572135,0.514212998427865,0.496427107228378,0.51064226737827,0.0259812330052182,0.250948045497014,-0.496427107228378,-0.0035473616461074,0.5,0.00714578554324485,0.852816265336161,14.840714513904,2.59663317251563,0.5,77.3723453492445
CBC_1036,CBC_1036_MSI_TV_v3_Vset2_Tset3_2023-12-06_14h51.37.594.csv,1,28,3,2,z,0,1,3,tac,C,63,1,3C,2C,0,1,z,1.55796310000096,0,1,1,1,2C,3C,C32,2.37490575457367,0.51064226737827,0.48935773262173,0.5,0.496427107228378,0.500025531125515,0.51064226737827,0.5,0.49287974558227,0.5,0.5,0.521058019046638,0.496427107228378,0.5,0.496427107228378,0.496427107228378,0.51064226737827,0.524623501321954,0.475376498678046,0.521058019046638,0.496427107228378,0.566646418682352,0.86990622829385,0.478941980953362,0.00342241668354958,0.5,0.00714578554324485,0.852816265336161,14.840714513904,2.59663317251563,0.5,77.3723453492445
CBC_1036,CBC_1036_MSI_TV_v3_Vset2_Tset3_2023-12-06_14h51.37.594.csv,1,29,3,2,b,1,0,1,tac,D,63,1,3D,2D,NaN,NaN,None,NaN,NaN,NaN,NaN,NaN,,,D32,2.68557734525015,0.51064226737827,0.48935773262173,0.5,0.496427107228378,0.500025531125515,0.51064226737827,0.5,0.49287974558227,0.5,0.5,0.524480435730188,0.496427107228378,0.5,0.496427107228378,0.496427107228378,0.51064226737827,0,0,0,0,NaN,0,0,0,0.5,0.00714578554324485,0.852816265336161,14.840714513904,2.59663317251563,0.5,77.3723453492445
CBC_1036,CBC_1036_MSI_TV_v3_Vset2_Tset3_2023-12-06_14h51.37.594.csv,1,30,0,1,z,0,1,0,tac,B,63,1,0B,1B,0,1,b,2.55589940000118,1,0,0,0,0B,1B,B01,2.70805020110221,0.51064226737827,0.48935773262173,0.5,0.496427107228378,0.500025531125515,0.51064226737827,0.5,0.49287974558227,0.5,0.5,0.524480435730188,0.496427107228378,0.5,0.496427107228378,0.496427107228378,0.51064226737827,0.489383252208579,0.510616747791421,0.500025531125515,0.51064226737827,0.0815309922841497,0.305303937319422,-0.500025531125515,-0.00357307521157004,0.5,0.00714578554324485,0.852816265336161,14.840714513904,2.59663317251563,0.5,77.3723453492445
CBC_1036,CBC_1036_MSI_TV_v3_Vset2_Tset3_2023-12-06_14h51.37.594.csv,1,31,2,0,z,0,1,2,tac,A,27,1,2A,0A,0,1,z,2.45090140000138,0,1,1,1,0A,2A,A20,3.13549421592915,0.51064226737827,0.48935773262173,0.5,0.496427107228378,0.496452455913945,0.51064226737827,0.5,0.49287974558227,0.5,0.5,0.524480435730188,0.496427107228378,0.5,0.496427107228378,0.496427107228378,0.51064226737827,0.51064226737827,0.48935773262173,0.51064226737827,0.5,0.201245818888112,0.694269180089729,0.48935773262173,0.00349684541124344,0.5,0.00714578554324485,0.852816265336161,14.840714513904,2.59663317251563,0.5,77.3723453492445
CBC_1036,CBC_1036_MSI_TV_v3_Vset2_Tset3_2023-12-06_14h51.37.594.csv,1,32,3,0,b,1,0,1,tac,D,9,1,3D,0D,1,0,z,3.59216110000125,0,1,0,0,0D,3D,D30,3.85014760171006,0.514139112789513,0.48935773262173,0.5,0.496427107228378,0.496452455913945,0.51064226737827,0.5,0.49287974558227,0.5,0.5,0.524480435730188,0.496427107228378,0.5,0.496427107228378,0.496427107228378,0.51064226737827,0.48935773262173,0.51064226737827,0.5,0.51064226737827,0.0362625976198287,0.305314744957908,-0.5,-0.00357289277162243,0.5,0.00714578554324485,0.852816265336161,14.840714513904,2.59663317251563,0.5,77.3723453492445
CBC_1036,CBC_1036_MSI_TV_v3_Vset2_Tset3_2023-12-06_14h51.37.594.csv,1,33,3,2,z,0,1,3,tac,C,63,1,3C,2C,0,1,z,1.13757380000152,0,1,1,1,2C,3C,C32,2.26176309847379,0.514139112789513,0.48935773262173,0.5,0.496427107228378,0.496452455913945,0.51064226737827,0.5,0.49287974558227,0.5,0.5,0.524480435730188,0.496427107228378,0.496427107228378,0.496427107228378,0.496427107228378,0.51064226737827,0.528043517087904,0.471956482912096,0.524480435730188,0.496427107228378,0.471784651705005,0.89676721434987,0.475519564269812,0.00339796082788931,0.5,0.00714578554324485,0.852816265336161,14.840714513904,2.59663317251563,0.5,77.3723453492445
CBC_1036,CBC_1036_MSI_TV_v3_Vset2_Tset3_2023-12-06_14h51.37.594.csv,1,34,0,1,z,0,1,0,tac,B,63,1,0B,1B,0,1,z,3.25850570000057,0,1,1,1,1B,0B,B01,2.50552593699074,0.514139112789513,0.48935773262173,0.5,0.496427107228378,0.496452455913945,0.51064226737827,0.5,0.49287974558227,0.5,0.5,0.527878396558077,0.496427107228378,0.496427107228378,0.496427107228378,0.496427107228378,0.51064226737827,0.514187668904272,0.485812331095728,0.51064226737827,0.496452455913945,0.111803111804293,0.748982438760077,0.48935773262173,0.00349684541124344,0.5,0.00714578554324485,0.852816265336161,14.840714513904,2.59663317251563,0.5,77.3723453492445
CBC_1036,CBC_1036_MSI_TV_v3_Vset2_Tset3_2023-12-06_14h51.37.594.csv,1,35,0,1,b,1,0,2,tac,A,63,0,0A,1A,0,1,b,2.73553600000105,1,0,1,0,0A,1A,A01,2.30258509299405,0.514139112789513,0.48935773262173,0.5,0.496427107228378,0.496452455913945,0.514139112789513,0.5,0.49287974558227,0.5,0.5,0.527878396558077,0.496427107228378,0.496427107228378,0.496427107228378,0.496427107228378,0.51064226737827,0.524766473502904,0.475233526497096,0.514139112789513,0.48935773262173,0.183407605707635,0.87104991357431,-0.514139112789513,-0.00367392783938804,0.5,0.00714578554324485,0.852816265336161,14.840714513904,2.59663317251563,0.5,77.3723453492445
CBC_1036,CBC_1036_MSI_TV_v3_Vset2_Tset3_2023-12-06_14h51.37.594.csv,1,36,2,3,z,0,1,1,tac,D,63,1,2D,3D,0,1,z,2.55894520000038,0,1,1,1,3D,2D,D23,2.83321334405622,0.510465184950125,0.48935773262173,0.5,0.496427107228378,0.496452455913945,0.514139112789513,0.5,0.49287974558227,0.5,0.5,0.527878396558077,0.496427107228378,0.496427107228378,0.496427107228378,0.496427107228378,0.51064226737827,0.514212998427865,0.485787001572135,0.51064226737827,0.496427107228378,0.19869929440544,0.749983553519215,0.48935773262173,0.00349684541124344,0.5,0.00714578554324485,0.852816265336161,14.840714513904,2.59663317251563,0.5,77.3723453492445
CBC_1036,CBC_1036_MSI_TV_v3_Vset2_Tset3_2023-12-06_14h51.37.594.csv,1,37,1,2,b,1,0,0,tac,B,9,1,1B,2B,1,0,b,3.95194710000033,1,0,1,1,1B,2B,B12,3.95124371858143,0.510465184950125,0.48935773262173,0.5,0.496427107228378,0.496452455913945,0.514139112789513,0.5,0.49287974558227,0.5,0.5,0.527878396558077,0.496427107228378,0.496427107228378,0.496427107228378,0.496427107228378,0.514139112789513,0.514139112789513,0.485860887210487,0.514139112789513,0.5,0.0632925394257046,0.748266229097304,0.485860887210487,0.00347185770385681,0.5,0.00714578554324485,0.852816265336161,14.840714513904,2.59663317251563,0.5,77.3723453492445
CBC_1036,CBC_1036_MSI_TV_v3_Vset2_Tset3_2023-12-06_14h51.37.594.csv,1,38,2,0,z,0,1,2,tac,A,27,1,2A,0A,0,1,z,1.81506300000092,0,1,1,1,0A,2A,A20,2.87167962488401,0.510465184950125,0.48935773262173,0.5,0.496427107228378,0.496452455913945,0.51761097049337,0.5,0.49287974558227,0.5,0.5,0.527878396558077,0.496427107228378,0.496427107228378,0.496427107228378,0.496427107228378,0.514139112789513,0.510465184950125,0.489534815049875,0.510465184950125,0.5,0.325606955010456,0.69127619987846,0.489534815049875,0.00349811080429844,0.5,0.00714578554324485,0.852816265336161,14.840714513904,2.59663317251563,0.5,77.3723453492445
CBC_1036,CBC_1036_MSI_TV_v3_Vset2_Tset3_2023-12-06_14h51.37.594.csv,1,39,2,3,b,1,0,3,tac,C,63,1,2C,3C,1,0,b,1.59187700000075,1,0,1,1,2C,3C,C23,3.29583686600433,0.513963295754424,0.48935773262173,0.5,0.496427107228378,0.496452455913945,0.51761097049337,0.5,0.49287974558227,0.5,0.5,0.527878396558077,0.496427107228378,0.496427107228378,0.496427107228378,0.496427107228378,0.514139112789513,0.531438763306281,0.468561236693719,0.527878396558077,0.496427107228378,0.63430141478802,0.918580500228549,0.472121603441923,0.00337367972852887,0.5,0.00714578554324485,0.852816265336161,14.840714513904,2.59663317251563,0.5,77.3723453492445
CBC_1036,CBC_1036_MSI_TV_v3_Vset2_Tset3_2023-12-06_14h51.37.594.csv,1,40,1,3,z,0,1,1,tac,D,27,1,1D,3D,0,1,z,-0.0172404999993887,0,1,1,1,3D,1D,D13,3.31418600467253,0.513963295754424,0.48935773262173,0.5,0.496427107228378,0.496452455913945,0.51761097049337,0.5,0.49287974558227,0.5,0.5,0.531252076286606,0.496427107228378,0.496427107228378,0.496427107228378,0.496427107228378,0.514139112789513,0.517708427216848,0.482291572783152,0.514139112789513,0.496427107228378,1e-20,0.5,0.485860887210487,0.00347185770385681,0.5,0.00714578554324485,0.852816265336161,14.840714513904,2.59663317251563,0.5,77.3723453492445
CBC_1036,CBC_1036_MSI_TV_v3_Vset2_Tset3_2023-12-06_14h51.37.594.csv,1,41,0,1,b,1,0,2,tac,A,63,1,0A,1A,1,0,z,3.02735070000108,0,1,0,0,1A,0A,A01,2.23359222150709,0.513963295754424,0.48935773262173,0.5,0.496427107228378,0.496452455913945,0.51761097049337,0.5,0.49287974558227,0.5,0.5,0.531252076286606,0.496427107228378,0.496427107228378,0.496427107228378,0.496427107228378,0.51761097049337,0.475409053836552,0.524590946163448,0.48935773262173,0.513963295754424,0.0205300255472826,0.130261822492078,-0.48935773262173,-0.00349684541124344,0.5,0.00714578554324485,0.852816265336161,14.840714513904,2.59663317251563,0.5,77.3723453492445
CBC_1036,CBC_1036_MSI_TV_v3_Vset2_Tset3_2023-12-06_14h51.37.594.csv,1,42,0,2,z,0,1,3,tac,C,27,1,0C,2C,0,1,z,1.03407420000076,0,1,1,1,2C,0C,C02,3.3499040872746,0.513963295754424,0.485860887210487,0.5,0.496427107228378,0.496452455913945,0.51761097049337,0.5,0.49287974558227,0.5,0.5,0.531252076286606,0.496427107228378,0.496427107228378,0.496427107228378,0.496427107228378,0.51761097049337,0.531252076286606,0.468747923713394,0.531252076286606,0.5,0.198039448674904,0.917534195855849,0.468747923713394,0.00334957213669721,0.5,0.00714578554324485,0.852816265336161,14.840714513904,2.59663317251563,0.5,77.3723453492445
CBC_1036,CBC_1036_MSI_TV_v3_Vset2_Tset3_2023-12-06_14h51.37.594.csv,1,43,3,2,b,1,0,1,tac,D,63,1,3D,2D,1,0,b,1.93908370000099,1,0,1,1,3D,2D,D32,2.67414864942653,0.513963295754424,0.485860887210487,0.5,0.496427107228378,0.496452455913945,0.51761097049337,0.5,0.49287974558227,0.5,0.5,0.534601648423303,0.496427107228378,0.496427107228378,0.496427107228378,0.496427107228378,0.51761097049337,0.521178532873162,0.478821467126838,0.51761097049337,0.496427107228378,0.382256556822316,0.836916827172102,0.48238902950663,0.00344704855326839,0.5,0.00714578554324485,0.852816265336161,14.840714513904,2.59663317251563,0.5,77.3723453492445
CBC_1036,CBC_1036_MSI_TV_v3_Vset2_Tset3_2023-12-06_14h51.37.594.csv,1,44,1,0,b,1,0,0,tac,B,63,1,1B,0B,1,0,b,1.89912220000042,1,0,1,1,1B,0B,B10,2.97892515523761,0.513963295754424,0.485860887210487,0.5,0.496427107228378,0.496452455913945,0.51761097049337,0.5,0.49287974558227,0.5,0.5,0.534601648423303,0.496427107228378,0.496427107228378,0.496427107228378,0.496427107228378,0.521058019046638,0.521153228328925,0.478846771671075,0.51761097049337,0.496452455913945,0.3959728808709,0.836614772664198,0.48238902950663,0.00344704855326839,0.5,0.00714578554324485,0.852816265336161,14.840714513904,2.59663317251563,0.5,77.3723453492445
CBC_1036,CBC_1036_MSI_AV_v3_Vset3_Aset1_2023-12-06_15h58.00.246.csv,2,1,0,1,b,1,0,2,aud,A,63,1,0A,1A,1,0,z,2.50189169999976,0,1,0,0,1A,0A,A01,2.77258872223978,0.5,0.5,0.5,0.5,0.5,0.5,0.5,0.5,0.5,0.5,0.5,0.5,0.5,0.5,0.5,0.5,0.5,0.5,0.5,0.5,0.126078395120183,0.49917023759697,-0.5,-0.499430810936815,0.5,0.998861621873629,0.835018218835212,0.836368139499776,2.31452201900273,0.5,57.9599440344244
CBC_1036,CBC_1036_MSI_AV_v3_Vset3_Aset1_2023-12-06_15h58.00.246.csv,2,2,2,3,z,0,1,1,aud,D,63,1,2D,3D,0,1,b,1.77505129999918,1,0,0,0,2D,3D,D23,2.83321334405622,0.5,0.00056918906318526,0.5,0.5,0.5,0.5,0.5,0.5,0.5,0.5,0.5,0.5,0.5,0.5,0.5,0.5,0.5,0.5,0.5,0.5,0.246048697291359,0.500170565097825,-0.5,-0.499430810936815,0.5,0.998861621873629,0.835018218835212,0.836368139499776,2.31452201900273,0.5,57.9599440344244
CBC_1036,CBC_1036_MSI_AV_v3_Vset3_Aset1_2023-12-06_15h58.00.246.csv,2,3,0,2,z,0,1,3,aud,C,27,1,0C,2C,0,1,z,1.90761849999944,0,1,1,1,2C,0C,C02,2.89037175789616,0.5,0.00056918906318526,0.5,0.5,0.5,0.5,0.5,0.5,0.5,0.5,0.5,0.5,0.5,0.5,0.00056918906318526,0.5,0.5,0.5,0.5,0.5,0.218427280952649,0.5007735236547,0.5,0.499430810936815,0.5,0.998861621873629,0.835018218835212,0.836368139499776,2.31452201900273,0.5,57.9599440344244
CBC_1036,CBC_1036_MSI_AV_v3_Vset3_Aset1_2023-12-06_15h58.00.246.csv,2,4,0,1,b,1,0,2,aud,A,63,1,0A,1A,1,0,b,2.21218090000002,1,0,1,1,0A,1A,A01,2.2512917986065,0.5,0.00056918906318526,0.5,0.5,0.5,0.5,0.5,0.5,0.5,0.5,0.999430810936815,0.5,0.5,0.5,0.00056918906318526,0.5,0.999430810936815,0.00056918906318526,0.5,0.00056918906318526,0.268155099476305,0.873933457217924,0.5,0.499430810936815,0.5,0.998861621873629,0.835018218835212,0.836368139499776,2.31452201900273,0.5,57.9599440344244
CBC_1036,CBC_1036_MSI_AV_v3_Vset3_Aset1_2023-12-06_15h58.00.246.csv,2,5,1,3,b,1,0,0,aud,B,27,1,1B,3B,1,0,z,3.56627889999982,0,1,0,0,3B,1B,B13,2.99573227355399,0.999430810936815,0.00056918906318526,0.5,0.5,0.5,0.5,0.5,0.5,0.5,0.5,0.999430810936815,0.5,0.5,0.5,0.00056918906318526,0.5,0.5,0.5,0.5,0.5,0.0474073590534066,0.50034853285655,-0.5,-0.499430810936815,0.5,0.998861621873629,0.835018218835212,0.836368139499776,2.31452201900273,0.5,57.9599440344244
CBC_1036,CBC_1036_MSI_AV_v3_Vset3_Aset1_2023-12-06_15h58.00.246.csv,2,6,3,2,z,0,1,3,aud,C,63,1,3C,2C,0,1,z,2.11944999999832,0,1,1,1,2C,3C,C32,3.04452243772342,0.999430810936815,0.00056918906318526,0.5,0.5,0.5,0.5,0.5,0.00056918906318526,0.5,0.5,0.999430810936815,0.5,0.5,0.5,0.00056918906318526,0.5,0.999430810936815,0.00056918906318526,0.999430810936815,0.5,0.301620115988277,0.873473606571136,0.00056918906318526,0.000568541110805961,0.5,0.998861621873629,0.835018218835212,0.836368139499776,2.31452201900273,0.5,57.9599440344244
CBC_1036,CBC_1036_MSI_AV_v3_Vset3_Aset1_2023-12-06_15h58.00.246.csv,2,7,3,2,b,1,0,1,aud,D,63,1,3D,2D,1,0,b,2.81906199999867,1,0,1,1,3D,2D,D32,3.09104245335832,0.999430810936815,0.00056918906318526,0.5,0.5,0.5,0.5,0.5,0.00056918906318526,0.5,0.5,0.999999352047621,0.5,0.5,0.5,0.00056918906318526,0.5,0.999430810936815,0.00056918906318526,0.5,0.00056918906318526,0.124036936735595,0.87378284374889,0.5,0.499430810936815,0.5,0.998861621873629,0.835018218835212,0.836368139499776,2.31452201900273,0.5,57.9599440344244
CBC_1036,CBC_1036_MSI_AV_v3_Vset3_Aset1_2023-12-06_15h58.00.246.csv,2,8,0,1,z,0,1,0,aud,B,63,1,0B,1B,0,1,b,2.27020369999991,1,0,0,0,0B,1B,B01,3.13549421592915,0.999430810936815,0.00056918906318526,0.5,0.5,0.5,0.5,0.5,0.00056918906318526,0.5,0.5,0.999999352047621,0.5,0.5,0.5,0.00056918906318526,0.999430810936815,0.5,0.5,0.5,0.5,0.156148558806773,0.499439200479738,-0.5,-0.499430810936815,0.5,0.998861621873629,0.835018218835212,0.836368139499776,2.31452201900273,0.5,57.9599440344244
CBC_1036,CBC_1036_MSI_AV_v3_Vset3_Aset1_2023-12-06_15h58.00.246.csv,2,9,2,0,z,0,1,2,aud,A,27,1,2A,0A,0,1,z,1.15904249999949,0,1,1,1,0A,2A,A20,3.17805383034795,0.999430810936815,0.00056918906318526,0.5,0.5,0.00056918906318526,0.5,0.5,0.00056918906318526,0.5,0.5,0.999999352047621,0.5,0.5,0.5,0.00056918906318526,0.999430810936815,0.999430810936815,0.00056918906318526,0.999430810936815,0.5,0.744009843397609,0.87354442023312,0.00056918906318526,0.000568541110805961,0.5,0.998861621873629,0.835018218835212,0.836368139499776,2.31452201900273,0.5,57.9599440344244
CBC_1036,CBC_1036_MSI_AV_v3_Vset3_Aset1_2023-12-06_15h58.00.246.csv,2,10,3,0,b,1,0,1,aud,D,9,1,3D,0D,1,0,b,1.35654799999975,1,0,1,1,3D,0D,D30,3.2188758248682,0.999999352047621,0.00056918906318526,0.5,0.5,0.00056918906318526,0.5,0.5,0.00056918906318526,0.5,0.5,0.999999352047621,0.5,0.5,0.5,0.00056918906318526,0.999430810936815,0.999430810936815,0.00056918906318526,0.999430810936815,0.5,0.744731391406794,0.87397730120031,0.00056918906318526,0.000568541110805961,0.5,0.998861621873629,0.835018218835212,0.836368139499776,2.31452201900273,0.5,57.9599440344244
CBC_1036,CBC_1036_MSI_AV_v3_Vset3_Aset1_2023-12-06_15h58.00.246.csv,2,11,2,3,b,1,0,3,aud,C,63,1,2C,3C,1,0,b,2.01124589999927,1,0,1,1,2C,3C,C23,3.25809653802148,0.999999352047621,0.00056918906318526,0.5,0.5,0.00056918906318526,0.5,0.5,0.00056918906318526,0.5,0.5,0.999999352047621,0.5,0.5,0.5,0.00056918906318526,0.999999352047621,0.999999352047621,6.47952379306815e-07,0.999999352047621,0.5,0.346137819884014,0.874323989785564,6.47952379306815e-07,6.47214764491283e-07,0.5,0.998861621873629,0.835018218835212,0.836368139499776,2.31452201900273,0.5,57.9599440344244
CBC_1036,CBC_1036_MSI_AV_v3_Vset3_Aset1_2023-12-06_15h58.00.246.csv,2,12,0,1,z,0,1,0,aud,B,63,1,0B,1B,0,1,z,2.63437369999883,0,1,1,1,1B,0B,B01,2.60268968544438,0.999999352047621,0.00056918906318526,0.5,0.5,0.00056918906318526,0.5,0.5,0.00056918906318526,0.5,0.5,0.999999999262385,0.5,0.5,0.5,0.00056918906318526,0.999999352047621,0.999430810936815,0.00056918906318526,0.5,0.00056918906318526,0.156906381614525,0.873479797163932,0.5,0.499430810936815,0.5,0.998861621873629,0.835018218835212,0.836368139499776,2.31452201900273,0.5,57.9599440344244
CBC_1036,CBC_1036_MSI_AV_v3_Vset3_Aset1_2023-12-06_15h58.00.246.csv,2,13,2,3,z,0,1,1,aud,D,63,1,2D,3D,0,1,z,1.33622389999982,0,1,1,1,3D,2D,D23,2.63905732961526,0.999999352047621,0.00056918906318526,0.5,0.5,0.00056918906318526,0.999430810936815,0.5,0.00056918906318526,0.5,0.5,0.999999999262385,0.5,0.5,0.5,0.00056918906318526,0.999999352047621,0.999999999630982,3.6901768743181e-10,0.999999352047621,0.00056918906318526,0.754436784063945,0.873368089308316,6.47952379306815e-07,6.47214764491283e-07,0.5,0.998861621873629,0.835018218835212,0.836368139499776,2.31452201900273,0.5,57.9599440344244
CBC_1036,CBC_1036_MSI_AV_v3_Vset3_Aset1_2023-12-06_15h58.00.246.csv,2,14,2,3,b,1,0,3,aud,C,63,1,2C,3C,1,0,b,1.75161620000108,1,0,1,1,2C,3C,C23,2.67414864942653,0.999999352047621,0.00056918906318526,0.5,0.5,0.00056918906318526,0.999430810936815,0.5,0.00056918906318526,0.5,0.5,0.999999999262385,0.5,0.5,0.5,0.00056918906318526,0.999999999262385,0.999999999262385,7.3761485808177e-10,0.999999999262385,0.5,0.479863159416545,0.873869595389343,7.3761485808177e-10,7.36775173461644e-10,0.5,0.998861621873629,0.835018218835212,0.836368139499776,2.31452201900273,0.5,57.9599440344244
CBC_1036,CBC_1036_MSI_AV_v3_Vset3_Aset1_2023-12-06_15h58.00.246.csv,2,15,3,1,z,0,1,0,aud,B,27,1,3B,1B,0,1,z,1.67034160000003,0,1,1,1,1B,3B,B31,3.40119738166216,0.999999352047621,0.00056918906318526,0.5,0.5,0.00056918906318526,0.999430810936815,0.5,0.00056918906318526,0.5,0.5,0.99999999999916,0.5,0.5,0.5,0.00056918906318526,0.999999999262385,0.999999675654793,3.24345206978483e-07,0.999430810936815,0.00056918906318526,0.530079686226145,0.87337889484345,0.00056918906318526,0.000568541110805961,0.5,0.998861621873629,0.835018218835212,0.836368139499776,2.31452201900273,0.5,57.9599440344244
CBC_1036,CBC_1036_MSI_AV_v3_Vset3_Aset1_2023-12-06_15h58.00.246.csv,2,16,0,3,b,1,0,2,aud,A,9,1,0A,3A,1,0,b,3.13476150000133,1,0,1,1,0A,3A,A03,3.43398720448515,0.999999352047621,0.00056918906318526,0.5,0.5,0.00056918906318526,0.999999352047621,0.5,0.00056918906318526,0.5,0.5,0.99999999999916,0.5,0.5,0.5,0.00056918906318526,0.999999999262385,0.999999352047621,6.47952379306815e-07,0.999999352047621,0.5,0.0829653719961872,0.874125916096121,6.47952379306815e-07,6.47214764491283e-07,0.5,0.998861621873629,0.835018218835212,0.836368139499776,2.31452201900273,0.5,57.9599440344244
CBC_1036,CBC_1036_MSI_AV_v3_Vset3_Aset1_2023-12-06_15h58.00.246.csv,2,17,2,3,z,0,1,1,aud,D,63,1,2D,3D,0,1,z,1.29914309999913,0,1,1,1,3D,2D,D23,2.36712361413162,0.999999999262385,0.00056918906318526,0.5,0.5,0.00056918906318526,0.999999352047621,0.5,0.00056918906318526,0.5,0.5,0.99999999999916,0.5,0.5,0.5,0.00056918906318526,0.999999999262385,0.99999999999958,4.200814161203e-13,0.999999999262385,0.00056918906318526,0.7727403298992,0.874188618740859,7.3761485808177e-10,7.36775173461644e-10,0.5,0.998861621873629,0.835018218835212,0.836368139499776,2.31452201900273,0.5,57.9599440344244
CBC_1036,CBC_1036_MSI_AV_v3_Vset3_Aset1_2023-12-06_15h58.00.246.csv,2,18,0,2,z,0,1,3,aud,C,27,1,0C,2C,0,1,z,3.04245059999994,0,1,1,1,2C,0C,C02,2.80336038090653,0.999999999262385,0.00056918906318526,0.5,0.5,0.00056918906318526,0.999999352047621,0.5,0.00056918906318526,0.5,0.5,0.99999999999916,0.5,0.5,0.5,0.00056918906318526,0.99999999999916,0.99999999999916,8.39661673524006e-13,0.99999999999916,0.5,0.0933501025207408,0.873926416026121,8.39661673524006e-13,8.38705821041315e-13,0.5,0.998861621873629,0.835018218835212,0.836368139499776,2.31452201900273,0.5,57.9599440344244
CBC_1036,CBC_1036_MSI_AV_v3_Vset3_Aset1_2023-12-06_15h58.00.246.csv,2,19,0,1,b,1,0,2,aud,A,63,1,0A,1A,1,0,z,1.79947849999917,0,1,0,0,1A,0A,A01,2.42774823594805,0.999999999262385,0.00056918906318526,0.5,0.5,0.00056918906318526,0.999999352047621,0.5,0.00056918906318526,0.5,0.5,0.999999999999999,0.5,0.5,0.5,0.00056918906318526,0.99999999999916,4.20108392518159e-13,0.99999999999958,0.00056918906318526,0.999999999262385,0.065270579205263,0.126187609921895,-0.00056918906318526,-0.000568541110805961,0.5,0.998861621873629,0.835018218835212,0.836368139499776,2.31452201900273,0.5,57.9599440344244
CBC_1036,CBC_1036_MSI_AV_v3_Vset3_Aset1_2023-12-06_15h58.00.246.csv,2,20,1,0,b,1,0,0,aud,B,63,0,1B,0B,0,1,b,1.4566305999997,1,0,1,0,1B,0B,B10,3.55534806148941,0.999999999262385,6.47952379299443e-07,0.5,0.5,0.00056918906318526,0.999999352047621,0.5,0.00056918906318526,0.5,0.5,0.999999999999999,0.5,0.5,0.5,0.00056918906318526,0.99999999999916,0.999999999630982,3.69017705281749e-10,0.999999352047621,0.00056918906318526,0.679177825813366,0.873950255904183,-0.999999352047621,-0.998860974658865,0.5,0.998861621873629,0.835018218835212,0.836368139499776,2.31452201900273,0.5,57.9599440344244
CBC_1036,CBC_1036_MSI_AV_v3_Vset3_Aset1_2023-12-06_15h58.00.246.csv,2,21,3,1,b,1,0,1,aud,D,27,1,3D,1D,1,0,b,1.60951380000006,1,0,1,1,3D,1D,D31,3.58351893845611,0.999999999262385,6.47952379299443e-07,0.5,0.5,0.00056918906318526,0.00113837738875566,0.5,0.00056918906318526,0.5,0.5,0.999999999999999,0.5,0.5,0.5,0.00056918906318526,0.99999999999916,0.99999999999916,8.39661673524006e-13,0.99999999999916,0.5,0.570435479409235,0.873275666260558,8.39661673524006e-13,8.38705821041315e-13,0.5,0.998861621873629,0.835018218835212,0.836368139499776,2.31452201900273,0.5,57.9599440344244
CBC_1036,CBC_1036_MSI_AV_v3_Vset3_Aset1_2023-12-06_15h58.00.246.csv,2,22,3,2,z,0,1,3,aud,C,63,1,3C,2C,0,1,z,1.45993019999878,0,1,1,1,2C,3C,C32,2.91777073208428,0.999999999262385,6.47952379299443e-07,0.5,0.5,0.00056918906318526,0.00113837738875566,0.5,0.00056918906318526,0.5,0.5,0.999999999999999,0.5,0.5,0.5,0.00056918906318526,0.999999999999999,0.999999999999999,9.99200722162641e-16,0.999999999999999,0.5,0.677306026978137,0.874220768911837,9.99200722162641e-16,9.98063253916677e-16,0.5,0.998861621873629,0.835018218835212,0.836368139499776,2.31452201900273,0.5,57.9599440344244
CBC_1036,CBC_1036_MSI_AV_v3_Vset3_Aset1_2023-12-06_15h58.00.246.csv,2,23,0,1,z,0,1,0,aud,B,63,1,0B,1B,0,1,b,1.92474779999975,1,0,0,0,0B,1B,B01,2.53897387105828,0.999999999262385,6.47952379299443e-07,0.5,0.5,0.00056918906318526,0.00113837738875566,0.5,0.00056918906318526,0.5,0.5,1,0.5,0.5,0.5,0.00056918906318526,0.999999999999999,0.333206894935205,0.666793105064795,0.00056918906318526,0.00113837738875566,0.149136312774153,0.344265810656987,-0.00056918906318526,-0.000568541110805961,0.5,0.998861621873629,0.835018218835212,0.836368139499776,2.31452201900273,0.5,57.9599440344244
CBC_1036,CBC_1036_MSI_AV_v3_Vset3_Aset1_2023-12-06_15h58.00.246.csv,2,24,0,2,b,1,0,2,aud,A,27,1,0A,2A,1,0,z,1.93698489999952,0,1,0,0,2A,0A,A02,3.66356164612965,0.999999999262385,6.47952379299443e-07,0.5,0.5,6.47952379299443e-07,0.00113837738875566,0.5,0.00056918906318526,0.5,0.5,1,0.5,0.5,0.5,0.00056918906318526,0.999999999999999,7.3761485808177e-10,0.999999999262385,0.5,0.999999999262385,0.0547496762820742,0.125867673271397,-0.5,-0.499430810936815,0.5,0.998861621873629,0.835018218835212,0.836368139499776,2.31452201900273,0.5,57.9599440344244
CBC_1036,CBC_1036_MSI_AV_v3_Vset3_Aset1_2023-12-06_15h58.00.246.csv,2,25,3,2,b,1,0,1,aud,D,63,1,3D,2D,1,0,b,1.39045139999871,1,0,1,1,3D,2D,D32,2.99573227355399,0.999999999262385,6.47952379299443e-07,0.00056918906318526,0.5,6.47952379299443e-07,0.00113837738875566,0.5,0.00056918906318526,0.5,0.5,1,0.5,0.5,0.5,0.00056918906318526,0.999999999999999,1,0,0.999999999999999,0.00056918906318526,0.723561077676467,0.87368993853318,9.99200722162641e-16,9.98063253916677e-16,0.5,0.998861621873629,0.835018218835212,0.836368139499776,2.31452201900273,0.5,57.9599440344244
CBC_1036,CBC_1036_MSI_AV_v3_Vset3_Aset1_2023-12-06_15h58.00.246.csv,2,26,0,2,z,0,1,3,aud,C,27,1,0C,2C,0,1,z,1.80430460000025,0,1,1,1,2C,0C,C02,2.6149597780362,0.999999999262385,6.47952379299443e-07,0.00056918906318526,0.5,6.47952379299443e-07,0.00113837738875566,0.5,0.00056918906318526,0.5,0.5,1,0.5,0.5,0.5,0.00056918906318526,1,1,0,1,0.5,0.449027315223963,0.87343953747529,0,0,0.5,0.998861621873629,0.835018218835212,0.836368139499776,2.31452201900273,0.5,57.9599440344244
CBC_1036,CBC_1036_MSI_AV_v3_Vset3_Aset1_2023-12-06_15h58.00.246.csv,2,27,0,1,z,0,1,0,aud,B,63,1,0B,1B,0,1,z,2.22459329999947,0,1,1,1,1B,0B,B01,2.35137525716348,0.999999999262385,6.47952379299443e-07,0.00056918906318526,0.5,6.47952379299443e-07,0.00113837738875566,0.5,0.00056918906318526,0.5,0.5,1,0.5,0.5,0.5,0.00056918906318526,1,0.99943178120816,0.000568218791839703,0.00113837738875566,6.47952379299443e-07,0.263962529926842,0.87329518915163,0.998861622611244,0.997724540388793,0.5,0.998861621873629,0.835018218835212,0.836368139499776,2.31452201900273,0.5,57.9599440344244
CBC_1036,CBC_1036_MSI_AV_v3_Vset3_Aset1_2023-12-06_15h58.00.246.csv,2,28,1,0,z,0,1,2,aud,A,63,1,1A,0A,0,1,z,2.2670190000008,0,1,1,1,0A,1A,A10,3.76120011569356,0.999999999262385,6.47952379299443e-07,0.00056918906318526,0.5,6.47952379299443e-07,0.998862917777548,0.5,0.00056918906318526,0.5,0.5,1,0.5,0.5,0.5,0.00056918906318526,1,1,4.77939612335348e-16,0.999999999262385,6.47952379299443e-07,0.250116375174697,0.873770207664014,7.3761485808177e-10,7.36775173461644e-10,0.5,0.998861621873629,0.835018218835212,0.836368139499776,2.31452201900273,0.5,57.9599440344244
CBC_1036,CBC_1036_MSI_AV_v3_Vset3_Aset1_2023-12-06_15h58.00.246.csv,2,29,2,3,b,1,0,3,aud,C,63,1,2C,3C,1,0,b,1.49295189999975,1,0,1,1,2C,3C,C23,2.68557734525015,0.99999999999916,6.47952379299443e-07,0.00056918906318526,0.5,6.47952379299443e-07,0.998862917777548,0.5,0.00056918906318526,0.5,0.5,1,0.5,0.5,0.5,0.00056918906318526,1,1,0,1,0.5,0.653159028551508,0.873820470288665,0,0,0.5,0.998861621873629,0.835018218835212,0.836368139499776,2.31452201900273,0.5,57.9599440344244
CBC_1036,CBC_1036_MSI_AV_v3_Vset3_Aset1_2023-12-06_15h58.00.246.csv,2,30,1,3,z,0,1,1,aud,D,27,1,1D,3D,0,1,z,1.60721550000017,0,1,1,1,3D,1D,D13,3.80666248977032,0.99999999999916,6.47952379299443e-07,0.00056918906318526,0.5,6.47952379299443e-07,0.998862917777548,0.5,0.00056918906318526,0.5,0.5,1,0.5,0.5,0.5,0.00056918906318526,1,1,0,1,0.5,0.573080299420957,0.874214081115779,0,0,0.5,0.998861621873629,0.835018218835212,0.836368139499776,2.31452201900273,0.5,57.9599440344244
CBC_1036,CBC_1036_MSI_AV_v3_Vset3_Aset1_2023-12-06_15h58.00.246.csv,2,31,0,1,b,1,0,2,aud,A,63,1,0A,1A,1,0,z,1.88536589999967,0,1,0,0,1A,0A,A01,2.4423470353692,0.99999999999916,6.47952379299443e-07,0.00056918906318526,0.5,6.47952379299443e-07,0.998862917777548,0.5,0.00056918906318526,0.5,0.5,1,0.5,0.5,0.5,0.00056918906318526,1,0,1,6.47952379299443e-07,0.99999999999916,0.0586084716049985,0.126227719066874,-6.47952379299443e-07,-6.47214764483919e-07,0.5,0.998861621873629,0.835018218835212,0.836368139499776,2.31452201900273,0.5,57.9599440344244
CBC_1036,CBC_1036_MSI_AV_v3_Vset3_Aset1_2023-12-06_15h58.00.246.csv,2,32,2,3,z,0,1,1,aud,D,63,1,2D,3D,0,1,z,1.03983779999908,0,1,1,1,3D,2D,D23,2.46385324059017,0.99999999999916,7.37614815524188e-10,0.00056918906318526,0.5,6.47952379299443e-07,0.998862917777548,0.5,0.00056918906318526,0.5,0.5,1,0.5,0.5,0.5,0.00056918906318526,1,1,0,1,0.00056918906318526,0.464167411441598,0.873895028847845,0,0,0.5,0.998861621873629,0.835018218835212,0.836368139499776,2.31452201900273,0.5,57.9599440344244
CBC_1036,CBC_1036_MSI_AV_v3_Vset3_Aset1_2023-12-06_15h58.00.246.csv,2,33,1,2,b,1,0,0,aud,B,9,1,1B,2B,1,0,b,1.45292349999909,1,0,1,1,1B,2B,B12,3.87120101090789,0.99999999999916,7.37614815524188e-10,0.00056918906318526,0.5,6.47952379299443e-07,0.998862917777548,0.5,0.00056918906318526,0.5,0.5,1,0.5,0.5,0.5,0.00056918906318526,1,0.998862917777548,0.00113708222245157,0.998862917777548,0.5,0.680817229848129,0.87338305831143,0.00113708222245157,0.00113578779292165,0.5,0.998861621873629,0.835018218835212,0.836368139499776,2.31452201900273,0.5,57.9599440344244
CBC_1036,CBC_1036_MSI_AV_v3_Vset3_Aset1_2023-12-06_15h58.00.246.csv,2,34,0,1,b,1,0,2,aud,A,63,1,0A,1A,1,0,z,2.46441409999898,0,1,0,0,1A,0A,A01,2.28238238567653,0.99999999999916,7.37614815524188e-10,0.00056918906318526,0.5,6.47952379299443e-07,0.99999870557047,0.5,0.00056918906318526,0.5,0.5,1,0.5,0.5,0.5,0.00056918906318526,1,0,1,7.37614815524188e-10,0.99999999999916,0.0281841377618945,0.126461792722941,-7.37614815524188e-10,-7.36775130952508e-10,0.5,0.998861621873629,0.835018218835212,0.836368139499776,2.31452201900273,0.5,57.9599440344244
CBC_1036,CBC_1036_MSI_AV_v3_Vset3_Aset1_2023-12-06_15h58.00.246.csv,2,35,1,2,z,0,1,3,aud,C,9,1,1C,2C,0,1,z,1.55881129999943,0,1,1,1,2C,1C,C12,3.91202300542815,0.99999999999916,8.39684571679584e-13,0.00056918906318526,0.5,6.47952379299443e-07,0.99999870557047,0.5,0.00056918906318526,0.5,0.5,1,0.5,0.5,0.5,0.00056918906318526,1,1,0,1,0.5,0.60615549268428,0.873722664389512,0,0,0.5,0.998861621873629,0.835018218835212,0.836368139499776,2.31452201900273,0.5,57.9599440344244
CBC_1036,CBC_1036_MSI_AV_v3_Vset3_Aset1_2023-12-06_15h58.00.246.csv,2,36,0,1,z,0,1,0,aud,B,63,1,0B,1B,0,1,z,2.48839969999972,0,1,1,1,1B,0B,B01,2.32238772029023,0.99999999999916,8.39684571679584e-13,0.00056918906318526,0.5,6.47952379299443e-07,0.99999870557047,0.5,0.00056918906318526,0.5,0.5,1,0.5,0.5,0.5,0.00056918906318526,1,0.999999999999161,8.38730322865204e-13,0.99999870557047,6.47952379299443e-07,0.188773075905241,0.873960443460813,1.29442952989667e-06,1.29295597963371e-06,0.5,0.998861621873629,0.835018218835212,0.836368139499776,2.31452201900273,0.5,57.9599440344244
CBC_1036,CBC_1036_MSI_AV_v3_Vset3_Aset1_2023-12-06_15h58.00.246.csv,2,37,1,0,z,0,1,2,aud,A,63,0,1A,0A,1,0,z,2.11896379999962,0,1,1,0,0A,1A,A10,3.25809653802148,0.99999999999916,8.39684571679584e-13,0.00056918906318526,0.5,6.47952379299443e-07,0.99999999852645,0.5,0.00056918906318526,0.5,0.5,1,0.5,0.5,0.5,0.00056918906318526,1,1,7.05050952689952e-25,0.99999999999916,8.39684571679584e-13,0.301865172483801,0.87406833075019,-0.99999999999916,-0.998861621872791,0.5,0.998861621873629,0.835018218835212,0.836368139499776,2.31452201900273,0.5,57.9599440344244
CBC_1036,CBC_1036_MSI_AV_v3_Vset3_Aset1_2023-12-06_15h58.00.246.csv,2,38,1,0,b,1,0,0,aud,B,63,1,1B,0B,1,0,b,1.80012449999958,1,0,1,1,1B,0B,B10,3.27714473299218,0.00113837812636952,8.39684571679584e-13,0.00056918906318526,0.5,6.47952379299443e-07,0.99999999852645,0.5,0.00056918906318526,0.5,0.5,1,0.5,0.5,0.5,0.00056918906318526,1,0.999999999999999,9.99200722162641e-16,0.99999999852645,6.47952379299443e-07,0.451860908365225,0.874210608935356,1.47355028179419e-09,1.47187282438529e-09,0.5,0.998861621873629,0.835018218835212,0.836368139499776,2.31452201900273,0.5,57.9599440344244
CBC_1036,CBC_1036_MSI_AV_v3_Vset3_Aset1_2023-12-06_15h58.00.246.csv,2,39,3,1,b,1,0,1,aud,D,27,1,3D,1D,1,0,b,1.27743329999976,1,0,1,1,3D,1D,D31,3.29583686600433,0.00113837812636952,8.39684571679584e-13,0.00056918906318526,0.5,6.47952379299443e-07,0.999999999998323,0.5,0.00056918906318526,0.5,0.5,1,0.5,0.5,0.5,0.00056918906318526,1,1,0,1,0.5,0.77808433653457,0.873607212066484,0,0,0.5,0.998861621873629,0.835018218835212,0.836368139499776,2.31452201900273,0.5,57.9599440344244
CBC_1036,CBC_1036_MSI_AV_v3_Vset3_Aset1_2023-12-06_15h58.00.246.csv,2,40,2,3,b,1,0,3,aud,C,63,1,2C,3C,1,0,b,1.36505730000135,1,0,1,1,2C,3C,C23,2.62103882411258,0.00113837812636952,8.39684571679584e-13,0.00056918906318526,0.5,6.47952379299443e-07,0.999999999998323,0.5,0.00056918906318526,0.5,0.5,1,0.5,0.5,0.5,0.00056918906318526,1,1,0,1,0.5,0.740302984622821,0.87422604715398,0,0,0.5,0.998861621873629,0.835018218835212,0.836368139499776,2.31452201900273,0.5,57.9599440344244
CBC_1036,CBC_1036_MSI_AV_v3_Vset3_Aset1_2023-12-06_15h58.00.246.csv,2,41,2,0,z,0,1,2,aud,A,27,1,2A,0A,0,1,b,1.23787409999932,1,0,0,0,2A,0A,A20,3.3322045101752,0.00113837812636952,8.39684571679584e-13,0.00056918906318526,0.5,6.47952379299443e-07,0.999999999998323,0.5,0.00056918906318526,0.5,0.5,1,0.5,0.5,0.5,0.00056918906318526,1,0.333206750809192,0.666793249190808,0.00056918906318526,0.00113837812636952,0.244015553545929,0.343681678198013,-0.00056918906318526,-0.000568541110805961,0.5,0.998861621873629,0.835018218835212,0.836368139499776,2.31452201900273,0.5,57.9599440344244
CBC_1036,CBC_1036_MSI_AV_v3_Vset3_Aset1_2023-12-06_15h58.00.246.csv,2,42,3,2,b,1,0,1,aud,D,63,1,3D,2D,1,0,z,0.946077099999457,0,1,0,0,2D,3D,D32,2.94443897916644,0.00113837812636952,8.39684571679584e-13,6.47952379299443e-07,0.5,6.47952379299443e-07,0.999999999998323,0.5,0.00056918906318526,0.5,0.5,1,0.5,0.5,0.5,0.00056918906318526,1,0,1,0.00056918906318526,1,0.0109719279302831,0.126138946330841,-0.00056918906318526,-0.000568541110805961,0.5,0.998861621873629,0.835018218835212,0.836368139499776,2.31452201900273,0.5,57.9599440344244
CBC_1036,CBC_1036_MSI_AV_v3_Vset3_Aset1_2023-12-06_15h58.00.246.csv,2,43,3,1,z,0,1,0,aud,B,27,1,3B,1B,0,1,z,1.61601340000016,0,1,1,1,1B,3B,B31,3.36729582998647,0.00113837812636952,8.39684571679584e-13,6.47952379299443e-07,0.5,6.47952379299443e-07,0.999999999998323,0.5,0.00056918906318526,0.5,0.5,1,0.5,0.5,0.5,6.47952379299443e-07,1,0.999999999999999,9.55321965942197e-16,0.999999999998323,0.00056918906318526,0.566717569554584,0.87390234526875,1.67743596790615e-12,1.6755264114919e-12,0.5,0.998861621873629,0.835018218835212,0.836368139499776,2.31452201900273,0.5,57.9599440344244
CBC_1036,CBC_1036_MSI_AV_v3_Vset3_Aset1_2023-12-06_15h58.00.246.csv,2,44,2,3,b,1,0,3,aud,C,63,1,2C,3C,1,0,b,1.75559399999838,1,0,1,1,2C,3C,C23,2.46809953147162,0.00113837812636952,8.39684571679584e-13,6.47952379299443e-07,0.5,6.47952379299443e-07,0.999999999999998,0.5,0.00056918906318526,0.5,0.5,1,0.5,0.5,0.5,6.47952379299443e-07,1,1,0,1,0.5,0.477558955503649,0.873962197899268,0,0,0.5,0.998861621873629,0.835018218835212,0.836368139499776,2.31452201900273,0.5,57.9599440344244
CBC_1036,CBC_1036_MSI_TV_v3_Vset6_Tset2_2023-12-06_16h06.44.053.csv,3,1,1,3,b,1,0,0,tac,B,27,1,1B,3B,1,0,z,2.46109009999964,0,1,0,0,3B,1B,B13,2.77258872223978,0.5,0.5,0.5,0.5,0.5,0.5,0.5,0.5,0.5,0.5,0.5,0.5,0.5,0.5,0.5,0.5,0.5,0.5,0.5,0.5,0.16910915460803,0.499838371002291,-0.5,-0.0024835774684015,0.5,0.004967154936803,1.09656024841603,9.59401317563299,2.3903775085364,0.5,74.937465410118
CBC_1036,CBC_1036_MSI_TV_v3_Vset6_Tset2_2023-12-06_16h06.44.053.csv,3,2,3,2,z,0,1,3,tac,C,63,1,3C,2C,0,1,b,2.55984849999913,1,0,0,0,3C,2C,C32,2.83321334405622,0.5,0.5,0.5,0.5,0.5,0.5,0.5,0.497516422531599,0.5,0.5,0.5,0.5,0.5,0.5,0.5,0.5,0.5,0.5,0.5,0.5,0.155259842361463,0.499702846978153,-0.5,-0.0024835774684015,0.5,0.004967154936803,1.09656024841603,9.59401317563299,2.3903775085364,0.5,74.937465410118
CBC_1036,CBC_1036_MSI_TV_v3_Vset6_Tset2_2023-12-06_16h06.44.053.csv,3,3,3,2,b,1,0,1,tac,D,63,1,3D,2D,1,0,b,3.34627429999819,1,0,1,1,3D,2D,D32,2.89037175789616,0.5,0.5,0.5,0.5,0.5,0.5,0.5,0.497516422531599,0.5,0.5,0.5,0.497516422531599,0.5,0.5,0.5,0.5,0.5,0.5,0.5,0.5,0.0789145616154592,0.500873575457133,0.5,0.0024835774684015,0.5,0.004967154936803,1.09656024841603,9.59401317563299,2.3903775085364,0.5,74.937465410118
CBC_1036,CBC_1036_MSI_TV_v3_Vset6_Tset2_2023-12-06_16h06.44.053.csv,3,4,0,1,z,0,1,0,tac,B,63,1,0B,1B,0,1,b,3.24426179999864,1,0,0,0,0B,1B,B01,2.94443897916644,0.5,0.5,0.5,0.5,0.5,0.5,0.5,0.497516422531599,0.5,0.5,0.5,0.497516422531599,0.5,0.5,0.5,0.502483577468402,0.5,0.5,0.5,0.5,0.0862927174526752,0.501514365381792,-0.5,-0.0024835774684015,0.5,0.004967154936803,1.09656024841603,9.59401317563299,2.3903775085364,0.5,74.937465410118
CBC_1036,CBC_1036_MSI_TV_v3_Vset6_Tset2_2023-12-06_16h06.44.053.csv,3,5,0,3,b,1,0,2,tac,A,9,1,0A,3A,1,0,z,3.27280389999942,0,1,0,0,3A,0A,A03,2.99573227355399,0.5,0.5,0.5,0.5,0.497516422531599,0.5,0.5,0.497516422531599,0.5,0.5,0.5,0.497516422531599,0.5,0.5,0.5,0.502483577468402,0.5,0.5,0.5,0.5,0.0838072689703704,0.499224175425955,-0.5,-0.0024835774684015,0.5,0.004967154936803,1.09656024841603,9.59401317563299,2.3903775085364,0.5,74.937465410118
CBC_1036,CBC_1036_MSI_TV_v3_Vset6_Tset2_2023-12-06_16h06.44.053.csv,3,6,3,2,b,1,0,1,tac,D,63,1,3D,2D,1,0,z,2.40830099999948,0,1,0,0,2D,3D,D32,2.35137525716348,0.5,0.5,0.5,0.497516422531599,0.497516422531599,0.5,0.5,0.497516422531599,0.5,0.5,0.5,0.497516422531599,0.5,0.5,0.5,0.502483577468402,0.497516422531598,0.502483577468402,0.5,0.502483577468402,0.166990330924613,0.471566356823809,-0.5,-0.0024835774684015,0.5,0.004967154936803,1.09656024841603,9.59401317563299,2.3903775085364,0.5,74.937465410118
CBC_1036,CBC_1036_MSI_TV_v3_Vset6_Tset2_2023-12-06_16h06.44.053.csv,3,7,0,2,z,0,1,3,tac,C,27,1,0C,2C,0,1,b,2.62412849999964,1,0,0,0,0C,2C,C02,3.09104245335832,0.5,0.5,0.5,0.497516422531599,0.497516422531599,0.5,0.5,0.497516422531599,0.5,0.5,0.5,0.497516422531599,0.5,0.5,0.497516422531599,0.502483577468402,0.5,0.5,0.5,0.5,0.146848996774055,0.499591059667449,-0.5,-0.0024835774684015,0.5,0.004967154936803,1.09656024841603,9.59401317563299,2.3903775085364,0.5,74.937465410118
CBC_1036,CBC_1036_MSI_TV_v3_Vset6_Tset2_2023-12-06_16h06.44.053.csv,3,8,0,1,b,1,0,2,tac,A,63,1,0A,1A,1,0,z,2.50271319999956,0,1,0,0,1A,0A,A01,3.13549421592915,0.5,0.5,0.5,0.497516422531599,0.497516422531599,0.5,0.5,0.497516422531599,0.497516422531599,0.5,0.5,0.497516422531599,0.5,0.5,0.497516422531599,0.502483577468402,0.5,0.5,0.5,0.5,0.163265460058984,0.500198606206229,-0.5,-0.0024835774684015,0.5,0.004967154936803,1.09656024841603,9.59401317563299,2.3903775085364,0.5,74.937465410118
CBC_1036,CBC_1036_MSI_TV_v3_Vset6_Tset2_2023-12-06_16h06.44.053.csv,3,9,1,0,b,1,0,0,tac,B,63,1,1B,0B,1,0,b,3.30617309999798,1,0,1,1,1B,0B,B10,3.17805383034795,0.5,0.497516422531599,0.5,0.497516422531599,0.497516422531599,0.5,0.5,0.497516422531599,0.497516422531599,0.5,0.5,0.497516422531599,0.5,0.5,0.497516422531599,0.502483577468402,0.502483577468402,0.497516422531598,0.5,0.497516422531599,0.0860428046314488,0.527979587961106,0.5,0.0024835774684015,0.5,0.004967154936803,1.09656024841603,9.59401317563299,2.3903775085364,0.5,74.937465410118
CBC_1036,CBC_1036_MSI_TV_v3_Vset6_Tset2_2023-12-06_16h06.44.053.csv,3,10,1,3,z,0,1,1,tac,D,27,1,1D,3D,0,1,z,2.34682129999965,0,1,1,1,3D,1D,D13,3.2188758248682,0.5,0.497516422531599,0.5,0.497516422531599,0.497516422531599,0.502483577468402,0.5,0.497516422531599,0.497516422531599,0.5,0.5,0.497516422531599,0.5,0.5,0.497516422531599,0.502483577468402,0.502483577468402,0.497516422531598,0.502483577468402,0.5,0.197378630768684,0.528616218898279,0.497516422531598,0.0024712411543184,0.5,0.004967154936803,1.09656024841603,9.59401317563299,2.3903775085364,0.5,74.937465410118
CBC_1036,CBC_1036_MSI_TV_v3_Vset6_Tset2_2023-12-06_16h06.44.053.csv,3,11,3,2,z,0,1,3,tac,C,63,1,3C,2C,0,1,z,1.78873779999776,0,1,1,1,2C,3C,C32,2.56494935746154,0.5,0.497516422531599,0.5,0.497516422531599,0.497516422531599,0.502483577468402,0.5,0.497516422531599,0.497516422531599,0.5,0.5,0.497516422531599,0.5,0.5,0.497516422531599,0.50495481862272,0.502483577468402,0.497516422531599,0.5,0.497516422531599,0.31157550306244,0.52800295836939,0.5,0.0024835774684015,0.5,0.004967154936803,1.09656024841603,9.59401317563299,2.3903775085364,0.5,74.937465410118
CBC_1036,CBC_1036_MSI_TV_v3_Vset6_Tset2_2023-12-06_16h06.44.053.csv,3,12,1,0,b,1,0,0,tac,B,63,1,1B,0B,1,0,z,1.83391949999896,0,1,0,0,0B,1B,B10,2.60268968544438,0.5,0.497516422531599,0.5,0.497516422531599,0.497516422531599,0.502483577468402,0.5,0.497516422531599,0.497516422531599,0.5,0.502483577468402,0.497516422531599,0.5,0.5,0.497516422531599,0.50495481862272,0.49503296761294,0.50496703238706,0.497516422531599,0.502483577468402,0.253905004089607,0.443297324715782,-0.497516422531599,-0.0024712411543184,0.5,0.004967154936803,1.09656024841603,9.59401317563299,2.3903775085364,0.5,74.937465410118
CBC_1036,CBC_1036_MSI_TV_v3_Vset6_Tset2_2023-12-06_16h06.44.053.csv,3,13,0,1,b,1,0,2,tac,A,63,1,0A,1A,1,0,b,2.05921449999914,1,0,1,1,0A,1A,A01,2.63905732961526,0.5,0.497516422531599,0.5,0.497516422531599,0.49504518137728,0.502483577468402,0.5,0.497516422531599,0.497516422531599,0.5,0.502483577468402,0.497516422531599,0.5,0.5,0.497516422531599,0.50495481862272,0.502483577468402,0.497516422531598,0.5,0.497516422531599,0.251941600221806,0.527945363618929,0.5,0.0024835774684015,0.5,0.004967154936803,1.09656024841603,9.59401317563299,2.3903775085364,0.5,74.937465410118
CBC_1036,CBC_1036_MSI_TV_v3_Vset6_Tset2_2023-12-06_16h06.44.053.csv,3,14,1,2,z,0,1,3,tac,C,9,1,1C,2C,0,1,z,2.47630619999836,0,1,1,1,2C,1C,C12,3.36729582998647,0.502483577468402,0.497516422531599,0.5,0.497516422531599,0.49504518137728,0.502483577468402,0.5,0.497516422531599,0.497516422531599,0.5,0.502483577468402,0.497516422531599,0.5,0.5,0.497516422531599,0.50495481862272,0.502483577468402,0.497516422531598,0.502483577468402,0.5,0.176265886617538,0.527843077073038,0.497516422531598,0.0024712411543184,0.5,0.004967154936803,1.09656024841603,9.59401317563299,2.3903775085364,0.5,74.937465410118
CBC_1036,CBC_1036_MSI_TV_v3_Vset6_Tset2_2023-12-06_16h06.44.053.csv,3,15,1,0,z,0,1,2,tac,A,63,1,1A,0A,0,1,z,2.43085599999904,0,1,1,1,0A,1A,A10,3.40119738166216,0.502483577468402,0.497516422531599,0.5,0.497516422531599,0.49504518137728,0.502483577468402,0.5,0.497516422531599,0.497516422531599,0.5,0.50495481862272,0.497516422531599,0.5,0.5,0.497516422531599,0.50495481862272,0.50496703238706,0.49503296761294,0.502483577468402,0.497516422531599,0.193166791510181,0.556036895476073,0.497516422531598,0.0024712411543184,0.5,0.004967154936803,1.09656024841603,9.59401317563299,2.3903775085364,0.5,74.937465410118
CBC_1036,CBC_1036_MSI_TV_v3_Vset6_Tset2_2023-12-06_16h06.44.053.csv,3,16,3,1,b,1,0,1,tac,D,27,1,3D,1D,1,0,b,1.64685739999913,1,0,1,1,3D,1D,D31,3.43398720448515,0.50495481862272,0.497516422531599,0.5,0.497516422531599,0.49504518137728,0.502483577468402,0.5,0.497516422531599,0.497516422531599,0.5,0.50495481862272,0.497516422531599,0.5,0.5,0.497516422531599,0.50495481862272,0.50495481862272,0.49504518137728,0.50495481862272,0.5,0.356978969309702,0.557332711225317,0.49504518137728,0.00245896611661869,0.5,0.004967154936803,1.09656024841603,9.59401317563299,2.3903775085364,0.5,74.937465410118
CBC_1036,CBC_1036_MSI_TV_v3_Vset6_Tset2_2023-12-06_16h06.44.053.csv,3,17,0,1,z,0,1,0,tac,B,63,1,0B,1B,0,1,z,2.999058899999,0,1,1,1,1B,0B,B01,2.77258872223978,0.50495481862272,0.497516422531599,0.5,0.497516422531599,0.49504518137728,0.502483577468402,0.5,0.497516422531599,0.497516422531599,0.5,0.50495481862272,0.497516422531599,0.5,0.5,0.497516422531599,0.507413784739339,0.507438029971177,0.492561970028823,0.502483577468402,0.49504518137728,0.123515035046505,0.5836385452683,0.497516422531598,0.0024712411543184,0.5,0.004967154936803,1.09656024841603,9.59401317563299,2.3903775085364,0.5,74.937465410118
CBC_1036,CBC_1036_MSI_TV_v3_Vset6_Tset2_2023-12-06_16h06.44.053.csv,3,18,2,3,b,1,0,3,tac,C,63,0,2C,3C,0,1,b,1.93939109999883,1,0,1,0,2C,3C,C23,3.49650756146648,0.50495481862272,0.497516422531599,0.5,0.497516422531599,0.49504518137728,0.50495481862272,0.5,0.497516422531599,0.497516422531599,0.5,0.50495481862272,0.497516422531599,0.5,0.5,0.497516422531599,0.507413784739339,0.507438029971177,0.492561970028823,0.50495481862272,0.497516422531599,0.309904879076153,0.58528764027329,-0.50495481862272,-0.00250818882018431,0.5,0.004967154936803,1.09656024841603,9.59401317563299,2.3903775085364,0.5,74.937465410118
CBC_1036,CBC_1036_MSI_TV_v3_Vset6_Tset2_2023-12-06_16h06.44.053.csv,3,19,2,0,z,0,1,2,tac,A,27,1,2A,0A,0,1,b,2.5757311999987,1,0,0,0,2A,0A,A20,3.52636052461616,0.50495481862272,0.497516422531599,0.5,0.497516422531599,0.49504518137728,0.50495481862272,0.5,0.497516422531599,0.497516422531599,0.5,0.502446629802536,0.497516422531599,0.5,0.5,0.497516422531599,0.507413784739339,0.49504518137728,0.50495481862272,0.5,0.50495481862272,0.135467704837876,0.442130971195913,-0.5,-0.0024835774684015,0.5,0.004967154936803,1.09656024841603,9.59401317563299,2.3903775085364,0.5,74.937465410118
CBC_1036,CBC_1036_MSI_TV_v3_Vset6_Tset2_2023-12-06_16h06.44.053.csv,3,20,3,2,b,1,0,1,tac,D,63,1,3D,2D,1,0,b,1.47777759999917,1,0,1,1,3D,2D,D32,2.4567357728213,0.50495481862272,0.497516422531599,0.497516422531599,0.497516422531599,0.49504518137728,0.50495481862272,0.5,0.497516422531599,0.497516422531599,0.5,0.502446629802536,0.497516422531599,0.5,0.5,0.497516422531599,0.507413784739339,0.509896633312434,0.490103366687566,0.507413784739339,0.497516422531599,0.387728759419136,0.611617795645603,0.492586215260661,0.0024467520509331,0.5,0.004967154936803,1.09656024841603,9.59401317563299,2.3903775085364,0.5,74.937465410118
CBC_1036,CBC_1036_MSI_TV_v3_Vset6_Tset2_2023-12-06_16h06.44.053.csv,3,21,3,1,z,0,1,0,tac,B,27,1,3B,1B,0,1,z,3.05446989999837,0,1,1,1,1B,3B,B31,3.58351893845611,0.50495481862272,0.497516422531599,0.497516422531599,0.497516422531599,0.49504518137728,0.50495481862272,0.5,0.497516422531599,0.497516422531599,0.5,0.502446629802536,0.497516422531599,0.5,0.5,0.497516422531599,0.509860536790272,0.507438029971177,0.492561970028823,0.50495481862272,0.497516422531599,0.118151586911982,0.586185493529005,0.49504518137728,0.00245896611661869,0.5,0.004967154936803,1.09656024841603,9.59401317563299,2.3903775085364,0.5,74.937465410118
CBC_1036,CBC_1036_MSI_TV_v3_Vset6_Tset2_2023-12-06_16h06.44.053.csv,3,22,3,2,z,0,1,3,tac,C,63,1,3C,2C,0,1,z,2.49770099999841,0,1,1,1,2C,3C,C32,2.51230562397611,0.50495481862272,0.497516422531599,0.497516422531599,0.497516422531599,0.49504518137728,0.507413784739339,0.5,0.497516422531599,0.497516422531599,0.5,0.502446629802536,0.497516422531599,0.5,0.5,0.497516422531599,0.509860536790272,0.504930087442309,0.495069912557691,0.502446629802536,0.497516422531599,0.182199145314744,0.555739027241514,0.497553370197464,0.0024714246790993,0.5,0.004967154936803,1.09656024841603,9.59401317563299,2.3903775085364,0.5,74.937465410118
CBC_1036,CBC_1036_MSI_TV_v3_Vset6_Tset2_2023-12-06_16h06.44.053.csv,3,23,0,1,b,1,0,2,tac,A,63,1,0A,1A,1,0,z,2.67150219999894,0,1,0,0,1A,0A,A01,2.53897387105828,0.50495481862272,0.497516422531599,0.497516422531599,0.497516422531599,0.49504518137728,0.507413784739339,0.5,0.497516422531599,0.497516422531599,0.5,0.504918054481635,0.497516422531599,0.5,0.5,0.497516422531599,0.509860536790272,0.492561970028823,0.507438029971177,0.497516422531599,0.50495481862272,0.11711993591828,0.41572741081896,-0.497516422531599,-0.0024712411543184,0.5,0.004967154936803,1.09656024841603,9.59401317563299,2.3903775085364,0.5,74.937465410118
CBC_1036,CBC_1036_MSI_TV_v3_Vset6_Tset2_2023-12-06_16h06.44.053.csv,3,24,2,1,z,0,1,0,tac,B,9,1,2B,1B,0,1,z,3.2862830999984,0,1,1,1,1B,2B,B21,3.66356164612965,0.50495481862272,0.49504518137728,0.497516422531599,0.497516422531599,0.49504518137728,0.507413784739339,0.5,0.497516422531599,0.497516422531599,0.5,0.504918054481635,0.497516422531599,0.5,0.5,0.497516422531599,0.509860536790272,0.507413784739339,0.492586215260661,0.507413784739339,0.5,0.0962271310302545,0.584473093322283,0.492586215260661,0.0024467520509331,0.5,0.004967154936803,1.09656024841603,9.59401317563299,2.3903775085364,0.5,74.937465410118
CBC_1036,CBC_1036_MSI_TV_v3_Vset6_Tset2_2023-12-06_16h06.44.053.csv,3,25,2,3,b,1,0,3,tac,C,63,1,2C,3C,1,0,b,1.35344709999845,1,0,1,1,2C,3C,C23,2.99573227355399,0.50495481862272,0.49504518137728,0.497516422531599,0.497516422531599,0.49504518137728,0.509860536790272,0.5,0.497516422531599,0.497516422531599,0.5,0.504918054481635,0.497516422531599,0.5,0.5,0.497516422531599,0.509860536790272,0.507401270342639,0.492598729657361,0.504918054481635,0.497516422531599,0.269159196748509,0.585424093739183,0.495081945518365,0.00245914872980358,0.5,0.004967154936803,1.09656024841603,9.59401317563299,2.3903775085364,0.5,74.937465410118
CBC_1036,CBC_1036_MSI_TV_v3_Vset6_Tset2_2023-12-06_16h06.44.053.csv,3,26,2,3,z,0,1,1,tac,D,63,1,2D,3D,0,1,b,2.75189309999951,1,0,0,0,2D,3D,D23,3.71357206670431,0.50495481862272,0.49504518137728,0.497516422531599,0.497516422531599,0.49504518137728,0.509860536790272,0.5,0.497516422531599,0.497516422531599,0.5,0.507377203211439,0.497516422531599,0.5,0.5,0.497516422531599,0.509860536790272,0.48765709482304,0.51234290517696,0.497516422531599,0.509860536790272,0.0946449183221825,0.362024957847149,-0.497516422531599,-0.0024712411543184,0.5,0.004967154936803,1.09656024841603,9.59401317563299,2.3903775085364,0.5,74.937465410118
CBC_1036,CBC_1036_MSI_TV_v3_Vset6_Tset2_2023-12-06_16h06.44.053.csv,3,27,0,1,z,0,1,0,tac,B,63,1,0B,1B,0,1,z,1.79700479999883,0,1,1,1,1B,0B,B01,2.63905732961526,0.50495481862272,0.49504518137728,0.497516422531599,0.497516422531599,0.49504518137728,0.509860536790272,0.5,0.497516422531599,0.497516422531599,0.5,0.507377203211439,0.497516422531599,0.5,0.5,0.49504518137728,0.509860536790272,0.514812460633284,0.485187539366715,0.509860536790272,0.49504518137728,0.399552136618872,0.662698184732256,0.490139463209728,0.00243459865440417,0.5,0.004967154936803,1.09656024841603,9.59401317563299,2.3903775085364,0.5,74.937465410118
CBC_1036,CBC_1036_MSI_TV_v3_Vset6_Tset2_2023-12-06_16h06.44.053.csv,3,28,0,2,b,1,0,2,tac,A,27,1,0A,2A,1,0,z,2.73903280000013,0,1,0,0,2A,0A,A02,3.76120011569356,0.50495481862272,0.49504518137728,0.497516422531599,0.497516422531599,0.49504518137728,0.512295135444676,0.5,0.497516422531599,0.497516422531599,0.5,0.507377203211439,0.497516422531599,0.5,0.5,0.49504518137728,0.509860536790272,0.492561970028823,0.507438029971177,0.497516422531599,0.50495481862272,0.110362599689777,0.41554824032192,-0.497516422531599,-0.0024712411543184,0.5,0.004967154936803,1.09656024841603,9.59401317563299,2.3903775085364,0.5,74.937465410118
CBC_1036,CBC_1036_MSI_TV_v3_Vset6_Tset2_2023-12-06_16h06.44.053.csv,3,29,1,3,z,0,1,1,tac,D,27,1,1D,3D,0,1,b,2.38619729999846,1,0,0,0,1D,3D,D13,3.09104245335832,0.50495481862272,0.49504518137728,0.49504518137728,0.497516422531599,0.49504518137728,0.512295135444676,0.5,0.497516422531599,0.497516422531599,0.5,0.507377203211439,0.497516422531599,0.5,0.5,0.49504518137728,0.509860536790272,0.490139463209728,0.509860536790272,0.5,0.509860536790272,0.140492511237134,0.388421768221466,-0.5,-0.0024835774684015,0.5,0.004967154936803,1.09656024841603,9.59401317563299,2.3903775085364,0.5,74.937465410118
CBC_1036,CBC_1036_MSI_TV_v3_Vset6_Tset2_2023-12-06_16h06.44.053.csv,3,30,1,0,z,0,1,2,tac,A,63,1,1A,0A,0,1,z,2.52697019999869,0,1,1,1,0A,1A,A10,3.11351530921037,0.50495481862272,0.49504518137728,0.49504518137728,0.497516422531599,0.49504518137728,0.512295135444676,0.5,0.497516422531599,0.497516422531599,0.5,0.507377203211439,0.497516422531599,0.5,0.497516422531599,0.49504518137728,0.509860536790272,0.509908664205595,0.490091335794405,0.50495481862272,0.49504518137728,0.195544958496723,0.611916392647823,0.49504518137728,0.00245896611661869,0.5,0.004967154936803,1.09656024841603,9.59401317563299,2.3903775085364,0.5,74.937465410118
CBC_1036,CBC_1036_MSI_TV_v3_Vset6_Tset2_2023-12-06_16h06.44.053.csv,3,31,2,0,b,1,0,3,tac,C,27,1,2C,0C,1,0,z,1.85456679999879,0,1,0,0,0C,2C,C20,3.8286413964891,0.507413784739339,0.49504518137728,0.49504518137728,0.497516422531599,0.49504518137728,0.512295135444676,0.5,0.497516422531599,0.497516422531599,0.5,0.507377203211439,0.497516422531599,0.5,0.497516422531599,0.49504518137728,0.509860536790272,0.490139941938403,0.509860058061597,0.497516422531599,0.507377203211439,0.220522418077718,0.387483352420501,-0.497516422531599,-0.0024712411543184,0.5,0.004967154936803,1.09656024841603,9.59401317563299,2.3903775085364,0.5,74.937465410118
CBC_1036,CBC_1036_MSI_TV_v3_Vset6_Tset2_2023-12-06_16h06.44.053.csv,3,32,2,3,z,0,1,1,tac,D,63,1,2D,3D,0,1,z,2.29019649999827,0,1,1,1,3D,2D,D23,3.15700042115011,0.507413784739339,0.49504518137728,0.49504518137728,0.497516422531599,0.49504518137728,0.512295135444676,0.5,0.497516422531599,0.49504518137728,0.5,0.507377203211439,0.497516422531599,0.5,0.497516422531599,0.49504518137728,0.509860536790272,0.514812460633284,0.485187539366715,0.509860536790272,0.49504518137728,0.261823008181252,0.662524830617437,0.490139463209728,0.00243459865440417,0.5,0.004967154936803,1.09656024841603,9.59401317563299,2.3903775085364,0.5,74.937465410118
CBC_1036,CBC_1036_MSI_TV_v3_Vset6_Tset2_2023-12-06_16h06.44.053.csv,3,33,1,0,b,1,0,0,tac,B,63,1,1B,0B,1,0,z,1.84455099999832,0,1,0,0,0B,1B,B10,2.77258872223978,0.507413784739339,0.49504518137728,0.49504518137728,0.497516422531599,0.49504518137728,0.512295135444676,0.5,0.497516422531599,0.49504518137728,0.5,0.507377203211439,0.497516422531599,0.5,0.497516422531599,0.49504518137728,0.512295135444676,0.482754248388813,0.517245751611187,0.49504518137728,0.512295135444676,0.182924044953635,0.311661320426523,-0.49504518137728,-0.00245896611661869,0.5,0.004967154936803,1.09656024841603,9.59401317563299,2.3903775085364,0.5,74.937465410118
CBC_1036,CBC_1036_MSI_TV_v3_Vset6_Tset2_2023-12-06_16h06.44.053.csv,3,34,0,1,b,1,0,2,tac,A,63,1,0A,1A,1,0,b,2.38617899999917,1,0,1,1,0A,1A,A01,2.50552593699074,0.507413784739339,0.49504518137728,0.49504518137728,0.497516422531599,0.492586215260661,0.512295135444676,0.5,0.497516422531599,0.49504518137728,0.5,0.507377203211439,0.497516422531599,0.5,0.497516422531599,0.49504518137728,0.512295135444676,0.512366786237999,0.487633213762001,0.507413784739339,0.49504518137728,0.231286338601212,0.638713697287812,0.492586215260661,0.0024467520509331,0.5,0.004967154936803,1.09656024841603,9.59401317563299,2.3903775085364,0.5,74.937465410118
CBC_1036,CBC_1036_MSI_TV_v3_Vset6_Tset2_2023-12-06_16h06.44.053.csv,3,35,2,3,z,0,1,1,tac,D,63,0,2D,3D,1,0,b,2.33924709999883,1,0,0,1,2D,3D,D23,2.81341071676004,0.509860536790272,0.49504518137728,0.49504518137728,0.497516422531599,0.492586215260661,0.512295135444676,0.5,0.497516422531599,0.49504518137728,0.5,0.507377203211439,0.497516422531599,0.5,0.497516422531599,0.49504518137728,0.512295135444676,0.482754248388813,0.517245751611187,0.49504518137728,0.512295135444676,0.118128380763705,0.311804475176053,0.50495481862272,0.00250818882018431,0.5,0.004967154936803,1.09656024841603,9.59401317563299,2.3903775085364,0.5,74.937465410118
CBC_1036,CBC_1036_MSI_TV_v3_Vset6_Tset2_2023-12-06_16h06.44.053.csv,3,36,2,0,b,1,0,3,tac,C,27,1,2C,0C,1,0,b,2.02747649999765,1,0,1,1,2C,0C,C20,3.23867845216438,0.509860536790272,0.49504518137728,0.49504518137728,0.497516422531599,0.492586215260661,0.512295135444676,0.5,0.497516422531599,0.49504518137728,0.5,0.507377203211439,0.497516422531599,0.5,0.497516422531599,0.497553370197464,0.512295135444676,0.512330219022781,0.487669780977219,0.507377203211439,0.49504518137728,0.315952395889921,0.636667070038388,0.492622796788561,0.00244693375705,0.5,0.004967154936803,1.09656024841603,9.59401317563299,2.3903775085364,0.5,74.937465410118
CBC_1036,CBC_1036_MSI_TV_v3_Vset6_Tset2_2023-12-06_16h06.44.053.csv,3,37,0,1,b,1,0,2,tac,A,63,1,0A,1A,1,0,b,2.51266519999808,1,0,1,1,0A,1A,A01,2.34180580614733,0.509860536790272,0.49504518137728,0.49504518137728,0.497516422531599,0.492586215260661,0.512295135444676,0.5,0.497516422531599,0.49504518137728,0.5,0.509824136968488,0.497516422531599,0.5,0.497516422531599,0.497553370197464,0.512295135444676,0.514812460633284,0.485187539366716,0.509860536790272,0.49504518137728,0.214642797306852,0.663656105102639,0.490139463209728,0.00243459865440417,0.5,0.004967154936803,1.09656024841603,9.59401317563299,2.3903775085364,0.5,74.937465410118
CBC_1036,CBC_1036_MSI_TV_v3_Vset6_Tset2_2023-12-06_16h06.44.053.csv,3,38,1,3,b,1,0,0,tac,B,27,1,1B,3B,1,0,b,2.63982069999838,1,0,1,1,1B,3B,B13,3.27714473299218,0.512295135444676,0.49504518137728,0.49504518137728,0.497516422531599,0.492586215260661,0.512295135444676,0.5,0.497516422531599,0.49504518137728,0.5,0.509824136968488,0.497516422531599,0.5,0.497516422531599,0.497553370197464,0.512295135444676,0.514776908007074,0.485223091992926,0.512295135444676,0.497516422531599,0.191343804260163,0.663624236797986,0.487704864555324,0.00242250562567881,0.5,0.004967154936803,1.09656024841603,9.59401317563299,2.3903775085364,0.5,74.937465410118
CBC_1036,CBC_1036_MSI_TV_v3_Vset6_Tset2_2023-12-06_16h06.44.053.csv,3,39,3,2,z,0,1,3,tac,C,63,1,3C,2C,0,1,z,1.36631339999985,0,1,1,1,2C,3C,C32,2.60268968544438,0.512295135444676,0.49504518137728,0.49504518137728,0.497516422531599,0.492586215260661,0.514717641070355,0.5,0.497516422531599,0.49504518137728,0.5,0.509824136968488,0.497516422531599,0.5,0.497516422531599,0.497553370197464,0.512295135444676,0.512306513370154,0.487693486629846,0.509824136968488,0.497516422531599,0.317352468845993,0.637756275164491,0.490175863031512,0.00243477945795864,0.5,0.004967154936803,1.09656024841603,9.59401317563299,2.3903775085364,0.5,74.937465410118
CBC_1036,CBC_1036_MSI_TV_v3_Vset6_Tset2_2023-12-06_16h06.44.053.csv,3,40,3,2,b,1,0,1,tac,D,63,1,3D,2D,1,0,z,1.75780049999776,0,1,0,0,2D,3D,D32,2.62103882411258,0.512295135444676,0.49504518137728,0.49504518137728,0.497516422531599,0.492586215260661,0.514717641070355,0.5,0.497516422531599,0.49504518137728,0.5,0.512258916426447,0.497516422531599,0.5,0.497516422531599,0.497553370197464,0.512295135444676,0.485260008365559,0.514739991634441,0.497553370197464,0.512295135444676,0.208780468203034,0.336701296652128,-0.497553370197464,-0.0024714246790993,0.5,0.004967154936803,1.09656024841603,9.59401317563299,2.3903775085364,0.5,74.937465410118
CBC_1036,CBC_1036_MSI_TV_v3_Vset6_Tset2_2023-12-06_16h06.44.053.csv,3,41,0,1,z,0,1,0,tac,B,63,1,0B,1B,0,1,z,1.42328989999805,0,1,1,1,1B,0B,B01,2.63905732961526,0.512295135444676,0.49504518137728,0.49504518137728,0.497516422531599,0.492586215260661,0.514717641070355,0.5,0.497516422531599,0.49504518137728,0.5,0.512258916426447,0.497516422531599,0.5,0.497516422531599,0.495081945518365,0.512295135444676,0.522121770681227,0.477878229318773,0.514717641070355,0.492586215260661,0.46202876998858,0.733356407348493,0.485282358929645,0.00241047266490079,0.5,0.004967154936803,1.09656024841603,9.59401317563299,2.3903775085364,0.5,74.937465410118
CBC_1036,CBC_1036_MSI_TV_v3_Vset6_Tset2_2023-12-06_16h06.44.053.csv,3,42,2,0,z,0,1,2,tac,A,27,1,2A,0A,0,1,b,2.08762319999914,1,0,0,0,2A,0A,A20,3.3499040872746,0.512295135444676,0.49504518137728,0.49504518137728,0.497516422531599,0.492586215260661,0.517128113735256,0.5,0.497516422531599,0.49504518137728,0.5,0.512258916426447,0.497516422531599,0.5,0.497516422531599,0.495081945518365,0.512295135444676,0.482754248388813,0.517245751611187,0.49504518137728,0.512295135444676,0.148720811061303,0.312416064034588,-0.49504518137728,-0.00245896611661869,0.5,0.004967154936803,1.09656024841603,9.59401317563299,2.3903775085364,0.5,74.937465410118
CBC_1036,CBC_1036_MSI_TV_v3_Vset6_Tset2_2023-12-06_16h06.44.053.csv,3,43,3,0,b,1,0,1,tac,D,9,1,3D,0D,1,0,b,1.66003089999867,1,0,1,1,3D,0D,D30,4.06044301054642,0.512295135444676,0.49504518137728,0.492586215260661,0.497516422531599,0.492586215260661,0.517128113735256,0.5,0.497516422531599,0.49504518137728,0.5,0.512258916426447,0.497516422531599,0.5,0.497516422531599,0.495081945518365,0.512295135444676,0.512295135444676,0.487704864555324,0.512295135444676,0.5,0.413843310878623,0.637002267026096,0.487704864555324,0.00242250562567881,0.5,0.004967154936803,1.09656024841603,9.59401317563299,2.3903775085364,0.5,74.937465410118
CBC_1036,CBC_1036_MSI_TV_v3_Vset6_Tset2_2023-12-06_16h06.44.053.csv,3,44,3,2,z,0,1,3,tac,C,63,1,3C,2C,0,1,b,2.5487781999982,1,0,0,0,3C,2C,C32,2.46809953147162,0.512295135444676,0.49504518137728,0.492586215260661,0.497516422531599,0.492586215260661,0.517128113735256,0.5,0.497516422531599,0.49504518137728,0.5,0.512258916426447,0.497516422531599,0.5,0.497516422531599,0.495081945518365,0.514717641070355,0.485259301284554,0.514740698715446,0.497516422531599,0.512258916426447,0.105381526555906,0.336627156029802,-0.497516422531599,-0.0024712411543184,0.5,0.004967154936803,1.09656024841603,9.59401317563299,2.3903775085364,0.5,74.937465410118
