ID,filename,session,trial,visStimLeft,visStimRight,correctKey,leftCorrect,rightCorrect,secondStim,mod2Type,mod2Stim,frequency,rewardAccurate,stimPairLeft,stimPairRight,pCorrectLeft,pCorrectRight,key,reactionTime,choiceLeft,choiceRight,choiceAccurate,reward,chosenPair,otherPair,triplet,surprise,0A belief,1A belief,2A belief,3A belief,0B belief,1B belief,2B belief,3B belief,0C belief,1C belief,2C belief,3C belief,0D belief,1D belief,2D belief,3D belief,beliefPairNorm,beliefOtherPairNorm,beliefPair,beliefOtherPair,lik,corrLik,rewardPE,update2,fitCBCsimpleRW_CBCdriftDiffusionLR_startBelief,fitCBCsimpleRW_CBCdriftDiffusionLR_alpha1,fitCBCsimpleRW_CBCdriftDiffusionLR_nonDecisionTime,fitCBCsimpleRW_CBCdriftDiffusionLR_weight,fitCBCsimpleRW_CBCdriftDiffusionLR_startingBoundary,fitCBCsimpleRW_CBCdriftDiffusionLR_startingPoint,fit_CBCsimpleRW_CBCdriftDiffusionLR_NLL
CBC_1112,CBC_1112_MSI_TV_v3_Vset6_Tset1_2024-09-06_16h58.36.381.csv,1,1,1,0,z,0,1,2,tac,A,63,1,1A,0A,NaN,NaN,None,NaN,NaN,NaN,NaN,NaN,,,A10,2.77258872223978,0.5,0.5,0.5,0.5,0.5,0.5,0.5,0.5,0.5,0.5,0.5,0.5,0.5,0.5,0.5,0.5,0,0,0,0,NaN,0,0,0,0.5,0.0637970243678814,0.897944266004427,2.86431363104886,3.13602028174164,0.5,89.9444122990205
CBC_1112,CBC_1112_MSI_TV_v3_Vset6_Tset1_2024-09-06_16h58.36.381.csv,1,2,2,3,b,1,0,1,tac,C,63,1,2C,3C,NaN,NaN,None,NaN,NaN,NaN,NaN,NaN,,,C23,2.83321334405622,0.5,0.5,0.5,0.5,0.5,0.5,0.5,0.5,0.5,0.5,0.5,0.5,0.5,0.5,0.5,0.5,0,0,0,0,NaN,0,0,0,0.5,0.0637970243678814,0.897944266004427,2.86431363104886,3.13602028174164,0.5,89.9444122990205
CBC_1112,CBC_1112_MSI_TV_v3_Vset6_Tset1_2024-09-06_16h58.36.381.csv,1,3,2,0,z,0,1,2,tac,A,27,1,2A,0A,0,1,z,1.10902639999995,0,1,1,1,0A,2A,A20,2.89037175789616,0.5,0.5,0.5,0.5,0.5,0.5,0.5,0.5,0.5,0.5,0.5,0.5,0.5,0.5,0.5,0.5,0.5,0.5,0.5,0.5,0.0190839884611469,0.500447598247605,0.5,0.0318985121839407,0.5,0.0637970243678814,0.897944266004427,2.86431363104886,3.13602028174164,0.5,89.9444122990205
CBC_1112,CBC_1112_MSI_TV_v3_Vset6_Tset1_2024-09-06_16h58.36.381.csv,1,4,0,1,z,0,1,3,tac,B,63,1,0B,1B,0,1,z,2.62940099999969,0,1,1,1,1B,0B,B01,2.94443897916644,0.531898512183941,0.5,0.5,0.5,0.5,0.5,0.5,0.5,0.5,0.5,0.5,0.5,0.5,0.5,0.5,0.5,0.5,0.5,0.5,0.5,0.133642384260771,0.500138943393495,0.5,0.0318985121839407,0.5,0.0637970243678814,0.897944266004427,2.86431363104886,3.13602028174164,0.5,89.9444122990205
CBC_1112,CBC_1112_MSI_TV_v3_Vset6_Tset1_2024-09-06_16h58.36.381.csv,1,5,1,0,b,1,0,3,tac,B,63,1,1B,0B,1,0,z,3.20651130000033,0,1,0,0,0B,1B,B10,2.99573227355399,0.531898512183941,0.5,0.5,0.5,0.5,0.531898512183941,0.5,0.5,0.5,0.5,0.5,0.5,0.5,0.5,0.5,0.5,0.48454377450529,0.51545622549471,0.5,0.531898512183941,0.0867358430421084,0.432262694616596,-0.5,-0.0318985121839407,0.5,0.0637970243678814,0.897944266004427,2.86431363104886,3.13602028174164,0.5,89.9444122990205
CBC_1112,CBC_1112_MSI_TV_v3_Vset6_Tset1_2024-09-06_16h58.36.381.csv,1,6,2,3,b,1,0,1,tac,C,63,1,2C,3C,1,0,z,2.4662057999999,0,1,0,0,3C,2C,C23,2.35137525716348,0.531898512183941,0.5,0.5,0.5,0.468101487816059,0.531898512183941,0.5,0.5,0.5,0.5,0.5,0.5,0.5,0.5,0.5,0.5,0.5,0.5,0.5,0.5,0.14481497180224,0.500675592052762,-0.5,-0.0318985121839407,0.5,0.0637970243678814,0.897944266004427,2.86431363104886,3.13602028174164,0.5,89.9444122990205
CBC_1112,CBC_1112_MSI_TV_v3_Vset6_Tset1_2024-09-06_16h58.36.381.csv,1,7,1,3,z,0,1,0,tac,D,27,1,1D,3D,0,1,b,2.05051130000038,1,0,0,0,1D,3D,D13,3.09104245335832,0.531898512183941,0.5,0.5,0.5,0.468101487816059,0.531898512183941,0.5,0.5,0.5,0.5,0.5,0.468101487816059,0.5,0.5,0.5,0.5,0.5,0.5,0.5,0.5,0.173631386617907,0.499244635782908,-0.5,-0.0318985121839407,0.5,0.0637970243678814,0.897944266004427,2.86431363104886,3.13602028174164,0.5,89.9444122990205
CBC_1112,CBC_1112_MSI_TV_v3_Vset6_Tset1_2024-09-06_16h58.36.381.csv,1,8,2,1,b,1,0,1,tac,C,9,1,2C,1C,1,0,b,2.74285760000066,1,0,1,1,2C,1C,C21,3.13549421592915,0.531898512183941,0.5,0.5,0.5,0.468101487816059,0.531898512183941,0.5,0.5,0.5,0.5,0.5,0.468101487816059,0.5,0.468101487816059,0.5,0.5,0.5,0.5,0.5,0.5,0.126010825222305,0.498678420934464,0.5,0.0318985121839407,0.5,0.0637970243678814,0.897944266004427,2.86431363104886,3.13602028174164,0.5,89.9444122990205
CBC_1112,CBC_1112_MSI_TV_v3_Vset6_Tset1_2024-09-06_16h58.36.381.csv,1,9,1,3,b,1,0,3,tac,B,27,1,1B,3B,1,0,b,3.15787000000046,1,0,1,1,1B,3B,B13,3.17805383034795,0.531898512183941,0.5,0.5,0.5,0.468101487816059,0.531898512183941,0.5,0.5,0.5,0.5,0.531898512183941,0.468101487816059,0.5,0.468101487816059,0.5,0.5,0.51545622549471,0.48454377450529,0.531898512183941,0.5,0.116931856908986,0.568618323795414,0.468101487816059,0.0298634820248427,0.5,0.0637970243678814,0.897944266004427,2.86431363104886,3.13602028174164,0.5,89.9444122990205
CBC_1112,CBC_1112_MSI_TV_v3_Vset6_Tset1_2024-09-06_16h58.36.381.csv,1,10,2,3,z,0,1,0,tac,D,63,1,2D,3D,0,1,z,3.07825220000041,0,1,1,1,3D,2D,D23,3.2188758248682,0.531898512183941,0.5,0.5,0.5,0.468101487816059,0.561761994208783,0.5,0.5,0.5,0.5,0.531898512183941,0.468101487816059,0.5,0.468101487816059,0.5,0.5,0.5,0.5,0.5,0.5,0.106926189730476,0.500034383535509,0.5,0.0318985121839407,0.5,0.0637970243678814,0.897944266004427,2.86431363104886,3.13602028174164,0.5,89.9444122990205
CBC_1112,CBC_1112_MSI_TV_v3_Vset6_Tset1_2024-09-06_16h58.36.381.csv,1,11,0,1,z,0,1,3,tac,B,63,1,0B,1B,0,1,b,3.01833880000004,1,0,0,0,0B,1B,B01,2.56494935746154,0.531898512183941,0.5,0.5,0.5,0.468101487816059,0.561761994208783,0.5,0.5,0.5,0.5,0.531898512183941,0.468101487816059,0.5,0.468101487816059,0.5,0.531898512183941,0.454527707784834,0.545472292215166,0.468101487816059,0.561761994208783,0.0684348601789703,0.307766497007921,-0.468101487816059,-0.0298634820248427,0.5,0.0637970243678814,0.897944266004427,2.86431363104886,3.13602028174164,0.5,89.9444122990205
CBC_1112,CBC_1112_MSI_TV_v3_Vset6_Tset1_2024-09-06_16h58.36.381.csv,1,12,2,0,b,1,0,1,tac,C,27,1,2C,0C,1,0,z,2.78455880000047,0,1,0,0,0C,2C,C20,3.29583686600433,0.531898512183941,0.5,0.5,0.5,0.438238005791217,0.561761994208783,0.5,0.5,0.5,0.5,0.531898512183941,0.468101487816059,0.5,0.468101487816059,0.5,0.531898512183941,0.48454377450529,0.51545622549471,0.5,0.531898512183941,0.106508296550116,0.429291748060751,-0.5,-0.0318985121839407,0.5,0.0637970243678814,0.897944266004427,2.86431363104886,3.13602028174164,0.5,89.9444122990205
CBC_1112,CBC_1112_MSI_TV_v3_Vset6_Tset1_2024-09-06_16h58.36.381.csv,1,13,2,3,z,0,1,0,tac,D,63,0,2D,3D,1,0,z,3.61786970000094,0,1,1,0,3D,2D,D23,2.63905732961526,0.531898512183941,0.5,0.5,0.5,0.438238005791217,0.561761994208783,0.5,0.5,0.468101487816059,0.5,0.531898512183941,0.468101487816059,0.5,0.468101487816059,0.5,0.531898512183941,0.51545622549471,0.48454377450529,0.531898512183941,0.5,0.0929169006559659,0.570025302412871,-0.531898512183941,-0.0339335423430387,0.5,0.0637970243678814,0.897944266004427,2.86431363104886,3.13602028174164,0.5,89.9444122990205
CBC_1112,CBC_1112_MSI_TV_v3_Vset6_Tset1_2024-09-06_16h58.36.381.csv,1,14,0,1,b,1,0,2,tac,A,63,1,0A,1A,1,0,b,1.33593009999959,1,0,1,1,0A,1A,A01,3.36729582998647,0.531898512183941,0.5,0.5,0.5,0.438238005791217,0.561761994208783,0.5,0.5,0.468101487816059,0.5,0.531898512183941,0.468101487816059,0.5,0.468101487816059,0.5,0.497964969840902,0.51545622549471,0.48454377450529,0.531898512183941,0.5,0.149567439608066,0.569189904101114,0.468101487816059,0.0298634820248427,0.5,0.0637970243678814,0.897944266004427,2.86431363104886,3.13602028174164,0.5,89.9444122990205
CBC_1112,CBC_1112_MSI_TV_v3_Vset6_Tset1_2024-09-06_16h58.36.381.csv,1,15,3,2,z,0,1,1,tac,C,63,1,3C,2C,0,1,z,2.73670880000054,0,1,1,1,2C,3C,C32,3.40119738166216,0.561761994208783,0.5,0.5,0.5,0.438238005791217,0.561761994208783,0.5,0.5,0.468101487816059,0.5,0.531898512183941,0.468101487816059,0.5,0.468101487816059,0.5,0.497964969840902,0.531898512183941,0.468101487816059,0.531898512183941,0.468101487816059,0.163559226745098,0.639053468130044,0.468101487816059,0.0298634820248427,0.5,0.0637970243678814,0.897944266004427,2.86431363104886,3.13602028174164,0.5,89.9444122990205
CBC_1112,CBC_1112_MSI_TV_v3_Vset6_Tset1_2024-09-06_16h58.36.381.csv,1,16,2,0,z,0,1,2,tac,A,27,1,2A,0A,0,1,z,2.93911960000014,0,1,1,1,0A,2A,A20,2.7408400239252,0.561761994208783,0.5,0.5,0.5,0.438238005791217,0.561761994208783,0.5,0.5,0.468101487816059,0.5,0.561761994208783,0.468101487816059,0.5,0.468101487816059,0.5,0.497964969840902,0.529084669891018,0.470915330108982,0.561761994208783,0.5,0.14491918637241,0.62876453019665,0.438238005791217,0.027958280734394,0.5,0.0637970243678814,0.897944266004427,2.86431363104886,3.13602028174164,0.5,89.9444122990205
CBC_1112,CBC_1112_MSI_TV_v3_Vset6_Tset1_2024-09-06_16h58.36.381.csv,1,17,3,2,b,1,0,0,tac,D,63,1,3D,2D,1,0,b,2.3541108000004,1,0,1,1,3D,2D,D32,3.46573590279973,0.589720274943177,0.5,0.5,0.5,0.438238005791217,0.561761994208783,0.5,0.5,0.468101487816059,0.5,0.561761994208783,0.468101487816059,0.5,0.468101487816059,0.5,0.497964969840902,0.4989804100241,0.5010195899759,0.497964969840902,0.5,0.151522613807051,0.496780835883389,0.502035030159098,0.03202834105259,0.5,0.0637970243678814,0.897944266004427,2.86431363104886,3.13602028174164,0.5,89.9444122990205
CBC_1112,CBC_1112_MSI_TV_v3_Vset6_Tset1_2024-09-06_16h58.36.381.csv,1,18,2,3,z,0,1,0,tac,D,63,1,2D,3D,0,1,z,2.06904070000064,0,1,1,1,3D,2D,D23,2.39789527279837,0.589720274943177,0.5,0.5,0.5,0.438238005791217,0.561761994208783,0.5,0.5,0.468101487816059,0.5,0.561761994208783,0.468101487816059,0.5,0.468101487816059,0.5,0.529993310893492,0.514559954213428,0.485440045786572,0.529993310893492,0.5,0.196020582073194,0.565124420588137,0.470006689106508,0.0299850281979951,0.5,0.0637970243678814,0.897944266004427,2.86431363104886,3.13602028174164,0.5,89.9444122990205
CBC_1112,CBC_1112_MSI_TV_v3_Vset6_Tset1_2024-09-06_16h58.36.381.csv,1,19,1,3,b,1,0,3,tac,B,27,1,1B,3B,1,0,b,3.10988409999982,1,0,1,1,1B,3B,B13,2.83321334405622,0.589720274943177,0.5,0.5,0.5,0.438238005791217,0.561761994208783,0.5,0.5,0.468101487816059,0.5,0.561761994208783,0.468101487816059,0.5,0.468101487816059,0.5,0.559978339091487,0.529084669891018,0.470915330108982,0.561761994208783,0.5,0.132909381613561,0.62948449936673,0.438238005791217,0.027958280734394,0.5,0.0637970243678814,0.897944266004427,2.86431363104886,3.13602028174164,0.5,89.9444122990205
CBC_1112,CBC_1112_MSI_TV_v3_Vset6_Tset1_2024-09-06_16h58.36.381.csv,1,20,3,0,b,1,0,0,tac,D,9,1,3D,0D,1,0,b,2.97355689999995,1,0,1,1,3D,0D,D30,3.55534806148941,0.589720274943177,0.5,0.5,0.5,0.438238005791217,0.589720274943177,0.5,0.5,0.468101487816059,0.5,0.561761994208783,0.468101487816059,0.5,0.468101487816059,0.5,0.559978339091487,0.528292247529744,0.471707752470256,0.559978339091487,0.5,0.141521539245938,0.625131103821132,0.440021660908513,0.028072072623376,0.5,0.0637970243678814,0.897944266004427,2.86431363104886,3.13602028174164,0.5,89.9444122990205
CBC_1112,CBC_1112_MSI_TV_v3_Vset6_Tset1_2024-09-06_16h58.36.381.csv,1,21,0,1,z,0,1,3,tac,B,63,1,0B,1B,0,1,z,2.56744029999982,0,1,1,1,1B,0B,B01,2.484906649788,0.589720274943177,0.5,0.5,0.5,0.438238005791217,0.589720274943177,0.5,0.5,0.468101487816059,0.5,0.561761994208783,0.468101487816059,0.5,0.468101487816059,0.5,0.588050411714863,0.573681136672073,0.426318863327927,0.589720274943177,0.438238005791217,0.229549023277058,0.788484221830246,0.410279725056823,0.0261746256170978,0.5,0.0637970243678814,0.897944266004427,2.86431363104886,3.13602028174164,0.5,89.9444122990205
CBC_1112,CBC_1112_MSI_TV_v3_Vset6_Tset1_2024-09-06_16h58.36.381.csv,1,22,0,1,b,1,0,2,tac,A,63,1,0A,1A,1,0,b,4.10858670000061,1,0,1,1,0A,1A,A01,2.91777073208428,0.589720274943177,0.5,0.5,0.5,0.438238005791217,0.615894900560275,0.5,0.5,0.468101487816059,0.5,0.561761994208783,0.468101487816059,0.5,0.468101487816059,0.5,0.588050411714863,0.541166653959823,0.458833346040177,0.589720274943177,0.5,0.0844023927415917,0.676525982630154,0.410279725056823,0.0261746256170978,0.5,0.0637970243678814,0.897944266004427,2.86431363104886,3.13602028174164,0.5,89.9444122990205
CBC_1112,CBC_1112_MSI_TV_v3_Vset6_Tset1_2024-09-06_16h58.36.381.csv,1,23,3,2,z,0,1,1,tac,C,63,1,3C,2C,0,1,z,4.83636440000055,0,1,1,1,2C,3C,C32,2.94443897916644,0.615894900560275,0.5,0.5,0.5,0.438238005791217,0.615894900560275,0.5,0.5,0.468101487816059,0.5,0.561761994208783,0.468101487816059,0.5,0.468101487816059,0.5,0.588050411714863,0.545472292215166,0.454527707784834,0.561761994208783,0.468101487816059,0.0583005891307677,0.694096998699422,0.438238005791217,0.027958280734394,0.5,0.0637970243678814,0.897944266004427,2.86431363104886,3.13602028174164,0.5,89.9444122990205
CBC_1112,CBC_1112_MSI_TV_v3_Vset6_Tset1_2024-09-06_16h58.36.381.csv,1,24,2,0,z,0,1,2,tac,A,27,1,2A,0A,0,1,z,5.04782139999998,0,1,1,1,0A,2A,A20,2.56494935746154,0.615894900560275,0.5,0.5,0.5,0.438238005791217,0.615894900560275,0.5,0.5,0.468101487816059,0.5,0.589720274943177,0.468101487816059,0.5,0.468101487816059,0.5,0.588050411714863,0.551929129034502,0.448070870965498,0.615894900560275,0.5,0.0528407084003404,0.718034234189102,0.384105099439725,0.0245047623887836,0.5,0.0637970243678814,0.897944266004427,2.86431363104886,3.13602028174164,0.5,89.9444122990205
CBC_1112,CBC_1112_MSI_TV_v3_Vset6_Tset1_2024-09-06_16h58.36.381.csv,1,25,0,1,z,0,1,3,tac,B,63,1,0B,1B,0,1,z,2.50046900000007,0,1,1,1,1B,0B,B01,2.30258509299405,0.640399662949059,0.5,0.5,0.5,0.438238005791217,0.615894900560275,0.5,0.5,0.468101487816059,0.5,0.589720274943177,0.468101487816059,0.5,0.468101487816059,0.5,0.588050411714863,0.584266838507089,0.415733161492911,0.615894900560275,0.438238005791217,0.251680728206883,0.819820288275632,0.384105099439725,0.0245047623887836,0.5,0.0637970243678814,0.897944266004427,2.86431363104886,3.13602028174164,0.5,89.9444122990205
CBC_1112,CBC_1112_MSI_TV_v3_Vset6_Tset1_2024-09-06_16h58.36.381.csv,1,26,3,2,b,1,0,0,tac,D,63,1,3D,2D,1,0,b,2.61814280000044,1,0,1,1,3D,2D,D32,3.02042488614436,0.640399662949059,0.5,0.5,0.5,0.438238005791217,0.640399662949059,0.5,0.5,0.468101487816059,0.5,0.589720274943177,0.468101487816059,0.5,0.468101487816059,0.5,0.588050411714863,0.540462468818925,0.459537531181075,0.588050411714863,0.5,0.184602007540653,0.674452957679107,0.411949588285137,0.0262811579221656,0.5,0.0637970243678814,0.897944266004427,2.86431363104886,3.13602028174164,0.5,89.9444122990205
CBC_1112,CBC_1112_MSI_TV_v3_Vset6_Tset1_2024-09-06_16h58.36.381.csv,1,27,2,1,z,0,1,3,tac,B,9,1,2B,1B,0,1,z,3.7910781000005,0,1,1,1,1B,2B,B21,3.73766961828337,0.640399662949059,0.5,0.5,0.5,0.438238005791217,0.640399662949059,0.5,0.5,0.468101487816059,0.5,0.589720274943177,0.468101487816059,0.5,0.468101487816059,0.5,0.614331569637029,0.561557218714879,0.438442781285121,0.640399662949059,0.5,0.108681722760649,0.751931070389047,0.359600337050941,0.0229414314655372,0.5,0.0637970243678814,0.897944266004427,2.86431363104886,3.13602028174164,0.5,89.9444122990205
CBC_1112,CBC_1112_MSI_TV_v3_Vset6_Tset1_2024-09-06_16h58.36.381.csv,1,28,3,1,b,1,0,0,tac,D,27,1,3D,1D,1,0,b,2.31412610000052,1,0,1,1,3D,1D,D31,3.76120011569356,0.640399662949059,0.5,0.5,0.5,0.438238005791217,0.663341094414596,0.5,0.5,0.468101487816059,0.5,0.589720274943177,0.468101487816059,0.5,0.468101487816059,0.5,0.614331569637029,0.567546940115189,0.432453059884811,0.614331569637029,0.468101487816059,0.25639911042037,0.771073667423226,0.385668430362971,0.024604498249789,0.5,0.0637970243678814,0.897944266004427,2.86431363104886,3.13602028174164,0.5,89.9444122990205
CBC_1112,CBC_1112_MSI_TV_v3_Vset6_Tset1_2024-09-06_16h58.36.381.csv,1,29,0,1,b,1,0,2,tac,A,63,1,0A,1A,1,0,b,3.68083299999989,1,0,1,1,0A,1A,A01,2.68557734525015,0.640399662949059,0.5,0.5,0.5,0.438238005791217,0.663341094414596,0.5,0.5,0.468101487816059,0.5,0.589720274943177,0.468101487816059,0.5,0.468101487816059,0.5,0.638936067886818,0.561557218714879,0.438442781285121,0.640399662949059,0.5,0.115649307902564,0.751873581015765,0.359600337050941,0.0229414314655372,0.5,0.0637970243678814,0.897944266004427,2.86431363104886,3.13602028174164,0.5,89.9444122990205
CBC_1112,CBC_1112_MSI_TV_v3_Vset6_Tset1_2024-09-06_16h58.36.381.csv,1,30,1,0,z,0,1,2,tac,A,63,1,1A,0A,0,1,z,2.94835090000061,0,1,1,1,0A,1A,A10,3.11351530921037,0.663341094414596,0.5,0.5,0.5,0.438238005791217,0.663341094414596,0.5,0.5,0.468101487816059,0.5,0.589720274943177,0.468101487816059,0.5,0.468101487816059,0.5,0.638936067886818,0.570203440417787,0.429796559582213,0.663341094414596,0.5,0.181565269328672,0.779161491867629,0.336658905585404,0.0214778364032963,0.5,0.0637970243678814,0.897944266004427,2.86431363104886,3.13602028174164,0.5,89.9444122990205
CBC_1112,CBC_1112_MSI_TV_v3_Vset6_Tset1_2024-09-06_16h58.36.381.csv,1,31,2,0,b,1,0,1,tac,C,27,1,2C,0C,1,0,z,3.1966494000003,0,1,0,0,0C,2C,C20,3.13549421592915,0.684818930817892,0.5,0.5,0.5,0.438238005791217,0.663341094414596,0.5,0.5,0.468101487816059,0.5,0.589720274943177,0.468101487816059,0.5,0.468101487816059,0.5,0.638936067886818,0.442514518320229,0.557485481679771,0.468101487816059,0.589720274943177,0.0528221682061225,0.261278565334287,-0.468101487816059,-0.0298634820248427,0.5,0.0637970243678814,0.897944266004427,2.86431363104886,3.13602028174164,0.5,89.9444122990205
CBC_1112,CBC_1112_MSI_TV_v3_Vset6_Tset1_2024-09-06_16h58.36.381.csv,1,32,0,1,b,1,0,2,tac,A,63,1,0A,1A,1,0,z,2.97533300000077,0,1,0,0,1A,0A,A01,2.46385324059017,0.684818930817892,0.5,0.5,0.5,0.438238005791217,0.663341094414596,0.5,0.5,0.438238005791217,0.5,0.589720274943177,0.468101487816059,0.5,0.468101487816059,0.5,0.638936067886818,0.422005411117836,0.577994588882164,0.5,0.684818930817892,0.0453372338580575,0.197351310685495,-0.5,-0.0318985121839407,0.5,0.0637970243678814,0.897944266004427,2.86431363104886,3.13602028174164,0.5,89.9444122990205
CBC_1112,CBC_1112_MSI_TV_v3_Vset6_Tset1_2024-09-06_16h58.36.381.csv,1,33,0,1,z,0,1,3,tac,B,63,1,0B,1B,0,1,z,3.5252717999997,0,1,1,1,1B,0B,B01,2.26176309847379,0.684818930817892,0.468101487816059,0.5,0.5,0.438238005791217,0.663341094414596,0.5,0.5,0.438238005791217,0.5,0.589720274943177,0.468101487816059,0.5,0.468101487816059,0.5,0.638936067886818,0.602172911859585,0.397827088140415,0.663341094414596,0.438238005791217,0.136444978577909,0.862859343807252,0.336658905585404,0.0214778364032963,0.5,0.0637970243678814,0.897944266004427,2.86431363104886,3.13602028174164,0.5,89.9444122990205
CBC_1112,CBC_1112_MSI_TV_v3_Vset6_Tset1_2024-09-06_16h58.36.381.csv,1,34,2,3,z,0,1,0,tac,D,63,1,2D,3D,0,1,z,2.43762899999956,0,1,1,1,3D,2D,D23,2.50552593699074,0.684818930817892,0.468101487816059,0.5,0.5,0.438238005791217,0.684818930817892,0.5,0.5,0.438238005791217,0.5,0.589720274943177,0.468101487816059,0.5,0.468101487816059,0.5,0.638936067886818,0.56099379579075,0.43900620420925,0.638936067886818,0.5,0.230662367352755,0.749061651719961,0.361063932113182,0.0230348044753878,0.5,0.0637970243678814,0.897944266004427,2.86431363104886,3.13602028174164,0.5,89.9444122990205
CBC_1112,CBC_1112_MSI_TV_v3_Vset6_Tset1_2024-09-06_16h58.36.381.csv,1,35,1,3,b,1,0,3,tac,B,27,1,1B,3B,1,0,b,3.15483899999936,1,0,1,1,1B,3B,B13,2.81341071676004,0.684818930817892,0.468101487816059,0.5,0.5,0.438238005791217,0.684818930817892,0.5,0.5,0.438238005791217,0.5,0.589720274943177,0.468101487816059,0.5,0.468101487816059,0.5,0.661970872362206,0.577994588882164,0.422005411117836,0.684818930817892,0.5,0.165440437564437,0.801953295926161,0.315181069182108,0.0201076143509058,0.5,0.0637970243678814,0.897944266004427,2.86431363104886,3.13602028174164,0.5,89.9444122990205
CBC_1112,CBC_1112_MSI_TV_v3_Vset6_Tset1_2024-09-06_16h58.36.381.csv,1,36,2,3,b,1,0,1,tac,C,63,1,2C,3C,1,0,z,3.00101730000051,0,1,0,0,3C,2C,C23,2.83321334405622,0.684818930817892,0.468101487816059,0.5,0.5,0.438238005791217,0.704926545168798,0.5,0.5,0.438238005791217,0.5,0.589720274943177,0.468101487816059,0.5,0.468101487816059,0.5,0.661970872362206,0.442514518320229,0.557485481679771,0.468101487816059,0.589720274943177,0.0589987572539323,0.261821517479486,-0.468101487816059,-0.0298634820248427,0.5,0.0637970243678814,0.897944266004427,2.86431363104886,3.13602028174164,0.5,89.9444122990205
CBC_1112,CBC_1112_MSI_TV_v3_Vset6_Tset1_2024-09-06_16h58.36.381.csv,1,37,0,2,z,0,1,1,tac,C,27,1,0C,2C,0,1,z,3.67736100000047,0,1,1,1,2C,0C,C02,3.95124371858143,0.684818930817892,0.468101487816059,0.5,0.5,0.438238005791217,0.704926545168798,0.5,0.5,0.438238005791217,0.5,0.589720274943177,0.438238005791217,0.5,0.468101487816059,0.5,0.661970872362206,0.573681136672073,0.426318863327927,0.589720274943177,0.438238005791217,0.119816047858253,0.789563160099232,0.410279725056823,0.0261746256170978,0.5,0.0637970243678814,0.897944266004427,2.86431363104886,3.13602028174164,0.5,89.9444122990205
CBC_1112,CBC_1112_MSI_TV_v3_Vset6_Tset1_2024-09-06_16h58.36.381.csv,1,38,0,1,z,0,1,3,tac,B,63,1,0B,1B,0,1,z,2.50547249999954,0,1,1,1,1B,0B,B01,2.17853244432407,0.684818930817892,0.468101487816059,0.5,0.5,0.438238005791217,0.704926545168798,0.5,0.5,0.438238005791217,0.5,0.615894900560275,0.438238005791217,0.5,0.468101487816059,0.5,0.661970872362206,0.616644860599299,0.383355139400701,0.704926545168798,0.438238005791217,0.282556635580318,0.890336325735547,0.295073454831202,0.0188248083881811,0.5,0.0637970243678814,0.897944266004427,2.86431363104886,3.13602028174164,0.5,89.9444122990205
CBC_1112,CBC_1112_MSI_TV_v3_Vset6_Tset1_2024-09-06_16h58.36.381.csv,1,39,0,3,b,1,0,2,tac,A,9,1,0A,3A,1,0,b,3.28372819999959,1,0,1,1,0A,3A,A03,3.98898404656427,0.684818930817892,0.468101487816059,0.5,0.5,0.438238005791217,0.723751353556979,0.5,0.5,0.438238005791217,0.5,0.615894900560275,0.438238005791217,0.5,0.468101487816059,0.5,0.661970872362206,0.577994588882164,0.422005411117836,0.684818930817892,0.5,0.153147302009165,0.802090501277373,0.315181069182108,0.0201076143509058,0.5,0.0637970243678814,0.897944266004427,2.86431363104886,3.13602028174164,0.5,89.9444122990205
CBC_1112,CBC_1112_MSI_TV_v3_Vset6_Tset1_2024-09-06_16h58.36.381.csv,1,40,2,3,b,1,0,1,tac,C,63,0,2C,3C,0,1,z,3.09991519999994,0,1,0,1,3C,2C,C23,2.62103882411258,0.704926545168798,0.468101487816059,0.5,0.5,0.438238005791217,0.723751353556979,0.5,0.5,0.438238005791217,0.5,0.615894900560275,0.438238005791217,0.5,0.468101487816059,0.5,0.661970872362206,0.415733161492911,0.584266838507089,0.438238005791217,0.615894900560275,0.0384261440098597,0.180542395844079,0.561761994208783,0.0358387436334874,0.5,0.0637970243678814,0.897944266004427,2.86431363104886,3.13602028174164,0.5,89.9444122990205
CBC_1112,CBC_1112_MSI_TV_v3_Vset6_Tset1_2024-09-06_16h58.36.381.csv,1,41,0,1,b,1,0,2,tac,A,63,1,0A,1A,1,0,z,2.82379110000011,0,1,0,0,1A,0A,A01,2.41591377830105,0.704926545168798,0.468101487816059,0.5,0.5,0.438238005791217,0.723751353556979,0.5,0.5,0.438238005791217,0.5,0.615894900560275,0.474076749424704,0.5,0.468101487816059,0.5,0.661970872362206,0.399053965168198,0.600946034831802,0.468101487816059,0.704926545168798,0.0354921267767103,0.140097473069044,-0.468101487816059,-0.0298634820248427,0.5,0.0637970243678814,0.897944266004427,2.86431363104886,3.13602028174164,0.5,89.9444122990205
CBC_1112,CBC_1112_MSI_TV_v3_Vset6_Tset1_2024-09-06_16h58.36.381.csv,1,42,2,3,z,0,1,0,tac,D,63,1,2D,3D,0,1,z,3.03919430000087,0,1,1,1,3D,2D,D23,2.43361335540045,0.704926545168798,0.438238005791217,0.5,0.5,0.438238005791217,0.723751353556979,0.5,0.5,0.438238005791217,0.5,0.615894900560275,0.474076749424704,0.5,0.468101487816059,0.5,0.661970872362206,0.569696614697807,0.430303385302193,0.661970872362206,0.5,0.171850705159338,0.777403519685158,0.338029127637794,0.0215652524929621,0.5,0.0637970243678814,0.897944266004427,2.86431363104886,3.13602028174164,0.5,89.9444122990205
CBC_1112,CBC_1112_MSI_TV_v3_Vset6_Tset1_2024-09-06_16h58.36.381.csv,1,43,3,2,z,0,1,1,tac,C,63,1,3C,2C,0,1,z,3.22839849999991,0,1,1,1,2C,3C,C32,2.96183072187831,0.704926545168798,0.438238005791217,0.5,0.5,0.438238005791217,0.723751353556979,0.5,0.5,0.438238005791217,0.5,0.615894900560275,0.474076749424704,0.5,0.468101487816059,0.5,0.683536124855168,0.565055889819486,0.434944110180515,0.615894900560275,0.474076749424704,0.151340446078888,0.762964490970213,0.384105099439725,0.0245047623887836,0.5,0.0637970243678814,0.897944266004427,2.86431363104886,3.13602028174164,0.5,89.9444122990205
CBC_1112,CBC_1112_MSI_TV_v3_Vset6_Tset1_2024-09-06_16h58.36.381.csv,1,44,3,1,b,1,0,0,tac,D,27,1,3D,1D,1,0,b,2.12263649999977,1,0,1,1,3D,1D,D31,3.38439026334577,0.704926545168798,0.438238005791217,0.5,0.5,0.438238005791217,0.723751353556979,0.5,0.5,0.438238005791217,0.5,0.640399662949059,0.474076749424704,0.5,0.468101487816059,0.5,0.683536124855168,0.593534039991715,0.406465960008285,0.683536124855168,0.468101487816059,0.328490746929366,0.843093803704967,0.316463875144832,0.020189453554169,0.5,0.0637970243678814,0.897944266004427,2.86431363104886,3.13602028174164,0.5,89.9444122990205
CBC_1112,CBC_1112_MSI_AV_v3_Vset5_Aset3_2024-09-06_17h07.21.236.csv,2,1,1,3,b,1,0,3,aud,B,27,1,1B,3B,1,0,z,2.57440199999928,0,1,0,0,3B,1B,B13,2.77258872223978,0.5,0.5,0.5,0.5,0.5,0.5,0.5,0.5,0.5,0.5,0.5,0.5,0.5,0.5,0.5,0.5,0.5,0.5,0.5,0.5,0.133649479061453,0.500832452853196,-0.5,-0.011386774908737,0.5,0.022773549817474,0.867116971340841,8.46007175374614,2.59244741317949,0.5,79.8818479215634
CBC_1112,CBC_1112_MSI_AV_v3_Vset5_Aset3_2024-09-06_17h07.21.236.csv,2,2,3,2,z,0,1,1,aud,C,63,1,3C,2C,0,1,z,2.47562310000012,0,1,1,1,2C,3C,C32,2.83321334405622,0.5,0.5,0.5,0.5,0.5,0.5,0.5,0.488613225091263,0.5,0.5,0.5,0.5,0.5,0.5,0.5,0.5,0.5,0.5,0.5,0.5,0.143533904500858,0.500294553580248,0.5,0.011386774908737,0.5,0.022773549817474,0.867116971340841,8.46007175374614,2.59244741317949,0.5,79.8818479215634
CBC_1112,CBC_1112_MSI_AV_v3_Vset5_Aset3_2024-09-06_17h07.21.236.csv,2,3,3,2,b,1,0,0,aud,D,63,1,3D,2D,1,0,b,2.65497069999947,1,0,1,1,3D,2D,D32,2.89037175789616,0.5,0.5,0.5,0.5,0.5,0.5,0.5,0.488613225091263,0.5,0.5,0.511386774908737,0.5,0.5,0.5,0.5,0.5,0.5,0.5,0.5,0.5,0.126081783412303,0.501242736424855,0.5,0.011386774908737,0.5,0.022773549817474,0.867116971340841,8.46007175374614,2.59244741317949,0.5,79.8818479215634
CBC_1112,CBC_1112_MSI_AV_v3_Vset5_Aset3_2024-09-06_17h07.21.236.csv,2,4,0,1,z,0,1,3,aud,B,63,1,0B,1B,0,1,b,2.59994689999985,1,0,0,0,0B,1B,B01,2.94443897916644,0.5,0.5,0.5,0.5,0.5,0.5,0.5,0.488613225091263,0.5,0.5,0.511386774908737,0.5,0.5,0.5,0.5,0.511386774908737,0.5,0.5,0.5,0.5,0.130960940542639,0.500040113379156,-0.5,-0.011386774908737,0.5,0.022773549817474,0.867116971340841,8.46007175374614,2.59244741317949,0.5,79.8818479215634
CBC_1112,CBC_1112_MSI_AV_v3_Vset5_Aset3_2024-09-06_17h07.21.236.csv,2,5,0,3,b,1,0,2,aud,A,9,1,0A,3A,1,0,b,3.0684323000005,1,0,1,1,0A,3A,A03,2.99573227355399,0.5,0.5,0.5,0.5,0.488613225091263,0.5,0.5,0.488613225091263,0.5,0.5,0.511386774908737,0.5,0.5,0.5,0.5,0.511386774908737,0.5,0.5,0.5,0.5,0.0927591268678305,0.499535598472463,0.5,0.011386774908737,0.5,0.022773549817474,0.867116971340841,8.46007175374614,2.59244741317949,0.5,79.8818479215634
CBC_1112,CBC_1112_MSI_AV_v3_Vset5_Aset3_2024-09-06_17h07.21.236.csv,2,6,3,2,b,1,0,0,aud,D,63,1,3D,2D,NaN,NaN,[],NaN,NaN,NaN,NaN,NaN,,,D32,2.35137525716348,0.511386774908737,0.5,0.5,0.5,0.488613225091263,0.5,0.5,0.488613225091263,0.5,0.5,0.511386774908737,0.5,0.5,0.5,0.5,0.511386774908737,0,0,0,0,NaN,0,0,0,0.5,0.022773549817474,0.867116971340841,8.46007175374614,2.59244741317949,0.5,79.8818479215634
CBC_1112,CBC_1112_MSI_AV_v3_Vset5_Aset3_2024-09-06_17h07.21.236.csv,2,7,0,2,z,0,1,1,aud,C,27,1,0C,2C,0,1,b,2.19053489999897,1,0,0,0,0C,2C,C02,3.09104245335832,0.511386774908737,0.5,0.5,0.5,0.488613225091263,0.5,0.5,0.488613225091263,0.5,0.5,0.511386774908737,0.5,0.5,0.5,0.5,0.511386774908737,0.494370711981198,0.505629288018802,0.5,0.511386774908737,0.155417379392689,0.439161960336725,-0.5,-0.011386774908737,0.5,0.022773549817474,0.867116971340841,8.46007175374614,2.59244741317949,0.5,79.8818479215634
CBC_1112,CBC_1112_MSI_AV_v3_Vset5_Aset3_2024-09-06_17h07.21.236.csv,2,8,0,1,b,1,0,2,aud,A,63,1,0A,1A,1,0,b,3.49560959999963,1,0,1,1,0A,1A,A01,3.13549421592915,0.511386774908737,0.5,0.5,0.5,0.488613225091263,0.5,0.5,0.488613225091263,0.488613225091263,0.5,0.511386774908737,0.5,0.5,0.5,0.5,0.511386774908737,0.505629288018802,0.494370711981198,0.511386774908737,0.5,0.0758026196598816,0.560998926458796,0.488613225091263,0.0111274576230925,0.5,0.022773549817474,0.867116971340841,8.46007175374614,2.59244741317949,0.5,79.8818479215634
CBC_1112,CBC_1112_MSI_AV_v3_Vset5_Aset3_2024-09-06_17h07.21.236.csv,2,9,1,0,b,1,0,3,aud,B,63,1,1B,0B,1,0,b,1.86970529999962,1,0,1,1,1B,0B,B10,3.17805383034795,0.52251423253183,0.5,0.5,0.5,0.488613225091263,0.5,0.5,0.488613225091263,0.488613225091263,0.5,0.511386774908737,0.5,0.5,0.5,0.5,0.511386774908737,0.505758963475168,0.494241036524832,0.5,0.488613225091263,0.251051107030754,0.563528283851014,0.5,0.011386774908737,0.5,0.022773549817474,0.867116971340841,8.46007175374614,2.59244741317949,0.5,79.8818479215634
CBC_1112,CBC_1112_MSI_AV_v3_Vset5_Aset3_2024-09-06_17h07.21.236.csv,2,10,1,3,z,0,1,0,aud,D,27,1,1D,3D,0,1,z,2.36770569999953,0,1,1,1,3D,1D,D13,3.2188758248682,0.52251423253183,0.5,0.5,0.5,0.488613225091263,0.511386774908737,0.5,0.488613225091263,0.488613225091263,0.5,0.511386774908737,0.5,0.5,0.5,0.5,0.511386774908737,0.505629288018802,0.494370711981198,0.511386774908737,0.5,0.174406838510062,0.561265947058756,0.488613225091263,0.0111274576230925,0.5,0.022773549817474,0.867116971340841,8.46007175374614,2.59244741317949,0.5,79.8818479215634
CBC_1112,CBC_1112_MSI_AV_v3_Vset5_Aset3_2024-09-06_17h07.21.236.csv,2,11,3,2,z,0,1,1,aud,C,63,1,3C,2C,0,1,b,2.56847430000016,1,0,0,0,3C,2C,C32,2.56494935746154,0.52251423253183,0.5,0.5,0.5,0.488613225091263,0.511386774908737,0.5,0.488613225091263,0.488613225091263,0.5,0.511386774908737,0.5,0.5,0.5,0.5,0.52251423253183,0.494370711981198,0.505629288018802,0.5,0.511386774908737,0.117274584393822,0.437615612033233,-0.5,-0.011386774908737,0.5,0.022773549817474,0.867116971340841,8.46007175374614,2.59244741317949,0.5,79.8818479215634
CBC_1112,CBC_1112_MSI_AV_v3_Vset5_Aset3_2024-09-06_17h07.21.236.csv,2,12,1,0,b,1,0,3,aud,B,63,1,1B,0B,1,0,b,2.4292289999994,1,0,1,1,1B,0B,B10,2.60268968544438,0.52251423253183,0.5,0.5,0.5,0.488613225091263,0.511386774908737,0.5,0.488613225091263,0.488613225091263,0.5,0.511386774908737,0.488613225091263,0.5,0.5,0.5,0.52251423253183,0.511386774908737,0.488613225091263,0.511386774908737,0.488613225091263,0.185277355790792,0.623031561669401,0.488613225091263,0.0111274576230925,0.5,0.022773549817474,0.867116971340841,8.46007175374614,2.59244741317949,0.5,79.8818479215634
CBC_1112,CBC_1112_MSI_AV_v3_Vset5_Aset3_2024-09-06_17h07.21.236.csv,2,13,0,1,b,1,0,2,aud,A,63,1,0A,1A,1,0,b,2.99193299999934,1,0,1,1,0A,1A,A01,2.63905732961526,0.52251423253183,0.5,0.5,0.5,0.488613225091263,0.52251423253183,0.5,0.488613225091263,0.488613225091263,0.5,0.511386774908737,0.488613225091263,0.5,0.5,0.5,0.52251423253183,0.511009251419456,0.488990748580544,0.52251423253183,0.5,0.12058174654372,0.618866694282663,0.47748576746817,0.0108740459125712,0.5,0.022773549817474,0.867116971340841,8.46007175374614,2.59244741317949,0.5,79.8818479215634
CBC_1112,CBC_1112_MSI_AV_v3_Vset5_Aset3_2024-09-06_17h07.21.236.csv,2,14,1,2,z,0,1,1,aud,C,9,1,1C,2C,0,1,z,2.26467089999915,0,1,1,1,2C,1C,C12,3.36729582998647,0.533388278444401,0.5,0.5,0.5,0.488613225091263,0.52251423253183,0.5,0.488613225091263,0.488613225091263,0.5,0.511386774908737,0.488613225091263,0.5,0.5,0.5,0.52251423253183,0.505629288018802,0.494370711981198,0.511386774908737,0.5,0.188083908439017,0.561128235121444,0.488613225091263,0.0111274576230925,0.5,0.022773549817474,0.867116971340841,8.46007175374614,2.59244741317949,0.5,79.8818479215634
CBC_1112,CBC_1112_MSI_AV_v3_Vset5_Aset3_2024-09-06_17h07.21.236.csv,2,15,1,0,z,0,1,2,aud,A,63,1,1A,0A,0,1,b,2.7818642000002,1,0,0,0,1A,0A,A10,3.40119738166216,0.533388278444401,0.5,0.5,0.5,0.488613225091263,0.52251423253183,0.5,0.488613225091263,0.488613225091263,0.5,0.52251423253183,0.488613225091263,0.5,0.5,0.5,0.52251423253183,0.483845240389865,0.516154759610135,0.5,0.533388278444401,0.0746907472427259,0.329235978531011,-0.5,-0.011386774908737,0.5,0.022773549817474,0.867116971340841,8.46007175374614,2.59244741317949,0.5,79.8818479215634
CBC_1112,CBC_1112_MSI_AV_v3_Vset5_Aset3_2024-09-06_17h07.21.236.csv,2,16,3,1,b,1,0,0,aud,D,27,1,3D,1D,1,0,b,2.48398219999945,1,0,1,1,3D,1D,D31,3.43398720448515,0.533388278444401,0.488613225091263,0.5,0.5,0.488613225091263,0.52251423253183,0.5,0.488613225091263,0.488613225091263,0.5,0.52251423253183,0.488613225091263,0.5,0.5,0.5,0.52251423253183,0.511009251419456,0.488990748580544,0.52251423253183,0.5,0.176547363330641,0.618637580230271,0.47748576746817,0.0108740459125712,0.5,0.022773549817474,0.867116971340841,8.46007175374614,2.59244741317949,0.5,79.8818479215634
CBC_1112,CBC_1112_MSI_AV_v3_Vset5_Aset3_2024-09-06_17h07.21.236.csv,2,17,0,1,z,0,1,3,aud,B,63,1,0B,1B,0,1,z,3.56252700000005,0,1,1,1,1B,0B,B01,2.77258872223978,0.533388278444401,0.488613225091263,0.5,0.5,0.488613225091263,0.52251423253183,0.5,0.488613225091263,0.488613225091263,0.5,0.52251423253183,0.488613225091263,0.5,0.5,0.5,0.533388278444401,0.516763963427647,0.483236036572353,0.52251423253183,0.488613225091263,0.0836611975358286,0.675323260100812,0.47748576746817,0.0108740459125712,0.5,0.022773549817474,0.867116971340841,8.46007175374614,2.59244741317949,0.5,79.8818479215634
CBC_1112,CBC_1112_MSI_AV_v3_Vset5_Aset3_2024-09-06_17h07.21.236.csv,2,18,2,3,b,1,0,1,aud,C,63,0,2C,3C,0,1,z,2.10855240000001,0,1,0,1,3C,2C,C23,3.49650756146648,0.533388278444401,0.488613225091263,0.5,0.5,0.488613225091263,0.533388278444401,0.5,0.488613225091263,0.488613225091263,0.5,0.52251423253183,0.488613225091263,0.5,0.5,0.5,0.533388278444401,0.483236036572353,0.516763963427647,0.488613225091263,0.52251423253183,0.123301661548572,0.323522939666735,0.511386774908737,0.0116460921943815,0.5,0.022773549817474,0.867116971340841,8.46007175374614,2.59244741317949,0.5,79.8818479215634
CBC_1112,CBC_1112_MSI_AV_v3_Vset5_Aset3_2024-09-06_17h07.21.236.csv,2,19,2,0,z,0,1,2,aud,A,27,1,2A,0A,0,1,b,4.07141689999935,1,0,0,0,2A,0A,A20,3.52636052461616,0.533388278444401,0.488613225091263,0.5,0.5,0.488613225091263,0.533388278444401,0.5,0.488613225091263,0.488613225091263,0.5,0.52251423253183,0.500259317285644,0.5,0.5,0.5,0.533388278444401,0.483845240389865,0.516154759610135,0.5,0.533388278444401,0.0275826874946688,0.329037690092122,-0.5,-0.011386774908737,0.5,0.022773549817474,0.867116971340841,8.46007175374614,2.59244741317949,0.5,79.8818479215634
CBC_1112,CBC_1112_MSI_AV_v3_Vset5_Aset3_2024-09-06_17h07.21.236.csv,2,20,3,2,b,1,0,0,aud,D,63,1,3D,2D,1,0,b,1.67658739999933,1,0,1,1,3D,2D,D32,2.4567357728213,0.533388278444401,0.488613225091263,0.488613225091263,0.5,0.488613225091263,0.533388278444401,0.5,0.488613225091263,0.488613225091263,0.5,0.52251423253183,0.500259317285644,0.5,0.5,0.5,0.533388278444401,0.516154759610135,0.483845240389865,0.533388278444401,0.5,0.34764874085046,0.670292429215863,0.466611721555599,0.0106264052862638,0.5,0.022773549817474,0.867116971340841,8.46007175374614,2.59244741317949,0.5,79.8818479215634
CBC_1112,CBC_1112_MSI_AV_v3_Vset5_Aset3_2024-09-06_17h07.21.236.csv,2,21,3,1,z,0,1,3,aud,B,27,1,3B,1B,0,1,z,1.20254409999961,0,1,1,1,1B,3B,B31,3.58351893845611,0.533388278444401,0.488613225091263,0.488613225091263,0.5,0.488613225091263,0.533388278444401,0.5,0.488613225091263,0.488613225091263,0.5,0.52251423253183,0.500259317285644,0.5,0.5,0.5,0.544014683730665,0.521905571174913,0.478094428825087,0.533388278444401,0.488613225091263,0.343642860439795,0.723283398658672,0.466611721555599,0.0106264052862638,0.5,0.022773549817474,0.867116971340841,8.46007175374614,2.59244741317949,0.5,79.8818479215634
CBC_1112,CBC_1112_MSI_AV_v3_Vset5_Aset3_2024-09-06_17h07.21.236.csv,2,22,3,2,z,0,1,1,aud,C,63,1,3C,2C,0,1,z,2.16347279999991,0,1,1,1,2C,3C,C32,2.51230562397611,0.533388278444401,0.488613225091263,0.488613225091263,0.5,0.488613225091263,0.544014683730665,0.5,0.488613225091263,0.488613225091263,0.5,0.52251423253183,0.500259317285644,0.5,0.5,0.5,0.544014683730665,0.51087968849515,0.48912031150485,0.52251423253183,0.500259317285644,0.223649506732888,0.616799399639461,0.47748576746817,0.0108740459125712,0.5,0.022773549817474,0.867116971340841,8.46007175374614,2.59244741317949,0.5,79.8818479215634
CBC_1112,CBC_1112_MSI_AV_v3_Vset5_Aset3_2024-09-06_17h07.21.236.csv,2,23,0,1,b,1,0,2,aud,A,63,1,0A,1A,1,0,z,2.53113659999963,0,1,0,0,1A,0A,A01,2.53897387105828,0.533388278444401,0.488613225091263,0.488613225091263,0.5,0.488613225091263,0.544014683730665,0.5,0.488613225091263,0.488613225091263,0.5,0.533388278444401,0.500259317285644,0.5,0.5,0.5,0.544014683730665,0.478094428825087,0.521905571174913,0.488613225091263,0.533388278444401,0.0759943938738886,0.276732672337497,-0.488613225091263,-0.0111274576230925,0.5,0.022773549817474,0.867116971340841,8.46007175374614,2.59244741317949,0.5,79.8818479215634
CBC_1112,CBC_1112_MSI_AV_v3_Vset5_Aset3_2024-09-06_17h07.21.236.csv,2,24,2,1,z,0,1,3,aud,B,9,1,2B,1B,0,1,z,2.33649210000021,0,1,1,1,1B,2B,B21,3.66356164612965,0.533388278444401,0.47748576746817,0.488613225091263,0.5,0.488613225091263,0.544014683730665,0.5,0.488613225091263,0.488613225091263,0.5,0.533388278444401,0.500259317285644,0.5,0.5,0.5,0.544014683730665,0.521079532891905,0.478920467108095,0.544014683730665,0.5,0.229703557869998,0.716047003649869,0.455985316269335,0.0103844043160964,0.5,0.022773549817474,0.867116971340841,8.46007175374614,2.59244741317949,0.5,79.8818479215634
CBC_1112,CBC_1112_MSI_AV_v3_Vset5_Aset3_2024-09-06_17h07.21.236.csv,2,25,2,3,b,1,0,1,aud,C,63,1,2C,3C,1,0,z,1.58067919999939,0,1,0,0,3C,2C,C23,2.99573227355399,0.533388278444401,0.47748576746817,0.488613225091263,0.5,0.488613225091263,0.554399088046761,0.5,0.488613225091263,0.488613225091263,0.5,0.533388278444401,0.500259317285644,0.5,0.5,0.5,0.544014683730665,0.483974731187103,0.516025268812897,0.500259317285644,0.533388278444401,0.181392207363121,0.331714450162067,-0.500259317285644,-0.0113926804838602,0.5,0.022773549817474,0.867116971340841,8.46007175374614,2.59244741317949,0.5,79.8818479215634
CBC_1112,CBC_1112_MSI_AV_v3_Vset5_Aset3_2024-09-06_17h07.21.236.csv,2,26,2,3,z,0,1,0,aud,D,63,1,2D,3D,0,1,z,2.10749169999963,0,1,1,1,3D,2D,D23,3.71357206670431,0.533388278444401,0.47748576746817,0.488613225091263,0.5,0.488613225091263,0.554399088046761,0.5,0.488613225091263,0.488613225091263,0.5,0.533388278444401,0.488866636801784,0.5,0.5,0.5,0.544014683730665,0.521079532891905,0.478920467108095,0.544014683730665,0.5,0.275551585112991,0.716532430141856,0.455985316269335,0.0103844043160964,0.5,0.022773549817474,0.867116971340841,8.46007175374614,2.59244741317949,0.5,79.8818479215634
CBC_1112,CBC_1112_MSI_AV_v3_Vset5_Aset3_2024-09-06_17h07.21.236.csv,2,27,0,1,z,0,1,3,aud,B,63,1,0B,1B,0,1,z,1.08013539999956,0,1,1,1,1B,0B,B01,2.63905732961526,0.533388278444401,0.47748576746817,0.488613225091263,0.5,0.488613225091263,0.554399088046761,0.5,0.488613225091263,0.488613225091263,0.5,0.533388278444401,0.488866636801784,0.5,0.5,0.5,0.554399088046761,0.531536474750511,0.468463525249489,0.554399088046761,0.488613225091263,0.198059901252938,0.800638704347385,0.445600911953239,0.010147914567079,0.5,0.022773549817474,0.867116971340841,8.46007175374614,2.59244741317949,0.5,79.8818479215634
CBC_1112,CBC_1112_MSI_AV_v3_Vset5_Aset3_2024-09-06_17h07.21.236.csv,2,28,0,2,b,1,0,2,aud,A,27,1,0A,2A,1,0,z,2.31468479999967,0,1,0,0,2A,0A,A02,3.76120011569356,0.533388278444401,0.47748576746817,0.488613225091263,0.5,0.488613225091263,0.56454700261384,0.5,0.488613225091263,0.488613225091263,0.5,0.533388278444401,0.488866636801784,0.5,0.5,0.5,0.554399088046761,0.478094428825087,0.521905571174913,0.488613225091263,0.533388278444401,0.090573503695785,0.277340712082571,-0.488613225091263,-0.0111274576230925,0.5,0.022773549817474,0.867116971340841,8.46007175374614,2.59244741317949,0.5,79.8818479215634
CBC_1112,CBC_1112_MSI_AV_v3_Vset5_Aset3_2024-09-06_17h07.21.236.csv,2,29,1,3,z,0,1,0,aud,D,27,1,1D,3D,0,1,z,1.80973689999973,0,1,1,1,3D,1D,D13,3.09104245335832,0.533388278444401,0.47748576746817,0.47748576746817,0.5,0.488613225091263,0.56454700261384,0.5,0.488613225091263,0.488613225091263,0.5,0.533388278444401,0.488866636801784,0.5,0.5,0.5,0.554399088046761,0.525796251468471,0.474203748531529,0.554399088046761,0.5,0.372301316551772,0.756369124700619,0.445600911953239,0.010147914567079,0.5,0.022773549817474,0.867116971340841,8.46007175374614,2.59244741317949,0.5,79.8818479215634
CBC_1112,CBC_1112_MSI_AV_v3_Vset5_Aset3_2024-09-06_17h07.21.236.csv,2,30,1,0,z,0,1,2,aud,A,63,1,1A,0A,0,1,z,1.7562685999992,0,1,1,1,0A,1A,A10,3.11351530921037,0.533388278444401,0.47748576746817,0.47748576746817,0.5,0.488613225091263,0.56454700261384,0.5,0.488613225091263,0.488613225091263,0.5,0.533388278444401,0.488866636801784,0.5,0.5,0.5,0.56454700261384,0.527650581792197,0.472349418207802,0.533388278444401,0.47748576746817,0.398825515919756,0.771478424759507,0.466611721555599,0.0106264052862638,0.5,0.022773549817474,0.867116971340841,8.46007175374614,2.59244741317949,0.5,79.8818479215634
CBC_1112,CBC_1112_MSI_AV_v3_Vset5_Aset3_2024-09-06_17h07.21.236.csv,2,31,2,0,b,1,0,1,aud,C,27,1,2C,0C,1,0,z,3.04485879999902,0,1,0,0,0C,2C,C20,3.8286413964891,0.544014683730665,0.47748576746817,0.47748576746817,0.5,0.488613225091263,0.56454700261384,0.5,0.488613225091263,0.488613225091263,0.5,0.533388278444401,0.488866636801784,0.5,0.5,0.5,0.56454700261384,0.478094428825087,0.521905571174913,0.488613225091263,0.533388278444401,0.0501966005971257,0.276143043779779,-0.488613225091263,-0.0111274576230925,0.5,0.022773549817474,0.867116971340841,8.46007175374614,2.59244741317949,0.5,79.8818479215634
CBC_1112,CBC_1112_MSI_AV_v3_Vset5_Aset3_2024-09-06_17h07.21.236.csv,2,32,2,3,z,0,1,0,aud,D,63,1,2D,3D,0,1,z,1.07317890000013,0,1,1,1,3D,2D,D23,3.15700042115011,0.544014683730665,0.47748576746817,0.47748576746817,0.5,0.488613225091263,0.56454700261384,0.5,0.488613225091263,0.47748576746817,0.5,0.533388278444401,0.488866636801784,0.5,0.5,0.5,0.56454700261384,0.530316652273387,0.469683347726613,0.56454700261384,0.5,0.177426629358134,0.790824347038744,0.43545299738616,0.00991681052914211,0.5,0.022773549817474,0.867116971340841,8.46007175374614,2.59244741317949,0.5,79.8818479215634
CBC_1112,CBC_1112_MSI_AV_v3_Vset5_Aset3_2024-09-06_17h07.21.236.csv,2,33,1,0,b,1,0,3,aud,B,63,1,1B,0B,1,0,b,1.58368369999971,1,0,1,1,1B,0B,B10,2.77258872223978,0.544014683730665,0.47748576746817,0.47748576746817,0.5,0.488613225091263,0.56454700261384,0.5,0.488613225091263,0.47748576746817,0.5,0.533388278444401,0.488866636801784,0.5,0.5,0.5,0.574463813142982,0.536050439204318,0.463949560795682,0.56454700261384,0.488613225091263,0.509102912961004,0.82928203730677,0.43545299738616,0.00991681052914211,0.5,0.022773549817474,0.867116971340841,8.46007175374614,2.59244741317949,0.5,79.8818479215634
CBC_1112,CBC_1112_MSI_AV_v3_Vset5_Aset3_2024-09-06_17h07.21.236.csv,2,34,0,1,b,1,0,2,aud,A,63,1,0A,1A,1,0,b,2.87354309999955,1,0,1,1,0A,1A,A01,2.50552593699074,0.544014683730665,0.47748576746817,0.47748576746817,0.5,0.488613225091263,0.574463813142982,0.5,0.488613225091263,0.47748576746817,0.5,0.533388278444401,0.488866636801784,0.5,0.5,0.5,0.574463813142982,0.532564310756993,0.467435689243007,0.544014683730665,0.47748576746817,0.161366569043763,0.806693104256094,0.455985316269335,0.0103844043160964,0.5,0.022773549817474,0.867116971340841,8.46007175374614,2.59244741317949,0.5,79.8818479215634
CBC_1112,CBC_1112_MSI_AV_v3_Vset5_Aset3_2024-09-06_17h07.21.236.csv,2,35,2,3,z,0,1,0,aud,D,63,0,2D,3D,1,0,z,2.44058749999931,0,1,1,0,3D,2D,D23,2.81341071676004,0.554399088046761,0.47748576746817,0.47748576746817,0.5,0.488613225091263,0.574463813142982,0.5,0.488613225091263,0.47748576746817,0.5,0.533388278444401,0.488866636801784,0.5,0.5,0.5,0.574463813142982,0.534651615174067,0.465348384825933,0.574463813142982,0.5,0.239978107906369,0.819875586997994,-0.574463813142982,-0.0130825802669478,0.5,0.022773549817474,0.867116971340841,8.46007175374614,2.59244741317949,0.5,79.8818479215634
CBC_1112,CBC_1112_MSI_AV_v3_Vset5_Aset3_2024-09-06_17h07.21.236.csv,2,36,2,0,b,1,0,1,aud,C,27,1,2C,0C,1,0,b,2.73457079999935,1,0,1,1,2C,0C,C20,3.23867845216438,0.554399088046761,0.47748576746817,0.47748576746817,0.5,0.488613225091263,0.574463813142982,0.5,0.488613225091263,0.47748576746817,0.5,0.533388278444401,0.488866636801784,0.5,0.5,0.5,0.561381232876034,0.527650581792197,0.472349418207802,0.533388278444401,0.47748576746817,0.17730673585837,0.770578190675934,0.466611721555599,0.0106264052862638,0.5,0.022773549817474,0.867116971340841,8.46007175374614,2.59244741317949,0.5,79.8818479215634
CBC_1112,CBC_1112_MSI_AV_v3_Vset5_Aset3_2024-09-06_17h07.21.236.csv,2,37,0,1,b,1,0,2,aud,A,63,1,0A,1A,1,0,z,1.75650080000014,0,1,0,0,1A,0A,A01,2.34180580614733,0.554399088046761,0.47748576746817,0.47748576746817,0.5,0.488613225091263,0.574463813142982,0.5,0.488613225091263,0.47748576746817,0.5,0.544014683730665,0.488866636801784,0.5,0.5,0.5,0.561381232876034,0.462731636108658,0.537268363891342,0.47748576746817,0.554399088046761,0.0887912264174618,0.16366351778814,-0.47748576746817,-0.0108740459125712,0.5,0.022773549817474,0.867116971340841,8.46007175374614,2.59244741317949,0.5,79.8818479215634
CBC_1112,CBC_1112_MSI_AV_v3_Vset5_Aset3_2024-09-06_17h07.21.236.csv,2,38,1,3,b,1,0,3,aud,B,27,1,1B,3B,1,0,b,2.4083458999994,1,0,1,1,1B,3B,B13,3.27714473299218,0.554399088046761,0.466611721555599,0.47748576746817,0.5,0.488613225091263,0.574463813142982,0.5,0.488613225091263,0.47748576746817,0.5,0.544014683730665,0.488866636801784,0.5,0.5,0.5,0.561381232876034,0.540378347459332,0.459621652540668,0.574463813142982,0.488613225091263,0.254901454646283,0.854237376130507,0.425536186857018,0.00969096955052624,0.5,0.022773549817474,0.867116971340841,8.46007175374614,2.59244741317949,0.5,79.8818479215634
CBC_1112,CBC_1112_MSI_AV_v3_Vset5_Aset3_2024-09-06_17h07.21.236.csv,2,39,3,2,z,0,1,1,aud,C,63,1,3C,2C,0,1,z,4.10001669999929,0,1,1,1,2C,3C,C32,2.60268968544438,0.554399088046761,0.466611721555599,0.47748576746817,0.5,0.488613225091263,0.584154782693508,0.5,0.488613225091263,0.47748576746817,0.5,0.544014683730665,0.488866636801784,0.5,0.5,0.5,0.561381232876034,0.526696216609112,0.473303783390888,0.544014683730665,0.488866636801784,0.0562031305691769,0.763931212192045,0.455985316269335,0.0103844043160964,0.5,0.022773549817474,0.867116971340841,8.46007175374614,2.59244741317949,0.5,79.8818479215634
CBC_1112,CBC_1112_MSI_AV_v3_Vset5_Aset3_2024-09-06_17h07.21.236.csv,2,40,3,2,b,1,0,0,aud,D,63,1,3D,2D,1,0,b,1.94133459999921,1,0,1,1,3D,2D,D32,2.62103882411258,0.554399088046761,0.466611721555599,0.47748576746817,0.5,0.488613225091263,0.584154782693508,0.5,0.488613225091263,0.47748576746817,0.5,0.554399088046761,0.488866636801784,0.5,0.5,0.5,0.561381232876034,0.528915733091355,0.471084266908645,0.561381232876034,0.5,0.350582608179282,0.780995643078822,0.438618767123966,0.00998890634397668,0.5,0.022773549817474,0.867116971340841,8.46007175374614,2.59244741317949,0.5,79.8818479215634
CBC_1112,CBC_1112_MSI_AV_v3_Vset5_Aset3_2024-09-06_17h07.21.236.csv,2,41,0,1,z,0,1,3,aud,B,63,1,0B,1B,0,1,z,2.11716419999902,0,1,1,1,1B,0B,B01,2.63905732961526,0.554399088046761,0.466611721555599,0.47748576746817,0.5,0.488613225091263,0.584154782693508,0.5,0.488613225091263,0.47748576746817,0.5,0.554399088046761,0.488866636801784,0.5,0.5,0.5,0.571370139220011,0.544530390964741,0.455469609035259,0.584154782693508,0.488613225091263,0.346638616157253,0.874996676210166,0.415845217306492,0.00947027177268771,0.5,0.022773549817474,0.867116971340841,8.46007175374614,2.59244741317949,0.5,79.8818479215634
CBC_1112,CBC_1112_MSI_AV_v3_Vset5_Aset3_2024-09-06_17h07.21.236.csv,2,42,2,0,z,0,1,2,aud,A,27,1,2A,0A,0,1,z,2.54232179999963,0,1,1,1,0A,2A,A20,3.3499040872746,0.554399088046761,0.466611721555599,0.47748576746817,0.5,0.488613225091263,0.593625054466196,0.5,0.488613225091263,0.47748576746817,0.5,0.554399088046761,0.488866636801784,0.5,0.5,0.5,0.571370139220011,0.537268363891342,0.462731636108658,0.554399088046761,0.47748576746817,0.221728756329702,0.836898526635774,0.445600911953239,0.010147914567079,0.5,0.022773549817474,0.867116971340841,8.46007175374614,2.59244741317949,0.5,79.8818479215634
CBC_1112,CBC_1112_MSI_AV_v3_Vset5_Aset3_2024-09-06_17h07.21.236.csv,2,43,3,0,b,1,0,0,aud,D,9,1,3D,0D,1,0,z,3.50715799999944,0,1,0,0,0D,3D,D30,4.06044301054642,0.56454700261384,0.466611721555599,0.47748576746817,0.5,0.488613225091263,0.593625054466196,0.5,0.488613225091263,0.47748576746817,0.5,0.554399088046761,0.488866636801784,0.5,0.5,0.5,0.571370139220011,0.46669211852779,0.53330788147221,0.5,0.571370139220011,0.0213540635550367,0.188624611892294,-0.5,-0.011386774908737,0.5,0.022773549817474,0.867116971340841,8.46007175374614,2.59244741317949,0.5,79.8818479215634
CBC_1112,CBC_1112_MSI_AV_v3_Vset5_Aset3_2024-09-06_17h07.21.236.csv,2,44,3,2,z,0,1,1,aud,C,63,1,3C,2C,0,1,z,1.36432609999974,0,1,1,1,2C,3C,C32,2.46809953147162,0.56454700261384,0.466611721555599,0.47748576746817,0.5,0.488613225091263,0.593625054466196,0.5,0.488613225091263,0.47748576746817,0.5,0.554399088046761,0.488866636801784,0.488613225091263,0.5,0.5,0.571370139220011,0.531407363284407,0.468592636715593,0.554399088046761,0.488866636801784,0.504275498450711,0.797701118624536,0.445600911953239,0.010147914567079,0.5,0.022773549817474,0.867116971340841,8.46007175374614,2.59244741317949,0.5,79.8818479215634
