ID,filename,session,trial,visStimLeft,visStimRight,correctKey,leftCorrect,rightCorrect,secondStim,mod2Type,mod2Stim,frequency,rewardAccurate,stimPairLeft,stimPairRight,pCorrectLeft,pCorrectRight,key,reactionTime,choiceLeft,choiceRight,choiceAccurate,reward,chosenPair,otherPair,triplet,surprise,0A belief,1A belief,2A belief,3A belief,0B belief,1B belief,2B belief,3B belief,0C belief,1C belief,2C belief,3C belief,0D belief,1D belief,2D belief,3D belief,beliefPairNorm,beliefOtherPairNorm,beliefPair,beliefOtherPair,lik,corrLik,rewardPE,update2,fitCBCsimpleRW_CBCdriftDiffusionLR_startBelief,fitCBCsimpleRW_CBCdriftDiffusionLR_alpha1,fitCBCsimpleRW_CBCdriftDiffusionLR_nonDecisionTime,fitCBCsimpleRW_CBCdriftDiffusionLR_weight,fitCBCsimpleRW_CBCdriftDiffusionLR_startingBoundary,fitCBCsimpleRW_CBCdriftDiffusionLR_startingPoint,fit_CBCsimpleRW_CBCdriftDiffusionLR_NLL
CBC_1040,CBC_1040_MSI_TV_v3_Vset6_Tset2_2023-12-20_15h38.50.725.csv,1,1,1,0,b,1,0,3,tac,B,63,1,1B,0B,1,0,b,2.79829640000025,1,0,1,1,1B,0B,B10,2.77258872223978,0.5,0.5,0.5,0.5,0.5,0.5,0.5,0.5,0.5,0.5,0.5,0.5,0.5,0.5,0.5,0.5,0.5,0.5,0.5,0.5,0.136972715778599,0.501495155538853,0.5,0.0104573354243059,0.5,0.0209146708486118,1.09474694757652,14.9881128352775,3.04347684512945,0.5,70.2638724845306
CBC_1040,CBC_1040_MSI_TV_v3_Vset6_Tset2_2023-12-20_15h38.50.725.csv,1,2,0,1,b,1,0,2,tac,A,63,1,0A,1A,1,0,b,2.28107699999964,1,0,1,1,0A,1A,A01,2.83321334405622,0.5,0.5,0.5,0.5,0.5,0.510457335424306,0.5,0.5,0.5,0.5,0.5,0.5,0.5,0.5,0.5,0.5,0.5,0.5,0.5,0.5,0.176744988036222,0.499771495274562,0.5,0.0104573354243059,0.5,0.0209146708486118,1.09474694757652,14.9881128352775,3.04347684512945,0.5,70.2638724845306
CBC_1040,CBC_1040_MSI_TV_v3_Vset6_Tset2_2023-12-20_15h38.50.725.csv,1,3,1,2,z,0,1,1,tac,C,9,1,1C,2C,0,1,b,2.80171150000024,1,0,0,0,1C,2C,C12,2.89037175789616,0.510457335424306,0.5,0.5,0.5,0.5,0.510457335424306,0.5,0.5,0.5,0.5,0.5,0.5,0.5,0.5,0.5,0.5,0.5,0.5,0.5,0.5,0.136496003282501,0.500645061718748,-0.5,-0.0104573354243059,0.5,0.0209146708486118,1.09474694757652,14.9881128352775,3.04347684512945,0.5,70.2638724845306
CBC_1040,CBC_1040_MSI_TV_v3_Vset6_Tset2_2023-12-20_15h38.50.725.csv,1,4,1,0,z,0,1,2,tac,A,63,1,1A,0A,0,1,b,2.37412020000011,1,0,0,0,1A,0A,A10,2.94443897916644,0.510457335424306,0.5,0.5,0.5,0.5,0.510457335424306,0.5,0.5,0.5,0.489542664575694,0.5,0.5,0.5,0.5,0.5,0.5,0.494825444351931,0.505174555648069,0.5,0.510457335424306,0.131771230257865,0.384352705355031,-0.5,-0.0104573354243059,0.5,0.0209146708486118,1.09474694757652,14.9881128352775,3.04347684512945,0.5,70.2638724845306
CBC_1040,CBC_1040_MSI_TV_v3_Vset6_Tset2_2023-12-20_15h38.50.725.csv,1,5,3,1,b,1,0,0,tac,D,27,1,3D,1D,1,0,b,2.85661749999963,1,0,1,1,3D,1D,D31,2.99573227355399,0.510457335424306,0.489542664575694,0.5,0.5,0.5,0.510457335424306,0.5,0.5,0.5,0.489542664575694,0.5,0.5,0.5,0.5,0.5,0.5,0.5,0.5,0.5,0.5,0.13223754159383,0.499206157210559,0.5,0.0104573354243059,0.5,0.0209146708486118,1.09474694757652,14.9881128352775,3.04347684512945,0.5,70.2638724845306
CBC_1040,CBC_1040_MSI_TV_v3_Vset6_Tset2_2023-12-20_15h38.50.725.csv,1,6,0,1,z,0,1,3,tac,B,63,1,0B,1B,0,1,z,2.62301289999959,0,1,1,1,1B,0B,B01,3.04452243772342,0.510457335424306,0.489542664575694,0.5,0.5,0.5,0.510457335424306,0.5,0.5,0.5,0.489542664575694,0.5,0.5,0.5,0.5,0.5,0.510457335424306,0.505174555648069,0.494825444351931,0.510457335424306,0.5,0.185724077418865,0.615191157817272,0.489542664575694,0.010238623695953,0.5,0.0209146708486118,1.09474694757652,14.9881128352775,3.04347684512945,0.5,70.2638724845306
CBC_1040,CBC_1040_MSI_TV_v3_Vset6_Tset2_2023-12-20_15h38.50.725.csv,1,7,2,3,b,1,0,1,tac,C,63,1,2C,3C,1,0,b,3.39026529999956,1,0,1,1,2C,3C,C23,3.09104245335832,0.510457335424306,0.489542664575694,0.5,0.5,0.5,0.520695959120259,0.5,0.5,0.5,0.489542664575694,0.5,0.5,0.5,0.5,0.5,0.510457335424306,0.5,0.5,0.5,0.5,0.0998259249947644,0.500034049239999,0.5,0.0104573354243059,0.5,0.0209146708486118,1.09474694757652,14.9881128352775,3.04347684512945,0.5,70.2638724845306
CBC_1040,CBC_1040_MSI_TV_v3_Vset6_Tset2_2023-12-20_15h38.50.725.csv,1,8,2,0,z,0,1,2,tac,A,27,1,2A,0A,0,1,z,2.31684959999984,0,1,1,1,0A,2A,A20,3.13549421592915,0.510457335424306,0.489542664575694,0.5,0.5,0.5,0.520695959120259,0.5,0.5,0.5,0.489542664575694,0.510457335424306,0.5,0.5,0.5,0.5,0.510457335424306,0.505174555648069,0.494825444351931,0.510457335424306,0.5,0.217691114371468,0.617433632400643,0.489542664575694,0.010238623695953,0.5,0.0209146708486118,1.09474694757652,14.9881128352775,3.04347684512945,0.5,70.2638724845306
CBC_1040,CBC_1040_MSI_TV_v3_Vset6_Tset2_2023-12-20_15h38.50.725.csv,1,9,3,2,b,1,0,0,tac,D,63,1,3D,2D,1,0,b,2.69909339999958,1,0,1,1,3D,2D,D32,3.17805383034795,0.520695959120259,0.489542664575694,0.5,0.5,0.5,0.520695959120259,0.5,0.5,0.5,0.489542664575694,0.510457335424306,0.5,0.5,0.5,0.5,0.510457335424306,0.505174555648069,0.494825444351931,0.510457335424306,0.5,0.178254976701284,0.614712061763213,0.489542664575694,0.010238623695953,0.5,0.0209146708486118,1.09474694757652,14.9881128352775,3.04347684512945,0.5,70.2638724845306
CBC_1040,CBC_1040_MSI_TV_v3_Vset6_Tset2_2023-12-20_15h38.50.725.csv,1,10,3,1,z,0,1,3,tac,B,27,1,3B,1B,0,1,z,2.48002960000031,0,1,1,1,1B,3B,B31,3.2188758248682,0.520695959120259,0.489542664575694,0.5,0.5,0.5,0.520695959120259,0.5,0.5,0.5,0.489542664575694,0.510457335424306,0.5,0.5,0.5,0.5,0.520695959120259,0.510138160602741,0.48986183939726,0.520695959120259,0.5,0.239660790476085,0.716318075389405,0.479304040879741,0.0100244862514093,0.5,0.0209146708486118,1.09474694757652,14.9881128352775,3.04347684512945,0.5,70.2638724845306
CBC_1040,CBC_1040_MSI_TV_v3_Vset6_Tset2_2023-12-20_15h38.50.725.csv,1,11,3,2,z,0,1,1,tac,C,63,0,3C,2C,1,0,b,2.69717519999995,1,0,0,1,3C,2C,C32,3.25809653802148,0.520695959120259,0.489542664575694,0.5,0.5,0.5,0.530720445371668,0.5,0.5,0.5,0.489542664575694,0.510457335424306,0.5,0.5,0.5,0.5,0.520695959120259,0.494825444351931,0.505174555648069,0.5,0.510457335424306,0.111571813947399,0.384309724689888,0.5,0.0104573354243059,0.5,0.0209146708486118,1.09474694757652,14.9881128352775,3.04347684512945,0.5,70.2638724845306
CBC_1040,CBC_1040_MSI_TV_v3_Vset6_Tset2_2023-12-20_15h38.50.725.csv,1,12,1,3,b,1,0,3,tac,B,27,1,1B,3B,1,0,b,2.47530239999924,1,0,1,1,1B,3B,B13,3.29583686600433,0.520695959120259,0.489542664575694,0.5,0.5,0.5,0.530720445371668,0.5,0.5,0.5,0.489542664575694,0.510457335424306,0.510457335424306,0.5,0.5,0.5,0.520695959120259,0.514902413893901,0.4850975861061,0.530720445371668,0.5,0.277051168749437,0.795454167623126,0.469279554628332,0.00981482742103468,0.5,0.0209146708486118,1.09474694757652,14.9881128352775,3.04347684512945,0.5,70.2638724845306
CBC_1040,CBC_1040_MSI_TV_v3_Vset6_Tset2_2023-12-20_15h38.50.725.csv,1,13,3,2,z,0,1,1,tac,C,63,1,3C,2C,0,1,b,3.08522999999968,1,0,0,0,3C,2C,C32,2.63905732961526,0.520695959120259,0.489542664575694,0.5,0.5,0.5,0.540535272792703,0.5,0.5,0.5,0.489542664575694,0.510457335424306,0.510457335424306,0.5,0.5,0.5,0.520695959120259,0.5,0.5,0.510457335424306,0.510457335424306,0.11723233137559,0.499370128465638,-0.510457335424306,-0.0106760471526588,0.5,0.0209146708486118,1.09474694757652,14.9881128352775,3.04347684512945,0.5,70.2638724845306
CBC_1040,CBC_1040_MSI_TV_v3_Vset6_Tset2_2023-12-20_15h38.50.725.csv,1,14,3,2,b,1,0,0,tac,D,63,1,3D,2D,1,0,b,2.59979620000013,1,0,1,1,3D,2D,D32,2.67414864942653,0.520695959120259,0.489542664575694,0.5,0.5,0.5,0.540535272792703,0.5,0.5,0.5,0.489542664575694,0.510457335424306,0.499781288271647,0.5,0.5,0.5,0.520695959120259,0.510138160602741,0.48986183939726,0.520695959120259,0.5,0.224094430790625,0.71568028343668,0.479304040879741,0.0100244862514093,0.5,0.0209146708486118,1.09474694757652,14.9881128352775,3.04347684512945,0.5,70.2638724845306
CBC_1040,CBC_1040_MSI_TV_v3_Vset6_Tset2_2023-12-20_15h38.50.725.csv,1,15,0,3,b,1,0,2,tac,A,9,1,0A,3A,1,0,b,2.453289699999,1,0,1,1,0A,3A,A03,3.40119738166216,0.520695959120259,0.489542664575694,0.5,0.5,0.5,0.540535272792703,0.5,0.5,0.5,0.489542664575694,0.510457335424306,0.499781288271647,0.5,0.5,0.5,0.530720445371668,0.510138160602741,0.48986183939726,0.520695959120259,0.5,0.242308944164112,0.714365380463862,0.479304040879741,0.0100244862514093,0.5,0.0209146708486118,1.09474694757652,14.9881128352775,3.04347684512945,0.5,70.2638724845306
CBC_1040,CBC_1040_MSI_TV_v3_Vset6_Tset2_2023-12-20_15h38.50.725.csv,1,16,0,1,z,0,1,3,tac,B,63,0,0B,1B,1,0,z,2.48556809999991,0,1,1,0,1B,0B,B01,2.7408400239252,0.530720445371668,0.489542664575694,0.5,0.5,0.5,0.540535272792703,0.5,0.5,0.5,0.489542664575694,0.510457335424306,0.499781288271647,0.5,0.5,0.5,0.530720445371668,0.519478086833092,0.480521913166908,0.540535272792703,0.5,0.30747715021841,0.855051379063021,-0.540535272792703,-0.0113051173125239,0.5,0.0209146708486118,1.09474694757652,14.9881128352775,3.04347684512945,0.5,70.2638724845306
CBC_1040,CBC_1040_MSI_TV_v3_Vset6_Tset2_2023-12-20_15h38.50.725.csv,1,17,2,3,z,0,1,0,tac,D,63,1,2D,3D,0,1,b,2.60753320000003,1,0,0,0,2D,3D,D23,3.46573590279973,0.530720445371668,0.489542664575694,0.5,0.5,0.5,0.529230155480179,0.5,0.5,0.5,0.489542664575694,0.510457335424306,0.499781288271647,0.5,0.5,0.5,0.530720445371668,0.4850975861061,0.514902413893901,0.5,0.530720445371668,0.0658491493048281,0.2048338057303,-0.5,-0.0104573354243059,0.5,0.0209146708486118,1.09474694757652,14.9881128352775,3.04347684512945,0.5,70.2638724845306
CBC_1040,CBC_1040_MSI_TV_v3_Vset6_Tset2_2023-12-20_15h38.50.725.csv,1,18,0,2,z,0,1,1,tac,C,27,1,0C,2C,0,1,z,2.49061689999962,0,1,1,1,2C,0C,C02,3.49650756146648,0.530720445371668,0.489542664575694,0.5,0.5,0.5,0.529230155480179,0.5,0.5,0.5,0.489542664575694,0.510457335424306,0.499781288271647,0.5,0.5,0.489542664575694,0.530720445371668,0.505174555648069,0.494825444351931,0.510457335424306,0.5,0.198854443644294,0.614968992454986,0.489542664575694,0.010238623695953,0.5,0.0209146708486118,1.09474694757652,14.9881128352775,3.04347684512945,0.5,70.2638724845306
CBC_1040,CBC_1040_MSI_TV_v3_Vset6_Tset2_2023-12-20_15h38.50.725.csv,1,19,0,1,b,1,0,2,tac,A,63,1,0A,1A,1,0,b,2.77496189999965,1,0,1,1,0A,1A,A01,2.83321334405622,0.530720445371668,0.489542664575694,0.5,0.5,0.5,0.529230155480179,0.5,0.5,0.5,0.489542664575694,0.520695959120259,0.499781288271647,0.5,0.5,0.489542664575694,0.530720445371668,0.520179981219795,0.479820018780205,0.530720445371668,0.489542664575694,0.255272201286036,0.863226377184223,0.469279554628332,0.00981482742103468,0.5,0.0209146708486118,1.09474694757652,14.9881128352775,3.04347684512945,0.5,70.2638724845306
CBC_1040,CBC_1040_MSI_TV_v3_Vset6_Tset2_2023-12-20_15h38.50.725.csv,1,20,1,0,b,1,0,3,tac,B,63,1,1B,0B,1,0,z,2.84515699999974,0,1,0,0,0B,1B,B10,2.86220088092947,0.540535272792703,0.489542664575694,0.5,0.5,0.5,0.529230155480179,0.5,0.5,0.5,0.489542664575694,0.520695959120259,0.499781288271647,0.5,0.5,0.489542664575694,0.530720445371668,0.485799990738446,0.514200009261554,0.5,0.529230155480179,0.0591955934883089,0.213785639900069,-0.5,-0.0104573354243059,0.5,0.0209146708486118,1.09474694757652,14.9881128352775,3.04347684512945,0.5,70.2638724845306
CBC_1040,CBC_1040_MSI_TV_v3_Vset6_Tset2_2023-12-20_15h38.50.725.csv,1,21,1,3,z,0,1,0,tac,D,27,1,1D,3D,0,1,z,3.29680170000029,0,1,1,1,3D,1D,D13,3.58351893845611,0.540535272792703,0.489542664575694,0.5,0.5,0.489542664575694,0.529230155480179,0.5,0.5,0.5,0.489542664575694,0.520695959120259,0.499781288271647,0.5,0.5,0.489542664575694,0.530720445371668,0.514902413893901,0.4850975861061,0.530720445371668,0.5,0.166368817909514,0.796673598312219,0.469279554628332,0.00981482742103468,0.5,0.0209146708486118,1.09474694757652,14.9881128352775,3.04347684512945,0.5,70.2638724845306
CBC_1040,CBC_1040_MSI_TV_v3_Vset6_Tset2_2023-12-20_15h38.50.725.csv,1,22,3,2,z,0,1,1,tac,C,63,1,3C,2C,0,1,b,2.6838386999998,1,0,0,0,3C,2C,C32,2.51230562397611,0.540535272792703,0.489542664575694,0.5,0.5,0.489542664575694,0.529230155480179,0.5,0.5,0.5,0.489542664575694,0.520695959120259,0.499781288271647,0.5,0.5,0.489542664575694,0.540535272792703,0.489752505064633,0.510247494935367,0.499781288271647,0.520695959120259,0.0844246023554368,0.282495908753036,-0.499781288271647,-0.0104527611404966,0.5,0.0209146708486118,1.09474694757652,14.9881128352775,3.04347684512945,0.5,70.2638724845306
CBC_1040,CBC_1040_MSI_TV_v3_Vset6_Tset2_2023-12-20_15h38.50.725.csv,1,23,0,1,b,1,0,2,tac,A,63,1,0A,1A,1,0,z,2.6844116000002,0,1,0,0,1A,0A,A01,2.53897387105828,0.540535272792703,0.489542664575694,0.5,0.5,0.489542664575694,0.529230155480179,0.5,0.5,0.5,0.489542664575694,0.520695959120259,0.48932852713115,0.5,0.5,0.489542664575694,0.540535272792703,0.47524817959538,0.52475182040462,0.489542664575694,0.540535272792703,0.0302795505203205,0.0947419081973064,-0.489542664575694,-0.010238623695953,0.5,0.0209146708486118,1.09474694757652,14.9881128352775,3.04347684512945,0.5,70.2638724845306
CBC_1040,CBC_1040_MSI_TV_v3_Vset6_Tset2_2023-12-20_15h38.50.725.csv,1,24,2,3,z,0,1,0,tac,D,63,1,2D,3D,0,1,b,2.5778851999994,1,0,0,0,2D,3D,D23,2.9704144655697,0.540535272792703,0.479304040879741,0.5,0.5,0.489542664575694,0.529230155480179,0.5,0.5,0.5,0.489542664575694,0.520695959120259,0.48932852713115,0.5,0.5,0.489542664575694,0.540535272792703,0.47524817959538,0.52475182040462,0.489542664575694,0.540535272792703,0.033032533995243,0.0950362006512273,-0.489542664575694,-0.010238623695953,0.5,0.0209146708486118,1.09474694757652,14.9881128352775,3.04347684512945,0.5,70.2638724845306
CBC_1040,CBC_1040_MSI_TV_v3_Vset6_Tset2_2023-12-20_15h38.50.725.csv,1,25,2,0,b,1,0,1,tac,C,27,1,2C,0C,1,0,b,2.3519223000003,1,0,1,1,2C,0C,C20,3.68887945411394,0.540535272792703,0.479304040879741,0.5,0.5,0.489542664575694,0.529230155480179,0.5,0.5,0.5,0.489542664575694,0.520695959120259,0.48932852713115,0.5,0.5,0.479304040879741,0.540535272792703,0.510138160602741,0.48986183939726,0.520695959120259,0.5,0.25641942474647,0.71600199864335,0.479304040879741,0.0100244862514093,0.5,0.0209146708486118,1.09474694757652,14.9881128352775,3.04347684512945,0.5,70.2638724845306
CBC_1040,CBC_1040_MSI_TV_v3_Vset6_Tset2_2023-12-20_15h38.50.725.csv,1,26,0,1,b,1,0,2,tac,A,63,1,0A,1A,1,0,b,2.44958079999924,1,0,1,1,0A,1A,A01,2.32727770558442,0.540535272792703,0.479304040879741,0.5,0.5,0.489542664575694,0.529230155480179,0.5,0.5,0.5,0.489542664575694,0.530720445371668,0.48932852713115,0.5,0.5,0.479304040879741,0.540535272792703,0.530020038986567,0.469979961013433,0.540535272792703,0.479304040879741,0.371091789683517,0.939450712321113,0.459464727207297,0.00960955353608781,0.5,0.0209146708486118,1.09474694757652,14.9881128352775,3.04347684512945,0.5,70.2638724845306
CBC_1040,CBC_1040_MSI_TV_v3_Vset6_Tset2_2023-12-20_15h38.50.725.csv,1,27,1,3,b,1,0,3,tac,B,27,1,1B,3B,1,0,b,2.55748159999985,1,0,1,1,1B,3B,B13,3.04452243772342,0.550144826328791,0.479304040879741,0.5,0.5,0.489542664575694,0.529230155480179,0.5,0.5,0.5,0.489542664575694,0.530720445371668,0.48932852713115,0.5,0.5,0.479304040879741,0.540535272792703,0.514200009261554,0.485799990738446,0.529230155480179,0.5,0.259000461381859,0.785245807575797,0.470769844519821,0.00984599634358419,0.5,0.0209146708486118,1.09474694757652,14.9881128352775,3.04347684512945,0.5,70.2638724845306
CBC_1040,CBC_1040_MSI_TV_v3_Vset6_Tset2_2023-12-20_15h38.50.725.csv,1,28,3,2,z,0,1,1,tac,C,63,1,3C,2C,0,1,z,2.09310119999918,0,1,1,1,2C,3C,C32,2.37490575457367,0.550144826328791,0.479304040879741,0.5,0.5,0.489542664575694,0.539076151823763,0.5,0.5,0.5,0.489542664575694,0.530720445371668,0.48932852713115,0.5,0.5,0.479304040879741,0.540535272792703,0.520289181870826,0.479710818129174,0.530720445371668,0.48932852713115,0.399557113295066,0.863615101559135,0.469279554628332,0.00981482742103468,0.5,0.0209146708486118,1.09474694757652,14.9881128352775,3.04347684512945,0.5,70.2638724845306
CBC_1040,CBC_1040_MSI_TV_v3_Vset6_Tset2_2023-12-20_15h38.50.725.csv,1,29,3,2,b,1,0,0,tac,D,63,0,3D,2D,0,1,b,2.40132549999998,1,0,1,0,3D,2D,D32,2.68557734525015,0.550144826328791,0.479304040879741,0.5,0.5,0.489542664575694,0.539076151823763,0.5,0.5,0.5,0.489542664575694,0.540535272792703,0.48932852713115,0.5,0.5,0.479304040879741,0.540535272792703,0.530020038986567,0.469979961013433,0.540535272792703,0.479304040879741,0.387182270111833,0.939102323715765,-0.540535272792703,-0.0113051173125239,0.5,0.0209146708486118,1.09474694757652,14.9881128352775,3.04347684512945,0.5,70.2638724845306
CBC_1040,CBC_1040_MSI_TV_v3_Vset6_Tset2_2023-12-20_15h38.50.725.csv,1,30,0,1,z,0,1,3,tac,B,63,1,0B,1B,0,1,z,2.71007599999939,0,1,1,1,1B,0B,B01,2.70805020110221,0.550144826328791,0.479304040879741,0.5,0.5,0.489542664575694,0.539076151823763,0.5,0.5,0.5,0.489542664575694,0.540535272792703,0.48932852713115,0.5,0.5,0.479304040879741,0.529230155480179,0.524077669229042,0.475922330770958,0.539076151823763,0.489542664575694,0.281579217702688,0.899946465830283,0.460923848176237,0.00964007057088149,0.5,0.0209146708486118,1.09474694757652,14.9881128352775,3.04347684512945,0.5,70.2638724845306
CBC_1040,CBC_1040_MSI_TV_v3_Vset6_Tset2_2023-12-20_15h38.50.725.csv,1,31,2,0,z,0,1,2,tac,A,27,1,2A,0A,0,1,z,2.36631599999964,0,1,1,1,0A,2A,A20,3.13549421592915,0.550144826328791,0.479304040879741,0.5,0.5,0.489542664575694,0.548716222394645,0.5,0.5,0.5,0.489542664575694,0.540535272792703,0.48932852713115,0.5,0.5,0.479304040879741,0.529230155480179,0.523875195626156,0.476124804373844,0.550144826328791,0.5,0.364843004533043,0.898437794189368,0.449855173671209,0.00940857288687842,0.5,0.0209146708486118,1.09474694757652,14.9881128352775,3.04347684512945,0.5,70.2638724845306
CBC_1040,CBC_1040_MSI_TV_v3_Vset6_Tset2_2023-12-20_15h38.50.725.csv,1,32,3,0,b,1,0,0,tac,D,9,1,3D,0D,1,0,b,2.35893170000054,1,0,1,1,3D,0D,D30,3.85014760171006,0.559553399215669,0.479304040879741,0.5,0.5,0.489542664575694,0.548716222394645,0.5,0.5,0.5,0.489542664575694,0.540535272792703,0.48932852713115,0.5,0.5,0.479304040879741,0.529230155480179,0.514200009261554,0.485799990738446,0.529230155480179,0.5,0.290350569408664,0.784395372116496,0.470769844519821,0.00984599634358419,0.5,0.0209146708486118,1.09474694757652,14.9881128352775,3.04347684512945,0.5,70.2638724845306
CBC_1040,CBC_1040_MSI_TV_v3_Vset6_Tset2_2023-12-20_15h38.50.725.csv,1,33,3,2,z,0,1,1,tac,C,63,1,3C,2C,0,1,z,2.67878989999917,0,1,1,1,2C,3C,C32,2.26176309847379,0.559553399215669,0.479304040879741,0.5,0.5,0.489542664575694,0.548716222394645,0.5,0.5,0.5,0.489542664575694,0.540535272792703,0.48932852713115,0.5,0.5,0.479304040879741,0.539076151823763,0.524860930962589,0.475139069037411,0.540535272792703,0.48932852713115,0.291091087546429,0.906499875693379,0.459464727207297,0.00960955353608781,0.5,0.0209146708486118,1.09474694757652,14.9881128352775,3.04347684512945,0.5,70.2638724845306
CBC_1040,CBC_1040_MSI_TV_v3_Vset6_Tset2_2023-12-20_15h38.50.725.csv,1,34,0,1,z,0,1,3,tac,B,63,1,0B,1B,0,1,z,1.44367869999951,0,1,1,1,1B,0B,B01,2.50552593699074,0.559553399215669,0.479304040879741,0.5,0.5,0.489542664575694,0.548716222394645,0.5,0.5,0.5,0.489542664575694,0.550144826328791,0.48932852713115,0.5,0.5,0.479304040879741,0.539076151823763,0.528496533264271,0.471503466735729,0.548716222394645,0.489542664575694,0.344253170838397,0.930696235350401,0.451283777605355,0.00943845166793412,0.5,0.0209146708486118,1.09474694757652,14.9881128352775,3.04347684512945,0.5,70.2638724845306
CBC_1040,CBC_1040_MSI_TV_v3_Vset6_Tset2_2023-12-20_15h38.50.725.csv,1,35,0,1,b,1,0,2,tac,A,63,0,0A,1A,0,1,b,2.87454829999933,1,0,1,0,0A,1A,A01,2.30258509299405,0.559553399215669,0.479304040879741,0.5,0.5,0.489542664575694,0.558154674062579,0.5,0.5,0.5,0.489542664575694,0.550144826328791,0.48932852713115,0.5,0.5,0.479304040879741,0.539076151823763,0.538623855034699,0.461376144965301,0.559553399215669,0.479304040879741,0.23177809953971,0.971345081601664,-0.559553399215669,-0.0117028751668176,0.5,0.0209146708486118,1.09474694757652,14.9881128352775,3.04347684512945,0.5,70.2638724845306
CBC_1040,CBC_1040_MSI_TV_v3_Vset6_Tset2_2023-12-20_15h38.50.725.csv,1,36,2,3,z,0,1,0,tac,D,63,1,2D,3D,0,1,z,2.45976339999925,0,1,1,1,3D,2D,D23,2.83321334405622,0.547850524048852,0.479304040879741,0.5,0.5,0.489542664575694,0.558154674062579,0.5,0.5,0.5,0.489542664575694,0.550144826328791,0.48932852713115,0.5,0.5,0.479304040879741,0.539076151823763,0.529346658238386,0.470653341761614,0.539076151823763,0.479304040879741,0.36541278296883,0.935807889664283,0.460923848176237,0.00964007057088149,0.5,0.0209146708486118,1.09474694757652,14.9881128352775,3.04347684512945,0.5,70.2638724845306
CBC_1040,CBC_1040_MSI_TV_v3_Vset6_Tset2_2023-12-20_15h38.50.725.csv,1,37,1,2,b,1,0,3,tac,B,9,1,1B,2B,1,0,b,2.48378589999902,1,0,1,1,1B,2B,B12,3.95124371858143,0.547850524048852,0.479304040879741,0.5,0.5,0.489542664575694,0.558154674062579,0.5,0.5,0.5,0.489542664575694,0.550144826328791,0.48932852713115,0.5,0.5,0.479304040879741,0.548716222394645,0.527479287994498,0.472520712005502,0.558154674062579,0.5,0.350755066188721,0.924330190603388,0.441845325937421,0.00924104955797875,0.5,0.0209146708486118,1.09474694757652,14.9881128352775,3.04347684512945,0.5,70.2638724845306
CBC_1040,CBC_1040_MSI_TV_v3_Vset6_Tset2_2023-12-20_15h38.50.725.csv,1,38,2,0,z,0,1,2,tac,A,27,1,2A,0A,0,1,z,2.99086499999976,0,1,1,1,0A,2A,A20,2.87167962488401,0.547850524048852,0.479304040879741,0.5,0.5,0.489542664575694,0.567395723620557,0.5,0.5,0.5,0.489542664575694,0.550144826328791,0.48932852713115,0.5,0.5,0.479304040879741,0.548716222394645,0.522832705119027,0.477167294880973,0.547850524048852,0.5,0.224279252608615,0.889374616684257,0.452149475951148,0.00945655746389057,0.5,0.0209146708486118,1.09474694757652,14.9881128352775,3.04347684512945,0.5,70.2638724845306
CBC_1040,CBC_1040_MSI_TV_v3_Vset6_Tset2_2023-12-20_15h38.50.725.csv,1,39,2,3,b,1,0,1,tac,C,63,1,2C,3C,1,0,b,2.27646019999975,1,0,1,1,2C,3C,C23,3.29583686600433,0.557307081512742,0.479304040879741,0.5,0.5,0.489542664575694,0.567395723620557,0.5,0.5,0.5,0.489542664575694,0.550144826328791,0.48932852713115,0.5,0.5,0.479304040879741,0.548716222394645,0.529253419048795,0.470746580951205,0.550144826328791,0.48932852713115,0.427198826615031,0.935139360444409,0.449855173671209,0.00940857288687842,0.5,0.0209146708486118,1.09474694757652,14.9881128352775,3.04347684512945,0.5,70.2638724845306
CBC_1040,CBC_1040_MSI_TV_v3_Vset6_Tset2_2023-12-20_15h38.50.725.csv,1,40,1,3,z,0,1,0,tac,D,27,1,1D,3D,0,1,z,2.35319319999962,0,1,1,1,3D,1D,D13,3.31418600467253,0.557307081512742,0.479304040879741,0.5,0.5,0.489542664575694,0.567395723620557,0.5,0.5,0.5,0.489542664575694,0.559553399215669,0.48932852713115,0.5,0.5,0.479304040879741,0.548716222394645,0.523226599033343,0.476773400966657,0.548716222394645,0.5,0.363573173107305,0.892561833239215,0.451283777605355,0.00943845166793412,0.5,0.0209146708486118,1.09474694757652,14.9881128352775,3.04347684512945,0.5,70.2638724845306
CBC_1040,CBC_1040_MSI_TV_v3_Vset6_Tset2_2023-12-20_15h38.50.725.csv,1,41,0,1,b,1,0,2,tac,A,63,1,0A,1A,1,0,b,2.61977489999936,1,0,1,1,0A,1A,A01,2.23359222150709,0.557307081512742,0.479304040879741,0.5,0.5,0.489542664575694,0.567395723620557,0.5,0.5,0.5,0.489542664575694,0.559553399215669,0.48932852713115,0.5,0.5,0.479304040879741,0.558154674062579,0.537624061206758,0.462375938793242,0.557307081512742,0.479304040879741,0.316055216519316,0.968668004893851,0.442692918487258,0.00925877667717231,0.5,0.0209146708486118,1.09474694757652,14.9881128352775,3.04347684512945,0.5,70.2638724845306
CBC_1040,CBC_1040_MSI_TV_v3_Vset6_Tset2_2023-12-20_15h38.50.725.csv,1,42,0,2,z,0,1,1,tac,C,27,1,0C,2C,0,1,z,2.55775449999965,0,1,1,1,2C,0C,C02,3.3499040872746,0.566565858189914,0.479304040879741,0.5,0.5,0.489542664575694,0.567395723620557,0.5,0.5,0.5,0.489542664575694,0.559553399215669,0.48932852713115,0.5,0.5,0.479304040879741,0.558154674062579,0.528103066471097,0.471896933528903,0.559553399215669,0.5,0.33153144089087,0.928323140934048,0.440446600784331,0.00921179568179419,0.5,0.0209146708486118,1.09474694757652,14.9881128352775,3.04347684512945,0.5,70.2638724845306
CBC_1040,CBC_1040_MSI_TV_v3_Vset6_Tset2_2023-12-20_15h38.50.725.csv,1,43,3,2,b,1,0,0,tac,D,63,1,3D,2D,1,0,b,2.55654549999963,1,0,1,1,3D,2D,D32,2.67414864942653,0.566565858189914,0.479304040879741,0.5,0.5,0.489542664575694,0.567395723620557,0.5,0.5,0.5,0.489542664575694,0.568765194897463,0.48932852713115,0.5,0.5,0.479304040879741,0.558154674062579,0.538001817348087,0.461998182651913,0.558154674062579,0.479304040879741,0.339298879756843,0.969684416176945,0.441845325937421,0.00924104955797875,0.5,0.0209146708486118,1.09474694757652,14.9881128352775,3.04347684512945,0.5,70.2638724845306
CBC_1040,CBC_1040_MSI_TV_v3_Vset6_Tset2_2023-12-20_15h38.50.725.csv,1,44,1,0,b,1,0,3,tac,B,63,1,1B,0B,1,0,b,2.35427290000007,1,0,1,1,1B,0B,B10,2.97892515523761,0.566565858189914,0.479304040879741,0.5,0.5,0.489542664575694,0.567395723620557,0.5,0.5,0.5,0.489542664575694,0.568765194897463,0.48932852713115,0.5,0.5,0.479304040879741,0.567395723620557,0.536829516230234,0.463170483769766,0.567395723620557,0.489542664575694,0.425693440011623,0.966362909016861,0.432604276379443,0.00904777604817791,0.5,0.0209146708486118,1.09474694757652,14.9881128352775,3.04347684512945,0.5,70.2638724845306
CBC_1040,CBC_1040_MSI_AV_v3_Vset5_Aset3_2023-12-20_15h47.19.244.csv,2,1,1,3,b,1,0,3,aud,B,27,1,1B,3B,1,0,b,2.52173049999965,1,0,1,1,1B,3B,B13,2.77258872223978,0.5,0.5,0.5,0.5,0.5,0.5,0.5,0.5,0.5,0.5,0.5,0.5,0.5,0.5,0.5,0.5,0.5,0.5,0.5,0.5,0.147033164732154,0.49984149159049,0.5,0.197680655237259,0.5,0.395361310474518,1.09329748795157,3.65971401044853,3.33415088038113,0.5,48.996203096358
CBC_1040,CBC_1040_MSI_AV_v3_Vset5_Aset3_2023-12-20_15h47.19.244.csv,2,2,3,2,z,0,1,1,aud,C,63,1,3C,2C,0,1,b,2.51725759999954,1,0,0,0,3C,2C,C32,2.83321334405622,0.5,0.5,0.5,0.5,0.5,0.697680655237259,0.5,0.5,0.5,0.5,0.5,0.5,0.5,0.5,0.5,0.5,0.5,0.5,0.5,0.5,0.147492229419524,0.500560844544538,-0.5,-0.197680655237259,0.5,0.395361310474518,1.09329748795157,3.65971401044853,3.33415088038113,0.5,48.996203096358
CBC_1040,CBC_1040_MSI_AV_v3_Vset5_Aset3_2023-12-20_15h47.19.244.csv,2,3,3,2,b,1,0,0,aud,D,63,1,3D,2D,1,0,b,2.49448869999924,1,0,1,1,3D,2D,D32,2.89037175789616,0.5,0.5,0.5,0.5,0.5,0.697680655237259,0.5,0.5,0.5,0.5,0.5,0.302319344762741,0.5,0.5,0.5,0.5,0.5,0.5,0.5,0.5,0.148501347307649,0.499736495176746,0.5,0.197680655237259,0.5,0.395361310474518,1.09329748795157,3.65971401044853,3.33415088038113,0.5,48.996203096358
CBC_1040,CBC_1040_MSI_AV_v3_Vset5_Aset3_2023-12-20_15h47.19.244.csv,2,4,0,1,z,0,1,3,aud,B,63,0,0B,1B,1,0,z,2.3679018999992,0,1,1,0,1B,0B,B01,2.94443897916644,0.5,0.5,0.5,0.5,0.5,0.697680655237259,0.5,0.5,0.5,0.5,0.5,0.302319344762741,0.5,0.5,0.5,0.697680655237259,0.582526445748637,0.417473554251363,0.697680655237259,0.5,0.336866353920215,0.882250258215364,-0.697680655237259,-0.275835938147323,0.5,0.395361310474518,1.09329748795157,3.65971401044853,3.33415088038113,0.5,48.996203096358
CBC_1040,CBC_1040_MSI_AV_v3_Vset5_Aset3_2023-12-20_15h47.19.244.csv,2,5,0,3,b,1,0,2,aud,A,9,1,0A,3A,1,0,b,2.33556439999938,1,0,1,1,0A,3A,A03,2.99573227355399,0.5,0.5,0.5,0.5,0.5,0.421844717089936,0.5,0.5,0.5,0.5,0.5,0.302319344762741,0.5,0.5,0.5,0.697680655237259,0.5,0.5,0.5,0.5,0.156738922964961,0.499533488251425,0.5,0.197680655237259,0.5,0.395361310474518,1.09329748795157,3.65971401044853,3.33415088038113,0.5,48.996203096358
CBC_1040,CBC_1040_MSI_AV_v3_Vset5_Aset3_2023-12-20_15h47.19.244.csv,2,6,3,2,b,1,0,0,aud,D,63,1,3D,2D,1,0,b,2.46220609999909,1,0,1,1,3D,2D,D32,2.35137525716348,0.697680655237259,0.5,0.5,0.5,0.5,0.421844717089936,0.5,0.5,0.5,0.5,0.5,0.302319344762741,0.5,0.5,0.5,0.697680655237259,0.582526445748637,0.417473554251363,0.697680655237259,0.5,0.320344558964723,0.881953517778447,0.302319344762741,0.119525372327195,0.5,0.395361310474518,1.09329748795157,3.65971401044853,3.33415088038113,0.5,48.996203096358
CBC_1040,CBC_1040_MSI_AV_v3_Vset5_Aset3_2023-12-20_15h47.19.244.csv,2,7,0,2,z,0,1,1,aud,C,27,1,0C,2C,0,1,z,2.3919335999999,0,1,1,1,2C,0C,C02,3.09104245335832,0.697680655237259,0.5,0.5,0.5,0.5,0.421844717089936,0.5,0.5,0.5,0.5,0.5,0.302319344762741,0.5,0.5,0.5,0.817206027564454,0.5,0.5,0.5,0.5,0.153949041877838,0.49965187117939,0.5,0.197680655237259,0.5,0.395361310474518,1.09329748795157,3.65971401044853,3.33415088038113,0.5,48.996203096358
CBC_1040,CBC_1040_MSI_AV_v3_Vset5_Aset3_2023-12-20_15h47.19.244.csv,2,8,0,1,b,1,0,2,aud,A,63,1,0A,1A,1,0,z,2.52353119999952,0,1,0,0,1A,0A,A01,3.13549421592915,0.697680655237259,0.5,0.5,0.5,0.5,0.421844717089936,0.5,0.5,0.5,0.5,0.697680655237259,0.302319344762741,0.5,0.5,0.5,0.817206027564454,0.417473554251363,0.582526445748637,0.5,0.697680655237259,0.0412029182230504,0.117214153971438,-0.5,-0.197680655237259,0.5,0.395361310474518,1.09329748795157,3.65971401044853,3.33415088038113,0.5,48.996203096358
CBC_1040,CBC_1040_MSI_AV_v3_Vset5_Aset3_2023-12-20_15h47.19.244.csv,2,9,1,0,b,1,0,3,aud,B,63,1,1B,0B,1,0,b,2.52642619999915,1,0,1,1,1B,0B,B10,3.17805383034795,0.697680655237259,0.302319344762741,0.5,0.5,0.5,0.421844717089936,0.5,0.5,0.5,0.5,0.697680655237259,0.302319344762741,0.5,0.5,0.5,0.817206027564454,0.457609301511873,0.542390698488127,0.421844717089936,0.5,0.0821120705958658,0.263778085067867,0.578155282910064,0.228580230309089,0.5,0.395361310474518,1.09329748795157,3.65971401044853,3.33415088038113,0.5,48.996203096358
CBC_1040,CBC_1040_MSI_AV_v3_Vset5_Aset3_2023-12-20_15h47.19.244.csv,2,10,1,3,z,0,1,0,aud,D,27,1,1D,3D,0,1,z,1.81410739999865,0,1,1,1,3D,1D,D13,3.2188758248682,0.697680655237259,0.302319344762741,0.5,0.5,0.5,0.650424947399024,0.5,0.5,0.5,0.5,0.697680655237259,0.302319344762741,0.5,0.5,0.5,0.817206027564454,0.620408660804178,0.379591339195822,0.817206027564454,0.5,0.51924296534539,0.949701657896103,0.182793972435546,0.0722696644889605,0.5,0.395361310474518,1.09329748795157,3.65971401044853,3.33415088038113,0.5,48.996203096358
CBC_1040,CBC_1040_MSI_AV_v3_Vset5_Aset3_2023-12-20_15h47.19.244.csv,2,11,3,2,z,0,1,1,aud,C,63,1,3C,2C,0,1,z,2.41566709999915,0,1,1,1,2C,3C,C32,2.56494935746154,0.697680655237259,0.302319344762741,0.5,0.5,0.5,0.650424947399024,0.5,0.5,0.5,0.5,0.697680655237259,0.302319344762741,0.5,0.5,0.5,0.889475692053414,0.697680655237259,0.302319344762741,0.697680655237259,0.302319344762741,0.427266168371881,0.992003141935569,0.302319344762741,0.119525372327195,0.5,0.395361310474518,1.09329748795157,3.65971401044853,3.33415088038113,0.5,48.996203096358
CBC_1040,CBC_1040_MSI_AV_v3_Vset5_Aset3_2023-12-20_15h47.19.244.csv,2,12,1,0,b,1,0,3,aud,B,63,1,1B,0B,1,0,b,2.40647819999867,1,0,1,1,1B,0B,B10,2.60268968544438,0.697680655237259,0.302319344762741,0.5,0.5,0.5,0.650424947399024,0.5,0.5,0.5,0.5,0.817206027564454,0.302319344762741,0.5,0.5,0.5,0.889475692053414,0.565377992601394,0.434622007398606,0.650424947399024,0.5,0.293017139080993,0.831582072177282,0.349575052600976,0.13820845090552,0.5,0.395361310474518,1.09329748795157,3.65971401044853,3.33415088038113,0.5,48.996203096358
CBC_1040,CBC_1040_MSI_AV_v3_Vset5_Aset3_2023-12-20_15h47.19.244.csv,2,13,0,1,b,1,0,2,aud,A,63,1,0A,1A,1,0,b,2.33107879999898,1,0,1,1,0A,1A,A01,2.63905732961526,0.697680655237259,0.302319344762741,0.5,0.5,0.5,0.788633398304545,0.5,0.5,0.5,0.5,0.817206027564454,0.302319344762741,0.5,0.5,0.5,0.889475692053414,0.697680655237259,0.302319344762741,0.697680655237259,0.302319344762741,0.47979678063822,0.992024225001965,0.302319344762741,0.119525372327195,0.5,0.395361310474518,1.09329748795157,3.65971401044853,3.33415088038113,0.5,48.996203096358
CBC_1040,CBC_1040_MSI_AV_v3_Vset5_Aset3_2023-12-20_15h47.19.244.csv,2,14,1,2,z,0,1,1,aud,C,9,1,1C,2C,0,1,z,2.44466899999952,0,1,1,1,2C,1C,C12,3.36729582998647,0.817206027564454,0.302319344762741,0.5,0.5,0.5,0.788633398304545,0.5,0.5,0.5,0.5,0.817206027564454,0.302319344762741,0.5,0.5,0.5,0.889475692053414,0.620408660804178,0.379591339195822,0.817206027564454,0.5,0.388967034685541,0.94969880061585,0.182793972435546,0.0722696644889605,0.5,0.395361310474518,1.09329748795157,3.65971401044853,3.33415088038113,0.5,48.996203096358
CBC_1040,CBC_1040_MSI_AV_v3_Vset5_Aset3_2023-12-20_15h47.19.244.csv,2,15,1,0,z,0,1,2,aud,A,63,1,1A,0A,0,1,z,2.29067009999926,0,1,1,1,0A,1A,A10,3.40119738166216,0.817206027564454,0.302319344762741,0.5,0.5,0.5,0.788633398304545,0.5,0.5,0.5,0.5,0.889475692053414,0.302319344762741,0.5,0.5,0.5,0.889475692053414,0.729957576455548,0.270042423544452,0.817206027564454,0.302319344762741,0.482181755388811,0.996374329199745,0.182793972435546,0.0722696644889605,0.5,0.395361310474518,1.09329748795157,3.65971401044853,3.33415088038113,0.5,48.996203096358
CBC_1040,CBC_1040_MSI_AV_v3_Vset5_Aset3_2023-12-20_15h47.19.244.csv,2,16,3,1,b,1,0,0,aud,D,27,1,3D,1D,1,0,b,1.64752379999936,1,0,1,1,3D,1D,D31,3.43398720448515,0.889475692053414,0.302319344762741,0.5,0.5,0.5,0.788633398304545,0.5,0.5,0.5,0.5,0.889475692053414,0.302319344762741,0.5,0.5,0.5,0.889475692053414,0.640152035145658,0.359847964854342,0.889475692053414,0.5,0.541372292147158,0.968112727397486,0.110524307946586,0.0436970352290513,0.5,0.395361310474518,1.09329748795157,3.65971401044853,3.33415088038113,0.5,48.996203096358
CBC_1040,CBC_1040_MSI_AV_v3_Vset5_Aset3_2023-12-20_15h47.19.244.csv,2,17,0,1,z,0,1,3,aud,B,63,1,0B,1B,0,1,z,1.77178299999923,0,1,1,1,1B,0B,B01,2.77258872223978,0.889475692053414,0.302319344762741,0.5,0.5,0.5,0.788633398304545,0.5,0.5,0.5,0.5,0.889475692053414,0.302319344762741,0.5,0.5,0.5,0.933172727282466,0.61199205246593,0.38800794753407,0.788633398304545,0.5,0.480057118930495,0.939232169624262,0.211366601695455,0.0835661766368607,0.5,0.395361310474518,1.09329748795157,3.65971401044853,3.33415088038113,0.5,48.996203096358
CBC_1040,CBC_1040_MSI_AV_v3_Vset5_Aset3_2023-12-20_15h47.19.244.csv,2,18,2,3,b,1,0,1,aud,C,63,0,2C,3C,0,1,b,2.35058869999921,1,0,1,0,2C,3C,C23,3.49650756146648,0.889475692053414,0.302319344762741,0.5,0.5,0.5,0.872199574941405,0.5,0.5,0.5,0.5,0.889475692053414,0.302319344762741,0.5,0.5,0.5,0.933172727282466,0.746332770800608,0.253667229199392,0.889475692053414,0.302319344762741,0.408827661338849,0.997550647791779,-0.889475692053414,-0.351664275245467,0.5,0.395361310474518,1.09329748795157,3.65971401044853,3.33415088038113,0.5,48.996203096358
CBC_1040,CBC_1040_MSI_AV_v3_Vset5_Aset3_2023-12-20_15h47.19.244.csv,2,19,2,0,z,0,1,2,aud,A,27,1,2A,0A,0,1,z,2.34036569999989,0,1,1,1,0A,2A,A20,3.52636052461616,0.889475692053414,0.302319344762741,0.5,0.5,0.5,0.872199574941405,0.5,0.5,0.5,0.5,0.537811416807948,0.302319344762741,0.5,0.5,0.5,0.933172727282466,0.640152035145658,0.359847964854342,0.889475692053414,0.5,0.449157611501384,0.968168225357054,0.110524307946586,0.0436970352290513,0.5,0.395361310474518,1.09329748795157,3.65971401044853,3.33415088038113,0.5,48.996203096358
CBC_1040,CBC_1040_MSI_AV_v3_Vset5_Aset3_2023-12-20_15h47.19.244.csv,2,20,3,2,b,1,0,0,aud,D,63,1,3D,2D,1,0,b,2.25114109999959,1,0,1,1,3D,2D,D32,2.4567357728213,0.933172727282466,0.302319344762741,0.5,0.5,0.5,0.872199574941405,0.5,0.5,0.5,0.5,0.537811416807948,0.302319344762741,0.5,0.5,0.5,0.933172727282466,0.651123698852347,0.348876301147653,0.933172727282466,0.5,0.500131213635548,0.975482773362441,0.0668272727175344,0.0264209181170424,0.5,0.395361310474518,1.09329748795157,3.65971401044853,3.33415088038113,0.5,48.996203096358
CBC_1040,CBC_1040_MSI_AV_v3_Vset5_Aset3_2023-12-20_15h47.19.244.csv,2,21,3,1,z,0,1,3,aud,B,27,1,3B,1B,0,1,z,1.8692259999998,0,1,1,1,1B,3B,B31,3.58351893845611,0.933172727282466,0.302319344762741,0.5,0.5,0.5,0.872199574941405,0.5,0.5,0.5,0.5,0.537811416807948,0.302319344762741,0.5,0.5,0.5,0.959593645399508,0.635621516628621,0.364378483371379,0.872199574941405,0.5,0.579587372405719,0.964783014433167,0.127800425058595,0.0505273435303664,0.5,0.395361310474518,1.09329748795157,3.65971401044853,3.33415088038113,0.5,48.996203096358
CBC_1040,CBC_1040_MSI_AV_v3_Vset5_Aset3_2023-12-20_15h47.19.244.csv,2,22,3,2,z,0,1,1,aud,C,63,1,3C,2C,0,1,z,2.34613949999948,0,1,1,1,2C,3C,C32,2.51230562397611,0.933172727282466,0.302319344762741,0.5,0.5,0.5,0.922726918471772,0.5,0.5,0.5,0.5,0.537811416807948,0.302319344762741,0.5,0.5,0.5,0.959593645399508,0.640152035145658,0.359847964854342,0.537811416807948,0.302319344762741,0.446796866038854,0.968052937600493,0.462188583192052,0.182731483937171,0.5,0.395361310474518,1.09329748795157,3.65971401044853,3.33415088038113,0.5,48.996203096358
CBC_1040,CBC_1040_MSI_AV_v3_Vset5_Aset3_2023-12-20_15h47.19.244.csv,2,23,0,1,b,1,0,2,aud,A,63,0,0A,1A,0,1,b,2.34808619999876,1,0,1,0,0A,1A,A01,2.53897387105828,0.933172727282466,0.302319344762741,0.5,0.5,0.5,0.922726918471772,0.5,0.5,0.5,0.5,0.720542900745118,0.302319344762741,0.5,0.5,0.5,0.959593645399508,0.755304504494077,0.244695495505923,0.933172727282466,0.302319344762741,0.394148365706305,0.998028173082309,-0.933172727282466,-0.368940392357476,0.5,0.395361310474518,1.09329748795157,3.65971401044853,3.33415088038113,0.5,48.996203096358
CBC_1040,CBC_1040_MSI_AV_v3_Vset5_Aset3_2023-12-20_15h47.19.244.csv,2,24,2,1,z,0,1,3,aud,B,9,1,2B,1B,0,1,z,1.89880509999966,0,1,1,1,1B,2B,B21,3.66356164612965,0.56423233492499,0.302319344762741,0.5,0.5,0.5,0.922726918471772,0.5,0.5,0.5,0.5,0.720542900745118,0.302319344762741,0.5,0.5,0.5,0.959593645399508,0.648562212812367,0.351437787187633,0.922726918471772,0.5,0.623383671039717,0.973992099312317,0.0772730815282283,0.0305507867774046,0.5,0.395361310474518,1.09329748795157,3.65971401044853,3.33415088038113,0.5,48.996203096358
CBC_1040,CBC_1040_MSI_AV_v3_Vset5_Aset3_2023-12-20_15h47.19.244.csv,2,25,2,3,b,1,0,1,aud,C,63,1,2C,3C,1,0,b,2.31857329999912,1,0,1,1,2C,3C,C23,2.99573227355399,0.56423233492499,0.302319344762741,0.5,0.5,0.5,0.953277705249176,0.5,0.5,0.5,0.5,0.720542900745118,0.302319344762741,0.5,0.5,0.5,0.959593645399508,0.704437869233665,0.295562130766335,0.720542900745118,0.302319344762741,0.484724047256062,0.993223215355891,0.279457099254882,0.110486524982817,0.5,0.395361310474518,1.09329748795157,3.65971401044853,3.33415088038113,0.5,48.996203096358
CBC_1040,CBC_1040_MSI_AV_v3_Vset5_Aset3_2023-12-20_15h47.19.244.csv,2,26,2,3,z,0,1,0,aud,D,63,1,2D,3D,0,1,z,2.47494519999964,0,1,1,1,3D,2D,D23,3.71357206670431,0.56423233492499,0.302319344762741,0.5,0.5,0.5,0.953277705249176,0.5,0.5,0.5,0.5,0.831029425727936,0.302319344762741,0.5,0.5,0.5,0.959593645399508,0.657438903234507,0.342561096765493,0.959593645399508,0.5,0.408292556920444,0.979006878226671,0.040406354600492,0.0159751093063486,0.5,0.395361310474518,1.09329748795157,3.65971401044853,3.33415088038113,0.5,48.996203096358
CBC_1040,CBC_1040_MSI_AV_v3_Vset5_Aset3_2023-12-20_15h47.19.244.csv,2,27,0,1,z,0,1,3,aud,B,63,1,0B,1B,0,1,z,3.01336469999933,0,1,1,1,1B,0B,B01,2.63905732961526,0.56423233492499,0.302319344762741,0.5,0.5,0.5,0.953277705249176,0.5,0.5,0.5,0.5,0.831029425727936,0.302319344762741,0.5,0.5,0.5,0.975568754705857,0.655950133829191,0.344049866170809,0.953277705249176,0.5,0.230507278455389,0.978266700431437,0.0467222947508237,0.0184721876810623,0.5,0.395361310474518,1.09329748795157,3.65971401044853,3.33415088038113,0.5,48.996203096358
CBC_1040,CBC_1040_MSI_AV_v3_Vset5_Aset3_2023-12-20_15h47.19.244.csv,2,28,0,2,b,1,0,2,aud,A,27,1,0A,2A,1,0,b,2.34859459999916,1,0,1,1,0A,2A,A02,3.76120011569356,0.56423233492499,0.302319344762741,0.5,0.5,0.5,0.971749892930239,0.5,0.5,0.5,0.5,0.831029425727936,0.302319344762741,0.5,0.5,0.5,0.975568754705857,0.530177778299471,0.469822221700529,0.56423233492499,0.5,0.218891397529718,0.675975604342012,0.43576766507501,0.172285675126477,0.5,0.395361310474518,1.09329748795157,3.65971401044853,3.33415088038113,0.5,48.996203096358
CBC_1040,CBC_1040_MSI_AV_v3_Vset5_Aset3_2023-12-20_15h47.19.244.csv,2,29,1,3,z,0,1,0,aud,D,27,1,1D,3D,0,1,z,2.24084179999954,0,1,1,1,3D,1D,D13,3.09104245335832,0.736518010051467,0.302319344762741,0.5,0.5,0.5,0.971749892930239,0.5,0.5,0.5,0.5,0.831029425727936,0.302319344762741,0.5,0.5,0.5,0.975568754705857,0.661147609418125,0.338852390581875,0.975568754705857,0.5,0.518209620656115,0.980774504205161,0.0244312452941434,0.00965916915601694,0.5,0.395361310474518,1.09329748795157,3.65971401044853,3.33415088038113,0.5,48.996203096358
CBC_1040,CBC_1040_MSI_AV_v3_Vset5_Aset3_2023-12-20_15h47.19.244.csv,2,30,1,0,z,0,1,2,aud,A,63,1,1A,0A,0,1,z,2.52487629999905,0,1,1,1,0A,1A,A10,3.11351530921037,0.736518010051467,0.302319344762741,0.5,0.5,0.5,0.971749892930239,0.5,0.5,0.5,0.5,0.831029425727936,0.302319344762741,0.5,0.5,0.5,0.985227923861874,0.708982986256968,0.291017013743032,0.736518010051467,0.302319344762741,0.352343349242605,0.993956125724524,0.263481989948533,0.104170584832486,0.5,0.395361310474518,1.09329748795157,3.65971401044853,3.33415088038113,0.5,48.996203096358
CBC_1040,CBC_1040_MSI_AV_v3_Vset5_Aset3_2023-12-20_15h47.19.244.csv,2,31,2,0,b,1,0,1,aud,C,27,1,2C,0C,1,0,b,2.45732849999968,1,0,1,1,2C,0C,C20,3.8286413964891,0.840688594883953,0.302319344762741,0.5,0.5,0.5,0.971749892930239,0.5,0.5,0.5,0.5,0.831029425727936,0.302319344762741,0.5,0.5,0.5,0.985227923861874,0.624350904393754,0.375649095606246,0.831029425727936,0.5,0.390415056064517,0.954199097626384,0.168970574272064,0.0668044276758352,0.5,0.395361310474518,1.09329748795157,3.65971401044853,3.33415088038113,0.5,48.996203096358
CBC_1040,CBC_1040_MSI_AV_v3_Vset5_Aset3_2023-12-20_15h47.19.244.csv,2,32,2,3,z,0,1,0,aud,D,63,1,2D,3D,0,1,z,2.29935739999928,0,1,1,1,3D,2D,D23,3.15700042115011,0.840688594883953,0.302319344762741,0.5,0.5,0.5,0.971749892930239,0.5,0.5,0.5,0.5,0.897833853403771,0.302319344762741,0.5,0.5,0.5,0.985227923861874,0.663351333511219,0.336648666488781,0.985227923861874,0.5,0.491627473365883,0.981817657647444,0.0147720761381265,0.00584030738039904,0.5,0.395361310474518,1.09329748795157,3.65971401044853,3.33415088038113,0.5,48.996203096358
CBC_1040,CBC_1040_MSI_AV_v3_Vset5_Aset3_2023-12-20_15h47.19.244.csv,2,33,1,0,b,1,0,3,aud,B,63,1,1B,0B,1,0,b,3.24532869999894,1,0,1,1,1B,0B,B10,2.77258872223978,0.840688594883953,0.302319344762741,0.5,0.5,0.5,0.971749892930239,0.5,0.5,0.5,0.5,0.897833853403771,0.302319344762741,0.5,0.5,0.5,0.991068231242273,0.660268363258036,0.339731636741964,0.971749892930239,0.5,0.174618994891595,0.980344981491606,0.0282501070697614,0.0111689993521463,0.5,0.395361310474518,1.09329748795157,3.65971401044853,3.33415088038113,0.5,48.996203096358
CBC_1040,CBC_1040_MSI_AV_v3_Vset5_Aset3_2023-12-20_15h47.19.244.csv,2,34,0,1,b,1,0,2,aud,A,63,1,0A,1A,1,0,b,2.23956269999871,1,0,1,1,0A,1A,A01,2.50552593699074,0.840688594883953,0.302319344762741,0.5,0.5,0.5,0.982918892282385,0.5,0.5,0.5,0.5,0.897833853403771,0.302319344762741,0.5,0.5,0.5,0.991068231242273,0.735505472642483,0.264494527357517,0.840688594883953,0.302319344762741,0.51982528651776,0.996813524094834,0.159311405116047,0.0629855659002173,0.5,0.395361310474518,1.09329748795157,3.65971401044853,3.33415088038113,0.5,48.996203096358
CBC_1040,CBC_1040_MSI_AV_v3_Vset5_Aset3_2023-12-20_15h47.19.244.csv,2,35,2,3,z,0,1,0,aud,D,63,0,2D,3D,1,0,z,2.01820099999895,0,1,1,0,3D,2D,D23,2.81341071676004,0.90367416078417,0.302319344762741,0.5,0.5,0.5,0.982918892282385,0.5,0.5,0.5,0.5,0.897833853403771,0.302319344762741,0.5,0.5,0.5,0.991068231242273,0.664669939628833,0.335330060371167,0.991068231242273,0.5,0.634547490684629,0.982428006971196,-0.991068231242273,-0.391830034673607,0.5,0.395361310474518,1.09329748795157,3.65971401044853,3.33415088038113,0.5,48.996203096358
CBC_1040,CBC_1040_MSI_AV_v3_Vset5_Aset3_2023-12-20_15h47.19.244.csv,2,36,2,0,b,1,0,1,aud,C,27,1,2C,0C,1,0,b,2.24448729999949,1,0,1,1,2C,0C,C20,3.23867845216438,0.90367416078417,0.302319344762741,0.5,0.5,0.5,0.982918892282385,0.5,0.5,0.5,0.5,0.897833853403771,0.302319344762741,0.5,0.5,0.5,0.599238196568665,0.642303698123719,0.357696301876281,0.897833853403771,0.5,0.489496201553294,0.969905987122578,0.102166146596229,0.0403925416044168,0.5,0.395361310474518,1.09329748795157,3.65971401044853,3.33415088038113,0.5,48.996203096358
CBC_1040,CBC_1040_MSI_AV_v3_Vset5_Aset3_2023-12-20_15h47.19.244.csv,2,37,0,1,b,1,0,2,aud,A,63,1,0A,1A,1,0,b,2.2264841999995,1,0,1,1,0A,1A,A01,2.34180580614733,0.90367416078417,0.302319344762741,0.5,0.5,0.5,0.982918892282385,0.5,0.5,0.5,0.5,0.938226395008188,0.302319344762741,0.5,0.5,0.5,0.599238196568665,0.749319259703939,0.250680740296061,0.90367416078417,0.302319344762741,0.513652102131802,0.99772194057767,0.09632583921583,0.0380835100249283,0.5,0.395361310474518,1.09329748795157,3.65971401044853,3.33415088038113,0.5,48.996203096358
CBC_1040,CBC_1040_MSI_AV_v3_Vset5_Aset3_2023-12-20_15h47.19.244.csv,2,38,1,3,b,1,0,3,aud,B,27,1,1B,3B,1,0,b,2.20233779999944,1,0,1,1,1B,3B,B13,3.27714473299218,0.941757670809098,0.302319344762741,0.5,0.5,0.5,0.982918892282385,0.5,0.5,0.5,0.5,0.938226395008188,0.302319344762741,0.5,0.5,0.5,0.599238196568665,0.662827142737091,0.337172857262909,0.982918892282385,0.5,0.539415461418737,0.981495955485446,0.0170811077176151,0.00675320913159269,0.5,0.395361310474518,1.09329748795157,3.65971401044853,3.33415088038113,0.5,48.996203096358
CBC_1040,CBC_1040_MSI_AV_v3_Vset5_Aset3_2023-12-20_15h47.19.244.csv,2,39,3,2,z,0,1,1,aud,C,63,1,3C,2C,0,1,z,1.70999499999925,0,1,1,1,2C,3C,C32,2.60268968544438,0.941757670809098,0.302319344762741,0.5,0.5,0.5,0.989672101413978,0.5,0.5,0.5,0.5,0.938226395008188,0.302319344762741,0.5,0.5,0.5,0.599238196568665,0.756301331687645,0.243698668312355,0.938226395008188,0.302319344762741,1.1111412755996,0.998072536960712,0.0617736049918122,0.0244228934222981,0.5,0.395361310474518,1.09329748795157,3.65971401044853,3.33415088038113,0.5,48.996203096358
CBC_1040,CBC_1040_MSI_AV_v3_Vset5_Aset3_2023-12-20_15h47.19.244.csv,2,40,3,2,b,1,0,0,aud,D,63,1,3D,2D,1,0,z,2.42179259999921,0,1,0,0,2D,3D,D32,2.62103882411258,0.941757670809098,0.302319344762741,0.5,0.5,0.5,0.989672101413978,0.5,0.5,0.5,0.5,0.962649288430486,0.302319344762741,0.5,0.5,0.5,0.599238196568665,0.454860467513573,0.545139532486427,0.5,0.599238196568665,0.081827009011635,0.249669040089439,-0.5,-0.197680655237259,0.5,0.395361310474518,1.09329748795157,3.65971401044853,3.33415088038113,0.5,48.996203096358
CBC_1040,CBC_1040_MSI_AV_v3_Vset5_Aset3_2023-12-20_15h47.19.244.csv,2,41,0,1,z,0,1,3,aud,B,63,1,0B,1B,0,1,z,2.36788589999924,0,1,1,1,1B,0B,B01,2.63905732961526,0.941757670809098,0.302319344762741,0.5,0.5,0.5,0.989672101413978,0.5,0.5,0.5,0.5,0.962649288430486,0.302319344762741,0.5,0.5,0.302319344762741,0.599238196568665,0.664355666239969,0.335644333760031,0.989672101413978,0.5,0.458608560556609,0.982098768644897,0.0103278985860223,0.00408325151941771,0.5,0.395361310474518,1.09329748795157,3.65971401044853,3.33415088038113,0.5,48.996203096358
CBC_1040,CBC_1040_MSI_AV_v3_Vset5_Aset3_2023-12-20_15h47.19.244.csv,2,42,2,0,z,0,1,2,aud,A,27,1,2A,0A,0,1,b,2.35179909999988,1,0,0,0,2A,0A,A20,3.3499040872746,0.941757670809098,0.302319344762741,0.5,0.5,0.5,0.993755352933395,0.5,0.5,0.5,0.5,0.962649288430486,0.302319344762741,0.5,0.5,0.302319344762741,0.599238196568665,0.346798917823274,0.653201082176726,0.5,0.941757670809098,0.0108626976699802,0.0231215899369936,-0.5,-0.197680655237259,0.5,0.395361310474518,1.09329748795157,3.65971401044853,3.33415088038113,0.5,48.996203096358
CBC_1040,CBC_1040_MSI_AV_v3_Vset5_Aset3_2023-12-20_15h47.19.244.csv,2,43,3,0,b,1,0,0,aud,D,9,1,3D,0D,1,0,b,2.3897137999993,1,0,1,1,3D,0D,D30,4.06044301054642,0.941757670809098,0.302319344762741,0.302319344762741,0.5,0.5,0.993755352933395,0.5,0.5,0.5,0.5,0.962649288430486,0.302319344762741,0.5,0.5,0.302319344762741,0.599238196568665,0.545139532486427,0.454860467513573,0.599238196568665,0.5,0.249113722934328,0.750463898620339,0.400761803431335,0.158445711792744,0.5,0.395361310474518,1.09329748795157,3.65971401044853,3.33415088038113,0.5,48.996203096358
CBC_1040,CBC_1040_MSI_AV_v3_Vset5_Aset3_2023-12-20_15h47.19.244.csv,2,44,3,2,z,0,1,1,aud,C,63,1,3C,2C,0,1,z,1.64602689999901,0,1,1,1,2C,3C,C32,2.46809953147162,0.941757670809098,0.302319344762741,0.302319344762741,0.5,0.5,0.993755352933395,0.5,0.5,0.5,0.5,0.962649288430486,0.302319344762741,0.5,0.5,0.302319344762741,0.757683908361409,0.761006449622723,0.238993550377277,0.962649288430486,0.302319344762741,1.1532632892693,0.99828065145326,0.0373507115695141,0.0147670262732788,0.5,0.395361310474518,1.09329748795157,3.65971401044853,3.33415088038113,0.5,48.996203096358
