ID,filename,session,trial,visStimLeft,visStimRight,correctKey,leftCorrect,rightCorrect,secondStim,mod2Type,mod2Stim,frequency,rewardAccurate,stimPairLeft,stimPairRight,pCorrectLeft,pCorrectRight,key,reactionTime,choiceLeft,choiceRight,choiceAccurate,reward,chosenPair,otherPair,triplet,surprise,0A belief,1A belief,2A belief,3A belief,0B belief,1B belief,2B belief,3B belief,0C belief,1C belief,2C belief,3C belief,0D belief,1D belief,2D belief,3D belief,beliefPairNorm,beliefOtherPairNorm,beliefPair,beliefOtherPair,lik,corrLik,rewardPE,update2,fitCBCsimpleRW_CBCdriftDiffusionLR_startBelief,fitCBCsimpleRW_CBCdriftDiffusionLR_alpha1,fitCBCsimpleRW_CBCdriftDiffusionLR_nonDecisionTime,fitCBCsimpleRW_CBCdriftDiffusionLR_weight,fitCBCsimpleRW_CBCdriftDiffusionLR_startingBoundary,fitCBCsimpleRW_CBCdriftDiffusionLR_startingPoint,fit_CBCsimpleRW_CBCdriftDiffusionLR_NLL
CBC_1143,CBC_1143_MSI_TV_v3_Vset2_Tset2_2024-09-27_16h22.40.071.csv,1,1,1,0,b,1,0,1,tac,B,63,1,1B,0B,1,0,b,2.46982779999962,1,0,1,1,1B,0B,B10,2.77258872223978,0.5,0.5,0.5,0.5,0.5,0.5,0.5,0.5,0.5,0.5,0.5,0.5,0.5,0.5,0.5,0.5,0.5,0.5,0.5,0.5,0.10684572391883,0.499880317716899,0.5,0.131411742790079,0.5,0.262823485580158,0.710031262854238,5.51022857678568,4.07910175747672,0.5,55.0095494849564
CBC_1143,CBC_1143_MSI_TV_v3_Vset2_Tset2_2024-09-27_16h22.40.071.csv,1,2,1,0,z,0,1,0,tac,A,63,1,1A,0A,0,1,z,2.4126324000008,0,1,1,1,0A,1A,A10,2.83321334405622,0.5,0.5,0.5,0.5,0.5,0.631411742790079,0.5,0.5,0.5,0.5,0.5,0.5,0.5,0.5,0.5,0.5,0.5,0.5,0.5,0.5,0.107534018478144,0.498131221608684,0.5,0.131411742790079,0.5,0.262823485580158,0.710031262854238,5.51022857678568,4.07910175747672,0.5,55.0095494849564
CBC_1143,CBC_1143_MSI_TV_v3_Vset2_Tset2_2024-09-27_16h22.40.071.csv,1,3,3,2,b,1,0,3,tac,D,63,1,3D,2D,1,0,b,2.53829430000042,1,0,1,1,3D,2D,D32,2.89037175789616,0.631411742790079,0.5,0.5,0.5,0.5,0.631411742790079,0.5,0.5,0.5,0.5,0.5,0.5,0.5,0.5,0.5,0.5,0.5,0.5,0.5,0.5,0.105679511624801,0.500939025336091,0.5,0.131411742790079,0.5,0.262823485580158,0.710031262854238,5.51022857678568,4.07910175747672,0.5,55.0095494849564
CBC_1143,CBC_1143_MSI_TV_v3_Vset2_Tset2_2024-09-27_16h22.40.071.csv,1,4,1,2,b,1,0,1,tac,B,9,1,1B,2B,1,0,b,2.35442150000017,1,0,1,1,1B,2B,B12,2.94443897916644,0.631411742790079,0.5,0.5,0.5,0.5,0.631411742790079,0.5,0.5,0.5,0.5,0.5,0.5,0.5,0.5,0.5,0.631411742790079,0.558074234966846,0.441925765033154,0.631411742790079,0.5,0.28671214833352,0.931384680834339,0.368588257209921,0.0968736505038273,0.5,0.262823485580158,0.710031262854238,5.51022857678568,4.07910175747672,0.5,55.0095494849564
CBC_1143,CBC_1143_MSI_TV_v3_Vset2_Tset2_2024-09-27_16h22.40.071.csv,1,5,2,0,z,0,1,0,tac,A,27,1,2A,0A,0,1,z,2.26667680000173,0,1,1,1,0A,2A,A20,2.99573227355399,0.631411742790079,0.5,0.5,0.5,0.5,0.728285393293906,0.5,0.5,0.5,0.5,0.5,0.5,0.5,0.5,0.5,0.631411742790079,0.558074234966846,0.441925765033154,0.631411742790079,0.5,0.295637194673247,0.931810091168332,0.368588257209921,0.0968736505038273,0.5,0.262823485580158,0.710031262854238,5.51022857678568,4.07910175747672,0.5,55.0095494849564
CBC_1143,CBC_1143_MSI_TV_v3_Vset2_Tset2_2024-09-27_16h22.40.071.csv,1,6,3,2,z,0,1,2,tac,C,63,1,3C,2C,0,1,z,2.65892880000138,0,1,1,1,2C,3C,C32,3.04452243772342,0.728285393293906,0.5,0.5,0.5,0.5,0.728285393293906,0.5,0.5,0.5,0.5,0.5,0.5,0.5,0.5,0.5,0.631411742790079,0.5,0.5,0.5,0.5,0.102781183351077,0.499875100369439,0.5,0.131411742790079,0.5,0.262823485580158,0.710031262854238,5.51022857678568,4.07910175747672,0.5,55.0095494849564
CBC_1143,CBC_1143_MSI_TV_v3_Vset2_Tset2_2024-09-27_16h22.40.071.csv,1,7,3,1,b,1,0,3,tac,D,27,1,3D,1D,1,0,b,2.46406260000003,1,0,1,1,3D,1D,D31,3.09104245335832,0.728285393293906,0.5,0.5,0.5,0.5,0.728285393293906,0.5,0.5,0.5,0.5,0.631411742790079,0.5,0.5,0.5,0.5,0.631411742790079,0.558074234966846,0.441925765033154,0.631411742790079,0.5,0.275567966873085,0.931564210256517,0.368588257209921,0.0968736505038273,0.5,0.262823485580158,0.710031262854238,5.51022857678568,4.07910175747672,0.5,55.0095494849564
CBC_1143,CBC_1143_MSI_TV_v3_Vset2_Tset2_2024-09-27_16h22.40.071.csv,1,8,0,1,b,1,0,0,tac,A,63,1,0A,1A,1,0,b,2.80472369999916,1,0,1,1,0A,1A,A01,3.13549421592915,0.728285393293906,0.5,0.5,0.5,0.5,0.728285393293906,0.5,0.5,0.5,0.5,0.631411742790079,0.5,0.5,0.5,0.5,0.728285393293906,0.592928481662438,0.407071518337562,0.728285393293906,0.5,0.267356391290221,0.984964434587282,0.271714606706094,0.0714129800175373,0.5,0.262823485580158,0.710031262854238,5.51022857678568,4.07910175747672,0.5,55.0095494849564
CBC_1143,CBC_1143_MSI_TV_v3_Vset2_Tset2_2024-09-27_16h22.40.071.csv,1,9,0,2,z,0,1,2,tac,C,27,1,0C,2C,0,1,z,2.54449660000137,0,1,1,1,2C,0C,C02,3.17805383034795,0.799698373311444,0.5,0.5,0.5,0.5,0.728285393293906,0.5,0.5,0.5,0.5,0.631411742790079,0.5,0.5,0.5,0.5,0.728285393293906,0.558074234966846,0.441925765033154,0.631411742790079,0.5,0.266919052513309,0.931554847682382,0.368588257209921,0.0968736505038273,0.5,0.262823485580158,0.710031262854238,5.51022857678568,4.07910175747672,0.5,55.0095494849564
CBC_1143,CBC_1143_MSI_TV_v3_Vset2_Tset2_2024-09-27_16h22.40.071.csv,1,10,3,2,b,1,0,3,tac,D,63,1,3D,2D,1,0,b,2.4895075000004,1,0,1,1,3D,2D,D32,2.52572864430826,0.799698373311444,0.5,0.5,0.5,0.5,0.728285393293906,0.5,0.5,0.5,0.5,0.728285393293906,0.5,0.5,0.5,0.5,0.728285393293906,0.592928481662438,0.407071518337562,0.728285393293906,0.5,0.338207423882009,0.984923326435479,0.271714606706094,0.0714129800175373,0.5,0.262823485580158,0.710031262854238,5.51022857678568,4.07910175747672,0.5,55.0095494849564
CBC_1143,CBC_1143_MSI_TV_v3_Vset2_Tset2_2024-09-27_16h22.40.071.csv,1,11,0,1,z,0,1,1,tac,B,63,0,0B,1B,1,0,z,2.83860529999947,0,1,1,0,1B,0B,B01,3.25809653802148,0.799698373311444,0.5,0.5,0.5,0.5,0.728285393293906,0.5,0.5,0.5,0.5,0.728285393293906,0.5,0.5,0.5,0.5,0.799698373311444,0.592928481662438,0.407071518337562,0.728285393293906,0.5,0.260461156267999,0.984927814462063,-0.728285393293906,-0.191410505562621,0.5,0.262823485580158,0.710031262854238,5.51022857678568,4.07910175747672,0.5,55.0095494849564
CBC_1143,CBC_1143_MSI_TV_v3_Vset2_Tset2_2024-09-27_16h22.40.071.csv,1,12,1,0,z,0,1,0,tac,A,63,1,1A,0A,0,1,z,3.01747999999861,0,1,1,1,0A,1A,A10,2.60268968544438,0.799698373311444,0.5,0.5,0.5,0.5,0.536874887731286,0.5,0.5,0.5,0.5,0.728285393293906,0.5,0.5,0.5,0.5,0.799698373311444,0.615295356009354,0.384704643990645,0.799698373311444,0.5,0.194798750583119,0.994435399023649,0.200301626688556,0.052643971693662,0.5,0.262823485580158,0.710031262854238,5.51022857678568,4.07910175747672,0.5,55.0095494849564
CBC_1143,CBC_1143_MSI_TV_v3_Vset2_Tset2_2024-09-27_16h22.40.071.csv,1,13,3,2,b,1,0,3,tac,D,63,1,3D,2D,1,0,b,2.29348129999926,1,0,1,1,3D,2D,D32,2.23359222150709,0.852342345005106,0.5,0.5,0.5,0.5,0.536874887731286,0.5,0.5,0.5,0.5,0.728285393293906,0.5,0.5,0.5,0.5,0.799698373311444,0.615295356009354,0.384704643990645,0.799698373311444,0.5,0.4082283351018,0.99442973097999,0.200301626688556,0.052643971693662,0.5,0.262823485580158,0.710031262854238,5.51022857678568,4.07910175747672,0.5,55.0095494849564
CBC_1143,CBC_1143_MSI_TV_v3_Vset2_Tset2_2024-09-27_16h22.40.071.csv,1,14,0,2,z,0,1,2,tac,C,27,1,0C,2C,0,1,z,2.57235840000067,0,1,1,1,2C,0C,C02,2.67414864942653,0.852342345005106,0.5,0.5,0.5,0.5,0.536874887731286,0.5,0.5,0.5,0.5,0.728285393293906,0.5,0.5,0.5,0.5,0.852342345005106,0.592928481662438,0.407071518337562,0.728285393293906,0.5,0.318454198370553,0.984789007538554,0.271714606706094,0.0714129800175373,0.5,0.262823485580158,0.710031262854238,5.51022857678568,4.07910175747672,0.5,55.0095494849564
CBC_1143,CBC_1143_MSI_TV_v3_Vset2_Tset2_2024-09-27_16h22.40.071.csv,1,15,1,0,z,0,1,0,tac,A,63,1,1A,0A,0,1,z,2.37671070000033,0,1,1,1,0A,1A,A10,2.30258509299405,0.852342345005106,0.5,0.5,0.5,0.5,0.536874887731286,0.5,0.5,0.5,0.5,0.799698373311444,0.5,0.5,0.5,0.5,0.852342345005106,0.630271135229362,0.369728864770638,0.852342345005106,0.5,0.364362609282802,0.997132083446258,0.147657654994894,0.0388078995583506,0.5,0.262823485580158,0.710031262854238,5.51022857678568,4.07910175747672,0.5,55.0095494849564
CBC_1143,CBC_1143_MSI_TV_v3_Vset2_Tset2_2024-09-27_16h22.40.071.csv,1,16,3,1,z,0,1,1,tac,B,27,1,3B,1B,0,1,z,1.5846089000006,0,1,1,1,1B,3B,B31,3.43398720448515,0.891150244563456,0.5,0.5,0.5,0.5,0.536874887731286,0.5,0.5,0.5,0.5,0.799698373311444,0.5,0.5,0.5,0.5,0.852342345005106,0.517781744050128,0.482218255949872,0.536874887731286,0.5,0.135425433774014,0.690362715769071,0.463125112268714,0.121720156266166,0.5,0.262823485580158,0.710031262854238,5.51022857678568,4.07910175747672,0.5,55.0095494849564
CBC_1143,CBC_1143_MSI_TV_v3_Vset2_Tset2_2024-09-27_16h22.40.071.csv,1,17,2,3,b,1,0,2,tac,C,63,1,2C,3C,1,0,b,2.31210460000148,1,0,1,1,2C,3C,C23,3.46573590279973,0.891150244563456,0.5,0.5,0.5,0.5,0.658595043997451,0.5,0.5,0.5,0.5,0.799698373311444,0.5,0.5,0.5,0.5,0.852342345005106,0.615295356009354,0.384704643990645,0.799698373311444,0.5,0.401216438581578,0.994420068872218,0.200301626688556,0.052643971693662,0.5,0.262823485580158,0.710031262854238,5.51022857678568,4.07910175747672,0.5,55.0095494849564
CBC_1143,CBC_1143_MSI_TV_v3_Vset2_Tset2_2024-09-27_16h22.40.071.csv,1,18,3,2,b,1,0,3,tac,D,63,0,3D,2D,0,1,b,2.32889969999997,1,0,1,0,3D,2D,D32,2.11021320034659,0.891150244563456,0.5,0.5,0.5,0.5,0.658595043997451,0.5,0.5,0.5,0.5,0.852342345005106,0.5,0.5,0.5,0.5,0.852342345005106,0.630271135229362,0.369728864770638,0.852342345005106,0.5,0.385132021772522,0.997156249839612,-0.852342345005106,-0.224015586021808,0.5,0.262823485580158,0.710031262854238,5.51022857678568,4.07910175747672,0.5,55.0095494849564
CBC_1143,CBC_1143_MSI_TV_v3_Vset2_Tset2_2024-09-27_16h22.40.071.csv,1,19,0,1,z,0,1,1,tac,B,63,1,0B,1B,0,1,z,2.52485100000013,0,1,1,1,1B,0B,B01,2.83321334405622,0.891150244563456,0.5,0.5,0.5,0.5,0.658595043997451,0.5,0.5,0.5,0.5,0.852342345005106,0.5,0.5,0.5,0.5,0.628326758983298,0.56844282858757,0.43155717141243,0.658595043997451,0.5,0.294035514012498,0.956019570891764,0.341404956002549,0.0897292405309304,0.5,0.262823485580158,0.710031262854238,5.51022857678568,4.07910175747672,0.5,55.0095494849564
CBC_1143,CBC_1143_MSI_TV_v3_Vset2_Tset2_2024-09-27_16h22.40.071.csv,1,20,0,2,b,1,0,0,tac,A,27,1,0A,2A,1,0,b,1.91217189999952,1,0,1,1,0A,2A,A02,3.55534806148941,0.891150244563456,0.5,0.5,0.5,0.5,0.748324284528382,0.5,0.5,0.5,0.5,0.852342345005106,0.5,0.5,0.5,0.5,0.628326758983298,0.640585190597511,0.359414809402489,0.891150244563456,0.5,0.609334029009745,0.998203687998202,0.108849755436544,0.0286082721283802,0.5,0.262823485580158,0.710031262854238,5.51022857678568,4.07910175747672,0.5,55.0095494849564
CBC_1143,CBC_1143_MSI_TV_v3_Vset2_Tset2_2024-09-27_16h22.40.071.csv,1,21,3,0,b,1,0,3,tac,D,9,1,3D,0D,1,0,b,2.22191269999894,1,0,1,1,3D,0D,D30,3.58351893845611,0.919758516691837,0.5,0.5,0.5,0.5,0.748324284528382,0.5,0.5,0.5,0.5,0.852342345005106,0.5,0.5,0.5,0.5,0.628326758983298,0.55686595570016,0.44313404429984,0.628326758983298,0.5,0.295106763947993,0.928069555819263,0.371673241016702,0.0976844567008838,0.5,0.262823485580158,0.710031262854238,5.51022857678568,4.07910175747672,0.5,55.0095494849564
CBC_1143,CBC_1143_MSI_TV_v3_Vset2_Tset2_2024-09-27_16h22.40.071.csv,1,22,3,2,z,0,1,2,tac,C,63,1,3C,2C,0,1,z,2.04395219999969,0,1,1,1,2C,3C,C32,2.91777073208428,0.919758516691837,0.5,0.5,0.5,0.5,0.748324284528382,0.5,0.5,0.5,0.5,0.852342345005106,0.5,0.5,0.5,0.5,0.726011215684182,0.630271135229362,0.369728864770638,0.852342345005106,0.5,0.525024512263113,0.997137107339554,0.147657654994894,0.0388078995583506,0.5,0.262823485580158,0.710031262854238,5.51022857678568,4.07910175747672,0.5,55.0095494849564
CBC_1143,CBC_1143_MSI_TV_v3_Vset2_Tset2_2024-09-27_16h22.40.071.csv,1,23,1,3,b,1,0,1,tac,B,27,1,1B,3B,1,0,b,2.08315020000009,1,0,1,1,1B,3B,B13,3.63758615972639,0.919758516691837,0.5,0.5,0.5,0.5,0.748324284528382,0.5,0.5,0.5,0.5,0.891150244563456,0.5,0.5,0.5,0.5,0.726011215684182,0.599463051230394,0.400536948769606,0.748324284528382,0.5,0.455773342568801,0.988704203681779,0.251675715471618,0.0661462887761309,0.5,0.262823485580158,0.710031262854238,5.51022857678568,4.07910175747672,0.5,55.0095494849564
CBC_1143,CBC_1143_MSI_TV_v3_Vset2_Tset2_2024-09-27_16h22.40.071.csv,1,24,2,3,b,1,0,2,tac,C,63,1,2C,3C,1,0,b,1.57806549999987,1,0,1,1,2C,3C,C23,2.9704144655697,0.919758516691837,0.5,0.5,0.5,0.5,0.814470573304512,0.5,0.5,0.5,0.5,0.891150244563456,0.5,0.5,0.5,0.5,0.726011215684182,0.640585190597511,0.359414809402489,0.891150244563456,0.5,0.76153178472039,0.998197498324381,0.108849755436544,0.0286082721283802,0.5,0.262823485580158,0.710031262854238,5.51022857678568,4.07910175747672,0.5,55.0095494849564
CBC_1143,CBC_1143_MSI_TV_v3_Vset2_Tset2_2024-09-27_16h22.40.071.csv,1,25,3,2,b,1,0,3,tac,D,63,1,3D,2D,1,0,b,2.55653279999933,1,0,1,1,3D,2D,D32,2.07944154167984,0.919758516691837,0.5,0.5,0.5,0.5,0.814470573304512,0.5,0.5,0.5,0.5,0.919758516691837,0.5,0.5,0.5,0.5,0.726011215684182,0.592173388298922,0.407826611701078,0.726011215684182,0.5,0.321906255469376,0.984493595565413,0.273988784315818,0.0720106873037535,0.5,0.262823485580158,0.710031262854238,5.51022857678568,4.07910175747672,0.5,55.0095494849564
CBC_1143,CBC_1143_MSI_TV_v3_Vset2_Tset2_2024-09-27_16h22.40.071.csv,1,26,0,1,z,0,1,1,tac,B,63,1,0B,1B,0,1,z,1.89041139999972,0,1,1,1,1B,0B,B01,2.6149597780362,0.919758516691837,0.5,0.5,0.5,0.5,0.814470573304512,0.5,0.5,0.5,0.5,0.919758516691837,0.5,0.5,0.5,0.5,0.798021902987935,0.619618719388274,0.380381280611726,0.814470573304512,0.5,0.574337093654017,0.995379882865001,0.185529426695488,0.0487614906017965,0.5,0.262823485580158,0.710031262854238,5.51022857678568,4.07910175747672,0.5,55.0095494849564
CBC_1143,CBC_1143_MSI_TV_v3_Vset2_Tset2_2024-09-27_16h22.40.071.csv,1,27,3,0,z,0,1,0,tac,A,9,1,3A,0A,0,1,z,1.99699640000108,0,1,1,1,0A,3A,A30,3.73766961828337,0.919758516691837,0.5,0.5,0.5,0.5,0.863232063906309,0.5,0.5,0.5,0.5,0.919758516691837,0.5,0.5,0.5,0.5,0.798021902987935,0.647827433946271,0.352172566053729,0.919758516691837,0.5,0.556645091378902,0.998693649034285,0.0802414833081635,0.0210893463311736,0.5,0.262823485580158,0.710031262854238,5.51022857678568,4.07910175747672,0.5,55.0095494849564
CBC_1143,CBC_1143_MSI_TV_v3_Vset2_Tset2_2024-09-27_16h22.40.071.csv,1,28,3,2,b,1,0,3,tac,D,63,1,3D,2D,1,0,b,1.89056879999953,1,0,1,1,3D,2D,D32,1.96944064646551,0.94084786302301,0.5,0.5,0.5,0.5,0.863232063906309,0.5,0.5,0.5,0.5,0.919758516691837,0.5,0.5,0.5,0.5,0.798021902987935,0.614798487722709,0.385201512277291,0.798021902987935,0.5,0.55963777218943,0.994335547441978,0.201978097012065,0.0530845874675581,0.5,0.262823485580158,0.710031262854238,5.51022857678568,4.07910175747672,0.5,55.0095494849564
CBC_1143,CBC_1143_MSI_TV_v3_Vset2_Tset2_2024-09-27_16h22.40.071.csv,1,29,0,2,z,0,1,2,tac,C,27,1,0C,2C,0,1,z,2.76569170000039,0,1,1,1,2C,0C,C02,2.68557734525015,0.94084786302301,0.5,0.5,0.5,0.5,0.863232063906309,0.5,0.5,0.5,0.5,0.919758516691837,0.5,0.5,0.5,0.5,0.851106490455494,0.647827433946271,0.352172566053729,0.919758516691837,0.5,0.181375899017566,0.998710305870658,0.0802414833081635,0.0210893463311736,0.5,0.262823485580158,0.710031262854238,5.51022857678568,4.07910175747672,0.5,55.0095494849564
CBC_1143,CBC_1143_MSI_TV_v3_Vset2_Tset2_2024-09-27_16h22.40.071.csv,1,30,0,1,b,1,0,0,tac,A,63,0,0A,1A,0,1,b,3.00417019999986,1,0,1,0,0A,1A,A01,3.11351530921037,0.94084786302301,0.5,0.5,0.5,0.5,0.863232063906309,0.5,0.5,0.5,0.5,0.94084786302301,0.5,0.5,0.5,0.5,0.851106490455494,0.652982099754126,0.347017900245874,0.94084786302301,0.5,0.112838452119955,0.998968703378775,-0.94084786302301,-0.247276914760351,0.5,0.262823485580158,0.710031262854238,5.51022857678568,4.07910175747672,0.5,55.0095494849564
CBC_1143,CBC_1143_MSI_TV_v3_Vset2_Tset2_2024-09-27_16h22.40.071.csv,1,31,0,1,z,0,1,1,tac,B,63,1,0B,1B,0,1,z,1.40914860000157,0,1,1,1,1B,0B,B01,2.4423470353692,0.69357094826266,0.5,0.5,0.5,0.5,0.863232063906309,0.5,0.5,0.5,0.5,0.94084786302301,0.5,0.5,0.5,0.5,0.851106490455494,0.633224589387032,0.366775410612968,0.863232063906309,0.5,0.668763605295373,0.997510336845461,0.136767936093691,0.0359458256797482,0.5,0.262823485580158,0.710031262854238,5.51022857678568,4.07910175747672,0.5,55.0095494849564
CBC_1143,CBC_1143_MSI_TV_v3_Vset2_Tset2_2024-09-27_16h22.40.071.csv,1,32,1,3,z,0,1,3,tac,D,27,1,1D,3D,0,1,z,2.24039169999924,0,1,1,1,3D,1D,D13,3.85014760171006,0.69357094826266,0.5,0.5,0.5,0.5,0.899177889586057,0.5,0.5,0.5,0.5,0.94084786302301,0.5,0.5,0.5,0.5,0.851106490455494,0.629932944936534,0.370067055063466,0.851106490455494,0.5,0.426552816406182,0.99709995008064,0.148893509544506,0.0391327111587497,0.5,0.262823485580158,0.710031262854238,5.51022857678568,4.07910175747672,0.5,55.0095494849564
CBC_1143,CBC_1143_MSI_TV_v3_Vset2_Tset2_2024-09-27_16h22.40.071.csv,1,33,2,3,b,1,0,2,tac,C,63,1,2C,3C,1,0,b,2.78205370000069,1,0,1,1,2C,3C,C23,2.77258872223978,0.69357094826266,0.5,0.5,0.5,0.5,0.899177889586057,0.5,0.5,0.5,0.5,0.94084786302301,0.5,0.5,0.5,0.5,0.890239201614243,0.652982099754126,0.347017900245874,0.94084786302301,0.5,0.163749123035211,0.998968395503975,0.0591521369769898,0.0155465708198074,0.5,0.262823485580158,0.710031262854238,5.51022857678568,4.07910175747672,0.5,55.0095494849564
CBC_1143,CBC_1143_MSI_TV_v3_Vset2_Tset2_2024-09-27_16h22.40.071.csv,1,34,0,1,z,0,1,1,tac,B,63,1,0B,1B,0,1,z,1.40280039999925,0,1,1,1,1B,0B,B01,2.28238238567653,0.69357094826266,0.5,0.5,0.5,0.5,0.899177889586057,0.5,0.5,0.5,0.5,0.956394433842818,0.5,0.5,0.5,0.5,0.890239201614243,0.642647297587068,0.357352702412932,0.899177889586057,0.5,0.734684151863399,0.998357223382405,0.100822110413943,0.02649841848254,0.5,0.262823485580158,0.710031262854238,5.51022857678568,4.07910175747672,0.5,55.0095494849564
CBC_1143,CBC_1143_MSI_TV_v3_Vset2_Tset2_2024-09-27_16h22.40.071.csv,1,35,1,0,z,0,1,0,tac,A,63,1,1A,0A,0,1,z,1.37557110000125,0,1,1,1,0A,1A,A10,2.52572864430826,0.69357094826266,0.5,0.5,0.5,0.5,0.925676308068597,0.5,0.5,0.5,0.5,0.956394433842818,0.5,0.5,0.5,0.5,0.890239201614243,0.581088999587506,0.418911000412494,0.69357094826266,0.5,0.311438090243134,0.974349493569748,0.30642905173734,0.0805367514606304,0.5,0.262823485580158,0.710031262854238,5.51022857678568,4.07910175747672,0.5,55.0095494849564
CBC_1143,CBC_1143_MSI_TV_v3_Vset2_Tset2_2024-09-27_16h22.40.071.csv,1,36,2,1,b,1,0,2,tac,C,9,1,2C,1C,1,0,b,2.82860049999908,1,0,1,1,2C,1C,C21,3.93182563272433,0.77410769972329,0.5,0.5,0.5,0.5,0.925676308068597,0.5,0.5,0.5,0.5,0.956394433842818,0.5,0.5,0.5,0.5,0.890239201614243,0.656686411056441,0.343313588943559,0.956394433842818,0.5,0.141991120934488,0.999128052832728,0.0436055661571824,0.0114605668881268,0.5,0.262823485580158,0.710031262854238,5.51022857678568,4.07910175747672,0.5,55.0095494849564
CBC_1143,CBC_1143_MSI_TV_v3_Vset2_Tset2_2024-09-27_16h22.40.071.csv,1,37,0,1,b,1,0,0,tac,A,63,1,0A,1A,1,0,b,0.969120100000509,1,0,1,1,0A,1A,A01,2.85263142991332,0.77410769972329,0.5,0.5,0.5,0.5,0.925676308068597,0.5,0.5,0.5,0.5,0.967855000730944,0.5,0.5,0.5,0.5,0.890239201614243,0.607568496675289,0.392431503324711,0.77410769972329,0.5,0.0188559433358461,0.992145310319943,0.22589230027671,0.0593698017244446,0.5,0.262823485580158,0.710031262854238,5.51022857678568,4.07910175747672,0.5,55.0095494849564
CBC_1143,CBC_1143_MSI_TV_v3_Vset2_Tset2_2024-09-27_16h22.40.071.csv,1,38,1,3,z,0,1,3,tac,D,27,1,1D,3D,0,1,z,2.44915500000025,0,1,1,1,3D,1D,D13,3.27714473299218,0.833477501447735,0.5,0.5,0.5,0.5,0.925676308068597,0.5,0.5,0.5,0.5,0.967855000730944,0.5,0.5,0.5,0.5,0.890239201614243,0.640349661109083,0.359650338890917,0.890239201614243,0.5,0.314092529533632,0.998183446772076,0.109760798385757,0.0288477156118056,0.5,0.262823485580158,0.710031262854238,5.51022857678568,4.07910175747672,0.5,55.0095494849564
CBC_1143,CBC_1143_MSI_TV_v3_Vset2_Tset2_2024-09-27_16h22.40.071.csv,1,39,1,0,b,1,0,1,tac,B,63,1,1B,0B,1,0,b,1.2624620000006,1,0,1,1,1B,0B,B10,3.29583686600433,0.833477501447735,0.5,0.5,0.5,0.5,0.925676308068597,0.5,0.5,0.5,0.5,0.967855000730944,0.5,0.5,0.5,0.5,0.919086917226049,0.649289255092298,0.350710744907702,0.925676308068597,0.5,0.622997614562811,0.99878387847055,0.0743236919314029,0.0195340117745972,0.5,0.262823485580158,0.710031262854238,5.51022857678568,4.07910175747672,0.5,55.0095494849564
CBC_1143,CBC_1143_MSI_TV_v3_Vset2_Tset2_2024-09-27_16h22.40.071.csv,1,40,3,2,z,0,1,2,tac,C,63,0,3C,2C,1,0,z,1.41372539999975,0,1,1,0,2C,3C,C32,2.90872089656436,0.833477501447735,0.5,0.5,0.5,0.5,0.945210319843194,0.5,0.5,0.5,0.5,0.967855000730944,0.5,0.5,0.5,0.5,0.919086917226049,0.659366899488699,0.340633100511301,0.967855000730944,0.5,0.87180089744216,0.999229886939267,-0.967855000730944,-0.254375024828293,0.5,0.262823485580158,0.710031262854238,5.51022857678568,4.07910175747672,0.5,55.0095494849564
CBC_1143,CBC_1143_MSI_TV_v3_Vset2_Tset2_2024-09-27_16h22.40.071.csv,1,41,0,2,b,1,0,0,tac,A,27,1,0A,2A,1,0,b,2.28142149999985,1,0,1,1,0A,2A,A02,3.3322045101752,0.833477501447735,0.5,0.5,0.5,0.5,0.945210319843194,0.5,0.5,0.5,0.5,0.713479975902651,0.5,0.5,0.5,0.5,0.919086917226049,0.62504054289843,0.37495945710157,0.833477501447735,0.5,0.410901547904425,0.996408049984892,0.166522498552265,0.0437660234970232,0.5,0.262823485580158,0.710031262854238,5.51022857678568,4.07910175747672,0.5,55.0095494849564
CBC_1143,CBC_1143_MSI_TV_v3_Vset2_Tset2_2024-09-27_16h22.40.071.csv,1,42,2,3,z,0,1,3,tac,D,63,1,2D,3D,0,1,z,2.90885909999997,0,1,1,1,3D,2D,D23,4.04305126783455,0.877243524944758,0.5,0.5,0.5,0.5,0.945210319843194,0.5,0.5,0.5,0.5,0.713479975902651,0.5,0.5,0.5,0.5,0.919086917226049,0.647660764164205,0.352339235835795,0.919086917226049,0.5,0.145444987061276,0.998691970481037,0.0809130827739512,0.0212658584436857,0.5,0.262823485580158,0.710031262854238,5.51022857678568,4.07910175747672,0.5,55.0095494849564
CBC_1143,CBC_1143_MSI_TV_v3_Vset2_Tset2_2024-09-27_16h22.40.071.csv,1,43,1,3,b,1,0,1,tac,B,27,1,1B,3B,1,0,b,2.22574109999914,1,0,1,1,1B,3B,B13,3.36729582998647,0.877243524944758,0.5,0.5,0.5,0.5,0.945210319843194,0.5,0.5,0.5,0.5,0.713479975902651,0.5,0.5,0.5,0.5,0.940352775669735,0.65402959476912,0.34597040523088,0.945210319843194,0.5,0.396813896491036,0.999020033498672,0.0547896801568057,0.0144000147126337,0.5,0.262823485580158,0.710031262854238,5.51022857678568,4.07910175747672,0.5,55.0095494849564
CBC_1143,CBC_1143_MSI_TV_v3_Vset2_Tset2_2024-09-27_16h22.40.071.csv,1,44,3,2,z,0,1,2,tac,C,63,1,3C,2C,0,1,z,2.7838885000001,0,1,1,1,2C,3C,C32,2.69124308278583,0.877243524944758,0.5,0.5,0.5,0.5,0.959610334555828,0.5,0.5,0.5,0.5,0.713479975902651,0.5,0.5,0.5,0.5,0.940352775669735,0.587961886533749,0.412038113466251,0.713479975902651,0.5,0.272122264178226,0.981212148746303,0.286520024097349,0.0753041914217761,0.5,0.262823485580158,0.710031262854238,5.51022857678568,4.07910175747672,0.5,55.0095494849564
CBC_1143,CBC_1143_MSI_AV_v3_Vset3_Aset2_2024-09-27_17h11.17.983.csv,2,1,1,0,z,0,1,0,aud,A,63,1,1A,0A,0,1,b,1.26715069999955,1,0,0,0,1A,0A,A10,2.77258872223978,0.5,0.5,0.5,0.5,0.5,0.5,0.5,0.5,0.5,0.5,0.5,0.5,0.5,0.5,0.5,0.5,0.5,0.5,0.5,0.5,0.295059301070079,0.501315183687248,-0.5,-0.21677587561707,0.5,0.43355175123414,0.802760211453307,3.24534255637925,2.49538291811856,0.5,41.8536181648286
CBC_1143,CBC_1143_MSI_AV_v3_Vset3_Aset2_2024-09-27_17h11.17.983.csv,2,2,3,2,b,1,0,3,aud,D,63,1,3D,2D,1,0,b,2.12104069999805,1,0,1,1,3D,2D,D32,2.83321334405622,0.5,0.28322412438293,0.5,0.5,0.5,0.5,0.5,0.5,0.5,0.5,0.5,0.5,0.5,0.5,0.5,0.5,0.5,0.5,0.5,0.5,0.176906188441484,0.498726664498853,0.5,0.21677587561707,0.5,0.43355175123414,0.802760211453307,3.24534255637925,2.49538291811856,0.5,41.8536181648286
CBC_1143,CBC_1143_MSI_AV_v3_Vset3_Aset2_2024-09-27_17h11.17.983.csv,2,3,2,0,b,1,0,2,aud,C,27,1,2C,0C,1,0,z,1.50932370000191,0,1,0,0,0C,2C,C20,2.89037175789616,0.5,0.28322412438293,0.5,0.5,0.5,0.5,0.5,0.5,0.5,0.5,0.5,0.5,0.5,0.5,0.5,0.71677587561707,0.5,0.5,0.5,0.5,0.278192682610045,0.4996295229036,-0.5,-0.21677587561707,0.5,0.43355175123414,0.802760211453307,3.24534255637925,2.49538291811856,0.5,41.8536181648286
CBC_1143,CBC_1143_MSI_AV_v3_Vset3_Aset2_2024-09-27_17h11.17.983.csv,2,4,1,0,z,0,1,0,aud,A,63,1,1A,0A,0,1,z,2.49483760000112,0,1,1,1,0A,1A,A10,2.2512917986065,0.5,0.28322412438293,0.5,0.5,0.5,0.5,0.5,0.5,0.28322412438293,0.5,0.5,0.5,0.5,0.5,0.5,0.71677587561707,0.638386873481367,0.361613126518633,0.5,0.28322412438293,0.204613728027414,0.903561614572538,0.5,0.21677587561707,0.5,0.43355175123414,0.802760211453307,3.24534255637925,2.49538291811856,0.5,41.8536181648286
CBC_1143,CBC_1143_MSI_AV_v3_Vset3_Aset2_2024-09-27_17h11.17.983.csv,2,5,3,1,z,0,1,1,aud,B,27,1,3B,1B,0,1,z,3.11674579999999,0,1,1,1,1B,3B,B31,2.99573227355399,0.71677587561707,0.28322412438293,0.5,0.5,0.5,0.5,0.5,0.5,0.28322412438293,0.5,0.5,0.5,0.5,0.5,0.5,0.71677587561707,0.5,0.5,0.5,0.5,0.0808051087016765,0.501130760737936,0.5,0.21677587561707,0.5,0.43355175123414,0.802760211453307,3.24534255637925,2.49538291811856,0.5,41.8536181648286
CBC_1143,CBC_1143_MSI_AV_v3_Vset3_Aset2_2024-09-27_17h11.17.983.csv,2,6,2,3,b,1,0,2,aud,C,63,1,2C,3C,1,0,b,1.79659549999815,1,0,1,1,2C,3C,C23,3.04452243772342,0.71677587561707,0.28322412438293,0.5,0.5,0.5,0.71677587561707,0.5,0.5,0.28322412438293,0.5,0.5,0.5,0.5,0.5,0.5,0.71677587561707,0.5,0.5,0.5,0.5,0.228268767824082,0.500024840246956,0.5,0.21677587561707,0.5,0.43355175123414,0.802760211453307,3.24534255637925,2.49538291811856,0.5,41.8536181648286
CBC_1143,CBC_1143_MSI_AV_v3_Vset3_Aset2_2024-09-27_17h11.17.983.csv,2,7,2,3,z,0,1,3,aud,D,63,1,2D,3D,0,1,b,2.53672139999799,1,0,0,0,2D,3D,D23,3.09104245335832,0.71677587561707,0.28322412438293,0.5,0.5,0.5,0.71677587561707,0.5,0.5,0.28322412438293,0.5,0.71677587561707,0.5,0.5,0.5,0.5,0.71677587561707,0.410922019428132,0.589077980571868,0.5,0.71677587561707,0.046619286525857,0.191773168918937,-0.5,-0.21677587561707,0.5,0.43355175123414,0.802760211453307,3.24534255637925,2.49538291811856,0.5,41.8536181648286
CBC_1143,CBC_1143_MSI_AV_v3_Vset3_Aset2_2024-09-27_17h11.17.983.csv,2,8,1,0,b,1,0,1,aud,B,63,1,1B,0B,1,0,z,2.32420809999712,0,1,0,0,0B,1B,B10,3.13549421592915,0.71677587561707,0.28322412438293,0.5,0.5,0.5,0.71677587561707,0.5,0.5,0.28322412438293,0.5,0.71677587561707,0.5,0.5,0.5,0.28322412438293,0.71677587561707,0.410922019428132,0.589077980571868,0.5,0.71677587561707,0.0571132628002987,0.191671016731558,-0.5,-0.21677587561707,0.5,0.43355175123414,0.802760211453307,3.24534255637925,2.49538291811856,0.5,41.8536181648286
CBC_1143,CBC_1143_MSI_AV_v3_Vset3_Aset2_2024-09-27_17h11.17.983.csv,2,9,0,2,b,1,0,0,aud,A,27,1,0A,2A,1,0,b,2.91250790000231,1,0,1,1,0A,2A,A02,3.17805383034795,0.71677587561707,0.28322412438293,0.5,0.5,0.28322412438293,0.71677587561707,0.5,0.5,0.28322412438293,0.5,0.71677587561707,0.5,0.5,0.5,0.28322412438293,0.71677587561707,0.589077980571868,0.410922019428132,0.71677587561707,0.5,0.137063910122626,0.809743474455979,0.28322412438293,0.122792315117975,0.5,0.43355175123414,0.802760211453307,3.24534255637925,2.49538291811856,0.5,41.8536181648286
CBC_1143,CBC_1143_MSI_AV_v3_Vset3_Aset2_2024-09-27_17h11.17.983.csv,2,10,0,3,z,0,1,3,aud,D,9,1,0D,3D,0,1,z,1.82760880000023,0,1,1,1,3D,0D,D03,3.2188758248682,0.839568190735045,0.28322412438293,0.5,0.5,0.28322412438293,0.71677587561707,0.5,0.5,0.28322412438293,0.5,0.71677587561707,0.5,0.5,0.5,0.28322412438293,0.71677587561707,0.589077980571868,0.410922019428132,0.71677587561707,0.5,0.38593247938838,0.808112291498408,0.28322412438293,0.122792315117975,0.5,0.43355175123414,0.802760211453307,3.24534255637925,2.49538291811856,0.5,41.8536181648286
CBC_1143,CBC_1143_MSI_AV_v3_Vset3_Aset2_2024-09-27_17h11.17.983.csv,2,11,3,2,z,0,1,2,aud,C,63,1,3C,2C,0,1,z,2.84686409999813,0,1,1,1,2C,3C,C32,3.25809653802148,0.839568190735045,0.28322412438293,0.5,0.5,0.28322412438293,0.71677587561707,0.5,0.5,0.28322412438293,0.5,0.71677587561707,0.5,0.5,0.5,0.28322412438293,0.839568190735045,0.589077980571868,0.410922019428132,0.71677587561707,0.5,0.145965970559118,0.808833235484526,0.28322412438293,0.122792315117975,0.5,0.43355175123414,0.802760211453307,3.24534255637925,2.49538291811856,0.5,41.8536181648286
CBC_1143,CBC_1143_MSI_AV_v3_Vset3_Aset2_2024-09-27_17h11.17.983.csv,2,12,1,0,b,1,0,1,aud,B,63,1,1B,0B,1,0,b,1.47309080000014,1,0,1,1,1B,0B,B10,2.60268968544438,0.839568190735045,0.28322412438293,0.5,0.5,0.28322412438293,0.71677587561707,0.5,0.5,0.28322412438293,0.5,0.839568190735045,0.5,0.5,0.5,0.28322412438293,0.839568190735045,0.71677587561707,0.28322412438293,0.71677587561707,0.28322412438293,0.846102583075618,0.971000692894224,0.28322412438293,0.122792315117975,0.5,0.43355175123414,0.802760211453307,3.24534255637925,2.49538291811856,0.5,41.8536181648286
CBC_1143,CBC_1143_MSI_AV_v3_Vset3_Aset2_2024-09-27_17h11.17.983.csv,2,13,3,2,b,1,0,3,aud,D,63,1,3D,2D,1,0,b,2.29436949999763,1,0,1,1,3D,2D,D32,2.63905732961526,0.839568190735045,0.28322412438293,0.5,0.5,0.28322412438293,0.839568190735045,0.5,0.5,0.28322412438293,0.5,0.839568190735045,0.5,0.5,0.5,0.28322412438293,0.839568190735045,0.747750211174922,0.252249788825078,0.839568190735045,0.28322412438293,0.167229728089423,0.982226838614676,0.160431809264955,0.0695554918604827,0.5,0.43355175123414,0.802760211453307,3.24534255637925,2.49538291811856,0.5,41.8536181648286
CBC_1143,CBC_1143_MSI_AV_v3_Vset3_Aset2_2024-09-27_17h11.17.983.csv,2,14,3,2,z,0,1,2,aud,C,63,1,3C,2C,0,1,z,1.6527380000025,0,1,1,1,2C,3C,C32,2.67414864942653,0.839568190735045,0.28322412438293,0.5,0.5,0.28322412438293,0.839568190735045,0.5,0.5,0.28322412438293,0.5,0.839568190735045,0.5,0.5,0.5,0.28322412438293,0.909123682595528,0.626745391941831,0.373254608058169,0.839568190735045,0.5,0.531154606530296,0.886255544626956,0.160431809264955,0.0695554918604827,0.5,0.43355175123414,0.802760211453307,3.24534255637925,2.49538291811856,0.5,41.8536181648286
CBC_1143,CBC_1143_MSI_AV_v3_Vset3_Aset2_2024-09-27_17h11.17.983.csv,2,15,1,3,b,1,0,1,aud,B,27,1,1B,3B,1,0,b,1.46111370000108,1,0,1,1,1B,3B,B13,3.40119738166216,0.839568190735045,0.28322412438293,0.5,0.5,0.28322412438293,0.839568190735045,0.5,0.5,0.28322412438293,0.5,0.909123682595528,0.5,0.5,0.5,0.28322412438293,0.909123682595528,0.626745391941831,0.373254608058169,0.839568190735045,0.5,0.638722313963302,0.886668565460213,0.160431809264955,0.0695554918604827,0.5,0.43355175123414,0.802760211453307,3.24534255637925,2.49538291811856,0.5,41.8536181648286
CBC_1143,CBC_1143_MSI_AV_v3_Vset3_Aset2_2024-09-27_17h11.17.983.csv,2,16,3,0,z,0,1,0,aud,A,9,1,3A,0A,0,1,z,1.04971169999953,0,1,1,1,0A,3A,A30,3.43398720448515,0.839568190735045,0.28322412438293,0.5,0.5,0.28322412438293,0.909123682595528,0.5,0.5,0.28322412438293,0.5,0.909123682595528,0.5,0.5,0.5,0.28322412438293,0.909123682595528,0.626745391941831,0.373254608058169,0.839568190735045,0.5,0.44445272216057,0.885735554651346,0.160431809264955,0.0695554918604827,0.5,0.43355175123414,0.802760211453307,3.24534255637925,2.49538291811856,0.5,41.8536181648286
CBC_1143,CBC_1143_MSI_AV_v3_Vset3_Aset2_2024-09-27_17h11.17.983.csv,2,17,3,2,b,1,0,3,aud,D,63,1,3D,2D,1,0,b,1.49310090000108,1,0,1,1,3D,2D,D32,2.36712361413162,0.909123682595528,0.28322412438293,0.5,0.5,0.28322412438293,0.909123682595528,0.5,0.5,0.28322412438293,0.5,0.909123682595528,0.5,0.5,0.5,0.28322412438293,0.909123682595528,0.762465177756605,0.237534822243395,0.909123682595528,0.28322412438293,0.864188952634043,0.985905708316018,0.0908763174044722,0.0393995865564185,0.5,0.43355175123414,0.802760211453307,3.24534255637925,2.49538291811856,0.5,41.8536181648286
CBC_1143,CBC_1143_MSI_AV_v3_Vset3_Aset2_2024-09-27_17h11.17.983.csv,2,18,2,0,b,1,0,2,aud,C,27,1,2C,0C,1,0,b,1.35139019999951,1,0,1,1,2C,0C,C20,2.80336038090653,0.909123682595528,0.28322412438293,0.5,0.5,0.28322412438293,0.909123682595528,0.5,0.5,0.28322412438293,0.5,0.909123682595528,0.5,0.5,0.5,0.28322412438293,0.948523269151946,0.762465177756605,0.237534822243395,0.909123682595528,0.28322412438293,1.1206131534425,0.985992850978692,0.0908763174044722,0.0393995865564185,0.5,0.43355175123414,0.802760211453307,3.24534255637925,2.49538291811856,0.5,41.8536181648286
CBC_1143,CBC_1143_MSI_AV_v3_Vset3_Aset2_2024-09-27_17h11.17.983.csv,2,19,1,0,z,0,1,0,aud,A,63,1,1A,0A,0,1,z,1.76196399999935,0,1,1,1,0A,1A,A10,2.42774823594805,0.909123682595528,0.28322412438293,0.5,0.5,0.28322412438293,0.909123682595528,0.5,0.5,0.28322412438293,0.5,0.948523269151946,0.5,0.5,0.5,0.28322412438293,0.948523269151946,0.762465177756605,0.237534822243395,0.909123682595528,0.28322412438293,0.487454646804014,0.986041270784889,0.0908763174044722,0.0393995865564185,0.5,0.43355175123414,0.802760211453307,3.24534255637925,2.49538291811856,0.5,41.8536181648286
CBC_1143,CBC_1143_MSI_AV_v3_Vset3_Aset2_2024-09-27_17h11.17.983.csv,2,20,0,1,z,0,1,1,aud,B,63,0,0B,1B,1,0,z,2.35373079999954,0,1,1,0,1B,0B,B01,3.55534806148941,0.948523269151946,0.28322412438293,0.5,0.5,0.28322412438293,0.909123682595528,0.5,0.5,0.28322412438293,0.5,0.948523269151946,0.5,0.5,0.5,0.28322412438293,0.948523269151946,0.762465177756605,0.237534822243395,0.909123682595528,0.28322412438293,0.13020869850791,0.985954096719218,-0.909123682595528,-0.394152164677721,0.5,0.43355175123414,0.802760211453307,3.24534255637925,2.49538291811856,0.5,41.8536181648286
CBC_1143,CBC_1143_MSI_AV_v3_Vset3_Aset2_2024-09-27_17h11.17.983.csv,2,21,1,3,z,0,1,3,aud,D,27,1,1D,3D,0,1,z,1.34005549999893,0,1,1,1,3D,1D,D13,3.58351893845611,0.948523269151946,0.28322412438293,0.5,0.5,0.28322412438293,0.514971517917806,0.5,0.5,0.28322412438293,0.5,0.948523269151946,0.5,0.5,0.5,0.28322412438293,0.948523269151946,0.654820871263787,0.345179128736213,0.948523269151946,0.5,0.793010534188697,0.924698025944861,0.0514767308480537,0.0223178268069822,0.5,0.43355175123414,0.802760211453307,3.24534255637925,2.49538291811856,0.5,41.8536181648286
CBC_1143,CBC_1143_MSI_AV_v3_Vset3_Aset2_2024-09-27_17h11.17.983.csv,2,22,2,3,b,1,0,2,aud,C,63,1,2C,3C,1,0,b,1.89856279999913,1,0,1,1,2C,3C,C23,2.91777073208428,0.948523269151946,0.28322412438293,0.5,0.5,0.28322412438293,0.514971517917806,0.5,0.5,0.28322412438293,0.5,0.948523269151946,0.5,0.5,0.5,0.28322412438293,0.970841095958928,0.654820871263787,0.345179128736213,0.948523269151946,0.5,0.425315253802227,0.924687977029086,0.0514767308480537,0.0223178268069822,0.5,0.43355175123414,0.802760211453307,3.24534255637925,2.49538291811856,0.5,41.8536181648286
CBC_1143,CBC_1143_MSI_AV_v3_Vset3_Aset2_2024-09-27_17h11.17.983.csv,2,23,1,0,b,1,0,1,aud,B,63,1,1B,0B,1,0,b,0.986987099999169,1,0,1,1,1B,0B,B10,2.53897387105828,0.948523269151946,0.28322412438293,0.5,0.5,0.28322412438293,0.514971517917806,0.5,0.5,0.28322412438293,0.5,0.970841095958928,0.5,0.5,0.5,0.28322412438293,0.970841095958928,0.645169543187985,0.354830456812015,0.514971517917806,0.28322412438293,0.274689983239438,0.912913730383054,0.485028482082194,0.210284947805172,0.5,0.43355175123414,0.802760211453307,3.24534255637925,2.49538291811856,0.5,41.8536181648286
CBC_1143,CBC_1143_MSI_AV_v3_Vset3_Aset2_2024-09-27_17h11.17.983.csv,2,24,2,0,z,0,1,0,aud,A,27,1,2A,0A,0,1,z,1.28771299999971,0,1,1,1,0A,2A,A20,3.66356164612965,0.948523269151946,0.28322412438293,0.5,0.5,0.28322412438293,0.725256465722978,0.5,0.5,0.28322412438293,0.5,0.970841095958928,0.5,0.5,0.5,0.28322412438293,0.970841095958928,0.654820871263787,0.345179128736213,0.948523269151946,0.5,0.812004965519114,0.924659212435874,0.0514767308480537,0.0223178268069822,0.5,0.43355175123414,0.802760211453307,3.24534255637925,2.49538291811856,0.5,41.8536181648286
CBC_1143,CBC_1143_MSI_AV_v3_Vset3_Aset2_2024-09-27_17h11.17.983.csv,2,25,2,3,z,0,1,3,aud,D,63,1,2D,3D,0,1,z,1.52816089999942,0,1,1,1,3D,2D,D23,2.99573227355399,0.970841095958928,0.28322412438293,0.5,0.5,0.28322412438293,0.725256465722978,0.5,0.5,0.28322412438293,0.5,0.970841095958928,0.5,0.5,0.5,0.28322412438293,0.970841095958928,0.774155187633923,0.225844812366077,0.970841095958928,0.28322412438293,0.804181481592657,0.988339869959973,0.0291589040410716,0.0126418939110748,0.5,0.43355175123414,0.802760211453307,3.24534255637925,2.49538291811856,0.5,41.8536181648286
CBC_1143,CBC_1143_MSI_AV_v3_Vset3_Aset2_2024-09-27_17h11.17.983.csv,2,26,2,0,b,1,0,2,aud,C,27,1,2C,0C,1,0,b,1.33773519999704,1,0,1,1,2C,0C,C20,2.6149597780362,0.970841095958928,0.28322412438293,0.5,0.5,0.28322412438293,0.725256465722978,0.5,0.5,0.28322412438293,0.5,0.970841095958928,0.5,0.5,0.5,0.28322412438293,0.983482989870003,0.774155187633923,0.225844812366077,0.970841095958928,0.28322412438293,1.17243083929029,0.988364272812632,0.0291589040410716,0.0126418939110748,0.5,0.43355175123414,0.802760211453307,3.24534255637925,2.49538291811856,0.5,41.8536181648286
CBC_1143,CBC_1143_MSI_AV_v3_Vset3_Aset2_2024-09-27_17h11.17.983.csv,2,27,1,0,b,1,0,1,aud,B,63,1,1B,0B,1,0,b,1.44662770000105,1,0,1,1,1B,0B,B10,2.35137525716348,0.970841095958928,0.28322412438293,0.5,0.5,0.28322412438293,0.725256465722978,0.5,0.5,0.28322412438293,0.5,0.983482989870003,0.5,0.5,0.5,0.28322412438293,0.983482989870003,0.719157585022845,0.280842414977155,0.725256465722978,0.28322412438293,0.883876736664774,0.971964333001228,0.274743534277022,0.11911554042606,0.5,0.43355175123414,0.802760211453307,3.24534255637925,2.49538291811856,0.5,41.8536181648286
CBC_1143,CBC_1143_MSI_AV_v3_Vset3_Aset2_2024-09-27_17h11.17.983.csv,2,28,0,1,b,1,0,0,aud,A,63,1,0A,1A,1,0,b,0.969646999999895,1,0,1,1,0A,1A,A01,3.76120011569356,0.970841095958928,0.28322412438293,0.5,0.5,0.28322412438293,0.844372006149038,0.5,0.5,0.28322412438293,0.5,0.983482989870003,0.5,0.5,0.5,0.28322412438293,0.983482989870003,0.774155187633923,0.225844812366077,0.970841095958928,0.28322412438293,0.487663113896062,0.988403900359869,0.0291589040410716,0.0126418939110748,0.5,0.43355175123414,0.802760211453307,3.24534255637925,2.49538291811856,0.5,41.8536181648286
CBC_1143,CBC_1143_MSI_AV_v3_Vset3_Aset2_2024-09-27_17h11.17.983.csv,2,29,3,2,z,0,1,2,aud,C,63,1,3C,2C,0,1,z,1.30524030000197,0,1,1,1,2C,3C,C32,2.68557734525015,0.983482989870003,0.28322412438293,0.5,0.5,0.28322412438293,0.844372006149038,0.5,0.5,0.28322412438293,0.5,0.983482989870003,0.5,0.5,0.5,0.28322412438293,0.983482989870003,0.662955353438994,0.337044646561006,0.983482989870003,0.5,0.837666999939224,0.933061577430656,0.0165170101299967,0.00716097866701211,0.5,0.43355175123414,0.802760211453307,3.24534255637925,2.49538291811856,0.5,41.8536181648286
CBC_1143,CBC_1143_MSI_AV_v3_Vset3_Aset2_2024-09-27_17h11.17.983.csv,2,30,3,1,b,1,0,3,aud,D,27,1,3D,1D,1,0,b,1.36266499999874,1,0,1,1,3D,1D,D31,3.80666248977032,0.983482989870003,0.28322412438293,0.5,0.5,0.28322412438293,0.844372006149038,0.5,0.5,0.28322412438293,0.5,0.990643968537015,0.5,0.5,0.5,0.28322412438293,0.983482989870003,0.662955353438994,0.337044646561006,0.983482989870003,0.5,0.809984166061502,0.933506308210377,0.0165170101299967,0.00716097866701211,0.5,0.43355175123414,0.802760211453307,3.24534255637925,2.49538291811856,0.5,41.8536181648286
CBC_1143,CBC_1143_MSI_AV_v3_Vset3_Aset2_2024-09-27_17h11.17.983.csv,2,31,1,0,z,0,1,0,aud,A,63,1,1A,0A,0,1,z,1.74508790000073,0,1,1,1,0A,1A,A10,2.4423470353692,0.983482989870003,0.28322412438293,0.5,0.5,0.28322412438293,0.844372006149038,0.5,0.5,0.28322412438293,0.5,0.990643968537015,0.5,0.5,0.5,0.28322412438293,0.990643968537015,0.776409146837414,0.223590853162586,0.983482989870003,0.28322412438293,0.488258598417095,0.988773199355457,0.0165170101299967,0.00716097866701211,0.5,0.43355175123414,0.802760211453307,3.24534255637925,2.49538291811856,0.5,41.8536181648286
CBC_1143,CBC_1143_MSI_AV_v3_Vset3_Aset2_2024-09-27_17h11.17.983.csv,2,32,3,2,b,1,0,3,aud,D,63,1,3D,2D,1,0,b,1.77623889999995,1,0,1,1,3D,2D,D32,2.46385324059017,0.990643968537015,0.28322412438293,0.5,0.5,0.28322412438293,0.844372006149038,0.5,0.5,0.28322412438293,0.5,0.990643968537015,0.5,0.5,0.5,0.28322412438293,0.990643968537015,0.777666050388524,0.222333949611476,0.990643968537015,0.28322412438293,0.451815067138215,0.98899670494387,0.00935603146298458,0.00405632382537868,0.5,0.43355175123414,0.802760211453307,3.24534255637925,2.49538291811856,0.5,41.8536181648286
CBC_1143,CBC_1143_MSI_AV_v3_Vset3_Aset2_2024-09-27_17h11.17.983.csv,2,33,2,1,z,0,1,1,aud,B,9,1,2B,1B,0,1,z,1.43356269999822,0,1,1,1,1B,2B,B21,3.87120101090789,0.990643968537015,0.28322412438293,0.5,0.5,0.28322412438293,0.844372006149038,0.5,0.5,0.28322412438293,0.5,0.990643968537015,0.5,0.5,0.5,0.28322412438293,0.994700292362394,0.628079134560193,0.371920865439807,0.844372006149038,0.5,0.656880259701276,0.888762938177243,0.155627993850962,0.0674727892751406,0.5,0.43355175123414,0.802760211453307,3.24534255637925,2.49538291811856,0.5,41.8536181648286
CBC_1143,CBC_1143_MSI_AV_v3_Vset3_Aset2_2024-09-27_17h11.17.983.csv,2,34,1,0,z,0,1,0,aud,A,63,1,1A,0A,0,1,z,1.4090720999975,0,1,1,1,0A,1A,A10,2.28238238567653,0.990643968537015,0.28322412438293,0.5,0.5,0.28322412438293,0.911844795424178,0.5,0.5,0.28322412438293,0.5,0.990643968537015,0.5,0.5,0.5,0.28322412438293,0.994700292362394,0.777666050388524,0.222333949611476,0.990643968537015,0.28322412438293,1.03331333113596,0.98894525165673,0.00935603146298458,0.00405632382537868,0.5,0.43355175123414,0.802760211453307,3.24534255637925,2.49538291811856,0.5,41.8536181648286
CBC_1143,CBC_1143_MSI_AV_v3_Vset3_Aset2_2024-09-27_17h11.17.983.csv,2,35,2,1,b,1,0,2,aud,C,9,1,2C,1C,1,0,b,1.18132589999914,1,0,1,1,2C,1C,C21,3.91202300542815,0.994700292362394,0.28322412438293,0.5,0.5,0.28322412438293,0.911844795424178,0.5,0.5,0.28322412438293,0.5,0.990643968537015,0.5,0.5,0.5,0.28322412438293,0.994700292362394,0.6645744989726,0.3354255010274,0.990643968537015,0.5,0.835937686242976,0.935087466234767,0.00935603146298458,0.00405632382537868,0.5,0.43355175123414,0.802760211453307,3.24534255637925,2.49538291811856,0.5,41.8536181648286
CBC_1143,CBC_1143_MSI_AV_v3_Vset3_Aset2_2024-09-27_17h11.17.983.csv,2,36,1,0,b,1,0,1,aud,B,63,1,1B,0B,1,0,b,0.999561099999482,1,0,1,1,1B,0B,B10,2.32238772029023,0.994700292362394,0.28322412438293,0.5,0.5,0.28322412438293,0.911844795424178,0.5,0.5,0.28322412438293,0.5,0.994700292362394,0.5,0.5,0.5,0.28322412438293,0.994700292362394,0.763006032799645,0.236993967200355,0.911844795424178,0.28322412438293,0.691482023138889,0.986158900628301,0.0881552045758216,0.0382198433242513,0.5,0.43355175123414,0.802760211453307,3.24534255637925,2.49538291811856,0.5,41.8536181648286
CBC_1143,CBC_1143_MSI_AV_v3_Vset3_Aset2_2024-09-27_17h11.17.983.csv,2,37,0,1,b,1,0,0,aud,A,63,0,0A,1A,0,1,b,1.75409980000222,1,0,1,0,0A,1A,A01,3.25809653802148,0.994700292362394,0.28322412438293,0.5,0.5,0.28322412438293,0.95006463874843,0.5,0.5,0.28322412438293,0.5,0.994700292362394,0.5,0.5,0.5,0.28322412438293,0.994700292362394,0.778371771701289,0.221628228298711,0.994700292362394,0.28322412438293,0.475195013294301,0.98911847930351,-0.994700292362394,-0.431254053706827,0.5,0.43355175123414,0.802760211453307,3.24534255637925,2.49538291811856,0.5,41.8536181648286
CBC_1143,CBC_1143_MSI_AV_v3_Vset3_Aset2_2024-09-27_17h11.17.983.csv,2,38,0,1,z,0,1,1,aud,B,63,1,0B,1B,0,1,z,1.56761499999811,0,1,1,1,1B,0B,B01,3.27714473299218,0.563446238655567,0.28322412438293,0.5,0.5,0.28322412438293,0.95006463874843,0.5,0.5,0.28322412438293,0.5,0.994700292362394,0.5,0.5,0.5,0.28322412438293,0.994700292362394,0.770350518994583,0.229649481005418,0.95006463874843,0.28322412438293,0.739066124137443,0.987654393511457,0.0499353612515703,0.0216495633191277,0.5,0.43355175123414,0.802760211453307,3.24534255637925,2.49538291811856,0.5,41.8536181648286
CBC_1143,CBC_1143_MSI_AV_v3_Vset3_Aset2_2024-09-27_17h11.17.983.csv,2,39,1,3,z,0,1,3,aud,D,27,1,1D,3D,0,1,z,2.01017509999838,0,1,1,1,3D,1D,D13,3.29583686600433,0.563446238655567,0.28322412438293,0.5,0.5,0.28322412438293,0.971714202067557,0.5,0.5,0.28322412438293,0.5,0.994700292362394,0.5,0.5,0.5,0.28322412438293,0.994700292362394,0.665484778082338,0.334515221917662,0.994700292362394,0.5,0.368301894094489,0.936038442306318,0.0052997076376059,0.00229769752731298,0.5,0.43355175123414,0.802760211453307,3.24534255637925,2.49538291811856,0.5,41.8536181648286
CBC_1143,CBC_1143_MSI_AV_v3_Vset3_Aset2_2024-09-27_17h11.17.983.csv,2,40,3,2,z,0,1,2,aud,C,63,1,3C,2C,0,1,z,1.49455320000015,0,1,1,1,2C,3C,C32,2.62103882411258,0.563446238655567,0.28322412438293,0.5,0.5,0.28322412438293,0.971714202067557,0.5,0.5,0.28322412438293,0.5,0.994700292362394,0.5,0.5,0.5,0.28322412438293,0.996997989889707,0.665484778082338,0.334515221917662,0.994700292362394,0.5,0.719432954567742,0.935875922082694,0.0052997076376059,0.00229769752731298,0.5,0.43355175123414,0.802760211453307,3.24534255637925,2.49538291811856,0.5,41.8536181648286
CBC_1143,CBC_1143_MSI_AV_v3_Vset3_Aset2_2024-09-27_17h11.17.983.csv,2,41,0,2,b,1,0,0,aud,A,27,1,0A,2A,1,0,z,2.11464789999991,0,1,0,0,2A,0A,A02,3.3322045101752,0.563446238655567,0.28322412438293,0.5,0.5,0.28322412438293,0.971714202067557,0.5,0.5,0.28322412438293,0.5,0.996997989889707,0.5,0.5,0.5,0.28322412438293,0.996997989889707,0.470169512877408,0.529830487122592,0.5,0.563446238655567,0.136925029500963,0.382447678311245,-0.5,-0.21677587561707,0.5,0.43355175123414,0.802760211453307,3.24534255637925,2.49538291811856,0.5,41.8536181648286
CBC_1143,CBC_1143_MSI_AV_v3_Vset3_Aset2_2024-09-27_17h11.17.983.csv,2,42,2,3,z,0,1,3,aud,D,63,1,2D,3D,0,1,z,2.28986499999701,0,1,1,1,3D,2D,D23,2.94443897916644,0.563446238655567,0.28322412438293,0.28322412438293,0.5,0.28322412438293,0.971714202067557,0.5,0.5,0.28322412438293,0.5,0.996997989889707,0.5,0.5,0.5,0.28322412438293,0.996997989889707,0.778769542233814,0.221230457766186,0.996997989889707,0.28322412438293,0.13009570815735,0.989172808133723,0.00300201011029289,0.00130152674054007,0.5,0.43355175123414,0.802760211453307,3.24534255637925,2.49538291811856,0.5,41.8536181648286
CBC_1143,CBC_1143_MSI_AV_v3_Vset3_Aset2_2024-09-27_17h11.17.983.csv,2,43,1,3,b,1,0,1,aud,B,27,1,1B,3B,1,0,b,1.5321161999982,1,0,1,1,1B,3B,B13,3.36729582998647,0.563446238655567,0.28322412438293,0.28322412438293,0.5,0.28322412438293,0.971714202067557,0.5,0.5,0.28322412438293,0.5,0.996997989889707,0.5,0.5,0.5,0.28322412438293,0.998299516630247,0.660260124351883,0.339739875648117,0.971714202067557,0.5,0.677947864639342,0.930614840703676,0.0282857979324426,0.0122633572286655,0.5,0.43355175123414,0.802760211453307,3.24534255637925,2.49538291811856,0.5,41.8536181648286
CBC_1143,CBC_1143_MSI_AV_v3_Vset3_Aset2_2024-09-27_17h11.17.983.csv,2,44,3,2,z,0,1,2,aud,C,63,1,3C,2C,0,1,z,2.37759560000086,0,1,1,1,2C,3C,C32,2.46809953147162,0.563446238655567,0.28322412438293,0.28322412438293,0.5,0.28322412438293,0.983977559296223,0.5,0.5,0.28322412438293,0.5,0.996997989889707,0.5,0.5,0.5,0.28322412438293,0.998299516630247,0.665998215510738,0.334001784489262,0.996997989889707,0.5,0.222684611796973,0.936311608288418,0.00300201011029289,0.00130152674054007,0.5,0.43355175123414,0.802760211453307,3.24534255637925,2.49538291811856,0.5,41.8536181648286
CBC_1143,CBC_1143_MSI_TV_v3_Vset6_Tset3_2024-09-27_17h26.52.082.csv,3,1,3,1,z,0,1,1,tac,B,27,1,3B,1B,0,1,b,2.51127479999923,1,0,0,0,3B,1B,B31,2.77258872223978,0.5,0.5,0.5,0.5,0.5,0.5,0.5,0.5,0.5,0.5,0.5,0.5,0.5,0.5,0.5,0.5,0.5,0.5,0.5,0.5,0.149640750219947,0.500732268113786,-0.5,-0.0312836220644946,0.5,0.0625672441289893,0.947370520220574,9.81676184486152,2.83546157337306,0.5,67.4071348254474
CBC_1143,CBC_1143_MSI_TV_v3_Vset6_Tset3_2024-09-27_17h26.52.082.csv,3,2,2,3,b,1,0,2,tac,C,63,1,2C,3C,1,0,z,3.0329868000008,0,1,0,0,3C,2C,C23,2.83321334405622,0.5,0.5,0.5,0.5,0.5,0.5,0.5,0.468716377935505,0.5,0.5,0.5,0.5,0.5,0.5,0.5,0.5,0.5,0.5,0.5,0.5,0.108536397602717,0.499627359402842,-0.5,-0.0312836220644946,0.5,0.0625672441289893,0.947370520220574,9.81676184486152,2.83546157337306,0.5,67.4071348254474
CBC_1143,CBC_1143_MSI_TV_v3_Vset6_Tset3_2024-09-27_17h26.52.082.csv,3,3,2,3,z,0,1,3,tac,D,63,1,2D,3D,0,1,z,2.4306116000007,0,1,1,1,3D,2D,D23,2.89037175789616,0.5,0.5,0.5,0.5,0.5,0.5,0.5,0.468716377935505,0.5,0.5,0.5,0.468716377935505,0.5,0.5,0.5,0.5,0.5,0.5,0.5,0.5,0.157070176995266,0.500542021597332,0.5,0.0312836220644946,0.5,0.0625672441289893,0.947370520220574,9.81676184486152,2.83546157337306,0.5,67.4071348254474
CBC_1143,CBC_1143_MSI_TV_v3_Vset6_Tset3_2024-09-27_17h26.52.082.csv,3,4,1,0,b,1,0,1,tac,B,63,0,1B,0B,0,1,b,2.53985209999882,1,0,1,0,1B,0B,B10,2.94443897916644,0.5,0.5,0.5,0.5,0.5,0.5,0.5,0.468716377935505,0.5,0.5,0.5,0.468716377935505,0.5,0.5,0.5,0.531283622064495,0.5,0.5,0.5,0.5,0.1470719768843,0.500754016415415,-0.5,-0.0312836220644946,0.5,0.0625672441289893,0.947370520220574,9.81676184486152,2.83546157337306,0.5,67.4071348254474
CBC_1143,CBC_1143_MSI_TV_v3_Vset6_Tset3_2024-09-27_17h26.52.082.csv,3,5,3,0,z,0,1,0,tac,A,9,1,3A,0A,0,1,z,2.70084320000024,0,1,1,1,0A,3A,A30,2.99573227355399,0.5,0.5,0.5,0.5,0.5,0.468716377935505,0.5,0.468716377935505,0.5,0.5,0.5,0.468716377935505,0.5,0.5,0.5,0.531283622064495,0.5,0.5,0.5,0.5,0.132955718723418,0.499378981325668,0.5,0.0312836220644946,0.5,0.0625672441289893,0.947370520220574,9.81676184486152,2.83546157337306,0.5,67.4071348254474
CBC_1143,CBC_1143_MSI_TV_v3_Vset6_Tset3_2024-09-27_17h26.52.082.csv,3,6,2,3,z,0,1,3,tac,D,63,1,2D,3D,0,1,z,1.82319950000237,0,1,1,1,3D,2D,D23,2.35137525716348,0.531283622064495,0.5,0.5,0.5,0.5,0.468716377935505,0.5,0.468716377935505,0.5,0.5,0.5,0.468716377935505,0.5,0.5,0.5,0.531283622064495,0.515167322255089,0.484832677744911,0.531283622064495,0.5,0.320627199038801,0.698327008035137,0.468716377935505,0.0293262920455464,0.5,0.0625672441289893,0.947370520220574,9.81676184486152,2.83546157337306,0.5,67.4071348254474
CBC_1143,CBC_1143_MSI_TV_v3_Vset6_Tset3_2024-09-27_17h26.52.082.csv,3,7,2,0,b,1,0,2,tac,C,27,1,2C,0C,1,0,z,2.64121940000041,0,1,0,0,0C,2C,C20,3.09104245335832,0.531283622064495,0.5,0.5,0.5,0.5,0.468716377935505,0.5,0.468716377935505,0.5,0.5,0.5,0.468716377935505,0.5,0.5,0.5,0.560609914110041,0.5,0.5,0.5,0.5,0.137757379088563,0.498913278543104,-0.5,-0.0312836220644946,0.5,0.0625672441289893,0.947370520220574,9.81676184486152,2.83546157337306,0.5,67.4071348254474
CBC_1143,CBC_1143_MSI_TV_v3_Vset6_Tset3_2024-09-27_17h26.52.082.csv,3,8,1,0,z,0,1,0,tac,A,63,1,1A,0A,0,1,z,3.01902619999964,0,1,1,1,0A,1A,A10,3.13549421592915,0.531283622064495,0.5,0.5,0.5,0.5,0.468716377935505,0.5,0.468716377935505,0.468716377935505,0.5,0.5,0.468716377935505,0.5,0.5,0.5,0.560609914110041,0.515167322255089,0.484832677744911,0.531283622064495,0.5,0.152228014844266,0.698386704944923,0.468716377935505,0.0293262920455464,0.5,0.0625672441289893,0.947370520220574,9.81676184486152,2.83546157337306,0.5,67.4071348254474
CBC_1143,CBC_1143_MSI_TV_v3_Vset6_Tset3_2024-09-27_17h26.52.082.csv,3,9,0,1,z,0,1,1,tac,B,63,1,0B,1B,0,1,b,2.94115470000179,1,0,0,0,0B,1B,B01,3.17805383034795,0.560609914110041,0.5,0.5,0.5,0.5,0.468716377935505,0.5,0.468716377935505,0.468716377935505,0.5,0.5,0.468716377935505,0.5,0.5,0.5,0.560609914110041,0.516146945988033,0.483853054011967,0.5,0.468716377935505,0.163194854129766,0.711873971340783,-0.5,-0.0312836220644946,0.5,0.0625672441289893,0.947370520220574,9.81676184486152,2.83546157337306,0.5,67.4071348254474
CBC_1143,CBC_1143_MSI_TV_v3_Vset6_Tset3_2024-09-27_17h26.52.082.csv,3,10,3,1,b,1,0,3,tac,D,27,0,3D,1D,0,1,b,1.79352199999994,1,0,1,0,3D,1D,D31,3.2188758248682,0.560609914110041,0.5,0.5,0.5,0.468716377935505,0.468716377935505,0.5,0.468716377935505,0.468716377935505,0.5,0.5,0.468716377935505,0.5,0.5,0.5,0.560609914110041,0.528573141408403,0.471426858591597,0.560609914110041,0.5,0.428749344911724,0.829929966556482,-0.560609914110041,-0.0350758173572547,0.5,0.0625672441289893,0.947370520220574,9.81676184486152,2.83546157337306,0.5,67.4071348254474
CBC_1143,CBC_1143_MSI_TV_v3_Vset6_Tset3_2024-09-27_17h26.52.082.csv,3,11,2,3,b,1,0,2,tac,C,63,1,2C,3C,1,0,b,2.48560110000108,1,0,1,1,2C,3C,C23,2.56494935746154,0.560609914110041,0.5,0.5,0.5,0.468716377935505,0.468716377935505,0.5,0.468716377935505,0.468716377935505,0.5,0.5,0.468716377935505,0.5,0.5,0.5,0.525534096752786,0.516146945988033,0.483853054011967,0.5,0.468716377935505,0.220333258575796,0.711126783991939,0.5,0.0312836220644946,0.5,0.0625672441289893,0.947370520220574,9.81676184486152,2.83546157337306,0.5,67.4071348254474
CBC_1143,CBC_1143_MSI_TV_v3_Vset6_Tset3_2024-09-27_17h26.52.082.csv,3,12,0,1,z,0,1,1,tac,B,63,1,0B,1B,0,1,b,2.71216040000218,1,0,0,0,0B,1B,B01,2.60268968544438,0.560609914110041,0.5,0.5,0.5,0.468716377935505,0.468716377935505,0.5,0.468716377935505,0.468716377935505,0.5,0.531283622064495,0.468716377935505,0.5,0.5,0.5,0.525534096752786,0.5,0.5,0.468716377935505,0.468716377935505,0.132498565869987,0.501116008202621,-0.468716377935505,-0.0293262920455464,0.5,0.0625672441289893,0.947370520220574,9.81676184486152,2.83546157337306,0.5,67.4071348254474
CBC_1143,CBC_1143_MSI_TV_v3_Vset6_Tset3_2024-09-27_17h26.52.082.csv,3,13,1,0,z,0,1,0,tac,A,63,0,1A,0A,1,0,b,2.5457544000019,1,0,0,1,1A,0A,A10,2.63905732961526,0.560609914110041,0.5,0.5,0.5,0.439390085889959,0.468716377935505,0.5,0.468716377935505,0.468716377935505,0.5,0.531283622064495,0.468716377935505,0.5,0.5,0.5,0.525534096752786,0.471426858591597,0.528573141408403,0.5,0.560609914110041,0.0512154719359825,0.168784789343339,0.5,0.0312836220644946,0.5,0.0625672441289893,0.947370520220574,9.81676184486152,2.83546157337306,0.5,67.4071348254474
CBC_1143,CBC_1143_MSI_TV_v3_Vset6_Tset3_2024-09-27_17h26.52.082.csv,3,14,2,1,b,1,0,2,tac,C,9,1,2C,1C,1,0,b,2.63182400000005,1,0,1,1,2C,1C,C21,3.36729582998647,0.560609914110041,0.531283622064495,0.5,0.5,0.439390085889959,0.468716377935505,0.5,0.468716377935505,0.468716377935505,0.5,0.531283622064495,0.468716377935505,0.5,0.5,0.5,0.525534096752786,0.515167322255089,0.484832677744911,0.531283622064495,0.5,0.196463118040245,0.699108541704008,0.468716377935505,0.0293262920455464,0.5,0.0625672441289893,0.947370520220574,9.81676184486152,2.83546157337306,0.5,67.4071348254474
CBC_1143,CBC_1143_MSI_TV_v3_Vset6_Tset3_2024-09-27_17h26.52.082.csv,3,15,0,1,b,1,0,0,tac,A,63,1,0A,1A,1,0,b,2.89197769999737,1,0,1,1,0A,1A,A01,3.40119738166216,0.560609914110041,0.531283622064495,0.5,0.5,0.439390085889959,0.468716377935505,0.5,0.468716377935505,0.468716377935505,0.5,0.560609914110041,0.468716377935505,0.5,0.5,0.5,0.525534096752786,0.513429098659331,0.486570901340669,0.560609914110041,0.531283622064495,0.161101842191047,0.679718106036499,0.439390085889959,0.0274914267717346,0.5,0.0625672441289893,0.947370520220574,9.81676184486152,2.83546157337306,0.5,67.4071348254474
CBC_1143,CBC_1143_MSI_TV_v3_Vset6_Tset3_2024-09-27_17h26.52.082.csv,3,16,1,3,z,0,1,3,tac,D,27,1,1D,3D,0,1,z,2.48981580000327,0,1,1,1,3D,1D,D13,3.43398720448515,0.588101340881776,0.531283622064495,0.5,0.5,0.439390085889959,0.468716377935505,0.5,0.468716377935505,0.468716377935505,0.5,0.560609914110041,0.468716377935505,0.5,0.5,0.5,0.525534096752786,0.5124491700635,0.4875508299365,0.525534096752786,0.5,0.204621156913161,0.667201662785426,0.474465903247214,0.0296860239993498,0.5,0.0625672441289893,0.947370520220574,9.81676184486152,2.83546157337306,0.5,67.4071348254474
CBC_1143,CBC_1143_MSI_TV_v3_Vset6_Tset3_2024-09-27_17h26.52.082.csv,3,17,1,0,b,1,0,1,tac,B,63,1,1B,0B,1,0,z,2.70828230000188,0,1,0,0,0B,1B,B10,2.77258872223978,0.588101340881776,0.531283622064495,0.5,0.5,0.439390085889959,0.468716377935505,0.5,0.468716377935505,0.468716377935505,0.5,0.560609914110041,0.468716377935505,0.5,0.5,0.5,0.555220120752136,0.483853054011967,0.516146945988033,0.439390085889959,0.468716377935505,0.077149011999631,0.288382363251706,-0.439390085889959,-0.0274914267717346,0.5,0.0625672441289893,0.947370520220574,9.81676184486152,2.83546157337306,0.5,67.4071348254474
CBC_1143,CBC_1143_MSI_TV_v3_Vset6_Tset3_2024-09-27_17h26.52.082.csv,3,18,3,2,z,0,1,2,tac,C,63,0,3C,2C,1,0,z,2.73125029999937,0,1,1,0,2C,3C,C32,3.49650756146648,0.588101340881776,0.531283622064495,0.5,0.5,0.411898659118224,0.468716377935505,0.5,0.468716377935505,0.468716377935505,0.5,0.560609914110041,0.468716377935505,0.5,0.5,0.5,0.555220120752136,0.544637709579884,0.455362290420116,0.560609914110041,0.468716377935505,0.228134630479559,0.923297217332617,-0.560609914110041,-0.0350758173572547,0.5,0.0625672441289893,0.947370520220574,9.81676184486152,2.83546157337306,0.5,67.4071348254474
CBC_1143,CBC_1143_MSI_TV_v3_Vset6_Tset3_2024-09-27_17h26.52.082.csv,3,19,0,2,b,1,0,0,tac,A,27,1,0A,2A,1,0,b,3.21413659999962,1,0,1,1,0A,2A,A02,3.52636052461616,0.588101340881776,0.531283622064495,0.5,0.5,0.411898659118224,0.468716377935505,0.5,0.468716377935505,0.468716377935505,0.5,0.525534096752786,0.468716377935505,0.5,0.5,0.5,0.555220120752136,0.540483977719566,0.459516022280434,0.588101340881776,0.5,0.146638327814428,0.904696561896241,0.411898659118224,0.0257713639614533,0.5,0.0625672441289893,0.947370520220574,9.81676184486152,2.83546157337306,0.5,67.4071348254474
CBC_1143,CBC_1143_MSI_TV_v3_Vset6_Tset3_2024-09-27_17h26.52.082.csv,3,20,2,3,z,0,1,3,tac,D,63,1,2D,3D,0,1,z,1.5736055999987,0,1,1,1,3D,2D,D23,2.4567357728213,0.613872704843229,0.531283622064495,0.5,0.5,0.411898659118224,0.468716377935505,0.5,0.468716377935505,0.468716377935505,0.5,0.525534096752786,0.468716377935505,0.5,0.5,0.5,0.555220120752136,0.526165214094277,0.473834785905723,0.555220120752136,0.5,0.437065837555483,0.810734844652271,0.444779879247864,0.0278286512885635,0.5,0.0625672441289893,0.947370520220574,9.81676184486152,2.83546157337306,0.5,67.4071348254474
CBC_1143,CBC_1143_MSI_TV_v3_Vset6_Tset3_2024-09-27_17h26.52.082.csv,3,21,1,3,b,1,0,1,tac,B,27,1,1B,3B,1,0,b,2.60610679999809,1,0,1,1,1B,3B,B13,3.58351893845611,0.613872704843229,0.531283622064495,0.5,0.5,0.411898659118224,0.468716377935505,0.5,0.468716377935505,0.468716377935505,0.5,0.525534096752786,0.468716377935505,0.5,0.5,0.5,0.5830487720407,0.5,0.5,0.468716377935505,0.468716377935505,0.140722259664296,0.498853490395929,0.531283622064495,0.0332409520834429,0.5,0.0625672441289893,0.947370520220574,9.81676184486152,2.83546157337306,0.5,67.4071348254474
CBC_1143,CBC_1143_MSI_TV_v3_Vset6_Tset3_2024-09-27_17h26.52.082.csv,3,22,2,3,b,1,0,2,tac,C,63,1,2C,3C,1,0,b,2.49431759999788,1,0,1,1,2C,3C,C23,2.51230562397611,0.613872704843229,0.531283622064495,0.5,0.5,0.411898659118224,0.501957330018948,0.5,0.468716377935505,0.468716377935505,0.5,0.525534096752786,0.468716377935505,0.5,0.5,0.5,0.5830487720407,0.528573141408403,0.471426858591597,0.525534096752786,0.468716377935505,0.262246566099655,0.83093508789167,0.474465903247214,0.0296860239993498,0.5,0.0625672441289893,0.947370520220574,9.81676184486152,2.83546157337306,0.5,67.4071348254474
CBC_1143,CBC_1143_MSI_TV_v3_Vset6_Tset3_2024-09-27_17h26.52.082.csv,3,23,1,0,z,0,1,0,tac,A,63,0,1A,0A,1,0,z,2.89354040000035,0,1,1,0,0A,1A,A10,2.53897387105828,0.613872704843229,0.531283622064495,0.5,0.5,0.411898659118224,0.501957330018948,0.5,0.468716377935505,0.468716377935505,0.5,0.555220120752136,0.468716377935505,0.5,0.5,0.5,0.5830487720407,0.536060178352134,0.463939821647866,0.613872704843229,0.531283622064495,0.198206551592589,0.881669346566064,-0.613872704843229,-0.0384083233880493,0.5,0.0625672441289893,0.947370520220574,9.81676184486152,2.83546157337306,0.5,67.4071348254474
CBC_1143,CBC_1143_MSI_TV_v3_Vset6_Tset3_2024-09-27_17h26.52.082.csv,3,24,1,2,b,1,0,1,tac,B,9,1,1B,2B,1,0,b,2.42263359999924,1,0,1,1,1B,2B,B12,3.66356164612965,0.57546438145518,0.531283622064495,0.5,0.5,0.411898659118224,0.501957330018948,0.5,0.468716377935505,0.468716377935505,0.5,0.555220120752136,0.468716377935505,0.5,0.5,0.5,0.5830487720407,0.500976753181152,0.499023246818849,0.501957330018948,0.5,0.161697791552372,0.51276980892178,0.498042669981052,0.0311611573193581,0.5,0.0625672441289893,0.947370520220574,9.81676184486152,2.83546157337306,0.5,67.4071348254474
CBC_1143,CBC_1143_MSI_TV_v3_Vset6_Tset3_2024-09-27_17h26.52.082.csv,3,25,3,2,z,0,1,2,tac,C,63,1,3C,2C,0,1,z,2.65167389999988,0,1,1,1,2C,3C,C32,2.99573227355399,0.57546438145518,0.531283622064495,0.5,0.5,0.411898659118224,0.533118487338306,0.5,0.468716377935505,0.468716377935505,0.5,0.555220120752136,0.468716377935505,0.5,0.5,0.5,0.5830487720407,0.542240775149387,0.457759224850613,0.555220120752136,0.468716377935505,0.24738842388623,0.91330090062101,0.444779879247864,0.0278286512885635,0.5,0.0625672441289893,0.947370520220574,9.81676184486152,2.83546157337306,0.5,67.4071348254474
CBC_1143,CBC_1143_MSI_TV_v3_Vset6_Tset3_2024-09-27_17h26.52.082.csv,3,26,3,2,b,1,0,3,tac,D,63,0,3D,2D,0,1,b,1.80161930000031,1,0,1,0,3D,2D,D32,3.71357206670431,0.57546438145518,0.531283622064495,0.5,0.5,0.411898659118224,0.533118487338306,0.5,0.468716377935505,0.468716377935505,0.5,0.5830487720407,0.468716377935505,0.5,0.5,0.5,0.5830487720407,0.538340273395176,0.461659726604824,0.5830487720407,0.5,0.504236160284413,0.894336913365749,-0.5830487720407,-0.0364797548593779,0.5,0.0625672441289893,0.947370520220574,9.81676184486152,2.83546157337306,0.5,67.4071348254474
CBC_1143,CBC_1143_MSI_TV_v3_Vset6_Tset3_2024-09-27_17h26.52.082.csv,3,27,1,0,b,1,0,1,tac,B,63,1,1B,0B,1,0,b,2.24119079999946,1,0,1,1,1B,0B,B10,2.63905732961526,0.57546438145518,0.531283622064495,0.5,0.5,0.411898659118224,0.533118487338306,0.5,0.468716377935505,0.468716377935505,0.5,0.5830487720407,0.468716377935505,0.5,0.5,0.5,0.546569017181322,0.564136311533929,0.435863688466071,0.533118487338306,0.411898659118224,0.375570154804742,0.972529330973675,0.466881512661694,0.029211489582016,0.5,0.0625672441289893,0.947370520220574,9.81676184486152,2.83546157337306,0.5,67.4071348254474
CBC_1143,CBC_1143_MSI_TV_v3_Vset6_Tset3_2024-09-27_17h26.52.082.csv,3,28,2,0,z,0,1,0,tac,A,27,1,2A,0A,0,1,z,3.11095620000197,0,1,1,1,0A,2A,A20,3.76120011569356,0.57546438145518,0.531283622064495,0.5,0.5,0.411898659118224,0.562329976920322,0.5,0.468716377935505,0.468716377935505,0.5,0.5830487720407,0.468716377935505,0.5,0.5,0.5,0.546569017181322,0.535084556381621,0.464915443618379,0.57546438145518,0.5,0.16459659132475,0.874850799976086,0.42453561854482,0.0265620236869452,0.5,0.0625672441289893,0.947370520220574,9.81676184486152,2.83546157337306,0.5,67.4071348254474
CBC_1143,CBC_1143_MSI_TV_v3_Vset6_Tset3_2024-09-27_17h26.52.082.csv,3,29,3,1,b,1,0,3,tac,D,27,1,3D,1D,1,0,b,1.47834689999945,1,0,1,1,3D,1D,D31,3.09104245335832,0.602026405142125,0.531283622064495,0.5,0.5,0.411898659118224,0.562329976920322,0.5,0.468716377935505,0.468716377935505,0.5,0.5830487720407,0.468716377935505,0.5,0.5,0.5,0.546569017181322,0.522248421469013,0.477751578530987,0.546569017181322,0.5,0.388670686454895,0.775055279267604,0.453430982818678,0.0283699269976638,0.5,0.0625672441289893,0.947370520220574,9.81676184486152,2.83546157337306,0.5,67.4071348254474
CBC_1143,CBC_1143_MSI_TV_v3_Vset6_Tset3_2024-09-27_17h26.52.082.csv,3,30,0,1,b,1,0,0,tac,A,63,1,0A,1A,1,0,b,2.93940830000065,1,0,1,1,0A,1A,A01,3.11351530921037,0.602026405142125,0.531283622064495,0.5,0.5,0.411898659118224,0.562329976920322,0.5,0.468716377935505,0.468716377935505,0.5,0.5830487720407,0.468716377935505,0.5,0.5,0.5,0.574938944178986,0.531210693181634,0.468789306818366,0.602026405142125,0.531283622064495,0.188646583553627,0.850217702889605,0.397973594857875,0.0249001110663641,0.5,0.0625672441289893,0.947370520220574,9.81676184486152,2.83546157337306,0.5,67.4071348254474
CBC_1143,CBC_1143_MSI_TV_v3_Vset6_Tset3_2024-09-27_17h26.52.082.csv,3,31,0,2,z,0,1,2,tac,C,27,1,0C,2C,0,1,z,2.33553639999809,0,1,1,1,2C,0C,C02,3.8286413964891,0.626926516208489,0.531283622064495,0.5,0.5,0.411898659118224,0.562329976920322,0.5,0.468716377935505,0.468716377935505,0.5,0.5830487720407,0.468716377935505,0.5,0.5,0.5,0.574938944178986,0.554352625254688,0.445647374745312,0.5830487720407,0.468716377935505,0.342169463284389,0.953596455525051,0.4169512279593,0.0260874892696114,0.5,0.0625672441289893,0.947370520220574,9.81676184486152,2.83546157337306,0.5,67.4071348254474
CBC_1143,CBC_1143_MSI_TV_v3_Vset6_Tset3_2024-09-27_17h26.52.082.csv,3,32,3,2,b,1,0,3,tac,D,63,1,3D,2D,1,0,b,1.13530239999818,1,0,1,1,3D,2D,D32,3.15700042115011,0.626926516208489,0.531283622064495,0.5,0.5,0.411898659118224,0.562329976920322,0.5,0.468716377935505,0.468716377935505,0.5,0.609136261310311,0.468716377935505,0.5,0.5,0.5,0.574938944178986,0.534857302633231,0.465142697366769,0.574938944178986,0.5,0.0834519793186593,0.874460404861172,0.425061055821014,0.0265948988492794,0.5,0.0625672441289893,0.947370520220574,9.81676184486152,2.83546157337306,0.5,67.4071348254474
CBC_1143,CBC_1143_MSI_TV_v3_Vset6_Tset3_2024-09-27_17h26.52.082.csv,3,33,0,1,z,0,1,1,tac,B,63,1,0B,1B,0,1,z,2.30460220000168,0,1,1,1,1B,0B,B01,2.77258872223978,0.626926516208489,0.531283622064495,0.5,0.5,0.411898659118224,0.562329976920322,0.5,0.468716377935505,0.468716377935505,0.5,0.609136261310311,0.468716377935505,0.5,0.5,0.5,0.601533843028265,0.57720534597186,0.42279465402814,0.562329976920322,0.411898659118224,0.305307463298106,0.986565263281829,0.437670023079678,0.0273838071819666,0.5,0.0625672441289893,0.947370520220574,9.81676184486152,2.83546157337306,0.5,67.4071348254474
CBC_1143,CBC_1143_MSI_TV_v3_Vset6_Tset3_2024-09-27_17h26.52.082.csv,3,34,1,0,z,0,1,0,tac,A,63,1,1A,0A,0,1,z,2.52654230000189,0,1,1,1,0A,1A,A10,2.50552593699074,0.626926516208489,0.531283622064495,0.5,0.5,0.411898659118224,0.589713784102289,0.5,0.468716377935505,0.468716377935505,0.5,0.609136261310311,0.468716377935505,0.5,0.5,0.5,0.601533843028265,0.541289093828262,0.458710906171738,0.626926516208489,0.531283622064495,0.278096304739416,0.908861277475856,0.373073483791511,0.023342179738436,0.5,0.0625672441289893,0.947370520220574,9.81676184486152,2.83546157337306,0.5,67.4071348254474
CBC_1143,CBC_1143_MSI_TV_v3_Vset6_Tset3_2024-09-27_17h26.52.082.csv,3,35,3,2,b,1,0,3,tac,D,63,0,3D,2D,0,1,b,1.45195969999986,1,0,1,0,3D,2D,D32,2.81341071676004,0.650268695946925,0.531283622064495,0.5,0.5,0.411898659118224,0.589713784102289,0.5,0.468716377935505,0.468716377935505,0.5,0.609136261310311,0.468716377935505,0.5,0.5,0.5,0.601533843028265,0.546087482318807,0.453912517681193,0.601533843028265,0.5,0.63096816176743,0.928379995865431,-0.601533843028265,-0.0376363148085986,0.5,0.0625672441289893,0.947370520220574,9.81676184486152,2.83546157337306,0.5,67.4071348254474
CBC_1143,CBC_1143_MSI_TV_v3_Vset6_Tset3_2024-09-27_17h26.52.082.csv,3,36,0,2,z,0,1,2,tac,C,27,1,0C,2C,0,1,z,2.39341229999991,0,1,1,1,2C,0C,C02,3.23867845216438,0.650268695946925,0.531283622064495,0.5,0.5,0.411898659118224,0.589713784102289,0.5,0.468716377935505,0.468716377935505,0.5,0.609136261310311,0.468716377935505,0.5,0.5,0.5,0.563897528219666,0.565138720388095,0.434861279611906,0.609136261310311,0.468716377935505,0.30160060634706,0.973991169473692,0.390863738689689,0.0244552669597672,0.5,0.0625672441289893,0.947370520220574,9.81676184486152,2.83546157337306,0.5,67.4071348254474
CBC_1143,CBC_1143_MSI_TV_v3_Vset6_Tset3_2024-09-27_17h26.52.082.csv,3,37,1,0,z,0,1,0,tac,A,63,1,1A,0A,0,1,z,2.74529869999969,0,1,1,1,0A,1A,A10,2.34180580614733,0.650268695946925,0.531283622064495,0.5,0.5,0.411898659118224,0.589713784102289,0.5,0.468716377935505,0.468716377935505,0.5,0.633591528270078,0.468716377935505,0.5,0.5,0.5,0.563897528219666,0.550351166033293,0.449648833966707,0.650268695946925,0.531283622064495,0.218549368178986,0.942867119349404,0.349731304053075,0.0218817238802385,0.5,0.0625672441289893,0.947370520220574,9.81676184486152,2.83546157337306,0.5,67.4071348254474
CBC_1143,CBC_1143_MSI_TV_v3_Vset6_Tset3_2024-09-27_17h26.52.082.csv,3,38,3,1,z,0,1,1,tac,B,27,1,3B,1B,0,1,z,3.16669929999989,0,1,1,1,1B,3B,B31,3.27714473299218,0.672150419827164,0.531283622064495,0.5,0.5,0.411898659118224,0.589713784102289,0.5,0.468716377935505,0.468716377935505,0.5,0.633591528270078,0.468716377935505,0.5,0.5,0.5,0.563897528219666,0.557158899333437,0.442841100666563,0.589713784102289,0.468716377935505,0.121201476642977,0.960340612298138,0.410286215897711,0.0256704778328313,0.5,0.0625672441289893,0.947370520220574,9.81676184486152,2.83546157337306,0.5,67.4071348254474
CBC_1143,CBC_1143_MSI_TV_v3_Vset6_Tset3_2024-09-27_17h26.52.082.csv,3,39,2,3,b,1,0,2,tac,C,63,0,2C,3C,0,1,b,1.73392369999783,1,0,1,0,2C,3C,C23,2.60268968544438,0.672150419827164,0.531283622064495,0.5,0.5,0.411898659118224,0.61538426193512,0.5,0.468716377935505,0.468716377935505,0.5,0.633591528270078,0.468716377935505,0.5,0.5,0.5,0.563897528219666,0.574786341187606,0.425213658812394,0.633591528270078,0.468716377935505,0.775821531494663,0.984670782072729,-0.633591528270078,-0.0396420758273334,0.5,0.0625672441289893,0.947370520220574,9.81676184486152,2.83546157337306,0.5,67.4071348254474
CBC_1143,CBC_1143_MSI_TV_v3_Vset6_Tset3_2024-09-27_17h26.52.082.csv,3,40,2,3,z,0,1,3,tac,D,63,1,2D,3D,0,1,z,1.39988760000051,0,1,1,1,3D,2D,D23,2.62103882411258,0.672150419827164,0.531283622064495,0.5,0.5,0.411898659118224,0.61538426193512,0.5,0.468716377935505,0.468716377935505,0.5,0.593949452442745,0.468716377935505,0.5,0.5,0.5,0.563897528219666,0.530029926061861,0.469970073938139,0.563897528219666,0.5,0.429634376667152,0.841581872129675,0.436102471780334,0.0272857298171358,0.5,0.0625672441289893,0.947370520220574,9.81676184486152,2.83546157337306,0.5,67.4071348254474
CBC_1143,CBC_1143_MSI_TV_v3_Vset6_Tset3_2024-09-27_17h26.52.082.csv,3,41,1,0,b,1,0,1,tac,B,63,1,1B,0B,1,0,b,2.60088250000263,1,0,1,1,1B,0B,B10,2.63905732961526,0.672150419827164,0.531283622064495,0.5,0.5,0.411898659118224,0.61538426193512,0.5,0.468716377935505,0.468716377935505,0.5,0.593949452442745,0.468716377935505,0.5,0.5,0.5,0.591183258036802,0.599040682292395,0.400959317707605,0.61538426193512,0.411898659118224,0.0978031046572114,0.995984805453398,0.38461573806488,0.0240643467793567,0.5,0.0625672441289893,0.947370520220574,9.81676184486152,2.83546157337306,0.5,67.4071348254474
CBC_1143,CBC_1143_MSI_TV_v3_Vset6_Tset3_2024-09-27_17h26.52.082.csv,3,42,0,2,b,1,0,0,tac,A,27,1,0A,2A,1,0,b,2.11295919999975,1,0,1,1,0A,2A,A02,3.3499040872746,0.672150419827164,0.531283622064495,0.5,0.5,0.411898659118224,0.639448608714477,0.5,0.468716377935505,0.468716377935505,0.5,0.593949452442745,0.468716377935505,0.5,0.5,0.5,0.591183258036802,0.573433587070057,0.426566412929943,0.672150419827164,0.5,0.435017425671482,0.983503917537706,0.327849580172836,0.0205126447202605,0.5,0.0625672441289893,0.947370520220574,9.81676184486152,2.83546157337306,0.5,67.4071348254474
CBC_1143,CBC_1143_MSI_TV_v3_Vset6_Tset3_2024-09-27_17h26.52.082.csv,3,43,0,3,z,0,1,3,tac,D,9,1,0D,3D,0,1,z,1.26299710000239,0,1,1,1,3D,0D,D03,4.06044301054642,0.692663064547424,0.531283622064495,0.5,0.5,0.411898659118224,0.639448608714477,0.5,0.468716377935505,0.468716377935505,0.5,0.593949452442745,0.468716377935505,0.5,0.5,0.5,0.591183258036802,0.541781825997246,0.458218174002754,0.591183258036802,0.5,0.37991285689833,0.910918713696125,0.408816741963198,0.0255785368984294,0.5,0.0625672441289893,0.947370520220574,9.81676184486152,2.83546157337306,0.5,67.4071348254474
CBC_1143,CBC_1143_MSI_TV_v3_Vset6_Tset3_2024-09-27_17h26.52.082.csv,3,44,2,3,b,1,0,2,tac,C,63,1,2C,3C,1,0,b,1.22979299999861,1,0,1,1,2C,3C,C23,2.46809953147162,0.692663064547424,0.531283622064495,0.5,0.5,0.411898659118224,0.639448608714477,0.5,0.468716377935505,0.468716377935505,0.5,0.593949452442745,0.468716377935505,0.5,0.5,0.5,0.616761794935232,0.558924014928881,0.441075985071119,0.593949452442745,0.468716377935505,0.458035419694348,0.96373029546066,0.406050547557255,0.0254054637377245,0.5,0.0625672441289893,0.947370520220574,9.81676184486152,2.83546157337306,0.5,67.4071348254474
