ID,session,trialNr,mod2Stim,visStimLeft,visStimRight,correctKey,frequency,rewardAccurate,probFB,stimPairLeft,stimPairRight,leftCorrect,rightCorrect,pCorrectLeft,pCorrectRight,triplet,rt,surprise,0A belief,1A belief,2A belief,3A belief,0B belief,1B belief,2B belief,3B belief,0C belief,1C belief,2C belief,3C belief,0D belief,1D belief,2D belief,3D belief,reactionTime,choice,choiceLeft,choiceRight,chosenPair,otherPair,beliefPair,beliefOtherPair,beliefPairNorm,beliefOtherPairNorm,choiceAccurate,reward,rewardPE,update2,sim_CBCsimpleRW_CBCdriftDiffusionLR_startBelief,sim_CBCsimpleRW_CBCdriftDiffusionLR_alpha1,sim_CBCsimpleRW_CBCdriftDiffusionLR_nonDecisionTime,sim_CBCsimpleRW_CBCdriftDiffusionLR_weight,sim_CBCsimpleRW_CBCdriftDiffusionLR_startingBoundary,sim_CBCsimpleRW_CBCdriftDiffusionLR_startingPoint,lik,corrLik,fitCBCsimpleRW_CBCdriftDiffusionLR_startBelief,fitCBCsimpleRW_CBCdriftDiffusionLR_alpha1,fitCBCsimpleRW_CBCdriftDiffusionLR_nonDecisionTime,fitCBCsimpleRW_CBCdriftDiffusionLR_weight,fitCBCsimpleRW_CBCdriftDiffusionLR_startingBoundary,fitCBCsimpleRW_CBCdriftDiffusionLR_startingPoint,fit_CBCsimpleRW_CBCdriftDiffusionLR_NLL
150,1,1,A,0,1,a,63,1,0.82,0A,1A,1,0,1,0,A01,0.0357298824636725,2.77258872223978,0.5,0.5,0.5,0.5,0.5,0.5,0.5,0.5,0.5,0.5,0.5,0.5,0.5,0.5,0.5,0.5,2.26923472292862,0,0,1,1A,0A,0.5,0.5,0.5,0.5,0,0,-0.5,-0.232551724562853,0.5,0.572937578472531,1.05823472292862,4.62790325842739,1.72023347679416,0.5,0.0744158902128239,0.499271619196103,0.5,0.465103449125707,1.07578515754814,5.65697293150121,1.37847105954374,0.5,11.0797541239042
150,1,2,D,2,3,l,63,1,0.82,2D,3D,0,1,0,1,D23,1.57781004930988,2.83321334405622,0.5,0.267448275437147,0.5,0.5,0.5,0.5,0.5,0.5,0.5,0.5,0.5,0.5,0.5,0.5,0.5,0.5,1.13023472292862,1,1,0,2D,3D,0.5,0.5,0.5,0.5,0,0,-0.5,-0.232551724562853,0.5,0.572937578472531,1.05823472292862,4.62790325842739,1.72023347679416,0.5,0.275962239585821,0.500076207886398,0.5,0.465103449125707,1.07578515754814,5.65697293150121,1.37847105954374,0.5,11.0797541239042
150,1,3,C,0,2,l,27,1,0.82,0C,2C,0,1,0,1,C02,2.77915874318799,2.89037175789616,0.5,0.267448275437147,0.5,0.5,0.5,0.5,0.5,0.5,0.5,0.5,0.5,0.5,0.5,0.5,0.267448275437147,0.5,1.89523472292862,0,0,1,2C,0C,0.5,0.5,0.5,0.5,1,1,0.5,0.232551724562853,0.5,0.572937578472531,1.05823472292862,4.62790325842739,1.72023347679416,0.5,0.19663905772687,0.499479203153013,0.5,0.465103449125707,1.07578515754814,5.65697293150121,1.37847105954374,0.5,11.0797541239042
150,1,4,A,0,1,a,63,1,0.82,0A,1A,1,0,1,0,A01,1.94903449770272,2.2512917986065,0.5,0.267448275437147,0.5,0.5,0.5,0.5,0.5,0.5,0.5,0.5,0.732551724562853,0.5,0.5,0.5,0.267448275437147,0.5,1.19523472292862,1,1,0,0A,1A,0.5,0.267448275437147,0.651509705608752,0.348490294391248,1,1,0.5,0.232551724562853,0.5,0.572937578472531,1.05823472292862,4.62790325842739,1.72023347679416,0.5,2.49422885214142,0.91402482266864,0.5,0.465103449125707,1.07578515754814,5.65697293150121,1.37847105954374,0.5,11.0797541239042
150,1,5,B,1,3,a,27,1,0.82,1B,3B,1,0,1,0,B13,0.473998691999605,2.99573227355399,0.732551724562853,0.267448275437147,0.5,0.5,0.5,0.5,0.5,0.5,0.5,0.5,0.732551724562853,0.5,0.5,0.5,0.267448275437147,0.5,1.21223472292862,1,1,0,1B,3B,0.5,0.5,0.5,0.5,1,1,0.5,0.232551724562853,0.5,0.572937578472531,1.05823472292862,4.62790325842739,1.72023347679416,0.5,0.956031888810137,0.499593103862307,0.5,0.465103449125707,1.07578515754814,5.65697293150121,1.37847105954374,0.5,11.0797541239042
150,1,6,C,3,2,l,63,1,0.82,3C,2C,0,1,0,1,C32,2.71048775948613,3.04452243772342,0.732551724562853,0.267448275437147,0.5,0.5,0.5,0.732551724562853,0.5,0.5,0.5,0.5,0.732551724562853,0.5,0.5,0.5,0.267448275437147,0.5,1.12723472292862,0,0,1,2C,3C,0.732551724562853,0.5,0.594337511330541,0.405662488669459,1,1,0.267448275437147,0.124391115368539,0.5,0.572937578472531,1.05823472292862,4.62790325842739,1.72023347679416,0.5,0.471468702381993,0.812841677945563,0.5,0.465103449125707,1.07578515754814,5.65697293150121,1.37847105954374,0.5,11.0797541239042
150,1,7,D,3,2,a,63,0,0.82,3D,2D,1,0,0,1,D32,1.55361302029325,3.09104245335832,0.732551724562853,0.267448275437147,0.5,0.5,0.5,0.732551724562853,0.5,0.5,0.5,0.5,0.856942839931392,0.5,0.5,0.5,0.267448275437147,0.5,1.48323472292862,0,0,1,2D,3D,0.267448275437147,0.5,0.348490294391248,0.651509705608752,0,1,0.732551724562853,0.340712333757168,0.5,0.572937578472531,1.05823472292862,4.62790325842739,1.72023347679416,0.5,0.0967180063941823,0.0860538774257994,0.5,0.465103449125707,1.07578515754814,5.65697293150121,1.37847105954374,0.5,11.0797541239042
150,1,8,B,0,1,l,63,1,0.82,0B,1B,0,1,0,1,B01,0.96288745006192,3.13549421592915,0.732551724562853,0.267448275437147,0.5,0.5,0.5,0.732551724562853,0.5,0.5,0.5,0.5,0.856942839931392,0.5,0.5,0.5,0.608160609194314,0.5,1.85123472292862,0,0,1,1B,0B,0.732551724562853,0.5,0.594337511330541,0.405662488669459,1,1,0.267448275437147,0.124391115368539,0.5,0.572937578472531,1.05823472292862,4.62790325842739,1.72023347679416,0.5,0.296023950263694,0.813536635859943,0.5,0.465103449125707,1.07578515754814,5.65697293150121,1.37847105954374,0.5,11.0797541239042
150,1,9,A,2,0,l,27,1,0.82,2A,0A,0,1,0,1,A20,2.62123177385838,3.17805383034795,0.732551724562853,0.267448275437147,0.5,0.5,0.5,0.856942839931392,0.5,0.5,0.5,0.5,0.856942839931392,0.5,0.5,0.5,0.608160609194314,0.5,1.67023472292862,0,0,1,0A,2A,0.732551724562853,0.5,0.594337511330541,0.405662488669459,1,1,0.267448275437147,0.124391115368539,0.5,0.572937578472531,1.05823472292862,4.62790325842739,1.72023347679416,0.5,0.525189667120971,0.813200174059649,0.5,0.465103449125707,1.07578515754814,5.65697293150121,1.37847105954374,0.5,11.0797541239042
150,1,10,D,3,0,a,9,1,0.82,3D,0D,1,0,1,0,D30,1.72726459826914,3.2188758248682,0.856942839931392,0.267448275437147,0.5,0.5,0.5,0.856942839931392,0.5,0.5,0.5,0.5,0.856942839931392,0.5,0.5,0.5,0.608160609194314,0.5,1.66023472292862,0,0,1,0D,3D,0.5,0.5,0.5,0.5,0,0,-0.5,-0.232551724562853,0.5,0.572937578472531,1.05823472292862,4.62790325842739,1.72023347679416,0.5,0.362303291166722,0.499893341271069,0.5,0.465103449125707,1.07578515754814,5.65697293150121,1.37847105954374,0.5,11.0797541239042
150,1,11,C,2,3,a,63,0,0.82,2C,3C,1,0,0,1,C23,0.307730031350959,3.25809653802148,0.856942839931392,0.267448275437147,0.5,0.5,0.5,0.856942839931392,0.5,0.5,0.5,0.5,0.856942839931392,0.5,0.267448275437147,0.5,0.608160609194314,0.5,1.34923472292862,1,1,0,2C,3C,0.856942839931392,0.5,0.631524641063525,0.368475358936475,1,0,-0.856942839931392,-0.398567070555669,0.5,0.572937578472531,1.05823472292862,4.62790325842739,1.72023347679416,0.5,1.65783573067115,0.886219116789253,0.5,0.465103449125707,1.07578515754814,5.65697293150121,1.37847105954374,0.5,11.0797541239042
150,1,12,B,0,1,l,63,1,0.82,0B,1B,0,1,0,1,B01,3.36886641066478,2.60268968544438,0.856942839931392,0.267448275437147,0.5,0.5,0.5,0.856942839931392,0.5,0.5,0.5,0.5,0.458375769375723,0.5,0.267448275437147,0.5,0.608160609194314,0.5,1.22123472292862,0,0,1,1B,0B,0.856942839931392,0.5,0.631524641063525,0.368475358936475,1,1,0.143057160068608,0.0665363785700378,0.5,0.572937578472531,1.05823472292862,4.62790325842739,1.72023347679416,0.5,2.29946104432983,0.886173836773749,0.5,0.465103449125707,1.07578515754814,5.65697293150121,1.37847105954374,0.5,11.0797541239042
150,1,13,D,2,3,l,63,0,0.82,2D,3D,0,1,1,0,D23,2.31556237367294,2.63905732961526,0.856942839931392,0.267448275437147,0.5,0.5,0.5,0.92347921850143,0.5,0.5,0.5,0.5,0.458375769375723,0.5,0.267448275437147,0.5,0.608160609194314,0.5,1.13923472292862,1,1,0,2D,3D,0.608160609194314,0.5,0.548801865134402,0.451198134865598,0,1,0.391839390805686,0.18224585216704,0.5,0.572937578472531,1.05823472292862,4.62790325842739,1.72023347679416,0.5,0.590629276365242,0.681999553423748,0.5,0.465103449125707,1.07578515754814,5.65697293150121,1.37847105954374,0.5,11.0797541239042
150,1,14,C,2,3,a,63,1,0.82,2C,3C,1,0,1,0,C23,0.189922519541469,2.67414864942653,0.856942839931392,0.267448275437147,0.5,0.5,0.5,0.92347921850143,0.5,0.5,0.5,0.5,0.458375769375723,0.5,0.267448275437147,0.5,0.790406461361354,0.5,2.77623472292862,0,0,1,3C,2C,0.5,0.458375769375723,0.521716028281574,0.478283971718426,0,0,-0.5,-0.232551724562853,0.5,0.572937578472531,1.05823472292862,4.62790325842739,1.72023347679416,0.5,0.0224756725336138,0.58383875217403,0.5,0.465103449125707,1.07578515754814,5.65697293150121,1.37847105954374,0.5,11.0797541239042
150,1,15,B,3,1,l,27,1,0.82,3B,1B,0,1,0,1,B31,3.39452340180959,3.40119738166216,0.856942839931392,0.267448275437147,0.5,0.5,0.5,0.92347921850143,0.5,0.5,0.5,0.5,0.458375769375723,0.267448275437147,0.267448275437147,0.5,0.790406461361354,0.5,1.28223472292862,0,0,1,1B,3B,0.92347921850143,0.5,0.648747945525769,0.351252054474231,1,1,0.07652078149857,0.0355900794047795,0.5,0.572937578472531,1.05823472292862,4.62790325842739,1.72023347679416,0.5,2.20840003931868,0.910531840267718,0.5,0.465103449125707,1.07578515754814,5.65697293150121,1.37847105954374,0.5,11.0797541239042
150,1,16,A,0,3,a,9,1,0.82,0A,3A,1,0,1,0,A03,2.60875647032699,3.43398720448515,0.856942839931392,0.267448275437147,0.5,0.5,0.5,0.959069297906209,0.5,0.5,0.5,0.5,0.458375769375723,0.267448275437147,0.267448275437147,0.5,0.790406461361354,0.5,1.24323472292862,1,1,0,0A,3A,0.856942839931392,0.5,0.631524641063525,0.368475358936475,1,1,0.143057160068608,0.0665363785700378,0.5,0.572937578472531,1.05823472292862,4.62790325842739,1.72023347679416,0.5,2.25052290787899,0.886055504451367,0.5,0.465103449125707,1.07578515754814,5.65697293150121,1.37847105954374,0.5,11.0797541239042
150,1,17,D,2,3,l,63,1,0.82,2D,3D,0,1,0,1,D23,0.47013383724616,2.36712361413162,0.92347921850143,0.267448275437147,0.5,0.5,0.5,0.959069297906209,0.5,0.5,0.5,0.5,0.458375769375723,0.267448275437147,0.267448275437147,0.5,0.790406461361354,0.5,1.32223472292862,1,1,0,2D,3D,0.790406461361354,0.5,0.61252518879012,0.38747481120988,0,0,-0.790406461361354,-0.36762077139041,0.5,0.572937578472531,1.05823472292862,4.62790325842739,1.72023347679416,0.5,1.68527537220289,0.852353092283437,0.5,0.465103449125707,1.07578515754814,5.65697293150121,1.37847105954374,0.5,11.0797541239042
150,1,18,C,0,2,l,27,1,0.82,0C,2C,0,1,0,1,C02,2.74806435988467,2.80336038090653,0.92347921850143,0.267448275437147,0.5,0.5,0.5,0.959069297906209,0.5,0.5,0.5,0.5,0.458375769375723,0.267448275437147,0.267448275437147,0.5,0.422785689970944,0.5,1.54623472292862,1,1,0,0C,2C,0.5,0.458375769375723,0.521716028281574,0.478283971718426,0,0,-0.5,-0.232551724562853,0.5,0.572937578472531,1.05823472292862,4.62790325842739,1.72023347679416,0.5,0.56835320879281,0.583287693932078,0.5,0.465103449125707,1.07578515754814,5.65697293150121,1.37847105954374,0.5,11.0797541239042
150,1,19,A,0,1,a,63,1,0.82,0A,1A,1,0,1,0,A01,3.21957203901794,2.42774823594805,0.92347921850143,0.267448275437147,0.5,0.5,0.5,0.959069297906209,0.5,0.5,0.267448275437147,0.5,0.458375769375723,0.267448275437147,0.267448275437147,0.5,0.422785689970944,0.5,1.40223472292862,1,1,0,0A,1A,0.92347921850143,0.267448275437147,0.775428582513739,0.224571417486261,1,1,0.07652078149857,0.0355900794047795,0.5,0.572937578472531,1.05823472292862,4.62790325842739,1.72023347679416,0.5,1.23861964434806,0.986574208454023,0.5,0.465103449125707,1.07578515754814,5.65697293150121,1.37847105954374,0.5,11.0797541239042
150,1,20,B,1,0,a,63,0,0.82,1B,0B,1,0,0,1,B10,1.64828768541165,3.55534806148941,0.959069297906209,0.267448275437147,0.5,0.5,0.5,0.959069297906209,0.5,0.5,0.267448275437147,0.5,0.458375769375723,0.267448275437147,0.267448275437147,0.5,0.422785689970944,0.5,1.44323472292862,1,1,0,1B,0B,0.959069297906209,0.5,0.657315796640016,0.342684203359984,1,0,-0.959069297906209,-0.446066438406748,0.5,0.572937578472531,1.05823472292862,4.62790325842739,1.72023347679416,0.5,1.21131925007805,0.920627396452072,0.5,0.465103449125707,1.07578515754814,5.65697293150121,1.37847105954374,0.5,11.0797541239042
150,1,21,D,3,1,a,27,1,0.82,3D,1D,1,0,1,0,D31,2.91476684823809,3.58351893845611,0.959069297906209,0.267448275437147,0.5,0.5,0.5,0.513002859499462,0.5,0.5,0.267448275437147,0.5,0.458375769375723,0.267448275437147,0.267448275437147,0.5,0.422785689970944,0.5,1.24823472292862,1,1,0,3D,1D,0.5,0.5,0.5,0.5,1,1,0.5,0.232551724562853,0.5,0.572937578472531,1.05823472292862,4.62790325842739,1.72023347679416,0.5,0.968862634377992,0.500199173507358,0.5,0.465103449125707,1.07578515754814,5.65697293150121,1.37847105954374,0.5,11.0797541239042
150,1,22,C,3,2,l,63,1,0.82,3C,2C,0,1,0,1,C32,0.791039539807125,2.91777073208428,0.959069297906209,0.267448275437147,0.5,0.5,0.5,0.513002859499462,0.5,0.5,0.267448275437147,0.5,0.458375769375723,0.267448275437147,0.267448275437147,0.5,0.422785689970944,0.732551724562853,1.36123472292862,0,0,1,2C,3C,0.458375769375723,0.267448275437147,0.631524641063525,0.368475358936475,1,1,0.541624230624277,0.251911297793408,0.5,0.572937578472531,1.05823472292862,4.62790325842739,1.72023347679416,0.5,1.58925390876348,0.886189060180507,0.5,0.465103449125707,1.07578515754814,5.65697293150121,1.37847105954374,0.5,11.0797541239042
150,1,23,B,0,1,l,63,1,0.82,0B,1B,0,1,0,1,B01,2.69355290671255,2.53897387105828,0.959069297906209,0.267448275437147,0.5,0.5,0.5,0.513002859499462,0.5,0.5,0.267448275437147,0.5,0.710287067169132,0.267448275437147,0.267448275437147,0.5,0.422785689970944,0.732551724562853,1.41523472292862,0,0,1,1B,0B,0.513002859499462,0.5,0.506417977687588,0.493582022312412,1,1,0.486997140500538,0.226504049761157,0.5,0.572937578472531,1.05823472292862,4.62790325842739,1.72023347679416,0.5,0.718231603838009,0.525654398847854,0.5,0.465103449125707,1.07578515754814,5.65697293150121,1.37847105954374,0.5,11.0797541239042
150,1,24,A,0,2,a,27,1,0.82,0A,2A,1,0,1,0,A02,0.501020075813529,3.66356164612965,0.959069297906209,0.267448275437147,0.5,0.5,0.5,0.739506909260618,0.5,0.5,0.267448275437147,0.5,0.710287067169132,0.267448275437147,0.267448275437147,0.5,0.422785689970944,0.732551724562853,1.56623472292862,1,1,0,0A,2A,0.959069297906209,0.5,0.657315796640016,0.342684203359984,1,1,0.0409307020937906,0.0190370107189588,0.5,0.572937578472531,1.05823472292862,4.62790325842739,1.72023347679416,0.5,0.725298994680469,0.92083156639489,0.5,0.465103449125707,1.07578515754814,5.65697293150121,1.37847105954374,0.5,11.0797541239042
150,1,25,D,3,2,a,63,1,0.82,3D,2D,1,0,1,0,D32,0.742509677337121,2.99573227355399,0.978106308625168,0.267448275437147,0.5,0.5,0.5,0.739506909260618,0.5,0.5,0.267448275437147,0.5,0.710287067169132,0.267448275437147,0.267448275437147,0.5,0.422785689970944,0.732551724562853,1.28323472292862,1,1,0,3D,2D,0.732551724562853,0.422785689970944,0.634058687399519,0.365941312600481,1,1,0.267448275437147,0.124391115368539,0.5,0.572937578472531,1.05823472292862,4.62790325842739,1.72023347679416,0.5,2.07276879245641,0.889717621711447,0.5,0.465103449125707,1.07578515754814,5.65697293150121,1.37847105954374,0.5,11.0797541239042
150,1,26,C,0,2,l,27,1,0.82,0C,2C,0,1,0,1,C02,2.00857152473951,2.6149597780362,0.978106308625168,0.267448275437147,0.5,0.5,0.5,0.739506909260618,0.5,0.5,0.267448275437147,0.5,0.710287067169132,0.267448275437147,0.267448275437147,0.5,0.422785689970944,0.856942839931392,1.19923472292862,0,0,1,2C,0C,0.710287067169132,0.267448275437147,0.726461483202367,0.273538516797633,1,1,0.289712932830868,0.134746484315961,0.5,0.572937578472531,1.05823472292862,4.62790325842739,1.72023347679416,0.5,3.6092504959113,0.971585574548324,0.5,0.465103449125707,1.07578515754814,5.65697293150121,1.37847105954374,0.5,11.0797541239042
150,1,27,B,0,1,l,63,1,0.82,0B,1B,0,1,0,1,B01,1.22204186066091,2.35137525716348,0.978106308625168,0.267448275437147,0.5,0.5,0.5,0.739506909260618,0.5,0.5,0.267448275437147,0.5,0.845033551485093,0.267448275437147,0.267448275437147,0.5,0.422785689970944,0.856942839931392,1.43523472292862,1,1,0,0B,1B,0.5,0.739506909260618,0.403386214521593,0.596613785478407,0,0,-0.5,-0.232551724562853,0.5,0.572937578472531,1.05823472292862,4.62790325842739,1.72023347679416,0.5,0.24660591403622,0.181529392508856,0.5,0.465103449125707,1.07578515754814,5.65697293150121,1.37847105954374,0.5,11.0797541239042
150,1,28,A,1,0,l,63,1,0.82,1A,0A,0,1,0,1,A10,0.168187440956912,3.76120011569356,0.978106308625168,0.267448275437147,0.5,0.5,0.267448275437147,0.739506909260618,0.5,0.5,0.267448275437147,0.5,0.845033551485093,0.267448275437147,0.267448275437147,0.5,0.422785689970944,0.856942839931392,1.36123472292862,0,0,1,0A,1A,0.978106308625168,0.267448275437147,0.785277755901409,0.21472224409859,1,1,0.0218936913748318,0.010182831372528,0.5,0.572937578472531,1.05823472292862,4.62790325842739,1.72023347679416,0.5,1.63396708715765,0.988460436516392,0.5,0.465103449125707,1.07578515754814,5.65697293150121,1.37847105954374,0.5,11.0797541239042
150,1,29,C,2,3,a,63,0,0.82,2C,3C,1,0,0,1,C23,3.23745787264754,2.68557734525015,0.988289139997696,0.267448275437147,0.5,0.5,0.267448275437147,0.739506909260618,0.5,0.5,0.267448275437147,0.5,0.845033551485093,0.267448275437147,0.267448275437147,0.5,0.422785689970944,0.856942839931392,1.23723472292862,1,1,0,2C,3C,0.845033551485093,0.267448275437147,0.759593128656257,0.240406871343743,1,0,-0.845033551485093,-0.393028019422662,0.5,0.572937578472531,1.05823472292862,4.62790325842739,1.72023347679416,0.5,3.67299646493974,0.98285529574828,0.5,0.465103449125707,1.07578515754814,5.65697293150121,1.37847105954374,0.5,11.0797541239042
150,1,30,D,1,3,l,27,1,0.82,1D,3D,0,1,0,1,D13,0.289210059397877,3.80666248977032,0.988289139997696,0.267448275437147,0.5,0.5,0.267448275437147,0.739506909260618,0.5,0.5,0.267448275437147,0.5,0.452005532062431,0.267448275437147,0.267448275437147,0.5,0.422785689970944,0.856942839931392,1.97723472292862,0,0,1,3D,1D,0.856942839931392,0.5,0.631524641063525,0.368475358936475,1,1,0.143057160068608,0.0665363785700378,0.5,0.572937578472531,1.05823472292862,4.62790325842739,1.72023347679416,0.5,0.163474045431314,0.886153963703614,0.5,0.465103449125707,1.07578515754814,5.65697293150121,1.37847105954374,0.5,11.0797541239042
150,1,31,A,0,1,a,63,0,0.82,0A,1A,1,0,0,1,A01,1.61687786037488,2.4423470353692,0.988289139997696,0.267448275437147,0.5,0.5,0.267448275437147,0.739506909260618,0.5,0.5,0.267448275437147,0.5,0.452005532062431,0.267448275437147,0.267448275437147,0.5,0.422785689970944,0.92347921850143,1.32123472292862,1,1,0,0A,1A,0.988289139997696,0.267448275437147,0.787018948269107,0.212981051730893,1,0,-0.988289139997696,-0.459656687746407,0.5,0.572937578472531,1.05823472292862,4.62790325842739,1.72023347679416,0.5,2.20509579012362,0.988771327503317,0.5,0.465103449125707,1.07578515754814,5.65697293150121,1.37847105954374,0.5,11.0797541239042
150,1,32,D,2,3,l,63,1,0.82,2D,3D,0,1,0,1,D23,2.85376804228156,2.46385324059017,0.528632452251289,0.267448275437147,0.5,0.5,0.267448275437147,0.739506909260618,0.5,0.5,0.267448275437147,0.5,0.452005532062431,0.267448275437147,0.267448275437147,0.5,0.422785689970944,0.92347921850143,1.29023472292862,0,0,1,3D,2D,0.92347921850143,0.422785689970944,0.685956539971999,0.314043460028001,1,1,0.07652078149857,0.0355900794047795,0.5,0.572937578472531,1.05823472292862,4.62790325842739,1.72023347679416,0.5,2.42627756490715,0.947998535147247,0.5,0.465103449125707,1.07578515754814,5.65697293150121,1.37847105954374,0.5,11.0797541239042
150,1,33,B,1,2,a,9,1,0.82,1B,2B,1,0,1,0,B12,0.448968001549158,3.87120101090789,0.528632452251289,0.267448275437147,0.5,0.5,0.267448275437147,0.739506909260618,0.5,0.5,0.267448275437147,0.5,0.452005532062431,0.267448275437147,0.267448275437147,0.5,0.422785689970944,0.959069297906209,1.35823472292862,1,1,0,1B,2B,0.739506909260618,0.5,0.596613785478407,0.403386214521593,1,1,0.260493090739382,0.121156234976302,0.5,0.572937578472531,1.05823472292862,4.62790325842739,1.72023347679416,0.5,1.41159059842229,0.818223950066661,0.5,0.465103449125707,1.07578515754814,5.65697293150121,1.37847105954374,0.5,11.0797541239042
150,1,34,A,0,1,a,63,1,0.82,0A,1A,1,0,1,0,A01,0.0836333750888776,2.28238238567653,0.528632452251289,0.267448275437147,0.5,0.5,0.267448275437147,0.86066314423692,0.5,0.5,0.267448275437147,0.5,0.452005532062431,0.267448275437147,0.267448275437147,0.5,0.422785689970944,0.959069297906209,1.28723472292862,1,1,0,0A,1A,0.528632452251289,0.267448275437147,0.664043775794283,0.335956224205717,1,1,0.471367547748711,0.219234672263851,0.5,0.572937578472531,1.05823472292862,4.62790325842739,1.72023347679416,0.5,2.29525007503379,0.928124603725355,0.5,0.465103449125707,1.07578515754814,5.65697293150121,1.37847105954374,0.5,11.0797541239042
150,1,35,C,1,2,l,9,1,0.82,1C,2C,0,1,0,1,C12,1.73765208576932,3.91202300542815,0.747867124515141,0.267448275437147,0.5,0.5,0.267448275437147,0.86066314423692,0.5,0.5,0.267448275437147,0.5,0.452005532062431,0.267448275437147,0.267448275437147,0.5,0.422785689970944,0.959069297906209,2.01623472292862,0,0,1,2C,1C,0.452005532062431,0.5,0.474792967939171,0.525207032060829,1,1,0.547994467937569,0.25487411713957,0.5,0.572937578472531,1.05823472292862,4.62790325842739,1.72023347679416,0.5,0.113818500219048,0.403394624355874,0.5,0.465103449125707,1.07578515754814,5.65697293150121,1.37847105954374,0.5,11.0797541239042
150,1,36,B,0,1,l,63,1,0.82,0B,1B,0,1,0,1,B01,1.95236834073898,2.32238772029023,0.747867124515141,0.267448275437147,0.5,0.5,0.267448275437147,0.86066314423692,0.5,0.5,0.267448275437147,0.5,0.706879649202001,0.267448275437147,0.267448275437147,0.5,0.422785689970944,0.959069297906209,1.20523472292862,0,0,1,1B,0B,0.86066314423692,0.267448275437147,0.762923882541303,0.237076117458697,1,1,0.13933685576308,0.0648060522057394,0.5,0.572937578472531,1.05823472292862,4.62790325842739,1.72023347679416,0.5,4.13178098577491,0.983739700888405,0.5,0.465103449125707,1.07578515754814,5.65697293150121,1.37847105954374,0.5,11.0797541239042
150,1,37,A,1,0,l,63,0,0.82,1A,0A,0,1,1,0,A10,0.812376689638474,3.25809653802148,0.747867124515141,0.267448275437147,0.5,0.5,0.267448275437147,0.92546919644266,0.5,0.5,0.267448275437147,0.5,0.706879649202001,0.267448275437147,0.267448275437147,0.5,0.422785689970944,0.959069297906209,1.29223472292862,0,0,1,0A,1A,0.747867124515141,0.267448275437147,0.736586015094704,0.263413984905296,1,0,-0.747867124515141,-0.347835579099716,0.5,0.572937578472531,1.05823472292862,4.62790325842739,1.72023347679416,0.5,2.65456269521314,0.975671905232469,0.5,0.465103449125707,1.07578515754814,5.65697293150121,1.37847105954374,0.5,11.0797541239042
150,1,38,B,1,0,a,63,1,0.82,1B,0B,1,0,1,0,B10,2.14016123873871,3.27714473299218,0.400031545415425,0.267448275437147,0.5,0.5,0.267448275437147,0.92546919644266,0.5,0.5,0.267448275437147,0.5,0.706879649202001,0.267448275437147,0.267448275437147,0.5,0.422785689970944,0.959069297906209,1.19323472292862,1,1,0,1B,0B,0.92546919644266,0.267448275437147,0.77580320370721,0.22419679629279,1,1,0.0745308035573402,0.0346645338006294,0.5,0.572937578472531,1.05823472292862,4.62790325842739,1.72023347679416,0.5,4.38585869517181,0.9866494639133,0.5,0.465103449125707,1.07578515754814,5.65697293150121,1.37847105954374,0.5,11.0797541239042
150,1,39,D,3,1,a,27,1,0.82,3D,1D,1,0,1,0,D31,0.307262710689729,3.29583686600433,0.400031545415425,0.267448275437147,0.5,0.5,0.267448275437147,0.960133730243289,0.5,0.5,0.267448275437147,0.5,0.706879649202001,0.267448275437147,0.267448275437147,0.5,0.422785689970944,0.959069297906209,1.39123472292862,1,1,0,3D,1D,0.959069297906209,0.5,0.657315796640016,0.342684203359984,1,1,0.0409307020937906,0.0190370107189588,0.5,0.572937578472531,1.05823472292862,4.62790325842739,1.72023347679416,0.5,1.5013118315441,0.920803006353163,0.5,0.465103449125707,1.07578515754814,5.65697293150121,1.37847105954374,0.5,11.0797541239042
150,1,40,C,2,3,a,63,1,0.82,2C,3C,1,0,1,0,C23,2.02419275733272,2.62103882411258,0.400031545415425,0.267448275437147,0.5,0.5,0.267448275437147,0.960133730243289,0.5,0.5,0.267448275437147,0.5,0.706879649202001,0.267448275437147,0.267448275437147,0.5,0.422785689970944,0.978106308625168,1.19123472292862,1,1,0,2C,3C,0.706879649202001,0.267448275437147,0.725504864764911,0.274495135235089,1,1,0.293120350797999,0.136331286165087,0.5,0.572937578472531,1.05823472292862,4.62790325842739,1.72023347679416,0.5,3.56752118718732,0.971092599536592,0.5,0.465103449125707,1.07578515754814,5.65697293150121,1.37847105954374,0.5,11.0797541239042
150,1,41,A,2,0,l,27,1,0.82,2A,0A,0,1,0,1,A20,1.02893070658939,3.3322045101752,0.400031545415425,0.267448275437147,0.5,0.5,0.267448275437147,0.960133730243289,0.5,0.5,0.267448275437147,0.5,0.843210935367087,0.267448275437147,0.267448275437147,0.5,0.422785689970944,0.978106308625168,2.30123472292862,1,1,0,2A,0A,0.5,0.400031545415425,0.555536083759394,0.444463916240606,0,0,-0.5,-0.232551724562853,0.5,0.572937578472531,1.05823472292862,4.62790325842739,1.72023347679416,0.5,0.0830257286300143,0.704076833783456,0.5,0.465103449125707,1.07578515754814,5.65697293150121,1.37847105954374,0.5,11.0797541239042
150,1,42,D,3,2,a,63,1,0.82,3D,2D,1,0,1,0,D32,3.09185337231304,2.94443897916644,0.400031545415425,0.267448275437147,0.267448275437147,0.5,0.267448275437147,0.960133730243289,0.5,0.5,0.267448275437147,0.5,0.843210935367087,0.267448275437147,0.267448275437147,0.5,0.422785689970944,0.978106308625168,1.17623472292862,0,0,1,2D,3D,0.422785689970944,0.978106308625168,0.301797490737783,0.698202509262217,0,0,-0.422785689970944,-0.196639082646478,0.5,0.572937578472531,1.05823472292862,4.62790325842739,1.72023347679416,0.5,0.134405143257122,0.0434610425086603,0.5,0.465103449125707,1.07578515754814,5.65697293150121,1.37847105954374,0.5,11.0797541239042
150,1,43,B,3,1,l,27,0,0.82,3B,1B,0,1,1,0,B31,1.13183887661145,3.36729582998647,0.400031545415425,0.267448275437147,0.267448275437147,0.5,0.267448275437147,0.960133730243289,0.5,0.5,0.267448275437147,0.5,0.843210935367087,0.267448275437147,0.267448275437147,0.5,0.226146607324466,0.978106308625168,1.46023472292862,1,1,0,3B,1B,0.5,0.960133730243289,0.342434387784939,0.657565612215061,0,1,0.5,0.232551724562853,0.5,0.572937578472531,1.05823472292862,4.62790325842739,1.72023347679416,0.5,0.0965940824356767,0.0788274851293117,0.5,0.465103449125707,1.07578515754814,5.65697293150121,1.37847105954374,0.5,11.0797541239042
150,1,44,C,2,3,a,63,1,0.82,2C,3C,1,0,1,0,C23,1.93203018541074,2.46809953147162,0.400031545415425,0.267448275437147,0.267448275437147,0.5,0.267448275437147,0.960133730243289,0.5,0.732551724562853,0.267448275437147,0.5,0.843210935367087,0.267448275437147,0.267448275437147,0.5,0.226146607324466,0.978106308625168,1.32923472292862,1,1,0,2C,3C,0.843210935367087,0.267448275437147,0.759198615709056,0.240801384290944,1,1,0.156789064632913,0.0729231347459611,0.5,0.572937578472531,1.05823472292862,4.62790325842739,1.72023347679416,0.5,2.13899055986458,0.982756502545505,0.5,0.465103449125707,1.07578515754814,5.65697293150121,1.37847105954374,0.5,11.0797541239042
