ID,session,trialNr,mod2Stim,visStimLeft,visStimRight,correctKey,frequency,rewardAccurate,probFB,stimPairLeft,stimPairRight,leftCorrect,rightCorrect,pCorrectLeft,pCorrectRight,triplet,rt,surprise,0A belief,1A belief,2A belief,3A belief,0B belief,1B belief,2B belief,3B belief,0C belief,1C belief,2C belief,3C belief,0D belief,1D belief,2D belief,3D belief,reactionTime,choice,choiceLeft,choiceRight,chosenPair,otherPair,beliefPair,beliefOtherPair,beliefPairNorm,beliefOtherPairNorm,choiceAccurate,reward,rewardPE,update2,sim_CBCsimpleRW_CBCdriftDiffusionLR_startBelief,sim_CBCsimpleRW_CBCdriftDiffusionLR_alpha1,sim_CBCsimpleRW_CBCdriftDiffusionLR_nonDecisionTime,sim_CBCsimpleRW_CBCdriftDiffusionLR_weight,sim_CBCsimpleRW_CBCdriftDiffusionLR_startingBoundary,sim_CBCsimpleRW_CBCdriftDiffusionLR_startingPoint,lik,corrLik,fitCBCsimpleRW_CBCdriftDiffusionLR_startBelief,fitCBCsimpleRW_CBCdriftDiffusionLR_alpha1,fitCBCsimpleRW_CBCdriftDiffusionLR_nonDecisionTime,fitCBCsimpleRW_CBCdriftDiffusionLR_weight,fitCBCsimpleRW_CBCdriftDiffusionLR_startingBoundary,fitCBCsimpleRW_CBCdriftDiffusionLR_startingPoint,fit_CBCsimpleRW_CBCdriftDiffusionLR_NLL
184,1,1,B,1,0,a,63,1,0.73,1B,0B,1,0,1,0,B10,0.856784257441335,2.77258872223978,0.5,0.5,0.5,0.5,0.5,0.5,0.5,0.5,0.5,0.5,0.5,0.5,0.5,0.5,0.5,0.5,3.56522091708897,1,1,0,1B,0B,0.5,0.5,0.5,0.5,1,1,0.5,0.184910035391022,0.5,0.375111833301864,0.453220917088974,12.5750355959629,4.4327709009954,0.5,0.0763553706517404,0.501371037452496,0.5,0.369820070782044,0.502968943328937,11.9805548178804,4.03170587166665,0.5,38.9129473207841
184,1,2,A,1,0,l,63,1,0.73,1A,0A,0,1,0,1,A10,0.651492841158837,2.83321334405622,0.5,0.5,0.5,0.5,0.5,0.684910035391022,0.5,0.5,0.5,0.5,0.5,0.5,0.5,0.5,0.5,0.5,4.56622091708897,1,1,0,1A,0A,0.5,0.5,0.5,0.5,0,0,-0.5,-0.184910035391022,0.5,0.375111833301864,0.453220917088974,12.5750355959629,4.4327709009954,0.5,0.0562868909663412,0.500043373885154,0.5,0.369820070782044,0.502968943328937,11.9805548178804,4.03170587166665,0.5,38.9129473207841
184,1,3,D,3,2,a,63,1,0.73,3D,2D,1,0,1,0,D32,1.12150098121106,2.89037175789616,0.5,0.315089964608978,0.5,0.5,0.5,0.684910035391022,0.5,0.5,0.5,0.5,0.5,0.5,0.5,0.5,0.5,0.5,9.62122091708897,0,0,1,2D,3D,0.5,0.5,0.5,0.5,0,0,-0.5,-0.184910035391022,0.5,0.375111833301864,0.453220917088974,12.5750355959629,4.4327709009954,0.5,0.0121065859636645,0.49894403616074,0.5,0.369820070782044,0.502968943328937,11.9805548178804,4.03170587166665,0.5,38.9129473207841
184,1,4,B,1,2,a,9,1,0.73,1B,2B,1,0,1,0,B12,0.354673026513211,2.94443897916644,0.5,0.315089964608978,0.5,0.5,0.5,0.684910035391022,0.5,0.5,0.5,0.5,0.5,0.5,0.5,0.5,0.315089964608978,0.5,1.17122091708897,1,1,0,1B,2B,0.684910035391022,0.5,0.578027035752972,0.421972964247028,1,1,0.315089964608978,0.116526593014404,0.5,0.375111833301864,0.453220917088974,12.5750355959629,4.4327709009954,0.5,0.948616429696333,0.999467913830345,0.5,0.369820070782044,0.502968943328937,11.9805548178804,4.03170587166665,0.5,38.9129473207841
184,1,5,A,2,0,l,27,1,0.73,2A,0A,0,1,0,1,A20,1.47023852868908,2.99573227355399,0.5,0.315089964608978,0.5,0.5,0.5,0.801436628405426,0.5,0.5,0.5,0.5,0.5,0.5,0.5,0.5,0.315089964608978,0.5,2.70122091708897,1,1,0,2A,0A,0.5,0.5,0.5,0.5,0,0,-0.5,-0.184910035391022,0.5,0.375111833301864,0.453220917088974,12.5750355959629,4.4327709009954,0.5,0.0977506188950217,0.500097080216179,0.5,0.369820070782044,0.502968943328937,11.9805548178804,4.03170587166665,0.5,38.9129473207841
184,1,6,C,3,2,l,63,0,0.73,3C,2C,0,1,1,0,C32,1.65573511683343,3.04452243772342,0.5,0.315089964608978,0.315089964608978,0.5,0.5,0.801436628405426,0.5,0.5,0.5,0.5,0.5,0.5,0.5,0.5,0.315089964608978,0.5,5.94422091708897,0,0,1,2C,3C,0.5,0.5,0.5,0.5,1,0,-0.5,-0.184910035391022,0.5,0.375111833301864,0.453220917088974,12.5750355959629,4.4327709009954,0.5,0.0370722379394307,0.500347687257987,0.5,0.369820070782044,0.502968943328937,11.9805548178804,4.03170587166665,0.5,38.9129473207841
184,1,7,D,3,1,a,27,1,0.73,3D,1D,1,0,1,0,D31,1.0753740165092,3.09104245335832,0.5,0.315089964608978,0.315089964608978,0.5,0.5,0.801436628405426,0.5,0.5,0.5,0.5,0.315089964608978,0.5,0.5,0.5,0.315089964608978,0.5,4.27922091708897,0,0,1,1D,3D,0.5,0.5,0.5,0.5,0,0,-0.5,-0.184910035391022,0.5,0.375111833301864,0.453220917088974,12.5750355959629,4.4327709009954,0.5,0.0615177080774202,0.500988642026916,0.5,0.369820070782044,0.502968943328937,11.9805548178804,4.03170587166665,0.5,38.9129473207841
184,1,8,A,0,1,a,63,0,0.73,0A,1A,1,0,0,1,A01,1.28842340400301,3.13549421592915,0.5,0.315089964608978,0.315089964608978,0.5,0.5,0.801436628405426,0.5,0.5,0.5,0.5,0.315089964608978,0.5,0.5,0.315089964608978,0.315089964608978,0.5,1.20322091708897,1,1,0,0A,1A,0.5,0.315089964608978,0.61342921850334,0.38657078149666,1,0,-0.5,-0.184910035391022,0.5,0.375111833301864,0.453220917088974,12.5750355959629,4.4327709009954,0.5,1.36008358036058,0.999982596236062,0.5,0.369820070782044,0.502968943328937,11.9805548178804,4.03170587166665,0.5,38.9129473207841
184,1,9,C,0,2,l,27,1,0.73,0C,2C,0,1,0,1,C02,3.24150542521528,3.17805383034795,0.315089964608978,0.315089964608978,0.315089964608978,0.5,0.5,0.801436628405426,0.5,0.5,0.5,0.5,0.315089964608978,0.5,0.5,0.315089964608978,0.315089964608978,0.5,1.67222091708897,1,1,0,0C,2C,0.5,0.315089964608978,0.61342921850334,0.38657078149666,0,0,-0.5,-0.184910035391022,0.5,0.375111833301864,0.453220917088974,12.5750355959629,4.4327709009954,0.5,0.357264842793982,0.999982540693098,0.5,0.369820070782044,0.502968943328937,11.9805548178804,4.03170587166665,0.5,38.9129473207841
184,1,10,D,3,2,a,63,1,0.73,3D,2D,1,0,1,0,D32,2.07586777243586,2.52572864430826,0.315089964608978,0.315089964608978,0.315089964608978,0.5,0.5,0.801436628405426,0.5,0.5,0.315089964608978,0.5,0.315089964608978,0.5,0.5,0.315089964608978,0.315089964608978,0.5,1.11522091708897,1,1,0,3D,2D,0.5,0.315089964608978,0.61342921850334,0.38657078149666,1,1,0.5,0.184910035391022,0.5,0.375111833301864,0.453220917088974,12.5750355959629,4.4327709009954,0.5,1.5179912816726,0.999982667319706,0.5,0.369820070782044,0.502968943328937,11.9805548178804,4.03170587166665,0.5,38.9129473207841
184,1,11,B,0,1,l,63,0,0.73,0B,1B,0,1,1,0,B01,2.64327706947847,3.25809653802148,0.315089964608978,0.315089964608978,0.315089964608978,0.5,0.5,0.801436628405426,0.5,0.5,0.315089964608978,0.5,0.315089964608978,0.5,0.5,0.315089964608978,0.315089964608978,0.684910035391022,1.05722091708897,0,0,1,1B,0B,0.801436628405426,0.5,0.615809184183927,0.384190815816073,1,0,-0.801436628405426,-0.296387350644218,0.5,0.375111833301864,0.453220917088974,12.5750355959629,4.4327709009954,0.5,1.58635092168223,0.999986169878832,0.5,0.369820070782044,0.502968943328937,11.9805548178804,4.03170587166665,0.5,38.9129473207841
184,1,12,A,1,0,l,63,1,0.73,1A,0A,0,1,0,1,A10,0.341915345175414,2.60268968544438,0.315089964608978,0.315089964608978,0.315089964608978,0.5,0.5,0.505049277761208,0.5,0.5,0.315089964608978,0.5,0.315089964608978,0.5,0.5,0.315089964608978,0.315089964608978,0.684910035391022,4.30922091708897,1,1,0,1A,0A,0.315089964608978,0.315089964608978,0.5,0.5,0,0,-0.315089964608978,-0.116526593014404,0.5,0.375111833301864,0.453220917088974,12.5750355959629,4.4327709009954,0.5,0.060973256402086,0.501086916745121,0.5,0.369820070782044,0.502968943328937,11.9805548178804,4.03170587166665,0.5,38.9129473207841
184,1,13,D,3,2,a,63,1,0.73,3D,2D,1,0,1,0,D32,0.831455689747064,2.23359222150709,0.315089964608978,0.198563371594574,0.315089964608978,0.5,0.5,0.505049277761208,0.5,0.5,0.315089964608978,0.5,0.315089964608978,0.5,0.5,0.315089964608978,0.315089964608978,0.684910035391022,0.979220917088974,1,1,0,3D,2D,0.684910035391022,0.315089964608978,0.684910035391022,0.315089964608978,1,1,0.315089964608978,0.116526593014404,0.5,0.375111833301864,0.453220917088974,12.5750355959629,4.4327709009954,0.5,2.42417268989369,0.999999982534657,0.5,0.369820070782044,0.502968943328937,11.9805548178804,4.03170587166665,0.5,38.9129473207841
184,1,14,C,0,2,l,27,0,0.73,0C,2C,0,1,1,0,C02,3.46303184829098,2.67414864942653,0.315089964608978,0.198563371594574,0.315089964608978,0.5,0.5,0.505049277761208,0.5,0.5,0.315089964608978,0.5,0.315089964608978,0.5,0.5,0.315089964608978,0.315089964608978,0.801436628405426,2.53722091708897,1,1,0,0C,2C,0.315089964608978,0.315089964608978,0.5,0.5,0,1,0.684910035391022,0.25329347776764,0.5,0.375111833301864,0.453220917088974,12.5750355959629,4.4327709009954,0.5,0.102095408217705,0.500533915915872,0.5,0.369820070782044,0.502968943328937,11.9805548178804,4.03170587166665,0.5,38.9129473207841
184,1,15,A,1,0,l,63,1,0.73,1A,0A,0,1,0,1,A10,1.31448481864538,2.30258509299405,0.315089964608978,0.198563371594574,0.315089964608978,0.5,0.5,0.505049277761208,0.5,0.5,0.568383442376618,0.5,0.315089964608978,0.5,0.5,0.315089964608978,0.315089964608978,0.801436628405426,0.782220917088974,0,0,1,0A,1A,0.315089964608978,0.198563371594574,0.61342921850334,0.38657078149666,1,1,0.684910035391022,0.25329347776764,0.5,0.375111833301864,0.453220917088974,12.5750355959629,4.4327709009954,0.5,0.321506124389004,0.999982477556228,0.5,0.369820070782044,0.502968943328937,11.9805548178804,4.03170587166665,0.5,38.9129473207841
184,1,16,B,3,1,l,27,1,0.73,3B,1B,0,1,0,1,B31,3.17832622320358,3.43398720448515,0.568383442376618,0.198563371594574,0.315089964608978,0.5,0.5,0.505049277761208,0.5,0.5,0.568383442376618,0.5,0.315089964608978,0.5,0.5,0.315089964608978,0.315089964608978,0.801436628405426,3.49522091708897,0,0,1,1B,3B,0.505049277761208,0.5,0.502511955320467,0.497488044679533,1,1,0.494950722238792,0.183042711131974,0.5,0.375111833301864,0.453220917088974,12.5750355959629,4.4327709009954,0.5,0.0873617629799053,0.560674734326052,0.5,0.369820070782044,0.502968943328937,11.9805548178804,4.03170587166665,0.5,38.9129473207841
184,1,17,C,2,3,a,63,1,0.73,2C,3C,1,0,1,0,C23,1.97707544660339,3.46573590279973,0.568383442376618,0.198563371594574,0.315089964608978,0.5,0.5,0.688091988893182,0.5,0.5,0.568383442376618,0.5,0.315089964608978,0.5,0.5,0.315089964608978,0.315089964608978,0.801436628405426,1.20022091708897,0,0,1,3C,2C,0.5,0.315089964608978,0.61342921850334,0.38657078149666,0,0,-0.5,-0.184910035391022,0.5,0.375111833301864,0.453220917088974,12.5750355959629,4.4327709009954,0.5,1.36670054790141,0.999982488766308,0.5,0.369820070782044,0.502968943328937,11.9805548178804,4.03170587166665,0.5,38.9129473207841
184,1,18,D,3,2,a,63,0,0.73,3D,2D,1,0,0,1,D32,3.28010483284195,2.11021320034659,0.568383442376618,0.198563371594574,0.315089964608978,0.5,0.5,0.688091988893182,0.5,0.5,0.568383442376618,0.5,0.315089964608978,0.315089964608978,0.5,0.315089964608978,0.315089964608978,0.801436628405426,0.783220917088974,1,1,0,3D,2D,0.801436628405426,0.315089964608978,0.71779448283601,0.28220551716399,1,0,-0.801436628405426,-0.296387350644218,0.5,0.375111833301864,0.453220917088974,12.5750355959629,4.4327709009954,0.5,3.13944732839676,0.999999999271859,0.5,0.369820070782044,0.502968943328937,11.9805548178804,4.03170587166665,0.5,38.9129473207841
184,1,19,B,0,1,l,63,1,0.73,0B,1B,0,1,0,1,B01,1.7988948571079,2.83321334405622,0.568383442376618,0.198563371594574,0.315089964608978,0.5,0.5,0.688091988893182,0.5,0.5,0.568383442376618,0.5,0.315089964608978,0.315089964608978,0.5,0.315089964608978,0.315089964608978,0.505049277761208,1.01222091708897,0,0,1,1B,0B,0.688091988893182,0.5,0.579157165712567,0.420842834287433,1,1,0.311908011106818,0.11534984274501,0.5,0.375111833301864,0.453220917088974,12.5750355959629,4.4327709009954,0.5,0.750237954912476,0.999523984626987,0.5,0.369820070782044,0.502968943328937,11.9805548178804,4.03170587166665,0.5,38.9129473207841
184,1,20,A,0,2,a,27,0,0.73,0A,2A,1,0,0,1,A02,0.285229948034552,3.55534806148941,0.568383442376618,0.198563371594574,0.315089964608978,0.5,0.5,0.803441831638192,0.5,0.5,0.568383442376618,0.5,0.315089964608978,0.315089964608978,0.5,0.315089964608978,0.315089964608978,0.505049277761208,1.52022091708897,1,1,0,0A,2A,0.568383442376618,0.315089964608978,0.643350934937519,0.356649065062481,1,0,-0.568383442376618,-0.210199604891063,0.5,0.375111833301864,0.453220917088974,12.5750355959629,4.4327709009954,0.5,0.268194818512345,0.999999028027229,0.5,0.369820070782044,0.502968943328937,11.9805548178804,4.03170587166665,0.5,38.9129473207841
184,1,21,D,3,0,a,9,1,0.73,3D,0D,1,0,1,0,D30,3.4227598248581,3.58351893845611,0.358183837485555,0.198563371594574,0.315089964608978,0.5,0.5,0.803441831638192,0.5,0.5,0.568383442376618,0.5,0.315089964608978,0.315089964608978,0.5,0.315089964608978,0.315089964608978,0.505049277761208,6.33222091708897,1,1,0,3D,0D,0.505049277761208,0.5,0.502511955320467,0.497488044679533,1,1,0.494950722238792,0.183042711131974,0.5,0.375111833301864,0.453220917088974,12.5750355959629,4.4327709009954,0.5,0.0368531632226395,0.561437059517509,0.5,0.369820070782044,0.502968943328937,11.9805548178804,4.03170587166665,0.5,38.9129473207841
184,1,22,C,3,2,l,63,1,0.73,3C,2C,0,1,0,1,C32,2.93311139297479,2.91777073208428,0.358183837485555,0.198563371594574,0.315089964608978,0.5,0.5,0.803441831638192,0.5,0.5,0.568383442376618,0.5,0.315089964608978,0.315089964608978,0.5,0.315089964608978,0.315089964608978,0.688091988893182,6.60822091708897,1,1,0,3C,2C,0.315089964608978,0.315089964608978,0.5,0.5,0,0,-0.315089964608978,-0.116526593014404,0.5,0.375111833301864,0.453220917088974,12.5750355959629,4.4327709009954,0.5,0.0302253001286358,0.499045126895261,0.5,0.369820070782044,0.502968943328937,11.9805548178804,4.03170587166665,0.5,38.9129473207841
184,1,23,B,1,3,a,27,0,0.73,1B,3B,1,0,0,1,B13,2.56928746208178,3.63758615972639,0.358183837485555,0.198563371594574,0.315089964608978,0.5,0.5,0.803441831638192,0.5,0.5,0.568383442376618,0.5,0.315089964608978,0.198563371594574,0.5,0.315089964608978,0.315089964608978,0.688091988893182,1.38122091708897,1,1,0,1B,3B,0.803441831638192,0.5,0.616400219891984,0.383599780108016,1,0,-0.803441831638192,-0.297128915045692,0.5,0.375111833301864,0.453220917088974,12.5750355959629,4.4327709009954,0.5,0.877733047604139,0.999986946587515,0.5,0.369820070782044,0.502968943328937,11.9805548178804,4.03170587166665,0.5,38.9129473207841
184,1,24,C,2,3,a,63,1,0.73,2C,3C,1,0,1,0,C23,1.31926330783552,2.9704144655697,0.358183837485555,0.198563371594574,0.315089964608978,0.5,0.5,0.506312916592501,0.5,0.5,0.568383442376618,0.5,0.315089964608978,0.198563371594574,0.5,0.315089964608978,0.315089964608978,0.688091988893182,1.29822091708897,1,1,0,2C,3C,0.315089964608978,0.198563371594574,0.61342921850334,0.38657078149666,1,1,0.684910035391022,0.25329347776764,0.5,0.375111833301864,0.453220917088974,12.5750355959629,4.4327709009954,0.5,1.11911155921015,0.999982525615319,0.5,0.369820070782044,0.502968943328937,11.9805548178804,4.03170587166665,0.5,38.9129473207841
184,1,25,D,3,2,a,63,1,0.73,3D,2D,1,0,1,0,D32,2.81538716601044,2.07944154167984,0.358183837485555,0.198563371594574,0.315089964608978,0.5,0.5,0.506312916592501,0.5,0.5,0.568383442376618,0.5,0.568383442376618,0.198563371594574,0.5,0.315089964608978,0.315089964608978,0.688091988893182,1.02622091708897,1,1,0,3D,2D,0.688091988893182,0.315089964608978,0.685909456894652,0.314090543105348,1,1,0.311908011106818,0.11534984274501,0.5,0.375111833301864,0.453220917088974,12.5750355959629,4.4327709009954,0.5,1.93287959430693,0.999999984102106,0.5,0.369820070782044,0.502968943328937,11.9805548178804,4.03170587166665,0.5,38.9129473207841
184,1,26,B,0,1,l,63,1,0.73,0B,1B,0,1,0,1,B01,1.41188378743651,2.6149597780362,0.358183837485555,0.198563371594574,0.315089964608978,0.5,0.5,0.506312916592501,0.5,0.5,0.568383442376618,0.5,0.568383442376618,0.198563371594574,0.5,0.315089964608978,0.315089964608978,0.803441831638192,3.81222091708897,1,1,0,0B,1B,0.5,0.506312916592501,0.49686334315678,0.50313665684322,0,0,-0.5,-0.184910035391022,0.5,0.375111833301864,0.453220917088974,12.5750355959629,4.4327709009954,0.5,0.0600274424538322,0.423598154074748,0.5,0.369820070782044,0.502968943328937,11.9805548178804,4.03170587166665,0.5,38.9129473207841
184,1,27,A,3,0,l,9,1,0.73,3A,0A,0,1,0,1,A30,1.24629169291525,3.73766961828337,0.358183837485555,0.198563371594574,0.315089964608978,0.5,0.315089964608978,0.506312916592501,0.5,0.5,0.568383442376618,0.5,0.568383442376618,0.198563371594574,0.5,0.315089964608978,0.315089964608978,0.803441831638192,1.16922091708897,1,1,0,3A,0A,0.5,0.358183837485555,0.582625747724381,0.417374252275619,0,0,-0.5,-0.184910035391022,0.5,0.375111833301864,0.453220917088974,12.5750355959629,4.4327709009954,0.5,1.02714311022867,0.999658409642808,0.5,0.369820070782044,0.502968943328937,11.9805548178804,4.03170587166665,0.5,38.9129473207841
184,1,28,D,3,2,a,63,0,0.73,3D,2D,1,0,0,1,D32,1.73730654795806,1.96944064646551,0.358183837485555,0.198563371594574,0.315089964608978,0.315089964608978,0.315089964608978,0.506312916592501,0.5,0.5,0.568383442376618,0.5,0.568383442376618,0.198563371594574,0.5,0.315089964608978,0.315089964608978,0.803441831638192,0.813220917088974,1,1,0,3D,2D,0.803441831638192,0.315089964608978,0.718300395512985,0.281699604487015,1,0,-0.803441831638192,-0.297128915045692,0.5,0.375111833301864,0.453220917088974,12.5750355959629,4.4327709009954,0.5,3.62846983142586,0.999999999306657,0.5,0.369820070782044,0.502968943328937,11.9805548178804,4.03170587166665,0.5,38.9129473207841
184,1,29,C,0,2,l,27,1,0.73,0C,2C,0,1,0,1,C02,1.08175145159088,2.68557734525015,0.358183837485555,0.198563371594574,0.315089964608978,0.315089964608978,0.315089964608978,0.506312916592501,0.5,0.5,0.568383442376618,0.5,0.568383442376618,0.198563371594574,0.5,0.315089964608978,0.315089964608978,0.506312916592501,3.28422091708897,1,1,0,0C,2C,0.568383442376618,0.568383442376618,0.5,0.5,0,0,-0.568383442376618,-0.210199604891063,0.5,0.375111833301864,0.453220917088974,12.5750355959629,4.4327709009954,0.5,0.0826042274818212,0.498913554332807,0.5,0.369820070782044,0.502968943328937,11.9805548178804,4.03170587166665,0.5,38.9129473207841
184,1,30,A,0,1,a,63,0,0.73,0A,1A,1,0,0,1,A01,1.27327838567039,3.11351530921037,0.358183837485555,0.198563371594574,0.315089964608978,0.315089964608978,0.315089964608978,0.506312916592501,0.5,0.5,0.358183837485555,0.5,0.568383442376618,0.198563371594574,0.5,0.315089964608978,0.315089964608978,0.506312916592501,0.901220917088974,1,1,0,0A,1A,0.358183837485555,0.198563371594574,0.643350934937519,0.356649065062481,1,0,-0.358183837485555,-0.132463572131892,0.5,0.375111833301864,0.453220917088974,12.5750355959629,4.4327709009954,0.5,1.88872561799284,0.999999031311057,0.5,0.369820070782044,0.502968943328937,11.9805548178804,4.03170587166665,0.5,38.9129473207841
184,1,31,B,0,1,l,63,1,0.73,0B,1B,0,1,0,1,B01,2.42421928052381,2.4423470353692,0.225720265353663,0.198563371594574,0.315089964608978,0.315089964608978,0.315089964608978,0.506312916592501,0.5,0.5,0.358183837485555,0.5,0.568383442376618,0.198563371594574,0.5,0.315089964608978,0.315089964608978,0.506312916592501,1.06022091708897,0,0,1,1B,0B,0.506312916592501,0.315089964608978,0.616400219891984,0.383599780108016,1,1,0.493687083407499,0.182575392129943,0.5,0.375111833301864,0.453220917088974,12.5750355959629,4.4327709009954,0.5,1.59656268247515,0.999986907591491,0.5,0.369820070782044,0.502968943328937,11.9805548178804,4.03170587166665,0.5,38.9129473207841
184,1,32,D,1,3,l,27,1,0.73,1D,3D,0,1,0,1,D13,1.46005584700616,3.85014760171006,0.225720265353663,0.198563371594574,0.315089964608978,0.315089964608978,0.315089964608978,0.688888308722443,0.5,0.5,0.358183837485555,0.5,0.568383442376618,0.198563371594574,0.5,0.315089964608978,0.315089964608978,0.506312916592501,0.965220917088974,0,0,1,3D,1D,0.506312916592501,0.315089964608978,0.616400219891984,0.383599780108016,1,1,0.493687083407499,0.182575392129943,0.5,0.375111833301864,0.453220917088974,12.5750355959629,4.4327709009954,0.5,1.44595764924465,0.999986942758971,0.5,0.369820070782044,0.502968943328937,11.9805548178804,4.03170587166665,0.5,38.9129473207841
184,1,33,C,2,3,a,63,1,0.73,2C,3C,1,0,1,0,C23,3.34722954419429,2.77258872223978,0.225720265353663,0.198563371594574,0.315089964608978,0.315089964608978,0.315089964608978,0.688888308722443,0.5,0.5,0.358183837485555,0.5,0.568383442376618,0.198563371594574,0.5,0.315089964608978,0.315089964608978,0.688888308722443,1.12022091708897,1,1,0,2C,3C,0.568383442376618,0.198563371594574,0.741098902847738,0.258901097152262,1,1,0.431616557623382,0.159620465890981,0.5,0.375111833301864,0.453220917088974,12.5750355959629,4.4327709009954,0.5,0.236573695813826,0.999999999923535,0.5,0.369820070782044,0.502968943328937,11.9805548178804,4.03170587166665,0.5,38.9129473207841
184,1,34,B,0,1,l,63,0,0.73,0B,1B,0,1,1,0,B01,1.8165270480835,2.28238238567653,0.225720265353663,0.198563371594574,0.315089964608978,0.315089964608978,0.315089964608978,0.688888308722443,0.5,0.5,0.358183837485555,0.5,0.7280039082676,0.198563371594574,0.5,0.315089964608978,0.315089964608978,0.688888308722443,1.51722091708897,0,0,1,1B,0B,0.688888308722443,0.315089964608978,0.686158582333221,0.313841417666779,1,0,-0.688888308722443,-0.254764723092657,0.5,0.375111833301864,0.453220917088974,12.5750355959629,4.4327709009954,0.5,0.0355749456339585,0.999999984405827,0.5,0.369820070782044,0.502968943328937,11.9805548178804,4.03170587166665,0.5,38.9129473207841
184,1,35,A,1,0,l,63,1,0.73,1A,0A,0,1,0,1,A10,3.23753331218738,2.52572864430826,0.225720265353663,0.198563371594574,0.315089964608978,0.315089964608978,0.315089964608978,0.434123585629786,0.5,0.5,0.358183837485555,0.5,0.7280039082676,0.198563371594574,0.5,0.315089964608978,0.315089964608978,0.688888308722443,3.53222091708897,0,0,1,0A,1A,0.225720265353663,0.198563371594574,0.532003230143898,0.467996769856102,1,1,0.774279734646337,0.286344186272011,0.5,0.375111833301864,0.453220917088974,12.5750355959629,4.4327709009954,0.5,0.148138802680772,0.956300448295933,0.5,0.369820070782044,0.502968943328937,11.9805548178804,4.03170587166665,0.5,38.9129473207841
184,1,36,C,2,1,a,9,1,0.73,2C,1C,1,0,1,0,C21,2.21753811149559,3.93182563272433,0.512064451625674,0.198563371594574,0.315089964608978,0.315089964608978,0.315089964608978,0.434123585629786,0.5,0.5,0.358183837485555,0.5,0.7280039082676,0.198563371594574,0.5,0.315089964608978,0.315089964608978,0.688888308722443,0.914220917088974,1,1,0,2C,1C,0.7280039082676,0.5,0.592835172075818,0.407164827924182,1,1,0.2719960917324,0.100589613896916,0.5,0.375111833301864,0.453220917088974,12.5750355959629,4.4327709009954,0.5,0.698322574954587,0.999872592419045,0.5,0.369820070782044,0.502968943328937,11.9805548178804,4.03170587166665,0.5,38.9129473207841
184,1,37,A,0,1,a,63,1,0.73,0A,1A,1,0,1,0,A01,2.14871141212039,2.85263142991332,0.512064451625674,0.198563371594574,0.315089964608978,0.315089964608978,0.315089964608978,0.434123585629786,0.5,0.5,0.358183837485555,0.5,0.828593522164515,0.198563371594574,0.5,0.315089964608978,0.315089964608978,0.688888308722443,0.771220917088974,1,1,0,0A,1A,0.512064451625674,0.198563371594574,0.720580358513443,0.279419641486557,1,1,0.487935548374326,0.180448359036869,0.5,0.375111833301864,0.453220917088974,12.5750355959629,4.4327709009954,0.5,2.97162922423154,0.999999999442968,0.5,0.369820070782044,0.502968943328937,11.9805548178804,4.03170587166665,0.5,38.9129473207841
184,1,38,D,1,3,l,27,0,0.73,1D,3D,0,1,1,0,D13,1.03993388534815,3.27714473299218,0.692512810662543,0.198563371594574,0.315089964608978,0.315089964608978,0.315089964608978,0.434123585629786,0.5,0.5,0.358183837485555,0.5,0.828593522164515,0.198563371594574,0.5,0.315089964608978,0.315089964608978,0.688888308722443,0.888220917088974,0,0,1,3D,1D,0.688888308722443,0.315089964608978,0.686158582333221,0.313841417666779,1,0,-0.688888308722443,-0.254764723092657,0.5,0.375111833301864,0.453220917088974,12.5750355959629,4.4327709009954,0.5,2.99866286975192,0.99999998453541,0.5,0.369820070782044,0.502968943328937,11.9805548178804,4.03170587166665,0.5,38.9129473207841
184,1,39,B,1,0,a,63,1,0.73,1B,0B,1,0,1,0,B10,1.05456547274079,3.29583686600433,0.692512810662543,0.198563371594574,0.315089964608978,0.315089964608978,0.315089964608978,0.434123585629786,0.5,0.5,0.358183837485555,0.5,0.828593522164515,0.198563371594574,0.5,0.315089964608978,0.315089964608978,0.434123585629786,1.48922091708897,1,1,0,1B,0B,0.434123585629786,0.315089964608978,0.579439047106712,0.420560952893288,1,1,0.565876414370214,0.209272455616282,0.5,0.375111833301864,0.453220917088974,12.5750355959629,4.4327709009954,0.5,0.813244186432719,0.999537455260545,0.5,0.369820070782044,0.502968943328937,11.9805548178804,4.03170587166665,0.5,38.9129473207841
184,1,40,C,3,2,l,63,0,0.73,3C,2C,0,1,1,0,C32,2.19358334089884,2.90872089656436,0.692512810662543,0.198563371594574,0.315089964608978,0.315089964608978,0.315089964608978,0.643396041246068,0.5,0.5,0.358183837485555,0.5,0.828593522164515,0.198563371594574,0.5,0.315089964608978,0.315089964608978,0.434123585629786,0.835220917088974,0,0,1,2C,3C,0.828593522164515,0.198563371594574,0.806686424633835,0.193313575366165,1,0,-0.828593522164515,-0.306430515016425,0.5,0.375111833301864,0.453220917088974,12.5750355959629,4.4327709009954,0.5,3.19831410328638,0.999999999999864,0.5,0.369820070782044,0.502968943328937,11.9805548178804,4.03170587166665,0.5,38.9129473207841
184,1,41,A,0,2,a,27,1,0.73,0A,2A,1,0,1,0,A02,2.54803329356454,3.3322045101752,0.692512810662543,0.198563371594574,0.315089964608978,0.315089964608978,0.315089964608978,0.643396041246068,0.5,0.5,0.358183837485555,0.5,0.522163007148091,0.198563371594574,0.5,0.315089964608978,0.315089964608978,0.434123585629786,0.789220917088974,1,1,0,0A,2A,0.692512810662543,0.315089964608978,0.68728751811539,0.31271248188461,1,1,0.307487189337457,0.11371493412535,0.5,0.375111833301864,0.453220917088974,12.5750355959629,4.4327709009954,0.5,2.06191001803393,0.999999986061855,0.5,0.369820070782044,0.502968943328937,11.9805548178804,4.03170587166665,0.5,38.9129473207841
184,1,42,D,2,3,l,63,1,0.73,2D,3D,0,1,0,1,D23,1.53527688913029,4.04305126783455,0.806227744787893,0.198563371594574,0.315089964608978,0.315089964608978,0.315089964608978,0.643396041246068,0.5,0.5,0.358183837485555,0.5,0.522163007148091,0.198563371594574,0.5,0.315089964608978,0.315089964608978,0.434123585629786,2.06822091708897,0,0,1,3D,2D,0.434123585629786,0.315089964608978,0.579439047106712,0.420560952893288,1,1,0.565876414370214,0.209272455616282,0.5,0.375111833301864,0.453220917088974,12.5750355959629,4.4327709009954,0.5,0.305282456585806,0.999535334028792,0.5,0.369820070782044,0.502968943328937,11.9805548178804,4.03170587166665,0.5,38.9129473207841
184,1,43,B,1,3,a,27,1,0.73,1B,3B,1,0,1,0,B13,0.158974445068948,3.36729582998647,0.806227744787893,0.198563371594574,0.315089964608978,0.315089964608978,0.315089964608978,0.643396041246068,0.5,0.5,0.358183837485555,0.5,0.522163007148091,0.198563371594574,0.5,0.315089964608978,0.315089964608978,0.643396041246068,2.02522091708897,1,1,0,1B,3B,0.643396041246068,0.5,0.562706199808859,0.437293800191141,1,1,0.356603958753932,0.131879301267536,0.5,0.375111833301864,0.453220917088974,12.5750355959629,4.4327709009954,0.5,0.417870938913737,0.997670711491757,0.5,0.369820070782044,0.502968943328937,11.9805548178804,4.03170587166665,0.5,38.9129473207841
184,1,44,C,3,2,l,63,1,0.73,3C,2C,0,1,0,1,C32,3.38111062224012,2.69124308278583,0.806227744787893,0.198563371594574,0.315089964608978,0.315089964608978,0.315089964608978,0.775275342513605,0.5,0.5,0.358183837485555,0.5,0.522163007148091,0.198563371594574,0.5,0.315089964608978,0.315089964608978,0.643396041246068,0.763220917088974,0,0,1,2C,3C,0.522163007148091,0.198563371594574,0.724495484762226,0.275504515237774,1,1,0.477836992851909,0.176713710518772,0.5,0.375111833301864,0.453220917088974,12.5750355959629,4.4327709009954,0.5,2.92365328006955,0.99999999961958,0.5,0.369820070782044,0.502968943328937,11.9805548178804,4.03170587166665,0.5,38.9129473207841
