ID,session,trialNr,mod2Stim,visStimLeft,visStimRight,correctKey,frequency,rewardAccurate,probFB,stimPairLeft,stimPairRight,leftCorrect,rightCorrect,pCorrectLeft,pCorrectRight,triplet,rt,surprise,0A belief,1A belief,2A belief,3A belief,0B belief,1B belief,2B belief,3B belief,0C belief,1C belief,2C belief,3C belief,0D belief,1D belief,2D belief,3D belief,reactionTime,choice,choiceLeft,choiceRight,chosenPair,otherPair,beliefPair,beliefOtherPair,beliefPairNorm,beliefOtherPairNorm,choiceAccurate,reward,rewardPE,update2,sim_CBCsimpleRW_CBCdriftDiffusionLR_startBelief,sim_CBCsimpleRW_CBCdriftDiffusionLR_alpha1,sim_CBCsimpleRW_CBCdriftDiffusionLR_nonDecisionTime,sim_CBCsimpleRW_CBCdriftDiffusionLR_weight,sim_CBCsimpleRW_CBCdriftDiffusionLR_startingBoundary,sim_CBCsimpleRW_CBCdriftDiffusionLR_startingPoint,lik,corrLik,fitCBCsimpleRW_CBCdriftDiffusionLR_startBelief,fitCBCsimpleRW_CBCdriftDiffusionLR_alpha1,fitCBCsimpleRW_CBCdriftDiffusionLR_nonDecisionTime,fitCBCsimpleRW_CBCdriftDiffusionLR_weight,fitCBCsimpleRW_CBCdriftDiffusionLR_startingBoundary,fitCBCsimpleRW_CBCdriftDiffusionLR_startingPoint,fit_CBCsimpleRW_CBCdriftDiffusionLR_NLL
136,1,1,A,0,1,a,63,1,0.95,0A,1A,1,0,1,0,A01,1.55382234771713,2.77258872223978,0.5,0.5,0.5,0.5,0.5,0.5,0.5,0.5,0.5,0.5,0.5,0.5,0.5,0.5,0.5,0.5,1.22637075316443,0,0,1,1A,0A,0.5,0.5,0.5,0.5,0,0,-0.5,-0.0523010929945619,0.5,0.0644508764531019,0.888370753164432,10.4167826196294,1.57687673822815,0.5,0.788377255389637,0.499764745062649,0.5,0.104602185989124,0.933963418952461,6.62423703388965,1.3008991104218,0.5,17.6638066710443
136,1,2,C,3,2,l,63,1,0.95,3C,2C,0,1,0,1,C32,1.68539966605531,2.83321334405622,0.5,0.447698907005438,0.5,0.5,0.5,0.5,0.5,0.5,0.5,0.5,0.5,0.5,0.5,0.5,0.5,0.5,1.64737075316443,0,0,1,2C,3C,0.5,0.5,0.5,0.5,1,1,0.5,0.0523010929945619,0.5,0.0644508764531019,0.888370753164432,10.4167826196294,1.57687673822815,0.5,0.232064096968839,0.500456223017835,0.5,0.104602185989124,0.933963418952461,6.62423703388965,1.3008991104218,0.5,17.6638066710443
136,1,3,A,0,2,a,27,1,0.95,0A,2A,1,0,1,0,A02,3.04526035590518,2.89037175789616,0.5,0.447698907005438,0.5,0.5,0.5,0.5,0.5,0.5,0.5,0.5,0.552301092994562,0.5,0.5,0.5,0.5,0.5,1.09437075316443,1,1,0,0A,2A,0.5,0.5,0.5,0.5,1,1,0.5,0.0523010929945619,0.5,0.0644508764531019,0.888370753164432,10.4167826196294,1.57687673822815,0.5,1.0814395008456,0.500562822915228,0.5,0.104602185989124,0.933963418952461,6.62423703388965,1.3008991104218,0.5,17.6638066710443
136,1,4,B,1,0,a,63,1,0.95,1B,0B,1,0,1,0,B10,1.88124875645492,2.94443897916644,0.552301092994562,0.447698907005438,0.5,0.5,0.5,0.5,0.5,0.5,0.5,0.5,0.552301092994562,0.5,0.5,0.5,0.5,0.5,0.994370753164432,0,0,1,0B,1B,0.5,0.5,0.5,0.5,0,0,-0.5,-0.0523010929945619,0.5,0.0644508764531019,0.888370753164432,10.4167826196294,1.57687673822815,0.5,0.526890651949677,0.50011581093395,0.5,0.104602185989124,0.933963418952461,6.62423703388965,1.3008991104218,0.5,17.6638066710443
136,1,5,B,0,1,l,63,1,0.95,0B,1B,0,1,0,1,B01,2.57939793139312,2.99573227355399,0.552301092994562,0.447698907005438,0.5,0.5,0.447698907005438,0.5,0.5,0.5,0.5,0.5,0.552301092994562,0.5,0.5,0.5,0.5,0.5,1.52037075316443,1,1,0,0B,1B,0.447698907005438,0.5,0.472406271333675,0.527593728666325,0,0,-0.447698907005438,-0.0468302843377103,0.5,0.0644508764531019,0.888370753164432,10.4167826196294,1.57687673822815,0.5,0.254468995682757,0.383199868813128,0.5,0.104602185989124,0.933963418952461,6.62423703388965,1.3008991104218,0.5,17.6638066710443
136,1,6,C,3,2,l,63,1,0.95,3C,2C,0,1,0,1,C32,1.82774433267913,2.35137525716348,0.552301092994562,0.447698907005438,0.5,0.5,0.400868622667728,0.5,0.5,0.5,0.5,0.5,0.552301092994562,0.5,0.5,0.5,0.5,0.5,1.04537075316443,0,0,1,2C,3C,0.552301092994562,0.5,0.524850821377429,0.475149178622571,1,1,0.447698907005438,0.0468302843377103,0.5,0.0644508764531019,0.888370753164432,10.4167826196294,1.57687673822815,0.5,1.28637539116958,0.605327236929428,0.5,0.104602185989124,0.933963418952461,6.62423703388965,1.3008991104218,0.5,17.6638066710443
136,1,7,D,3,1,a,27,1,0.95,3D,1D,1,0,1,0,D31,2.34437484151338,3.09104245335832,0.552301092994562,0.447698907005438,0.5,0.5,0.400868622667728,0.5,0.5,0.5,0.5,0.5,0.599131377332272,0.5,0.5,0.5,0.5,0.5,1.18937075316443,1,1,0,3D,1D,0.5,0.5,0.5,0.5,1,1,0.5,0.0523010929945619,0.5,0.0644508764531019,0.888370753164432,10.4167826196294,1.57687673822815,0.5,0.87479129676818,0.500077741419738,0.5,0.104602185989124,0.933963418952461,6.62423703388965,1.3008991104218,0.5,17.6638066710443
136,1,8,C,1,2,l,9,1,0.95,1C,2C,0,1,0,1,C12,2.53973677787601,3.13549421592915,0.552301092994562,0.447698907005438,0.5,0.5,0.400868622667728,0.5,0.5,0.5,0.5,0.5,0.599131377332272,0.5,0.5,0.5,0.5,0.552301092994562,1.55437075316443,0,0,1,2C,1C,0.599131377332272,0.5,0.545095326808373,0.454904673191627,1,1,0.400868622667728,0.0419317342254936,0.5,0.0644508764531019,0.888370753164432,10.4167826196294,1.57687673822815,0.5,0.401526188649433,0.685183891126439,0.5,0.104602185989124,0.933963418952461,6.62423703388965,1.3008991104218,0.5,17.6638066710443
136,1,9,B,3,1,l,27,1,0.95,3B,1B,0,1,0,1,B31,2.08039256862181,3.17805383034795,0.552301092994562,0.447698907005438,0.5,0.5,0.400868622667728,0.5,0.5,0.5,0.5,0.5,0.641063111557766,0.5,0.5,0.5,0.5,0.552301092994562,1.70437075316443,1,1,0,3B,1B,0.5,0.5,0.5,0.5,0,0,-0.5,-0.0523010929945619,0.5,0.0644508764531019,0.888370753164432,10.4167826196294,1.57687673822815,0.5,0.19632260205011,0.49993366817303,0.5,0.104602185989124,0.933963418952461,6.62423703388965,1.3008991104218,0.5,17.6638066710443
136,1,10,D,3,2,a,63,1,0.95,3D,2D,1,0,1,0,D32,1.11960166929992,3.2188758248682,0.552301092994562,0.447698907005438,0.5,0.5,0.400868622667728,0.5,0.5,0.447698907005438,0.5,0.5,0.641063111557766,0.5,0.5,0.5,0.5,0.552301092994562,1.02237075316443,1,1,0,3D,2D,0.552301092994562,0.5,0.524850821377429,0.475149178622571,1,1,0.447698907005438,0.0468302843377103,0.5,0.0644508764531019,0.888370753164432,10.4167826196294,1.57687673822815,0.5,1.11246808183401,0.605650749061795,0.5,0.104602185989124,0.933963418952461,6.62423703388965,1.3008991104218,0.5,17.6638066710443
136,1,11,B,1,0,a,63,1,0.95,1B,0B,1,0,1,0,B10,3.119367553072,2.56494935746154,0.552301092994562,0.447698907005438,0.5,0.5,0.400868622667728,0.5,0.5,0.447698907005438,0.5,0.5,0.641063111557766,0.5,0.5,0.5,0.5,0.599131377332272,1.23437075316443,0,0,1,0B,1B,0.400868622667728,0.5,0.444980114281971,0.555019885718028,0,0,-0.400868622667728,-0.0419317342254936,0.5,0.0644508764531019,0.888370753164432,10.4167826196294,1.57687673822815,0.5,0.443360015722933,0.279428370306083,0.5,0.104602185989124,0.933963418952461,6.62423703388965,1.3008991104218,0.5,17.6638066710443
136,1,12,C,0,2,l,27,1,0.95,0C,2C,0,1,0,1,C02,0.66652617421678,3.29583686600433,0.552301092994562,0.447698907005438,0.5,0.5,0.358936888442234,0.5,0.5,0.447698907005438,0.5,0.5,0.641063111557766,0.5,0.5,0.5,0.5,0.599131377332272,1.30537075316443,0,0,1,2C,0C,0.641063111557766,0.5,0.561812142610231,0.438187857389769,1,1,0.358936888442234,0.037545583163192,0.5,0.0644508764531019,0.888370753164432,10.4167826196294,1.57687673822815,0.5,0.944828943595847,0.743731005130659,0.5,0.104602185989124,0.933963418952461,6.62423703388965,1.3008991104218,0.5,17.6638066710443
136,1,13,D,3,2,a,63,0,0.95,3D,2D,1,0,0,1,D32,1.89450987417022,2.63905732961526,0.552301092994562,0.447698907005438,0.5,0.5,0.358936888442234,0.5,0.5,0.447698907005438,0.5,0.5,0.678608694720958,0.5,0.5,0.5,0.5,0.599131377332272,1.23337075316443,1,1,0,3D,2D,0.599131377332272,0.5,0.545095326808373,0.454904673191627,1,0,-0.599131377332272,-0.0626704517636303,0.5,0.0644508764531019,0.888370753164432,10.4167826196294,1.57687673822815,0.5,1.0813551301415,0.685239154270633,0.5,0.104602185989124,0.933963418952461,6.62423703388965,1.3008991104218,0.5,17.6638066710443
136,1,14,A,1,0,l,63,1,0.95,1A,0A,0,1,0,1,A10,1.84893798828936,3.36729582998647,0.552301092994562,0.447698907005438,0.5,0.5,0.358936888442234,0.5,0.5,0.447698907005438,0.5,0.5,0.678608694720958,0.5,0.5,0.5,0.5,0.536460925568642,1.50937075316443,1,1,0,1A,0A,0.447698907005438,0.552301092994562,0.447698907005438,0.552301092994562,0,0,-0.447698907005438,-0.0468302843377103,0.5,0.0644508764531019,0.888370753164432,10.4167826196294,1.57687673822815,0.5,0.19205623448043,0.288284317555864,0.5,0.104602185989124,0.933963418952461,6.62423703388965,1.3008991104218,0.5,17.6638066710443
136,1,15,C,2,3,a,63,1,0.95,2C,3C,1,0,1,0,C23,3.17202879362145,3.40119738166216,0.552301092994562,0.400868622667728,0.5,0.5,0.358936888442234,0.5,0.5,0.447698907005438,0.5,0.5,0.678608694720958,0.5,0.5,0.5,0.5,0.536460925568642,1.20637075316443,1,1,0,2C,3C,0.678608694720958,0.5,0.575770989778437,0.424229010221563,1,1,0.321391305279042,0.0336182330900857,0.5,0.0644508764531019,0.888370753164432,10.4167826196294,1.57687673822815,0.5,1.39685211093992,0.786517018241558,0.5,0.104602185989124,0.933963418952461,6.62423703388965,1.3008991104218,0.5,17.6638066710443
136,1,16,A,0,2,a,27,1,0.95,0A,2A,1,0,1,0,A02,0.0802705144605571,2.7408400239252,0.552301092994562,0.400868622667728,0.5,0.5,0.358936888442234,0.5,0.5,0.447698907005438,0.5,0.5,0.712226927811043,0.5,0.5,0.5,0.5,0.536460925568642,1.41937075316443,0,0,1,2A,0A,0.5,0.552301092994562,0.475149178622571,0.524850821377429,0,0,-0.5,-0.0523010929945619,0.5,0.0644508764531019,0.888370753164432,10.4167826196294,1.57687673822815,0.5,0.354282196026913,0.394396406212967,0.5,0.104602185989124,0.933963418952461,6.62423703388965,1.3008991104218,0.5,17.6638066710443
136,1,17,D,2,3,l,63,1,0.95,2D,3D,0,1,0,1,D23,1.77257203367848,3.46573590279973,0.552301092994562,0.400868622667728,0.447698907005438,0.5,0.358936888442234,0.5,0.5,0.447698907005438,0.5,0.5,0.712226927811043,0.5,0.5,0.5,0.5,0.536460925568642,1.20437075316443,1,1,0,2D,3D,0.5,0.536460925568642,0.482410853767286,0.517589146232714,0,0,-0.5,-0.0523010929945619,0.5,0.0644508764531019,0.888370753164432,10.4167826196294,1.57687673822815,0.5,0.715974796384405,0.424861969678122,0.5,0.104602185989124,0.933963418952461,6.62423703388965,1.3008991104218,0.5,17.6638066710443
136,1,18,D,3,2,a,63,1,0.95,3D,2D,1,0,1,0,D32,0.606191857344603,2.39789527279837,0.552301092994562,0.400868622667728,0.447698907005438,0.5,0.358936888442234,0.5,0.5,0.447698907005438,0.5,0.5,0.712226927811043,0.5,0.5,0.5,0.447698907005438,0.536460925568642,1.08237075316443,0,0,1,2D,3D,0.447698907005438,0.536460925568642,0.454904673191627,0.545095326808373,0,0,-0.447698907005438,-0.0468302843377103,0.5,0.0644508764531019,0.888370753164432,10.4167826196294,1.57687673822815,0.5,0.719951960374101,0.314659081976967,0.5,0.104602185989124,0.933963418952461,6.62423703388965,1.3008991104218,0.5,17.6638066710443
136,1,19,B,3,1,l,27,1,0.95,3B,1B,0,1,0,1,B31,2.86577873988879,2.83321334405622,0.552301092994562,0.400868622667728,0.447698907005438,0.5,0.358936888442234,0.5,0.5,0.447698907005438,0.5,0.5,0.712226927811043,0.5,0.5,0.5,0.400868622667728,0.536460925568642,1.95537075316443,1,1,0,3B,1B,0.447698907005438,0.5,0.472406271333675,0.527593728666325,0,0,-0.447698907005438,-0.0468302843377103,0.5,0.0644508764531019,0.888370753164432,10.4167826196294,1.57687673822815,0.5,0.0695026691593026,0.383123718413491,0.5,0.104602185989124,0.933963418952461,6.62423703388965,1.3008991104218,0.5,17.6638066710443
136,1,20,D,0,3,l,9,1,0.95,0D,3D,0,1,0,1,D03,0.582338420599015,3.55534806148941,0.552301092994562,0.400868622667728,0.447698907005438,0.5,0.358936888442234,0.5,0.5,0.400868622667728,0.5,0.5,0.712226927811043,0.5,0.5,0.5,0.400868622667728,0.536460925568642,1.07537075316443,1,1,0,0D,3D,0.5,0.536460925568642,0.482410853767286,0.517589146232714,0,0,-0.5,-0.0523010929945619,0.5,0.0644508764531019,0.888370753164432,10.4167826196294,1.57687673822815,0.5,0.935590704885136,0.424647515444489,0.5,0.104602185989124,0.933963418952461,6.62423703388965,1.3008991104218,0.5,17.6638066710443
136,1,21,B,1,0,a,63,1,0.95,1B,0B,1,0,1,0,B10,2.50018323290387,2.484906649788,0.552301092994562,0.400868622667728,0.447698907005438,0.5,0.358936888442234,0.5,0.5,0.400868622667728,0.5,0.5,0.712226927811043,0.5,0.447698907005438,0.5,0.400868622667728,0.536460925568642,1.42937075316443,1,1,0,1B,0B,0.5,0.358936888442234,0.582114945495936,0.417885054504064,1,1,0.5,0.0523010929945619,0.5,0.0644508764531019,0.888370753164432,10.4167826196294,1.57687673822815,0.5,0.662663867511397,0.804690854915093,0.5,0.104602185989124,0.933963418952461,6.62423703388965,1.3008991104218,0.5,17.6638066710443
136,1,22,A,1,0,l,63,1,0.95,1A,0A,0,1,0,1,A10,1.44251913089545,2.91777073208428,0.552301092994562,0.400868622667728,0.447698907005438,0.5,0.358936888442234,0.552301092994562,0.5,0.400868622667728,0.5,0.5,0.712226927811043,0.5,0.447698907005438,0.5,0.400868622667728,0.536460925568642,1.33537075316443,0,0,1,0A,1A,0.552301092994562,0.400868622667728,0.579436257698145,0.420563742301855,1,1,0.447698907005438,0.0468302843377103,0.5,0.0644508764531019,0.888370753164432,10.4167826196294,1.57687673822815,0.5,0.914041825840584,0.797234293117328,0.5,0.104602185989124,0.933963418952461,6.62423703388965,1.3008991104218,0.5,17.6638066710443
136,1,23,C,2,3,a,63,1,0.95,2C,3C,1,0,1,0,C23,3.2133300180067,2.94443897916644,0.599131377332272,0.400868622667728,0.447698907005438,0.5,0.358936888442234,0.552301092994562,0.5,0.400868622667728,0.5,0.5,0.712226927811043,0.5,0.447698907005438,0.5,0.400868622667728,0.536460925568642,1.48537075316443,1,1,0,2C,3C,0.712226927811043,0.5,0.587535973233274,0.412464026766726,1,1,0.287773072188957,0.0301016924197708,0.5,0.0644508764531019,0.888370753164432,10.4167826196294,1.57687673822815,0.5,0.545666410091276,0.818785415309847,0.5,0.104602185989124,0.933963418952461,6.62423703388965,1.3008991104218,0.5,17.6638066710443
136,1,24,A,0,2,a,27,1,0.95,0A,2A,1,0,1,0,A02,3.30832714971494,2.56494935746154,0.599131377332272,0.400868622667728,0.447698907005438,0.5,0.358936888442234,0.552301092994562,0.5,0.400868622667728,0.5,0.5,0.742328620230814,0.5,0.447698907005438,0.5,0.400868622667728,0.536460925568642,1.12037075316443,0,0,1,2A,0A,0.447698907005438,0.599131377332272,0.427670954598605,0.572329045401395,0,0,-0.447698907005438,-0.0468302843377103,0.5,0.0644508764531019,0.888370753164432,10.4167826196294,1.57687673822815,0.5,0.509610902346806,0.223087268534048,0.5,0.104602185989124,0.933963418952461,6.62423703388965,1.3008991104218,0.5,17.6638066710443
136,1,25,B,1,0,a,63,1,0.95,1B,0B,1,0,1,0,B10,1.21897663119661,2.30258509299405,0.599131377332272,0.400868622667728,0.400868622667728,0.5,0.358936888442234,0.552301092994562,0.5,0.400868622667728,0.5,0.5,0.742328620230814,0.5,0.447698907005438,0.5,0.400868622667728,0.536460925568642,1.59037075316443,1,1,0,1B,0B,0.552301092994562,0.358936888442234,0.606099728331912,0.393900271668088,1,1,0.447698907005438,0.0468302843377103,0.5,0.0644508764531019,0.888370753164432,10.4167826196294,1.57687673822815,0.5,0.357020409175067,0.861789875234773,0.5,0.104602185989124,0.933963418952461,6.62423703388965,1.3008991104218,0.5,17.6638066710443
136,1,26,D,2,3,l,63,1,0.95,2D,3D,0,1,0,1,D23,3.11953991600038,3.02042488614436,0.599131377332272,0.400868622667728,0.400868622667728,0.5,0.358936888442234,0.599131377332272,0.5,0.400868622667728,0.5,0.5,0.742328620230814,0.5,0.447698907005438,0.5,0.400868622667728,0.536460925568642,1.73937075316443,0,0,1,3D,2D,0.536460925568642,0.400868622667728,0.572329045401395,0.427670954598605,1,1,0.463539074431358,0.0484872004768952,0.5,0.0644508764531019,0.888370753164432,10.4167826196294,1.57687673822815,0.5,0.228455825541062,0.776715275493418,0.5,0.104602185989124,0.933963418952461,6.62423703388965,1.3008991104218,0.5,17.6638066710443
136,1,27,B,1,2,a,9,1,0.95,1B,2B,1,0,1,0,B12,2.02057180973838,3.73766961828337,0.599131377332272,0.400868622667728,0.400868622667728,0.5,0.358936888442234,0.599131377332272,0.5,0.400868622667728,0.5,0.5,0.742328620230814,0.5,0.447698907005438,0.5,0.400868622667728,0.584948126045537,1.22437075316443,1,1,0,1B,2B,0.599131377332272,0.5,0.545095326808373,0.454904673191627,1,1,0.400868622667728,0.0419317342254936,0.5,0.0644508764531019,0.888370753164432,10.4167826196294,1.57687673822815,0.5,1.11132135628332,0.685317321074455,0.5,0.104602185989124,0.933963418952461,6.62423703388965,1.3008991104218,0.5,17.6638066710443
136,1,28,D,1,3,l,27,1,0.95,1D,3D,0,1,0,1,D13,1.89980374510237,3.76120011569356,0.599131377332272,0.400868622667728,0.400868622667728,0.5,0.358936888442234,0.641063111557766,0.5,0.400868622667728,0.5,0.5,0.742328620230814,0.5,0.447698907005438,0.5,0.400868622667728,0.584948126045537,1.74437075316443,0,0,1,3D,1D,0.584948126045537,0.5,0.539148473556593,0.460851526443407,1,1,0.415051873954463,0.0434153333145191,0.5,0.0644508764531019,0.888370753164432,10.4167826196294,1.57687673822815,0.5,0.219489579612418,0.662172256790181,0.5,0.104602185989124,0.933963418952461,6.62423703388965,1.3008991104218,0.5,17.6638066710443
136,1,29,A,1,0,l,63,1,0.95,1A,0A,0,1,0,1,A10,0.292700032562168,2.68557734525015,0.599131377332272,0.400868622667728,0.400868622667728,0.5,0.358936888442234,0.641063111557766,0.5,0.400868622667728,0.5,0.5,0.742328620230814,0.5,0.447698907005438,0.5,0.400868622667728,0.628363459360056,1.54437075316443,0,0,1,0A,1A,0.599131377332272,0.400868622667728,0.599131377332272,0.400868622667728,1,1,0.400868622667728,0.0419317342254936,0.5,0.0644508764531019,0.888370753164432,10.4167826196294,1.57687673822815,0.5,0.434562555225531,0.846568491674384,0.5,0.104602185989124,0.933963418952461,6.62423703388965,1.3008991104218,0.5,17.6638066710443
136,1,30,A,0,1,a,63,1,0.95,0A,1A,1,0,1,0,A01,1.13661087660985,3.11351530921037,0.641063111557766,0.400868622667728,0.400868622667728,0.5,0.358936888442234,0.641063111557766,0.5,0.400868622667728,0.5,0.5,0.742328620230814,0.5,0.447698907005438,0.5,0.400868622667728,0.628363459360056,1.28437075316443,1,1,0,0A,1A,0.641063111557766,0.400868622667728,0.615264024023888,0.384735975976112,1,1,0.358936888442234,0.037545583163192,0.5,0.0644508764531019,0.888370753164432,10.4167826196294,1.57687673822815,0.5,1.19804684836366,0.879353799019364,0.5,0.104602185989124,0.933963418952461,6.62423703388965,1.3008991104218,0.5,17.6638066710443
136,1,31,C,0,2,l,27,1,0.95,0C,2C,0,1,0,1,C02,2.03917814796753,3.13549421592915,0.678608694720958,0.400868622667728,0.400868622667728,0.5,0.358936888442234,0.641063111557766,0.5,0.400868622667728,0.5,0.5,0.742328620230814,0.5,0.447698907005438,0.5,0.400868622667728,0.628363459360056,1.35837075316443,0,0,1,2C,0C,0.742328620230814,0.5,0.597529999826371,0.402470000173629,1,1,0.257671379769186,0.0269529895906905,0.5,0.0644508764531019,0.888370753164432,10.4167826196294,1.57687673822815,0.5,0.875625793479267,0.843201420050606,0.5,0.104602185989124,0.933963418952461,6.62423703388965,1.3008991104218,0.5,17.6638066710443
136,1,32,A,1,0,l,63,1,0.95,1A,0A,0,1,0,1,A10,1.05401176799862,2.46385324059017,0.678608694720958,0.400868622667728,0.400868622667728,0.5,0.358936888442234,0.641063111557766,0.5,0.400868622667728,0.5,0.5,0.769281609821505,0.5,0.447698907005438,0.5,0.400868622667728,0.628363459360056,1.07137075316443,0,0,1,0A,1A,0.678608694720958,0.400868622667728,0.628645626721041,0.371354373278959,1,1,0.321391305279042,0.0336182330900857,0.5,0.0644508764531019,0.888370753164432,10.4167826196294,1.57687673822815,0.5,2.71227464116847,0.901817583510702,0.5,0.104602185989124,0.933963418952461,6.62423703388965,1.3008991104218,0.5,17.6638066710443
136,1,33,B,1,0,a,63,1,0.95,1B,0B,1,0,1,0,B10,3.13487725488554,2.26176309847379,0.712226927811043,0.400868622667728,0.400868622667728,0.5,0.358936888442234,0.641063111557766,0.5,0.400868622667728,0.5,0.5,0.769281609821505,0.5,0.447698907005438,0.5,0.400868622667728,0.628363459360056,1.02437075316443,1,1,0,1B,0B,0.641063111557766,0.358936888442234,0.641063111557766,0.358936888442234,1,1,0.358936888442234,0.037545583163192,0.5,0.0644508764531019,0.888370753164432,10.4167826196294,1.57687673822815,0.5,2.65087085293726,0.919362979881383,0.5,0.104602185989124,0.933963418952461,6.62423703388965,1.3008991104218,0.5,17.6638066710443
136,1,34,D,3,2,a,63,1,0.95,3D,2D,1,0,1,0,D32,3.22704355373556,2.50552593699074,0.712226927811043,0.400868622667728,0.400868622667728,0.5,0.358936888442234,0.678608694720958,0.5,0.400868622667728,0.5,0.5,0.769281609821505,0.5,0.447698907005438,0.5,0.400868622667728,0.628363459360056,1.04337075316443,1,1,0,3D,2D,0.628363459360056,0.400868622667728,0.610516782689148,0.389483217310852,1,1,0.371636540639944,0.038873994544374,0.5,0.0644508764531019,0.888370753164432,10.4167826196294,1.57687673822815,0.5,2.39225232898093,0.870631405533363,0.5,0.104602185989124,0.933963418952461,6.62423703388965,1.3008991104218,0.5,17.6638066710443
136,1,35,B,3,1,l,27,1,0.95,3B,1B,0,1,0,1,B31,2.42402535406783,2.81341071676004,0.712226927811043,0.400868622667728,0.400868622667728,0.5,0.358936888442234,0.678608694720958,0.5,0.400868622667728,0.5,0.5,0.769281609821505,0.5,0.447698907005438,0.5,0.400868622667728,0.66723745390443,1.60537075316443,0,0,1,1B,3B,0.678608694720958,0.400868622667728,0.628645626721041,0.371354373278959,1,1,0.321391305279042,0.0336182330900857,0.5,0.0644508764531019,0.888370753164432,10.4167826196294,1.57687673822815,0.5,0.299578777143345,0.901696765554925,0.5,0.104602185989124,0.933963418952461,6.62423703388965,1.3008991104218,0.5,17.6638066710443
136,1,36,C,3,2,l,63,1,0.95,3C,2C,0,1,0,1,C32,0.766228631969453,2.83321334405622,0.712226927811043,0.400868622667728,0.400868622667728,0.5,0.358936888442234,0.712226927811043,0.5,0.400868622667728,0.5,0.5,0.769281609821505,0.5,0.447698907005438,0.5,0.400868622667728,0.66723745390443,1.36737075316443,1,1,0,3C,2C,0.5,0.769281609821505,0.393923614847231,0.606076385152769,0,0,-0.5,-0.0523010929945619,0.5,0.0644508764531019,0.888370753164432,10.4167826196294,1.57687673822815,0.5,0.137192641909776,0.138578369011335,0.5,0.104602185989124,0.933963418952461,6.62423703388965,1.3008991104218,0.5,17.6638066710443
136,1,37,C,2,0,a,27,1,0.95,2C,0C,1,0,1,0,C20,2.51572922742759,3.95124371858143,0.712226927811043,0.400868622667728,0.400868622667728,0.5,0.358936888442234,0.712226927811043,0.5,0.400868622667728,0.5,0.5,0.769281609821505,0.447698907005438,0.447698907005438,0.5,0.400868622667728,0.66723745390443,1.13137075316443,1,1,0,2C,0C,0.769281609821505,0.5,0.606076385152769,0.393923614847231,1,1,0.230718390178495,0.0241336479605622,0.5,0.0644508764531019,0.888370753164432,10.4167826196294,1.57687673822815,0.5,2.07945038379592,0.861718555211185,0.5,0.104602185989124,0.933963418952461,6.62423703388965,1.3008991104218,0.5,17.6638066710443
136,1,38,B,1,0,a,63,1,0.95,1B,0B,1,0,1,0,B10,0.505172745312499,2.17853244432407,0.712226927811043,0.400868622667728,0.400868622667728,0.5,0.358936888442234,0.712226927811043,0.5,0.400868622667728,0.5,0.5,0.793415257782067,0.447698907005438,0.447698907005438,0.5,0.400868622667728,0.66723745390443,1.35137075316443,1,1,0,1B,0B,0.712226927811043,0.358936888442234,0.664909434956713,0.335090565043287,1,1,0.287773072188957,0.0301016924197708,0.5,0.0644508764531019,0.888370753164432,10.4167826196294,1.57687673822815,0.5,0.840498086384004,0.94489944513837,0.5,0.104602185989124,0.933963418952461,6.62423703388965,1.3008991104218,0.5,17.6638066710443
136,1,39,A,3,0,l,9,1,0.95,3A,0A,0,1,0,1,A30,1.27594888207679,3.98898404656427,0.712226927811043,0.400868622667728,0.400868622667728,0.5,0.358936888442234,0.742328620230814,0.5,0.400868622667728,0.5,0.5,0.793415257782067,0.447698907005438,0.447698907005438,0.5,0.400868622667728,0.66723745390443,0.992370753164432,0,0,1,0A,3A,0.712226927811043,0.5,0.587535973233274,0.412464026766726,1,1,0.287773072188957,0.0301016924197708,0.5,0.0644508764531019,0.888370753164432,10.4167826196294,1.57687673822815,0.5,1.00469603735387,0.818874426375572,0.5,0.104602185989124,0.933963418952461,6.62423703388965,1.3008991104218,0.5,17.6638066710443
136,1,40,C,3,2,l,63,0,0.95,3C,2C,0,1,1,0,C32,1.69065360886574,2.62103882411258,0.742328620230814,0.400868622667728,0.400868622667728,0.5,0.358936888442234,0.742328620230814,0.5,0.400868622667728,0.5,0.5,0.793415257782067,0.447698907005438,0.447698907005438,0.5,0.400868622667728,0.66723745390443,1.38837075316443,0,0,1,2C,3C,0.793415257782067,0.447698907005438,0.63927661152583,0.36072338847417,1,0,-0.793415257782067,-0.0829929703611284,0.5,0.0644508764531019,0.888370753164432,10.4167826196294,1.57687673822815,0.5,0.756045126113996,0.916751678761337,0.5,0.104602185989124,0.933963418952461,6.62423703388965,1.3008991104218,0.5,17.6638066710443
136,1,41,A,1,0,l,63,1,0.95,1A,0A,0,1,0,1,A10,2.74622856728056,2.41591377830105,0.742328620230814,0.400868622667728,0.400868622667728,0.5,0.358936888442234,0.742328620230814,0.5,0.400868622667728,0.5,0.5,0.710422287420938,0.447698907005438,0.447698907005438,0.5,0.400868622667728,0.66723745390443,1.02237075316443,0,0,1,0A,1A,0.742328620230814,0.400868622667728,0.6493443059298,0.3506556940702,1,1,0.257671379769186,0.0269529895906905,0.5,0.0644508764531019,0.888370753164432,10.4167826196294,1.57687673822815,0.5,2.74962689498074,0.929289135014127,0.5,0.104602185989124,0.933963418952461,6.62423703388965,1.3008991104218,0.5,17.6638066710443
136,1,42,D,3,2,a,63,1,0.95,3D,2D,1,0,1,0,D32,2.3266457982978,2.43361335540045,0.769281609821505,0.400868622667728,0.400868622667728,0.5,0.358936888442234,0.742328620230814,0.5,0.400868622667728,0.5,0.5,0.710422287420938,0.447698907005438,0.447698907005438,0.5,0.400868622667728,0.66723745390443,1.22437075316443,1,1,0,3D,2D,0.66723745390443,0.400868622667728,0.624692124255838,0.375307875744162,1,1,0.33276254609557,0.0348076897369032,0.5,0.0644508764531019,0.888370753164432,10.4167826196294,1.57687673822815,0.5,1.56301727002756,0.89557197045858,0.5,0.104602185989124,0.933963418952461,6.62423703388965,1.3008991104218,0.5,17.6638066710443
136,1,43,C,2,3,a,63,1,0.95,2C,3C,1,0,1,0,C23,3.41504058476673,2.96183072187831,0.769281609821505,0.400868622667728,0.400868622667728,0.5,0.358936888442234,0.742328620230814,0.5,0.400868622667728,0.5,0.5,0.710422287420938,0.447698907005438,0.447698907005438,0.5,0.400868622667728,0.702045143641334,0.999370753164432,1,1,0,2C,3C,0.710422287420938,0.447698907005438,0.613426548827486,0.386573451172514,1,1,0.289577712579062,0.0302904617495,0.5,0.0644508764531019,0.888370753164432,10.4167826196294,1.57687673822815,0.5,1.5088211357039,0.876058754030251,0.5,0.104602185989124,0.933963418952461,6.62423703388965,1.3008991104218,0.5,17.6638066710443
136,1,44,D,1,3,l,27,1,0.95,1D,3D,0,1,0,1,D13,1.63989178044556,3.38439026334577,0.769281609821505,0.400868622667728,0.400868622667728,0.5,0.358936888442234,0.742328620230814,0.5,0.400868622667728,0.5,0.5,0.740712749170439,0.447698907005438,0.447698907005438,0.5,0.400868622667728,0.702045143641334,1.45637075316443,0,0,1,3D,1D,0.702045143641334,0.5,0.584042244465662,0.415957755534338,1,1,0.297954856358666,0.0311667293011919,0.5,0.0644508764531019,0.888370753164432,10.4167826196294,1.57687673822815,0.5,0.603949742414493,0.809894702892487,0.5,0.104602185989124,0.933963418952461,6.62423703388965,1.3008991104218,0.5,17.6638066710443
