ID,session,trialNr,mod2Stim,visStimLeft,visStimRight,correctKey,frequency,rewardAccurate,probFB,stimPairLeft,stimPairRight,leftCorrect,rightCorrect,pCorrectLeft,pCorrectRight,triplet,rt,surprise,0A belief,1A belief,2A belief,3A belief,0B belief,1B belief,2B belief,3B belief,0C belief,1C belief,2C belief,3C belief,0D belief,1D belief,2D belief,3D belief,reactionTime,choice,choiceLeft,choiceRight,chosenPair,otherPair,beliefPair,beliefOtherPair,beliefPairNorm,beliefOtherPairNorm,choiceAccurate,reward,rewardPE,update2,sim_CBCsimpleRW_CBCdriftDiffusionLR_startBelief,sim_CBCsimpleRW_CBCdriftDiffusionLR_alpha1,sim_CBCsimpleRW_CBCdriftDiffusionLR_nonDecisionTime,sim_CBCsimpleRW_CBCdriftDiffusionLR_weight,sim_CBCsimpleRW_CBCdriftDiffusionLR_startingBoundary,sim_CBCsimpleRW_CBCdriftDiffusionLR_startingPoint,lik,corrLik,fitCBCsimpleRW_CBCdriftDiffusionLR_startBelief,fitCBCsimpleRW_CBCdriftDiffusionLR_alpha1,fitCBCsimpleRW_CBCdriftDiffusionLR_nonDecisionTime,fitCBCsimpleRW_CBCdriftDiffusionLR_weight,fitCBCsimpleRW_CBCdriftDiffusionLR_startingBoundary,fitCBCsimpleRW_CBCdriftDiffusionLR_startingPoint,fit_CBCsimpleRW_CBCdriftDiffusionLR_NLL
154,1,1,A,1,0,l,63,1,0.95,1A,0A,0,1,0,1,A10,1.91388123018309,2.77258872223978,0.5,0.5,0.5,0.5,0.5,0.5,0.5,0.5,0.5,0.5,0.5,0.5,0.5,0.5,0.5,0.5,1.24844707597664,1,1,0,1A,0A,0.5,0.5,0.5,0.5,0,0,-0.5,-0.0934629449000577,0.5,0.269469816486871,0.341447075976641,9.70101354156274,1.20568375247133,0.5,0.100912543755496,0.499845517153445,0.5,0.186925889800115,0.342586925675748,13.8584105660307,1.2089861246596,0.5,-27.4520328465818
154,1,2,D,3,2,a,63,1,0.95,3D,2D,1,0,1,0,D32,3.3670570978312,2.83321334405622,0.5,0.406537055099942,0.5,0.5,0.5,0.5,0.5,0.5,0.5,0.5,0.5,0.5,0.5,0.5,0.5,0.5,0.640447075976641,0,0,1,2D,3D,0.5,0.5,0.5,0.5,0,0,-0.5,-0.0934629449000577,0.5,0.269469816486871,0.341447075976641,9.70101354156274,1.20568375247133,0.5,0.786261515790913,0.500482187056014,0.5,0.186925889800115,0.342586925675748,13.8584105660307,1.2089861246596,0.5,-27.4520328465818
154,1,3,C,2,0,a,27,1,0.95,2C,0C,1,0,1,0,C20,2.07185606943102,2.89037175789616,0.5,0.406537055099942,0.5,0.5,0.5,0.5,0.5,0.5,0.5,0.5,0.5,0.5,0.5,0.5,0.406537055099942,0.5,0.717447075976641,1,1,0,2C,0C,0.5,0.5,0.5,0.5,1,1,0.5,0.0934629449000577,0.5,0.269469816486871,0.341447075976641,9.70101354156274,1.20568375247133,0.5,0.606073390937092,0.499900070662299,0.5,0.186925889800115,0.342586925675748,13.8584105660307,1.2089861246596,0.5,-27.4520328465818
154,1,4,A,1,0,l,63,1,0.95,1A,0A,0,1,0,1,A10,2.38028361581816,2.2512917986065,0.5,0.406537055099942,0.5,0.5,0.5,0.5,0.5,0.5,0.5,0.5,0.593462944900058,0.5,0.5,0.5,0.406537055099942,0.5,0.566447075976641,0,0,1,0A,1A,0.5,0.406537055099942,0.551549434396674,0.448450565603326,1,1,0.5,0.0934629449000577,0.5,0.269469816486871,0.341447075976641,9.70101354156274,1.20568375247133,0.5,1.89127091523234,0.848973305397796,0.5,0.186925889800115,0.342586925675748,13.8584105660307,1.2089861246596,0.5,-27.4520328465818
154,1,5,B,3,1,l,27,1,0.95,3B,1B,0,1,0,1,B31,2.71875253160303,2.99573227355399,0.593462944900058,0.406537055099942,0.5,0.5,0.5,0.5,0.5,0.5,0.5,0.5,0.593462944900058,0.5,0.5,0.5,0.406537055099942,0.5,1.75744707597664,1,1,0,3B,1B,0.5,0.5,0.5,0.5,0,0,-0.5,-0.0934629449000577,0.5,0.269469816486871,0.341447075976641,9.70101354156274,1.20568375247133,0.5,0.0181020160955944,0.499970826074975,0.5,0.186925889800115,0.342586925675748,13.8584105660307,1.2089861246596,0.5,-27.4520328465818
154,1,6,C,2,3,a,63,1,0.95,2C,3C,1,0,1,0,C23,0.0467506580856947,3.04452243772342,0.593462944900058,0.406537055099942,0.5,0.5,0.5,0.5,0.5,0.406537055099942,0.5,0.5,0.593462944900058,0.5,0.5,0.5,0.406537055099942,0.5,0.753447075976641,1,1,0,2C,3C,0.593462944900058,0.5,0.542737134045544,0.457262865954456,1,1,0.406537055099942,0.0759923007612752,0.5,0.269469816486871,0.341447075976641,9.70101354156274,1.20568375247133,0.5,0.823300313611042,0.806889639716496,0.5,0.186925889800115,0.342586925675748,13.8584105660307,1.2089861246596,0.5,-27.4520328465818
154,1,7,D,2,3,l,63,1,0.95,2D,3D,0,1,0,1,D23,2.67863472129717,3.09104245335832,0.593462944900058,0.406537055099942,0.5,0.5,0.5,0.5,0.5,0.406537055099942,0.5,0.5,0.669455245661333,0.5,0.5,0.5,0.406537055099942,0.5,0.497447075976641,1,1,0,2D,3D,0.406537055099942,0.5,0.448450565603326,0.551549434396674,0,0,-0.406537055099942,-0.0759923007612752,0.5,0.269469816486871,0.341447075976641,9.70101354156274,1.20568375247133,0.5,0.437414723239102,0.15080855802223,0.5,0.186925889800115,0.342586925675748,13.8584105660307,1.2089861246596,0.5,-27.4520328465818
154,1,8,B,1,0,a,63,1,0.95,1B,0B,1,0,1,0,B10,2.8604711360837,3.13549421592915,0.593462944900058,0.406537055099942,0.5,0.5,0.5,0.5,0.5,0.406537055099942,0.5,0.5,0.669455245661333,0.5,0.5,0.5,0.330544754338667,0.5,0.532447075976641,1,1,0,1B,0B,0.5,0.5,0.5,0.5,1,1,0.5,0.0934629449000577,0.5,0.269469816486871,0.341447075976641,9.70101354156274,1.20568375247133,0.5,1.1120206925565,0.49998049564879,0.5,0.186925889800115,0.342586925675748,13.8584105660307,1.2089861246596,0.5,-27.4520328465818
154,1,9,A,0,2,a,27,1,0.95,0A,2A,1,0,1,0,A02,2.65779480554635,3.17805383034795,0.593462944900058,0.406537055099942,0.5,0.5,0.5,0.593462944900058,0.5,0.406537055099942,0.5,0.5,0.669455245661333,0.5,0.5,0.5,0.330544754338667,0.5,0.883447075976641,0,0,1,2A,0A,0.5,0.593462944900058,0.457262865954456,0.542737134045544,0,0,-0.5,-0.0934629449000577,0.5,0.269469816486871,0.341447075976641,9.70101354156274,1.20568375247133,0.5,0.115673534400476,0.192681636423096,0.5,0.186925889800115,0.342586925675748,13.8584105660307,1.2089861246596,0.5,-27.4520328465818
154,1,10,D,0,3,l,9,1,0.95,0D,3D,0,1,0,1,D03,2.86689231310948,3.2188758248682,0.593462944900058,0.406537055099942,0.406537055099942,0.5,0.5,0.593462944900058,0.5,0.406537055099942,0.5,0.5,0.669455245661333,0.5,0.5,0.5,0.330544754338667,0.5,0.499447075976641,0,0,1,3D,0D,0.5,0.5,0.5,0.5,1,1,0.5,0.0934629449000577,0.5,0.269469816486871,0.341447075976641,9.70101354156274,1.20568375247133,0.5,1.20980295420745,0.499599629319415,0.5,0.186925889800115,0.342586925675748,13.8584105660307,1.2089861246596,0.5,-27.4520328465818
154,1,11,C,3,2,l,63,1,0.95,3C,2C,0,1,0,1,C32,1.79060711742398,3.25809653802148,0.593462944900058,0.406537055099942,0.406537055099942,0.5,0.5,0.593462944900058,0.5,0.406537055099942,0.5,0.5,0.669455245661333,0.5,0.5,0.5,0.330544754338667,0.593462944900058,0.452447075976641,1,1,0,3C,2C,0.5,0.669455245661333,0.427549495250028,0.572450504749972,0,0,-0.5,-0.0934629449000577,0.5,0.269469816486871,0.341447075976641,9.70101354156274,1.20568375247133,0.5,0.298697836951374,0.0810393092030173,0.5,0.186925889800115,0.342586925675748,13.8584105660307,1.2089861246596,0.5,-27.4520328465818
154,1,12,B,1,0,a,63,1,0.95,1B,0B,1,0,1,0,B10,0.205635884384679,2.60268968544438,0.593462944900058,0.406537055099942,0.406537055099942,0.5,0.5,0.593462944900058,0.5,0.406537055099942,0.5,0.5,0.669455245661333,0.406537055099942,0.5,0.5,0.330544754338667,0.593462944900058,0.632447075976641,1,1,0,1B,0B,0.593462944900058,0.5,0.542737134045544,0.457262865954456,1,1,0.406537055099942,0.0759923007612752,0.5,0.269469816486871,0.341447075976641,9.70101354156274,1.20568375247133,0.5,1.34680864600833,0.807011522020987,0.5,0.186925889800115,0.342586925675748,13.8584105660307,1.2089861246596,0.5,-27.4520328465818
154,1,13,D,3,2,a,63,1,0.95,3D,2D,1,0,1,0,D32,3.29592053938098,2.63905732961526,0.593462944900058,0.406537055099942,0.406537055099942,0.5,0.5,0.669455245661333,0.5,0.406537055099942,0.5,0.5,0.669455245661333,0.406537055099942,0.5,0.5,0.330544754338667,0.593462944900058,0.530447075976641,1,1,0,3D,2D,0.593462944900058,0.330544754338667,0.642270562668474,0.357729437331526,1,1,0.406537055099942,0.0759923007612752,0.5,0.269469816486871,0.341447075976641,9.70101354156274,1.20568375247133,0.5,2.81530592341683,0.991570290375456,0.5,0.186925889800115,0.342586925675748,13.8584105660307,1.2089861246596,0.5,-27.4520328465818
154,1,14,C,3,2,l,63,1,0.95,3C,2C,0,1,0,1,C32,2.18672339475241,2.67414864942653,0.593462944900058,0.406537055099942,0.406537055099942,0.5,0.5,0.669455245661333,0.5,0.406537055099942,0.5,0.5,0.669455245661333,0.406537055099942,0.5,0.5,0.330544754338667,0.669455245661333,0.430447075976641,0,0,1,2C,3C,0.669455245661333,0.406537055099942,0.622174754584848,0.377825245415152,1,1,0.330544754338667,0.0617873723235159,0.5,0.269469816486871,0.341447075976641,9.70101354156274,1.20568375247133,0.5,5.41504123864465,0.983583799494474,0.5,0.186925889800115,0.342586925675748,13.8584105660307,1.2089861246596,0.5,-27.4520328465818
154,1,15,B,1,3,a,27,1,0.95,1B,3B,1,0,1,0,B13,1.61170784601814,3.40119738166216,0.593462944900058,0.406537055099942,0.406537055099942,0.5,0.5,0.669455245661333,0.5,0.406537055099942,0.5,0.5,0.731242617984849,0.406537055099942,0.5,0.5,0.330544754338667,0.669455245661333,0.454447075976641,1,1,0,1B,3B,0.669455245661333,0.406537055099942,0.622174754584848,0.377825245415152,1,1,0.330544754338667,0.0617873723235159,0.5,0.269469816486871,0.341447075976641,9.70101354156274,1.20568375247133,0.5,5.13238563954949,0.983585371931957,0.5,0.186925889800115,0.342586925675748,13.8584105660307,1.2089861246596,0.5,-27.4520328465818
154,1,16,A,3,0,l,9,1,0.95,3A,0A,0,1,0,1,A30,1.7678211035416,3.43398720448515,0.593462944900058,0.406537055099942,0.406537055099942,0.5,0.5,0.731242617984849,0.5,0.406537055099942,0.5,0.5,0.731242617984849,0.406537055099942,0.5,0.5,0.330544754338667,0.669455245661333,0.498447075976641,0,0,1,0A,3A,0.593462944900058,0.5,0.542737134045544,0.457262865954456,1,1,0.406537055099942,0.0759923007612752,0.5,0.269469816486871,0.341447075976641,9.70101354156274,1.20568375247133,0.5,2.22514578000729,0.807105476026389,0.5,0.186925889800115,0.342586925675748,13.8584105660307,1.2089861246596,0.5,-27.4520328465818
154,1,17,D,3,2,a,63,1,0.95,3D,2D,1,0,1,0,D32,0.792277356782682,2.36712361413162,0.669455245661333,0.406537055099942,0.406537055099942,0.5,0.5,0.731242617984849,0.5,0.406537055099942,0.5,0.5,0.731242617984849,0.406537055099942,0.5,0.5,0.330544754338667,0.669455245661333,0.396447075976641,1,1,0,3D,2D,0.669455245661333,0.330544754338667,0.669455245661333,0.330544754338667,1,1,0.330544754338667,0.0617873723235159,0.5,0.269469816486871,0.341447075976641,9.70101354156274,1.20568375247133,0.5,6.12763339881744,0.996594688603123,0.5,0.186925889800115,0.342586925675748,13.8584105660307,1.2089861246596,0.5,-27.4520328465818
154,1,18,C,2,0,a,27,1,0.95,2C,0C,1,0,1,0,C20,3.20924959323118,2.80336038090653,0.669455245661333,0.406537055099942,0.406537055099942,0.5,0.5,0.731242617984849,0.5,0.406537055099942,0.5,0.5,0.731242617984849,0.406537055099942,0.5,0.5,0.330544754338667,0.731242617984849,0.680447075976641,1,1,0,2C,0C,0.731242617984849,0.5,0.593906194687818,0.406093805312182,1,1,0.268757382015151,0.0502377127735317,0.5,0.269469816486871,0.341447075976641,9.70101354156274,1.20568375247133,0.5,1.05418156753064,0.958839441050431,0.5,0.186925889800115,0.342586925675748,13.8584105660307,1.2089861246596,0.5,-27.4520328465818
154,1,19,A,1,0,l,63,1,0.95,1A,0A,0,1,0,1,A10,2.58335555770553,2.42774823594805,0.669455245661333,0.406537055099942,0.406537055099942,0.5,0.5,0.731242617984849,0.5,0.406537055099942,0.5,0.5,0.78148033075838,0.406537055099942,0.5,0.5,0.330544754338667,0.731242617984849,0.390447075976641,0,0,1,0A,1A,0.669455245661333,0.406537055099942,0.622174754584848,0.377825245415152,1,1,0.330544754338667,0.0617873723235159,0.5,0.269469816486871,0.341447075976641,9.70101354156274,1.20568375247133,0.5,2.98121840015664,0.983615619680613,0.5,0.186925889800115,0.342586925675748,13.8584105660307,1.2089861246596,0.5,-27.4520328465818
154,1,20,B,0,1,l,63,0,0.95,0B,1B,0,1,1,0,B01,0.902647658742553,3.55534806148941,0.731242617984849,0.406537055099942,0.406537055099942,0.5,0.5,0.731242617984849,0.5,0.406537055099942,0.5,0.5,0.78148033075838,0.406537055099942,0.5,0.5,0.330544754338667,0.731242617984849,0.469447075976641,0,0,1,1B,0B,0.731242617984849,0.5,0.593906194687818,0.406093805312182,1,0,-0.731242617984849,-0.136688177026584,0.5,0.269469816486871,0.341447075976641,9.70101354156274,1.20568375247133,0.5,3.96835945642399,0.958821059004986,0.5,0.186925889800115,0.342586925675748,13.8584105660307,1.2089861246596,0.5,-27.4520328465818
154,1,21,D,1,3,l,27,1,0.95,1D,3D,0,1,0,1,D13,3.09669360275803,3.58351893845611,0.731242617984849,0.406537055099942,0.406537055099942,0.5,0.5,0.594554440958265,0.5,0.406537055099942,0.5,0.5,0.78148033075838,0.406537055099942,0.5,0.5,0.330544754338667,0.731242617984849,0.589447075976641,0,0,1,3D,1D,0.731242617984849,0.5,0.593906194687818,0.406093805312182,1,1,0.268757382015151,0.0502377127735317,0.5,0.269469816486871,0.341447075976641,9.70101354156274,1.20568375247133,0.5,1.94466201723388,0.958777539581672,0.5,0.186925889800115,0.342586925675748,13.8584105660307,1.2089861246596,0.5,-27.4520328465818
154,1,22,C,2,3,a,63,1,0.95,2C,3C,1,0,1,0,C23,0.567258051918676,2.91777073208428,0.731242617984849,0.406537055099942,0.406537055099942,0.5,0.5,0.594554440958265,0.5,0.406537055099942,0.5,0.5,0.78148033075838,0.406537055099942,0.5,0.5,0.330544754338667,0.78148033075838,0.562447075976641,1,1,0,2C,3C,0.78148033075838,0.406537055099942,0.657802099582721,0.342197900417279,1,1,0.21851966924162,0.0408469836118166,0.5,0.269469816486871,0.341447075976641,9.70101354156274,1.20568375247133,0.5,1.74271869992599,0.994980367568967,0.5,0.186925889800115,0.342586925675748,13.8584105660307,1.2089861246596,0.5,-27.4520328465818
154,1,23,B,1,0,a,63,1,0.95,1B,0B,1,0,1,0,B10,2.97173132209905,2.53897387105828,0.731242617984849,0.406537055099942,0.406537055099942,0.5,0.5,0.594554440958265,0.5,0.406537055099942,0.5,0.5,0.822327314370197,0.406537055099942,0.5,0.5,0.330544754338667,0.78148033075838,0.433447075976641,1,1,0,1B,0B,0.594554440958265,0.5,0.543193119236483,0.456806880763517,1,1,0.405445559041735,0.0757882718893815,0.5,0.269469816486871,0.341447075976641,9.70101354156274,1.20568375247133,0.5,2.27936549809151,0.809903365428674,0.5,0.186925889800115,0.342586925675748,13.8584105660307,1.2089861246596,0.5,-27.4520328465818
154,1,24,A,2,0,l,27,1,0.95,2A,0A,0,1,0,1,A20,1.94415733224939,3.66356164612965,0.731242617984849,0.406537055099942,0.406537055099942,0.5,0.5,0.670342712847647,0.5,0.406537055099942,0.5,0.5,0.822327314370197,0.406537055099942,0.5,0.5,0.330544754338667,0.78148033075838,0.503447075976641,0,0,1,0A,2A,0.731242617984849,0.406537055099942,0.642692636617665,0.357307363382335,1,1,0.268757382015151,0.0502377127735317,0.5,0.269469816486871,0.341447075976641,9.70101354156274,1.20568375247133,0.5,3.72537850549096,0.991652602380355,0.5,0.186925889800115,0.342586925675748,13.8584105660307,1.2089861246596,0.5,-27.4520328465818
154,1,25,D,2,3,l,63,1,0.95,2D,3D,0,1,0,1,D23,0.96414788094473,2.99573227355399,0.78148033075838,0.406537055099942,0.406537055099942,0.5,0.5,0.670342712847647,0.5,0.406537055099942,0.5,0.5,0.822327314370197,0.406537055099942,0.5,0.5,0.330544754338667,0.78148033075838,0.477447075976641,0,0,1,3D,2D,0.78148033075838,0.330544754338667,0.702754228507516,0.297245771492484,1,1,0.21851966924162,0.0408469836118166,0.5,0.269469816486871,0.341447075976641,9.70101354156274,1.20568375247133,0.5,4.46262145234297,0.998880530056147,0.5,0.186925889800115,0.342586925675748,13.8584105660307,1.2089861246596,0.5,-27.4520328465818
154,1,26,C,2,0,a,27,1,0.95,2C,0C,1,0,1,0,C20,0.137445411234217,2.6149597780362,0.78148033075838,0.406537055099942,0.406537055099942,0.5,0.5,0.670342712847647,0.5,0.406537055099942,0.5,0.5,0.822327314370197,0.406537055099942,0.5,0.5,0.330544754338667,0.822327314370197,0.470447075976641,1,1,0,2C,0C,0.822327314370197,0.5,0.621878793120036,0.378121206879964,1,1,0.177672685629803,0.0332116248545271,0.5,0.269469816486871,0.341447075976641,9.70101354156274,1.20568375247133,0.5,4.69513469940363,0.98345052040546,0.5,0.186925889800115,0.342586925675748,13.8584105660307,1.2089861246596,0.5,-27.4520328465818
154,1,27,B,1,0,a,63,1,0.95,1B,0B,1,0,1,0,B10,0.284910325289983,2.35137525716348,0.78148033075838,0.406537055099942,0.406537055099942,0.5,0.5,0.670342712847647,0.5,0.406537055099942,0.5,0.5,0.855538939224724,0.406537055099942,0.5,0.5,0.330544754338667,0.822327314370197,0.391447075976641,1,1,0,1B,0B,0.670342712847647,0.5,0.572774714183153,0.427225285816847,1,1,0.329657287152353,0.0616214817300458,0.5,0.269469816486871,0.341447075976641,9.70101354156274,1.20568375247133,0.5,1.6260971920067,0.919680782056974,0.5,0.186925889800115,0.342586925675748,13.8584105660307,1.2089861246596,0.5,-27.4520328465818
154,1,28,A,0,1,a,63,1,0.95,0A,1A,1,0,1,0,A01,1.95495857100911,3.76120011569356,0.78148033075838,0.406537055099942,0.406537055099942,0.5,0.5,0.731964194577692,0.5,0.406537055099942,0.5,0.5,0.855538939224724,0.406537055099942,0.5,0.5,0.330544754338667,0.822327314370197,0.624447075976641,1,1,0,0A,1A,0.78148033075838,0.406537055099942,0.657802099582721,0.342197900417279,1,1,0.21851966924162,0.0408469836118166,0.5,0.269469816486871,0.341447075976641,9.70101354156274,1.20568375247133,0.5,0.786834307736809,0.994970235204901,0.5,0.186925889800115,0.342586925675748,13.8584105660307,1.2089861246596,0.5,-27.4520328465818
154,1,29,C,3,2,l,63,1,0.95,3C,2C,0,1,0,1,C32,3.08924998658585,2.68557734525015,0.822327314370197,0.406537055099942,0.406537055099942,0.5,0.5,0.731964194577692,0.5,0.406537055099942,0.5,0.5,0.855538939224724,0.406537055099942,0.5,0.5,0.330544754338667,0.822327314370197,0.400447075976641,0,0,1,2C,3C,0.855538939224724,0.406537055099942,0.677882269429046,0.322117730570954,1,1,0.144461060775276,0.027003512326887,0.5,0.269469816486871,0.341447075976641,9.70101354156274,1.20568375247133,0.5,7.18631836853942,0.997433334965749,0.5,0.186925889800115,0.342586925675748,13.8584105660307,1.2089861246596,0.5,-27.4520328465818
154,1,30,D,3,1,a,27,1,0.95,3D,1D,1,0,1,0,D31,1.99348823025254,3.80666248977032,0.822327314370197,0.406537055099942,0.406537055099942,0.5,0.5,0.731964194577692,0.5,0.406537055099942,0.5,0.5,0.882542451551611,0.406537055099942,0.5,0.5,0.330544754338667,0.822327314370197,0.487447075976641,1,1,0,3D,1D,0.822327314370197,0.5,0.621878793120036,0.378121206879964,1,1,0.177672685629803,0.0332116248545271,0.5,0.269469816486871,0.341447075976641,9.70101354156274,1.20568375247133,0.5,4.17743045433086,0.983423770160515,0.5,0.186925889800115,0.342586925675748,13.8584105660307,1.2089861246596,0.5,-27.4520328465818
154,1,31,A,1,0,l,63,1,0.95,1A,0A,0,1,0,1,A10,0.915144450319332,2.4423470353692,0.822327314370197,0.406537055099942,0.406537055099942,0.5,0.5,0.731964194577692,0.5,0.406537055099942,0.5,0.5,0.882542451551611,0.406537055099942,0.5,0.5,0.330544754338667,0.855538939224724,0.647447075976641,0,0,1,0A,1A,0.822327314370197,0.406537055099942,0.669176627461961,0.330823372538039,1,1,0.177672685629803,0.0332116248545271,0.5,0.269469816486871,0.341447075976641,9.70101354156274,1.20568375247133,0.5,0.457289688701213,0.996563204628172,0.5,0.186925889800115,0.342586925675748,13.8584105660307,1.2089861246596,0.5,-27.4520328465818
154,1,32,D,3,2,a,63,1,0.95,3D,2D,1,0,1,0,D32,0.693925522346305,2.46385324059017,0.855538939224724,0.406537055099942,0.406537055099942,0.5,0.5,0.731964194577692,0.5,0.406537055099942,0.5,0.5,0.882542451551611,0.406537055099942,0.5,0.5,0.330544754338667,0.855538939224724,0.399447075976641,1,1,0,3D,2D,0.855538939224724,0.330544754338667,0.721314139860063,0.278685860139937,1,1,0.144461060775276,0.027003512326887,0.5,0.269469816486871,0.341447075976641,9.70101354156274,1.20568375247133,0.5,10.0084871096302,0.999398750835736,0.5,0.186925889800115,0.342586925675748,13.8584105660307,1.2089861246596,0.5,-27.4520328465818
154,1,33,B,2,1,l,9,1,0.95,2B,1B,0,1,0,1,B21,2.40443537215658,3.87120101090789,0.855538939224724,0.406537055099942,0.406537055099942,0.5,0.5,0.731964194577692,0.5,0.406537055099942,0.5,0.5,0.882542451551611,0.406537055099942,0.5,0.5,0.330544754338667,0.882542451551611,0.607447075976641,0,0,1,1B,2B,0.731964194577692,0.5,0.594144048828143,0.405855951171857,1,1,0.268035805422308,0.0501028314268554,0.5,0.269469816486871,0.341447075976641,9.70101354156274,1.20568375247133,0.5,1.72331640925774,0.959094580000533,0.5,0.186925889800115,0.342586925675748,13.8584105660307,1.2089861246596,0.5,-27.4520328465818
154,1,34,A,1,0,l,63,1,0.95,1A,0A,0,1,0,1,A10,1.09305419553474,2.28238238567653,0.855538939224724,0.406537055099942,0.406537055099942,0.5,0.5,0.782067026004548,0.5,0.406537055099942,0.5,0.5,0.882542451551611,0.406537055099942,0.5,0.5,0.330544754338667,0.882542451551611,0.528447075976641,0,0,1,0A,1A,0.855538939224724,0.406537055099942,0.677882269429046,0.322117730570954,1,1,0.144461060775276,0.027003512326887,0.5,0.269469816486871,0.341447075976641,9.70101354156274,1.20568375247133,0.5,2.31485998080229,0.997425514576952,0.5,0.186925889800115,0.342586925675748,13.8584105660307,1.2089861246596,0.5,-27.4520328465818
154,1,35,C,2,1,a,9,1,0.95,2C,1C,1,0,1,0,C21,1.37076007680607,3.91202300542815,0.882542451551611,0.406537055099942,0.406537055099942,0.5,0.5,0.782067026004548,0.5,0.406537055099942,0.5,0.5,0.882542451551611,0.406537055099942,0.5,0.5,0.330544754338667,0.882542451551611,0.428447075976641,1,1,0,2C,1C,0.882542451551611,0.5,0.638347452232764,0.361652547767236,1,1,0.117457548448389,0.0219558567574552,0.5,0.269469816486871,0.341447075976641,9.70101354156274,1.20568375247133,0.5,6.16403938971458,0.990383642570233,0.5,0.186925889800115,0.342586925675748,13.8584105660307,1.2089861246596,0.5,-27.4520328465818
154,1,36,B,1,0,a,63,1,0.95,1B,0B,1,0,1,0,B10,3.21131920431777,2.32238772029023,0.882542451551611,0.406537055099942,0.406537055099942,0.5,0.5,0.782067026004548,0.5,0.406537055099942,0.5,0.5,0.904498308309066,0.406537055099942,0.5,0.5,0.330544754338667,0.882542451551611,0.461447075976641,1,1,0,1B,0B,0.782067026004548,0.5,0.61000478925177,0.38999521074823,1,1,0.217932973995452,0.0407373150808853,0.5,0.269469816486871,0.341447075976641,9.70101354156274,1.20568375247133,0.5,4.59937961530329,0.975553521945554,0.5,0.186925889800115,0.342586925675748,13.8584105660307,1.2089861246596,0.5,-27.4520328465818
154,1,37,A,0,1,a,63,0,0.95,0A,1A,1,0,0,1,A01,1.46799686579439,3.25809653802148,0.882542451551611,0.406537055099942,0.406537055099942,0.5,0.5,0.822804341085433,0.5,0.406537055099942,0.5,0.5,0.904498308309066,0.406537055099942,0.5,0.5,0.330544754338667,0.882542451551611,0.427447075976641,1,1,0,0A,1A,0.882542451551611,0.406537055099942,0.684629960369208,0.315370039630792,1,0,-0.882542451551611,-0.16497003304266,0.5,0.269469816486871,0.341447075976641,9.70101354156274,1.20568375247133,0.5,8.22524197234952,0.997949791483739,0.5,0.186925889800115,0.342586925675748,13.8584105660307,1.2089861246596,0.5,-27.4520328465818
154,1,38,B,0,1,l,63,1,0.95,0B,1B,0,1,0,1,B01,3.14292534689902,3.27714473299218,0.717572418508951,0.406537055099942,0.406537055099942,0.5,0.5,0.822804341085433,0.5,0.406537055099942,0.5,0.5,0.904498308309066,0.406537055099942,0.5,0.5,0.330544754338667,0.882542451551611,0.451447075976641,0,0,1,1B,0B,0.822804341085433,0.5,0.622015150336048,0.377984849663952,1,1,0.177195658914567,0.0331224562113232,0.5,0.269469816486871,0.341447075976641,9.70101354156274,1.20568375247133,0.5,5.19355509724501,0.983493182471423,0.5,0.186925889800115,0.342586925675748,13.8584105660307,1.2089861246596,0.5,-27.4520328465818
154,1,39,D,1,3,l,27,1,0.95,1D,3D,0,1,0,1,D13,3.09366881602674,3.29583686600433,0.717572418508951,0.406537055099942,0.406537055099942,0.5,0.5,0.855926797296756,0.5,0.406537055099942,0.5,0.5,0.904498308309066,0.406537055099942,0.5,0.5,0.330544754338667,0.882542451551611,0.551447075976641,0,0,1,3D,1D,0.882542451551611,0.5,0.638347452232764,0.361652547767236,1,1,0.117457548448389,0.0219558567574552,0.5,0.269469816486871,0.341447075976641,9.70101354156274,1.20568375247133,0.5,2.29819457436244,0.990374223225883,0.5,0.186925889800115,0.342586925675748,13.8584105660307,1.2089861246596,0.5,-27.4520328465818
154,1,40,C,3,2,l,63,1,0.95,3C,2C,0,1,0,1,C32,2.53035460450821,2.62103882411258,0.717572418508951,0.406537055099942,0.406537055099942,0.5,0.5,0.855926797296756,0.5,0.406537055099942,0.5,0.5,0.904498308309066,0.406537055099942,0.5,0.5,0.330544754338667,0.904498308309066,0.403447075976641,0,0,1,2C,3C,0.904498308309066,0.406537055099942,0.689911449800372,0.310088550199628,1,1,0.0955016916909336,0.017851738696744,0.5,0.269469816486871,0.341447075976641,9.70101354156274,1.20568375247133,0.5,8.27265274679288,0.99827857306344,0.5,0.186925889800115,0.342586925675748,13.8584105660307,1.2089861246596,0.5,-27.4520328465818
154,1,41,A,0,2,a,27,1,0.95,0A,2A,1,0,1,0,A02,3.26694832224723,3.3322045101752,0.717572418508951,0.406537055099942,0.406537055099942,0.5,0.5,0.855926797296756,0.5,0.406537055099942,0.5,0.5,0.92235004700581,0.406537055099942,0.5,0.5,0.330544754338667,0.904498308309066,0.471447075976641,1,1,0,0A,2A,0.717572418508951,0.406537055099942,0.638347452232765,0.361652547767236,1,1,0.282427581491049,0.0527930269743089,0.5,0.269469816486871,0.341447075976641,9.70101354156274,1.20568375247133,0.5,4.97217838666525,0.990388053611579,0.5,0.186925889800115,0.342586925675748,13.8584105660307,1.2089861246596,0.5,-27.4520328465818
154,1,42,D,2,3,l,63,1,0.95,2D,3D,0,1,0,1,D23,2.8428739618588,2.94443897916644,0.77036544548326,0.406537055099942,0.406537055099942,0.5,0.5,0.855926797296756,0.5,0.406537055099942,0.5,0.5,0.92235004700581,0.406537055099942,0.5,0.5,0.330544754338667,0.904498308309066,0.485447075976641,0,0,1,3D,2D,0.904498308309066,0.330544754338667,0.732361757791641,0.267638242208359,1,1,0.0955016916909336,0.017851738696744,0.5,0.269469816486871,0.341447075976641,9.70101354156274,1.20568375247133,0.5,3.15077940979887,0.999585132550996,0.5,0.186925889800115,0.342586925675748,13.8584105660307,1.2089861246596,0.5,-27.4520328465818
154,1,43,B,1,3,a,27,1,0.95,1B,3B,1,0,1,0,B13,2.00376364429511,3.36729582998647,0.77036544548326,0.406537055099942,0.406537055099942,0.5,0.5,0.855926797296756,0.5,0.406537055099942,0.5,0.5,0.92235004700581,0.406537055099942,0.5,0.5,0.330544754338667,0.92235004700581,0.498447075976641,1,1,0,1B,3B,0.855926797296756,0.406537055099942,0.677981231440282,0.322018768559718,1,1,0.144073202703244,0.0269310116116562,0.5,0.269469816486871,0.341447075976641,9.70101354156274,1.20568375247133,0.5,3.59334702366678,0.997434640167655,0.5,0.186925889800115,0.342586925675748,13.8584105660307,1.2089861246596,0.5,-27.4520328465818
154,1,44,C,3,2,l,63,1,0.95,3C,2C,0,1,0,1,C32,3.05625966042664,2.46809953147162,0.77036544548326,0.406537055099942,0.406537055099942,0.5,0.5,0.882857808908412,0.5,0.406537055099942,0.5,0.5,0.92235004700581,0.406537055099942,0.5,0.5,0.330544754338667,0.92235004700581,0.377447075976641,0,0,1,2C,3C,0.92235004700581,0.406537055099942,0.694077055563453,0.305922944436547,1,1,0.0776499529941895,0.014514786556376,0.5,0.269469816486871,0.341447075976641,9.70101354156274,1.20568375247133,0.5,3.06025252275613,0.998503699691769,0.5,0.186925889800115,0.342586925675748,13.8584105660307,1.2089861246596,0.5,-27.4520328465818
