ID,session,trialNr,mod2Stim,visStimLeft,visStimRight,correctKey,frequency,rewardAccurate,probFB,stimPairLeft,stimPairRight,leftCorrect,rightCorrect,pCorrectLeft,pCorrectRight,triplet,rt,surprise,0A belief,1A belief,2A belief,3A belief,0B belief,1B belief,2B belief,3B belief,0C belief,1C belief,2C belief,3C belief,0D belief,1D belief,2D belief,3D belief,reactionTime,choice,choiceLeft,choiceRight,chosenPair,otherPair,beliefPair,beliefOtherPair,beliefPairNorm,beliefOtherPairNorm,choiceAccurate,reward,rewardPE,update2,sim_CBCsimpleRW_CBCdriftDiffusionLR_startBelief,sim_CBCsimpleRW_CBCdriftDiffusionLR_alpha1,sim_CBCsimpleRW_CBCdriftDiffusionLR_nonDecisionTime,sim_CBCsimpleRW_CBCdriftDiffusionLR_weight,sim_CBCsimpleRW_CBCdriftDiffusionLR_startingBoundary,sim_CBCsimpleRW_CBCdriftDiffusionLR_startingPoint,lik,corrLik,fitCBCsimpleRW_CBCdriftDiffusionLR_startBelief,fitCBCsimpleRW_CBCdriftDiffusionLR_alpha1,fitCBCsimpleRW_CBCdriftDiffusionLR_nonDecisionTime,fitCBCsimpleRW_CBCdriftDiffusionLR_weight,fitCBCsimpleRW_CBCdriftDiffusionLR_startingBoundary,fitCBCsimpleRW_CBCdriftDiffusionLR_startingPoint,fit_CBCsimpleRW_CBCdriftDiffusionLR_NLL
113,1,1,C,0,2,l,27,1,0.95,0C,2C,0,1,0,1,C02,2.22070365717111,2.77258872223978,0.5,0.5,0.5,0.5,0.5,0.5,0.5,0.5,0.5,0.5,0.5,0.5,0.5,0.5,0.5,0.5,2.71785289350525,1,1,0,0C,2C,0.5,0.5,0.5,0.5,0,0,-0.5,-0.173167468078786,0.5,0.376262061971479,0.748852893505249,13.0507640142827,3.76127829412494,0.5,0.121338136735109,0.50156749029547,0.5,0.346334936157573,0.79108875928497,13.2881088703528,3.20761672932534,0.5,-11.6179014932043
113,1,2,D,2,3,l,63,1,0.95,2D,3D,0,1,0,1,D23,2.72606457709535,2.83321334405622,0.5,0.5,0.5,0.5,0.5,0.5,0.5,0.5,0.326832531921214,0.5,0.5,0.5,0.5,0.5,0.5,0.5,2.09485289350525,1,1,0,2D,3D,0.5,0.5,0.5,0.5,0,0,-0.5,-0.173167468078786,0.5,0.376262061971479,0.748852893505249,13.0507640142827,3.76127829412494,0.5,0.1600740963482,0.499948268523038,0.5,0.346334936157573,0.79108875928497,13.2881088703528,3.20761672932534,0.5,-11.6179014932043
113,1,3,A,0,1,a,63,1,0.95,0A,1A,1,0,1,0,A01,1.83147910563263,2.89037175789616,0.5,0.5,0.5,0.5,0.5,0.5,0.5,0.5,0.326832531921214,0.5,0.5,0.5,0.5,0.5,0.326832531921214,0.5,2.21285289350525,1,1,0,0A,1A,0.5,0.5,0.5,0.5,1,1,0.5,0.173167468078786,0.5,0.376262061971479,0.748852893505249,13.0507640142827,3.76127829412494,0.5,0.152139973688234,0.499097070973552,0.5,0.346334936157573,0.79108875928497,13.2881088703528,3.20761672932534,0.5,-11.6179014932043
113,1,4,C,3,2,l,63,1,0.95,3C,2C,0,1,0,1,C32,3.21108117981548,2.94443897916644,0.673167468078786,0.5,0.5,0.5,0.5,0.5,0.5,0.5,0.326832531921214,0.5,0.5,0.5,0.5,0.5,0.326832531921214,0.5,2.86085289350525,1,1,0,3C,2C,0.5,0.5,0.5,0.5,0,0,-0.5,-0.173167468078786,0.5,0.376262061971479,0.748852893505249,13.0507640142827,3.76127829412494,0.5,0.112972714162245,0.499751240966613,0.5,0.346334936157573,0.79108875928497,13.2881088703528,3.20761672932534,0.5,-11.6179014932043
113,1,5,A,2,0,l,27,1,0.95,2A,0A,0,1,0,1,A20,2.80238708230939,2.99573227355399,0.673167468078786,0.5,0.5,0.5,0.5,0.5,0.5,0.5,0.326832531921214,0.5,0.5,0.326832531921214,0.5,0.5,0.326832531921214,0.5,1.21685289350525,0,0,1,0A,2A,0.673167468078786,0.5,0.573803388173715,0.426196611826285,1,1,0.326832531921214,0.113193524077151,0.5,0.376262061971479,0.748852893505249,13.0507640142827,3.76127829412494,0.5,1.14902536098741,0.998140657324661,0.5,0.346334936157573,0.79108875928497,13.2881088703528,3.20761672932534,0.5,-11.6179014932043
113,1,6,D,3,2,a,63,1,0.95,3D,2D,1,0,1,0,D32,0.328127980378017,3.04452243772342,0.786360992155938,0.5,0.5,0.5,0.5,0.5,0.5,0.5,0.326832531921214,0.5,0.5,0.326832531921214,0.5,0.5,0.326832531921214,0.5,1.20685289350525,1,1,0,3D,2D,0.5,0.326832531921214,0.604717377094741,0.395282622905259,1,1,0.5,0.173167468078786,0.5,0.376262061971479,0.748852893505249,13.0507640142827,3.76127829412494,0.5,1.87782543459621,0.999867448941968,0.5,0.346334936157573,0.79108875928497,13.2881088703528,3.20761672932534,0.5,-11.6179014932043
113,1,7,D,2,3,l,63,1,0.95,2D,3D,0,1,0,1,D23,3.37652823811968,2.39789527279837,0.786360992155938,0.5,0.5,0.5,0.5,0.5,0.5,0.5,0.326832531921214,0.5,0.5,0.326832531921214,0.5,0.5,0.326832531921214,0.673167468078786,1.24785289350525,0,0,1,3D,2D,0.673167468078786,0.326832531921214,0.673167468078786,0.326832531921214,1,1,0.326832531921214,0.113193524077151,0.5,0.376262061971479,0.748852893505249,13.0507640142827,3.76127829412494,0.5,1.57957137235247,0.999999611565829,0.5,0.346334936157573,0.79108875928497,13.2881088703528,3.20761672932534,0.5,-11.6179014932043
113,1,8,B,1,3,a,27,1,0.95,1B,3B,1,0,1,0,B13,3.22291426524611,3.13549421592915,0.786360992155938,0.5,0.5,0.5,0.5,0.5,0.5,0.5,0.326832531921214,0.5,0.5,0.326832531921214,0.5,0.5,0.326832531921214,0.786360992155938,2.54485289350525,0,0,1,3B,1B,0.5,0.5,0.5,0.5,0,0,-0.5,-0.173167468078786,0.5,0.376262061971479,0.748852893505249,13.0507640142827,3.76127829412494,0.5,0.131391240596642,0.500749576538017,0.5,0.346334936157573,0.79108875928497,13.2881088703528,3.20761672932534,0.5,-11.6179014932043
113,1,9,D,3,0,a,9,1,0.95,3D,0D,1,0,1,0,D30,1.34002780968868,3.17805383034795,0.786360992155938,0.5,0.5,0.5,0.5,0.5,0.5,0.326832531921214,0.326832531921214,0.5,0.5,0.326832531921214,0.5,0.5,0.326832531921214,0.786360992155938,1.52985289350525,1,1,0,3D,0D,0.786360992155938,0.5,0.611306621509098,0.388693378490902,1,1,0.213639007844062,0.0739906521424405,0.5,0.376262061971479,0.748852893505249,13.0507640142827,3.76127829412494,0.5,0.80209359809872,0.999923972202672,0.5,0.346334936157573,0.79108875928497,13.2881088703528,3.20761672932534,0.5,-11.6179014932043
113,1,10,B,0,1,l,63,1,0.95,0B,1B,0,1,0,1,B01,1.19495901449509,3.2188758248682,0.786360992155938,0.5,0.5,0.5,0.5,0.5,0.5,0.326832531921214,0.326832531921214,0.5,0.5,0.326832531921214,0.5,0.5,0.326832531921214,0.860351644298378,4.75385289350525,1,1,0,0B,1B,0.5,0.5,0.5,0.5,0,0,-0.5,-0.173167468078786,0.5,0.376262061971479,0.748852893505249,13.0507640142827,3.76127829412494,0.5,0.0457722128240134,0.501454790971841,0.5,0.346334936157573,0.79108875928497,13.2881088703528,3.20761672932534,0.5,-11.6179014932043
113,1,11,A,0,1,a,63,1,0.95,0A,1A,1,0,1,0,A01,0.621848734250601,2.56494935746154,0.786360992155938,0.5,0.5,0.5,0.326832531921214,0.5,0.5,0.326832531921214,0.326832531921214,0.5,0.5,0.326832531921214,0.5,0.5,0.326832531921214,0.860351644298378,1.26385289350525,1,1,0,0A,1A,0.786360992155938,0.5,0.611306621509098,0.388693378490902,1,1,0.213639007844062,0.0739906521424405,0.5,0.376262061971479,0.748852893505249,13.0507640142827,3.76127829412494,0.5,1.88252972956368,0.999924311590589,0.5,0.346334936157573,0.79108875928497,13.2881088703528,3.20761672932534,0.5,-11.6179014932043
113,1,12,B,1,0,a,63,1,0.95,1B,0B,1,0,1,0,B10,2.59176913780483,3.29583686600433,0.860351644298378,0.5,0.5,0.5,0.326832531921214,0.5,0.5,0.326832531921214,0.326832531921214,0.5,0.5,0.326832531921214,0.5,0.5,0.326832531921214,0.860351644298378,1.35285289350525,1,1,0,1B,0B,0.5,0.326832531921214,0.604717377094741,0.395282622905259,1,1,0.5,0.173167468078786,0.5,0.376262061971479,0.748852893505249,13.0507640142827,3.76127829412494,0.5,1.51744125933992,0.999867523904346,0.5,0.346334936157573,0.79108875928497,13.2881088703528,3.20761672932534,0.5,-11.6179014932043
113,1,13,D,3,2,a,63,1,0.95,3D,2D,1,0,1,0,D32,2.35196946353721,2.63905732961526,0.860351644298378,0.5,0.5,0.5,0.326832531921214,0.673167468078786,0.5,0.326832531921214,0.326832531921214,0.5,0.5,0.326832531921214,0.5,0.5,0.326832531921214,0.860351644298378,1.11785289350525,1,1,0,3D,2D,0.860351644298378,0.326832531921214,0.724699386609109,0.275300613390891,1,1,0.139648355701622,0.0483651043564312,0.5,0.376262061971479,0.748852893505249,13.0507640142827,3.76127829412494,0.5,2.84507756036643,0.999999995237481,0.5,0.346334936157573,0.79108875928497,13.2881088703528,3.20761672932534,0.5,-11.6179014932043
113,1,14,B,3,1,l,27,1,0.95,3B,1B,0,1,0,1,B31,0.101855896508935,3.36729582998647,0.860351644298378,0.5,0.5,0.5,0.326832531921214,0.673167468078786,0.5,0.326832531921214,0.326832531921214,0.5,0.5,0.326832531921214,0.5,0.5,0.326832531921214,0.90871674865481,1.03685289350525,0,0,1,1B,3B,0.673167468078786,0.326832531921214,0.673167468078786,0.326832531921214,1,1,0.326832531921214,0.113193524077151,0.5,0.376262061971479,0.748852893505249,13.0507640142827,3.76127829412494,0.5,3.33549712619238,0.999999614034402,0.5,0.346334936157573,0.79108875928497,13.2881088703528,3.20761672932534,0.5,-11.6179014932043
113,1,15,C,2,3,a,63,1,0.95,2C,3C,1,0,1,0,C23,1.01586534442326,3.40119738166216,0.860351644298378,0.5,0.5,0.5,0.326832531921214,0.786360992155938,0.5,0.326832531921214,0.326832531921214,0.5,0.5,0.326832531921214,0.5,0.5,0.326832531921214,0.90871674865481,1.52885289350525,1,1,0,2C,3C,0.5,0.326832531921214,0.604717377094741,0.395282622905259,1,1,0.5,0.173167468078786,0.5,0.376262061971479,0.748852893505249,13.0507640142827,3.76127829412494,0.5,0.881157687738013,0.999866558288739,0.5,0.346334936157573,0.79108875928497,13.2881088703528,3.20761672932534,0.5,-11.6179014932043
113,1,16,C,0,2,l,27,1,0.95,0C,2C,0,1,0,1,C02,1.12596070410161,2.7408400239252,0.860351644298378,0.5,0.5,0.5,0.326832531921214,0.786360992155938,0.5,0.326832531921214,0.326832531921214,0.5,0.673167468078786,0.326832531921214,0.5,0.5,0.326832531921214,0.90871674865481,1.10585289350525,0,0,1,2C,0C,0.673167468078786,0.326832531921214,0.673167468078786,0.326832531921214,1,1,0.326832531921214,0.113193524077151,0.5,0.376262061971479,0.748852893505249,13.0507640142827,3.76127829412494,0.5,3.48806947121179,0.999999614105504,0.5,0.346334936157573,0.79108875928497,13.2881088703528,3.20761672932534,0.5,-11.6179014932043
113,1,17,A,3,0,l,9,1,0.95,3A,0A,0,1,0,1,A30,3.46959989924569,3.46573590279973,0.860351644298378,0.5,0.5,0.5,0.326832531921214,0.786360992155938,0.5,0.326832531921214,0.326832531921214,0.5,0.786360992155938,0.326832531921214,0.5,0.5,0.326832531921214,0.90871674865481,1.16785289350525,0,0,1,0A,3A,0.860351644298378,0.5,0.632447976157016,0.367552023842984,1,1,0.139648355701622,0.0483651043564312,0.5,0.376262061971479,0.748852893505249,13.0507640142827,3.76127829412494,0.5,2.49786571722011,0.999987521256508,0.5,0.346334936157573,0.79108875928497,13.2881088703528,3.20761672932534,0.5,-11.6179014932043
113,1,18,C,3,2,l,63,0,0.95,3C,2C,0,1,1,0,C32,2.86008920222998,2.80336038090653,0.90871674865481,0.5,0.5,0.5,0.326832531921214,0.786360992155938,0.5,0.326832531921214,0.326832531921214,0.5,0.786360992155938,0.326832531921214,0.5,0.5,0.326832531921214,0.90871674865481,1.18485289350525,0,0,1,2C,3C,0.786360992155938,0.326832531921214,0.706400976243407,0.293599023756593,1,0,-0.786360992155938,-0.272344284015132,0.5,0.376262061971479,0.748852893505249,13.0507640142827,3.76127829412494,0.5,1.74812816018809,0.999999977187677,0.5,0.346334936157573,0.79108875928497,13.2881088703528,3.20761672932534,0.5,-11.6179014932043
113,1,19,A,0,1,a,63,1,0.95,0A,1A,1,0,1,0,A01,1.48454852690819,2.42774823594805,0.90871674865481,0.5,0.5,0.5,0.326832531921214,0.786360992155938,0.5,0.326832531921214,0.326832531921214,0.5,0.514016708140805,0.326832531921214,0.5,0.5,0.326832531921214,0.90871674865481,1.21185289350525,1,1,0,0A,1A,0.90871674865481,0.5,0.645067043834431,0.354932956165569,1,1,0.0912832513451904,0.0316145790268922,0.5,0.376262061971479,0.748852893505249,13.0507640142827,3.76127829412494,0.5,2.34336812798901,0.999995722806716,0.5,0.346334936157573,0.79108875928497,13.2881088703528,3.20761672932534,0.5,-11.6179014932043
113,1,20,D,2,3,l,63,1,0.95,2D,3D,0,1,0,1,D23,2.27310950115678,2.4567357728213,0.940331327681702,0.5,0.5,0.5,0.326832531921214,0.786360992155938,0.5,0.326832531921214,0.326832531921214,0.5,0.514016708140805,0.326832531921214,0.5,0.5,0.326832531921214,0.90871674865481,1.26085289350525,0,0,1,3D,2D,0.90871674865481,0.326832531921214,0.735475923899335,0.264524076100665,1,1,0.0912832513451904,0.0316145790268922,0.5,0.376262061971479,0.748852893505249,13.0507640142827,3.76127829412494,0.5,0.297317489944683,0.999999998084341,0.5,0.346334936157573,0.79108875928497,13.2881088703528,3.20761672932534,0.5,-11.6179014932043
113,1,21,C,2,3,a,63,1,0.95,2C,3C,1,0,1,0,C23,3.28015309738077,2.89037175789616,0.940331327681702,0.5,0.5,0.5,0.326832531921214,0.786360992155938,0.5,0.326832531921214,0.326832531921214,0.5,0.514016708140805,0.326832531921214,0.5,0.5,0.326832531921214,0.940331327681702,1.28985289350525,1,1,0,2C,3C,0.514016708140805,0.326832531921214,0.611306621509098,0.388693378490902,1,1,0.485983291859195,0.168312992359701,0.5,0.376262061971479,0.748852893505249,13.0507640142827,3.76127829412494,0.5,1.78619995846904,0.999923804488432,0.5,0.346334936157573,0.79108875928497,13.2881088703528,3.20761672932534,0.5,-11.6179014932043
113,1,22,D,1,3,l,27,1,0.95,1D,3D,0,1,0,1,D13,1.00689877814609,3.61091791264422,0.940331327681702,0.5,0.5,0.5,0.326832531921214,0.786360992155938,0.5,0.326832531921214,0.326832531921214,0.5,0.682329700500507,0.326832531921214,0.5,0.5,0.326832531921214,0.940331327681702,1.42685289350525,0,0,1,3D,1D,0.940331327681702,0.5,0.652857651298344,0.347142348701656,1,1,0.0596686723182982,0.0206653458179649,0.5,0.376262061971479,0.748852893505249,13.0507640142827,3.76127829412494,0.5,0.593619154640098,0.99999781288896,0.5,0.346334936157573,0.79108875928497,13.2881088703528,3.20761672932534,0.5,-11.6179014932043
113,1,23,A,1,0,l,63,1,0.95,1A,0A,0,1,0,1,A10,0.515429628468953,3.63758615972639,0.940331327681702,0.5,0.5,0.5,0.326832531921214,0.786360992155938,0.5,0.326832531921214,0.326832531921214,0.5,0.682329700500507,0.326832531921214,0.5,0.5,0.326832531921214,0.960996673499667,1.03585289350525,0,0,1,0A,1A,0.940331327681702,0.5,0.652857651298344,0.347142348701656,1,1,0.0596686723182982,0.0206653458179649,0.5,0.376262061971479,0.748852893505249,13.0507640142827,3.76127829412494,0.5,2.47437601990179,0.999997809871236,0.5,0.346334936157573,0.79108875928497,13.2881088703528,3.20761672932534,0.5,-11.6179014932043
113,1,24,C,2,3,a,63,1,0.95,2C,3C,1,0,1,0,C23,3.10632257403534,2.56494935746154,0.960996673499667,0.5,0.5,0.5,0.326832531921214,0.786360992155938,0.5,0.326832531921214,0.326832531921214,0.5,0.682329700500507,0.326832531921214,0.5,0.5,0.326832531921214,0.960996673499667,1.24785289350525,1,1,0,2C,3C,0.682329700500507,0.326832531921214,0.676134796347954,0.323865203652046,1,1,0.317670299499493,0.110020322896314,0.5,0.376262061971479,0.748852893505249,13.0507640142827,3.76127829412494,0.5,1.51956655607092,0.99999969476947,0.5,0.346334936157573,0.79108875928497,13.2881088703528,3.20761672932534,0.5,-11.6179014932043
113,1,25,A,2,0,l,27,1,0.95,2A,0A,0,1,0,1,A20,3.15183280467236,2.99573227355399,0.960996673499667,0.5,0.5,0.5,0.326832531921214,0.786360992155938,0.5,0.326832531921214,0.326832531921214,0.5,0.792350023396821,0.326832531921214,0.5,0.5,0.326832531921214,0.960996673499667,1.13885289350525,0,0,1,0A,2A,0.960996673499667,0.5,0.657767872392001,0.342232127607999,1,1,0.0390033265003332,0.0135082145934259,0.5,0.376262061971479,0.748852893505249,13.0507640142827,3.76127829412494,0.5,3.02590568854056,0.999998555391721,0.5,0.346334936157573,0.79108875928497,13.2881088703528,3.20761672932534,0.5,-11.6179014932043
113,1,26,B,0,1,l,63,1,0.95,0B,1B,0,1,0,1,B01,2.44097359444765,3.02042488614436,0.974504888093093,0.5,0.5,0.5,0.326832531921214,0.786360992155938,0.5,0.326832531921214,0.326832531921214,0.5,0.792350023396821,0.326832531921214,0.5,0.5,0.326832531921214,0.960996673499667,0.951852893505249,0,0,1,1B,0B,0.786360992155938,0.326832531921214,0.706400976243407,0.293599023756593,1,1,0.213639007844062,0.0739906521424405,0.5,0.376262061971479,0.748852893505249,13.0507640142827,3.76127829412494,0.5,1.96264588353569,0.999999977185605,0.5,0.346334936157573,0.79108875928497,13.2881088703528,3.20761672932534,0.5,-11.6179014932043
113,1,27,B,1,0,a,63,1,0.95,1B,0B,1,0,1,0,B10,1.90671644809025,3.04452243772342,0.974504888093093,0.5,0.5,0.5,0.326832531921214,0.860351644298378,0.5,0.326832531921214,0.326832531921214,0.5,0.792350023396821,0.326832531921214,0.5,0.5,0.326832531921214,0.960996673499667,0.957852893505249,1,1,0,1B,0B,0.860351644298378,0.326832531921214,0.724699386609109,0.275300613390891,1,1,0.139648355701622,0.0483651043564312,0.5,0.376262061971479,0.748852893505249,13.0507640142827,3.76127829412494,0.5,3.10045866838213,0.99999999518817,0.5,0.346334936157573,0.79108875928497,13.2881088703528,3.20761672932534,0.5,-11.6179014932043
113,1,28,C,2,3,a,63,1,0.95,2C,3C,1,0,1,0,C23,1.51928250676351,2.37490575457367,0.974504888093093,0.5,0.5,0.5,0.326832531921214,0.90871674865481,0.5,0.326832531921214,0.326832531921214,0.5,0.792350023396821,0.326832531921214,0.5,0.5,0.326832531921214,0.960996673499667,1.11185289350525,1,1,0,2C,3C,0.792350023396821,0.326832531921214,0.707972099486184,0.292027900513816,1,1,0.207649976603179,0.0719164413899836,0.5,0.376262061971479,0.748852893505249,13.0507640142827,3.76127829412494,0.5,3.36817235871194,0.999999980055919,0.5,0.346334936157573,0.79108875928497,13.2881088703528,3.20761672932534,0.5,-11.6179014932043
113,1,29,D,1,3,l,27,1,0.95,1D,3D,0,1,0,1,D13,0.332947906512232,3.09104245335832,0.974504888093093,0.5,0.5,0.5,0.326832531921214,0.90871674865481,0.5,0.326832531921214,0.326832531921214,0.5,0.864266464786804,0.326832531921214,0.5,0.5,0.326832531921214,0.960996673499667,1.20585289350525,0,0,1,3D,1D,0.960996673499667,0.5,0.657767872392001,0.342232127607999,1,1,0.0390033265003332,0.0135082145934259,0.5,0.376262061971479,0.748852893505249,13.0507640142827,3.76127829412494,0.5,2.34337900191454,0.999998552911448,0.5,0.346334936157573,0.79108875928497,13.2881088703528,3.20761672932534,0.5,-11.6179014932043
113,1,30,C,2,1,a,9,1,0.95,2C,1C,1,0,1,0,C21,0.131416475361625,3.80666248977032,0.974504888093093,0.5,0.5,0.5,0.326832531921214,0.90871674865481,0.5,0.326832531921214,0.326832531921214,0.5,0.864266464786804,0.326832531921214,0.5,0.5,0.326832531921214,0.974504888093093,1.34985289350525,1,1,0,2C,1C,0.864266464786804,0.5,0.633502682279788,0.366497317720212,1,1,0.135733535213196,0.0470092652525038,0.5,0.376262061971479,0.748852893505249,13.0507640142827,3.76127829412494,0.5,1.34618648889117,0.999988670826925,0.5,0.346334936157573,0.79108875928497,13.2881088703528,3.20761672932534,0.5,-11.6179014932043
113,1,31,B,1,3,a,27,1,0.95,1B,3B,1,0,1,0,B13,2.05225474803027,3.13549421592915,0.974504888093093,0.5,0.5,0.5,0.326832531921214,0.90871674865481,0.5,0.326832531921214,0.326832531921214,0.5,0.911275730039308,0.326832531921214,0.5,0.5,0.326832531921214,0.974504888093093,1.09285289350525,1,1,0,1B,3B,0.90871674865481,0.326832531921214,0.735475923899335,0.264524076100665,1,1,0.0912832513451904,0.0316145790268922,0.5,0.376262061971479,0.748852893505249,13.0507640142827,3.76127829412494,0.5,3.3741157641827,0.999999998089581,0.5,0.346334936157573,0.79108875928497,13.2881088703528,3.20761672932534,0.5,-11.6179014932043
113,1,32,D,2,3,l,63,1,0.95,2D,3D,0,1,0,1,D23,0.408258688292128,2.46385324059017,0.974504888093093,0.5,0.5,0.5,0.326832531921214,0.940331327681702,0.5,0.326832531921214,0.326832531921214,0.5,0.911275730039308,0.326832531921214,0.5,0.5,0.326832531921214,0.974504888093093,0.926852893505248,0,0,1,3D,2D,0.974504888093093,0.326832531921214,0.748848740615158,0.251151259384842,1,1,0.0254951119069073,0.00882984795460893,0.5,0.376262061971479,0.748852893505249,13.0507640142827,3.76127829412494,0.5,2.03961608767219,0.999999999385838,0.5,0.346334936157573,0.79108875928497,13.2881088703528,3.20761672932534,0.5,-11.6179014932043
113,1,33,B,1,0,a,63,1,0.95,1B,0B,1,0,1,0,B10,2.04250882669097,2.77258872223978,0.974504888093093,0.5,0.5,0.5,0.326832531921214,0.940331327681702,0.5,0.326832531921214,0.326832531921214,0.5,0.911275730039308,0.326832531921214,0.5,0.5,0.326832531921214,0.983334736047702,1.18085289350525,1,1,0,1B,0B,0.940331327681702,0.326832531921214,0.74207555759708,0.25792444240292,1,1,0.0596686723182982,0.0206653458179649,0.5,0.376262061971479,0.748852893505249,13.0507640142827,3.76127829412494,0.5,0.922175713772594,0.99999999890919,0.5,0.346334936157573,0.79108875928497,13.2881088703528,3.20761672932534,0.5,-11.6179014932043
113,1,34,A,0,1,a,63,0,0.95,0A,1A,1,0,0,1,A01,2.71275840191734,2.50552593699074,0.974504888093093,0.5,0.5,0.5,0.326832531921214,0.960996673499667,0.5,0.326832531921214,0.326832531921214,0.5,0.911275730039308,0.326832531921214,0.5,0.5,0.326832531921214,0.983334736047702,1.18085289350525,1,1,0,0A,1A,0.974504888093093,0.5,0.66090312481322,0.33909687518678,1,0,-0.974504888093093,-0.337505088202964,0.5,0.376262061971479,0.748852893505249,13.0507640142827,3.76127829412494,0.5,2.61613783290988,0.999998895152825,0.5,0.346334936157573,0.79108875928497,13.2881088703528,3.20761672932534,0.5,-11.6179014932043
113,1,35,C,3,2,l,63,1,0.95,3C,2C,0,1,0,1,C32,0.372036211358433,2.81341071676004,0.636999799890129,0.5,0.5,0.5,0.326832531921214,0.960996673499667,0.5,0.326832531921214,0.326832531921214,0.5,0.911275730039308,0.326832531921214,0.5,0.5,0.326832531921214,0.983334736047702,0.938852893505248,0,0,1,2C,3C,0.911275730039308,0.326832531921214,0.736022654914135,0.263977345085865,1,1,0.0887242699606918,0.0307283143724635,0.5,0.376262061971479,0.748852893505249,13.0507640142827,3.76127829412494,0.5,2.39049316366668,0.999999998176162,0.5,0.346334936157573,0.79108875928497,13.2881088703528,3.20761672932534,0.5,-11.6179014932043
113,1,36,A,2,0,l,27,1,0.95,2A,0A,0,1,0,1,A20,0.970657857939108,2.83321334405622,0.636999799890129,0.5,0.5,0.5,0.326832531921214,0.960996673499667,0.5,0.326832531921214,0.326832531921214,0.5,0.942004044411772,0.326832531921214,0.5,0.5,0.326832531921214,0.983334736047702,2.07085289350525,0,0,1,0A,2A,0.636999799890129,0.5,0.56024618469738,0.43975381530262,1,1,0.363000200109871,0.125719651130238,0.5,0.376262061971479,0.748852893505249,13.0507640142827,3.76127829412494,0.5,0.408547817278656,0.994158356594877,0.5,0.346334936157573,0.79108875928497,13.2881088703528,3.20761672932534,0.5,-11.6179014932043
113,1,37,B,1,0,a,63,1,0.95,1B,0B,1,0,1,0,B10,0.205327739993859,2.56494935746154,0.762719451020367,0.5,0.5,0.5,0.326832531921214,0.960996673499667,0.5,0.326832531921214,0.326832531921214,0.5,0.942004044411772,0.326832531921214,0.5,0.5,0.326832531921214,0.983334736047702,1.06685289350525,1,1,0,1B,0B,0.960996673499667,0.326832531921214,0.746214381110886,0.253785618889114,1,1,0.0390033265003332,0.0135082145934259,0.5,0.376262061971479,0.748852893505249,13.0507640142827,3.76127829412494,0.5,4.10851450167233,0.999999999229625,0.5,0.346334936157573,0.79108875928497,13.2881088703528,3.20761672932534,0.5,-11.6179014932043
113,1,38,D,3,2,a,63,1,0.95,3D,2D,1,0,1,0,D32,0.809673283064575,2.87167962488401,0.762719451020367,0.5,0.5,0.5,0.326832531921214,0.974504888093093,0.5,0.326832531921214,0.326832531921214,0.5,0.942004044411772,0.326832531921214,0.5,0.5,0.326832531921214,0.983334736047702,1.02085289350525,1,1,0,3D,2D,0.983334736047702,0.326832531921214,0.750541369860441,0.249458630139559,1,1,0.0166652639522984,0.00577176312696837,0.5,0.376262061971479,0.748852893505249,13.0507640142827,3.76127829412494,0.5,5.74119252644858,0.99999999947134,0.5,0.346334936157573,0.79108875928497,13.2881088703528,3.20761672932534,0.5,-11.6179014932043
113,1,39,B,2,1,l,9,1,0.95,2B,1B,0,1,0,1,B21,1.04997077341953,3.98898404656427,0.762719451020367,0.5,0.5,0.5,0.326832531921214,0.974504888093093,0.5,0.326832531921214,0.326832531921214,0.5,0.942004044411772,0.326832531921214,0.5,0.5,0.326832531921214,0.98910649917467,1.03585289350525,0,0,1,1B,2B,0.974504888093093,0.5,0.66090312481322,0.33909687518678,1,1,0.0254951119069073,0.00882984795460893,0.5,0.376262061971479,0.748852893505249,13.0507640142827,3.76127829412494,0.5,2.80235251655244,0.999998895408354,0.5,0.346334936157573,0.79108875928497,13.2881088703528,3.20761672932534,0.5,-11.6179014932043
113,1,40,D,3,1,a,27,1,0.95,3D,1D,1,0,1,0,D31,0.772606120854515,4.00733318523247,0.762719451020367,0.5,0.5,0.5,0.326832531921214,0.983334736047702,0.5,0.326832531921214,0.326832531921214,0.5,0.942004044411772,0.326832531921214,0.5,0.5,0.326832531921214,0.98910649917467,1.03885289350525,1,1,0,3D,1D,0.98910649917467,0.5,0.66422817959822,0.33577182040178,1,1,0.01089350082533,0.00377279991287314,0.5,0.376262061971479,0.748852893505249,13.0507640142827,3.76127829412494,0.5,2.98918810243232,0.999999165409988,0.5,0.346334936157573,0.79108875928497,13.2881088703528,3.20761672932534,0.5,-11.6179014932043
113,1,41,A,0,1,a,63,1,0.95,0A,1A,1,0,1,0,A01,2.79642812690181,2.41591377830105,0.762719451020367,0.5,0.5,0.5,0.326832531921214,0.983334736047702,0.5,0.326832531921214,0.326832531921214,0.5,0.942004044411772,0.326832531921214,0.5,0.5,0.326832531921214,0.992879299087543,1.61685289350525,1,1,0,0A,1A,0.762719451020367,0.5,0.604029224705484,0.395970775294516,1,1,0.237280548979633,0.082178543782295,0.5,0.376262061971479,0.748852893505249,13.0507640142827,3.76127829412494,0.5,0.645418179174867,0.999858641095191,0.5,0.346334936157573,0.79108875928497,13.2881088703528,3.20761672932534,0.5,-11.6179014932043
113,1,42,A,1,0,l,63,1,0.95,1A,0A,0,1,0,1,A10,2.47163670931207,3.3499040872746,0.844897994802662,0.5,0.5,0.5,0.326832531921214,0.983334736047702,0.5,0.326832531921214,0.326832531921214,0.5,0.942004044411772,0.326832531921214,0.5,0.5,0.326832531921214,0.992879299087543,1.09685289350525,0,0,1,0A,1A,0.844897994802662,0.5,0.628224592547359,0.371775407452641,1,1,0.155102005197338,0.0537172430679316,0.5,0.376262061971479,0.748852893505249,13.0507640142827,3.76127829412494,0.5,2.25975437644942,0.999982161544878,0.5,0.346334936157573,0.79108875928497,13.2881088703528,3.20761672932534,0.5,-11.6179014932043
113,1,43,C,0,2,l,27,1,0.95,0C,2C,0,1,0,1,C02,3.27915065747707,2.96183072187831,0.898615237870594,0.5,0.5,0.5,0.326832531921214,0.983334736047702,0.5,0.326832531921214,0.326832531921214,0.5,0.942004044411772,0.326832531921214,0.5,0.5,0.326832531921214,0.992879299087543,0.981852893505249,0,0,1,2C,0C,0.942004044411772,0.326832531921214,0.74241558131483,0.25758441868517,1,1,0.0579959555882283,0.0200860255760465,0.5,0.376262061971479,0.748852893505249,13.0507640142827,3.76127829412494,0.5,5.31207073521918,0.999999998937116,0.5,0.346334936157573,0.79108875928497,13.2881088703528,3.20761672932534,0.5,-11.6179014932043
113,1,44,B,1,0,a,63,1,0.95,1B,0B,1,0,1,0,B10,1.39482145376373,2.46809953147162,0.898615237870594,0.5,0.5,0.5,0.326832531921214,0.983334736047702,0.5,0.326832531921214,0.326832531921214,0.5,0.962090069987818,0.326832531921214,0.5,0.5,0.326832531921214,0.992879299087543,0.951852893505249,1,1,0,1B,0B,0.983334736047702,0.326832531921214,0.750541369860441,0.249458630139559,1,1,0.0166652639522984,0.00577176312696837,0.5,0.376262061971479,0.748852893505249,13.0507640142827,3.76127829412494,0.5,4.09774800389924,0.999999999469953,0.5,0.346334936157573,0.79108875928497,13.2881088703528,3.20761672932534,0.5,-11.6179014932043
