ID,session,trialNr,mod2Stim,visStimLeft,visStimRight,correctKey,frequency,rewardAccurate,probFB,stimPairLeft,stimPairRight,leftCorrect,rightCorrect,pCorrectLeft,pCorrectRight,triplet,rt,surprise,0A belief,1A belief,2A belief,3A belief,0B belief,1B belief,2B belief,3B belief,0C belief,1C belief,2C belief,3C belief,0D belief,1D belief,2D belief,3D belief,reactionTime,choice,choiceLeft,choiceRight,chosenPair,otherPair,beliefPair,beliefOtherPair,beliefPairNorm,beliefOtherPairNorm,choiceAccurate,reward,rewardPE,update2,sim_CBCsimpleRW_CBCdriftDiffusionLR_startBelief,sim_CBCsimpleRW_CBCdriftDiffusionLR_alpha1,sim_CBCsimpleRW_CBCdriftDiffusionLR_nonDecisionTime,sim_CBCsimpleRW_CBCdriftDiffusionLR_weight,sim_CBCsimpleRW_CBCdriftDiffusionLR_startingBoundary,sim_CBCsimpleRW_CBCdriftDiffusionLR_startingPoint,lik,corrLik,fitCBCsimpleRW_CBCdriftDiffusionLR_startBelief,fitCBCsimpleRW_CBCdriftDiffusionLR_alpha1,fitCBCsimpleRW_CBCdriftDiffusionLR_nonDecisionTime,fitCBCsimpleRW_CBCdriftDiffusionLR_weight,fitCBCsimpleRW_CBCdriftDiffusionLR_startingBoundary,fitCBCsimpleRW_CBCdriftDiffusionLR_startingPoint,fit_CBCsimpleRW_CBCdriftDiffusionLR_NLL
191,1,1,A,0,1,a,63,1,0.95,0A,1A,1,0,1,0,A01,2.71733988797484,2.77258872223978,0.5,0.5,0.5,0.5,0.5,0.5,0.5,0.5,0.5,0.5,0.5,0.5,0.5,0.5,0.5,0.5,0.913378237782694,0,0,1,1A,0A,0.5,0.5,0.5,0.5,0,0,-0.5,-0.0507635858850294,0.5,0.244152265614867,0.503378237782694,2.65303968868461,1.94102059875778,0.5,0.356353452766524,0.50002682422191,0.5,0.101527171770059,0.437025309643048,4.3926404267958,2.26965237469116,0.5,63.4511683867396
191,1,2,C,3,2,l,63,1,0.95,3C,2C,0,1,0,1,C32,0.348145226589439,2.83321334405622,0.5,0.449236414114971,0.5,0.5,0.5,0.5,0.5,0.5,0.5,0.5,0.5,0.5,0.5,0.5,0.5,0.5,1.09637823778269,0,0,1,2C,3C,0.5,0.5,0.5,0.5,1,1,0.5,0.0507635858850294,0.5,0.244152265614867,0.503378237782694,2.65303968868461,1.94102059875778,0.5,0.318213281912458,0.500241103744883,0.5,0.101527171770059,0.437025309643048,4.3926404267958,2.26965237469116,0.5,63.4511683867396
191,1,3,A,0,2,a,27,1,0.95,0A,2A,1,0,1,0,A02,3.14519975185891,2.89037175789616,0.5,0.449236414114971,0.5,0.5,0.5,0.5,0.5,0.5,0.5,0.5,0.550763585885029,0.5,0.5,0.5,0.5,0.5,4.87237823778269,0,0,1,2A,0A,0.5,0.5,0.5,0.5,0,0,-0.5,-0.0507635858850294,0.5,0.244152265614867,0.503378237782694,2.65303968868461,1.94102059875778,0.5,0.0087201138486462,0.50066514008538,0.5,0.101527171770059,0.437025309643048,4.3926404267958,2.26965237469116,0.5,63.4511683867396
191,1,4,B,1,0,a,63,1,0.95,1B,0B,1,0,1,0,B10,0.0469845988237541,2.94443897916644,0.5,0.449236414114971,0.449236414114971,0.5,0.5,0.5,0.5,0.5,0.5,0.5,0.550763585885029,0.5,0.5,0.5,0.5,0.5,2.32137823778269,0,0,1,0B,1B,0.5,0.5,0.5,0.5,0,0,-0.5,-0.0507635858850294,0.5,0.244152265614867,0.503378237782694,2.65303968868461,1.94102059875778,0.5,0.100045055907709,0.498772453700365,0.5,0.101527171770059,0.437025309643048,4.3926404267958,2.26965237469116,0.5,63.4511683867396
191,1,5,B,0,1,l,63,1,0.95,0B,1B,0,1,0,1,B01,1.69574539502551,2.99573227355399,0.5,0.449236414114971,0.449236414114971,0.5,0.449236414114971,0.5,0.5,0.5,0.5,0.5,0.550763585885029,0.5,0.5,0.5,0.5,0.5,2.33637823778269,1,1,0,0B,1B,0.449236414114971,0.5,0.473260830953078,0.526739169046923,0,0,-0.449236414114971,-0.0456097025812159,0.5,0.244152265614867,0.503378237782694,2.65303968868461,1.94102059875778,0.5,0.0719097589041243,0.370009797550255,0.5,0.101527171770059,0.437025309643048,4.3926404267958,2.26965237469116,0.5,63.4511683867396
191,1,6,C,3,2,l,63,1,0.95,3C,2C,0,1,0,1,C32,0.697382719454831,2.35137525716348,0.5,0.449236414114971,0.449236414114971,0.5,0.403626711533755,0.5,0.5,0.5,0.5,0.5,0.550763585885029,0.5,0.5,0.5,0.5,0.5,1.22137823778269,0,0,1,2C,3C,0.550763585885029,0.5,0.524155569610015,0.475844430389985,1,1,0.449236414114971,0.0456097025812159,0.5,0.244152265614867,0.503378237782694,2.65303968868461,1.94102059875778,0.5,0.356721311852141,0.617764573381377,0.5,0.101527171770059,0.437025309643048,4.3926404267958,2.26965237469116,0.5,63.4511683867396
191,1,7,D,3,1,a,27,1,0.95,3D,1D,1,0,1,0,D31,0.528173855456359,3.09104245335832,0.5,0.449236414114971,0.449236414114971,0.5,0.403626711533755,0.5,0.5,0.5,0.5,0.5,0.596373288466245,0.5,0.5,0.5,0.5,0.5,0.842378237782694,1,1,0,3D,1D,0.5,0.5,0.5,0.5,1,1,0.5,0.0507635858850294,0.5,0.244152265614867,0.503378237782694,2.65303968868461,1.94102059875778,0.5,0.359075216483543,0.501139831120074,0.5,0.101527171770059,0.437025309643048,4.3926404267958,2.26965237469116,0.5,63.4511683867396
191,1,8,C,1,2,l,9,1,0.95,1C,2C,0,1,0,1,C12,1.65930551919959,3.13549421592915,0.5,0.449236414114971,0.449236414114971,0.5,0.403626711533755,0.5,0.5,0.5,0.5,0.5,0.596373288466245,0.5,0.5,0.5,0.5,0.550763585885029,1.74637823778269,0,0,1,2C,1C,0.596373288466245,0.5,0.543950946944843,0.456049053055157,1,1,0.403626711533755,0.0409790784728715,0.5,0.244152265614867,0.503378237782694,2.65303968868461,1.94102059875778,0.5,0.244488126609165,0.705925259527353,0.5,0.101527171770059,0.437025309643048,4.3926404267958,2.26965237469116,0.5,63.4511683867396
191,1,9,B,3,1,l,27,1,0.95,3B,1B,0,1,0,1,B31,1.49764035210703,3.17805383034795,0.5,0.449236414114971,0.449236414114971,0.5,0.403626711533755,0.5,0.5,0.5,0.5,0.5,0.637352366939117,0.5,0.5,0.5,0.5,0.550763585885029,1.31737823778269,1,1,0,3B,1B,0.5,0.5,0.5,0.5,0,0,-0.5,-0.0507635858850294,0.5,0.244152265614867,0.503378237782694,2.65303968868461,1.94102059875778,0.5,0.261366330469237,0.499785703083667,0.5,0.101527171770059,0.437025309643048,4.3926404267958,2.26965237469116,0.5,63.4511683867396
191,1,10,D,3,2,a,63,1,0.95,3D,2D,1,0,1,0,D32,3.34041950232112,3.2188758248682,0.5,0.449236414114971,0.449236414114971,0.5,0.403626711533755,0.5,0.5,0.449236414114971,0.5,0.5,0.637352366939117,0.5,0.5,0.5,0.5,0.550763585885029,2.76137823778269,1,1,0,3D,2D,0.550763585885029,0.5,0.524155569610015,0.475844430389985,1,1,0.449236414114971,0.0456097025812159,0.5,0.244152265614867,0.503378237782694,2.65303968868461,1.94102059875778,0.5,0.0794006710562301,0.617673776642475,0.5,0.101527171770059,0.437025309643048,4.3926404267958,2.26965237469116,0.5,63.4511683867396
191,1,11,B,1,0,a,63,1,0.95,1B,0B,1,0,1,0,B10,2.676568922631,2.56494935746154,0.5,0.449236414114971,0.449236414114971,0.5,0.403626711533755,0.5,0.5,0.449236414114971,0.5,0.5,0.637352366939117,0.5,0.5,0.5,0.5,0.596373288466245,1.16137823778269,1,1,0,1B,0B,0.5,0.403626711533755,0.553325829812328,0.446674170187672,1,1,0.5,0.0507635858850294,0.5,0.244152265614867,0.503378237782694,2.65303968868461,1.94102059875778,0.5,0.473696704249059,0.743755256848831,0.5,0.101527171770059,0.437025309643048,4.3926404267958,2.26965237469116,0.5,63.4511683867396
191,1,12,C,0,2,l,27,1,0.95,0C,2C,0,1,0,1,C02,3.39007588292246,3.29583686600433,0.5,0.449236414114971,0.449236414114971,0.5,0.403626711533755,0.550763585885029,0.5,0.449236414114971,0.5,0.5,0.637352366939117,0.5,0.5,0.5,0.5,0.596373288466245,0.945378237782694,0,0,1,2C,0C,0.637352366939117,0.5,0.560382503668922,0.439617496331078,1,1,0.362647633060883,0.0368185885337776,0.5,0.244152265614867,0.503378237782694,2.65303968868461,1.94102059875778,0.5,0.598096522974076,0.769190292498722,0.5,0.101527171770059,0.437025309643048,4.3926404267958,2.26965237469116,0.5,63.4511683867396
191,1,13,D,3,2,a,63,0,0.95,3D,2D,1,0,0,1,D32,2.52759817337039,2.63905732961526,0.5,0.449236414114971,0.449236414114971,0.5,0.403626711533755,0.550763585885029,0.5,0.449236414114971,0.5,0.5,0.674170955472895,0.5,0.5,0.5,0.5,0.596373288466245,1.31337823778269,1,1,0,3D,2D,0.596373288466245,0.5,0.543950946944843,0.456049053055157,1,0,-0.596373288466245,-0.0605480932971874,0.5,0.244152265614867,0.503378237782694,2.65303968868461,1.94102059875778,0.5,0.380769666224159,0.705634840442691,0.5,0.101527171770059,0.437025309643048,4.3926404267958,2.26965237469116,0.5,63.4511683867396
191,1,14,A,1,0,l,63,1,0.95,1A,0A,0,1,0,1,A10,1.94032566576887,3.36729582998647,0.5,0.449236414114971,0.449236414114971,0.5,0.403626711533755,0.550763585885029,0.5,0.449236414114971,0.5,0.5,0.674170955472895,0.5,0.5,0.5,0.5,0.535825195169058,2.52337823778269,0,0,1,0A,1A,0.5,0.449236414114971,0.526739169046923,0.473260830953078,1,1,0.5,0.0507635858850294,0.5,0.244152265614867,0.503378237782694,2.65303968868461,1.94102059875778,0.5,0.10190812112883,0.630617468004612,0.5,0.101527171770059,0.437025309643048,4.3926404267958,2.26965237469116,0.5,63.4511683867396
191,1,15,C,2,3,a,63,1,0.95,2C,3C,1,0,1,0,C23,1.07757695591593,3.40119738166216,0.550763585885029,0.449236414114971,0.449236414114971,0.5,0.403626711533755,0.550763585885029,0.5,0.449236414114971,0.5,0.5,0.674170955472895,0.5,0.5,0.5,0.5,0.535825195169058,3.02737823778269,0,0,1,3C,2C,0.5,0.674170955472895,0.425832369357685,0.574167630642315,0,0,-0.5,-0.0507635858850294,0.5,0.244152265614867,0.503378237782694,2.65303968868461,1.94102059875778,0.5,0.0140440177980023,0.1855687776917,0.5,0.101527171770059,0.437025309643048,4.3926404267958,2.26965237469116,0.5,63.4511683867396
191,1,16,A,0,2,a,27,1,0.95,0A,2A,1,0,1,0,A02,2.34816519261963,2.7408400239252,0.550763585885029,0.449236414114971,0.449236414114971,0.5,0.403626711533755,0.550763585885029,0.5,0.449236414114971,0.5,0.5,0.674170955472895,0.449236414114971,0.5,0.5,0.5,0.535825195169058,1.45537823778269,0,0,1,2A,0A,0.449236414114971,0.550763585885029,0.449236414114971,0.550763585885029,0,0,-0.449236414114971,-0.0456097025812159,0.5,0.244152265614867,0.503378237782694,2.65303968868461,1.94102059875778,0.5,0.12534314439017,0.267099633398044,0.5,0.101527171770059,0.437025309643048,4.3926404267958,2.26965237469116,0.5,63.4511683867396
191,1,17,D,2,3,l,63,1,0.95,2D,3D,0,1,0,1,D23,2.94301116769205,3.46573590279973,0.550763585885029,0.449236414114971,0.403626711533755,0.5,0.403626711533755,0.550763585885029,0.5,0.449236414114971,0.5,0.5,0.674170955472895,0.449236414114971,0.5,0.5,0.5,0.535825195169058,0.755378237782694,0,0,1,3D,2D,0.535825195169058,0.5,0.517293069977512,0.482706930022488,1,1,0.464174804830942,0.0471263551414046,0.5,0.244152265614867,0.503378237782694,2.65303968868461,1.94102059875778,0.5,0.394019259212548,0.584408457874797,0.5,0.101527171770059,0.437025309643048,4.3926404267958,2.26965237469116,0.5,63.4511683867396
191,1,18,D,3,2,a,63,1,0.95,3D,2D,1,0,1,0,D32,0.134395452482077,2.39789527279837,0.550763585885029,0.449236414114971,0.403626711533755,0.5,0.403626711533755,0.550763585885029,0.5,0.449236414114971,0.5,0.5,0.674170955472895,0.449236414114971,0.5,0.5,0.5,0.582951550310463,1.26737823778269,1,1,0,3D,2D,0.582951550310463,0.5,0.538298827997745,0.461701172002255,1,1,0.417048449689537,0.0423417495880664,0.5,0.244152265614867,0.503378237782694,2.65303968868461,1.94102059875778,0.5,0.382988179891395,0.682480639262218,0.5,0.101527171770059,0.437025309643048,4.3926404267958,2.26965237469116,0.5,63.4511683867396
191,1,19,B,3,1,l,27,1,0.95,3B,1B,0,1,0,1,B31,1.77232940739193,2.83321334405622,0.550763585885029,0.449236414114971,0.403626711533755,0.5,0.403626711533755,0.550763585885029,0.5,0.449236414114971,0.5,0.5,0.674170955472895,0.449236414114971,0.5,0.5,0.5,0.625293299898529,0.705378237782694,0,0,1,1B,3B,0.550763585885029,0.449236414114971,0.550763585885029,0.449236414114971,1,1,0.449236414114971,0.0456097025812159,0.5,0.244152265614867,0.503378237782694,2.65303968868461,1.94102059875778,0.5,0.477965476155795,0.733956917846462,0.5,0.101527171770059,0.437025309643048,4.3926404267958,2.26965237469116,0.5,63.4511683867396
191,1,20,D,0,3,l,9,1,0.95,0D,3D,0,1,0,1,D03,2.00991053133074,3.55534806148941,0.550763585885029,0.449236414114971,0.403626711533755,0.5,0.403626711533755,0.596373288466245,0.5,0.449236414114971,0.5,0.5,0.674170955472895,0.449236414114971,0.5,0.5,0.5,0.625293299898529,0.930378237782694,0,0,1,3D,0D,0.625293299898529,0.5,0.555671396919286,0.444328603080714,1,1,0.374706700101471,0.038042911504594,0.5,0.244152265614867,0.503378237782694,2.65303968868461,1.94102059875778,0.5,0.58224067150255,0.752631678981824,0.5,0.101527171770059,0.437025309643048,4.3926404267958,2.26965237469116,0.5,63.4511683867396
191,1,21,B,1,0,a,63,1,0.95,1B,0B,1,0,1,0,B10,2.37124210000747,2.484906649788,0.550763585885029,0.449236414114971,0.403626711533755,0.5,0.403626711533755,0.596373288466245,0.5,0.449236414114971,0.5,0.5,0.674170955472895,0.449236414114971,0.5,0.5,0.5,0.663336211403123,1.28837823778269,0,0,1,0B,1B,0.403626711533755,0.596373288466245,0.403626711533755,0.596373288466245,0,0,-0.403626711533755,-0.0409790784728715,0.5,0.244152265614867,0.503378237782694,2.65303968868461,1.94102059875778,0.5,0.0758146870532297,0.127815640785855,0.5,0.101527171770059,0.437025309643048,4.3926404267958,2.26965237469116,0.5,63.4511683867396
191,1,22,A,1,0,l,63,1,0.95,1A,0A,0,1,0,1,A10,2.64249210477192,2.91777073208428,0.550763585885029,0.449236414114971,0.403626711533755,0.5,0.362647633060883,0.596373288466245,0.5,0.449236414114971,0.5,0.5,0.674170955472895,0.449236414114971,0.5,0.5,0.5,0.663336211403123,0.577378237782694,0,0,1,0A,1A,0.550763585885029,0.449236414114971,0.550763585885029,0.449236414114971,1,1,0.449236414114971,0.0456097025812159,0.5,0.244152265614867,0.503378237782694,2.65303968868461,1.94102059875778,0.5,0.143185129393767,0.733092768885038,0.5,0.101527171770059,0.437025309643048,4.3926404267958,2.26965237469116,0.5,63.4511683867396
191,1,23,C,2,3,a,63,1,0.95,2C,3C,1,0,1,0,C23,1.49424388465903,2.94443897916644,0.596373288466245,0.449236414114971,0.403626711533755,0.5,0.362647633060883,0.596373288466245,0.5,0.449236414114971,0.5,0.5,0.674170955472895,0.449236414114971,0.5,0.5,0.5,0.663336211403123,0.788378237782694,1,1,0,2C,3C,0.674170955472895,0.449236414114971,0.600112633870492,0.399887366129508,1,1,0.325829044527105,0.0330805013713776,0.5,0.244152265614867,0.503378237782694,2.65303968868461,1.94102059875778,0.5,0.82272261352859,0.880063395350232,0.5,0.101527171770059,0.437025309643048,4.3926404267958,2.26965237469116,0.5,63.4511683867396
191,1,24,A,0,2,a,27,1,0.95,0A,2A,1,0,1,0,A02,3.39894425065889,2.56494935746154,0.596373288466245,0.449236414114971,0.403626711533755,0.5,0.362647633060883,0.596373288466245,0.5,0.449236414114971,0.5,0.5,0.707251456844272,0.449236414114971,0.5,0.5,0.5,0.663336211403123,1.19237823778269,0,0,1,2A,0A,0.403626711533755,0.596373288466245,0.403626711533755,0.596373288466245,0,0,-0.403626711533755,-0.0409790784728715,0.5,0.244152265614867,0.503378237782694,2.65303968868461,1.94102059875778,0.5,0.0855370778479711,0.12769371129969,0.5,0.101527171770059,0.437025309643048,4.3926404267958,2.26965237469116,0.5,63.4511683867396
191,1,25,B,1,0,a,63,1,0.95,1B,0B,1,0,1,0,B10,0.53927363681765,2.30258509299405,0.596373288466245,0.449236414114971,0.362647633060883,0.5,0.362647633060883,0.596373288466245,0.5,0.449236414114971,0.5,0.5,0.707251456844272,0.449236414114971,0.5,0.5,0.5,0.663336211403123,1.22237823778269,1,1,0,1B,0B,0.596373288466245,0.362647633060883,0.621856390282488,0.378143609717512,1,1,0.403626711533755,0.0409790784728715,0.5,0.244152265614867,0.503378237782694,2.65303968868461,1.94102059875778,0.5,0.613172721615361,0.919203237930824,0.5,0.101527171770059,0.437025309643048,4.3926404267958,2.26965237469116,0.5,63.4511683867396
191,1,26,D,2,3,l,63,1,0.95,2D,3D,0,1,0,1,D23,2.63311976762589,3.02042488614436,0.596373288466245,0.449236414114971,0.362647633060883,0.5,0.362647633060883,0.637352366939117,0.5,0.449236414114971,0.5,0.5,0.707251456844272,0.449236414114971,0.5,0.5,0.5,0.663336211403123,5.62537823778269,0,0,1,3D,2D,0.663336211403123,0.5,0.570201636380819,0.429798363619181,1,1,0.336663788596877,0.0341805222936339,0.5,0.244152265614867,0.503378237782694,2.65303968868461,1.94102059875778,0.5,0.00317934605074715,0.802050341931916,0.5,0.101527171770059,0.437025309643048,4.3926404267958,2.26965237469116,0.5,63.4511683867396
191,1,27,B,1,2,a,9,1,0.95,1B,2B,1,0,1,0,B12,3.19818598594061,3.73766961828337,0.596373288466245,0.449236414114971,0.362647633060883,0.5,0.362647633060883,0.637352366939117,0.5,0.449236414114971,0.5,0.5,0.707251456844272,0.449236414114971,0.5,0.5,0.5,0.697516733696757,2.44437823778269,1,1,0,1B,2B,0.637352366939117,0.5,0.560382503668922,0.439617496331078,1,1,0.362647633060883,0.0368185885337776,0.5,0.244152265614867,0.503378237782694,2.65303968868461,1.94102059875778,0.5,0.122712903938002,0.769453996384523,0.5,0.101527171770059,0.437025309643048,4.3926404267958,2.26965237469116,0.5,63.4511683867396
191,1,28,D,1,3,l,27,1,0.95,1D,3D,0,1,0,1,D13,0.298952314533592,3.76120011569356,0.596373288466245,0.449236414114971,0.362647633060883,0.5,0.362647633060883,0.674170955472895,0.5,0.449236414114971,0.5,0.5,0.707251456844272,0.449236414114971,0.5,0.5,0.5,0.697516733696757,1.37037823778269,0,0,1,3D,1D,0.697516733696757,0.5,0.582469300068576,0.417530699931424,1,1,0.302483266303243,0.0307102705355378,0.5,0.244152265614867,0.503378237782694,2.65303968868461,1.94102059875778,0.5,0.443363906276706,0.838402304892084,0.5,0.101527171770059,0.437025309643048,4.3926404267958,2.26965237469116,0.5,63.4511683867396
191,1,29,A,1,0,l,63,1,0.95,1A,0A,0,1,0,1,A10,2.72018155069032,2.68557734525015,0.596373288466245,0.449236414114971,0.362647633060883,0.5,0.362647633060883,0.674170955472895,0.5,0.449236414114971,0.5,0.5,0.707251456844272,0.449236414114971,0.5,0.5,0.5,0.728227004232295,0.760378237782694,0,0,1,0A,1A,0.596373288466245,0.449236414114971,0.570359367356696,0.429640632643304,1,1,0.403626711533755,0.0409790784728715,0.5,0.244152265614867,0.503378237782694,2.65303968868461,1.94102059875778,0.5,0.637132154823355,0.802587976346996,0.5,0.101527171770059,0.437025309643048,4.3926404267958,2.26965237469116,0.5,63.4511683867396
191,1,30,A,0,1,a,63,1,0.95,0A,1A,1,0,1,0,A01,2.26082053580262,3.11351530921037,0.637352366939117,0.449236414114971,0.362647633060883,0.5,0.362647633060883,0.674170955472895,0.5,0.449236414114971,0.5,0.5,0.707251456844272,0.449236414114971,0.5,0.5,0.5,0.728227004232295,1.23537823778269,1,1,0,0A,1A,0.637352366939117,0.449236414114971,0.586562624289962,0.413437375710038,1,1,0.362647633060883,0.0368185885337776,0.5,0.244152265614867,0.503378237782694,2.65303968868461,1.94102059875778,0.5,0.530670549186919,0.849001087066203,0.5,0.101527171770059,0.437025309643048,4.3926404267958,2.26965237469116,0.5,63.4511683867396
191,1,31,C,0,2,l,27,1,0.95,0C,2C,0,1,0,1,C02,2.70365319263244,3.13549421592915,0.674170955472895,0.449236414114971,0.362647633060883,0.5,0.362647633060883,0.674170955472895,0.5,0.449236414114971,0.5,0.5,0.707251456844272,0.449236414114971,0.5,0.5,0.5,0.728227004232295,1.73637823778269,0,0,1,2C,0C,0.707251456844272,0.5,0.585836076514674,0.414163923485326,1,1,0.292748543155728,0.0297219316264061,0.5,0.244152265614867,0.503378237782694,2.65303968868461,1.94102059875778,0.5,0.285635787314512,0.847119162968445,0.5,0.101527171770059,0.437025309643048,4.3926404267958,2.26965237469116,0.5,63.4511683867396
191,1,32,A,1,0,l,63,1,0.95,1A,0A,0,1,0,1,A10,0.0638727904069795,2.46385324059017,0.674170955472895,0.449236414114971,0.362647633060883,0.5,0.362647633060883,0.674170955472895,0.5,0.449236414114971,0.5,0.5,0.736973388470678,0.449236414114971,0.5,0.5,0.5,0.728227004232295,3.00037823778269,0,0,1,0A,1A,0.674170955472895,0.449236414114971,0.600112633870492,0.399887366129508,1,1,0.325829044527105,0.0330805013713776,0.5,0.244152265614867,0.503378237782694,2.65303968868461,1.94102059875778,0.5,0.0526381356582333,0.880575983912159,0.5,0.101527171770059,0.437025309643048,4.3926404267958,2.26965237469116,0.5,63.4511683867396
191,1,33,B,1,0,a,63,1,0.95,1B,0B,1,0,1,0,B10,0.413592505126253,2.26176309847379,0.707251456844272,0.449236414114971,0.362647633060883,0.5,0.362647633060883,0.674170955472895,0.5,0.449236414114971,0.5,0.5,0.736973388470678,0.449236414114971,0.5,0.5,0.5,0.728227004232295,1.71037823778269,1,1,0,1B,0B,0.674170955472895,0.362647633060883,0.650230390280982,0.349769609719019,1,1,0.325829044527105,0.0330805013713776,0.5,0.244152265614867,0.503378237782694,2.65303968868461,1.94102059875778,0.5,0.265675950807203,0.952310189995911,0.5,0.101527171770059,0.437025309643048,4.3926404267958,2.26965237469116,0.5,63.4511683867396
191,1,34,D,3,2,a,63,1,0.95,3D,2D,1,0,1,0,D32,1.69454498192099,2.50552593699074,0.707251456844272,0.449236414114971,0.362647633060883,0.5,0.362647633060883,0.707251456844272,0.5,0.449236414114971,0.5,0.5,0.736973388470678,0.449236414114971,0.5,0.5,0.5,0.728227004232295,1.08837823778269,1,1,0,3D,2D,0.728227004232295,0.5,0.592909129764228,0.407090870235772,1,1,0.271772995767705,0.0275923436237713,0.5,0.244152265614867,0.503378237782694,2.65303968868461,1.94102059875778,0.5,0.651063167727187,0.864707619626296,0.5,0.101527171770059,0.437025309643048,4.3926404267958,2.26965237469116,0.5,63.4511683867396
191,1,35,B,3,1,l,27,1,0.95,3B,1B,0,1,0,1,B31,0.435361258332193,2.81341071676004,0.707251456844272,0.449236414114971,0.362647633060883,0.5,0.362647633060883,0.707251456844272,0.5,0.449236414114971,0.5,0.5,0.736973388470678,0.449236414114971,0.5,0.5,0.5,0.755819347856066,2.08837823778269,1,1,0,3B,1B,0.449236414114971,0.707251456844272,0.388448876461068,0.611551123538932,0,0,-0.449236414114971,-0.0456097025812159,0.5,0.244152265614867,0.503378237782694,2.65303968868461,1.94102059875778,0.5,0.0186192479824152,0.0974498888390258,0.5,0.101527171770059,0.437025309643048,4.3926404267958,2.26965237469116,0.5,63.4511683867396
191,1,36,C,3,2,l,63,1,0.95,3C,2C,0,1,0,1,C32,0.958918314191553,2.83321334405622,0.707251456844272,0.449236414114971,0.362647633060883,0.5,0.362647633060883,0.707251456844272,0.5,0.403626711533755,0.5,0.5,0.736973388470678,0.449236414114971,0.5,0.5,0.5,0.755819347856066,0.756378237782694,0,0,1,2C,3C,0.736973388470678,0.449236414114971,0.621284183341139,0.378715816658861,1,1,0.263026611529322,0.026704347968834,0.5,0.244152265614867,0.503378237782694,2.65303968868461,1.94102059875778,0.5,0.932506261455196,0.917961229995999,0.5,0.101527171770059,0.437025309643048,4.3926404267958,2.26965237469116,0.5,63.4511683867396
191,1,37,C,2,0,a,27,1,0.95,2C,0C,1,0,1,0,C20,0.260923429776579,3.95124371858143,0.707251456844272,0.449236414114971,0.362647633060883,0.5,0.362647633060883,0.707251456844272,0.5,0.403626711533755,0.5,0.5,0.763677736439512,0.449236414114971,0.5,0.5,0.5,0.755819347856066,0.860378237782694,1,1,0,2C,0C,0.763677736439512,0.5,0.604329501436988,0.395670498563012,1,1,0.236322263560488,0.0239931310455948,0.5,0.244152265614867,0.503378237782694,2.65303968868461,1.94102059875778,0.5,0.849654506049469,0.888641896512971,0.5,0.101527171770059,0.437025309643048,4.3926404267958,2.26965237469116,0.5,63.4511683867396
191,1,38,B,1,0,a,63,1,0.95,1B,0B,1,0,1,0,B10,0.444941045029726,2.17853244432407,0.707251456844272,0.449236414114971,0.362647633060883,0.5,0.362647633060883,0.707251456844272,0.5,0.403626711533755,0.5,0.5,0.787670867485107,0.449236414114971,0.5,0.5,0.5,0.755819347856066,0.815378237782694,1,1,0,1B,0B,0.707251456844272,0.362647633060883,0.661045012111347,0.338954987888653,1,1,0.292748543155728,0.0297219316264061,0.5,0.244152265614867,0.503378237782694,2.65303968868461,1.94102059875778,0.5,1.20985344250548,0.96126063340769,0.5,0.101527171770059,0.437025309643048,4.3926404267958,2.26965237469116,0.5,63.4511683867396
191,1,39,A,3,0,l,9,1,0.95,3A,0A,0,1,0,1,A30,2.42310841381896,3.98898404656427,0.707251456844272,0.449236414114971,0.362647633060883,0.5,0.362647633060883,0.736973388470678,0.5,0.403626711533755,0.5,0.5,0.787670867485107,0.449236414114971,0.5,0.5,0.5,0.755819347856066,1.69337823778269,0,0,1,0A,3A,0.707251456844272,0.5,0.585836076514674,0.414163923485326,1,1,0.292748543155728,0.0297219316264061,0.5,0.244152265614867,0.503378237782694,2.65303968868461,1.94102059875778,0.5,0.301288573408242,0.847085186345695,0.5,0.101527171770059,0.437025309643048,4.3926404267958,2.26965237469116,0.5,63.4511683867396
191,1,40,C,3,2,l,63,0,0.95,3C,2C,0,1,1,0,C32,0.859340578856951,2.62103882411258,0.736973388470678,0.449236414114971,0.362647633060883,0.5,0.362647633060883,0.736973388470678,0.5,0.403626711533755,0.5,0.5,0.787670867485107,0.449236414114971,0.5,0.5,0.5,0.755819347856066,0.873378237782694,0,0,1,2C,3C,0.787670867485107,0.449236414114971,0.636806718823877,0.363193281176123,1,0,-0.787670867485107,-0.0799699954614317,0.5,0.244152265614867,0.503378237782694,2.65303968868461,1.94102059875778,0.5,1.02422587459357,0.93851564796966,0.5,0.101527171770059,0.437025309643048,4.3926404267958,2.26965237469116,0.5,63.4511683867396
191,1,41,A,1,0,l,63,1,0.95,1A,0A,0,1,0,1,A10,1.1768866545669,2.41591377830105,0.736973388470678,0.449236414114971,0.362647633060883,0.5,0.362647633060883,0.736973388470678,0.5,0.403626711533755,0.5,0.5,0.707700872023675,0.449236414114971,0.5,0.5,0.5,0.755819347856066,0.722378237782694,0,0,1,0A,1A,0.736973388470678,0.449236414114971,0.621284183341139,0.378715816658861,1,1,0.263026611529322,0.026704347968834,0.5,0.244152265614867,0.503378237782694,2.65303968868461,1.94102059875778,0.5,0.886223505854715,0.918215195400621,0.5,0.101527171770059,0.437025309643048,4.3926404267958,2.26965237469116,0.5,63.4511683867396
191,1,42,D,3,2,a,63,1,0.95,3D,2D,1,0,1,0,D32,1.74952265590721,2.43361335540045,0.763677736439512,0.449236414114971,0.362647633060883,0.5,0.362647633060883,0.736973388470678,0.5,0.403626711533755,0.5,0.5,0.707700872023675,0.449236414114971,0.5,0.5,0.5,0.755819347856066,0.747378237782694,1,1,0,3D,2D,0.755819347856066,0.5,0.601853562095854,0.398146437904146,1,1,0.244180652143934,0.0247909710131422,0.5,0.244152265614867,0.503378237782694,2.65303968868461,1.94102059875778,0.5,0.802116432058434,0.884131060380886,0.5,0.101527171770059,0.437025309643048,4.3926404267958,2.26965237469116,0.5,63.4511683867396
191,1,43,C,2,3,a,63,1,0.95,2C,3C,1,0,1,0,C23,3.41997281595633,2.96183072187831,0.763677736439512,0.449236414114971,0.362647633060883,0.5,0.362647633060883,0.736973388470678,0.5,0.403626711533755,0.5,0.5,0.707700872023675,0.449236414114971,0.5,0.5,0.5,0.780610318869208,1.50537823778269,1,1,0,2C,3C,0.707700872023675,0.449236414114971,0.611702017475531,0.388297982524469,1,1,0.292299127976325,0.0296763037742907,0.5,0.244152265614867,0.503378237782694,2.65303968868461,1.94102059875778,0.5,0.398651571173853,0.902480014989643,0.5,0.101527171770059,0.437025309643048,4.3926404267958,2.26965237469116,0.5,63.4511683867396
191,1,44,D,1,3,l,27,1,0.95,1D,3D,0,1,0,1,D13,1.64667035078559,3.38439026334577,0.763677736439512,0.449236414114971,0.362647633060883,0.5,0.362647633060883,0.736973388470678,0.5,0.403626711533755,0.5,0.5,0.737377175797966,0.449236414114971,0.5,0.5,0.5,0.780610318869208,1.14937823778269,0,0,1,3D,1D,0.780610318869208,0.5,0.60956116577172,0.39043883422828,1,1,0.219389681130792,0.0222740138407443,0.5,0.244152265614867,0.503378237782694,2.65303968868461,1.94102059875778,0.5,0.652422221320477,0.899044154935029,0.5,0.101527171770059,0.437025309643048,4.3926404267958,2.26965237469116,0.5,63.4511683867396
