ID,filename,session,trial,visStimLeft,visStimRight,correctKey,leftCorrect,rightCorrect,secondStim,mod2Type,mod2Stim,frequency,rewardAccurate,stimPairLeft,stimPairRight,pCorrectLeft,pCorrectRight,key,reactionTime,choiceLeft,choiceRight,choiceAccurate,reward,chosenPair,otherPair,triplet,surprise,0A belief,1A belief,2A belief,3A belief,0B belief,1B belief,2B belief,3B belief,0C belief,1C belief,2C belief,3C belief,0D belief,1D belief,2D belief,3D belief,beliefPairNorm,beliefOtherPairNorm,beliefPair,beliefOtherPair,lik,corrLik,rewardPE,update2,fitCBCsimpleRW_CBCdriftDiffusionLR_pwBelief_startBelief,fitCBCsimpleRW_CBCdriftDiffusionLR_pwBelief_alpha1,fitCBCsimpleRW_CBCdriftDiffusionLR_pwBelief_nonDecisionTime,fitCBCsimpleRW_CBCdriftDiffusionLR_pwBelief_weight,fitCBCsimpleRW_CBCdriftDiffusionLR_pwBelief_startingBoundary,fitCBCsimpleRW_CBCdriftDiffusionLR_pwBelief_startingPoint,fit_CBCsimpleRW_CBCdriftDiffusionLR_pwBelief_NLL
CBC_1001,CBC_1001_MSI_AV_v3_Vset4_Aset2_2023-06-08_11h37.59.527.csv,1,1,3,1,z,0,1,1,aud,B,27,1,3B,1B,0,1,z,2.5182563999997,0,1,1,1,1B,3B,B31,2.77258872223978,0.5,0.5,0.5,0.5,0.5,0.5,0.5,0.5,0.5,0.5,0.5,0.5,0.5,0.5,0.5,0.5,0.5,0.5,0.5,0.5,0.148825561294338,0.500556065183466,0.5,0.0167185499991768,0.5,0.0334370999983535,0.959548490802131,11.0891051535638,2.58526681622116,0.5,54.988402797992
CBC_1001,CBC_1001_MSI_AV_v3_Vset4_Aset2_2023-06-08_11h37.59.527.csv,1,2,2,3,b,1,0,2,aud,C,63,1,2C,3C,1,0,z,2.24184400000013,0,1,0,0,3C,2C,C23,2.83321334405622,0.5,0.5,0.5,0.5,0.5,0.516718549999177,0.5,0.5,0.5,0.5,0.5,0.5,0.5,0.5,0.5,0.5,0.5,0.5,0.5,0.5,0.18189629918699,0.499463491038067,-0.5,-0.0167185499991768,0.5,0.0334370999983535,0.959548490802131,11.0891051535638,2.58526681622116,0.5,54.988402797992
CBC_1001,CBC_1001_MSI_AV_v3_Vset4_Aset2_2023-06-08_11h37.59.527.csv,1,3,2,3,z,0,1,3,aud,D,63,1,2D,3D,0,1,b,2.57463349999989,1,0,0,0,2D,3D,D23,2.89037175789616,0.5,0.5,0.5,0.5,0.5,0.516718549999177,0.5,0.5,0.5,0.5,0.5,0.483281450000823,0.5,0.5,0.5,0.5,0.5,0.5,0.5,0.5,0.142729977196801,0.500416002611944,-0.5,-0.0167185499991768,0.5,0.0334370999983535,0.959548490802131,11.0891051535638,2.58526681622116,0.5,54.988402797992
CBC_1001,CBC_1001_MSI_AV_v3_Vset4_Aset2_2023-06-08_11h37.59.527.csv,1,4,1,0,b,1,0,1,aud,B,63,0,1B,0B,0,1,b,2.42206690000012,1,0,1,0,1B,0B,B10,2.94443897916644,0.5,0.5,0.5,0.5,0.5,0.516718549999177,0.5,0.5,0.5,0.5,0.5,0.483281450000823,0.5,0.5,0.483281450000823,0.5,0.516718549999177,0.483281450000823,0.516718549999177,0.5,0.233180952500437,0.723255744787025,-0.516718549999177,-0.0172775698273267,0.5,0.0334370999983535,0.959548490802131,11.0891051535638,2.58526681622116,0.5,54.988402797992
CBC_1001,CBC_1001_MSI_AV_v3_Vset4_Aset2_2023-06-08_11h37.59.527.csv,1,5,3,0,z,0,1,0,aud,A,9,1,3A,0A,0,1,z,3.39004290000003,0,1,1,1,0A,3A,A30,2.99573227355399,0.5,0.5,0.5,0.5,0.5,0.49944098017185,0.5,0.5,0.5,0.5,0.5,0.483281450000823,0.5,0.5,0.483281450000823,0.5,0.5,0.5,0.5,0.5,0.0780659324145341,0.499635094385551,0.5,0.0167185499991768,0.5,0.0334370999983535,0.959548490802131,11.0891051535638,2.58526681622116,0.5,54.988402797992
CBC_1001,CBC_1001_MSI_AV_v3_Vset4_Aset2_2023-06-08_11h37.59.527.csv,1,6,2,3,z,0,1,3,aud,D,63,1,2D,3D,NaN,NaN,[],NaN,NaN,NaN,NaN,NaN,,,D23,2.35137525716348,0.516718549999177,0.5,0.5,0.5,0.5,0.49944098017185,0.5,0.5,0.5,0.5,0.5,0.483281450000823,0.5,0.5,0.483281450000823,0.5,0,0,0,0,NaN,0,0,0,0.5,0.0334370999983535,0.959548490802131,11.0891051535638,2.58526681622116,0.5,54.988402797992
CBC_1001,CBC_1001_MSI_AV_v3_Vset4_Aset2_2023-06-08_11h37.59.527.csv,1,7,2,0,b,1,0,2,aud,C,27,1,2C,0C,1,0,b,3.77247699999998,1,0,1,1,2C,0C,C20,3.09104245335832,0.516718549999177,0.5,0.5,0.5,0.5,0.49944098017185,0.5,0.5,0.5,0.5,0.5,0.483281450000823,0.5,0.5,0.483281450000823,0.5,0.5,0.5,0.5,0.5,0.0588694972683753,0.499702975040571,0.5,0.0167185499991768,0.5,0.0334370999983535,0.959548490802131,11.0891051535638,2.58526681622116,0.5,54.988402797992
CBC_1001,CBC_1001_MSI_AV_v3_Vset4_Aset2_2023-06-08_11h37.59.527.csv,1,8,1,0,z,0,1,0,aud,A,63,1,1A,0A,0,1,z,2.78982200000019,0,1,1,1,0A,1A,A10,3.13549421592915,0.516718549999177,0.5,0.5,0.5,0.5,0.49944098017185,0.5,0.5,0.5,0.5,0.516718549999177,0.483281450000823,0.5,0.5,0.483281450000823,0.5,0.516718549999177,0.483281450000823,0.516718549999177,0.5,0.173479971816917,0.723844808481757,0.483281450000823,0.0161595301710268,0.5,0.0334370999983535,0.959548490802131,11.0891051535638,2.58526681622116,0.5,54.988402797992
CBC_1001,CBC_1001_MSI_AV_v3_Vset4_Aset2_2023-06-08_11h37.59.527.csv,1,9,0,1,z,0,1,1,aud,B,63,1,0B,1B,0,1,z,2.07255699999996,0,1,1,1,1B,0B,B01,3.17805383034795,0.532878080170204,0.5,0.5,0.5,0.5,0.49944098017185,0.5,0.5,0.5,0.5,0.516718549999177,0.483281450000823,0.5,0.5,0.483281450000823,0.5,0.49944098017185,0.50055901982815,0.49944098017185,0.5,0.202891578505672,0.492945576619046,0.50055901982815,0.0167372420010717,0.5,0.0334370999983535,0.959548490802131,11.0891051535638,2.58526681622116,0.5,54.988402797992
CBC_1001,CBC_1001_MSI_AV_v3_Vset4_Aset2_2023-06-08_11h37.59.527.csv,1,10,3,1,b,1,0,3,aud,D,27,0,3D,1D,0,1,b,2.58499330000041,1,0,1,0,3D,1D,D31,3.2188758248682,0.532878080170204,0.5,0.5,0.5,0.5,0.516178222172922,0.5,0.5,0.5,0.5,0.516718549999177,0.483281450000823,0.5,0.5,0.483281450000823,0.5,0.5,0.5,0.5,0.5,0.141831513548665,0.501077736316876,-0.5,-0.0167185499991768,0.5,0.0334370999983535,0.959548490802131,11.0891051535638,2.58526681622116,0.5,54.988402797992
CBC_1001,CBC_1001_MSI_AV_v3_Vset4_Aset2_2023-06-08_11h37.59.527.csv,1,11,2,3,b,1,0,2,aud,C,63,1,2C,3C,1,0,b,1.78561600000012,1,0,1,1,2C,3C,C23,2.56494935746154,0.532878080170204,0.5,0.5,0.5,0.5,0.516178222172922,0.5,0.5,0.5,0.5,0.516718549999177,0.483281450000823,0.5,0.5,0.483281450000823,0.483281450000823,0.533399757744684,0.466600242255316,0.516718549999177,0.483281450000823,0.518430730553627,0.871620395301669,0.483281450000823,0.0161595301710268,0.5,0.0334370999983535,0.959548490802131,11.0891051535638,2.58526681622116,0.5,54.988402797992
CBC_1001,CBC_1001_MSI_AV_v3_Vset4_Aset2_2023-06-08_11h37.59.527.csv,1,12,0,1,z,0,1,1,aud,B,63,1,0B,1B,0,1,z,1.59718599999997,0,1,1,1,1B,0B,B01,2.60268968544438,0.532878080170204,0.5,0.5,0.5,0.5,0.516178222172922,0.5,0.5,0.5,0.5,0.532878080170204,0.483281450000823,0.5,0.5,0.483281450000823,0.483281450000823,0.516178222172922,0.483821777827078,0.516178222172922,0.5,0.417645252281809,0.717433080298291,0.483821777827078,0.0161775971665852,0.5,0.0334370999983535,0.959548490802131,11.0891051535638,2.58526681622116,0.5,54.988402797992
CBC_1001,CBC_1001_MSI_AV_v3_Vset4_Aset2_2023-06-08_11h37.59.527.csv,1,13,1,0,z,0,1,0,aud,A,63,0,1A,0A,1,0,z,1.70943140000008,0,1,1,0,0A,1A,A10,2.63905732961526,0.532878080170204,0.5,0.5,0.5,0.5,0.532355819339507,0.5,0.5,0.5,0.5,0.532878080170204,0.483281450000823,0.5,0.5,0.483281450000823,0.483281450000823,0.532878080170204,0.467121919829796,0.532878080170204,0.5,0.548001979091709,0.868329770395054,-0.532878080170204,-0.0178178976535818,0.5,0.0334370999983535,0.959548490802131,11.0891051535638,2.58526681622116,0.5,54.988402797992
CBC_1001,CBC_1001_MSI_AV_v3_Vset4_Aset2_2023-06-08_11h37.59.527.csv,1,14,2,1,b,1,0,2,aud,C,9,1,2C,1C,1,0,z,3.18978910000033,0,1,0,0,1C,2C,C21,3.36729582998647,0.515060182516622,0.5,0.5,0.5,0.5,0.532355819339507,0.5,0.5,0.5,0.5,0.532878080170204,0.483281450000823,0.5,0.5,0.483281450000823,0.483281450000823,0.467121919829796,0.532878080170204,0.5,0.532878080170204,0.0195058323144451,0.131806701832399,-0.5,-0.0167185499991768,0.5,0.0334370999983535,0.959548490802131,11.0891051535638,2.58526681622116,0.5,54.988402797992
CBC_1001,CBC_1001_MSI_AV_v3_Vset4_Aset2_2023-06-08_11h37.59.527.csv,1,15,0,1,b,1,0,0,aud,A,63,1,0A,1A,NaN,NaN,[],NaN,NaN,NaN,NaN,NaN,,,A01,3.40119738166216,0.515060182516622,0.5,0.5,0.5,0.5,0.532355819339507,0.5,0.5,0.5,0.483281450000823,0.532878080170204,0.483281450000823,0.5,0.5,0.483281450000823,0.483281450000823,0,0,0,0,NaN,0,0,0,0.5,0.0334370999983535,0.959548490802131,11.0891051535638,2.58526681622116,0.5,54.988402797992
CBC_1001,CBC_1001_MSI_AV_v3_Vset4_Aset2_2023-06-08_11h37.59.527.csv,1,16,1,3,z,0,1,3,aud,D,27,1,1D,3D,0,1,z,2.58515670000043,0,1,1,1,3D,1D,D13,3.43398720448515,0.515060182516622,0.5,0.5,0.5,0.5,0.532355819339507,0.5,0.5,0.5,0.483281450000823,0.532878080170204,0.483281450000823,0.5,0.5,0.483281450000823,0.483281450000823,0.483281450000823,0.516718549999177,0.483281450000823,0.5,0.0785014597991939,0.277651386696034,0.516718549999177,0.0172775698273267,0.5,0.0334370999983535,0.959548490802131,11.0891051535638,2.58526681622116,0.5,54.988402797992
CBC_1001,CBC_1001_MSI_AV_v3_Vset4_Aset2_2023-06-08_11h37.59.527.csv,1,17,1,0,b,1,0,1,aud,B,63,1,1B,0B,1,0,b,1.56869869999991,1,0,1,1,1B,0B,B10,2.77258872223978,0.515060182516622,0.5,0.5,0.5,0.5,0.532355819339507,0.5,0.5,0.5,0.483281450000823,0.532878080170204,0.483281450000823,0.5,0.5,0.483281450000823,0.50055901982815,0.532355819339507,0.467644180660493,0.532355819339507,0.5,0.5946866646442,0.864664734422876,0.467644180660493,0.015636665232393,0.5,0.0334370999983535,0.959548490802131,11.0891051535638,2.58526681622116,0.5,54.988402797992
CBC_1001,CBC_1001_MSI_AV_v3_Vset4_Aset2_2023-06-08_11h37.59.527.csv,1,18,3,2,z,0,1,2,aud,C,63,0,3C,2C,1,0,z,3.12383599999976,0,1,1,0,2C,3C,C32,3.49650756146648,0.515060182516622,0.5,0.5,0.5,0.5,0.5479924845719,0.5,0.5,0.5,0.483281450000823,0.532878080170204,0.483281450000823,0.5,0.5,0.483281450000823,0.50055901982815,0.549487821528343,0.450512178471657,0.532878080170204,0.483281450000823,0.106731615866751,0.94462615421844,-0.532878080170204,-0.0178178976535818,0.5,0.0334370999983535,0.959548490802131,11.0891051535638,2.58526681622116,0.5,54.988402797992
CBC_1001,CBC_1001_MSI_AV_v3_Vset4_Aset2_2023-06-08_11h37.59.527.csv,1,19,0,2,b,1,0,0,aud,A,27,1,0A,2A,1,0,b,1.14921000000004,1,0,1,1,0A,2A,A02,3.52636052461616,0.515060182516622,0.5,0.5,0.5,0.5,0.5479924845719,0.5,0.5,0.5,0.483281450000823,0.515060182516622,0.483281450000823,0.5,0.5,0.483281450000823,0.50055901982815,0.515060182516622,0.484939817483378,0.515060182516622,0.5,0.116039903401004,0.702710736385953,0.484939817483378,0.016214981170375,0.5,0.0334370999983535,0.959548490802131,11.0891051535638,2.58526681622116,0.5,54.988402797992
CBC_1001,CBC_1001_MSI_AV_v3_Vset4_Aset2_2023-06-08_11h37.59.527.csv,1,20,2,3,z,0,1,3,aud,D,63,1,2D,3D,0,1,z,2.32911330000024,0,1,1,1,3D,2D,D23,2.4567357728213,0.531275163686997,0.5,0.5,0.5,0.5,0.5479924845719,0.5,0.5,0.5,0.483281450000823,0.515060182516622,0.483281450000823,0.5,0.5,0.483281450000823,0.50055901982815,0.517276923946736,0.482723076053264,0.50055901982815,0.483281450000823,0.253314000360756,0.728656809221477,0.49944098017185,0.0166998579972819,0.5,0.0334370999983535,0.959548490802131,11.0891051535638,2.58526681622116,0.5,54.988402797992
CBC_1001,CBC_1001_MSI_AV_v3_Vset4_Aset2_2023-06-08_11h37.59.527.csv,1,21,1,3,b,1,0,1,aud,B,27,1,1B,3B,1,0,b,2.61349879999989,1,0,1,1,1B,3B,B13,3.58351893845611,0.531275163686997,0.5,0.5,0.5,0.5,0.5479924845719,0.5,0.5,0.5,0.483281450000823,0.515060182516622,0.483281450000823,0.5,0.5,0.483281450000823,0.517258877825432,0.5479924845719,0.4520075154281,0.5479924845719,0.5,0.214900120162776,0.940092673123317,0.4520075154281,0.0151138204933767,0.5,0.0334370999983535,0.959548490802131,11.0891051535638,2.58526681622116,0.5,54.988402797992
CBC_1001,CBC_1001_MSI_AV_v3_Vset4_Aset2_2023-06-08_11h37.59.527.csv,1,22,2,3,b,1,0,2,aud,C,63,1,2C,3C,1,0,b,2.32661290000033,1,0,1,1,2C,3C,C23,2.51230562397611,0.531275163686997,0.5,0.5,0.5,0.5,0.563106305065277,0.5,0.5,0.5,0.483281450000823,0.515060182516622,0.483281450000823,0.5,0.5,0.483281450000823,0.517258877825432,0.531746759159142,0.468253240840858,0.515060182516622,0.483281450000823,0.302935816428882,0.860332377114235,0.484939817483378,0.016214981170375,0.5,0.0334370999983535,0.959548490802131,11.0891051535638,2.58526681622116,0.5,54.988402797992
CBC_1001,CBC_1001_MSI_AV_v3_Vset4_Aset2_2023-06-08_11h37.59.527.csv,1,23,1,0,z,0,1,0,aud,A,63,0,1A,0A,1,0,z,1.51755240000011,0,1,1,0,0A,1A,A10,2.53897387105828,0.531275163686997,0.5,0.5,0.5,0.5,0.563106305065277,0.5,0.5,0.5,0.483281450000823,0.531275163686997,0.483281450000823,0.5,0.5,0.483281450000823,0.517258877825432,0.531275163686997,0.468724836313003,0.531275163686997,0.5,0.593199360467917,0.857253227819821,-0.531275163686997,-0.0177643007748438,0.5,0.0334370999983535,0.959548490802131,11.0891051535638,2.58526681622116,0.5,54.988402797992
CBC_1001,CBC_1001_MSI_AV_v3_Vset4_Aset2_2023-06-08_11h37.59.527.csv,1,24,1,2,b,1,0,1,aud,B,9,1,1B,2B,1,0,b,1.58183529999997,1,0,1,1,1B,2B,B12,3.66356164612965,0.513510862912153,0.5,0.5,0.5,0.5,0.563106305065277,0.5,0.5,0.5,0.483281450000823,0.531275163686997,0.483281450000823,0.5,0.5,0.483281450000823,0.517258877825432,0.563106305065277,0.436893694934723,0.563106305065277,0.5,0.91141821302403,0.974015391301128,0.436893694934723,0.0146084581661825,0.5,0.0334370999983535,0.959548490802131,11.0891051535638,2.58526681622116,0.5,54.988402797992
CBC_1001,CBC_1001_MSI_AV_v3_Vset4_Aset2_2023-06-08_11h37.59.527.csv,1,25,3,2,z,0,1,2,aud,C,63,1,3C,2C,0,1,z,1.88420610000003,0,1,1,1,2C,3C,C32,2.99573227355399,0.513510862912153,0.5,0.5,0.5,0.5,0.577714763231459,0.5,0.5,0.5,0.483281450000823,0.531275163686997,0.483281450000823,0.5,0.5,0.483281450000823,0.517258877825432,0.547893544264046,0.452106455735954,0.531275163686997,0.483281450000823,0.549168743933949,0.939554186532504,0.468724836313003,0.0156727992235098,0.5,0.0334370999983535,0.959548490802131,11.0891051535638,2.58526681622116,0.5,54.988402797992
CBC_1001,CBC_1001_MSI_AV_v3_Vset4_Aset2_2023-06-08_11h37.59.527.csv,1,26,3,2,b,1,0,3,aud,D,63,0,3D,2D,0,1,b,2.44767640000009,1,0,1,0,3D,2D,D32,3.71357206670431,0.513510862912153,0.5,0.5,0.5,0.5,0.577714763231459,0.5,0.5,0.5,0.483281450000823,0.546947962910507,0.483281450000823,0.5,0.5,0.483281450000823,0.517258877825432,0.533938257182529,0.466061742817471,0.517258877825432,0.483281450000823,0.27180668807436,0.87510210792943,-0.517258877825432,-0.0172956368228851,0.5,0.0334370999983535,0.959548490802131,11.0891051535638,2.58526681622116,0.5,54.988402797992
CBC_1001,CBC_1001_MSI_AV_v3_Vset4_Aset2_2023-06-08_11h37.59.527.csv,1,27,1,0,b,1,0,1,aud,B,63,1,1B,0B,1,0,b,1.74692489999961,1,0,1,1,1B,0B,B10,2.63905732961526,0.513510862912153,0.5,0.5,0.5,0.5,0.577714763231459,0.5,0.5,0.5,0.483281450000823,0.546947962910507,0.483281450000823,0.5,0.5,0.483281450000823,0.499963241002547,0.577714763231459,0.422285236768541,0.577714763231459,0.5,0.735659371012402,0.988544835710919,0.422285236768541,0.0141199936896581,0.5,0.0334370999983535,0.959548490802131,11.0891051535638,2.58526681622116,0.5,54.988402797992
CBC_1001,CBC_1001_MSI_AV_v3_Vset4_Aset2_2023-06-08_11h37.59.527.csv,1,28,2,0,z,0,1,0,aud,A,27,1,2A,0A,0,1,z,1.51640159999988,0,1,1,1,0A,2A,A20,3.76120011569356,0.513510862912153,0.5,0.5,0.5,0.5,0.591834756921117,0.5,0.5,0.5,0.483281450000823,0.546947962910507,0.483281450000823,0.5,0.5,0.483281450000823,0.499963241002547,0.513510862912153,0.486489137087847,0.513510862912153,0.5,0.398272160584278,0.68524738083696,0.486489137087847,0.0162667859249191,0.5,0.0334370999983535,0.959548490802131,11.0891051535638,2.58526681622116,0.5,54.988402797992
CBC_1001,CBC_1001_MSI_AV_v3_Vset4_Aset2_2023-06-08_11h37.59.527.csv,1,29,3,1,b,1,0,3,aud,D,27,1,3D,1D,1,0,z,2.33447410000008,0,1,0,0,1D,3D,D31,3.09104245335832,0.529777648837072,0.5,0.5,0.5,0.5,0.591834756921117,0.5,0.5,0.5,0.483281450000823,0.546947962910507,0.483281450000823,0.5,0.5,0.483281450000823,0.499963241002547,0.500036758997453,0.499963241002547,0.5,0.499963241002547,0.170482817005446,0.500934336729829,-0.5,-0.0167185499991768,0.5,0.0334370999983535,0.959548490802131,11.0891051535638,2.58526681622116,0.5,54.988402797992
CBC_1001,CBC_1001_MSI_AV_v3_Vset4_Aset2_2023-06-08_11h37.59.527.csv,1,30,0,1,b,1,0,0,aud,A,63,1,0A,1A,1,0,b,1.47099959999969,1,0,1,1,0A,1A,A01,3.11351530921037,0.529777648837072,0.5,0.5,0.5,0.5,0.591834756921117,0.5,0.5,0.5,0.483281450000823,0.546947962910507,0.483281450000823,0.5,0.483281450000823,0.483281450000823,0.499963241002547,0.529777648837072,0.470222351162928,0.529777648837072,0.5,0.578767292473997,0.84684506603895,0.470222351162928,0.0157228717772957,0.5,0.0334370999983535,0.959548490802131,11.0891051535638,2.58526681622116,0.5,54.988402797992
CBC_1001,CBC_1001_MSI_AV_v3_Vset4_Aset2_2023-06-08_11h37.59.527.csv,1,31,0,2,z,0,1,2,aud,C,27,1,0C,2C,0,1,z,2.05611799999997,0,1,1,1,2C,0C,C02,3.8286413964891,0.545500520614368,0.5,0.5,0.5,0.5,0.591834756921117,0.5,0.5,0.5,0.483281450000823,0.546947962910507,0.483281450000823,0.5,0.483281450000823,0.483281450000823,0.499963241002547,0.546947962910507,0.453052037089493,0.546947962910507,0.5,0.441438951016083,0.93652695575481,0.453052037089493,0.0151487462686192,0.5,0.0334370999983535,0.959548490802131,11.0891051535638,2.58526681622116,0.5,54.988402797992
CBC_1001,CBC_1001_MSI_AV_v3_Vset4_Aset2_2023-06-08_11h37.59.527.csv,1,32,3,2,b,1,0,3,aud,D,63,1,3D,2D,1,0,b,1.89630200000011,1,0,1,1,3D,2D,D32,3.15700042115011,0.545500520614368,0.5,0.5,0.5,0.5,0.591834756921117,0.5,0.5,0.5,0.483281450000823,0.562096709179126,0.483281450000823,0.5,0.483281450000823,0.483281450000823,0.499963241002547,0.516681832009479,0.483318167990521,0.499963241002547,0.483281450000823,0.351893216499888,0.722388647675373,0.500036758997453,0.0167197791134505,0.5,0.0334370999983535,0.959548490802131,11.0891051535638,2.58526681622116,0.5,54.988402797992
CBC_1001,CBC_1001_MSI_AV_v3_Vset4_Aset2_2023-06-08_11h37.59.527.csv,1,33,0,1,z,0,1,1,aud,B,63,1,0B,1B,0,1,z,1.24876840000024,0,1,1,1,1B,0B,B01,2.77258872223978,0.545500520614368,0.5,0.5,0.5,0.5,0.591834756921117,0.5,0.5,0.5,0.483281450000823,0.562096709179126,0.483281450000823,0.5,0.483281450000823,0.483281450000823,0.516683020115997,0.591834756921117,0.408165243078883,0.591834756921117,0.5,1.40935786914623,0.994865511680509,0.408165243078883,0.0136478620486809,0.5,0.0334370999983535,0.959548490802131,11.0891051535638,2.58526681622116,0.5,54.988402797992
CBC_1001,CBC_1001_MSI_AV_v3_Vset4_Aset2_2023-06-08_11h37.59.527.csv,1,34,1,0,z,0,1,0,aud,A,63,1,1A,0A,0,1,z,1.3421986000003,0,1,1,1,0A,1A,A10,2.50552593699074,0.545500520614368,0.5,0.5,0.5,0.5,0.605482618969798,0.5,0.5,0.5,0.483281450000823,0.562096709179126,0.483281450000823,0.5,0.483281450000823,0.483281450000823,0.516683020115997,0.545500520614368,0.454499479385632,0.545500520614368,0.5,0.744855929193691,0.931515543165541,0.454499479385632,0.015197144541417,0.5,0.0334370999983535,0.959548490802131,11.0891051535638,2.58526681622116,0.5,54.988402797992
CBC_1001,CBC_1001_MSI_AV_v3_Vset4_Aset2_2023-06-08_11h37.59.527.csv,1,35,3,2,b,1,0,3,aud,D,63,0,3D,2D,0,1,b,2.72871000000032,1,0,1,0,3D,2D,D32,2.81341071676004,0.560697665155785,0.5,0.5,0.5,0.5,0.605482618969798,0.5,0.5,0.5,0.483281450000823,0.562096709179126,0.483281450000823,0.5,0.483281450000823,0.483281450000823,0.516683020115997,0.533364346727199,0.466635653272801,0.516683020115997,0.483281450000823,0.20410496247381,0.871507296820182,-0.516683020115997,-0.0172763818110699,0.5,0.0334370999983535,0.959548490802131,11.0891051535638,2.58526681622116,0.5,54.988402797992
CBC_1001,CBC_1001_MSI_AV_v3_Vset4_Aset2_2023-06-08_11h37.59.527.csv,1,36,0,2,z,0,1,2,aud,C,27,1,0C,2C,0,1,z,1.89188760000025,0,1,1,1,2C,0C,C02,3.23867845216438,0.560697665155785,0.5,0.5,0.5,0.5,0.605482618969798,0.5,0.5,0.5,0.483281450000823,0.562096709179126,0.483281450000823,0.5,0.483281450000823,0.483281450000823,0.499406638304927,0.562096709179126,0.437903290820874,0.562096709179126,0.5,0.571472261756011,0.972235483260174,0.437903290820874,0.0146422161247857,0.5,0.0334370999983535,0.959548490802131,11.0891051535638,2.58526681622116,0.5,54.988402797992
CBC_1001,CBC_1001_MSI_AV_v3_Vset4_Aset2_2023-06-08_11h37.59.527.csv,1,37,1,0,z,0,1,0,aud,A,63,1,1A,0A,0,1,z,1.17191539999976,0,1,1,1,0A,1A,A10,2.34180580614733,0.560697665155785,0.5,0.5,0.5,0.5,0.605482618969798,0.5,0.5,0.5,0.483281450000823,0.576738925303911,0.483281450000823,0.5,0.483281450000823,0.483281450000823,0.499406638304927,0.560697665155785,0.439302334844215,0.560697665155785,0.5,0.483887450191085,0.970008188243388,0.439302334844215,0.0146889960996962,0.5,0.0334370999983535,0.959548490802131,11.0891051535638,2.58526681622116,0.5,54.988402797992
CBC_1001,CBC_1001_MSI_AV_v3_Vset4_Aset2_2023-06-08_11h37.59.527.csv,1,38,3,1,z,0,1,1,aud,B,27,1,3B,1B,0,1,z,1.44698119999975,0,1,1,1,1B,3B,B31,3.27714473299218,0.575386661255481,0.5,0.5,0.5,0.5,0.605482618969798,0.5,0.5,0.5,0.483281450000823,0.576738925303911,0.483281450000823,0.5,0.483281450000823,0.483281450000823,0.499406638304927,0.605482618969798,0.394517381030202,0.605482618969798,0.5,1.47962230713701,0.997640783247715,0.394517381030202,0.0131915171205954,0.5,0.0334370999983535,0.959548490802131,11.0891051535638,2.58526681622116,0.5,54.988402797992
CBC_1001,CBC_1001_MSI_AV_v3_Vset4_Aset2_2023-06-08_11h37.59.527.csv,1,39,2,3,b,1,0,2,aud,C,63,0,2C,3C,0,1,b,2.96182120000003,1,0,1,0,2C,3C,C23,2.60268968544438,0.575386661255481,0.5,0.5,0.5,0.5,0.618674136090394,0.5,0.5,0.5,0.483281450000823,0.576738925303911,0.483281450000823,0.5,0.483281450000823,0.483281450000823,0.499406638304927,0.592980313885197,0.407019686114803,0.576738925303911,0.483281450000823,0.0219372788944988,0.995161241802116,-0.576738925303911,-0.0192844771183298,0.5,0.0334370999983535,0.959548490802131,11.0891051535638,2.58526681622116,0.5,54.988402797992
CBC_1001,CBC_1001_MSI_AV_v3_Vset4_Aset2_2023-06-08_11h37.59.527.csv,1,40,2,3,z,0,1,3,aud,D,63,1,2D,3D,0,1,b,2.35783190000029,1,0,0,0,2D,3D,D23,2.62103882411258,0.575386661255481,0.5,0.5,0.5,0.5,0.618674136090394,0.5,0.5,0.5,0.483281450000823,0.557454448185582,0.483281450000823,0.5,0.483281450000823,0.483281450000823,0.499406638304927,0.483874171813541,0.516125828186459,0.483281450000823,0.499406638304927,0.0962734062639203,0.283810964439382,-0.483281450000823,-0.0161595301710268,0.5,0.0334370999983535,0.959548490802131,11.0891051535638,2.58526681622116,0.5,54.988402797992
CBC_1001,CBC_1001_MSI_AV_v3_Vset4_Aset2_2023-06-08_11h37.59.527.csv,1,41,1,0,b,1,0,1,aud,B,63,1,1B,0B,1,0,b,1.19339880000007,1,0,1,1,1B,0B,B10,2.63905732961526,0.575386661255481,0.5,0.5,0.5,0.5,0.618674136090394,0.5,0.5,0.5,0.483281450000823,0.557454448185582,0.483281450000823,0.5,0.483281450000823,0.467121919829796,0.499406638304927,0.618674136090394,0.381325863909606,0.618674136090394,0.5,1.70988007243277,0.99888997898859,0.381325863909606,0.0127504310435041,0.5,0.0334370999983535,0.959548490802131,11.0891051535638,2.58526681622116,0.5,54.988402797992
CBC_1001,CBC_1001_MSI_AV_v3_Vset4_Aset2_2023-06-08_11h37.59.527.csv,1,42,0,2,b,1,0,0,aud,A,27,1,0A,2A,1,0,b,1.40796890000001,1,0,1,1,0A,2A,A02,3.3499040872746,0.575386661255481,0.5,0.5,0.5,0.5,0.631424567133898,0.5,0.5,0.5,0.483281450000823,0.557454448185582,0.483281450000823,0.5,0.483281450000823,0.467121919829796,0.499406638304927,0.575386661255481,0.424613338744519,0.575386661255481,0.5,1.23650394184872,0.986915381174252,0.424613338744519,0.0141978386682352,0.5,0.0334370999983535,0.959548490802131,11.0891051535638,2.58526681622116,0.5,54.988402797992
CBC_1001,CBC_1001_MSI_AV_v3_Vset4_Aset2_2023-06-08_11h37.59.527.csv,1,43,0,3,z,0,1,3,aud,D,9,1,0D,3D,0,1,z,2.75495509999973,0,1,1,1,3D,0D,D03,4.06044301054642,0.589584499923716,0.5,0.5,0.5,0.5,0.631424567133898,0.5,0.5,0.5,0.483281450000823,0.557454448185582,0.483281450000823,0.5,0.483281450000823,0.467121919829796,0.499406638304927,0.499406638304927,0.500593361695073,0.499406638304927,0.5,0.122524506745337,0.49068738325179,0.500593361695073,0.0167383902935101,0.5,0.0334370999983535,0.959548490802131,11.0891051535638,2.58526681622116,0.5,54.988402797992
CBC_1001,CBC_1001_MSI_AV_v3_Vset4_Aset2_2023-06-08_11h37.59.527.csv,1,44,2,3,b,1,0,2,aud,C,63,1,2C,3C,1,0,b,2.48296149999987,1,0,1,1,2C,3C,C23,2.46809953147162,0.589584499923716,0.5,0.5,0.5,0.5,0.631424567133898,0.5,0.5,0.5,0.483281450000823,0.557454448185582,0.483281450000823,0.5,0.483281450000823,0.467121919829796,0.516145028598437,0.573889099987891,0.426110900012109,0.557454448185582,0.483281450000823,0.16418841599704,0.985730647904229,0.442545551814418,0.0147974398698453,0.5,0.0334370999983535,0.959548490802131,11.0891051535638,2.58526681622116,0.5,54.988402797992
CBC_1001,CBC_1001_MSI_TV_v3_Vset1_Tset1_2023-06-08_11h53.34.814.csv,2,1,1,0,b,1,0,1,tac,B,63,1,1B,0B,1,0,b,1.47302500000069,1,0,1,1,1B,0B,B10,2.77258872223978,0.5,0.5,0.5,0.5,0.5,0.5,0.5,0.5,0.5,0.5,0.5,0.5,0.5,0.5,0.5,0.5,0.5,0.5,0.5,0.5,0.214542824178568,0.500577319078954,0.5,0.00701630177652984,0.5,0.0140326035530597,1.09664035662487,5.9889582922348,2.676101578314,0.5,75.3519687506078
CBC_1001,CBC_1001_MSI_TV_v3_Vset1_Tset1_2023-06-08_11h53.34.814.csv,2,2,1,0,z,0,1,0,tac,A,63,1,1A,0A,0,1,z,1.61898499999961,0,1,1,1,0A,1A,A10,2.83321334405622,0.5,0.5,0.5,0.5,0.5,0.50701630177653,0.5,0.5,0.5,0.5,0.5,0.5,0.5,0.5,0.5,0.5,0.5,0.5,0.5,0.5,0.254714725757371,0.499883572170363,0.5,0.00701630177652984,0.5,0.0140326035530597,1.09664035662487,5.9889582922348,2.676101578314,0.5,75.3519687506078
CBC_1001,CBC_1001_MSI_TV_v3_Vset1_Tset1_2023-06-08_11h53.34.814.csv,2,3,3,2,b,1,0,3,tac,D,63,1,3D,2D,1,0,z,2.38288740000053,0,1,0,0,2D,3D,D32,2.89037175789616,0.50701630177653,0.5,0.5,0.5,0.5,0.50701630177653,0.5,0.5,0.5,0.5,0.5,0.5,0.5,0.5,0.5,0.5,0.5,0.5,0.5,0.5,0.180313180474437,0.499875504456869,-0.5,-0.00701630177652984,0.5,0.0140326035530597,1.09664035662487,5.9889582922348,2.676101578314,0.5,75.3519687506078
CBC_1001,CBC_1001_MSI_TV_v3_Vset1_Tset1_2023-06-08_11h53.34.814.csv,2,4,1,2,b,1,0,1,tac,B,9,1,1B,2B,NaN,NaN,None,NaN,NaN,NaN,NaN,NaN,,,B12,2.94443897916644,0.50701630177653,0.5,0.5,0.5,0.5,0.50701630177653,0.5,0.5,0.5,0.5,0.5,0.5,0.5,0.5,0.49298369822347,0.5,0,0,0,0,NaN,0,0,0,0.5,0.0140326035530597,1.09664035662487,5.9889582922348,2.676101578314,0.5,75.3519687506078
CBC_1001,CBC_1001_MSI_TV_v3_Vset1_Tset1_2023-06-08_11h53.34.814.csv,2,5,2,0,z,0,1,0,tac,A,27,1,2A,0A,0,1,z,2.56436939999958,0,1,1,1,0A,2A,A20,2.99573227355399,0.50701630177653,0.5,0.5,0.5,0.5,0.50701630177653,0.5,0.5,0.5,0.5,0.5,0.5,0.5,0.5,0.49298369822347,0.5,0.50701630177653,0.49298369822347,0.50701630177653,0.5,0.177783624729358,0.556983826645956,0.49298369822347,0.00691784479529117,0.5,0.0140326035530597,1.09664035662487,5.9889582922348,2.676101578314,0.5,75.3519687506078
CBC_1001,CBC_1001_MSI_TV_v3_Vset1_Tset1_2023-06-08_11h53.34.814.csv,2,6,3,2,z,0,1,2,tac,C,63,1,3C,2C,0,1,b,3.33090360000051,1,0,0,0,3C,2C,C32,3.04452243772342,0.513934146571821,0.5,0.5,0.5,0.5,0.50701630177653,0.5,0.5,0.5,0.5,0.5,0.5,0.5,0.5,0.49298369822347,0.5,0.5,0.5,0.5,0.5,0.09412639205745,0.500228583750961,-0.5,-0.00701630177652984,0.5,0.0140326035530597,1.09664035662487,5.9889582922348,2.676101578314,0.5,75.3519687506078
CBC_1001,CBC_1001_MSI_TV_v3_Vset1_Tset1_2023-06-08_11h53.34.814.csv,2,7,3,1,b,1,0,3,tac,D,27,1,3D,1D,1,0,z,2.33253970000032,0,1,0,0,1D,3D,D31,3.09104245335832,0.513934146571821,0.5,0.5,0.5,0.5,0.50701630177653,0.5,0.5,0.5,0.5,0.5,0.49298369822347,0.5,0.5,0.49298369822347,0.5,0.5,0.5,0.5,0.5,0.186127024076503,0.498797802381779,-0.5,-0.00701630177652984,0.5,0.0140326035530597,1.09664035662487,5.9889582922348,2.676101578314,0.5,75.3519687506078
CBC_1001,CBC_1001_MSI_TV_v3_Vset1_Tset1_2023-06-08_11h53.34.814.csv,2,8,0,1,b,1,0,0,tac,A,63,1,0A,1A,1,0,b,2.34114360000012,1,0,1,1,0A,1A,A01,3.13549421592915,0.513934146571821,0.5,0.5,0.5,0.5,0.50701630177653,0.5,0.5,0.5,0.5,0.5,0.49298369822347,0.5,0.49298369822347,0.49298369822347,0.5,0.513934146571821,0.486065853428179,0.513934146571821,0.5,0.227668424900534,0.60918851714626,0.486065853428179,0.00682076942183725,0.5,0.0140326035530597,1.09664035662487,5.9889582922348,2.676101578314,0.5,75.3519687506078
CBC_1001,CBC_1001_MSI_TV_v3_Vset1_Tset1_2023-06-08_11h53.34.814.csv,2,9,0,2,z,0,1,2,tac,C,27,1,0C,2C,0,1,z,3.4135411000002,0,1,1,1,2C,0C,C02,3.17805383034795,0.520754915993658,0.5,0.5,0.5,0.5,0.50701630177653,0.5,0.5,0.5,0.5,0.5,0.49298369822347,0.5,0.49298369822347,0.49298369822347,0.5,0.5,0.5,0.5,0.5,0.0887426365919042,0.499249372727365,0.5,0.00701630177652984,0.5,0.0140326035530597,1.09664035662487,5.9889582922348,2.676101578314,0.5,75.3519687506078
CBC_1001,CBC_1001_MSI_TV_v3_Vset1_Tset1_2023-06-08_11h53.34.814.csv,2,10,3,2,b,1,0,3,tac,D,63,1,3D,2D,1,0,b,3.37501769999972,1,0,1,1,3D,2D,D32,2.52572864430826,0.520754915993658,0.5,0.5,0.5,0.5,0.50701630177653,0.5,0.5,0.5,0.5,0.50701630177653,0.49298369822347,0.5,0.49298369822347,0.49298369822347,0.5,0.50701630177653,0.49298369822347,0.5,0.49298369822347,0.10130222247727,0.555941731776388,0.5,0.00701630177652984,0.5,0.0140326035530597,1.09664035662487,5.9889582922348,2.676101578314,0.5,75.3519687506078
CBC_1001,CBC_1001_MSI_TV_v3_Vset1_Tset1_2023-06-08_11h53.34.814.csv,2,11,0,1,z,0,1,1,tac,B,63,0,0B,1B,1,0,b,3.06084520000013,1,0,0,1,0B,1B,B01,3.25809653802148,0.520754915993658,0.5,0.5,0.5,0.5,0.50701630177653,0.5,0.5,0.5,0.5,0.50701630177653,0.49298369822347,0.5,0.49298369822347,0.49298369822347,0.50701630177653,0.49298369822347,0.50701630177653,0.5,0.50701630177653,0.100762200810648,0.444857555855807,0.5,0.00701630177652984,0.5,0.0140326035530597,1.09664035662487,5.9889582922348,2.676101578314,0.5,75.3519687506078
CBC_1001,CBC_1001_MSI_TV_v3_Vset1_Tset1_2023-06-08_11h53.34.814.csv,2,12,1,0,z,0,1,0,tac,A,63,1,1A,0A,0,1,b,2.5656597000002,1,0,0,0,1A,0A,A10,2.60268968544438,0.520754915993658,0.5,0.5,0.5,0.50701630177653,0.50701630177653,0.5,0.5,0.5,0.5,0.50701630177653,0.49298369822347,0.5,0.49298369822347,0.49298369822347,0.50701630177653,0.479245084006342,0.520754915993658,0.5,0.520754915993658,0.109102444770335,0.33945990979709,-0.5,-0.00701630177652984,0.5,0.0140326035530597,1.09664035662487,5.9889582922348,2.676101578314,0.5,75.3519687506078
CBC_1001,CBC_1001_MSI_TV_v3_Vset1_Tset1_2023-06-08_11h53.34.814.csv,2,13,3,2,b,1,0,3,tac,D,63,1,3D,2D,1,0,z,2.95413549999967,0,1,0,0,2D,3D,D32,2.23359222150709,0.520754915993658,0.49298369822347,0.5,0.5,0.50701630177653,0.50701630177653,0.5,0.5,0.5,0.5,0.50701630177653,0.49298369822347,0.5,0.49298369822347,0.49298369822347,0.50701630177653,0.485970159118501,0.514029840881499,0.49298369822347,0.50701630177653,0.0947397767370372,0.388855041215794,-0.49298369822347,-0.00691784479529117,0.5,0.0140326035530597,1.09664035662487,5.9889582922348,2.676101578314,0.5,75.3519687506078
CBC_1001,CBC_1001_MSI_TV_v3_Vset1_Tset1_2023-06-08_11h53.34.814.csv,2,14,0,2,z,0,1,2,tac,C,27,1,0C,2C,0,1,b,2.62160820000054,1,0,0,0,0C,2C,C02,2.67414864942653,0.520754915993658,0.49298369822347,0.5,0.5,0.50701630177653,0.50701630177653,0.5,0.5,0.5,0.5,0.50701630177653,0.49298369822347,0.5,0.49298369822347,0.486065853428179,0.50701630177653,0.49298369822347,0.50701630177653,0.5,0.50701630177653,0.135945019141741,0.443023135424565,-0.5,-0.00701630177652984,0.5,0.0140326035530597,1.09664035662487,5.9889582922348,2.676101578314,0.5,75.3519687506078
CBC_1001,CBC_1001_MSI_TV_v3_Vset1_Tset1_2023-06-08_11h53.34.814.csv,2,15,1,0,z,0,1,0,tac,A,63,1,1A,0A,0,1,b,2.59557020000057,1,0,0,0,1A,0A,A10,2.30258509299405,0.520754915993658,0.49298369822347,0.5,0.5,0.50701630177653,0.50701630177653,0.5,0.5,0.49298369822347,0.5,0.50701630177653,0.49298369822347,0.5,0.49298369822347,0.486065853428179,0.50701630177653,0.47224494929749,0.52775505070251,0.49298369822347,0.520754915993658,0.0922782137307789,0.291887943932623,-0.49298369822347,-0.00691784479529117,0.5,0.0140326035530597,1.09664035662487,5.9889582922348,2.676101578314,0.5,75.3519687506078
CBC_1001,CBC_1001_MSI_TV_v3_Vset1_Tset1_2023-06-08_11h53.34.814.csv,2,16,3,1,z,0,1,1,tac,B,27,1,3B,1B,0,1,z,2.52995490000058,0,1,1,1,1B,3B,B31,3.43398720448515,0.520754915993658,0.486065853428179,0.5,0.5,0.50701630177653,0.50701630177653,0.5,0.5,0.49298369822347,0.5,0.50701630177653,0.49298369822347,0.5,0.49298369822347,0.486065853428179,0.50701630177653,0.50701630177653,0.49298369822347,0.50701630177653,0.5,0.18156304310898,0.555566018262179,0.49298369822347,0.00691784479529117,0.5,0.0140326035530597,1.09664035662487,5.9889582922348,2.676101578314,0.5,75.3519687506078
CBC_1001,CBC_1001_MSI_TV_v3_Vset1_Tset1_2023-06-08_11h53.34.814.csv,2,17,2,3,b,1,0,2,tac,C,63,1,2C,3C,1,0,b,2.9325472000005,1,0,1,1,2C,3C,C23,3.46573590279973,0.520754915993658,0.486065853428179,0.5,0.5,0.50701630177653,0.513934146571821,0.5,0.5,0.49298369822347,0.5,0.50701630177653,0.49298369822347,0.5,0.49298369822347,0.486065853428179,0.50701630177653,0.514029840881499,0.485970159118501,0.50701630177653,0.49298369822347,0.150739868301379,0.609368278656572,0.49298369822347,0.00691784479529117,0.5,0.0140326035530597,1.09664035662487,5.9889582922348,2.676101578314,0.5,75.3519687506078
CBC_1001,CBC_1001_MSI_TV_v3_Vset1_Tset1_2023-06-08_11h53.34.814.csv,2,18,3,2,b,1,0,3,tac,D,63,0,3D,2D,NaN,NaN,None,NaN,NaN,NaN,NaN,NaN,,,D32,2.11021320034659,0.520754915993658,0.486065853428179,0.5,0.5,0.50701630177653,0.513934146571821,0.5,0.5,0.49298369822347,0.5,0.513934146571821,0.49298369822347,0.5,0.49298369822347,0.486065853428179,0.50701630177653,0,0,0,0,NaN,0,0,0,0.5,0.0140326035530597,1.09664035662487,5.9889582922348,2.676101578314,0.5,75.3519687506078
CBC_1001,CBC_1001_MSI_TV_v3_Vset1_Tset1_2023-06-08_11h53.34.814.csv,2,19,0,1,z,0,1,1,tac,B,63,1,0B,1B,0,1,z,2.36990699999978,0,1,1,1,1B,0B,B01,2.83321334405622,0.520754915993658,0.486065853428179,0.5,0.5,0.50701630177653,0.513934146571821,0.5,0.5,0.49298369822347,0.5,0.513934146571821,0.49298369822347,0.5,0.49298369822347,0.486065853428179,0.50701630177653,0.506920551178627,0.493079448821373,0.513934146571821,0.50701630177653,0.202601676457448,0.555766745751459,0.486065853428179,0.00682076942183725,0.5,0.0140326035530597,1.09664035662487,5.9889582922348,2.676101578314,0.5,75.3519687506078
CBC_1001,CBC_1001_MSI_TV_v3_Vset1_Tset1_2023-06-08_11h53.34.814.csv,2,20,0,2,b,1,0,0,tac,A,27,1,0A,2A,1,0,b,2.4699942000002,1,0,1,1,0A,2A,A02,3.55534806148941,0.520754915993658,0.486065853428179,0.5,0.5,0.50701630177653,0.520754915993658,0.5,0.5,0.49298369822347,0.5,0.513934146571821,0.49298369822347,0.5,0.49298369822347,0.486065853428179,0.50701630177653,0.520754915993658,0.479245084006342,0.520754915993658,0.5,0.227061559464944,0.659929580760526,0.479245084006342,0.00672505626861378,0.5,0.0140326035530597,1.09664035662487,5.9889582922348,2.676101578314,0.5,75.3519687506078
CBC_1001,CBC_1001_MSI_TV_v3_Vset1_Tset1_2023-06-08_11h53.34.814.csv,2,21,3,0,b,1,0,3,tac,D,9,1,3D,0D,1,0,b,3.05295680000063,1,0,1,1,3D,0D,D30,3.58351893845611,0.527479972262272,0.486065853428179,0.5,0.5,0.50701630177653,0.520754915993658,0.5,0.5,0.49298369822347,0.5,0.513934146571821,0.49298369822347,0.5,0.49298369822347,0.486065853428179,0.50701630177653,0.50701630177653,0.49298369822347,0.50701630177653,0.5,0.126809990049963,0.556828796456907,0.49298369822347,0.00691784479529117,0.5,0.0140326035530597,1.09664035662487,5.9889582922348,2.676101578314,0.5,75.3519687506078
CBC_1001,CBC_1001_MSI_TV_v3_Vset1_Tset1_2023-06-08_11h53.34.814.csv,2,22,3,2,z,0,1,2,tac,C,63,1,3C,2C,0,1,z,2.24072060000026,0,1,1,1,2C,3C,C32,2.91777073208428,0.527479972262272,0.486065853428179,0.5,0.5,0.50701630177653,0.520754915993658,0.5,0.5,0.49298369822347,0.5,0.513934146571821,0.49298369822347,0.5,0.49298369822347,0.486065853428179,0.513934146571821,0.520942258570089,0.479057741429911,0.513934146571821,0.49298369822347,0.267600707460791,0.6617480530162,0.486065853428179,0.00682076942183725,0.5,0.0140326035530597,1.09664035662487,5.9889582922348,2.676101578314,0.5,75.3519687506078
CBC_1001,CBC_1001_MSI_TV_v3_Vset1_Tset1_2023-06-08_11h53.34.814.csv,2,23,1,3,b,1,0,1,tac,B,27,1,1B,3B,1,0,b,2.47497290000001,1,0,1,1,1B,3B,B13,3.63758615972639,0.527479972262272,0.486065853428179,0.5,0.5,0.50701630177653,0.520754915993658,0.5,0.5,0.49298369822347,0.5,0.520754915993658,0.49298369822347,0.5,0.49298369822347,0.486065853428179,0.513934146571821,0.520754915993658,0.479245084006342,0.520754915993658,0.5,0.227031868582691,0.661986899379396,0.479245084006342,0.00672505626861378,0.5,0.0140326035530597,1.09664035662487,5.9889582922348,2.676101578314,0.5,75.3519687506078
CBC_1001,CBC_1001_MSI_TV_v3_Vset1_Tset1_2023-06-08_11h53.34.814.csv,2,24,2,3,b,1,0,2,tac,C,63,1,2C,3C,1,0,z,2.54615030000014,0,1,0,0,3C,2C,C23,2.9704144655697,0.527479972262272,0.486065853428179,0.5,0.5,0.50701630177653,0.527479972262272,0.5,0.5,0.49298369822347,0.5,0.520754915993658,0.49298369822347,0.5,0.49298369822347,0.486065853428179,0.513934146571821,0.47224494929749,0.52775505070251,0.49298369822347,0.520754915993658,0.0954069076248945,0.290922574794711,-0.49298369822347,-0.00691784479529117,0.5,0.0140326035530597,1.09664035662487,5.9889582922348,2.676101578314,0.5,75.3519687506078
CBC_1001,CBC_1001_MSI_TV_v3_Vset1_Tset1_2023-06-08_11h53.34.814.csv,2,25,3,2,b,1,0,3,tac,D,63,1,3D,2D,1,0,b,2.97116570000026,1,0,1,1,3D,2D,D32,2.07944154167984,0.527479972262272,0.486065853428179,0.5,0.5,0.50701630177653,0.527479972262272,0.5,0.5,0.49298369822347,0.5,0.520754915993658,0.486065853428179,0.5,0.49298369822347,0.486065853428179,0.513934146571821,0.527846666259672,0.472153333740328,0.513934146571821,0.486065853428179,0.169730500988655,0.709582670071517,0.486065853428179,0.00682076942183725,0.5,0.0140326035530597,1.09664035662487,5.9889582922348,2.676101578314,0.5,75.3519687506078
CBC_1001,CBC_1001_MSI_TV_v3_Vset1_Tset1_2023-06-08_11h53.34.814.csv,2,26,0,1,z,0,1,1,tac,B,63,1,0B,1B,0,1,b,2.71671500000002,1,0,0,0,0B,1B,B01,2.6149597780362,0.527479972262272,0.486065853428179,0.5,0.5,0.50701630177653,0.527479972262272,0.5,0.5,0.49298369822347,0.5,0.520754915993658,0.486065853428179,0.5,0.49298369822347,0.486065853428179,0.520754915993658,0.479520535113764,0.520479464886236,0.50701630177653,0.527479972262272,0.0985418890889549,0.341686861042331,-0.50701630177653,-0.00711475875776852,0.5,0.0140326035530597,1.09664035662487,5.9889582922348,2.676101578314,0.5,75.3519687506078
CBC_1001,CBC_1001_MSI_TV_v3_Vset1_Tset1_2023-06-08_11h53.34.814.csv,2,27,3,0,z,0,1,0,tac,A,9,1,3A,0A,0,1,b,1.99343550000003,1,0,0,0,3A,0A,A30,3.73766961828337,0.527479972262272,0.486065853428179,0.5,0.5,0.499901543018761,0.527479972262272,0.5,0.5,0.49298369822347,0.5,0.520754915993658,0.486065853428179,0.5,0.49298369822347,0.486065853428179,0.520754915993658,0.472520027737728,0.527479972262272,0.5,0.527479972262272,0.142125947747396,0.293520789148027,-0.5,-0.00701630177652984,0.5,0.0140326035530597,1.09664035662487,5.9889582922348,2.676101578314,0.5,75.3519687506078
CBC_1001,CBC_1001_MSI_TV_v3_Vset1_Tset1_2023-06-08_11h53.34.814.csv,2,28,3,2,b,1,0,3,tac,D,63,1,3D,2D,1,0,z,2.72957930000075,0,1,0,0,2D,3D,D32,1.96944064646551,0.527479972262272,0.486065853428179,0.5,0.49298369822347,0.499901543018761,0.527479972262272,0.5,0.5,0.49298369822347,0.5,0.520754915993658,0.486065853428179,0.5,0.49298369822347,0.486065853428179,0.520754915993658,0.46535101965793,0.53464898034207,0.486065853428179,0.520754915993658,0.0708658258846606,0.247395209482737,-0.486065853428179,-0.00682076942183725,0.5,0.0140326035530597,1.09664035662487,5.9889582922348,2.676101578314,0.5,75.3519687506078
CBC_1001,CBC_1001_MSI_TV_v3_Vset1_Tset1_2023-06-08_11h53.34.814.csv,2,29,0,2,z,0,1,2,tac,C,27,1,0C,2C,0,1,b,4.16821710000067,1,0,0,0,0C,2C,C02,2.68557734525015,0.527479972262272,0.486065853428179,0.5,0.49298369822347,0.499901543018761,0.527479972262272,0.5,0.5,0.49298369822347,0.5,0.520754915993658,0.486065853428179,0.5,0.49298369822347,0.479245084006342,0.520754915993658,0.47224494929749,0.52775505070251,0.49298369822347,0.520754915993658,0.0284852412843587,0.290414945418437,-0.49298369822347,-0.00691784479529117,0.5,0.0140326035530597,1.09664035662487,5.9889582922348,2.676101578314,0.5,75.3519687506078
CBC_1001,CBC_1001_MSI_TV_v3_Vset1_Tset1_2023-06-08_11h53.34.814.csv,2,30,0,1,b,1,0,0,tac,A,63,0,0A,1A,0,1,b,3.2208958999995,1,0,1,0,0A,1A,A01,3.11351530921037,0.527479972262272,0.486065853428179,0.5,0.49298369822347,0.499901543018761,0.527479972262272,0.5,0.5,0.486065853428179,0.5,0.520754915993658,0.486065853428179,0.5,0.49298369822347,0.479245084006342,0.520754915993658,0.541350784325192,0.458649215674808,0.527479972262272,0.486065853428179,0.151731966410822,0.790042706258299,-0.527479972262272,-0.00740191733293538,0.5,0.0140326035530597,1.09664035662487,5.9889582922348,2.676101578314,0.5,75.3519687506078
CBC_1001,CBC_1001_MSI_TV_v3_Vset1_Tset1_2023-06-08_11h53.34.814.csv,2,31,0,1,z,0,1,1,tac,B,63,1,0B,1B,0,1,z,2.92884339999955,0,1,1,1,1B,0B,B01,2.4423470353692,0.520078054929337,0.486065853428179,0.5,0.49298369822347,0.499901543018761,0.527479972262272,0.5,0.5,0.486065853428179,0.5,0.520754915993658,0.486065853428179,0.5,0.49298369822347,0.479245084006342,0.520754915993658,0.527578130782487,0.472421869217513,0.527479972262272,0.499901543018761,0.174749924872192,0.707801372509291,0.472520027737728,0.0066306862201243,0.5,0.0140326035530597,1.09664035662487,5.9889582922348,2.676101578314,0.5,75.3519687506078
CBC_1001,CBC_1001_MSI_TV_v3_Vset1_Tset1_2023-06-08_11h53.34.814.csv,2,32,1,3,z,0,1,3,tac,D,27,1,1D,3D,0,1,b,2.2916708000007,1,0,0,0,1D,3D,D13,3.85014760171006,0.520078054929337,0.486065853428179,0.5,0.49298369822347,0.499901543018761,0.534110658482396,0.5,0.5,0.486065853428179,0.5,0.520754915993658,0.486065853428179,0.5,0.49298369822347,0.479245084006342,0.520754915993658,0.47224494929749,0.52775505070251,0.49298369822347,0.520754915993658,0.115229105440908,0.291698991958858,-0.49298369822347,-0.00691784479529117,0.5,0.0140326035530597,1.09664035662487,5.9889582922348,2.676101578314,0.5,75.3519687506078
CBC_1001,CBC_1001_MSI_TV_v3_Vset1_Tset1_2023-06-08_11h53.34.814.csv,2,33,2,3,b,1,0,2,tac,C,63,1,2C,3C,1,0,b,3.4357827000008,1,0,1,1,2C,3C,C23,2.77258872223978,0.520078054929337,0.486065853428179,0.5,0.49298369822347,0.499901543018761,0.534110658482396,0.5,0.5,0.486065853428179,0.5,0.520754915993658,0.486065853428179,0.5,0.486065853428179,0.479245084006342,0.520754915993658,0.53464898034207,0.46535101965793,0.520754915993658,0.486065853428179,0.124703731187704,0.75245648806425,0.479245084006342,0.00672505626861378,0.5,0.0140326035530597,1.09664035662487,5.9889582922348,2.676101578314,0.5,75.3519687506078
CBC_1001,CBC_1001_MSI_TV_v3_Vset1_Tset1_2023-06-08_11h53.34.814.csv,2,34,0,1,z,0,1,1,tac,B,63,1,0B,1B,0,1,z,2.29848319999974,0,1,1,1,1B,0B,B01,2.28238238567653,0.520078054929337,0.486065853428179,0.5,0.49298369822347,0.499901543018761,0.534110658482396,0.5,0.5,0.486065853428179,0.5,0.527479972262272,0.486065853428179,0.5,0.486065853428179,0.479245084006342,0.520754915993658,0.534208655913793,0.465791344086207,0.534110658482396,0.499901543018761,0.298548740704227,0.749573695575623,0.465889341517604,0.00653764042911256,0.5,0.0140326035530597,1.09664035662487,5.9889582922348,2.676101578314,0.5,75.3519687506078
CBC_1001,CBC_1001_MSI_TV_v3_Vset1_Tset1_2023-06-08_11h53.34.814.csv,2,35,1,0,z,0,1,0,tac,A,63,1,1A,0A,0,1,z,1.66613030000053,0,1,1,1,0A,1A,A10,2.52572864430826,0.520078054929337,0.486065853428179,0.5,0.49298369822347,0.499901543018761,0.540648298911509,0.5,0.5,0.486065853428179,0.5,0.527479972262272,0.486065853428179,0.5,0.486065853428179,0.479245084006342,0.520754915993658,0.533974181597877,0.466025818402123,0.520078054929337,0.486065853428179,0.423182051346235,0.747203164696424,0.479921945070663,0.00673455439158991,0.5,0.0140326035530597,1.09664035662487,5.9889582922348,2.676101578314,0.5,75.3519687506078
CBC_1001,CBC_1001_MSI_TV_v3_Vset1_Tset1_2023-06-08_11h53.34.814.csv,2,36,2,1,b,1,0,2,tac,C,9,1,2C,1C,1,0,b,2.28756480000038,1,0,1,1,2C,1C,C21,3.93182563272433,0.526812609320927,0.486065853428179,0.5,0.49298369822347,0.499901543018761,0.540648298911509,0.5,0.5,0.486065853428179,0.5,0.527479972262272,0.486065853428179,0.5,0.486065853428179,0.479245084006342,0.520754915993658,0.527479972262272,0.472520027737728,0.527479972262272,0.5,0.280352709223658,0.707726257394849,0.472520027737728,0.0066306862201243,0.5,0.0140326035530597,1.09664035662487,5.9889582922348,2.676101578314,0.5,75.3519687506078
CBC_1001,CBC_1001_MSI_TV_v3_Vset1_Tset1_2023-06-08_11h53.34.814.csv,2,37,0,1,b,1,0,0,tac,A,63,1,0A,1A,1,0,b,2.02986720000035,1,0,1,1,0A,1A,A01,2.85263142991332,0.526812609320927,0.486065853428179,0.5,0.49298369822347,0.499901543018761,0.540648298911509,0.5,0.5,0.486065853428179,0.5,0.534110658482396,0.486065853428179,0.5,0.486065853428179,0.479245084006342,0.520754915993658,0.54068595304229,0.45931404695771,0.526812609320927,0.486065853428179,0.389431685525998,0.786724046547252,0.473187390679073,0.00664005105970621,0.5,0.0140326035530597,1.09664035662487,5.9889582922348,2.676101578314,0.5,75.3519687506078
CBC_1001,CBC_1001_MSI_TV_v3_Vset1_Tset1_2023-06-08_11h53.34.814.csv,2,38,1,3,z,0,1,3,tac,D,27,1,1D,3D,0,1,b,1.94946610000034,1,0,0,0,1D,3D,D13,3.27714473299218,0.533452660380633,0.486065853428179,0.5,0.49298369822347,0.499901543018761,0.540648298911509,0.5,0.5,0.486065853428179,0.5,0.534110658482396,0.486065853428179,0.5,0.486065853428179,0.479245084006342,0.520754915993658,0.46535101965793,0.53464898034207,0.486065853428179,0.520754915993658,0.126204306458087,0.247218487010269,-0.486065853428179,-0.00682076942183725,0.5,0.0140326035530597,1.09664035662487,5.9889582922348,2.676101578314,0.5,75.3519687506078
CBC_1001,CBC_1001_MSI_TV_v3_Vset1_Tset1_2023-06-08_11h53.34.814.csv,2,39,1,0,b,1,0,1,tac,B,63,1,1B,0B,1,0,b,3.06466469999987,1,0,1,1,1B,0B,B10,3.29583686600433,0.533452660380633,0.486065853428179,0.5,0.49298369822347,0.499901543018761,0.540648298911509,0.5,0.5,0.486065853428179,0.5,0.534110658482396,0.486065853428179,0.5,0.479245084006342,0.479245084006342,0.520754915993658,0.540746103611388,0.459253896388612,0.540648298911509,0.499901543018761,0.171833482703055,0.787188878737774,0.459351701088491,0.00644590031279837,0.5,0.0140326035530597,1.09664035662487,5.9889582922348,2.676101578314,0.5,75.3519687506078
CBC_1001,CBC_1001_MSI_TV_v3_Vset1_Tset1_2023-06-08_11h53.34.814.csv,2,40,3,2,z,0,1,2,tac,C,63,0,3C,2C,1,0,z,1.99799059999941,0,1,1,0,2C,3C,C32,2.90872089656436,0.533452660380633,0.486065853428179,0.5,0.49298369822347,0.499901543018761,0.547094199224307,0.5,0.5,0.486065853428179,0.5,0.534110658482396,0.486065853428179,0.5,0.479245084006342,0.479245084006342,0.520754915993658,0.547953635044141,0.452046364955859,0.534110658482396,0.486065853428179,0.428644952411312,0.822647659497696,-0.534110658482396,-0.00749496312394712,0.5,0.0140326035530597,1.09664035662487,5.9889582922348,2.676101578314,0.5,75.3519687506078
CBC_1001,CBC_1001_MSI_TV_v3_Vset1_Tset1_2023-06-08_11h53.34.814.csv,2,41,0,2,b,1,0,0,tac,A,27,1,0A,2A,1,0,b,1.6262128000003,1,0,1,1,0A,2A,A02,3.3322045101752,0.533452660380633,0.486065853428179,0.5,0.49298369822347,0.499901543018761,0.547094199224307,0.5,0.5,0.486065853428179,0.5,0.526615695358449,0.486065853428179,0.5,0.479245084006342,0.479245084006342,0.520754915993658,0.533452660380633,0.466547339619367,0.533452660380633,0.5,0.419142483505146,0.745675216478789,0.466547339619367,0.00654687385561328,0.5,0.0140326035530597,1.09664035662487,5.9889582922348,2.676101578314,0.5,75.3519687506078
CBC_1001,CBC_1001_MSI_TV_v3_Vset1_Tset1_2023-06-08_11h53.34.814.csv,2,42,2,3,z,0,1,3,tac,D,63,1,2D,3D,0,1,z,2.74069949999966,0,1,1,1,3D,2D,D23,4.04305126783455,0.539999534236246,0.486065853428179,0.5,0.49298369822347,0.499901543018761,0.547094199224307,0.5,0.5,0.486065853428179,0.5,0.526615695358449,0.486065853428179,0.5,0.479245084006342,0.479245084006342,0.520754915993658,0.541438430829778,0.458561569170222,0.520754915993658,0.479245084006342,0.224307437837298,0.791282121626161,0.479245084006342,0.00672505626861378,0.5,0.0140326035530597,1.09664035662487,5.9889582922348,2.676101578314,0.5,75.3519687506078
CBC_1001,CBC_1001_MSI_TV_v3_Vset1_Tset1_2023-06-08_11h53.34.814.csv,2,43,1,3,b,1,0,1,tac,B,27,1,1B,3B,1,0,b,2.36596080000027,1,0,1,1,1B,3B,B13,3.36729582998647,0.539999534236246,0.486065853428179,0.5,0.49298369822347,0.499901543018761,0.547094199224307,0.5,0.5,0.486065853428179,0.5,0.526615695358449,0.486065853428179,0.5,0.479245084006342,0.479245084006342,0.527479972262272,0.547094199224307,0.452905800775693,0.547094199224307,0.5,0.317298842040138,0.819409284517441,0.452905800775693,0.00635544754916633,0.5,0.0140326035530597,1.09664035662487,5.9889582922348,2.676101578314,0.5,75.3519687506078
CBC_1001,CBC_1001_MSI_TV_v3_Vset1_Tset1_2023-06-08_11h53.34.814.csv,2,44,3,2,z,0,1,2,tac,C,63,1,3C,2C,0,1,z,2.1833700000002,0,1,1,1,2C,3C,C32,2.69124308278583,0.539999534236246,0.486065853428179,0.5,0.49298369822347,0.499901543018761,0.553449646773474,0.5,0.5,0.486065853428179,0.5,0.526615695358449,0.486065853428179,0.5,0.479245084006342,0.479245084006342,0.527479972262272,0.540489776642256,0.459510223357744,0.526615695358449,0.486065853428179,0.34712737872262,0.786125692721518,0.473384304641551,0.00664281427527571,0.5,0.0140326035530597,1.09664035662487,5.9889582922348,2.676101578314,0.5,75.3519687506078
CBC_1001,CBC_1001_MSI_AV_v3_Vset6_Aset1_2023-06-08_12h45.15.645.csv,3,1,1,0,z,0,1,0,aud,A,63,1,1A,0A,0,1,b,2.09499780000078,1,0,0,0,1A,0A,A10,2.77258872223978,0.5,0.5,0.5,0.5,0.5,0.5,0.5,0.5,0.5,0.5,0.5,0.5,0.5,0.5,0.5,0.5,0.5,0.5,0.5,0.5,0.197945236059634,0.500107828045917,-0.5,-0.0940917687978235,0.5,0.188183537595647,1.09694577732024,2.07953453554537,2.9555233047407,0.5,56.0658667927535
CBC_1001,CBC_1001_MSI_AV_v3_Vset6_Aset1_2023-06-08_12h45.15.645.csv,3,2,3,2,b,1,0,3,aud,D,63,1,3D,2D,1,0,b,2.02259850000064,1,0,1,1,3D,2D,D32,2.83321334405622,0.5,0.405908231202177,0.5,0.5,0.5,0.5,0.5,0.5,0.5,0.5,0.5,0.5,0.5,0.5,0.5,0.5,0.5,0.5,0.5,0.5,0.203114466331383,0.499184492869919,0.5,0.0940917687978235,0.5,0.188183537595647,1.09694577732024,2.07953453554537,2.9555233047407,0.5,56.0658667927535
CBC_1001,CBC_1001_MSI_AV_v3_Vset6_Aset1_2023-06-08_12h45.15.645.csv,3,3,2,0,b,1,0,2,aud,C,27,1,2C,0C,1,0,b,2.43564229999993,1,0,1,1,2C,0C,C20,2.89037175789616,0.5,0.405908231202177,0.5,0.5,0.5,0.5,0.5,0.5,0.5,0.5,0.5,0.5,0.5,0.5,0.5,0.594091768797824,0.5,0.5,0.5,0.5,0.167703940625823,0.500222135963047,0.5,0.0940917687978235,0.5,0.188183537595647,1.09694577732024,2.07953453554537,2.9555233047407,0.5,56.0658667927535
CBC_1001,CBC_1001_MSI_AV_v3_Vset6_Aset1_2023-06-08_12h45.15.645.csv,3,4,1,0,z,0,1,0,aud,A,63,1,1A,0A,0,1,z,2.69116349999967,0,1,1,1,0A,1A,A10,2.2512917986065,0.5,0.405908231202177,0.5,0.5,0.5,0.5,0.5,0.5,0.5,0.5,0.594091768797824,0.5,0.5,0.5,0.5,0.594091768797824,0.594091768797824,0.405908231202177,0.5,0.405908231202177,0.230270518356668,0.761192199375507,0.5,0.0940917687978235,0.5,0.188183537595647,1.09694577732024,2.07953453554537,2.9555233047407,0.5,56.0658667927535
CBC_1001,CBC_1001_MSI_AV_v3_Vset6_Aset1_2023-06-08_12h45.15.645.csv,3,5,3,1,z,0,1,1,aud,B,27,1,3B,1B,0,1,z,2.31908350000049,0,1,1,1,1B,3B,B31,2.99573227355399,0.594091768797824,0.405908231202177,0.5,0.5,0.5,0.5,0.5,0.5,0.5,0.5,0.594091768797824,0.5,0.5,0.5,0.5,0.594091768797824,0.5,0.5,0.5,0.5,0.178543273853445,0.501089485184473,0.5,0.0940917687978235,0.5,0.188183537595647,1.09694577732024,2.07953453554537,2.9555233047407,0.5,56.0658667927535
CBC_1001,CBC_1001_MSI_AV_v3_Vset6_Aset1_2023-06-08_12h45.15.645.csv,3,6,2,3,b,1,0,2,aud,C,63,1,2C,3C,1,0,b,1.85020870000062,1,0,1,1,2C,3C,C23,3.04452243772342,0.594091768797824,0.405908231202177,0.5,0.5,0.5,0.594091768797824,0.5,0.5,0.5,0.5,0.594091768797824,0.5,0.5,0.5,0.5,0.594091768797824,0.594091768797824,0.405908231202176,0.594091768797824,0.5,0.356061137101535,0.76057725051024,0.405908231202176,0.0763852468868173,0.5,0.188183537595647,1.09694577732024,2.07953453554537,2.9555233047407,0.5,56.0658667927535
CBC_1001,CBC_1001_MSI_AV_v3_Vset6_Aset1_2023-06-08_12h45.15.645.csv,3,7,2,3,z,0,1,3,aud,D,63,0,2D,3D,1,0,z,2.00592620000043,0,1,1,0,3D,2D,D23,3.09104245335832,0.594091768797824,0.405908231202177,0.5,0.5,0.5,0.594091768797824,0.5,0.5,0.5,0.5,0.670477015684641,0.5,0.5,0.5,0.5,0.594091768797824,0.594091768797824,0.405908231202176,0.594091768797824,0.5,0.34089124230898,0.761576248775683,-0.594091768797824,-0.11179829070883,0.5,0.188183537595647,1.09694577732024,2.07953453554537,2.9555233047407,0.5,56.0658667927535
CBC_1001,CBC_1001_MSI_AV_v3_Vset6_Aset1_2023-06-08_12h45.15.645.csv,3,8,1,0,b,1,0,1,aud,B,63,1,1B,0B,1,0,z,2.63332570000057,0,1,0,0,0B,1B,B10,3.13549421592915,0.594091768797824,0.405908231202177,0.5,0.5,0.5,0.594091768797824,0.5,0.5,0.5,0.5,0.670477015684641,0.5,0.5,0.5,0.5,0.482293478088994,0.405908231202176,0.594091768797824,0.5,0.594091768797824,0.0751655727964252,0.239638018886455,-0.5,-0.0940917687978235,0.5,0.188183537595647,1.09694577732024,2.07953453554537,2.9555233047407,0.5,56.0658667927535
CBC_1001,CBC_1001_MSI_AV_v3_Vset6_Aset1_2023-06-08_12h45.15.645.csv,3,9,0,2,b,1,0,0,aud,A,27,1,0A,2A,1,0,b,2.19143900000017,1,0,1,1,0A,2A,A02,3.17805383034795,0.594091768797824,0.405908231202177,0.5,0.5,0.405908231202177,0.594091768797824,0.5,0.5,0.5,0.5,0.670477015684641,0.5,0.5,0.5,0.5,0.482293478088994,0.594091768797824,0.405908231202176,0.594091768797824,0.5,0.310938481013244,0.760633153758098,0.405908231202176,0.0763852468868173,0.5,0.188183537595647,1.09694577732024,2.07953453554537,2.9555233047407,0.5,56.0658667927535
CBC_1001,CBC_1001_MSI_AV_v3_Vset6_Aset1_2023-06-08_12h45.15.645.csv,3,10,0,3,z,0,1,3,aud,D,9,1,0D,3D,0,1,z,2.55734659999962,0,1,1,1,3D,0D,D03,3.2188758248682,0.670477015684641,0.405908231202177,0.5,0.5,0.405908231202177,0.594091768797824,0.5,0.5,0.5,0.5,0.670477015684641,0.5,0.5,0.5,0.5,0.482293478088994,0.482293478088994,0.517706521911006,0.482293478088994,0.5,0.140551433057777,0.446884363069538,0.517706521911006,0.0974238447295515,0.5,0.188183537595647,1.09694577732024,2.07953453554537,2.9555233047407,0.5,56.0658667927535
CBC_1001,CBC_1001_MSI_AV_v3_Vset6_Aset1_2023-06-08_12h45.15.645.csv,3,11,3,2,z,0,1,2,aud,C,63,0,3C,2C,1,0,z,2.05659800000103,0,1,1,0,2C,3C,C32,3.25809653802148,0.670477015684641,0.405908231202177,0.5,0.5,0.405908231202177,0.594091768797824,0.5,0.5,0.5,0.5,0.670477015684641,0.5,0.5,0.5,0.5,0.579717322818545,0.670477015684641,0.329522984315359,0.670477015684641,0.5,0.450884914164013,0.891071430409515,-0.670477015684641,-0.126172736688108,0.5,0.188183537595647,1.09694577732024,2.07953453554537,2.9555233047407,0.5,56.0658667927535
CBC_1001,CBC_1001_MSI_AV_v3_Vset6_Aset1_2023-06-08_12h45.15.645.csv,3,12,1,0,b,1,0,1,aud,B,63,1,1B,0B,1,0,b,2.75951770000029,1,0,1,1,1B,0B,B10,2.60268968544438,0.670477015684641,0.405908231202177,0.5,0.5,0.405908231202177,0.594091768797824,0.5,0.5,0.5,0.5,0.544304278996533,0.5,0.5,0.5,0.5,0.579717322818545,0.681747312068821,0.318252687931179,0.594091768797824,0.405908231202177,0.266765523062606,0.903348518724458,0.405908231202176,0.0763852468868173,0.5,0.188183537595647,1.09694577732024,2.07953453554537,2.9555233047407,0.5,56.0658667927535
CBC_1001,CBC_1001_MSI_AV_v3_Vset6_Aset1_2023-06-08_12h45.15.645.csv,3,13,3,2,b,1,0,3,aud,D,63,0,3D,2D,0,1,b,2.47841750000043,1,0,1,0,3D,2D,D32,2.63905732961526,0.670477015684641,0.405908231202177,0.5,0.5,0.405908231202177,0.670477015684641,0.5,0.5,0.5,0.5,0.544304278996533,0.5,0.5,0.5,0.5,0.579717322818545,0.579717322818545,0.420282677181455,0.579717322818545,0.5,0.247880769430492,0.727137218790601,-0.579717322818545,-0.109093256613472,0.5,0.188183537595647,1.09694577732024,2.07953453554537,2.9555233047407,0.5,56.0658667927535
CBC_1001,CBC_1001_MSI_AV_v3_Vset6_Aset1_2023-06-08_12h45.15.645.csv,3,14,3,2,z,0,1,2,aud,C,63,1,3C,2C,0,1,z,2.77059000000008,0,1,1,1,2C,3C,C32,2.67414864942653,0.670477015684641,0.405908231202177,0.5,0.5,0.405908231202177,0.670477015684641,0.5,0.5,0.5,0.5,0.544304278996533,0.5,0.5,0.5,0.5,0.470624066205074,0.544304278996533,0.455695721003467,0.544304278996533,0.5,0.177772232228363,0.632028197902943,0.455695721003467,0.0857544328456314,0.5,0.188183537595647,1.09694577732024,2.07953453554537,2.9555233047407,0.5,56.0658667927535
CBC_1001,CBC_1001_MSI_AV_v3_Vset6_Aset1_2023-06-08_12h45.15.645.csv,3,15,1,3,b,1,0,1,aud,B,27,1,1B,3B,NaN,NaN,[],NaN,NaN,NaN,NaN,NaN,,,B13,3.40119738166216,0.670477015684641,0.405908231202177,0.5,0.5,0.405908231202177,0.670477015684641,0.5,0.5,0.5,0.5,0.630058711842164,0.5,0.5,0.5,0.5,0.470624066205074,0,0,0,0,NaN,0,0,0,0.5,0.188183537595647,1.09694577732024,2.07953453554537,2.9555233047407,0.5,56.0658667927535
CBC_1001,CBC_1001_MSI_AV_v3_Vset6_Aset1_2023-06-08_12h45.15.645.csv,3,16,3,0,z,0,1,0,aud,A,9,1,3A,0A,0,1,z,1.59555200000068,0,1,1,1,0A,3A,A30,3.43398720448515,0.670477015684641,0.405908231202177,0.5,0.5,0.405908231202177,0.670477015684641,0.5,0.5,0.5,0.5,0.630058711842164,0.5,0.5,0.5,0.5,0.470624066205074,0.670477015684641,0.329522984315359,0.670477015684641,0.5,0.47196407642894,0.890748786772129,0.329522984315359,0.0620108009075392,0.5,0.188183537595647,1.09694577732024,2.07953453554537,2.9555233047407,0.5,56.0658667927535
CBC_1001,CBC_1001_MSI_AV_v3_Vset6_Aset1_2023-06-08_12h45.15.645.csv,3,17,3,2,b,1,0,3,aud,D,63,1,3D,2D,1,0,z,2.95673360000001,0,1,0,0,2D,3D,D32,2.36712361413162,0.73248781659218,0.405908231202177,0.5,0.5,0.405908231202177,0.670477015684641,0.5,0.5,0.5,0.5,0.630058711842164,0.5,0.5,0.5,0.5,0.470624066205074,0.529375933794926,0.470624066205074,0.5,0.470624066205074,0.148816211270205,0.590592406929676,-0.5,-0.0940917687978235,0.5,0.188183537595647,1.09694577732024,2.07953453554537,2.9555233047407,0.5,56.0658667927535
CBC_1001,CBC_1001_MSI_AV_v3_Vset6_Aset1_2023-06-08_12h45.15.645.csv,3,18,2,0,b,1,0,2,aud,C,27,1,2C,0C,1,0,b,1.85350890000063,1,0,1,1,2C,0C,C20,2.80336038090653,0.73248781659218,0.405908231202177,0.5,0.5,0.405908231202177,0.670477015684641,0.5,0.5,0.5,0.5,0.630058711842164,0.5,0.5,0.5,0.405908231202177,0.470624066205074,0.630058711842164,0.369941288157836,0.630058711842164,0.5,0.422139175644261,0.83265635799013,0.369941288157836,0.0696168603082321,0.5,0.188183537595647,1.09694577732024,2.07953453554537,2.9555233047407,0.5,56.0658667927535
CBC_1001,CBC_1001_MSI_AV_v3_Vset6_Aset1_2023-06-08_12h45.15.645.csv,3,19,1,0,z,0,1,0,aud,A,63,1,1A,0A,0,1,b,2.22779300000002,1,0,0,0,1A,0A,A10,2.42774823594805,0.73248781659218,0.405908231202177,0.5,0.5,0.405908231202177,0.670477015684641,0.5,0.5,0.5,0.5,0.699675572150397,0.5,0.5,0.5,0.405908231202177,0.470624066205074,0.199697142716831,0.800302857283169,0.405908231202177,0.73248781659218,0.0122159225087032,0.0243901505364982,-0.405908231202177,-0.0763852468868173,0.5,0.188183537595647,1.09694577732024,2.07953453554537,2.9555233047407,0.5,56.0658667927535
CBC_1001,CBC_1001_MSI_AV_v3_Vset6_Aset1_2023-06-08_12h45.15.645.csv,3,20,0,1,z,0,1,1,aud,B,63,0,0B,1B,1,0,z,1.55913200000123,0,1,1,0,1B,0B,B01,3.55534806148941,0.73248781659218,0.329522984315359,0.5,0.5,0.405908231202177,0.670477015684641,0.5,0.5,0.5,0.5,0.699675572150397,0.5,0.5,0.5,0.405908231202177,0.470624066205074,0.748617034294129,0.251382965705871,0.670477015684641,0.405908231202177,0.637227523697726,0.955245932758867,-0.670477015684641,-0.126172736688108,0.5,0.188183537595647,1.09694577732024,2.07953453554537,2.9555233047407,0.5,56.0658667927535
CBC_1001,CBC_1001_MSI_AV_v3_Vset6_Aset1_2023-06-08_12h45.15.645.csv,3,21,1,3,z,0,1,3,aud,D,27,1,1D,3D,0,1,z,3.07898800000112,0,1,1,1,3D,1D,D13,3.58351893845611,0.73248781659218,0.329522984315359,0.5,0.5,0.405908231202177,0.544304278996533,0.5,0.5,0.5,0.5,0.699675572150397,0.5,0.5,0.5,0.405908231202177,0.470624066205074,0.470624066205074,0.529375933794926,0.470624066205074,0.5,0.0966337815877791,0.411215915390974,0.529375933794926,0.0996198359395282,0.5,0.188183537595647,1.09694577732024,2.07953453554537,2.9555233047407,0.5,56.0658667927535
CBC_1001,CBC_1001_MSI_AV_v3_Vset6_Aset1_2023-06-08_12h45.15.645.csv,3,22,2,3,b,1,0,2,aud,C,63,1,2C,3C,1,0,b,2.08173770000121,1,0,1,1,2C,3C,C23,2.91777073208428,0.73248781659218,0.329522984315359,0.5,0.5,0.405908231202177,0.544304278996533,0.5,0.5,0.5,0.5,0.699675572150397,0.5,0.5,0.5,0.405908231202177,0.570243902144602,0.699675572150397,0.300324427849603,0.699675572150397,0.5,0.483189537692815,0.920760330814297,0.300324427849603,0.056516113259127,0.5,0.188183537595647,1.09694577732024,2.07953453554537,2.9555233047407,0.5,56.0658667927535
CBC_1001,CBC_1001_MSI_AV_v3_Vset6_Aset1_2023-06-08_12h45.15.645.csv,3,23,1,0,b,1,0,1,aud,B,63,1,1B,0B,1,0,z,2.3606776000006,0,1,0,0,0B,1B,B10,2.53897387105828,0.73248781659218,0.329522984315359,0.5,0.5,0.405908231202177,0.544304278996533,0.5,0.5,0.5,0.5,0.756191685409524,0.5,0.5,0.5,0.405908231202177,0.570243902144602,0.363873811732597,0.636126188267403,0.405908231202177,0.544304278996533,0.0619364321964819,0.158715163243837,-0.405908231202177,-0.0763852468868173,0.5,0.188183537595647,1.09694577732024,2.07953453554537,2.9555233047407,0.5,56.0658667927535
CBC_1001,CBC_1001_MSI_AV_v3_Vset6_Aset1_2023-06-08_12h45.15.645.csv,3,24,2,0,z,0,1,0,aud,A,27,1,2A,0A,0,1,z,2.26862320000055,0,1,1,1,0A,2A,A20,3.66356164612965,0.73248781659218,0.329522984315359,0.5,0.5,0.329522984315359,0.544304278996533,0.5,0.5,0.5,0.5,0.756191685409524,0.5,0.5,0.5,0.405908231202177,0.570243902144602,0.73248781659218,0.26751218340782,0.73248781659218,0.5,0.440869199847617,0.945516187748628,0.26751218340782,0.0503413890236191,0.5,0.188183537595647,1.09694577732024,2.07953453554537,2.9555233047407,0.5,56.0658667927535
CBC_1001,CBC_1001_MSI_AV_v3_Vset6_Aset1_2023-06-08_12h45.15.645.csv,3,25,2,3,z,0,1,3,aud,D,63,1,2D,3D,0,1,z,2.56164250000074,0,1,1,1,3D,2D,D23,2.99573227355399,0.782829205615799,0.329522984315359,0.5,0.5,0.329522984315359,0.544304278996533,0.5,0.5,0.5,0.5,0.756191685409524,0.5,0.5,0.5,0.405908231202177,0.570243902144602,0.660102950470164,0.339897049529836,0.570243902144602,0.405908231202177,0.302816148246189,0.877508396521049,0.429756097855398,0.0808730227977298,0.5,0.188183537595647,1.09694577732024,2.07953453554537,2.9555233047407,0.5,56.0658667927535
CBC_1001,CBC_1001_MSI_AV_v3_Vset6_Aset1_2023-06-08_12h45.15.645.csv,3,26,2,0,b,1,0,2,aud,C,27,1,2C,0C,1,0,b,2.45149890000084,1,0,1,1,2C,0C,C20,2.6149597780362,0.782829205615799,0.329522984315359,0.5,0.5,0.329522984315359,0.544304278996533,0.5,0.5,0.5,0.5,0.756191685409524,0.5,0.5,0.5,0.405908231202177,0.651116924942332,0.756191685409524,0.243808314590476,0.756191685409524,0.5,0.372017972678137,0.958881205740307,0.243808314590476,0.0458807111348683,0.5,0.188183537595647,1.09694577732024,2.07953453554537,2.9555233047407,0.5,56.0658667927535
CBC_1001,CBC_1001_MSI_AV_v3_Vset6_Aset1_2023-06-08_12h45.15.645.csv,3,27,1,0,b,1,0,1,aud,B,63,1,1B,0B,1,0,b,2.80006240000057,1,0,1,1,1B,0B,B10,2.35137525716348,0.782829205615799,0.329522984315359,0.5,0.5,0.329522984315359,0.544304278996533,0.5,0.5,0.5,0.5,0.802072396544392,0.5,0.5,0.5,0.405908231202177,0.651116924942332,0.708482730133464,0.291517269866536,0.544304278996533,0.329522984315359,0.260532321254587,0.928366741866829,0.455695721003467,0.0857544328456314,0.5,0.188183537595647,1.09694577732024,2.07953453554537,2.9555233047407,0.5,56.0658667927535
CBC_1001,CBC_1001_MSI_AV_v3_Vset6_Aset1_2023-06-08_12h45.15.645.csv,3,28,0,1,b,1,0,0,aud,A,63,1,0A,1A,1,0,b,1.84562410000035,1,0,1,1,0A,1A,A01,3.76120011569356,0.782829205615799,0.329522984315359,0.5,0.5,0.329522984315359,0.630058711842164,0.5,0.5,0.5,0.5,0.802072396544392,0.5,0.5,0.5,0.405908231202177,0.651116924942332,0.880015161281242,0.119984838718758,0.782829205615799,0.329522984315359,0.859137680581177,0.990758414832983,0.217170794384201,0.0408679683496758,0.5,0.188183537595647,1.09694577732024,2.07953453554537,2.9555233047407,0.5,56.0658667927535
CBC_1001,CBC_1001_MSI_AV_v3_Vset6_Aset1_2023-06-08_12h45.15.645.csv,3,29,3,2,z,0,1,2,aud,C,63,0,3C,2C,1,0,z,1.91158820000055,0,1,1,0,2C,3C,C32,2.68557734525015,0.823697173965475,0.329522984315359,0.5,0.5,0.329522984315359,0.630058711842164,0.5,0.5,0.5,0.5,0.802072396544392,0.5,0.5,0.5,0.405908231202177,0.651116924942332,0.802072396544392,0.197927603455608,0.802072396544392,0.5,0.706168989734803,0.976140717347425,-0.802072396544392,-0.150936820989542,0.5,0.188183537595647,1.09694577732024,2.07953453554537,2.9555233047407,0.5,56.0658667927535
CBC_1001,CBC_1001_MSI_AV_v3_Vset6_Aset1_2023-06-08_12h45.15.645.csv,3,30,3,1,b,1,0,3,aud,D,27,1,3D,1D,1,0,b,2.27335850000054,1,0,1,1,3D,1D,D31,3.80666248977032,0.823697173965475,0.329522984315359,0.5,0.5,0.329522984315359,0.630058711842164,0.5,0.5,0.5,0.5,0.65113557555485,0.5,0.5,0.5,0.405908231202177,0.651116924942332,0.651116924942332,0.348883075057668,0.651116924942332,0.5,0.36598076925181,0.865224385276081,0.348883075057668,0.0656540512715996,0.5,0.188183537595647,1.09694577732024,2.07953453554537,2.9555233047407,0.5,56.0658667927535
CBC_1001,CBC_1001_MSI_AV_v3_Vset6_Aset1_2023-06-08_12h45.15.645.csv,3,31,1,0,z,0,1,0,aud,A,63,0,1A,0A,1,0,z,1.78355660000034,0,1,1,0,0A,1A,A10,2.4423470353692,0.823697173965475,0.329522984315359,0.5,0.5,0.329522984315359,0.630058711842164,0.5,0.5,0.5,0.5,0.65113557555485,0.5,0.5,0.5,0.405908231202177,0.716770976213931,0.904818015673129,0.0951819843268706,0.823697173965475,0.329522984315359,0.960936987284022,0.993144754733412,-0.823697173965475,-0.15500624810436,0.5,0.188183537595647,1.09694577732024,2.07953453554537,2.9555233047407,0.5,56.0658667927535
CBC_1001,CBC_1001_MSI_AV_v3_Vset6_Aset1_2023-06-08_12h45.15.645.csv,3,32,3,2,b,1,0,3,aud,D,63,1,3D,2D,1,0,b,2.42577440000059,1,0,1,1,3D,2D,D32,2.46385324059017,0.668690925861115,0.329522984315359,0.5,0.5,0.329522984315359,0.630058711842164,0.5,0.5,0.5,0.5,0.65113557555485,0.5,0.5,0.5,0.405908231202177,0.716770976213931,0.787413946466338,0.212586053533662,0.716770976213931,0.405908231202177,0.381511107368849,0.971573732247822,0.283229023786069,0.053299039645824,0.5,0.188183537595647,1.09694577732024,2.07953453554537,2.9555233047407,0.5,56.0658667927535
CBC_1001,CBC_1001_MSI_AV_v3_Vset6_Aset1_2023-06-08_12h45.15.645.csv,3,33,2,1,z,0,1,1,aud,B,9,1,2B,1B,0,1,z,2.6262540000007,0,1,1,1,1B,2B,B21,3.87120101090789,0.668690925861115,0.329522984315359,0.5,0.5,0.329522984315359,0.630058711842164,0.5,0.5,0.5,0.5,0.65113557555485,0.5,0.5,0.5,0.405908231202177,0.770070015859756,0.630058711842164,0.369941288157836,0.630058711842164,0.5,0.268638800017627,0.831566163966004,0.369941288157836,0.0696168603082321,0.5,0.188183537595647,1.09694577732024,2.07953453554537,2.9555233047407,0.5,56.0658667927535
CBC_1001,CBC_1001_MSI_AV_v3_Vset6_Aset1_2023-06-08_12h45.15.645.csv,3,34,1,0,z,0,1,0,aud,A,63,1,1A,0A,0,1,z,3.53284429999985,0,1,1,1,0A,1A,A10,2.28238238567653,0.668690925861115,0.329522984315359,0.5,0.5,0.329522984315359,0.699675572150397,0.5,0.5,0.5,0.5,0.65113557555485,0.5,0.5,0.5,0.405908231202177,0.770070015859756,0.804177846063783,0.195822153936217,0.668690925861115,0.329522984315359,0.0841169876808455,0.976647457917458,0.331309074138885,0.0623469136089939,0.5,0.188183537595647,1.09694577732024,2.07953453554537,2.9555233047407,0.5,56.0658667927535
CBC_1001,CBC_1001_MSI_AV_v3_Vset6_Aset1_2023-06-08_12h45.15.645.csv,3,35,2,1,b,1,0,2,aud,C,9,1,2C,1C,1,0,b,2.38442920000034,1,0,1,1,2C,1C,C21,3.91202300542815,0.731037839470109,0.329522984315359,0.5,0.5,0.329522984315359,0.699675572150397,0.5,0.5,0.5,0.5,0.65113557555485,0.5,0.5,0.5,0.405908231202177,0.770070015859756,0.65113557555485,0.34886442444515,0.65113557555485,0.5,0.338330146436886,0.86537363411993,0.34886442444515,0.0656505415333577,0.5,0.188183537595647,1.09694577732024,2.07953453554537,2.9555233047407,0.5,56.0658667927535
CBC_1001,CBC_1001_MSI_AV_v3_Vset6_Aset1_2023-06-08_12h45.15.645.csv,3,36,1,0,b,1,0,1,aud,B,63,1,1B,0B,1,0,b,2.44020950000049,1,0,1,1,1B,0B,B10,2.32238772029023,0.731037839470109,0.329522984315359,0.5,0.5,0.329522984315359,0.699675572150397,0.5,0.5,0.5,0.5,0.716786117088207,0.5,0.5,0.5,0.405908231202177,0.770070015859756,0.825792549634649,0.174207450365351,0.699675572150397,0.329522984315359,0.360670012295012,0.982186544540657,0.300324427849603,0.056516113259127,0.5,0.188183537595647,1.09694577732024,2.07953453554537,2.9555233047407,0.5,56.0658667927535
CBC_1001,CBC_1001_MSI_AV_v3_Vset6_Aset1_2023-06-08_12h45.15.645.csv,3,37,0,1,b,1,0,0,aud,A,63,0,0A,1A,0,1,b,2.50709600000027,1,0,1,0,0A,1A,A01,3.25809653802148,0.731037839470109,0.329522984315359,0.5,0.5,0.329522984315359,0.756191685409524,0.5,0.5,0.5,0.5,0.716786117088207,0.5,0.5,0.5,0.405908231202177,0.770070015859756,0.846867130109871,0.153132869890129,0.731037839470109,0.329522984315359,0.313736318606927,0.986072497229871,-0.731037839470109,-0.137569286747764,0.5,0.188183537595647,1.09694577732024,2.07953453554537,2.9555233047407,0.5,56.0658667927535
CBC_1001,CBC_1001_MSI_AV_v3_Vset6_Aset1_2023-06-08_12h45.15.645.csv,3,38,0,1,z,0,1,1,aud,B,63,1,0B,1B,0,1,z,2.32225920000019,0,1,1,1,1B,0B,B01,3.27714473299218,0.593468552722345,0.329522984315359,0.5,0.5,0.329522984315359,0.756191685409524,0.5,0.5,0.5,0.5,0.716786117088207,0.5,0.5,0.5,0.405908231202177,0.770070015859756,0.863215289371315,0.136784710628685,0.756191685409524,0.329522984315359,0.409494644926366,0.988656085993549,0.243808314590476,0.0458807111348683,0.5,0.188183537595647,1.09694577732024,2.07953453554537,2.9555233047407,0.5,56.0658667927535
CBC_1001,CBC_1001_MSI_AV_v3_Vset6_Aset1_2023-06-08_12h45.15.645.csv,3,39,1,3,z,0,1,3,aud,D,27,1,1D,3D,0,1,z,2.41200180000033,0,1,1,1,3D,1D,D13,3.29583686600433,0.593468552722345,0.329522984315359,0.5,0.5,0.329522984315359,0.802072396544392,0.5,0.5,0.5,0.5,0.716786117088207,0.5,0.5,0.5,0.405908231202177,0.770070015859756,0.770070015859756,0.229929984140244,0.770070015859756,0.5,0.389399480759532,0.965011037234804,0.229929984140244,0.0432690378148222,0.5,0.188183537595647,1.09694577732024,2.07953453554537,2.9555233047407,0.5,56.0658667927535
CBC_1001,CBC_1001_MSI_AV_v3_Vset6_Aset1_2023-06-08_12h45.15.645.csv,3,40,3,2,z,0,1,2,aud,C,63,1,3C,2C,0,1,z,1.84050730000035,0,1,1,1,2C,3C,C32,2.62103882411258,0.593468552722345,0.329522984315359,0.5,0.5,0.329522984315359,0.802072396544392,0.5,0.5,0.5,0.5,0.716786117088207,0.5,0.5,0.5,0.405908231202177,0.813339053674578,0.716786117088207,0.283213882911793,0.716786117088207,0.5,0.593088703167555,0.934886768161911,0.283213882911793,0.0532961903825405,0.5,0.188183537595647,1.09694577732024,2.07953453554537,2.9555233047407,0.5,56.0658667927535
CBC_1001,CBC_1001_MSI_AV_v3_Vset6_Aset1_2023-06-08_12h45.15.645.csv,3,41,0,2,b,1,0,0,aud,A,27,1,0A,2A,1,0,b,2.03445600000032,1,0,1,1,0A,2A,A02,3.3322045101752,0.593468552722345,0.329522984315359,0.5,0.5,0.329522984315359,0.802072396544392,0.5,0.5,0.5,0.5,0.770082307470748,0.5,0.5,0.5,0.405908231202177,0.813339053674578,0.593468552722345,0.406531447277655,0.593468552722345,0.5,0.335725828857412,0.760028335604067,0.406531447277655,0.0765025258925874,0.5,0.188183537595647,1.09694577732024,2.07953453554537,2.9555233047407,0.5,56.0658667927535
CBC_1001,CBC_1001_MSI_AV_v3_Vset6_Aset1_2023-06-08_12h45.15.645.csv,3,42,2,3,z,0,1,3,aud,D,63,1,2D,3D,0,1,z,2.35965800000031,0,1,1,1,3D,2D,D23,2.94443897916644,0.669971078614932,0.329522984315359,0.5,0.5,0.329522984315359,0.802072396544392,0.5,0.5,0.5,0.5,0.770082307470748,0.5,0.5,0.5,0.405908231202177,0.813339053674578,0.864450939763586,0.135549060236414,0.813339053674578,0.405908231202177,0.384002006987996,0.988828430272648,0.186660946325422,0.0351265172104692,0.5,0.188183537595647,1.09694577732024,2.07953453554537,2.9555233047407,0.5,56.0658667927535
CBC_1001,CBC_1001_MSI_AV_v3_Vset6_Aset1_2023-06-08_12h45.15.645.csv,3,43,1,3,b,1,0,1,aud,B,27,0,1B,3B,0,1,b,2.3914889000007,1,0,1,0,1B,3B,B13,3.36729582998647,0.669971078614932,0.329522984315359,0.5,0.5,0.329522984315359,0.802072396544392,0.5,0.5,0.5,0.5,0.770082307470748,0.5,0.5,0.5,0.405908231202177,0.848465570885047,0.802072396544392,0.197927603455608,0.802072396544392,0.5,0.395386197433813,0.97626620288381,-0.802072396544392,-0.150936820989542,0.5,0.188183537595647,1.09694577732024,2.07953453554537,2.9555233047407,0.5,56.0658667927535
CBC_1001,CBC_1001_MSI_AV_v3_Vset6_Aset1_2023-06-08_12h45.15.645.csv,3,44,3,2,z,0,1,2,aud,C,63,1,3C,2C,0,1,z,2.74693790000129,0,1,1,1,2C,3C,C32,2.46809953147162,0.669971078614932,0.329522984315359,0.5,0.5,0.329522984315359,0.65113557555485,0.5,0.5,0.5,0.5,0.770082307470748,0.5,0.5,0.5,0.405908231202177,0.848465570885047,0.770082307470748,0.229917692529252,0.770082307470748,0.5,0.262503307702683,0.965101310122499,0.229917692529252,0.0432667247359829,0.5,0.188183537595647,1.09694577732024,2.07953453554537,2.9555233047407,0.5,56.0658667927535
CBC_1001,CBC_1001_MSI_TV_v3_Vset3_Tset2_2023-06-08_12h53.37.433.csv,4,1,0,1,z,0,1,1,tac,B,63,1,0B,1B,0,1,z,2.46899730000041,0,1,1,1,1B,0B,B01,2.77258872223978,0.5,0.5,0.5,0.5,0.5,0.5,0.5,0.5,0.5,0.5,0.5,0.5,0.5,0.5,0.5,0.5,0.5,0.5,0.5,0.5,0.158462850521225,0.499104360577089,0.5,0.0383561957093597,0.5,0.0767123914187194,0.999034649130616,4.98058163091842,2.78022504591344,0.5,40.4591673087677
CBC_1001,CBC_1001_MSI_TV_v3_Vset3_Tset2_2023-06-08_12h53.37.433.csv,4,2,1,0,z,0,1,0,tac,A,63,1,1A,0A,0,1,z,2.47680480000054,0,1,1,1,0A,1A,A10,2.83321334405622,0.5,0.5,0.5,0.5,0.5,0.53835619570936,0.5,0.5,0.5,0.5,0.5,0.5,0.5,0.5,0.5,0.5,0.5,0.5,0.5,0.5,0.158008283700547,0.500127416178243,0.5,0.0383561957093597,0.5,0.0767123914187194,0.999034649130616,4.98058163091842,2.78022504591344,0.5,40.4591673087677
CBC_1001,CBC_1001_MSI_TV_v3_Vset3_Tset2_2023-06-08_12h53.37.433.csv,4,3,2,1,b,1,0,2,tac,C,9,1,2C,1C,1,0,b,2.40419250000014,1,0,1,1,2C,1C,C21,2.89037175789616,0.53835619570936,0.5,0.5,0.5,0.5,0.53835619570936,0.5,0.5,0.5,0.5,0.5,0.5,0.5,0.5,0.5,0.5,0.5,0.5,0.5,0.5,0.165639656716956,0.500888711376286,0.5,0.0383561957093597,0.5,0.0767123914187194,0.999034649130616,4.98058163091842,2.78022504591344,0.5,40.4591673087677
CBC_1001,CBC_1001_MSI_TV_v3_Vset3_Tset2_2023-06-08_12h53.37.433.csv,4,4,0,1,b,1,0,0,tac,A,63,1,0A,1A,1,0,b,2.60468769999989,1,0,1,1,0A,1A,A01,2.94443897916644,0.53835619570936,0.5,0.5,0.5,0.5,0.53835619570936,0.5,0.5,0.5,0.5,0.53835619570936,0.5,0.5,0.5,0.5,0.5,0.53835619570936,0.46164380429064,0.53835619570936,0.5,0.220140653965322,0.742320918865219,0.46164380429064,0.0354138002107703,0.5,0.0767123914187194,0.999034649130616,4.98058163091842,2.78022504591344,0.5,40.4591673087677
CBC_1001,CBC_1001_MSI_TV_v3_Vset3_Tset2_2023-06-08_12h53.37.433.csv,4,5,1,3,z,0,1,3,tac,D,27,1,1D,3D,0,1,z,2.33989590000056,0,1,1,1,3D,1D,D13,2.99573227355399,0.57376999592013,0.5,0.5,0.5,0.5,0.53835619570936,0.5,0.5,0.5,0.5,0.53835619570936,0.5,0.5,0.5,0.5,0.5,0.5,0.5,0.5,0.5,0.172406231039048,0.500830557632109,0.5,0.0383561957093597,0.5,0.0767123914187194,0.999034649130616,4.98058163091842,2.78022504591344,0.5,40.4591673087677
CBC_1001,CBC_1001_MSI_TV_v3_Vset3_Tset2_2023-06-08_12h53.37.433.csv,4,6,1,0,b,1,0,1,tac,B,63,1,1B,0B,1,0,b,2.10577130000001,1,0,1,1,1B,0B,B10,3.04452243772342,0.57376999592013,0.5,0.5,0.5,0.5,0.53835619570936,0.5,0.5,0.5,0.5,0.53835619570936,0.5,0.5,0.5,0.5,0.53835619570936,0.53835619570936,0.46164380429064,0.53835619570936,0.5,0.311277636525599,0.743158224422974,0.46164380429064,0.0354138002107703,0.5,0.0767123914187194,0.999034649130616,4.98058163091842,2.78022504591344,0.5,40.4591673087677
CBC_1001,CBC_1001_MSI_TV_v3_Vset3_Tset2_2023-06-08_12h53.37.433.csv,4,7,3,2,z,0,1,2,tac,C,63,1,3C,2C,0,1,z,2.27718650000043,0,1,1,1,2C,3C,C32,3.09104245335832,0.57376999592013,0.5,0.5,0.5,0.5,0.57376999592013,0.5,0.5,0.5,0.5,0.53835619570936,0.5,0.5,0.5,0.5,0.53835619570936,0.53835619570936,0.46164380429064,0.53835619570936,0.5,0.277385636028884,0.743446319835146,0.46164380429064,0.0354138002107703,0.5,0.0767123914187194,0.999034649130616,4.98058163091842,2.78022504591344,0.5,40.4591673087677
CBC_1001,CBC_1001_MSI_TV_v3_Vset3_Tset2_2023-06-08_12h53.37.433.csv,4,8,0,2,b,1,0,0,tac,A,27,1,0A,2A,1,0,b,2.41220740000063,1,0,1,1,0A,2A,A02,3.13549421592915,0.57376999592013,0.5,0.5,0.5,0.5,0.57376999592013,0.5,0.5,0.5,0.5,0.57376999592013,0.5,0.5,0.5,0.5,0.53835619570936,0.57376999592013,0.42623000407987,0.57376999592013,0.5,0.311981396311672,0.885215644149328,0.42623000407987,0.0326971229073774,0.5,0.0767123914187194,0.999034649130616,4.98058163091842,2.78022504591344,0.5,40.4591673087677
CBC_1001,CBC_1001_MSI_TV_v3_Vset3_Tset2_2023-06-08_12h53.37.433.csv,4,9,2,3,z,0,1,3,tac,D,63,1,2D,3D,0,1,z,1.9911103000004,0,1,1,1,3D,2D,D23,3.17805383034795,0.606467118827507,0.5,0.5,0.5,0.5,0.57376999592013,0.5,0.5,0.5,0.5,0.57376999592013,0.5,0.5,0.5,0.5,0.53835619570936,0.53835619570936,0.46164380429064,0.53835619570936,0.5,0.334582411452632,0.742699914020714,0.46164380429064,0.0354138002107703,0.5,0.0767123914187194,0.999034649130616,4.98058163091842,2.78022504591344,0.5,40.4591673087677
CBC_1001,CBC_1001_MSI_TV_v3_Vset3_Tset2_2023-06-08_12h53.37.433.csv,4,10,1,3,b,1,0,1,tac,B,27,1,1B,3B,1,0,b,2.41406840000036,1,0,1,1,1B,3B,B13,3.2188758248682,0.606467118827507,0.5,0.5,0.5,0.5,0.57376999592013,0.5,0.5,0.5,0.5,0.57376999592013,0.5,0.5,0.5,0.5,0.57376999592013,0.57376999592013,0.42623000407987,0.57376999592013,0.5,0.311320805447636,0.884853252287436,0.42623000407987,0.0326971229073774,0.5,0.0767123914187194,0.999034649130616,4.98058163091842,2.78022504591344,0.5,40.4591673087677
CBC_1001,CBC_1001_MSI_TV_v3_Vset3_Tset2_2023-06-08_12h53.37.433.csv,4,11,2,3,b,1,0,2,tac,C,63,0,2C,3C,0,1,b,2.4334942000005,1,0,1,0,2C,3C,C23,3.25809653802148,0.606467118827507,0.5,0.5,0.5,0.5,0.606467118827507,0.5,0.5,0.5,0.5,0.57376999592013,0.5,0.5,0.5,0.5,0.57376999592013,0.57376999592013,0.42623000407987,0.57376999592013,0.5,0.306135685115868,0.885378497960318,-0.57376999592013,-0.0440152685113421,0.5,0.0767123914187194,0.999034649130616,4.98058163091842,2.78022504591344,0.5,40.4591673087677
CBC_1001,CBC_1001_MSI_TV_v3_Vset3_Tset2_2023-06-08_12h53.37.433.csv,4,12,3,1,z,0,1,1,tac,B,27,1,3B,1B,0,1,z,2.49260109999977,0,1,1,1,1B,3B,B31,3.29583686600433,0.606467118827507,0.5,0.5,0.5,0.5,0.606467118827507,0.5,0.5,0.5,0.5,0.529754727408788,0.5,0.5,0.5,0.5,0.57376999592013,0.606467118827507,0.393532881172493,0.606467118827507,0.5,0.295011760603669,0.950019972976868,0.393532881172493,0.0301888484166407,0.5,0.0767123914187194,0.999034649130616,4.98058163091842,2.78022504591344,0.5,40.4591673087677
CBC_1001,CBC_1001_MSI_TV_v3_Vset3_Tset2_2023-06-08_12h53.37.433.csv,4,13,2,3,b,1,0,2,tac,C,63,1,2C,3C,1,0,b,2.72951120000016,1,0,1,1,2C,3C,C23,2.63905732961526,0.606467118827507,0.5,0.5,0.5,0.5,0.636655967244148,0.5,0.5,0.5,0.5,0.529754727408788,0.5,0.5,0.5,0.5,0.57376999592013,0.529754727408788,0.470245272591212,0.529754727408788,0.5,0.18810544630015,0.6942784812593,0.470245272591212,0.0360736394138195,0.5,0.0767123914187194,0.999034649130616,4.98058163091842,2.78022504591344,0.5,40.4591673087677
CBC_1001,CBC_1001_MSI_TV_v3_Vset3_Tset2_2023-06-08_12h53.37.433.csv,4,14,2,3,z,0,1,3,tac,D,63,1,2D,3D,0,1,z,2.28018870000051,0,1,1,1,3D,2D,D23,2.67414864942653,0.606467118827507,0.5,0.5,0.5,0.5,0.636655967244148,0.5,0.5,0.5,0.5,0.565828366822607,0.5,0.5,0.5,0.5,0.57376999592013,0.57376999592013,0.42623000407987,0.57376999592013,0.5,0.351081012062828,0.885391170672379,0.42623000407987,0.0326971229073774,0.5,0.0767123914187194,0.999034649130616,4.98058163091842,2.78022504591344,0.5,40.4591673087677
CBC_1001,CBC_1001_MSI_TV_v3_Vset3_Tset2_2023-06-08_12h53.37.433.csv,4,15,3,0,z,0,1,0,tac,A,9,1,3A,0A,0,1,z,2.35356680000041,0,1,1,1,0A,3A,A30,3.40119738166216,0.606467118827507,0.5,0.5,0.5,0.5,0.636655967244148,0.5,0.5,0.5,0.5,0.565828366822607,0.5,0.5,0.5,0.5,0.606467118827507,0.606467118827507,0.393532881172493,0.606467118827507,0.5,0.347996059060058,0.950216928243327,0.393532881172493,0.0301888484166407,0.5,0.0767123914187194,0.999034649130616,4.98058163091842,2.78022504591344,0.5,40.4591673087677
CBC_1001,CBC_1001_MSI_TV_v3_Vset3_Tset2_2023-06-08_12h53.37.433.csv,4,16,1,0,b,1,0,1,tac,B,63,0,1B,0B,0,1,b,1.73717010000018,1,0,1,0,1B,0B,B10,2.7408400239252,0.636655967244148,0.5,0.5,0.5,0.5,0.636655967244148,0.5,0.5,0.5,0.5,0.565828366822607,0.5,0.5,0.5,0.5,0.606467118827507,0.636655967244148,0.363344032755852,0.636655967244148,0.5,0.791290318174105,0.97789301897714,-0.636655967244148,-0.0488394017582965,0.5,0.0767123914187194,0.999034649130616,4.98058163091842,2.78022504591344,0.5,40.4591673087677
CBC_1001,CBC_1001_MSI_TV_v3_Vset3_Tset2_2023-06-08_12h53.37.433.csv,4,17,3,2,b,1,0,3,tac,D,63,1,3D,2D,1,0,b,2.29535900000064,1,0,1,1,3D,2D,D32,3.46573590279973,0.636655967244148,0.5,0.5,0.5,0.5,0.587816565485852,0.5,0.5,0.5,0.5,0.565828366822607,0.5,0.5,0.5,0.5,0.606467118827507,0.606467118827507,0.393532881172493,0.606467118827507,0.5,0.372799145566667,0.950002808282132,0.393532881172493,0.0301888484166407,0.5,0.0767123914187194,0.999034649130616,4.98058163091842,2.78022504591344,0.5,40.4591673087677
CBC_1001,CBC_1001_MSI_TV_v3_Vset3_Tset2_2023-06-08_12h53.37.433.csv,4,18,2,0,b,1,0,2,tac,C,27,1,2C,0C,1,0,b,2.4177009999994,1,0,1,1,2C,0C,C20,3.49650756146648,0.636655967244148,0.5,0.5,0.5,0.5,0.587816565485852,0.5,0.5,0.5,0.5,0.565828366822607,0.5,0.5,0.5,0.5,0.636655967244148,0.565828366822607,0.434171633177393,0.565828366822607,0.5,0.300840803307785,0.861279462283606,0.434171633177393,0.0333063442672088,0.5,0.0767123914187194,0.999034649130616,4.98058163091842,2.78022504591344,0.5,40.4591673087677
CBC_1001,CBC_1001_MSI_TV_v3_Vset3_Tset2_2023-06-08_12h53.37.433.csv,4,19,1,0,z,0,1,0,tac,A,63,1,1A,0A,0,1,z,2.2608452000004,0,1,1,1,0A,1A,A10,2.83321334405622,0.636655967244148,0.5,0.5,0.5,0.5,0.587816565485852,0.5,0.5,0.5,0.5,0.599134711089816,0.5,0.5,0.5,0.5,0.636655967244148,0.636655967244148,0.363344032755852,0.636655967244148,0.5,0.37253037967684,0.977781666277626,0.363344032755852,0.0278729896604229,0.5,0.0767123914187194,0.999034649130616,4.98058163091842,2.78022504591344,0.5,40.4591673087677
CBC_1001,CBC_1001_MSI_TV_v3_Vset3_Tset2_2023-06-08_12h53.37.433.csv,4,20,0,1,z,0,1,1,tac,B,63,1,0B,1B,0,1,z,2.00108189999992,0,1,1,1,1B,0B,B01,2.86220088092947,0.664528956904571,0.5,0.5,0.5,0.5,0.587816565485852,0.5,0.5,0.5,0.5,0.599134711089816,0.5,0.5,0.5,0.5,0.636655967244148,0.587816565485852,0.412183434514148,0.587816565485852,0.5,0.484116110506669,0.919291647218211,0.412183434514148,0.0316195769647615,0.5,0.0767123914187194,0.999034649130616,4.98058163091842,2.78022504591344,0.5,40.4591673087677
CBC_1001,CBC_1001_MSI_TV_v3_Vset3_Tset2_2023-06-08_12h53.37.433.csv,4,21,3,1,b,1,0,3,tac,D,27,1,3D,1D,1,0,b,1.41100349999942,1,0,1,1,3D,1D,D31,3.58351893845611,0.664528956904571,0.5,0.5,0.5,0.5,0.619436142450613,0.5,0.5,0.5,0.5,0.599134711089816,0.5,0.5,0.5,0.5,0.636655967244148,0.636655967244148,0.363344032755852,0.636655967244148,0.5,0.910581527830606,0.977815981543939,0.363344032755852,0.0278729896604229,0.5,0.0767123914187194,0.999034649130616,4.98058163091842,2.78022504591344,0.5,40.4591673087677
CBC_1001,CBC_1001_MSI_TV_v3_Vset3_Tset2_2023-06-08_12h53.37.433.csv,4,22,2,3,b,1,0,2,tac,C,63,1,2C,3C,1,0,b,1.66060399999969,1,0,1,1,2C,3C,C23,2.51230562397611,0.664528956904571,0.5,0.5,0.5,0.5,0.619436142450613,0.5,0.5,0.5,0.5,0.599134711089816,0.5,0.5,0.5,0.5,0.664528956904571,0.599134711089816,0.400865288910184,0.599134711089816,0.5,0.683338660729355,0.939530977608828,0.400865288910184,0.0307513349490561,0.5,0.0767123914187194,0.999034649130616,4.98058163091842,2.78022504591344,0.5,40.4591673087677
CBC_1001,CBC_1001_MSI_TV_v3_Vset3_Tset2_2023-06-08_12h53.37.433.csv,4,23,1,0,z,0,1,0,tac,A,63,1,1A,0A,0,1,z,1.59786440000062,0,1,1,1,0A,1A,A10,2.53897387105828,0.664528956904571,0.5,0.5,0.5,0.5,0.619436142450613,0.5,0.5,0.5,0.5,0.629886046038872,0.5,0.5,0.5,0.5,0.664528956904571,0.664528956904571,0.335471043095429,0.664528956904571,0.5,1.04107033970504,0.989617835741938,0.335471043095429,0.0257347859675826,0.5,0.0767123914187194,0.999034649130616,4.98058163091842,2.78022504591344,0.5,40.4591673087677
CBC_1001,CBC_1001_MSI_TV_v3_Vset3_Tset2_2023-06-08_12h53.37.433.csv,4,24,3,2,b,1,0,3,tac,D,63,1,3D,2D,1,0,b,1.68330569999944,1,0,1,1,3D,2D,D32,2.9704144655697,0.690263742872154,0.5,0.5,0.5,0.5,0.619436142450613,0.5,0.5,0.5,0.5,0.629886046038872,0.5,0.5,0.5,0.5,0.664528956904571,0.664528956904571,0.335471043095429,0.664528956904571,0.5,0.929215193581025,0.989590831976822,0.335471043095429,0.0257347859675826,0.5,0.0767123914187194,0.999034649130616,4.98058163091842,2.78022504591344,0.5,40.4591673087677
CBC_1001,CBC_1001_MSI_TV_v3_Vset3_Tset2_2023-06-08_12h53.37.433.csv,4,25,0,2,z,0,1,2,tac,C,27,1,0C,2C,0,1,z,2.32004609999967,0,1,1,1,2C,0C,C02,3.68887945411394,0.690263742872154,0.5,0.5,0.5,0.5,0.619436142450613,0.5,0.5,0.5,0.5,0.629886046038872,0.5,0.5,0.5,0.5,0.690263742872154,0.629886046038872,0.370113953961128,0.629886046038872,0.5,0.348694321394444,0.973149690336862,0.370113953961128,0.0283923265057959,0.5,0.0767123914187194,0.999034649130616,4.98058163091842,2.78022504591344,0.5,40.4591673087677
CBC_1001,CBC_1001_MSI_TV_v3_Vset3_Tset2_2023-06-08_12h53.37.433.csv,4,26,1,0,z,0,1,0,tac,A,63,1,1A,0A,0,1,z,2.26084119999996,0,1,1,1,0A,1A,A10,2.32727770558442,0.690263742872154,0.5,0.5,0.5,0.5,0.619436142450613,0.5,0.5,0.5,0.5,0.658278372544668,0.5,0.5,0.5,0.5,0.690263742872154,0.690263742872154,0.309736257127846,0.690263742872154,0.5,0.261248522907291,0.994879101438326,0.309736257127846,0.0237606089933605,0.5,0.0767123914187194,0.999034649130616,4.98058163091842,2.78022504591344,0.5,40.4591673087677
CBC_1001,CBC_1001_MSI_TV_v3_Vset3_Tset2_2023-06-08_12h53.37.433.csv,4,27,3,1,z,0,1,1,tac,B,27,1,3B,1B,0,1,z,1.55984809999973,0,1,1,1,1B,3B,B31,3.04452243772342,0.714024351865514,0.5,0.5,0.5,0.5,0.619436142450613,0.5,0.5,0.5,0.5,0.658278372544668,0.5,0.5,0.5,0.5,0.690263742872154,0.619436142450613,0.380563857549387,0.619436142450613,0.5,0.828728541344253,0.964699820499602,0.380563857549387,0.0291939636001464,0.5,0.0767123914187194,0.999034649130616,4.98058163091842,2.78022504591344,0.5,40.4591673087677
CBC_1001,CBC_1001_MSI_TV_v3_Vset3_Tset2_2023-06-08_12h53.37.433.csv,4,28,2,3,b,1,0,2,tac,C,63,1,2C,3C,1,0,b,1.88349350000044,1,0,1,1,2C,3C,C23,2.37490575457367,0.714024351865514,0.5,0.5,0.5,0.5,0.648630106050759,0.5,0.5,0.5,0.5,0.658278372544668,0.5,0.5,0.5,0.5,0.690263742872154,0.658278372544668,0.341721627455332,0.658278372544668,0.5,0.66638603598802,0.987735651649291,0.341721627455332,0.0262142832415952,0.5,0.0767123914187194,0.999034649130616,4.98058163091842,2.78022504591344,0.5,40.4591673087677
CBC_1001,CBC_1001_MSI_TV_v3_Vset3_Tset2_2023-06-08_12h53.37.433.csv,4,29,2,3,z,0,1,3,tac,D,63,0,2D,3D,1,0,z,1.61229289999937,0,1,1,0,3D,2D,D23,2.68557734525015,0.714024351865514,0.5,0.5,0.5,0.5,0.648630106050759,0.5,0.5,0.5,0.5,0.684492655786263,0.5,0.5,0.5,0.5,0.690263742872154,0.690263742872154,0.309736257127846,0.690263742872154,0.5,1.10722441043081,0.994896689350531,-0.690263742872154,-0.052951782425359,0.5,0.0767123914187194,0.999034649130616,4.98058163091842,2.78022504591344,0.5,40.4591673087677
CBC_1001,CBC_1001_MSI_TV_v3_Vset3_Tset2_2023-06-08_12h53.37.433.csv,4,30,1,0,b,1,0,1,tac,B,63,1,1B,0B,1,0,b,2.01822209999955,1,0,1,1,1B,0B,B10,2.70805020110221,0.714024351865514,0.5,0.5,0.5,0.5,0.648630106050759,0.5,0.5,0.5,0.5,0.684492655786263,0.5,0.5,0.5,0.5,0.637311960446795,0.648630106050759,0.351369893949241,0.648630106050759,0.5,0.534517194717379,0.98390917832828,0.351369893949241,0.0269544248373881,0.5,0.0767123914187194,0.999034649130616,4.98058163091842,2.78022504591344,0.5,40.4591673087677
CBC_1001,CBC_1001_MSI_TV_v3_Vset3_Tset2_2023-06-08_12h53.37.433.csv,4,31,0,2,b,1,0,0,tac,A,27,1,0A,2A,1,0,b,1.44394319999992,1,0,1,1,0A,2A,A02,3.13549421592915,0.714024351865514,0.5,0.5,0.5,0.5,0.675584530888148,0.5,0.5,0.5,0.5,0.684492655786263,0.5,0.5,0.5,0.5,0.637311960446795,0.714024351865514,0.285975648134486,0.714024351865514,0.5,1.50045653940496,0.997335428785585,0.285975648134486,0.0219378758559147,0.5,0.0767123914187194,0.999034649130616,4.98058163091842,2.78022504591344,0.5,40.4591673087677
CBC_1001,CBC_1001_MSI_TV_v3_Vset3_Tset2_2023-06-08_12h53.37.433.csv,4,32,0,3,z,0,1,3,tac,D,9,1,0D,3D,0,1,z,1.35339490000024,0,1,1,1,3D,0D,D03,3.85014760171006,0.735962227721429,0.5,0.5,0.5,0.5,0.675584530888148,0.5,0.5,0.5,0.5,0.684492655786263,0.5,0.5,0.5,0.5,0.637311960446795,0.637311960446795,0.362688039553205,0.637311960446795,0.5,0.827050479644789,0.97819220236297,0.362688039553205,0.0278226668530935,0.5,0.0767123914187194,0.999034649130616,4.98058163091842,2.78022504591344,0.5,40.4591673087677
CBC_1001,CBC_1001_MSI_TV_v3_Vset3_Tset2_2023-06-08_12h53.37.433.csv,4,33,2,3,b,1,0,2,tac,C,63,1,2C,3C,1,0,b,1.89062229999945,1,0,1,1,2C,3C,C23,2.26176309847379,0.735962227721429,0.5,0.5,0.5,0.5,0.675584530888148,0.5,0.5,0.5,0.5,0.684492655786263,0.5,0.5,0.5,0.5,0.665134627299888,0.684492655786263,0.315507344213737,0.684492655786263,0.5,0.636067532469408,0.993989970881123,0.315507344213737,0.0242033228848048,0.5,0.0767123914187194,0.999034649130616,4.98058163091842,2.78022504591344,0.5,40.4591673087677
CBC_1001,CBC_1001_MSI_TV_v3_Vset3_Tset2_2023-06-08_12h53.37.433.csv,4,34,1,0,b,1,0,1,tac,B,63,1,1B,0B,1,0,b,1.6780604000005,1,0,1,1,1B,0B,B10,2.50552593699074,0.735962227721429,0.5,0.5,0.5,0.5,0.675584530888148,0.5,0.5,0.5,0.5,0.708695978671068,0.5,0.5,0.5,0.5,0.665134627299888,0.675584530888148,0.324415469111852,0.675584530888148,0.5,0.961891072385359,0.992358681296617,0.324415469111852,0.0248866864487959,0.5,0.0767123914187194,0.999034649130616,4.98058163091842,2.78022504591344,0.5,40.4591673087677
CBC_1001,CBC_1001_MSI_TV_v3_Vset3_Tset2_2023-06-08_12h53.37.433.csv,4,35,1,0,z,0,1,0,tac,A,63,0,1A,0A,1,0,z,1.34115639999982,0,1,1,0,0A,1A,A10,2.30258509299405,0.735962227721429,0.5,0.5,0.5,0.5,0.700471217336943,0.5,0.5,0.5,0.5,0.708695978671068,0.5,0.5,0.5,0.5,0.665134627299888,0.735962227721429,0.264037772278571,0.735962227721429,0.5,1.67711312755845,0.998547031535507,-0.735962227721429,-0.056457422482359,0.5,0.0767123914187194,0.999034649130616,4.98058163091842,2.78022504591344,0.5,40.4591673087677
CBC_1001,CBC_1001_MSI_TV_v3_Vset3_Tset2_2023-06-08_12h53.37.433.csv,4,36,3,2,b,1,0,3,tac,D,63,1,3D,2D,1,0,b,1.13351109999985,1,0,1,1,3D,2D,D32,2.83321334405622,0.67950480523907,0.5,0.5,0.5,0.5,0.700471217336943,0.5,0.5,0.5,0.5,0.708695978671068,0.5,0.5,0.5,0.5,0.665134627299888,0.665134627299888,0.334865372700112,0.665134627299888,0.5,0.0699597211329066,0.989791336261352,0.334865372700112,0.0256883235431463,0.5,0.0767123914187194,0.999034649130616,4.98058163091842,2.78022504591344,0.5,40.4591673087677
CBC_1001,CBC_1001_MSI_TV_v3_Vset3_Tset2_2023-06-08_12h53.37.433.csv,4,37,2,1,z,0,1,1,tac,B,9,1,2B,1B,0,1,b,2.62809680000009,1,0,0,0,2B,1B,B21,3.95124371858143,0.67950480523907,0.5,0.5,0.5,0.5,0.700471217336943,0.5,0.5,0.5,0.5,0.708695978671068,0.5,0.5,0.5,0.5,0.690822950843034,0.299528782663057,0.700471217336943,0.5,0.700471217336943,0.000347368688067737,0.00386516659909673,-0.5,-0.0383561957093597,0.5,0.0767123914187194,0.999034649130616,4.98058163091842,2.78022504591344,0.5,40.4591673087677
CBC_1001,CBC_1001_MSI_TV_v3_Vset3_Tset2_2023-06-08_12h53.37.433.csv,4,38,0,2,b,1,0,0,tac,A,27,1,0A,2A,1,0,b,1.59139050000067,1,0,1,1,0A,2A,A02,2.87167962488401,0.67950480523907,0.5,0.5,0.5,0.5,0.700471217336943,0.46164380429064,0.5,0.5,0.5,0.708695978671068,0.5,0.5,0.5,0.5,0.690822950843034,0.67950480523907,0.32049519476093,0.67950480523907,0.5,1.10904256957691,0.993114952903459,0.32049519476093,0.0245859528283192,0.5,0.0767123914187194,0.999034649130616,4.98058163091842,2.78022504591344,0.5,40.4591673087677
CBC_1001,CBC_1001_MSI_TV_v3_Vset3_Tset2_2023-06-08_12h53.37.433.csv,4,39,3,2,z,0,1,2,tac,C,63,1,3C,2C,0,1,z,1.88852140000108,0,1,1,1,2C,3C,C32,3.29583686600433,0.704090758067389,0.5,0.5,0.5,0.5,0.700471217336943,0.46164380429064,0.5,0.5,0.5,0.708695978671068,0.5,0.5,0.5,0.5,0.690822950843034,0.708695978671068,0.291304021328932,0.708695978671068,0.5,0.586831422886211,0.99692346534688,0.291304021328932,0.022346628106032,0.5,0.0767123914187194,0.999034649130616,4.98058163091842,2.78022504591344,0.5,40.4591673087677
CBC_1001,CBC_1001_MSI_TV_v3_Vset3_Tset2_2023-06-08_12h53.37.433.csv,4,40,3,1,b,1,0,3,tac,D,27,1,3D,1D,1,0,b,1.72650220000014,1,0,1,1,3D,1D,D31,3.31418600467253,0.704090758067389,0.5,0.5,0.5,0.5,0.700471217336943,0.46164380429064,0.5,0.5,0.5,0.7310426067771,0.5,0.5,0.5,0.5,0.690822950843034,0.690822950843034,0.309177049156966,0.690822950843034,0.5,0.893702625374506,0.994962077004491,0.309177049156966,0.0237177108126138,0.5,0.0767123914187194,0.999034649130616,4.98058163091842,2.78022504591344,0.5,40.4591673087677
CBC_1001,CBC_1001_MSI_TV_v3_Vset3_Tset2_2023-06-08_12h53.37.433.csv,4,41,1,0,z,0,1,0,tac,A,63,1,1A,0A,0,1,z,1.50547420000021,0,1,1,1,0A,1A,A10,2.23359222150709,0.704090758067389,0.5,0.5,0.5,0.5,0.700471217336943,0.46164380429064,0.5,0.5,0.5,0.7310426067771,0.5,0.5,0.5,0.5,0.714540661655648,0.704090758067389,0.295909241932611,0.704090758067389,0.5,1.35352170344854,0.996504135447653,0.295909241932611,0.022699905591551,0.5,0.0767123914187194,0.999034649130616,4.98058163091842,2.78022504591344,0.5,40.4591673087677
CBC_1001,CBC_1001_MSI_TV_v3_Vset3_Tset2_2023-06-08_12h53.37.433.csv,4,42,2,0,b,1,0,2,tac,C,27,1,2C,0C,1,0,b,2.1963523000004,1,0,1,1,2C,0C,C20,3.3499040872746,0.72679066365894,0.5,0.5,0.5,0.5,0.700471217336943,0.46164380429064,0.5,0.5,0.5,0.7310426067771,0.5,0.5,0.5,0.5,0.714540661655648,0.7310426067771,0.2689573932229,0.7310426067771,0.5,0.193333625117017,0.998339915955185,0.2689573932229,0.0206323648238735,0.5,0.0767123914187194,0.999034649130616,4.98058163091842,2.78022504591344,0.5,40.4591673087677
CBC_1001,CBC_1001_MSI_TV_v3_Vset3_Tset2_2023-06-08_12h53.37.433.csv,4,43,2,3,z,0,1,3,tac,D,63,1,2D,3D,0,1,z,1.43312139999853,0,1,1,1,3D,2D,D23,2.67414864942653,0.72679066365894,0.5,0.5,0.5,0.5,0.700471217336943,0.46164380429064,0.5,0.5,0.5,0.751674971600974,0.5,0.5,0.5,0.5,0.714540661655648,0.714540661655648,0.285459338344352,0.714540661655648,0.5,1.51575634436447,0.997379264756502,0.285459338344352,0.0218982684972006,0.5,0.0767123914187194,0.999034649130616,4.98058163091842,2.78022504591344,0.5,40.4591673087677
CBC_1001,CBC_1001_MSI_TV_v3_Vset3_Tset2_2023-06-08_12h53.37.433.csv,4,44,0,1,z,0,1,1,tac,B,63,1,0B,1B,0,1,z,1.3884175000012,0,1,1,1,1B,0B,B01,2.97892515523761,0.72679066365894,0.5,0.5,0.5,0.5,0.700471217336943,0.46164380429064,0.5,0.5,0.5,0.751674971600974,0.5,0.5,0.5,0.5,0.736438930152849,0.700471217336943,0.299528782663057,0.700471217336943,0.5,1.41097280398428,0.996149688806984,0.299528782663057,0.0229775692168209,0.5,0.0767123914187194,0.999034649130616,4.98058163091842,2.78022504591344,0.5,40.4591673087677
