ID,filename,session,trial,visStimLeft,visStimRight,correctKey,leftCorrect,rightCorrect,secondStim,mod2Type,mod2Stim,frequency,rewardAccurate,stimPairLeft,stimPairRight,pCorrectLeft,pCorrectRight,key,reactionTime,choiceLeft,choiceRight,choiceAccurate,reward,chosenPair,otherPair,triplet,surprise,0A belief,1A belief,2A belief,3A belief,0B belief,1B belief,2B belief,3B belief,0C belief,1C belief,2C belief,3C belief,0D belief,1D belief,2D belief,3D belief,beliefPairNorm,beliefOtherPairNorm,beliefPair,beliefOtherPair,lik,corrLik,rewardPE,update2,fitCBCsimpleRW_CBCdriftDiffusionLR_startBelief,fitCBCsimpleRW_CBCdriftDiffusionLR_alpha1,fitCBCsimpleRW_CBCdriftDiffusionLR_nonDecisionTime,fitCBCsimpleRW_CBCdriftDiffusionLR_weight,fitCBCsimpleRW_CBCdriftDiffusionLR_startingBoundary,fitCBCsimpleRW_CBCdriftDiffusionLR_startingPoint,fit_CBCsimpleRW_CBCdriftDiffusionLR_NLL
CBC_1001,CBC_1001_MSI_AV_v3_Vset4_Aset2_2023-06-08_11h37.59.527.csv,1,1,3,1,z,0,1,1,aud,B,27,1,3B,1B,0,1,z,2.5182563999997,0,1,1,1,1B,3B,B31,2.77258872223978,0.5,0.5,0.5,0.5,0.5,0.5,0.5,0.5,0.5,0.5,0.5,0.5,0.5,0.5,0.5,0.5,0.5,0.5,0.5,0.5,0.148995572979663,0.501108127127758,0.5,0.0361348118639803,0.5,0.0722696237279605,0.960212364097957,11.8573500093306,2.58137789561923,0.5,55.7916356177159
CBC_1001,CBC_1001_MSI_AV_v3_Vset4_Aset2_2023-06-08_11h37.59.527.csv,1,2,2,3,b,1,0,2,aud,C,63,1,2C,3C,1,0,z,2.24184400000013,0,1,0,0,3C,2C,C23,2.83321334405622,0.5,0.5,0.5,0.5,0.5,0.53613481186398,0.5,0.5,0.5,0.5,0.5,0.5,0.5,0.5,0.5,0.5,0.5,0.5,0.5,0.5,0.182063193431513,0.499583708697954,-0.5,-0.0361348118639803,0.5,0.0722696237279605,0.960212364097957,11.8573500093306,2.58137789561923,0.5,55.7916356177159
CBC_1001,CBC_1001_MSI_AV_v3_Vset4_Aset2_2023-06-08_11h37.59.527.csv,1,3,2,3,z,0,1,3,aud,D,63,1,2D,3D,0,1,b,2.57463349999989,1,0,0,0,2D,3D,D23,2.89037175789616,0.5,0.5,0.5,0.5,0.5,0.53613481186398,0.5,0.5,0.5,0.5,0.5,0.46386518813602,0.5,0.5,0.5,0.5,0.5,0.5,0.5,0.5,0.142599414633839,0.500002258000926,-0.5,-0.0361348118639803,0.5,0.0722696237279605,0.960212364097957,11.8573500093306,2.58137789561923,0.5,55.7916356177159
CBC_1001,CBC_1001_MSI_AV_v3_Vset4_Aset2_2023-06-08_11h37.59.527.csv,1,4,1,0,b,1,0,1,aud,B,63,0,1B,0B,0,1,b,2.42206690000012,1,0,1,0,1B,0B,B10,2.94443897916644,0.5,0.5,0.5,0.5,0.5,0.53613481186398,0.5,0.5,0.5,0.5,0.5,0.46386518813602,0.5,0.5,0.46386518813602,0.5,0.517437311945429,0.482562688054572,0.53613481186398,0.5,0.240109659382862,0.743858284811048,-0.53613481186398,-0.0387462611208708,0.5,0.0722696237279605,0.960212364097957,11.8573500093306,2.58137789561923,0.5,55.7916356177159
CBC_1001,CBC_1001_MSI_AV_v3_Vset4_Aset2_2023-06-08_11h37.59.527.csv,1,5,3,0,z,0,1,0,aud,A,9,1,3A,0A,0,1,z,3.39004290000003,0,1,1,1,0A,3A,A30,2.99573227355399,0.5,0.5,0.5,0.5,0.5,0.49738855074311,0.5,0.5,0.5,0.5,0.5,0.46386518813602,0.5,0.5,0.46386518813602,0.5,0.5,0.5,0.5,0.5,0.0780677538619402,0.500601408289771,0.5,0.0361348118639803,0.5,0.0722696237279605,0.960212364097957,11.8573500093306,2.58137789561923,0.5,55.7916356177159
CBC_1001,CBC_1001_MSI_AV_v3_Vset4_Aset2_2023-06-08_11h37.59.527.csv,1,6,2,3,z,0,1,3,aud,D,63,1,2D,3D,NaN,NaN,[],NaN,NaN,NaN,NaN,NaN,,,D23,2.35137525716348,0.53613481186398,0.5,0.5,0.5,0.5,0.49738855074311,0.5,0.5,0.5,0.5,0.5,0.46386518813602,0.5,0.5,0.46386518813602,0.5,0,0,0,0,NaN,0,0,0,0.5,0.0722696237279605,0.960212364097957,11.8573500093306,2.58137789561923,0.5,55.7916356177159
CBC_1001,CBC_1001_MSI_AV_v3_Vset4_Aset2_2023-06-08_11h37.59.527.csv,1,7,2,0,b,1,0,2,aud,C,27,1,2C,0C,1,0,b,3.77247699999998,1,0,1,1,2C,0C,C20,3.09104245335832,0.53613481186398,0.5,0.5,0.5,0.5,0.49738855074311,0.5,0.5,0.5,0.5,0.5,0.46386518813602,0.5,0.5,0.46386518813602,0.5,0.5,0.5,0.5,0.5,0.0587059717665643,0.499692232609566,0.5,0.0361348118639803,0.5,0.0722696237279605,0.960212364097957,11.8573500093306,2.58137789561923,0.5,55.7916356177159
CBC_1001,CBC_1001_MSI_AV_v3_Vset4_Aset2_2023-06-08_11h37.59.527.csv,1,8,1,0,z,0,1,0,aud,A,63,1,1A,0A,0,1,z,2.78982200000019,0,1,1,1,0A,1A,A10,3.13549421592915,0.53613481186398,0.5,0.5,0.5,0.5,0.49738855074311,0.5,0.5,0.5,0.5,0.53613481186398,0.46386518813602,0.5,0.5,0.46386518813602,0.5,0.517437311945429,0.482562688054572,0.53613481186398,0.5,0.177306650833291,0.743892377835649,0.46386518813602,0.0335233626070898,0.5,0.0722696237279605,0.960212364097957,11.8573500093306,2.58137789561923,0.5,55.7916356177159
CBC_1001,CBC_1001_MSI_AV_v3_Vset4_Aset2_2023-06-08_11h37.59.527.csv,1,9,0,1,z,0,1,1,aud,B,63,1,0B,1B,0,1,z,2.07255699999996,0,1,1,1,1B,0B,B01,3.17805383034795,0.56965817447107,0.5,0.5,0.5,0.5,0.49738855074311,0.5,0.5,0.5,0.5,0.53613481186398,0.46386518813602,0.5,0.5,0.46386518813602,0.5,0.498690856610022,0.501309143389978,0.49738855074311,0.5,0.197745917519251,0.47980576631172,0.50261144925689,0.0363235403191604,0.5,0.0722696237279605,0.960212364097957,11.8573500093306,2.58137789561923,0.5,55.7916356177159
CBC_1001,CBC_1001_MSI_AV_v3_Vset4_Aset2_2023-06-08_11h37.59.527.csv,1,10,3,1,b,1,0,3,aud,D,27,0,3D,1D,0,1,b,2.58499330000041,1,0,1,0,3D,1D,D31,3.2188758248682,0.56965817447107,0.5,0.5,0.5,0.5,0.53371209106227,0.5,0.5,0.5,0.5,0.53613481186398,0.46386518813602,0.5,0.5,0.46386518813602,0.5,0.5,0.5,0.5,0.5,0.141481551898308,0.499897049778722,-0.5,-0.0361348118639803,0.5,0.0722696237279605,0.960212364097957,11.8573500093306,2.58137789561923,0.5,55.7916356177159
CBC_1001,CBC_1001_MSI_AV_v3_Vset4_Aset2_2023-06-08_11h37.59.527.csv,1,11,2,3,b,1,0,2,aud,C,63,1,2C,3C,1,0,b,1.78561600000012,1,0,1,1,2C,3C,C23,2.56494935746154,0.56965817447107,0.5,0.5,0.5,0.5,0.53371209106227,0.5,0.5,0.5,0.5,0.53613481186398,0.46386518813602,0.5,0.5,0.46386518813602,0.46386518813602,0.53613481186398,0.46386518813602,0.53613481186398,0.46386518813602,0.558041962701734,0.901213633876597,0.46386518813602,0.0335233626070898,0.5,0.0722696237279605,0.960212364097957,11.8573500093306,2.58137789561923,0.5,55.7916356177159
CBC_1001,CBC_1001_MSI_AV_v3_Vset4_Aset2_2023-06-08_11h37.59.527.csv,1,12,0,1,z,0,1,1,aud,B,63,1,0B,1B,0,1,z,1.59718599999997,0,1,1,1,1B,0B,B01,2.60268968544438,0.56965817447107,0.5,0.5,0.5,0.5,0.53371209106227,0.5,0.5,0.5,0.5,0.56965817447107,0.46386518813602,0.5,0.5,0.46386518813602,0.46386518813602,0.516306325210739,0.483693674789261,0.53371209106227,0.5,0.429391771581811,0.729778268590297,0.46628790893773,0.0336984517278273,0.5,0.0722696237279605,0.960212364097957,11.8573500093306,2.58137789561923,0.5,55.7916356177159
CBC_1001,CBC_1001_MSI_AV_v3_Vset4_Aset2_2023-06-08_11h37.59.527.csv,1,13,1,0,z,0,1,0,aud,A,63,0,1A,0A,1,0,z,1.70943140000008,0,1,1,0,0A,1A,A10,2.63905732961526,0.56965817447107,0.5,0.5,0.5,0.5,0.567410542790097,0.5,0.5,0.5,0.5,0.56965817447107,0.46386518813602,0.5,0.5,0.46386518813602,0.46386518813602,0.532560950840915,0.467439049159085,0.56965817447107,0.5,0.564717120069735,0.879371394396236,-0.56965817447107,-0.0411689819225811,0.5,0.0722696237279605,0.960212364097957,11.8573500093306,2.58137789561923,0.5,55.7916356177159
CBC_1001,CBC_1001_MSI_AV_v3_Vset4_Aset2_2023-06-08_11h37.59.527.csv,1,14,2,1,b,1,0,2,aud,C,9,1,2C,1C,1,0,z,3.18978910000033,0,1,0,0,1C,2C,C21,3.36729582998647,0.528489192548489,0.5,0.5,0.5,0.5,0.567410542790097,0.5,0.5,0.5,0.5,0.56965817447107,0.46386518813602,0.5,0.5,0.46386518813602,0.46386518813602,0.467439049159085,0.532560950840915,0.5,0.56965817447107,0.0171850779889331,0.119974345798348,-0.5,-0.0361348118639803,0.5,0.0722696237279605,0.960212364097957,11.8573500093306,2.58137789561923,0.5,55.7916356177159
CBC_1001,CBC_1001_MSI_AV_v3_Vset4_Aset2_2023-06-08_11h37.59.527.csv,1,15,0,1,b,1,0,0,aud,A,63,1,0A,1A,NaN,NaN,[],NaN,NaN,NaN,NaN,NaN,,,A01,3.40119738166216,0.528489192548489,0.5,0.5,0.5,0.5,0.567410542790097,0.5,0.5,0.5,0.46386518813602,0.56965817447107,0.46386518813602,0.5,0.5,0.46386518813602,0.46386518813602,0,0,0,0,NaN,0,0,0,0.5,0.0722696237279605,0.960212364097957,11.8573500093306,2.58137789561923,0.5,55.7916356177159
CBC_1001,CBC_1001_MSI_AV_v3_Vset4_Aset2_2023-06-08_11h37.59.527.csv,1,16,1,3,z,0,1,3,aud,D,27,1,1D,3D,0,1,z,2.58515670000043,0,1,1,1,3D,1D,D13,3.43398720448515,0.528489192548489,0.5,0.5,0.5,0.5,0.567410542790097,0.5,0.5,0.5,0.46386518813602,0.56965817447107,0.46386518813602,0.5,0.5,0.46386518813602,0.46386518813602,0.481255256280259,0.518744743719742,0.46386518813602,0.5,0.0679155811249309,0.241019009365306,0.53613481186398,0.0387462611208708,0.5,0.0722696237279605,0.960212364097957,11.8573500093306,2.58137789561923,0.5,55.7916356177159
CBC_1001,CBC_1001_MSI_AV_v3_Vset4_Aset2_2023-06-08_11h37.59.527.csv,1,17,1,0,b,1,0,1,aud,B,63,1,1B,0B,1,0,b,1.56869869999991,1,0,1,1,1B,0B,B10,2.77258872223978,0.528489192548489,0.5,0.5,0.5,0.5,0.567410542790097,0.5,0.5,0.5,0.46386518813602,0.56965817447107,0.46386518813602,0.5,0.5,0.46386518813602,0.50261144925689,0.531576670872059,0.468423329127941,0.567410542790097,0.5,0.611794711257393,0.873668718020105,0.432589457209903,0.0312630773012424,0.5,0.0722696237279605,0.960212364097957,11.8573500093306,2.58137789561923,0.5,55.7916356177159
CBC_1001,CBC_1001_MSI_AV_v3_Vset4_Aset2_2023-06-08_11h37.59.527.csv,1,18,3,2,z,0,1,2,aud,C,63,0,3C,2C,1,0,z,3.12383599999976,0,1,1,0,2C,3C,C32,3.49650756146648,0.528489192548489,0.5,0.5,0.5,0.5,0.59867362009134,0.5,0.5,0.5,0.46386518813602,0.56965817447107,0.46386518813602,0.5,0.5,0.46386518813602,0.50261144925689,0.551180742575661,0.448819257424339,0.56965817447107,0.46386518813602,0.0927499147025679,0.95796482759304,-0.56965817447107,-0.0411689819225811,0.5,0.0722696237279605,0.960212364097957,11.8573500093306,2.58137789561923,0.5,55.7916356177159
CBC_1001,CBC_1001_MSI_AV_v3_Vset4_Aset2_2023-06-08_11h37.59.527.csv,1,19,0,2,b,1,0,0,aud,A,27,1,0A,2A,1,0,b,1.14921000000004,1,0,1,1,0A,2A,A02,3.52636052461616,0.528489192548489,0.5,0.5,0.5,0.5,0.59867362009134,0.5,0.5,0.5,0.46386518813602,0.528489192548489,0.46386518813602,0.5,0.5,0.46386518813602,0.50261144925689,0.513850020376926,0.486149979623074,0.528489192548489,0.5,0.115583709321646,0.700283559069683,0.471510807451511,0.0340759086381876,0.5,0.0722696237279605,0.960212364097957,11.8573500093306,2.58137789561923,0.5,55.7916356177159
CBC_1001,CBC_1001_MSI_AV_v3_Vset4_Aset2_2023-06-08_11h37.59.527.csv,1,20,2,3,z,0,1,3,aud,D,63,1,2D,3D,0,1,z,2.32911330000024,0,1,1,1,3D,2D,D23,2.4567357728213,0.562565101186676,0.5,0.5,0.5,0.5,0.59867362009134,0.5,0.5,0.5,0.46386518813602,0.528489192548489,0.46386518813602,0.5,0.5,0.46386518813602,0.50261144925689,0.520045110053249,0.479954889946751,0.50261144925689,0.46386518813602,0.270444505312731,0.77332168561985,0.49738855074311,0.0359460834088001,0.5,0.0722696237279605,0.960212364097957,11.8573500093306,2.58137789561923,0.5,55.7916356177159
CBC_1001,CBC_1001_MSI_AV_v3_Vset4_Aset2_2023-06-08_11h37.59.527.csv,1,21,1,3,b,1,0,1,aud,B,27,1,1B,3B,1,0,b,2.61349879999989,1,0,1,1,1B,3B,B13,3.58351893845611,0.562565101186676,0.5,0.5,0.5,0.5,0.59867362009134,0.5,0.5,0.5,0.46386518813602,0.528489192548489,0.46386518813602,0.5,0.5,0.46386518813602,0.538557532665691,0.54490579289741,0.45509420710259,0.59867362009134,0.5,0.214480254212158,0.939885650349454,0.40132637990866,0.0290037064681034,0.5,0.0722696237279605,0.960212364097957,11.8573500093306,2.58137789561923,0.5,55.7916356177159
CBC_1001,CBC_1001_MSI_AV_v3_Vset4_Aset2_2023-06-08_11h37.59.527.csv,1,22,2,3,b,1,0,2,aud,C,63,1,2C,3C,1,0,b,2.32661290000033,1,0,1,1,2C,3C,C23,2.51230562397611,0.562565101186676,0.5,0.5,0.5,0.5,0.627677326559443,0.5,0.5,0.5,0.46386518813602,0.528489192548489,0.46386518813602,0.5,0.5,0.46386518813602,0.538557532665691,0.532560950840915,0.467439049159085,0.528489192548489,0.46386518813602,0.30873949969521,0.880337462494531,0.471510807451511,0.0340759086381876,0.5,0.0722696237279605,0.960212364097957,11.8573500093306,2.58137789561923,0.5,55.7916356177159
CBC_1001,CBC_1001_MSI_AV_v3_Vset4_Aset2_2023-06-08_11h37.59.527.csv,1,23,1,0,z,0,1,0,aud,A,63,0,1A,0A,1,0,z,1.51755240000011,0,1,1,0,0A,1A,A10,2.53897387105828,0.562565101186676,0.5,0.5,0.5,0.5,0.627677326559443,0.5,0.5,0.5,0.46386518813602,0.562565101186676,0.46386518813602,0.5,0.5,0.46386518813602,0.538557532665691,0.529440596682878,0.470559403317122,0.562565101186676,0.5,0.597226193764263,0.858650131232476,-0.562565101186676,-0.0406563681852432,0.5,0.0722696237279605,0.960212364097957,11.8573500093306,2.58137789561923,0.5,55.7916356177159
CBC_1001,CBC_1001_MSI_AV_v3_Vset4_Aset2_2023-06-08_11h37.59.527.csv,1,24,1,2,b,1,0,1,aud,B,9,1,1B,2B,1,0,b,1.58183529999997,1,0,1,1,1B,2B,B12,3.66356164612965,0.521908733001433,0.5,0.5,0.5,0.5,0.627677326559443,0.5,0.5,0.5,0.46386518813602,0.562565101186676,0.46386518813602,0.5,0.5,0.46386518813602,0.538557532665691,0.556610753604929,0.443389246395071,0.627677326559443,0.5,0.889484623624554,0.969848412964437,0.372322673440557,0.0269076195149374,0.5,0.0722696237279605,0.960212364097957,11.8573500093306,2.58137789561923,0.5,55.7916356177159
CBC_1001,CBC_1001_MSI_AV_v3_Vset4_Aset2_2023-06-08_11h37.59.527.csv,1,25,3,2,z,0,1,2,aud,C,63,1,3C,2C,0,1,z,1.88420610000003,0,1,1,1,2C,3C,C32,2.99573227355399,0.521908733001433,0.5,0.5,0.5,0.5,0.65458494607438,0.5,0.5,0.5,0.46386518813602,0.562565101186676,0.46386518813602,0.5,0.5,0.46386518813602,0.538557532665691,0.548079209117935,0.451920790882065,0.562565101186676,0.46386518813602,0.56109007925725,0.949926306223736,0.437434898813324,0.0316132555427174,0.5,0.0722696237279605,0.960212364097957,11.8573500093306,2.58137789561923,0.5,55.7916356177159
CBC_1001,CBC_1001_MSI_AV_v3_Vset4_Aset2_2023-06-08_11h37.59.527.csv,1,26,3,2,b,1,0,3,aud,D,63,0,3D,2D,0,1,b,2.44767640000009,1,0,1,0,3D,2D,D32,3.71357206670431,0.521908733001433,0.5,0.5,0.5,0.5,0.65458494607438,0.5,0.5,0.5,0.46386518813602,0.594178356729394,0.46386518813602,0.5,0.5,0.46386518813602,0.538557532665691,0.537255911592833,0.462744088407167,0.538557532665691,0.46386518813602,0.274135427208472,0.907113272936854,-0.538557532665691,-0.0389213502416083,0.5,0.0722696237279605,0.960212364097957,11.8573500093306,2.58137789561923,0.5,55.7916356177159
CBC_1001,CBC_1001_MSI_AV_v3_Vset4_Aset2_2023-06-08_11h37.59.527.csv,1,27,1,0,b,1,0,1,aud,B,63,1,1B,0B,1,0,b,1.74692489999961,1,0,1,1,1B,0B,B10,2.63905732961526,0.521908733001433,0.5,0.5,0.5,0.5,0.65458494607438,0.5,0.5,0.5,0.46386518813602,0.594178356729394,0.46386518813602,0.5,0.5,0.46386518813602,0.499636182424082,0.566943946653719,0.433056053346281,0.65458494607438,0.5,0.736641939314965,0.983673547240261,0.34541505392562,0.0249630159771777,0.5,0.0722696237279605,0.960212364097957,11.8573500093306,2.58137789561923,0.5,55.7916356177159
CBC_1001,CBC_1001_MSI_AV_v3_Vset4_Aset2_2023-06-08_11h37.59.527.csv,1,28,2,0,z,0,1,0,aud,A,27,1,2A,0A,0,1,z,1.51640159999988,0,1,1,1,0A,2A,A20,3.76120011569356,0.521908733001433,0.5,0.5,0.5,0.5,0.679547962051558,0.5,0.5,0.5,0.46386518813602,0.594178356729394,0.46386518813602,0.5,0.5,0.46386518813602,0.499636182424082,0.510719515497771,0.489280484502229,0.521908733001433,0.5,0.378064366256192,0.657685198358237,0.478091266998567,0.0345514759736103,0.5,0.0722696237279605,0.960212364097957,11.8573500093306,2.58137789561923,0.5,55.7916356177159
CBC_1001,CBC_1001_MSI_AV_v3_Vset4_Aset2_2023-06-08_11h37.59.527.csv,1,29,3,1,b,1,0,3,aud,D,27,1,3D,1D,1,0,z,2.33447410000008,0,1,0,0,1D,3D,D31,3.09104245335832,0.556460208975044,0.5,0.5,0.5,0.5,0.679547962051558,0.5,0.5,0.5,0.46386518813602,0.594178356729394,0.46386518813602,0.5,0.5,0.46386518813602,0.499636182424082,0.50018197499366,0.49981802500634,0.5,0.499636182424082,0.171365501769414,0.503294867650956,-0.5,-0.0361348118639803,0.5,0.0722696237279605,0.960212364097957,11.8573500093306,2.58137789561923,0.5,55.7916356177159
CBC_1001,CBC_1001_MSI_AV_v3_Vset4_Aset2_2023-06-08_11h37.59.527.csv,1,30,0,1,b,1,0,0,aud,A,63,1,0A,1A,1,0,b,1.47099959999969,1,0,1,1,0A,1A,A01,3.11351530921037,0.556460208975044,0.5,0.5,0.5,0.5,0.679547962051558,0.5,0.5,0.5,0.46386518813602,0.594178356729394,0.46386518813602,0.5,0.46386518813602,0.46386518813602,0.499636182424082,0.526721408196632,0.473278591803368,0.556460208975044,0.5,0.564662837329313,0.83692372141141,0.443539791024956,0.0320544538057518,0.5,0.0722696237279605,0.960212364097957,11.8573500093306,2.58137789561923,0.5,55.7916356177159
CBC_1001,CBC_1001_MSI_AV_v3_Vset4_Aset2_2023-06-08_11h37.59.527.csv,1,31,0,2,z,0,1,2,aud,C,27,1,0C,2C,0,1,z,2.05611799999997,0,1,1,1,2C,0C,C02,3.8286413964891,0.588514662780796,0.5,0.5,0.5,0.5,0.679547962051558,0.5,0.5,0.5,0.46386518813602,0.594178356729394,0.46386518813602,0.5,0.46386518813602,0.46386518813602,0.499636182424082,0.543036108395939,0.456963891604061,0.594178356729394,0.5,0.439799250974372,0.93315837836442,0.405821643270606,0.0293285774598293,0.5,0.0722696237279605,0.960212364097957,11.8573500093306,2.58137789561923,0.5,55.7916356177159
CBC_1001,CBC_1001_MSI_AV_v3_Vset4_Aset2_2023-06-08_11h37.59.527.csv,1,32,3,2,b,1,0,3,aud,D,63,1,3D,2D,1,0,b,1.89630200000011,1,0,1,1,3D,2D,D32,3.15700042115011,0.588514662780796,0.5,0.5,0.5,0.5,0.679547962051558,0.5,0.5,0.5,0.46386518813602,0.623506934189223,0.46386518813602,0.5,0.46386518813602,0.46386518813602,0.499636182424082,0.518563022005495,0.481436977994505,0.499636182424082,0.46386518813602,0.37510354055804,0.756418753248935,0.500363817575918,0.0361611048232975,0.5,0.0722696237279605,0.960212364097957,11.8573500093306,2.58137789561923,0.5,55.7916356177159
CBC_1001,CBC_1001_MSI_AV_v3_Vset4_Aset2_2023-06-08_11h37.59.527.csv,1,33,0,1,z,0,1,1,aud,B,63,1,0B,1B,0,1,z,1.24876840000024,0,1,1,1,1B,0B,B01,2.77258872223978,0.588514662780796,0.5,0.5,0.5,0.5,0.679547962051558,0.5,0.5,0.5,0.46386518813602,0.623506934189223,0.46386518813602,0.5,0.46386518813602,0.46386518813602,0.53579728724738,0.57610880092543,0.42389119907457,0.679547962051558,0.5,1.18835189249419,0.99058461672908,0.320452037948442,0.023158948205392,0.5,0.0722696237279605,0.960212364097957,11.8573500093306,2.58137789561923,0.5,55.7916356177159
CBC_1001,CBC_1001_MSI_AV_v3_Vset4_Aset2_2023-06-08_11h37.59.527.csv,1,34,1,0,z,0,1,0,aud,A,63,1,1A,0A,0,1,z,1.3421986000003,0,1,1,1,0A,1A,A10,2.50552593699074,0.588514662780796,0.5,0.5,0.5,0.5,0.70270691025695,0.5,0.5,0.5,0.46386518813602,0.623506934189223,0.46386518813602,0.5,0.46386518813602,0.46386518813602,0.53579728724738,0.540658461391172,0.459341538608828,0.588514662780796,0.5,0.716512091248121,0.923458366492209,0.411485337219204,0.0297378904904049,0.5,0.0722696237279605,0.960212364097957,11.8573500093306,2.58137789561923,0.5,55.7916356177159
CBC_1001,CBC_1001_MSI_AV_v3_Vset4_Aset2_2023-06-08_11h37.59.527.csv,1,35,3,2,b,1,0,3,aud,D,63,0,3D,2D,0,1,b,2.72871000000032,1,0,1,0,3D,2D,D32,2.81341071676004,0.6182525532712,0.5,0.5,0.5,0.5,0.70270691025695,0.5,0.5,0.5,0.46386518813602,0.623506934189223,0.46386518813602,0.5,0.46386518813602,0.46386518813602,0.53579728724738,0.535978193081506,0.464021806918494,0.53579728724738,0.46386518813602,0.201055085030567,0.900471996830838,-0.53579728724738,-0.0387218683438301,0.5,0.0722696237279605,0.960212364097957,11.8573500093306,2.58137789561923,0.5,55.7916356177159
CBC_1001,CBC_1001_MSI_AV_v3_Vset4_Aset2_2023-06-08_11h37.59.527.csv,1,36,0,2,z,0,1,2,aud,C,27,1,0C,2C,0,1,z,1.89188760000025,0,1,1,1,2C,0C,C02,3.23867845216438,0.6182525532712,0.5,0.5,0.5,0.5,0.70270691025695,0.5,0.5,0.5,0.46386518813602,0.623506934189223,0.46386518813602,0.5,0.46386518813602,0.46386518813602,0.49707541890355,0.554964918520219,0.445035081479781,0.623506934189223,0.5,0.569403764378831,0.966492268040248,0.376493065810777,0.0272090122023311,0.5,0.0722696237279605,0.960212364097957,11.8573500093306,2.58137789561923,0.5,55.7916356177159
CBC_1001,CBC_1001_MSI_AV_v3_Vset4_Aset2_2023-06-08_11h37.59.527.csv,1,37,1,0,z,0,1,0,aud,A,63,1,1A,0A,0,1,z,1.17191539999976,0,1,1,1,0A,1A,A10,2.34180580614733,0.6182525532712,0.5,0.5,0.5,0.5,0.70270691025695,0.5,0.5,0.5,0.46386518813602,0.650715946391554,0.46386518813602,0.5,0.46386518813602,0.46386518813602,0.49707541890355,0.552873813221029,0.447126186778971,0.6182525532712,0.5,0.440953571772906,0.96206627800506,0.3817474467288,0.0275887443342,0.5,0.0722696237279605,0.960212364097957,11.8573500093306,2.58137789561923,0.5,55.7916356177159
CBC_1001,CBC_1001_MSI_AV_v3_Vset4_Aset2_2023-06-08_11h37.59.527.csv,1,38,3,1,z,0,1,1,aud,B,27,1,3B,1B,0,1,z,1.44698119999975,0,1,1,1,1B,3B,B31,3.27714473299218,0.6458412976054,0.5,0.5,0.5,0.5,0.70270691025695,0.5,0.5,0.5,0.46386518813602,0.650715946391554,0.46386518813602,0.5,0.46386518813602,0.46386518813602,0.49707541890355,0.584271117313878,0.415728882686122,0.70270691025695,0.5,1.36733299649078,0.994306608712364,0.29729308974305,0.021485259732653,0.5,0.0722696237279605,0.960212364097957,11.8573500093306,2.58137789561923,0.5,55.7916356177159
CBC_1001,CBC_1001_MSI_AV_v3_Vset4_Aset2_2023-06-08_11h37.59.527.csv,1,39,2,3,b,1,0,2,aud,C,63,0,2C,3C,0,1,b,2.96182120000003,1,0,1,0,2C,3C,C23,2.60268968544438,0.6458412976054,0.5,0.5,0.5,0.5,0.724192169989603,0.5,0.5,0.5,0.46386518813602,0.650715946391554,0.46386518813602,0.5,0.46386518813602,0.46386518813602,0.49707541890355,0.583821066258551,0.416178933741448,0.650715946391554,0.46386518813602,0.0266786989684794,0.994129671882482,-0.650715946391554,-0.0470269965995014,0.5,0.0722696237279605,0.960212364097957,11.8573500093306,2.58137789561923,0.5,55.7916356177159
CBC_1001,CBC_1001_MSI_AV_v3_Vset4_Aset2_2023-06-08_11h37.59.527.csv,1,40,2,3,z,0,1,3,aud,D,63,1,2D,3D,0,1,b,2.35783190000029,1,0,0,0,2D,3D,D23,2.62103882411258,0.6458412976054,0.5,0.5,0.5,0.5,0.724192169989603,0.5,0.5,0.5,0.46386518813602,0.603688949792053,0.46386518813602,0.5,0.46386518813602,0.46386518813602,0.49707541890355,0.482719935798195,0.517280064201805,0.46386518813602,0.49707541890355,0.0876788062552527,0.25769912884332,-0.46386518813602,-0.0335233626070898,0.5,0.0722696237279605,0.960212364097957,11.8573500093306,2.58137789561923,0.5,55.7916356177159
CBC_1001,CBC_1001_MSI_AV_v3_Vset4_Aset2_2023-06-08_11h37.59.527.csv,1,41,1,0,b,1,0,1,aud,B,63,1,1B,0B,1,0,b,1.19339880000007,1,0,1,1,1B,0B,B10,2.63905732961526,0.6458412976054,0.5,0.5,0.5,0.5,0.724192169989603,0.5,0.5,0.5,0.46386518813602,0.603688949792053,0.46386518813602,0.5,0.46386518813602,0.43034182552893,0.49707541890355,0.591567392557129,0.408432607442871,0.724192169989603,0.5,1.22400382426272,0.996348418755666,0.275807830010397,0.0199325280960767,0.5,0.0722696237279605,0.960212364097957,11.8573500093306,2.58137789561923,0.5,55.7916356177159
CBC_1001,CBC_1001_MSI_AV_v3_Vset4_Aset2_2023-06-08_11h37.59.527.csv,1,42,0,2,b,1,0,0,aud,A,27,1,0A,2A,1,0,b,1.40796890000001,1,0,1,1,0A,2A,A02,3.3499040872746,0.6458412976054,0.5,0.5,0.5,0.5,0.74412469808568,0.5,0.5,0.5,0.46386518813602,0.603688949792053,0.46386518813602,0.5,0.46386518813602,0.43034182552893,0.49707541890355,0.563639396620711,0.436360603379289,0.6458412976054,0.5,1.12731826116224,0.980128324660321,0.3541587023946,0.0255949161620405,0.5,0.0722696237279605,0.960212364097957,11.8573500093306,2.58137789561923,0.5,55.7916356177159
CBC_1001,CBC_1001_MSI_AV_v3_Vset4_Aset2_2023-06-08_11h37.59.527.csv,1,43,0,3,z,0,1,3,aud,D,9,1,0D,3D,0,1,z,2.75495509999973,0,1,1,1,3D,0D,D03,4.06044301054642,0.671436213767441,0.5,0.5,0.5,0.5,0.74412469808568,0.5,0.5,0.5,0.46386518813602,0.603688949792053,0.46386518813602,0.5,0.46386518813602,0.43034182552893,0.49707541890355,0.498533420320568,0.501466579679432,0.49707541890355,0.5,0.119072222016303,0.477129317358885,0.50292458109645,0.0363461702393826,0.5,0.0722696237279605,0.960212364097957,11.8573500093306,2.58137789561923,0.5,55.7916356177159
CBC_1001,CBC_1001_MSI_AV_v3_Vset4_Aset2_2023-06-08_11h37.59.527.csv,1,44,2,3,b,1,0,2,aud,C,63,1,2C,3C,1,0,b,2.48296149999987,1,0,1,1,2C,3C,C23,2.46809953147162,0.671436213767441,0.5,0.5,0.5,0.5,0.74412469808568,0.5,0.5,0.5,0.46386518813602,0.603688949792053,0.46386518813602,0.5,0.46386518813602,0.43034182552893,0.533421589142932,0.565487902059658,0.434512097940342,0.603688949792053,0.46386518813602,0.18045518481757,0.982188468124164,0.396311050207947,0.0286412504777612,0.5,0.0722696237279605,0.960212364097957,11.8573500093306,2.58137789561923,0.5,55.7916356177159
CBC_1001,CBC_1001_MSI_TV_v3_Vset1_Tset1_2023-06-08_11h53.34.814.csv,2,1,1,0,b,1,0,1,tac,B,63,1,1B,0B,1,0,b,1.47302500000069,1,0,1,1,1B,0B,B10,2.77258872223978,0.5,0.5,0.5,0.5,0.5,0.5,0.5,0.5,0.5,0.5,0.5,0.5,0.5,0.5,0.5,0.5,0.5,0.5,0.5,0.5,0.219626179889128,0.499620367110373,0.5,0.0180802513806531,0.5,0.0361605027613061,1.09995314086929,4.81788381467543,2.65256370697111,0.5,75.4280487603763
CBC_1001,CBC_1001_MSI_TV_v3_Vset1_Tset1_2023-06-08_11h53.34.814.csv,2,2,1,0,z,0,1,0,tac,A,63,1,1A,0A,0,1,z,1.61898499999961,0,1,1,1,0A,1A,A10,2.83321334405622,0.5,0.5,0.5,0.5,0.5,0.518080251380653,0.5,0.5,0.5,0.5,0.5,0.5,0.5,0.5,0.5,0.5,0.5,0.5,0.5,0.5,0.259976086878154,0.50011802008304,0.5,0.0180802513806531,0.5,0.0361605027613061,1.09995314086929,4.81788381467543,2.65256370697111,0.5,75.4280487603763
CBC_1001,CBC_1001_MSI_TV_v3_Vset1_Tset1_2023-06-08_11h53.34.814.csv,2,3,3,2,b,1,0,3,tac,D,63,1,3D,2D,1,0,z,2.38288740000053,0,1,0,0,2D,3D,D32,2.89037175789616,0.518080251380653,0.5,0.5,0.5,0.5,0.518080251380653,0.5,0.5,0.5,0.5,0.5,0.5,0.5,0.5,0.5,0.5,0.5,0.5,0.5,0.5,0.181350508606367,0.500519446014166,-0.5,-0.0180802513806531,0.5,0.0361605027613061,1.09995314086929,4.81788381467543,2.65256370697111,0.5,75.4280487603763
CBC_1001,CBC_1001_MSI_TV_v3_Vset1_Tset1_2023-06-08_11h53.34.814.csv,2,4,1,2,b,1,0,1,tac,B,9,1,1B,2B,NaN,NaN,None,NaN,NaN,NaN,NaN,NaN,,,B12,2.94443897916644,0.518080251380653,0.5,0.5,0.5,0.5,0.518080251380653,0.5,0.5,0.5,0.5,0.5,0.5,0.5,0.5,0.481919748619347,0.5,0,0,0,0,NaN,0,0,0,0.5,0.0361605027613061,1.09995314086929,4.81788381467543,2.65256370697111,0.5,75.4280487603763
CBC_1001,CBC_1001_MSI_TV_v3_Vset1_Tset1_2023-06-08_11h53.34.814.csv,2,5,2,0,z,0,1,0,tac,A,27,1,2A,0A,0,1,z,2.56436939999958,0,1,1,1,0A,2A,A20,2.99573227355399,0.518080251380653,0.5,0.5,0.5,0.5,0.518080251380653,0.5,0.5,0.5,0.5,0.5,0.5,0.5,0.5,0.481919748619347,0.5,0.508879580640197,0.491120419359803,0.518080251380653,0.5,0.177942472570989,0.55638632172707,0.481919748619347,0.0174264604006778,0.5,0.0361605027613061,1.09995314086929,4.81788381467543,2.65256370697111,0.5,75.4280487603763
CBC_1001,CBC_1001_MSI_TV_v3_Vset1_Tset1_2023-06-08_11h53.34.814.csv,2,6,3,2,z,0,1,2,tac,C,63,1,3C,2C,0,1,b,3.33090360000051,1,0,0,0,3C,2C,C32,3.04452243772342,0.535506711781331,0.5,0.5,0.5,0.5,0.518080251380653,0.5,0.5,0.5,0.5,0.5,0.5,0.5,0.5,0.481919748619347,0.5,0.5,0.5,0.5,0.5,0.0935095914839205,0.500666589994658,-0.5,-0.0180802513806531,0.5,0.0361605027613061,1.09995314086929,4.81788381467543,2.65256370697111,0.5,75.4280487603763
CBC_1001,CBC_1001_MSI_TV_v3_Vset1_Tset1_2023-06-08_11h53.34.814.csv,2,7,3,1,b,1,0,3,tac,D,27,1,3D,1D,1,0,z,2.33253970000032,0,1,0,0,1D,3D,D31,3.09104245335832,0.535506711781331,0.5,0.5,0.5,0.5,0.518080251380653,0.5,0.5,0.5,0.5,0.5,0.481919748619347,0.5,0.5,0.481919748619347,0.5,0.5,0.5,0.5,0.5,0.187489370384634,0.499875815434277,-0.5,-0.0180802513806531,0.5,0.0361605027613061,1.09995314086929,4.81788381467543,2.65256370697111,0.5,75.4280487603763
CBC_1001,CBC_1001_MSI_TV_v3_Vset1_Tset1_2023-06-08_11h53.34.814.csv,2,8,0,1,b,1,0,0,tac,A,63,1,0A,1A,1,0,b,2.34114360000012,1,0,1,1,0A,1A,A01,3.13549421592915,0.535506711781331,0.5,0.5,0.5,0.5,0.518080251380653,0.5,0.5,0.5,0.5,0.5,0.481919748619347,0.5,0.481919748619347,0.481919748619347,0.5,0.517144607262009,0.482855392737991,0.535506711781331,0.5,0.228299471418808,0.608065704028359,0.464493288218669,0.0167963108312393,0.5,0.0361605027613061,1.09995314086929,4.81788381467543,2.65256370697111,0.5,75.4280487603763
CBC_1001,CBC_1001_MSI_TV_v3_Vset1_Tset1_2023-06-08_11h53.34.814.csv,2,9,0,2,z,0,1,2,tac,C,27,1,0C,2C,0,1,z,3.4135411000002,0,1,1,1,2C,0C,C02,3.17805383034795,0.55230302261257,0.5,0.5,0.5,0.5,0.518080251380653,0.5,0.5,0.5,0.5,0.5,0.481919748619347,0.5,0.481919748619347,0.481919748619347,0.5,0.5,0.5,0.5,0.5,0.0881748378368497,0.50027202336474,0.5,0.0180802513806531,0.5,0.0361605027613061,1.09995314086929,4.81788381467543,2.65256370697111,0.5,75.4280487603763
CBC_1001,CBC_1001_MSI_TV_v3_Vset1_Tset1_2023-06-08_11h53.34.814.csv,2,10,3,2,b,1,0,3,tac,D,63,1,3D,2D,1,0,b,3.37501769999972,1,0,1,1,3D,2D,D32,2.52572864430826,0.55230302261257,0.5,0.5,0.5,0.5,0.518080251380653,0.5,0.5,0.5,0.5,0.518080251380653,0.481919748619347,0.5,0.481919748619347,0.481919748619347,0.5,0.50920658302579,0.49079341697421,0.5,0.481919748619347,0.1009451365503,0.558603683503756,0.5,0.0180802513806531,0.5,0.0361605027613061,1.09995314086929,4.81788381467543,2.65256370697111,0.5,75.4280487603763
CBC_1001,CBC_1001_MSI_TV_v3_Vset1_Tset1_2023-06-08_11h53.34.814.csv,2,11,0,1,z,0,1,1,tac,B,63,0,0B,1B,1,0,b,3.06084520000013,1,0,0,1,0B,1B,B01,3.25809653802148,0.55230302261257,0.5,0.5,0.5,0.5,0.518080251380653,0.5,0.5,0.5,0.5,0.518080251380653,0.481919748619347,0.5,0.481919748619347,0.481919748619347,0.518080251380653,0.491120419359803,0.508879580640197,0.5,0.518080251380653,0.100027151236255,0.443502136633806,0.5,0.0180802513806531,0.5,0.0361605027613061,1.09995314086929,4.81788381467543,2.65256370697111,0.5,75.4280487603763
CBC_1001,CBC_1001_MSI_TV_v3_Vset1_Tset1_2023-06-08_11h53.34.814.csv,2,12,1,0,z,0,1,0,tac,A,63,1,1A,0A,0,1,b,2.5656597000002,1,0,0,0,1A,0A,A10,2.60268968544438,0.55230302261257,0.5,0.5,0.5,0.518080251380653,0.518080251380653,0.5,0.5,0.5,0.5,0.518080251380653,0.481919748619347,0.5,0.481919748619347,0.481919748619347,0.518080251380653,0.475148307337027,0.524851692662973,0.5,0.55230302261257,0.111598611259772,0.347008806669502,-0.5,-0.0180802513806531,0.5,0.0361605027613061,1.09995314086929,4.81788381467543,2.65256370697111,0.5,75.4280487603763
CBC_1001,CBC_1001_MSI_TV_v3_Vset1_Tset1_2023-06-08_11h53.34.814.csv,2,13,3,2,b,1,0,3,tac,D,63,1,3D,2D,1,0,z,2.95413549999967,0,1,0,0,2D,3D,D32,2.23359222150709,0.55230302261257,0.481919748619347,0.5,0.5,0.518080251380653,0.518080251380653,0.5,0.5,0.5,0.5,0.518080251380653,0.481919748619347,0.5,0.481919748619347,0.481919748619347,0.518080251380653,0.481919748619347,0.518080251380653,0.481919748619347,0.518080251380653,0.0938506180033247,0.386483985141587,-0.481919748619347,-0.0174264604006778,0.5,0.0361605027613061,1.09995314086929,4.81788381467543,2.65256370697111,0.5,75.4280487603763
CBC_1001,CBC_1001_MSI_TV_v3_Vset1_Tset1_2023-06-08_11h53.34.814.csv,2,14,0,2,z,0,1,2,tac,C,27,1,0C,2C,0,1,b,2.62160820000054,1,0,0,0,0C,2C,C02,2.67414864942653,0.55230302261257,0.481919748619347,0.5,0.5,0.518080251380653,0.518080251380653,0.5,0.5,0.5,0.5,0.518080251380653,0.481919748619347,0.5,0.481919748619347,0.464493288218669,0.518080251380653,0.491120419359803,0.508879580640197,0.5,0.518080251380653,0.136045550065838,0.442791121180721,-0.5,-0.0180802513806531,0.5,0.0361605027613061,1.09995314086929,4.81788381467543,2.65256370697111,0.5,75.4280487603763
CBC_1001,CBC_1001_MSI_TV_v3_Vset1_Tset1_2023-06-08_11h53.34.814.csv,2,15,1,0,z,0,1,0,tac,A,63,1,1A,0A,0,1,b,2.59557020000057,1,0,0,0,1A,0A,A10,2.30258509299405,0.55230302261257,0.481919748619347,0.5,0.5,0.518080251380653,0.518080251380653,0.5,0.5,0.481919748619347,0.5,0.518080251380653,0.481919748619347,0.5,0.481919748619347,0.464493288218669,0.518080251380653,0.465972865831708,0.534027134168292,0.481919748619347,0.55230302261257,0.0934294976364874,0.295515476024368,-0.481919748619347,-0.0174264604006778,0.5,0.0361605027613061,1.09995314086929,4.81788381467543,2.65256370697111,0.5,75.4280487603763
CBC_1001,CBC_1001_MSI_TV_v3_Vset1_Tset1_2023-06-08_11h53.34.814.csv,2,16,3,1,z,0,1,1,tac,B,27,1,3B,1B,0,1,z,2.52995490000058,0,1,1,1,1B,3B,B31,3.43398720448515,0.55230302261257,0.464493288218669,0.5,0.5,0.518080251380653,0.518080251380653,0.5,0.5,0.481919748619347,0.5,0.518080251380653,0.481919748619347,0.5,0.481919748619347,0.464493288218669,0.518080251380653,0.508879580640197,0.491120419359803,0.518080251380653,0.5,0.182593986507765,0.557319478749364,0.481919748619347,0.0174264604006778,0.5,0.0361605027613061,1.09995314086929,4.81788381467543,2.65256370697111,0.5,75.4280487603763
CBC_1001,CBC_1001_MSI_TV_v3_Vset1_Tset1_2023-06-08_11h53.34.814.csv,2,17,2,3,b,1,0,2,tac,C,63,1,2C,3C,1,0,b,2.9325472000005,1,0,1,1,2C,3C,C23,3.46573590279973,0.55230302261257,0.464493288218669,0.5,0.5,0.518080251380653,0.535506711781331,0.5,0.5,0.481919748619347,0.5,0.518080251380653,0.481919748619347,0.5,0.481919748619347,0.464493288218669,0.518080251380653,0.518080251380653,0.481919748619347,0.518080251380653,0.481919748619347,0.15140073377604,0.61392398705716,0.481919748619347,0.0174264604006778,0.5,0.0361605027613061,1.09995314086929,4.81788381467543,2.65256370697111,0.5,75.4280487603763
CBC_1001,CBC_1001_MSI_TV_v3_Vset1_Tset1_2023-06-08_11h53.34.814.csv,2,18,3,2,b,1,0,3,tac,D,63,0,3D,2D,NaN,NaN,None,NaN,NaN,NaN,NaN,NaN,,,D32,2.11021320034659,0.55230302261257,0.464493288218669,0.5,0.5,0.518080251380653,0.535506711781331,0.5,0.5,0.481919748619347,0.5,0.535506711781331,0.481919748619347,0.5,0.481919748619347,0.464493288218669,0.518080251380653,0,0,0,0,NaN,0,0,0,0.5,0.0361605027613061,1.09995314086929,4.81788381467543,2.65256370697111,0.5,75.4280487603763
CBC_1001,CBC_1001_MSI_TV_v3_Vset1_Tset1_2023-06-08_11h53.34.814.csv,2,19,0,1,z,0,1,1,tac,B,63,1,0B,1B,0,1,z,2.36990699999978,0,1,1,1,1B,0B,B01,2.83321334405622,0.55230302261257,0.464493288218669,0.5,0.5,0.518080251380653,0.535506711781331,0.5,0.5,0.481919748619347,0.5,0.535506711781331,0.481919748619347,0.5,0.481919748619347,0.464493288218669,0.518080251380653,0.508270062657371,0.491729937342629,0.535506711781331,0.518080251380653,0.202208908649093,0.552283317118808,0.464493288218669,0.0167963108312393,0.5,0.0361605027613061,1.09995314086929,4.81788381467543,2.65256370697111,0.5,75.4280487603763
CBC_1001,CBC_1001_MSI_TV_v3_Vset1_Tset1_2023-06-08_11h53.34.814.csv,2,20,0,2,b,1,0,0,tac,A,27,1,0A,2A,1,0,b,2.4699942000002,1,0,1,1,0A,2A,A02,3.55534806148941,0.55230302261257,0.464493288218669,0.5,0.5,0.518080251380653,0.55230302261257,0.5,0.5,0.481919748619347,0.5,0.535506711781331,0.481919748619347,0.5,0.481919748619347,0.464493288218669,0.518080251380653,0.524851692662973,0.475148307337027,0.55230302261257,0.5,0.225356334081964,0.653785249244321,0.44769697738743,0.0161889477870466,0.5,0.0361605027613061,1.09995314086929,4.81788381467543,2.65256370697111,0.5,75.4280487603763
CBC_1001,CBC_1001_MSI_TV_v3_Vset1_Tset1_2023-06-08_11h53.34.814.csv,2,21,3,0,b,1,0,3,tac,D,9,1,3D,0D,1,0,b,3.05295680000063,1,0,1,1,3D,0D,D30,3.58351893845611,0.568491970399617,0.464493288218669,0.5,0.5,0.518080251380653,0.55230302261257,0.5,0.5,0.481919748619347,0.5,0.535506711781331,0.481919748619347,0.5,0.481919748619347,0.464493288218669,0.518080251380653,0.508879580640197,0.491120419359803,0.518080251380653,0.5,0.126147995901479,0.556212303952688,0.481919748619347,0.0174264604006778,0.5,0.0361605027613061,1.09995314086929,4.81788381467543,2.65256370697111,0.5,75.4280487603763
CBC_1001,CBC_1001_MSI_TV_v3_Vset1_Tset1_2023-06-08_11h53.34.814.csv,2,22,3,2,z,0,1,2,tac,C,63,1,3C,2C,0,1,z,2.24072060000026,0,1,1,1,2C,3C,C32,2.91777073208428,0.568491970399617,0.464493288218669,0.5,0.5,0.518080251380653,0.55230302261257,0.5,0.5,0.481919748619347,0.5,0.535506711781331,0.481919748619347,0.5,0.481919748619347,0.464493288218669,0.535506711781331,0.526334563355508,0.473665436644492,0.535506711781331,0.481919748619347,0.269197103162589,0.66177737413403,0.464493288218669,0.0167963108312393,0.5,0.0361605027613061,1.09995314086929,4.81788381467543,2.65256370697111,0.5,75.4280487603763
CBC_1001,CBC_1001_MSI_TV_v3_Vset1_Tset1_2023-06-08_11h53.34.814.csv,2,23,1,3,b,1,0,1,tac,B,27,1,1B,3B,1,0,b,2.47497290000001,1,0,1,1,1B,3B,B13,3.63758615972639,0.568491970399617,0.464493288218669,0.5,0.5,0.518080251380653,0.55230302261257,0.5,0.5,0.481919748619347,0.5,0.55230302261257,0.481919748619347,0.5,0.481919748619347,0.464493288218669,0.535506711781331,0.524851692662973,0.475148307337027,0.55230302261257,0.5,0.224479728080496,0.653604196829221,0.44769697738743,0.0161889477870466,0.5,0.0361605027613061,1.09995314086929,4.81788381467543,2.65256370697111,0.5,75.4280487603763
CBC_1001,CBC_1001_MSI_TV_v3_Vset1_Tset1_2023-06-08_11h53.34.814.csv,2,24,2,3,b,1,0,2,tac,C,63,1,2C,3C,1,0,z,2.54615030000014,0,1,0,0,3C,2C,C23,2.9704144655697,0.568491970399617,0.464493288218669,0.5,0.5,0.518080251380653,0.568491970399617,0.5,0.5,0.481919748619347,0.5,0.55230302261257,0.481919748619347,0.5,0.481919748619347,0.464493288218669,0.535506711781331,0.465972865831708,0.534027134168292,0.481919748619347,0.55230302261257,0.0969926551121423,0.295618054656755,-0.481919748619347,-0.0174264604006778,0.5,0.0361605027613061,1.09995314086929,4.81788381467543,2.65256370697111,0.5,75.4280487603763
CBC_1001,CBC_1001_MSI_TV_v3_Vset1_Tset1_2023-06-08_11h53.34.814.csv,2,25,3,2,b,1,0,3,tac,D,63,1,3D,2D,1,0,b,2.97116570000026,1,0,1,1,3D,2D,D32,2.07944154167984,0.568491970399617,0.464493288218669,0.5,0.5,0.518080251380653,0.568491970399617,0.5,0.5,0.481919748619347,0.5,0.55230302261257,0.464493288218669,0.5,0.481919748619347,0.464493288218669,0.535506711781331,0.535506711781331,0.464493288218669,0.535506711781331,0.464493288218669,0.169695961244591,0.71312587143657,0.464493288218669,0.0167963108312393,0.5,0.0361605027613061,1.09995314086929,4.81788381467543,2.65256370697111,0.5,75.4280487603763
CBC_1001,CBC_1001_MSI_TV_v3_Vset1_Tset1_2023-06-08_11h53.34.814.csv,2,26,0,1,z,0,1,1,tac,B,63,1,0B,1B,0,1,b,2.71671500000002,1,0,0,0,0B,1B,B01,2.6149597780362,0.568491970399617,0.464493288218669,0.5,0.5,0.518080251380653,0.568491970399617,0.5,0.5,0.481919748619347,0.5,0.55230302261257,0.464493288218669,0.5,0.481919748619347,0.464493288218669,0.55230302261257,0.476802407604178,0.523197592395822,0.518080251380653,0.568491970399617,0.102407241737405,0.355477272951222,-0.518080251380653,-0.0187340423606283,0.5,0.0361605027613061,1.09995314086929,4.81788381467543,2.65256370697111,0.5,75.4280487603763
CBC_1001,CBC_1001_MSI_TV_v3_Vset1_Tset1_2023-06-08_11h53.34.814.csv,2,27,3,0,z,0,1,0,tac,A,9,1,3A,0A,0,1,b,1.99343550000003,1,0,0,0,3A,0A,A30,3.73766961828337,0.568491970399617,0.464493288218669,0.5,0.5,0.499346209020025,0.568491970399617,0.5,0.5,0.481919748619347,0.5,0.55230302261257,0.464493288218669,0.5,0.481919748619347,0.464493288218669,0.55230302261257,0.467949234857609,0.532050765142391,0.5,0.568491970399617,0.149076111905154,0.306648585653812,-0.5,-0.0180802513806531,0.5,0.0361605027613061,1.09995314086929,4.81788381467543,2.65256370697111,0.5,75.4280487603763
CBC_1001,CBC_1001_MSI_TV_v3_Vset1_Tset1_2023-06-08_11h53.34.814.csv,2,28,3,2,b,1,0,3,tac,D,63,1,3D,2D,1,0,z,2.72957930000075,0,1,0,0,2D,3D,D32,1.96944064646551,0.568491970399617,0.464493288218669,0.5,0.481919748619347,0.499346209020025,0.568491970399617,0.5,0.5,0.481919748619347,0.5,0.55230302261257,0.464493288218669,0.5,0.481919748619347,0.464493288218669,0.55230302261257,0.456820390938419,0.543179609061581,0.464493288218669,0.55230302261257,0.0713737992458988,0.249712687396833,-0.464493288218669,-0.0167963108312393,0.5,0.0361605027613061,1.09995314086929,4.81788381467543,2.65256370697111,0.5,75.4280487603763
CBC_1001,CBC_1001_MSI_TV_v3_Vset1_Tset1_2023-06-08_11h53.34.814.csv,2,29,0,2,z,0,1,2,tac,C,27,1,0C,2C,0,1,b,4.16821710000067,1,0,0,0,0C,2C,C02,2.68557734525015,0.568491970399617,0.464493288218669,0.5,0.481919748619347,0.499346209020025,0.568491970399617,0.5,0.5,0.481919748619347,0.5,0.55230302261257,0.464493288218669,0.5,0.481919748619347,0.44769697738743,0.55230302261257,0.465972865831708,0.534027134168292,0.481919748619347,0.55230302261257,0.0285372130206333,0.295669454737597,-0.481919748619347,-0.0174264604006778,0.5,0.0361605027613061,1.09995314086929,4.81788381467543,2.65256370697111,0.5,75.4280487603763
CBC_1001,CBC_1001_MSI_TV_v3_Vset1_Tset1_2023-06-08_11h53.34.814.csv,2,30,0,1,b,1,0,0,tac,A,63,0,0A,1A,0,1,b,3.2208958999995,1,0,1,0,0A,1A,A01,3.11351530921037,0.568491970399617,0.464493288218669,0.5,0.481919748619347,0.499346209020025,0.568491970399617,0.5,0.5,0.464493288218669,0.5,0.55230302261257,0.464493288218669,0.5,0.481919748619347,0.44769697738743,0.55230302261257,0.550338899472804,0.449661100527196,0.568491970399617,0.464493288218669,0.149543844508449,0.783425051400005,-0.568491970399617,-0.0205569554654157,0.5,0.0361605027613061,1.09995314086929,4.81788381467543,2.65256370697111,0.5,75.4280487603763
CBC_1001,CBC_1001_MSI_TV_v3_Vset1_Tset1_2023-06-08_11h53.34.814.csv,2,31,0,1,z,0,1,1,tac,B,63,1,0B,1B,0,1,z,2.92884339999955,0,1,1,1,1B,0B,B01,2.4423470353692,0.547935014934201,0.464493288218669,0.5,0.481919748619347,0.499346209020025,0.568491970399617,0.5,0.5,0.464493288218669,0.5,0.55230302261257,0.464493288218669,0.5,0.481919748619347,0.44769697738743,0.55230302261257,0.532376516738319,0.467623483261681,0.568491970399617,0.499346209020025,0.171085094028719,0.694920874824582,0.431508029600383,0.0156035472958904,0.5,0.0361605027613061,1.09995314086929,4.81788381467543,2.65256370697111,0.5,75.4280487603763
CBC_1001,CBC_1001_MSI_TV_v3_Vset1_Tset1_2023-06-08_11h53.34.814.csv,2,32,1,3,z,0,1,3,tac,D,27,1,1D,3D,0,1,b,2.2916708000007,1,0,0,0,1D,3D,D13,3.85014760171006,0.547935014934201,0.464493288218669,0.5,0.481919748619347,0.499346209020025,0.584095517695507,0.5,0.5,0.464493288218669,0.5,0.55230302261257,0.464493288218669,0.5,0.481919748619347,0.44769697738743,0.55230302261257,0.465972865831708,0.534027134168292,0.481919748619347,0.55230302261257,0.117106277214719,0.295355922718457,-0.481919748619347,-0.0174264604006778,0.5,0.0361605027613061,1.09995314086929,4.81788381467543,2.65256370697111,0.5,75.4280487603763
CBC_1001,CBC_1001_MSI_TV_v3_Vset1_Tset1_2023-06-08_11h53.34.814.csv,2,33,2,3,b,1,0,2,tac,C,63,1,2C,3C,1,0,b,3.4357827000008,1,0,1,1,2C,3C,C23,2.77258872223978,0.547935014934201,0.464493288218669,0.5,0.481919748619347,0.499346209020025,0.584095517695507,0.5,0.5,0.464493288218669,0.5,0.55230302261257,0.464493288218669,0.5,0.464493288218669,0.44769697738743,0.55230302261257,0.543179609061581,0.456820390938419,0.55230302261257,0.464493288218669,0.123000971499501,0.750065331181306,0.44769697738743,0.0161889477870466,0.5,0.0361605027613061,1.09995314086929,4.81788381467543,2.65256370697111,0.5,75.4280487603763
CBC_1001,CBC_1001_MSI_TV_v3_Vset1_Tset1_2023-06-08_11h53.34.814.csv,2,34,0,1,z,0,1,1,tac,B,63,1,0B,1B,0,1,z,2.29848319999974,0,1,1,1,1B,0B,B01,2.28238238567653,0.547935014934201,0.464493288218669,0.5,0.481919748619347,0.499346209020025,0.584095517695507,0.5,0.5,0.464493288218669,0.5,0.568491970399617,0.464493288218669,0.5,0.464493288218669,0.44769697738743,0.55230302261257,0.539111152259384,0.460888847740616,0.584095517695507,0.499346209020025,0.290527589269599,0.730844521546415,0.415904482304493,0.0150393151808112,0.5,0.0361605027613061,1.09995314086929,4.81788381467543,2.65256370697111,0.5,75.4280487603763
CBC_1001,CBC_1001_MSI_TV_v3_Vset1_Tset1_2023-06-08_11h53.34.814.csv,2,35,1,0,z,0,1,0,tac,A,63,1,1A,0A,0,1,z,1.66613030000053,0,1,1,1,0A,1A,A10,2.52572864430826,0.547935014934201,0.464493288218669,0.5,0.481919748619347,0.499346209020025,0.599134832876319,0.5,0.5,0.464493288218669,0.5,0.568491970399617,0.464493288218669,0.5,0.464493288218669,0.44769697738743,0.55230302261257,0.54120870902941,0.45879129097059,0.547935014934201,0.464493288218669,0.42498031217982,0.740943820684872,0.452064985065799,0.0163468971407616,0.5,0.0361605027613061,1.09995314086929,4.81788381467543,2.65256370697111,0.5,75.4280487603763
CBC_1001,CBC_1001_MSI_TV_v3_Vset1_Tset1_2023-06-08_11h53.34.814.csv,2,36,2,1,b,1,0,2,tac,C,9,1,2C,1C,1,0,b,2.28756480000038,1,0,1,1,2C,1C,C21,3.93182563272433,0.564281912074963,0.464493288218669,0.5,0.481919748619347,0.499346209020025,0.599134832876319,0.5,0.5,0.464493288218669,0.5,0.568491970399617,0.464493288218669,0.5,0.464493288218669,0.44769697738743,0.55230302261257,0.532050765142391,0.467949234857609,0.568491970399617,0.5,0.275636712965041,0.694925383709261,0.431508029600383,0.0156035472958904,0.5,0.0361605027613061,1.09995314086929,4.81788381467543,2.65256370697111,0.5,75.4280487603763
CBC_1001,CBC_1001_MSI_TV_v3_Vset1_Tset1_2023-06-08_11h53.34.814.csv,2,37,0,1,b,1,0,0,tac,A,63,1,0A,1A,1,0,b,2.02986720000035,1,0,1,1,0A,1A,A01,2.85263142991332,0.564281912074963,0.464493288218669,0.5,0.481919748619347,0.499346209020025,0.599134832876319,0.5,0.5,0.464493288218669,0.5,0.584095517695507,0.464493288218669,0.5,0.464493288218669,0.44769697738743,0.55230302261257,0.548498750663805,0.451501249336195,0.564281912074963,0.464493288218669,0.383337252907055,0.774364189827453,0.435718087925037,0.0157557851215643,0.5,0.0361605027613061,1.09995314086929,4.81788381467543,2.65256370697111,0.5,75.4280487603763
CBC_1001,CBC_1001_MSI_TV_v3_Vset1_Tset1_2023-06-08_11h53.34.814.csv,2,38,1,3,z,0,1,3,tac,D,27,1,1D,3D,0,1,b,1.94946610000034,1,0,0,0,1D,3D,D13,3.27714473299218,0.580037697196527,0.464493288218669,0.5,0.481919748619347,0.499346209020025,0.599134832876319,0.5,0.5,0.464493288218669,0.5,0.584095517695507,0.464493288218669,0.5,0.464493288218669,0.44769697738743,0.55230302261257,0.456820390938419,0.543179609061581,0.464493288218669,0.55230302261257,0.128738130623687,0.250054986340378,-0.464493288218669,-0.0167963108312393,0.5,0.0361605027613061,1.09995314086929,4.81788381467543,2.65256370697111,0.5,75.4280487603763
CBC_1001,CBC_1001_MSI_TV_v3_Vset1_Tset1_2023-06-08_11h53.34.814.csv,2,39,1,0,b,1,0,1,tac,B,63,1,1B,0B,1,0,b,3.06466469999987,1,0,1,1,1B,0B,B10,3.29583686600433,0.580037697196527,0.464493288218669,0.5,0.481919748619347,0.499346209020025,0.599134832876319,0.5,0.5,0.464493288218669,0.5,0.584095517695507,0.464493288218669,0.5,0.44769697738743,0.44769697738743,0.55230302261257,0.545421186188168,0.454578813811832,0.599134832876319,0.499346209020025,0.166748203058159,0.762296091061053,0.400865167123681,0.0144954859826873,0.5,0.0361605027613061,1.09995314086929,4.81788381467543,2.65256370697111,0.5,75.4280487603763
CBC_1001,CBC_1001_MSI_TV_v3_Vset1_Tset1_2023-06-08_11h53.34.814.csv,2,40,3,2,z,0,1,2,tac,C,63,0,3C,2C,1,0,z,1.99799059999941,0,1,1,0,2C,3C,C32,2.90872089656436,0.580037697196527,0.464493288218669,0.5,0.481919748619347,0.499346209020025,0.613630318859006,0.5,0.5,0.464493288218669,0.5,0.584095517695507,0.464493288218669,0.5,0.44769697738743,0.44769697738743,0.55230302261257,0.557030090728733,0.442969909271267,0.584095517695507,0.464493288218669,0.422385554546453,0.811531166186847,-0.584095517695507,-0.0211211875804949,0.5,0.0361605027613061,1.09995314086929,4.81788381467543,2.65256370697111,0.5,75.4280487603763
CBC_1001,CBC_1001_MSI_TV_v3_Vset1_Tset1_2023-06-08_11h53.34.814.csv,2,41,0,2,b,1,0,0,tac,A,27,1,0A,2A,1,0,b,1.6262128000003,1,0,1,1,0A,2A,A02,3.3322045101752,0.580037697196527,0.464493288218669,0.5,0.481919748619347,0.499346209020025,0.613630318859006,0.5,0.5,0.464493288218669,0.5,0.562974330115012,0.464493288218669,0.5,0.44769697738743,0.44769697738743,0.55230302261257,0.537053196108007,0.462946803891993,0.580037697196527,0.5,0.405182700862378,0.721212369327955,0.419962302803473,0.0151860480101695,0.5,0.0361605027613061,1.09995314086929,4.81788381467543,2.65256370697111,0.5,75.4280487603763
CBC_1001,CBC_1001_MSI_TV_v3_Vset1_Tset1_2023-06-08_11h53.34.814.csv,2,42,2,3,z,0,1,3,tac,D,63,1,2D,3D,0,1,z,2.74069949999966,0,1,1,1,3D,2D,D23,4.04305126783455,0.595223745206697,0.464493288218669,0.5,0.481919748619347,0.499346209020025,0.613630318859006,0.5,0.5,0.464493288218669,0.5,0.562974330115012,0.464493288218669,0.5,0.44769697738743,0.44769697738743,0.55230302261257,0.55230302261257,0.44769697738743,0.55230302261257,0.44769697738743,0.223734523889759,0.791993847856209,0.44769697738743,0.0161889477870466,0.5,0.0361605027613061,1.09995314086929,4.81788381467543,2.65256370697111,0.5,75.4280487603763
CBC_1001,CBC_1001_MSI_TV_v3_Vset1_Tset1_2023-06-08_11h53.34.814.csv,2,43,1,3,b,1,0,1,tac,B,27,1,1B,3B,1,0,b,2.36596080000027,1,0,1,1,1B,3B,B13,3.36729582998647,0.595223745206697,0.464493288218669,0.5,0.481919748619347,0.499346209020025,0.613630318859006,0.5,0.5,0.464493288218669,0.5,0.562974330115012,0.464493288218669,0.5,0.44769697738743,0.44769697738743,0.568491970399617,0.551017971105271,0.448982028894729,0.613630318859006,0.5,0.301687347456338,0.786082780720825,0.386369681140994,0.0139713219217839,0.5,0.0361605027613061,1.09995314086929,4.81788381467543,2.65256370697111,0.5,75.4280487603763
CBC_1001,CBC_1001_MSI_TV_v3_Vset1_Tset1_2023-06-08_11h53.34.814.csv,2,44,3,2,z,0,1,2,tac,C,63,1,3C,2C,0,1,z,2.1833700000002,0,1,1,1,2C,3C,C32,2.69124308278583,0.595223745206697,0.464493288218669,0.5,0.481919748619347,0.499346209020025,0.62760164078079,0.5,0.5,0.464493288218669,0.5,0.562974330115012,0.464493288218669,0.5,0.44769697738743,0.44769697738743,0.568491970399617,0.547924158454773,0.452075841545227,0.562974330115012,0.464493288218669,0.340690487668687,0.772565470677812,0.437025669884988,0.0158030679426377,0.5,0.0361605027613061,1.09995314086929,4.81788381467543,2.65256370697111,0.5,75.4280487603763
CBC_1001,CBC_1001_MSI_AV_v3_Vset6_Aset1_2023-06-08_12h45.15.645.csv,3,1,1,0,z,0,1,0,aud,A,63,1,1A,0A,0,1,b,2.09499780000078,1,0,0,0,1A,0A,A10,2.77258872223978,0.5,0.5,0.5,0.5,0.5,0.5,0.5,0.5,0.5,0.5,0.5,0.5,0.5,0.5,0.5,0.5,0.5,0.5,0.5,0.5,0.196183448235529,0.500567124251322,-0.5,-0.049270423929639,0.5,0.098540847859278,1.09973802307867,6.64105998728575,2.9825953522044,0.5,56.7286608353988
CBC_1001,CBC_1001_MSI_AV_v3_Vset6_Aset1_2023-06-08_12h45.15.645.csv,3,2,3,2,b,1,0,3,aud,D,63,1,3D,2D,1,0,b,2.02259850000064,1,0,1,1,3D,2D,D32,2.83321334405622,0.5,0.450729576070361,0.5,0.5,0.5,0.5,0.5,0.5,0.5,0.5,0.5,0.5,0.5,0.5,0.5,0.5,0.5,0.5,0.5,0.5,0.201361765364515,0.500675941618295,0.5,0.049270423929639,0.5,0.098540847859278,1.09973802307867,6.64105998728575,2.9825953522044,0.5,56.7286608353988
CBC_1001,CBC_1001_MSI_AV_v3_Vset6_Aset1_2023-06-08_12h45.15.645.csv,3,3,2,0,b,1,0,2,aud,C,27,1,2C,0C,1,0,b,2.43564229999993,1,0,1,1,2C,0C,C20,2.89037175789616,0.5,0.450729576070361,0.5,0.5,0.5,0.5,0.5,0.5,0.5,0.5,0.5,0.5,0.5,0.5,0.5,0.549270423929639,0.5,0.5,0.5,0.5,0.166868088848222,0.499695332245482,0.5,0.049270423929639,0.5,0.098540847859278,1.09973802307867,6.64105998728575,2.9825953522044,0.5,56.7286608353988
CBC_1001,CBC_1001_MSI_AV_v3_Vset6_Aset1_2023-06-08_12h45.15.645.csv,3,4,1,0,z,0,1,0,aud,A,63,1,1A,0A,0,1,z,2.69116349999967,0,1,1,1,0A,1A,A10,2.2512917986065,0.5,0.450729576070361,0.5,0.5,0.5,0.5,0.5,0.5,0.5,0.5,0.549270423929639,0.5,0.5,0.5,0.5,0.549270423929639,0.525911902379901,0.474088097620099,0.5,0.450729576070361,0.221265499805572,0.735531193690902,0.5,0.049270423929639,0.5,0.098540847859278,1.09973802307867,6.64105998728575,2.9825953522044,0.5,56.7286608353988
CBC_1001,CBC_1001_MSI_AV_v3_Vset6_Aset1_2023-06-08_12h45.15.645.csv,3,5,3,1,z,0,1,1,aud,B,27,1,3B,1B,0,1,z,2.31908350000049,0,1,1,1,1B,3B,B31,2.99573227355399,0.549270423929639,0.450729576070361,0.5,0.5,0.5,0.5,0.5,0.5,0.5,0.5,0.549270423929639,0.5,0.5,0.5,0.5,0.549270423929639,0.5,0.5,0.5,0.5,0.177310305388519,0.500449467916537,0.5,0.049270423929639,0.5,0.098540847859278,1.09973802307867,6.64105998728575,2.9825953522044,0.5,56.7286608353988
CBC_1001,CBC_1001_MSI_AV_v3_Vset6_Aset1_2023-06-08_12h45.15.645.csv,3,6,2,3,b,1,0,2,aud,C,63,1,2C,3C,1,0,b,1.85020870000062,1,0,1,1,2C,3C,C23,3.04452243772342,0.549270423929639,0.450729576070361,0.5,0.5,0.5,0.549270423929639,0.5,0.5,0.5,0.5,0.549270423929639,0.5,0.5,0.5,0.5,0.549270423929639,0.523478420246096,0.476521579753904,0.549270423929639,0.5,0.319219015244364,0.717100054262146,0.450729576070361,0.0444152745812263,0.5,0.098540847859278,1.09973802307867,6.64105998728575,2.9825953522044,0.5,56.7286608353988
CBC_1001,CBC_1001_MSI_AV_v3_Vset6_Aset1_2023-06-08_12h45.15.645.csv,3,7,2,3,z,0,1,3,aud,D,63,0,2D,3D,1,0,z,2.00592620000043,0,1,1,0,3D,2D,D23,3.09104245335832,0.549270423929639,0.450729576070361,0.5,0.5,0.5,0.549270423929639,0.5,0.5,0.5,0.5,0.593685698510865,0.5,0.5,0.5,0.5,0.549270423929639,0.523478420246096,0.476521579753904,0.549270423929639,0.5,0.308329876605177,0.717706340529357,-0.549270423929639,-0.0541255732780517,0.5,0.098540847859278,1.09973802307867,6.64105998728575,2.9825953522044,0.5,56.7286608353988
CBC_1001,CBC_1001_MSI_AV_v3_Vset6_Aset1_2023-06-08_12h45.15.645.csv,3,8,1,0,b,1,0,1,aud,B,63,1,1B,0B,1,0,z,2.63332570000057,0,1,0,0,0B,1B,B10,3.13549421592915,0.549270423929639,0.450729576070361,0.5,0.5,0.5,0.549270423929639,0.5,0.5,0.5,0.5,0.593685698510865,0.5,0.5,0.5,0.5,0.495144850651587,0.476521579753904,0.523478420246096,0.5,0.549270423929639,0.0877542074056074,0.283308155996562,-0.5,-0.049270423929639,0.5,0.098540847859278,1.09973802307867,6.64105998728575,2.9825953522044,0.5,56.7286608353988
CBC_1001,CBC_1001_MSI_AV_v3_Vset6_Aset1_2023-06-08_12h45.15.645.csv,3,9,0,2,b,1,0,0,aud,A,27,1,0A,2A,1,0,b,2.19143900000017,1,0,1,1,0A,2A,A02,3.17805383034795,0.549270423929639,0.450729576070361,0.5,0.5,0.450729576070361,0.549270423929639,0.5,0.5,0.5,0.5,0.593685698510865,0.5,0.5,0.5,0.5,0.495144850651587,0.523478420246096,0.476521579753904,0.549270423929639,0.5,0.284224710869118,0.717298661987719,0.450729576070361,0.0444152745812263,0.5,0.098540847859278,1.09973802307867,6.64105998728575,2.9825953522044,0.5,56.7286608353988
CBC_1001,CBC_1001_MSI_AV_v3_Vset6_Aset1_2023-06-08_12h45.15.645.csv,3,10,0,3,z,0,1,3,aud,D,9,1,0D,3D,0,1,z,2.55734659999962,0,1,1,1,3D,0D,D03,3.2188758248682,0.593685698510865,0.450729576070361,0.5,0.5,0.450729576070361,0.549270423929639,0.5,0.5,0.5,0.5,0.593685698510865,0.5,0.5,0.5,0.5,0.495144850651587,0.497560581585066,0.502439418414934,0.495144850651587,0.5,0.149170423430826,0.476110330372977,0.504855149348413,0.049748854462915,0.5,0.098540847859278,1.09973802307867,6.64105998728575,2.9825953522044,0.5,56.7286608353988
CBC_1001,CBC_1001_MSI_AV_v3_Vset6_Aset1_2023-06-08_12h45.15.645.csv,3,11,3,2,z,0,1,2,aud,C,63,0,3C,2C,1,0,z,2.05659800000103,0,1,1,0,2C,3C,C32,3.25809653802148,0.593685698510865,0.450729576070361,0.5,0.5,0.450729576070361,0.549270423929639,0.5,0.5,0.5,0.5,0.593685698510865,0.5,0.5,0.5,0.5,0.544893705114502,0.542830265879139,0.457169734120861,0.593685698510865,0.5,0.397783213090122,0.845170989074246,-0.593685698510865,-0.0585022920931883,0.5,0.098540847859278,1.09973802307867,6.64105998728575,2.9825953522044,0.5,56.7286608353988
CBC_1001,CBC_1001_MSI_AV_v3_Vset6_Aset1_2023-06-08_12h45.15.645.csv,3,12,1,0,b,1,0,1,aud,B,63,1,1B,0B,1,0,b,2.75951770000029,1,0,1,1,1B,0B,B10,2.60268968544438,0.593685698510865,0.450729576070361,0.5,0.5,0.450729576070361,0.549270423929639,0.5,0.5,0.5,0.5,0.535183406417677,0.5,0.5,0.5,0.5,0.544893705114502,0.549270423929639,0.450729576070361,0.549270423929639,0.450729576070361,0.261169426156456,0.875953483646173,0.450729576070361,0.0444152745812263,0.5,0.098540847859278,1.09973802307867,6.64105998728575,2.9825953522044,0.5,56.7286608353988
CBC_1001,CBC_1001_MSI_AV_v3_Vset6_Aset1_2023-06-08_12h45.15.645.csv,3,13,3,2,b,1,0,3,aud,D,63,0,3D,2D,0,1,b,2.47841750000043,1,0,1,0,3D,2D,D32,2.63905732961526,0.593685698510865,0.450729576070361,0.5,0.5,0.450729576070361,0.593685698510865,0.5,0.5,0.5,0.5,0.535183406417677,0.5,0.5,0.5,0.5,0.544893705114502,0.521482426822345,0.478517573177655,0.544893705114502,0.5,0.235888856909612,0.699924421994401,-0.544893705114502,-0.0536942876951664,0.5,0.098540847859278,1.09973802307867,6.64105998728575,2.9825953522044,0.5,56.7286608353988
CBC_1001,CBC_1001_MSI_AV_v3_Vset6_Aset1_2023-06-08_12h45.15.645.csv,3,14,3,2,z,0,1,2,aud,C,63,1,3C,2C,0,1,z,2.77059000000008,0,1,1,1,2C,3C,C32,2.67414864942653,0.593685698510865,0.450729576070361,0.5,0.5,0.450729576070361,0.593685698510865,0.5,0.5,0.5,0.5,0.535183406417677,0.5,0.5,0.5,0.5,0.491199417419336,0.516993803320047,0.483006196679953,0.535183406417677,0.5,0.187379483944941,0.662744954356518,0.464816593582323,0.0458034212306635,0.5,0.098540847859278,1.09973802307867,6.64105998728575,2.9825953522044,0.5,56.7286608353988
CBC_1001,CBC_1001_MSI_AV_v3_Vset6_Aset1_2023-06-08_12h45.15.645.csv,3,15,1,3,b,1,0,1,aud,B,27,1,1B,3B,NaN,NaN,[],NaN,NaN,NaN,NaN,NaN,,,B13,3.40119738166216,0.593685698510865,0.450729576070361,0.5,0.5,0.450729576070361,0.593685698510865,0.5,0.5,0.5,0.5,0.58098682764834,0.5,0.5,0.5,0.5,0.491199417419336,0,0,0,0,NaN,0,0,0,0.5,0.098540847859278,1.09973802307867,6.64105998728575,2.9825953522044,0.5,56.7286608353988
CBC_1001,CBC_1001_MSI_AV_v3_Vset6_Aset1_2023-06-08_12h45.15.645.csv,3,16,3,0,z,0,1,0,aud,A,9,1,3A,0A,0,1,z,1.59555200000068,0,1,1,1,0A,3A,A30,3.43398720448515,0.593685698510865,0.450729576070361,0.5,0.5,0.450729576070361,0.593685698510865,0.5,0.5,0.5,0.5,0.58098682764834,0.5,0.5,0.5,0.5,0.491199417419336,0.542830265879139,0.457169734120861,0.593685698510865,0.5,0.389325281557679,0.84453441684141,0.406314301489135,0.0400385557660896,0.5,0.098540847859278,1.09973802307867,6.64105998728575,2.9825953522044,0.5,56.7286608353988
CBC_1001,CBC_1001_MSI_AV_v3_Vset6_Aset1_2023-06-08_12h45.15.645.csv,3,17,3,2,b,1,0,3,aud,D,63,1,3D,2D,1,0,z,2.95673360000001,0,1,0,0,2D,3D,D32,2.36712361413162,0.633724254276955,0.450729576070361,0.5,0.5,0.450729576070361,0.593685698510865,0.5,0.5,0.5,0.5,0.58098682764834,0.5,0.5,0.5,0.5,0.491199417419336,0.504439360246789,0.495560639753211,0.5,0.491199417419336,0.13742186129248,0.545125969283339,-0.5,-0.049270423929639,0.5,0.098540847859278,1.09973802307867,6.64105998728575,2.9825953522044,0.5,56.7286608353988
CBC_1001,CBC_1001_MSI_AV_v3_Vset6_Aset1_2023-06-08_12h45.15.645.csv,3,18,2,0,b,1,0,2,aud,C,27,1,2C,0C,1,0,b,1.85350890000063,1,0,1,1,2C,0C,C20,2.80336038090653,0.633724254276955,0.450729576070361,0.5,0.5,0.450729576070361,0.593685698510865,0.5,0.5,0.5,0.5,0.58098682764834,0.5,0.5,0.5,0.450729576070361,0.491199417419336,0.537459673687479,0.462540326312521,0.58098682764834,0.5,0.397676836048723,0.81506673153497,0.41901317235166,0.0412899132677383,0.5,0.098540847859278,1.09973802307867,6.64105998728575,2.9825953522044,0.5,56.7286608353988
CBC_1001,CBC_1001_MSI_AV_v3_Vset6_Aset1_2023-06-08_12h45.15.645.csv,3,19,1,0,z,0,1,0,aud,A,63,1,1A,0A,0,1,b,2.22779300000002,1,0,0,0,1A,0A,A10,2.42774823594805,0.633724254276955,0.450729576070361,0.5,0.5,0.450729576070361,0.593685698510865,0.5,0.5,0.5,0.5,0.622276740916079,0.5,0.5,0.5,0.450729576070361,0.491199417419336,0.415628183936615,0.584371816063385,0.450729576070361,0.633724254276955,0.0170747431252196,0.0340124008752775,-0.450729576070361,-0.0444152745812263,0.5,0.098540847859278,1.09973802307867,6.64105998728575,2.9825953522044,0.5,56.7286608353988
CBC_1001,CBC_1001_MSI_AV_v3_Vset6_Aset1_2023-06-08_12h45.15.645.csv,3,20,0,1,z,0,1,1,aud,B,63,0,0B,1B,1,0,z,1.55913200000123,0,1,1,0,1B,0B,B01,3.55534806148941,0.633724254276955,0.406314301489135,0.5,0.5,0.450729576070361,0.593685698510865,0.5,0.5,0.5,0.5,0.622276740916079,0.5,0.5,0.5,0.450729576070361,0.491199417419336,0.568438352980726,0.431561647019274,0.593685698510865,0.450729576070361,0.544849484382055,0.937687385217175,-0.593685698510865,-0.0585022920931883,0.5,0.098540847859278,1.09973802307867,6.64105998728575,2.9825953522044,0.5,56.7286608353988
CBC_1001,CBC_1001_MSI_AV_v3_Vset6_Aset1_2023-06-08_12h45.15.645.csv,3,21,1,3,z,0,1,3,aud,D,27,1,1D,3D,0,1,z,3.07898800000112,0,1,1,1,3D,1D,D13,3.58351893845611,0.633724254276955,0.406314301489135,0.5,0.5,0.450729576070361,0.535183406417677,0.5,0.5,0.5,0.5,0.622276740916079,0.5,0.5,0.5,0.450729576070361,0.491199417419336,0.495560639753211,0.504439360246789,0.491199417419336,0.5,0.107538079559218,0.456481982964848,0.508800582580664,0.0501376407987932,0.5,0.098540847859278,1.09973802307867,6.64105998728575,2.9825953522044,0.5,56.7286608353988
CBC_1001,CBC_1001_MSI_AV_v3_Vset6_Aset1_2023-06-08_12h45.15.645.csv,3,22,2,3,b,1,0,2,aud,C,63,1,2C,3C,1,0,b,2.08173770000121,1,0,1,1,2C,3C,C23,2.91777073208428,0.633724254276955,0.406314301489135,0.5,0.5,0.450729576070361,0.535183406417677,0.5,0.5,0.5,0.5,0.622276740916079,0.5,0.5,0.5,0.450729576070361,0.541337058218129,0.554477089499453,0.445522910500547,0.622276740916079,0.5,0.448452909083183,0.896714320106749,0.377723259083921,0.0372211702062993,0.5,0.098540847859278,1.09973802307867,6.64105998728575,2.9825953522044,0.5,56.7286608353988
CBC_1001,CBC_1001_MSI_AV_v3_Vset6_Aset1_2023-06-08_12h45.15.645.csv,3,23,1,0,b,1,0,1,aud,B,63,1,1B,0B,1,0,z,2.3606776000006,0,1,0,0,0B,1B,B10,2.53897387105828,0.633724254276955,0.406314301489135,0.5,0.5,0.450729576070361,0.535183406417677,0.5,0.5,0.5,0.5,0.659497911122378,0.5,0.5,0.5,0.450729576070361,0.541337058218129,0.457169734120861,0.542830265879139,0.450729576070361,0.535183406417677,0.0605434293123317,0.154812233306468,-0.450729576070361,-0.0444152745812263,0.5,0.098540847859278,1.09973802307867,6.64105998728575,2.9825953522044,0.5,56.7286608353988
CBC_1001,CBC_1001_MSI_AV_v3_Vset6_Aset1_2023-06-08_12h45.15.645.csv,3,24,2,0,z,0,1,0,aud,A,27,1,2A,0A,0,1,z,2.26862320000055,0,1,1,1,0A,2A,A20,3.66356164612965,0.633724254276955,0.406314301489135,0.5,0.5,0.406314301489135,0.535183406417677,0.5,0.5,0.5,0.5,0.659497911122378,0.5,0.5,0.5,0.450729576070361,0.541337058218129,0.558975652047878,0.441024347952122,0.633724254276955,0.5,0.40790580731896,0.911799861227656,0.366275745723045,0.0360931225338382,0.5,0.098540847859278,1.09973802307867,6.64105998728575,2.9825953522044,0.5,56.7286608353988
CBC_1001,CBC_1001_MSI_AV_v3_Vset6_Aset1_2023-06-08_12h45.15.645.csv,3,25,2,3,z,0,1,3,aud,D,63,1,2D,3D,0,1,z,2.56164250000074,0,1,1,1,3D,2D,D23,2.99573227355399,0.669817376810793,0.406314301489135,0.5,0.5,0.406314301489135,0.535183406417677,0.5,0.5,0.5,0.5,0.659497911122378,0.5,0.5,0.5,0.450729576070361,0.541337058218129,0.545666026361602,0.454333973638398,0.541337058218129,0.450729576070361,0.295468888741062,0.860193309830729,0.458662941781871,0.0451970351648162,0.5,0.098540847859278,1.09973802307867,6.64105998728575,2.9825953522044,0.5,56.7286608353988
CBC_1001,CBC_1001_MSI_AV_v3_Vset6_Aset1_2023-06-08_12h45.15.645.csv,3,26,2,0,b,1,0,2,aud,C,27,1,2C,0C,1,0,b,2.45149890000084,1,0,1,1,2C,0C,C20,2.6149597780362,0.669817376810793,0.406314301489135,0.5,0.5,0.406314301489135,0.535183406417677,0.5,0.5,0.5,0.5,0.659497911122378,0.5,0.5,0.5,0.450729576070361,0.586534093382945,0.568778869540173,0.431221130459827,0.659497911122378,0.5,0.36768518822236,0.938043034022756,0.340502088877622,0.0335533645358561,0.5,0.098540847859278,1.09973802307867,6.64105998728575,2.9825953522044,0.5,56.7286608353988
CBC_1001,CBC_1001_MSI_AV_v3_Vset6_Aset1_2023-06-08_12h45.15.645.csv,3,27,1,0,b,1,0,1,aud,B,63,1,1B,0B,1,0,b,2.80006240000057,1,0,1,1,1B,0B,B10,2.35137525716348,0.669817376810793,0.406314301489135,0.5,0.5,0.406314301489135,0.535183406417677,0.5,0.5,0.5,0.5,0.693051275658234,0.5,0.5,0.5,0.450729576070361,0.586534093382945,0.568438352980726,0.431561647019274,0.535183406417677,0.406314301489135,0.263817876728832,0.937517393245296,0.464816593582323,0.0458034212306635,0.5,0.098540847859278,1.09973802307867,6.64105998728575,2.9825953522044,0.5,56.7286608353988
CBC_1001,CBC_1001_MSI_AV_v3_Vset6_Aset1_2023-06-08_12h45.15.645.csv,3,28,0,1,b,1,0,0,aud,A,63,1,0A,1A,1,0,b,1.84562410000035,1,0,1,1,0A,1A,A01,3.76120011569356,0.669817376810793,0.406314301489135,0.5,0.5,0.406314301489135,0.58098682764834,0.5,0.5,0.5,0.5,0.693051275658234,0.5,0.5,0.5,0.450729576070361,0.586534093382945,0.622430684197467,0.377569315802532,0.669817376810793,0.406314301489135,0.876564185556606,0.99221205238015,0.330182623189207,0.0325364756374649,0.5,0.098540847859278,1.09973802307867,6.64105998728575,2.9825953522044,0.5,56.7286608353988
CBC_1001,CBC_1001_MSI_AV_v3_Vset6_Aset1_2023-06-08_12h45.15.645.csv,3,29,3,2,z,0,1,2,aud,C,63,0,3C,2C,1,0,z,1.91158820000055,0,1,1,0,2C,3C,C32,2.68557734525015,0.702353852448258,0.406314301489135,0.5,0.5,0.406314301489135,0.58098682764834,0.5,0.5,0.5,0.5,0.693051275658234,0.5,0.5,0.5,0.450729576070361,0.586534093382945,0.580906529164777,0.419093470835223,0.693051275658234,0.5,0.642318442092739,0.961008511414089,-0.693051275658234,-0.0682938603133166,0.5,0.098540847859278,1.09973802307867,6.64105998728575,2.9825953522044,0.5,56.7286608353988
CBC_1001,CBC_1001_MSI_AV_v3_Vset6_Aset1_2023-06-08_12h45.15.645.csv,3,30,3,1,b,1,0,3,aud,D,27,1,3D,1D,1,0,b,2.27335850000054,1,0,1,1,3D,1D,D31,3.80666248977032,0.702353852448258,0.406314301489135,0.5,0.5,0.406314301489135,0.58098682764834,0.5,0.5,0.5,0.5,0.624757415344918,0.5,0.5,0.5,0.450729576070361,0.586534093382945,0.539821158815882,0.460178841184118,0.586534093382945,0.5,0.338612751946095,0.829312481774126,0.413465906617055,0.0407432809989496,0.5,0.098540847859278,1.09973802307867,6.64105998728575,2.9825953522044,0.5,56.7286608353988
CBC_1001,CBC_1001_MSI_AV_v3_Vset6_Aset1_2023-06-08_12h45.15.645.csv,3,31,1,0,z,0,1,0,aud,A,63,0,1A,0A,1,0,z,1.78355660000034,0,1,1,0,0A,1A,A10,2.4423470353692,0.702353852448258,0.406314301489135,0.5,0.5,0.406314301489135,0.58098682764834,0.5,0.5,0.5,0.5,0.624757415344918,0.5,0.5,0.5,0.450729576070361,0.627277374381895,0.633511344178035,0.366488655821965,0.702353852448258,0.406314301489135,0.993953300066976,0.994974783700567,-0.702353852448258,-0.0692105441174816,0.5,0.098540847859278,1.09973802307867,6.64105998728575,2.9825953522044,0.5,56.7286608353988
CBC_1001,CBC_1001_MSI_AV_v3_Vset6_Aset1_2023-06-08_12h45.15.645.csv,3,32,3,2,b,1,0,3,aud,D,63,1,3D,2D,1,0,b,2.42577440000059,1,0,1,1,3D,2D,D32,2.46385324059017,0.633143308330776,0.406314301489135,0.5,0.5,0.406314301489135,0.58098682764834,0.5,0.5,0.5,0.5,0.624757415344918,0.5,0.5,0.5,0.450729576070361,0.627277374381895,0.581886205945828,0.418113794054172,0.627277374381895,0.450729576070361,0.387842625406724,0.962462183937787,0.372722625618105,0.0367284035447443,0.5,0.098540847859278,1.09973802307867,6.64105998728575,2.9825953522044,0.5,56.7286608353988
CBC_1001,CBC_1001_MSI_AV_v3_Vset6_Aset1_2023-06-08_12h45.15.645.csv,3,33,2,1,z,0,1,1,aud,B,9,1,2B,1B,0,1,z,2.6262540000007,0,1,1,1,1B,2B,B21,3.87120101090789,0.633143308330776,0.406314301489135,0.5,0.5,0.406314301489135,0.58098682764834,0.5,0.5,0.5,0.5,0.624757415344918,0.5,0.5,0.5,0.450729576070361,0.664005777926639,0.537459673687479,0.462540326312521,0.58098682764834,0.5,0.262247027594069,0.814916775776106,0.41901317235166,0.0412899132677383,0.5,0.098540847859278,1.09973802307867,6.64105998728575,2.9825953522044,0.5,56.7286608353988
CBC_1001,CBC_1001_MSI_AV_v3_Vset6_Aset1_2023-06-08_12h45.15.645.csv,3,34,1,0,z,0,1,0,aud,A,63,1,1A,0A,0,1,z,3.53284429999985,0,1,1,1,0A,1A,A10,2.28238238567653,0.633143308330776,0.406314301489135,0.5,0.5,0.406314301489135,0.622276740916079,0.5,0.5,0.5,0.5,0.624757415344918,0.5,0.5,0.5,0.450729576070361,0.664005777926639,0.609109310807268,0.390890689192732,0.633143308330776,0.406314301489135,0.0617601472497694,0.986906760646985,0.366856691669224,0.036150369439935,0.5,0.098540847859278,1.09973802307867,6.64105998728575,2.9825953522044,0.5,56.7286608353988
CBC_1001,CBC_1001_MSI_AV_v3_Vset6_Aset1_2023-06-08_12h45.15.645.csv,3,35,2,1,b,1,0,2,aud,C,9,1,2C,1C,1,0,b,2.38442920000034,1,0,1,1,2C,1C,C21,3.91202300542815,0.669293677770711,0.406314301489135,0.5,0.5,0.406314301489135,0.622276740916079,0.5,0.5,0.5,0.5,0.624757415344918,0.5,0.5,0.5,0.450729576070361,0.664005777926639,0.555459698972805,0.444540301027195,0.624757415344918,0.5,0.362546227235205,0.899495072822111,0.375242584655082,0.0369767224448187,0.5,0.098540847859278,1.09973802307867,6.64105998728575,2.9825953522044,0.5,56.7286608353988
CBC_1001,CBC_1001_MSI_AV_v3_Vset6_Aset1_2023-06-08_12h45.15.645.csv,3,36,1,0,b,1,0,1,aud,B,63,1,1B,0B,1,0,b,2.44020950000049,1,0,1,1,1B,0B,B10,2.32238772029023,0.669293677770711,0.406314301489135,0.5,0.5,0.406314301489135,0.622276740916079,0.5,0.5,0.5,0.5,0.661734137789736,0.5,0.5,0.5,0.450729576070361,0.664005777926639,0.604979739528913,0.395020260471087,0.622276740916079,0.406314301489135,0.362008885827162,0.984623755860069,0.377723259083921,0.0372211702062993,0.5,0.098540847859278,1.09973802307867,6.64105998728575,2.9825953522044,0.5,56.7286608353988
CBC_1001,CBC_1001_MSI_AV_v3_Vset6_Aset1_2023-06-08_12h45.15.645.csv,3,37,0,1,b,1,0,0,aud,A,63,0,0A,1A,0,1,b,2.50709600000027,1,0,1,0,0A,1A,A01,3.25809653802148,0.669293677770711,0.406314301489135,0.5,0.5,0.406314301489135,0.659497911122378,0.5,0.5,0.5,0.5,0.661734137789736,0.5,0.5,0.5,0.450729576070361,0.664005777926639,0.622246850782262,0.377753149217738,0.669293677770711,0.406314301489135,0.283487845647261,0.992160442169777,-0.669293677770711,-0.0659527664743803,0.5,0.098540847859278,1.09973802307867,6.64105998728575,2.9825953522044,0.5,56.7286608353988
CBC_1001,CBC_1001_MSI_AV_v3_Vset6_Aset1_2023-06-08_12h45.15.645.csv,3,38,0,1,z,0,1,1,aud,B,63,1,0B,1B,0,1,z,2.32225920000019,0,1,1,1,1B,0B,B01,3.27714473299218,0.603340911296331,0.406314301489135,0.5,0.5,0.406314301489135,0.659497911122378,0.5,0.5,0.5,0.5,0.661734137789736,0.5,0.5,0.5,0.450729576070361,0.664005777926639,0.618774961779092,0.381225038220908,0.659497911122378,0.406314301489135,0.40649570135365,0.990986187362125,0.340502088877622,0.0335533645358561,0.5,0.098540847859278,1.09973802307867,6.64105998728575,2.9825953522044,0.5,56.7286608353988
CBC_1001,CBC_1001_MSI_AV_v3_Vset6_Aset1_2023-06-08_12h45.15.645.csv,3,39,1,3,z,0,1,3,aud,D,27,1,1D,3D,0,1,z,2.41200180000033,0,1,1,1,3D,1D,D13,3.29583686600433,0.603340911296331,0.406314301489135,0.5,0.5,0.406314301489135,0.693051275658234,0.5,0.5,0.5,0.5,0.661734137789736,0.5,0.5,0.5,0.450729576070361,0.664005777926639,0.570448867624511,0.429551132375489,0.664005777926639,0.5,0.384290587793759,0.942438058061956,0.335994222073361,0.0331091555189275,0.5,0.098540847859278,1.09973802307867,6.64105998728575,2.9825953522044,0.5,56.7286608353988
CBC_1001,CBC_1001_MSI_AV_v3_Vset6_Aset1_2023-06-08_12h45.15.645.csv,3,40,3,2,z,0,1,2,aud,C,63,1,3C,2C,0,1,z,1.84050730000035,0,1,1,1,2C,3C,C32,2.62103882411258,0.603340911296331,0.406314301489135,0.5,0.5,0.406314301489135,0.693051275658234,0.5,0.5,0.5,0.5,0.661734137789736,0.5,0.5,0.5,0.450729576070361,0.697114933445567,0.569608928811133,0.430391071188867,0.661734137789736,0.5,0.601194496845437,0.940197229640158,0.338265862210264,0.0333330048640491,0.5,0.098540847859278,1.09973802307867,6.64105998728575,2.9825953522044,0.5,56.7286608353988
CBC_1001,CBC_1001_MSI_AV_v3_Vset6_Aset1_2023-06-08_12h45.15.645.csv,3,41,0,2,b,1,0,0,aud,A,27,1,0A,2A,1,0,b,2.03445600000032,1,0,1,1,0A,2A,A02,3.3322045101752,0.603340911296331,0.406314301489135,0.5,0.5,0.406314301489135,0.693051275658234,0.5,0.5,0.5,0.5,0.695067142653785,0.5,0.5,0.5,0.450729576070361,0.697114933445567,0.546830907038023,0.453169092961977,0.603340911296331,0.5,0.423041796346073,0.865053923434113,0.396659088703669,0.0390871229119481,0.5,0.098540847859278,1.09973802307867,6.64105998728575,2.9825953522044,0.5,56.7286608353988
CBC_1001,CBC_1001_MSI_AV_v3_Vset6_Aset1_2023-06-08_12h45.15.645.csv,3,42,2,3,z,0,1,3,aud,D,63,1,2D,3D,0,1,z,2.35965800000031,0,1,1,1,3D,2D,D23,2.94443897916644,0.642428034208279,0.406314301489135,0.5,0.5,0.406314301489135,0.693051275658234,0.5,0.5,0.5,0.5,0.695067142653785,0.5,0.5,0.5,0.450729576070361,0.697114933445567,0.607325232351859,0.392674767648141,0.697114933445567,0.450729576070361,0.404639411932537,0.985887249435909,0.302885066554433,0.0298465512621877,0.5,0.098540847859278,1.09973802307867,6.64105998728575,2.9825953522044,0.5,56.7286608353988
CBC_1001,CBC_1001_MSI_AV_v3_Vset6_Aset1_2023-06-08_12h45.15.645.csv,3,43,1,3,b,1,0,1,aud,B,27,0,1B,3B,0,1,b,2.3914889000007,1,0,1,0,1B,3B,B13,3.36729582998647,0.642428034208279,0.406314301489135,0.5,0.5,0.406314301489135,0.693051275658234,0.5,0.5,0.5,0.5,0.695067142653785,0.5,0.5,0.5,0.450729576070361,0.726961484707754,0.580906529164777,0.419093470835223,0.693051275658234,0.5,0.402310823932077,0.960970550616306,-0.693051275658234,-0.0682938603133166,0.5,0.098540847859278,1.09973802307867,6.64105998728575,2.9825953522044,0.5,56.7286608353988
CBC_1001,CBC_1001_MSI_AV_v3_Vset6_Aset1_2023-06-08_12h45.15.645.csv,3,44,3,2,z,0,1,2,aud,C,63,1,3C,2C,0,1,z,2.74693790000129,0,1,1,1,2C,3C,C32,2.46809953147162,0.642428034208279,0.406314301489135,0.5,0.5,0.406314301489135,0.624757415344918,0.5,0.5,0.5,0.5,0.695067142653785,0.5,0.5,0.5,0.450729576070361,0.726961484707754,0.581613465759177,0.418386534240823,0.695067142653785,0.5,0.270525748925966,0.961899376598345,0.304932857346215,0.0300483423030482,0.5,0.098540847859278,1.09973802307867,6.64105998728575,2.9825953522044,0.5,56.7286608353988
CBC_1001,CBC_1001_MSI_TV_v3_Vset3_Tset2_2023-06-08_12h53.37.433.csv,4,1,0,1,z,0,1,1,tac,B,63,1,0B,1B,0,1,z,2.46899730000041,0,1,1,1,1B,0B,B01,2.77258872223978,0.5,0.5,0.5,0.5,0.5,0.5,0.5,0.5,0.5,0.5,0.5,0.5,0.5,0.5,0.5,0.5,0.5,0.5,0.5,0.5,0.15749049786748,0.499788910531583,0.5,0.0645198364819303,0.5,0.129039672963861,0.998897770028056,8.91294531804429,2.87725095993771,0.5,39.4460726598116
CBC_1001,CBC_1001_MSI_TV_v3_Vset3_Tset2_2023-06-08_12h53.37.433.csv,4,2,1,0,z,0,1,0,tac,A,63,1,1A,0A,0,1,z,2.47680480000054,0,1,1,1,0A,1A,A10,2.83321334405622,0.5,0.5,0.5,0.5,0.5,0.56451983648193,0.5,0.5,0.5,0.5,0.5,0.5,0.5,0.5,0.5,0.5,0.5,0.5,0.5,0.5,0.156529202640535,0.499005719952577,0.5,0.0645198364819303,0.5,0.129039672963861,0.998897770028056,8.91294531804429,2.87725095993771,0.5,39.4460726598116
CBC_1001,CBC_1001_MSI_TV_v3_Vset3_Tset2_2023-06-08_12h53.37.433.csv,4,3,2,1,b,1,0,2,tac,C,9,1,2C,1C,1,0,b,2.40419250000014,1,0,1,1,2C,1C,C21,2.89037175789616,0.56451983648193,0.5,0.5,0.5,0.5,0.56451983648193,0.5,0.5,0.5,0.5,0.5,0.5,0.5,0.5,0.5,0.5,0.5,0.5,0.5,0.5,0.163647777941264,0.500141373871847,0.5,0.0645198364819303,0.5,0.129039672963861,0.998897770028056,8.91294531804429,2.87725095993771,0.5,39.4460726598116
CBC_1001,CBC_1001_MSI_TV_v3_Vset3_Tset2_2023-06-08_12h53.37.433.csv,4,4,0,1,b,1,0,0,tac,A,63,1,0A,1A,1,0,b,2.60468769999989,1,0,1,1,0A,1A,A01,2.94443897916644,0.56451983648193,0.5,0.5,0.5,0.5,0.56451983648193,0.5,0.5,0.5,0.5,0.56451983648193,0.5,0.5,0.5,0.5,0.5,0.530304666137156,0.469695333862844,0.56451983648193,0.5,0.250596632722315,0.826114288587264,0.43548016351807,0.0561942178826203,0.5,0.129039672963861,0.998897770028056,8.91294531804429,2.87725095993771,0.5,39.4460726598116
CBC_1001,CBC_1001_MSI_TV_v3_Vset3_Tset2_2023-06-08_12h53.37.433.csv,4,5,1,3,z,0,1,3,tac,D,27,1,1D,3D,0,1,z,2.33989590000056,0,1,1,1,3D,1D,D13,2.99573227355399,0.620714054364551,0.5,0.5,0.5,0.5,0.56451983648193,0.5,0.5,0.5,0.5,0.56451983648193,0.5,0.5,0.5,0.5,0.5,0.5,0.5,0.5,0.5,0.170009442411364,0.50071147926993,0.5,0.0645198364819303,0.5,0.129039672963861,0.998897770028056,8.91294531804429,2.87725095993771,0.5,39.4460726598116
CBC_1001,CBC_1001_MSI_TV_v3_Vset3_Tset2_2023-06-08_12h53.37.433.csv,4,6,1,0,b,1,0,1,tac,B,63,1,1B,0B,1,0,b,2.10577130000001,1,0,1,1,1B,0B,B10,3.04452243772342,0.620714054364551,0.5,0.5,0.5,0.5,0.56451983648193,0.5,0.5,0.5,0.5,0.56451983648193,0.5,0.5,0.5,0.5,0.56451983648193,0.530304666137156,0.469695333862844,0.56451983648193,0.5,0.357088754559312,0.824913905097076,0.43548016351807,0.0561942178826203,0.5,0.129039672963861,0.998897770028056,8.91294531804429,2.87725095993771,0.5,39.4460726598116
CBC_1001,CBC_1001_MSI_TV_v3_Vset3_Tset2_2023-06-08_12h53.37.433.csv,4,7,3,2,z,0,1,2,tac,C,63,1,3C,2C,0,1,z,2.27718650000043,0,1,1,1,2C,3C,C32,3.09104245335832,0.620714054364551,0.5,0.5,0.5,0.5,0.620714054364551,0.5,0.5,0.5,0.5,0.56451983648193,0.5,0.5,0.5,0.5,0.56451983648193,0.530304666137156,0.469695333862844,0.56451983648193,0.5,0.317450346555721,0.825329260069255,0.43548016351807,0.0561942178826203,0.5,0.129039672963861,0.998897770028056,8.91294531804429,2.87725095993771,0.5,39.4460726598116
CBC_1001,CBC_1001_MSI_TV_v3_Vset3_Tset2_2023-06-08_12h53.37.433.csv,4,8,0,2,b,1,0,0,tac,A,27,1,0A,2A,1,0,b,2.41220740000063,1,0,1,1,0A,2A,A02,3.13549421592915,0.620714054364551,0.5,0.5,0.5,0.5,0.620714054364551,0.5,0.5,0.5,0.5,0.620714054364551,0.5,0.5,0.5,0.5,0.56451983648193,0.553855867111882,0.446144132888118,0.620714054364551,0.5,0.337837886726314,0.940486901438825,0.379285945635449,0.048942934384587,0.5,0.129039672963861,0.998897770028056,8.91294531804429,2.87725095993771,0.5,39.4460726598116
CBC_1001,CBC_1001_MSI_TV_v3_Vset3_Tset2_2023-06-08_12h53.37.433.csv,4,9,2,3,z,0,1,3,tac,D,63,1,2D,3D,0,1,z,1.9911103000004,0,1,1,1,3D,2D,D23,3.17805383034795,0.669656988749138,0.5,0.5,0.5,0.5,0.620714054364551,0.5,0.5,0.5,0.5,0.620714054364551,0.5,0.5,0.5,0.5,0.56451983648193,0.530304666137156,0.469695333862844,0.56451983648193,0.5,0.384657669763742,0.825259750415621,0.43548016351807,0.0561942178826203,0.5,0.129039672963861,0.998897770028056,8.91294531804429,2.87725095993771,0.5,39.4460726598116
CBC_1001,CBC_1001_MSI_TV_v3_Vset3_Tset2_2023-06-08_12h53.37.433.csv,4,10,1,3,b,1,0,1,tac,B,27,1,1B,3B,1,0,b,2.41406840000036,1,0,1,1,1B,3B,B13,3.2188758248682,0.669656988749138,0.5,0.5,0.5,0.5,0.620714054364551,0.5,0.5,0.5,0.5,0.620714054364551,0.5,0.5,0.5,0.5,0.620714054364551,0.553855867111882,0.446144132888118,0.620714054364551,0.5,0.337214428790069,0.940661343026123,0.379285945635449,0.048942934384587,0.5,0.129039672963861,0.998897770028056,8.91294531804429,2.87725095993771,0.5,39.4460726598116
CBC_1001,CBC_1001_MSI_TV_v3_Vset3_Tset2_2023-06-08_12h53.37.433.csv,4,11,2,3,b,1,0,2,tac,C,63,0,2C,3C,0,1,b,2.4334942000005,1,0,1,0,2C,3C,C23,3.25809653802148,0.669656988749138,0.5,0.5,0.5,0.5,0.669656988749138,0.5,0.5,0.5,0.5,0.620714054364551,0.5,0.5,0.5,0.5,0.620714054364551,0.553855867111882,0.446144132888118,0.620714054364551,0.5,0.330460616515169,0.940647447958938,-0.620714054364551,-0.0800967385792736,0.5,0.129039672963861,0.998897770028056,8.91294531804429,2.87725095993771,0.5,39.4460726598116
CBC_1001,CBC_1001_MSI_TV_v3_Vset3_Tset2_2023-06-08_12h53.37.433.csv,4,12,3,1,z,0,1,1,tac,B,27,1,3B,1B,0,1,z,2.49260109999977,0,1,1,1,1B,3B,B31,3.29583686600433,0.669656988749138,0.5,0.5,0.5,0.5,0.669656988749138,0.5,0.5,0.5,0.5,0.540617315785277,0.5,0.5,0.5,0.5,0.620714054364551,0.572524248724651,0.427475751275349,0.669656988749138,0.5,0.286612284179232,0.976264188123287,0.330343011250862,0.0426273541377082,0.5,0.129039672963861,0.998897770028056,8.91294531804429,2.87725095993771,0.5,39.4460726598116
CBC_1001,CBC_1001_MSI_TV_v3_Vset3_Tset2_2023-06-08_12h53.37.433.csv,4,13,2,3,b,1,0,2,tac,C,63,1,2C,3C,1,0,b,2.72951120000016,1,0,1,1,2C,3C,C23,2.63905732961526,0.669656988749138,0.5,0.5,0.5,0.5,0.712284342886846,0.5,0.5,0.5,0.5,0.540617315785277,0.5,0.5,0.5,0.5,0.620714054364551,0.519515971514767,0.480484028485233,0.540617315785277,0.5,0.200636618517014,0.730783922759719,0.459382684214723,0.0592785913363283,0.5,0.129039672963861,0.998897770028056,8.91294531804429,2.87725095993771,0.5,39.4460726598116
CBC_1001,CBC_1001_MSI_TV_v3_Vset3_Tset2_2023-06-08_12h53.37.433.csv,4,14,2,3,z,0,1,3,tac,D,63,1,2D,3D,0,1,z,2.28018870000051,0,1,1,1,3D,2D,D23,2.67414864942653,0.669656988749138,0.5,0.5,0.5,0.5,0.712284342886846,0.5,0.5,0.5,0.5,0.599895907121605,0.5,0.5,0.5,0.5,0.620714054364551,0.553855867111882,0.446144132888118,0.620714054364551,0.5,0.387250237078822,0.94063256899845,0.379285945635449,0.048942934384587,0.5,0.129039672963861,0.998897770028056,8.91294531804429,2.87725095993771,0.5,39.4460726598116
CBC_1001,CBC_1001_MSI_TV_v3_Vset3_Tset2_2023-06-08_12h53.37.433.csv,4,15,3,0,z,0,1,0,tac,A,9,1,3A,0A,0,1,z,2.35356680000041,0,1,1,1,0A,3A,A30,3.40119738166216,0.669656988749138,0.5,0.5,0.5,0.5,0.712284342886846,0.5,0.5,0.5,0.5,0.599895907121605,0.5,0.5,0.5,0.5,0.669656988749138,0.572524248724651,0.427475751275349,0.669656988749138,0.5,0.34879253482715,0.976317249150942,0.330343011250862,0.0426273541377082,0.5,0.129039672963861,0.998897770028056,8.91294531804429,2.87725095993771,0.5,39.4460726598116
CBC_1001,CBC_1001_MSI_TV_v3_Vset3_Tset2_2023-06-08_12h53.37.433.csv,4,16,1,0,b,1,0,1,tac,B,63,0,1B,0B,0,1,b,1.73717010000018,1,0,1,0,1B,0B,B10,2.7408400239252,0.712284342886846,0.5,0.5,0.5,0.5,0.712284342886846,0.5,0.5,0.5,0.5,0.599895907121605,0.5,0.5,0.5,0.5,0.669656988749138,0.587555507968257,0.412444492031743,0.712284342886846,0.5,0.855759057939451,0.988900169135702,-0.712284342886846,-0.091912938663397,0.5,0.129039672963861,0.998897770028056,8.91294531804429,2.87725095993771,0.5,39.4460726598116
CBC_1001,CBC_1001_MSI_TV_v3_Vset3_Tset2_2023-06-08_12h53.37.433.csv,4,17,3,2,b,1,0,3,tac,D,63,1,3D,2D,1,0,b,2.29535900000064,1,0,1,1,3D,2D,D32,3.46573590279973,0.712284342886846,0.5,0.5,0.5,0.5,0.620371404223449,0.5,0.5,0.5,0.5,0.599895907121605,0.5,0.5,0.5,0.5,0.669656988749138,0.572524248724651,0.427475751275349,0.669656988749138,0.5,0.37867049370244,0.976210777259971,0.330343011250862,0.0426273541377082,0.5,0.129039672963861,0.998897770028056,8.91294531804429,2.87725095993771,0.5,39.4460726598116
CBC_1001,CBC_1001_MSI_TV_v3_Vset3_Tset2_2023-06-08_12h53.37.433.csv,4,18,2,0,b,1,0,2,tac,C,27,1,2C,0C,1,0,b,2.4177009999994,1,0,1,1,2C,0C,C20,3.49650756146648,0.712284342886846,0.5,0.5,0.5,0.5,0.620371404223449,0.5,0.5,0.5,0.5,0.599895907121605,0.5,0.5,0.5,0.5,0.712284342886846,0.545411527797676,0.454588472202324,0.599895907121605,0.5,0.326836960989118,0.911378438895883,0.400104092878395,0.0516293012965302,0.5,0.129039672963861,0.998897770028056,8.91294531804429,2.87725095993771,0.5,39.4460726598116
CBC_1001,CBC_1001_MSI_TV_v3_Vset3_Tset2_2023-06-08_12h53.37.433.csv,4,19,1,0,z,0,1,0,tac,A,63,1,1A,0A,0,1,z,2.2608452000004,0,1,1,1,0A,1A,A10,2.83321334405622,0.712284342886846,0.5,0.5,0.5,0.5,0.620371404223449,0.5,0.5,0.5,0.5,0.651525208418135,0.5,0.5,0.5,0.5,0.712284342886846,0.587555507968257,0.412444492031743,0.712284342886846,0.5,0.360446605331589,0.988924353749542,0.287715657113154,0.0371267343004637,0.5,0.129039672963861,0.998897770028056,8.91294531804429,2.87725095993771,0.5,39.4460726598116
CBC_1001,CBC_1001_MSI_TV_v3_Vset3_Tset2_2023-06-08_12h53.37.433.csv,4,20,0,1,z,0,1,1,tac,B,63,1,0B,1B,0,1,z,2.00108189999992,0,1,1,1,1B,0B,B01,2.86220088092947,0.749411077187309,0.5,0.5,0.5,0.5,0.620371404223449,0.5,0.5,0.5,0.5,0.651525208418135,0.5,0.5,0.5,0.5,0.712284342886846,0.553719420082343,0.446280579917657,0.620371404223449,0.5,0.510003670319325,0.940344693345844,0.379628595776551,0.0489871498467358,0.5,0.129039672963861,0.998897770028056,8.91294531804429,2.87725095993771,0.5,39.4460726598116
CBC_1001,CBC_1001_MSI_TV_v3_Vset3_Tset2_2023-06-08_12h53.37.433.csv,4,21,3,1,b,1,0,3,tac,D,27,1,3D,1D,1,0,b,1.41100349999942,1,0,1,1,3D,1D,D31,3.58351893845611,0.749411077187309,0.5,0.5,0.5,0.5,0.669358554070185,0.5,0.5,0.5,0.5,0.651525208418135,0.5,0.5,0.5,0.5,0.712284342886846,0.587555507968257,0.412444492031743,0.712284342886846,0.5,1.0078737177269,0.98895226529234,0.287715657113154,0.0371267343004637,0.5,0.129039672963861,0.998897770028056,8.91294531804429,2.87725095993771,0.5,39.4460726598116
CBC_1001,CBC_1001_MSI_TV_v3_Vset3_Tset2_2023-06-08_12h53.37.433.csv,4,22,2,3,b,1,0,2,tac,C,63,1,2C,3C,1,0,b,1.66060399999969,1,0,1,1,2C,3C,C23,2.51230562397611,0.749411077187309,0.5,0.5,0.5,0.5,0.669358554070185,0.5,0.5,0.5,0.5,0.651525208418135,0.5,0.5,0.5,0.5,0.749411077187309,0.565793265883553,0.434206734116447,0.651525208418135,0.5,0.765245263621218,0.966899722546659,0.348474791581865,0.0449670731418733,0.5,0.129039672963861,0.998897770028056,8.91294531804429,2.87725095993771,0.5,39.4460726598116
CBC_1001,CBC_1001_MSI_TV_v3_Vset3_Tset2_2023-06-08_12h53.37.433.csv,4,23,1,0,z,0,1,0,tac,A,63,1,1A,0A,0,1,z,1.59786440000062,0,1,1,1,0A,1A,A10,2.53897387105828,0.749411077187309,0.5,0.5,0.5,0.5,0.669358554070185,0.5,0.5,0.5,0.5,0.696492281560009,0.5,0.5,0.5,0.5,0.749411077187309,0.599811455869587,0.400188544130413,0.749411077187309,0.5,1.10227665981566,0.994050815817053,0.250588922812691,0.0323359126481157,0.5,0.129039672963861,0.998897770028056,8.91294531804429,2.87725095993771,0.5,39.4460726598116
CBC_1001,CBC_1001_MSI_TV_v3_Vset3_Tset2_2023-06-08_12h53.37.433.csv,4,24,3,2,b,1,0,3,tac,D,63,1,3D,2D,1,0,b,1.68330569999944,1,0,1,1,3D,2D,D32,2.9704144655697,0.781746989835425,0.5,0.5,0.5,0.5,0.669358554070185,0.5,0.5,0.5,0.5,0.696492281560009,0.5,0.5,0.5,0.5,0.749411077187309,0.599811455869587,0.400188544130413,0.749411077187309,0.5,0.978075210163443,0.994051264670178,0.250588922812691,0.0323359126481157,0.5,0.129039672963861,0.998897770028056,8.91294531804429,2.87725095993771,0.5,39.4460726598116
CBC_1001,CBC_1001_MSI_TV_v3_Vset3_Tset2_2023-06-08_12h53.37.433.csv,4,25,0,2,z,0,1,2,tac,C,27,1,0C,2C,0,1,z,2.32004609999967,0,1,1,1,2C,0C,C02,3.68887945411394,0.781746989835425,0.5,0.5,0.5,0.5,0.669358554070185,0.5,0.5,0.5,0.5,0.696492281560009,0.5,0.5,0.5,0.5,0.781746989835425,0.582111804893475,0.417888195106525,0.696492281560009,0.5,0.342270762905162,0.985445811182934,0.303507718439991,0.039164536729504,0.5,0.129039672963861,0.998897770028056,8.91294531804429,2.87725095993771,0.5,39.4460726598116
CBC_1001,CBC_1001_MSI_TV_v3_Vset3_Tset2_2023-06-08_12h53.37.433.csv,4,26,1,0,z,0,1,0,tac,A,63,1,1A,0A,0,1,z,2.26084119999996,0,1,1,1,0A,1A,A10,2.32727770558442,0.781746989835425,0.5,0.5,0.5,0.5,0.669358554070185,0.5,0.5,0.5,0.5,0.735656818289513,0.5,0.5,0.5,0.5,0.781746989835425,0.609907412332445,0.390092587667555,0.781746989835425,0.5,0.263729145806904,0.996458514840084,0.218253010164575,0.0281632970550149,0.5,0.129039672963861,0.998897770028056,8.91294531804429,2.87725095993771,0.5,39.4460726598116
CBC_1001,CBC_1001_MSI_TV_v3_Vset3_Tset2_2023-06-08_12h53.37.433.csv,4,27,3,1,z,0,1,1,tac,B,27,1,3B,1B,0,1,z,1.55984809999973,0,1,1,1,1B,3B,B31,3.04452243772342,0.80991028689044,0.5,0.5,0.5,0.5,0.669358554070185,0.5,0.5,0.5,0.5,0.735656818289513,0.5,0.5,0.5,0.5,0.781746989835425,0.57241515165759,0.42758484834241,0.669358554070185,0.5,0.86683249053051,0.97622397292315,0.330641445929815,0.0426658640510814,0.5,0.129039672963861,0.998897770028056,8.91294531804429,2.87725095993771,0.5,39.4460726598116
CBC_1001,CBC_1001_MSI_TV_v3_Vset3_Tset2_2023-06-08_12h53.37.433.csv,4,28,2,3,b,1,0,2,tac,C,63,1,2C,3C,1,0,b,1.88349350000044,1,0,1,1,2C,3C,C23,2.37490575457367,0.80991028689044,0.5,0.5,0.5,0.5,0.712024418121266,0.5,0.5,0.5,0.5,0.735656818289513,0.5,0.5,0.5,0.5,0.781746989835425,0.595356904442014,0.404643095557986,0.735656818289513,0.5,0.68804164784698,0.992522062031916,0.264343181710487,0.0341107577181477,0.5,0.129039672963861,0.998897770028056,8.91294531804429,2.87725095993771,0.5,39.4460726598116
CBC_1001,CBC_1001_MSI_TV_v3_Vset3_Tset2_2023-06-08_12h53.37.433.csv,4,29,2,3,z,0,1,3,tac,D,63,0,2D,3D,1,0,z,1.61229289999937,0,1,1,0,3D,2D,D23,2.68557734525015,0.80991028689044,0.5,0.5,0.5,0.5,0.712024418121266,0.5,0.5,0.5,0.5,0.76976757600766,0.5,0.5,0.5,0.5,0.781746989835425,0.609907412332445,0.390092587667555,0.781746989835425,0.5,1.1412597577485,0.996449509348691,-0.781746989835425,-0.100876375908846,0.5,0.129039672963861,0.998897770028056,8.91294531804429,2.87725095993771,0.5,39.4460726598116
CBC_1001,CBC_1001_MSI_TV_v3_Vset3_Tset2_2023-06-08_12h53.37.433.csv,4,30,1,0,b,1,0,1,tac,B,63,1,1B,0B,1,0,b,2.01822209999955,1,0,1,1,1B,0B,B10,2.70805020110221,0.80991028689044,0.5,0.5,0.5,0.5,0.712024418121266,0.5,0.5,0.5,0.5,0.76976757600766,0.5,0.5,0.5,0.5,0.680870613926579,0.587467057161241,0.412532942838759,0.712024418121266,0.5,0.55099611095167,0.988869524290982,0.287975581878734,0.0371602749072093,0.5,0.129039672963861,0.998897770028056,8.91294531804429,2.87725095993771,0.5,39.4460726598116
CBC_1001,CBC_1001_MSI_TV_v3_Vset3_Tset2_2023-06-08_12h53.37.433.csv,4,31,0,2,b,1,0,0,tac,A,27,1,0A,2A,1,0,b,1.44394319999992,1,0,1,1,0A,2A,A02,3.13549421592915,0.80991028689044,0.5,0.5,0.5,0.5,0.749184693028475,0.5,0.5,0.5,0.5,0.76976757600766,0.5,0.5,0.5,0.5,0.680870613926579,0.618294470236633,0.381705529763367,0.80991028689044,0.5,1.45812610022493,0.997675639230522,0.19008971310956,0.0245291144134517,0.5,0.129039672963861,0.998897770028056,8.91294531804429,2.87725095993771,0.5,39.4460726598116
CBC_1001,CBC_1001_MSI_TV_v3_Vset3_Tset2_2023-06-08_12h53.37.433.csv,4,32,0,3,z,0,1,3,tac,D,9,1,0D,3D,0,1,z,1.35339490000024,0,1,1,1,3D,0D,D03,3.85014760171006,0.834439401303892,0.5,0.5,0.5,0.5,0.749184693028475,0.5,0.5,0.5,0.5,0.76976757600766,0.5,0.5,0.5,0.5,0.680870613926579,0.57658358663239,0.42341641336761,0.680870613926579,0.5,0.751599690755058,0.980673474530807,0.319129386073421,0.0411803516120718,0.5,0.129039672963861,0.998897770028056,8.91294531804429,2.87725095993771,0.5,39.4460726598116
CBC_1001,CBC_1001_MSI_TV_v3_Vset3_Tset2_2023-06-08_12h53.37.433.csv,4,33,2,3,b,1,0,2,tac,C,63,1,2C,3C,1,0,b,1.89062229999945,1,0,1,1,2C,3C,C23,2.26176309847379,0.834439401303892,0.5,0.5,0.5,0.5,0.749184693028475,0.5,0.5,0.5,0.5,0.76976757600766,0.5,0.5,0.5,0.5,0.722050965538651,0.60622714782805,0.39377285217195,0.76976757600766,0.5,0.658116123915199,0.995700941682997,0.23023242399234,0.0297091166976484,0.5,0.129039672963861,0.998897770028056,8.91294531804429,2.87725095993771,0.5,39.4460726598116
CBC_1001,CBC_1001_MSI_TV_v3_Vset3_Tset2_2023-06-08_12h53.37.433.csv,4,34,1,0,b,1,0,1,tac,B,63,1,1B,0B,1,0,b,1.6780604000005,1,0,1,1,1B,0B,B10,2.50552593699074,0.834439401303892,0.5,0.5,0.5,0.5,0.749184693028475,0.5,0.5,0.5,0.5,0.799476692705309,0.5,0.5,0.5,0.5,0.722050965538651,0.59973893148833,0.40026106851167,0.749184693028475,0.5,0.986136806851934,0.994054511982366,0.250815306971525,0.0323651251859359,0.5,0.129039672963861,0.998897770028056,8.91294531804429,2.87725095993771,0.5,39.4460726598116
CBC_1001,CBC_1001_MSI_TV_v3_Vset3_Tset2_2023-06-08_12h53.37.433.csv,4,35,1,0,z,0,1,0,tac,A,63,0,1A,0A,1,0,z,1.34115639999982,0,1,1,0,0A,1A,A10,2.30258509299405,0.834439401303892,0.5,0.5,0.5,0.5,0.781549818214411,0.5,0.5,0.5,0.5,0.799476692705309,0.5,0.5,0.5,0.5,0.722050965538651,0.625310823772555,0.374689176227445,0.834439401303892,0.5,1.47576188085459,0.998385367126878,-0.834439401303892,-0.107675787452414,0.5,0.129039672963861,0.998897770028056,8.91294531804429,2.87725095993771,0.5,39.4460726598116
CBC_1001,CBC_1001_MSI_TV_v3_Vset3_Tset2_2023-06-08_12h53.37.433.csv,4,36,3,2,b,1,0,3,tac,D,63,1,3D,2D,1,0,b,1.13351109999985,1,0,1,1,3D,2D,D32,2.83321334405622,0.726763613851478,0.5,0.5,0.5,0.5,0.781549818214411,0.5,0.5,0.5,0.5,0.799476692705309,0.5,0.5,0.5,0.5,0.722050965538651,0.590851761424196,0.409148238575804,0.722050965538651,0.5,0.0459200954481608,0.990628685759094,0.277949034461349,0.0358664525075133,0.5,0.129039672963861,0.998897770028056,8.91294531804429,2.87725095993771,0.5,39.4460726598116
CBC_1001,CBC_1001_MSI_TV_v3_Vset3_Tset2_2023-06-08_12h53.37.433.csv,4,37,2,1,z,0,1,1,tac,B,9,1,2B,1B,0,1,b,2.62809680000009,1,0,0,0,2B,1B,B21,3.95124371858143,0.726763613851478,0.5,0.5,0.5,0.5,0.781549818214411,0.5,0.5,0.5,0.5,0.799476692705309,0.5,0.5,0.5,0.5,0.757917418046165,0.390152604989365,0.609847395010635,0.5,0.781549818214411,0.000376454315151284,0.00355493565107236,-0.5,-0.0645198364819303,0.5,0.129039672963861,0.998897770028056,8.91294531804429,2.87725095993771,0.5,39.4460726598116
CBC_1001,CBC_1001_MSI_TV_v3_Vset3_Tset2_2023-06-08_12h53.37.433.csv,4,38,0,2,b,1,0,0,tac,A,27,1,0A,2A,1,0,b,1.59139050000067,1,0,1,1,0A,2A,A02,2.87167962488401,0.726763613851478,0.5,0.5,0.5,0.5,0.781549818214411,0.43548016351807,0.5,0.5,0.5,0.799476692705309,0.5,0.5,0.5,0.5,0.757917418046165,0.592423516352732,0.407576483647268,0.726763613851478,0.5,1.05057069775424,0.991337801645687,0.273236386148522,0.0352583339104324,0.5,0.129039672963861,0.998897770028056,8.91294531804429,2.87725095993771,0.5,39.4460726598116
CBC_1001,CBC_1001_MSI_TV_v3_Vset3_Tset2_2023-06-08_12h53.37.433.csv,4,39,3,2,z,0,1,2,tac,C,63,1,3C,2C,0,1,z,1.88852140000108,0,1,1,1,2C,3C,C32,3.29583686600433,0.76202194776191,0.5,0.5,0.5,0.5,0.781549818214411,0.43548016351807,0.5,0.5,0.5,0.799476692705309,0.5,0.5,0.5,0.5,0.757917418046165,0.615229728392375,0.384770271607625,0.799476692705309,0.5,0.627930636074972,0.997301539661541,0.200523307294691,0.0258754619949387,0.5,0.129039672963861,0.998897770028056,8.91294531804429,2.87725095993771,0.5,39.4460726598116
CBC_1001,CBC_1001_MSI_TV_v3_Vset3_Tset2_2023-06-08_12h53.37.433.csv,4,40,3,1,b,1,0,3,tac,D,27,1,3D,1D,1,0,b,1.72650220000014,1,0,1,1,3D,1D,D31,3.31418600467253,0.76202194776191,0.5,0.5,0.5,0.5,0.781549818214411,0.43548016351807,0.5,0.5,0.5,0.825352154700247,0.5,0.5,0.5,0.5,0.757917418046165,0.60251762728859,0.39748237271141,0.757917418046165,0.5,0.917369643565343,0.994849069368734,0.242082581953835,0.0312382572055699,0.5,0.129039672963861,0.998897770028056,8.91294531804429,2.87725095993771,0.5,39.4460726598116
CBC_1001,CBC_1001_MSI_TV_v3_Vset3_Tset2_2023-06-08_12h53.37.433.csv,4,41,1,0,z,0,1,0,tac,A,63,1,1A,0A,0,1,z,1.50547420000021,0,1,1,1,0A,1A,A10,2.23359222150709,0.76202194776191,0.5,0.5,0.5,0.5,0.781549818214411,0.43548016351807,0.5,0.5,0.5,0.825352154700247,0.5,0.5,0.5,0.5,0.789155675251734,0.603810376763488,0.396189623236512,0.76202194776191,0.5,1.2420388172924,0.995147427451083,0.23797805223809,0.0307086100333796,0.5,0.129039672963861,0.998897770028056,8.91294531804429,2.87725095993771,0.5,39.4460726598116
CBC_1001,CBC_1001_MSI_TV_v3_Vset3_Tset2_2023-06-08_12h53.37.433.csv,4,42,2,0,b,1,0,2,tac,C,27,1,2C,0C,1,0,b,2.1963523000004,1,0,1,1,2C,0C,C20,3.3499040872746,0.79273055779529,0.5,0.5,0.5,0.5,0.781549818214411,0.43548016351807,0.5,0.5,0.5,0.825352154700247,0.5,0.5,0.5,0.5,0.789155675251734,0.622741776042848,0.377258223957152,0.825352154700247,0.5,0.243230156375707,0.998169492205932,0.174647845299753,0.022536500841323,0.5,0.129039672963861,0.998897770028056,8.91294531804429,2.87725095993771,0.5,39.4460726598116
CBC_1001,CBC_1001_MSI_TV_v3_Vset3_Tset2_2023-06-08_12h53.37.433.csv,4,43,2,3,z,0,1,3,tac,D,63,1,2D,3D,0,1,z,1.43312139999853,0,1,1,1,3D,2D,D23,2.67414864942653,0.79273055779529,0.5,0.5,0.5,0.5,0.781549818214411,0.43548016351807,0.5,0.5,0.5,0.84788865554157,0.5,0.5,0.5,0.5,0.789155675251734,0.612149246519537,0.387850753480463,0.789155675251734,0.5,1.3788621139092,0.996834615718625,0.210844324748266,0.0272072827118022,0.5,0.129039672963861,0.998897770028056,8.91294531804429,2.87725095993771,0.5,39.4460726598116
CBC_1001,CBC_1001_MSI_TV_v3_Vset3_Tset2_2023-06-08_12h53.37.433.csv,4,44,0,1,z,0,1,1,tac,B,63,1,0B,1B,0,1,z,1.3884175000012,0,1,1,1,1B,0B,B01,2.97892515523761,0.79273055779529,0.5,0.5,0.5,0.5,0.781549818214411,0.43548016351807,0.5,0.5,0.5,0.84788865554157,0.5,0.5,0.5,0.5,0.816362957963537,0.609847395010635,0.390152604989365,0.781549818214411,0.5,1.31321240596182,0.996436669629421,0.218450181785589,0.0281887400165083,0.5,0.129039672963861,0.998897770028056,8.91294531804429,2.87725095993771,0.5,39.4460726598116
