ID,filename,session,trial,visStimLeft,visStimRight,correctKey,leftCorrect,rightCorrect,secondStim,mod2Type,mod2Stim,frequency,rewardAccurate,stimPairLeft,stimPairRight,pCorrectLeft,pCorrectRight,key,reactionTime,choiceLeft,choiceRight,choiceAccurate,reward,chosenPair,otherPair,triplet,surprise,0A belief,1A belief,2A belief,3A belief,0B belief,1B belief,2B belief,3B belief,0C belief,1C belief,2C belief,3C belief,0D belief,1D belief,2D belief,3D belief,beliefPairNorm,beliefOtherPairNorm,beliefPair,beliefOtherPair,lik,corrLik,rewardPE,update2,fitCBCsimpleRW_CBCdriftDiffusionLR_startBelief,fitCBCsimpleRW_CBCdriftDiffusionLR_alpha1,fitCBCsimpleRW_CBCdriftDiffusionLR_nonDecisionTime,fitCBCsimpleRW_CBCdriftDiffusionLR_weight,fitCBCsimpleRW_CBCdriftDiffusionLR_startingBoundary,fitCBCsimpleRW_CBCdriftDiffusionLR_startingPoint,fit_CBCsimpleRW_CBCdriftDiffusionLR_NLL
CBC_1064,CBC_1064_MSI_TV_v3_Vset4_Tset1_2024-01-28_09h51.20.752.csv,1,1,0,1,b,1,0,2,tac,A,63,1,0A,1A,1,0,b,2.80129780000061,1,0,1,1,0A,1A,A01,2.77258872223978,0.5,0.5,0.5,0.5,0.5,0.5,0.5,0.5,0.5,0.5,0.5,0.5,0.5,0.5,0.5,0.5,0.5,0.5,0.5,0.5,0.135995652954845,0.499772704098537,0.5,0.0156080116568302,0.5,0.0312160233136605,1.09639683654332,3.43228291369849,2.7138128774014,0.5,79.1559535286937
CBC_1064,CBC_1064_MSI_TV_v3_Vset4_Tset1_2024-01-28_09h51.20.752.csv,1,2,2,3,z,0,1,0,tac,D,63,1,2D,3D,0,1,z,1.63326540000071,0,1,1,1,3D,2D,D23,2.83321334405622,0.51560801165683,0.5,0.5,0.5,0.5,0.5,0.5,0.5,0.5,0.5,0.5,0.5,0.5,0.5,0.5,0.5,0.5,0.5,0.5,0.5,0.247817031074671,0.500210467814031,0.5,0.0156080116568302,0.5,0.0312160233136605,1.09639683654332,3.43228291369849,2.7138128774014,0.5,79.1559535286937
CBC_1064,CBC_1064_MSI_TV_v3_Vset4_Tset1_2024-01-28_09h51.20.752.csv,1,3,0,2,z,0,1,1,tac,C,27,1,0C,2C,0,1,b,2.39908230000037,1,0,0,0,0C,2C,C02,2.89037175789616,0.51560801165683,0.5,0.5,0.5,0.5,0.5,0.5,0.5,0.5,0.5,0.5,0.5,0.5,0.5,0.5,0.51560801165683,0.5,0.5,0.5,0.5,0.177842376899795,0.500389174115463,-0.5,-0.0156080116568302,0.5,0.0312160233136605,1.09639683654332,3.43228291369849,2.7138128774014,0.5,79.1559535286937
CBC_1064,CBC_1064_MSI_TV_v3_Vset4_Tset1_2024-01-28_09h51.20.752.csv,1,4,0,1,b,1,0,2,tac,A,63,1,0A,1A,1,0,b,2.27949330000047,1,0,1,1,0A,1A,A01,2.2512917986065,0.51560801165683,0.5,0.5,0.5,0.5,0.5,0.5,0.5,0.48439198834317,0.5,0.5,0.5,0.5,0.5,0.5,0.51560801165683,0.507684072731648,0.492315927268352,0.51560801165683,0.5,0.206075221872921,0.53602472334601,0.48439198834317,0.0151207916010707,0.5,0.0312160233136605,1.09639683654332,3.43228291369849,2.7138128774014,0.5,79.1559535286937
CBC_1064,CBC_1064_MSI_TV_v3_Vset4_Tset1_2024-01-28_09h51.20.752.csv,1,5,1,3,b,1,0,3,tac,B,27,1,1B,3B,1,0,b,2.98004000000037,1,0,1,1,1B,3B,B13,2.99573227355399,0.530728803257901,0.5,0.5,0.5,0.5,0.5,0.5,0.5,0.48439198834317,0.5,0.5,0.5,0.5,0.5,0.5,0.51560801165683,0.5,0.5,0.5,0.5,0.120634550210163,0.499628367630272,0.5,0.0156080116568302,0.5,0.0312160233136605,1.09639683654332,3.43228291369849,2.7138128774014,0.5,79.1559535286937
CBC_1064,CBC_1064_MSI_TV_v3_Vset4_Tset1_2024-01-28_09h51.20.752.csv,1,6,3,2,z,0,1,1,tac,C,63,1,3C,2C,0,1,b,2.4762724000002,1,0,0,0,3C,2C,C32,3.04452243772342,0.530728803257901,0.5,0.5,0.5,0.5,0.51560801165683,0.5,0.5,0.48439198834317,0.5,0.5,0.5,0.5,0.5,0.5,0.51560801165683,0.5,0.5,0.5,0.5,0.168794749197762,0.499670303541078,-0.5,-0.0156080116568302,0.5,0.0312160233136605,1.09639683654332,3.43228291369849,2.7138128774014,0.5,79.1559535286937
CBC_1064,CBC_1064_MSI_TV_v3_Vset4_Tset1_2024-01-28_09h51.20.752.csv,1,7,3,2,b,1,0,0,tac,D,63,1,3D,2D,1,0,b,2.31592280000041,1,0,1,1,3D,2D,D32,3.09104245335832,0.530728803257901,0.5,0.5,0.5,0.5,0.51560801165683,0.5,0.5,0.48439198834317,0.5,0.5,0.48439198834317,0.5,0.5,0.5,0.51560801165683,0.507684072731648,0.492315927268352,0.51560801165683,0.5,0.201736825535947,0.537196840989692,0.48439198834317,0.0151207916010707,0.5,0.0312160233136605,1.09639683654332,3.43228291369849,2.7138128774014,0.5,79.1559535286937
CBC_1064,CBC_1064_MSI_TV_v3_Vset4_Tset1_2024-01-28_09h51.20.752.csv,1,8,0,1,z,0,1,3,tac,B,63,1,0B,1B,0,1,z,2.77802550000069,0,1,1,1,1B,0B,B01,3.13549421592915,0.530728803257901,0.5,0.5,0.5,0.5,0.51560801165683,0.5,0.5,0.48439198834317,0.5,0.5,0.48439198834317,0.5,0.5,0.5,0.530728803257901,0.507684072731648,0.492315927268352,0.51560801165683,0.5,0.147869605396873,0.534911065023553,0.48439198834317,0.0151207916010707,0.5,0.0312160233136605,1.09639683654332,3.43228291369849,2.7138128774014,0.5,79.1559535286937
CBC_1064,CBC_1064_MSI_TV_v3_Vset4_Tset1_2024-01-28_09h51.20.752.csv,1,9,2,0,z,0,1,2,tac,A,27,1,2A,0A,0,1,b,2.54355759999999,1,0,0,0,2A,0A,A20,3.17805383034795,0.530728803257901,0.5,0.5,0.5,0.5,0.530728803257901,0.5,0.5,0.48439198834317,0.5,0.5,0.48439198834317,0.5,0.5,0.5,0.530728803257901,0.485093652587968,0.514906347412032,0.5,0.530728803257901,0.13971562655476,0.431557345682815,-0.5,-0.0156080116568302,0.5,0.0312160233136605,1.09639683654332,3.43228291369849,2.7138128774014,0.5,79.1559535286937
CBC_1064,CBC_1064_MSI_TV_v3_Vset4_Tset1_2024-01-28_09h51.20.752.csv,1,10,3,0,b,1,0,0,tac,D,9,1,3D,0D,1,0,z,2.25042350000058,0,1,0,0,0D,3D,D30,3.2188758248682,0.530728803257901,0.5,0.48439198834317,0.5,0.5,0.530728803257901,0.5,0.5,0.48439198834317,0.5,0.5,0.48439198834317,0.5,0.5,0.5,0.530728803257901,0.485093652587968,0.514906347412032,0.5,0.530728803257901,0.169035384289848,0.430421200400623,-0.5,-0.0156080116568302,0.5,0.0312160233136605,1.09639683654332,3.43228291369849,2.7138128774014,0.5,79.1559535286937
CBC_1064,CBC_1064_MSI_TV_v3_Vset4_Tset1_2024-01-28_09h51.20.752.csv,1,11,2,3,b,1,0,1,tac,C,63,1,2C,3C,1,0,b,2.92855380000037,1,0,1,1,2C,3C,C23,3.25809653802148,0.530728803257901,0.5,0.48439198834317,0.5,0.5,0.530728803257901,0.5,0.5,0.48439198834317,0.5,0.5,0.48439198834317,0.48439198834317,0.5,0.5,0.530728803257901,0.507927742119834,0.492072257880166,0.5,0.48439198834317,0.134344102159346,0.537555906429231,0.5,0.0156080116568302,0.5,0.0312160233136605,1.09639683654332,3.43228291369849,2.7138128774014,0.5,79.1559535286937
CBC_1064,CBC_1064_MSI_TV_v3_Vset4_Tset1_2024-01-28_09h51.20.752.csv,1,12,0,1,z,0,1,3,tac,B,63,1,0B,1B,0,1,z,2.29483550000077,0,1,1,1,1B,0B,B01,2.60268968544438,0.530728803257901,0.5,0.48439198834317,0.5,0.5,0.530728803257901,0.5,0.5,0.48439198834317,0.5,0.51560801165683,0.48439198834317,0.48439198834317,0.5,0.5,0.530728803257901,0.514906347412032,0.485093652587968,0.530728803257901,0.5,0.217371809574683,0.569604855127094,0.469271196742099,0.0146487806179307,0.5,0.0312160233136605,1.09639683654332,3.43228291369849,2.7138128774014,0.5,79.1559535286937
CBC_1064,CBC_1064_MSI_TV_v3_Vset4_Tset1_2024-01-28_09h51.20.752.csv,1,13,2,3,z,0,1,0,tac,D,63,1,2D,3D,0,1,z,2.70712309999999,0,1,1,1,3D,2D,D23,2.63905732961526,0.530728803257901,0.5,0.48439198834317,0.5,0.5,0.545377583875832,0.5,0.5,0.48439198834317,0.5,0.51560801165683,0.48439198834317,0.48439198834317,0.5,0.5,0.530728803257901,0.514906347412032,0.485093652587968,0.530728803257901,0.5,0.164807282105925,0.568084954615412,0.469271196742099,0.0146487806179307,0.5,0.0312160233136605,1.09639683654332,3.43228291369849,2.7138128774014,0.5,79.1559535286937
CBC_1064,CBC_1064_MSI_TV_v3_Vset4_Tset1_2024-01-28_09h51.20.752.csv,1,14,2,3,b,1,0,1,tac,C,63,1,2C,3C,1,0,b,2.7338737,1,0,1,1,2C,3C,C23,2.67414864942653,0.530728803257901,0.5,0.48439198834317,0.5,0.5,0.545377583875832,0.5,0.5,0.48439198834317,0.5,0.51560801165683,0.48439198834317,0.48439198834317,0.5,0.5,0.545377583875832,0.51560801165683,0.48439198834317,0.51560801165683,0.48439198834317,0.163261743830909,0.572889922052987,0.48439198834317,0.0151207916010707,0.5,0.0312160233136605,1.09639683654332,3.43228291369849,2.7138128774014,0.5,79.1559535286937
CBC_1064,CBC_1064_MSI_TV_v3_Vset4_Tset1_2024-01-28_09h51.20.752.csv,1,15,3,1,z,0,1,3,tac,B,27,1,3B,1B,0,1,z,2.20909630000006,0,1,1,1,1B,3B,B31,3.40119738166216,0.530728803257901,0.5,0.48439198834317,0.5,0.5,0.545377583875832,0.5,0.5,0.48439198834317,0.5,0.530728803257901,0.48439198834317,0.48439198834317,0.5,0.5,0.545377583875832,0.521703920466512,0.478296079533488,0.545377583875832,0.5,0.243085346600004,0.600342832238745,0.454622416124168,0.0141915039406447,0.5,0.0312160233136605,1.09639683654332,3.43228291369849,2.7138128774014,0.5,79.1559535286937
CBC_1064,CBC_1064_MSI_TV_v3_Vset4_Tset1_2024-01-28_09h51.20.752.csv,1,16,0,3,b,1,0,2,tac,A,9,1,0A,3A,1,0,z,2.91330150000067,0,1,0,0,3A,0A,A03,3.43398720448515,0.530728803257901,0.5,0.48439198834317,0.5,0.5,0.559569087816476,0.5,0.5,0.48439198834317,0.5,0.530728803257901,0.48439198834317,0.48439198834317,0.5,0.5,0.545377583875832,0.485093652587968,0.514906347412032,0.5,0.530728803257901,0.108906256406416,0.43130921006257,-0.5,-0.0156080116568302,0.5,0.0312160233136605,1.09639683654332,3.43228291369849,2.7138128774014,0.5,79.1559535286937
CBC_1064,CBC_1064_MSI_TV_v3_Vset4_Tset1_2024-01-28_09h51.20.752.csv,1,17,2,3,z,0,1,0,tac,D,63,1,2D,3D,0,1,z,2.15158210000118,0,1,1,1,3D,2D,D23,2.36712361413162,0.530728803257901,0.5,0.48439198834317,0.48439198834317,0.5,0.559569087816476,0.5,0.5,0.48439198834317,0.5,0.530728803257901,0.48439198834317,0.48439198834317,0.5,0.5,0.545377583875832,0.521703920466512,0.478296079533488,0.545377583875832,0.5,0.252189771607165,0.600556201074573,0.454622416124168,0.0141915039406447,0.5,0.0312160233136605,1.09639683654332,3.43228291369849,2.7138128774014,0.5,79.1559535286937
CBC_1064,CBC_1064_MSI_TV_v3_Vset4_Tset1_2024-01-28_09h51.20.752.csv,1,18,0,2,z,0,1,1,tac,C,27,1,0C,2C,0,1,b,2.89599120000094,1,0,0,0,0C,2C,C02,2.80336038090653,0.530728803257901,0.5,0.48439198834317,0.48439198834317,0.5,0.559569087816476,0.5,0.5,0.48439198834317,0.5,0.530728803257901,0.48439198834317,0.48439198834317,0.5,0.5,0.559569087816476,0.477176698921885,0.522823301078115,0.48439198834317,0.530728803257901,0.101164181135681,0.395937590059017,-0.48439198834317,-0.0151207916010707,0.5,0.0312160233136605,1.09639683654332,3.43228291369849,2.7138128774014,0.5,79.1559535286937
CBC_1064,CBC_1064_MSI_TV_v3_Vset4_Tset1_2024-01-28_09h51.20.752.csv,1,19,0,1,b,1,0,2,tac,A,63,1,0A,1A,1,0,z,2.3418784000005,0,1,0,0,1A,0A,A01,2.42774823594805,0.530728803257901,0.5,0.48439198834317,0.48439198834317,0.5,0.559569087816476,0.5,0.5,0.469271196742099,0.5,0.530728803257901,0.48439198834317,0.48439198834317,0.5,0.5,0.559569087816476,0.485093652587968,0.514906347412032,0.5,0.530728803257901,0.159785417682349,0.431805271995628,-0.5,-0.0156080116568302,0.5,0.0312160233136605,1.09639683654332,3.43228291369849,2.7138128774014,0.5,79.1559535286937
CBC_1064,CBC_1064_MSI_TV_v3_Vset4_Tset1_2024-01-28_09h51.20.752.csv,1,20,1,0,b,1,0,3,tac,B,63,0,1B,0B,0,1,b,1.6785060000002,1,0,1,0,1B,0B,B10,3.55534806148941,0.530728803257901,0.48439198834317,0.48439198834317,0.48439198834317,0.5,0.559569087816476,0.5,0.5,0.469271196742099,0.5,0.530728803257901,0.48439198834317,0.48439198834317,0.5,0.5,0.559569087816476,0.52811005365362,0.47188994634638,0.559569087816476,0.5,0.32176730693282,0.627321199769062,-0.559569087816476,-0.0174675216908829,0.5,0.0312160233136605,1.09639683654332,3.43228291369849,2.7138128774014,0.5,79.1559535286937
CBC_1064,CBC_1064_MSI_TV_v3_Vset4_Tset1_2024-01-28_09h51.20.752.csv,1,21,3,1,b,1,0,0,tac,D,27,1,3D,1D,1,0,z,2.65859230000115,0,1,0,0,1D,3D,D31,3.58351893845611,0.530728803257901,0.48439198834317,0.48439198834317,0.48439198834317,0.5,0.542101566125594,0.5,0.5,0.469271196742099,0.5,0.530728803257901,0.48439198834317,0.48439198834317,0.5,0.5,0.559569087816476,0.47188994634638,0.52811005365362,0.5,0.559569087816476,0.112068396888348,0.372645356375701,-0.5,-0.0156080116568302,0.5,0.0312160233136605,1.09639683654332,3.43228291369849,2.7138128774014,0.5,79.1559535286937
CBC_1064,CBC_1064_MSI_TV_v3_Vset4_Tset1_2024-01-28_09h51.20.752.csv,1,22,3,2,z,0,1,1,tac,C,63,1,3C,2C,0,1,b,3.30541370000083,1,0,0,0,3C,2C,C32,2.91777073208428,0.530728803257901,0.48439198834317,0.48439198834317,0.48439198834317,0.5,0.542101566125594,0.5,0.5,0.469271196742099,0.5,0.530728803257901,0.48439198834317,0.48439198834317,0.48439198834317,0.5,0.559569087816476,0.477176698921885,0.522823301078115,0.48439198834317,0.530728803257901,0.0763470946132114,0.39504877444977,-0.48439198834317,-0.0151207916010707,0.5,0.0312160233136605,1.09639683654332,3.43228291369849,2.7138128774014,0.5,79.1559535286937
CBC_1064,CBC_1064_MSI_TV_v3_Vset4_Tset1_2024-01-28_09h51.20.752.csv,1,23,0,1,z,0,1,3,tac,B,63,1,0B,1B,0,1,b,2.44489299999987,1,0,0,0,0B,1B,B01,2.53897387105828,0.530728803257901,0.48439198834317,0.48439198834317,0.48439198834317,0.5,0.542101566125594,0.5,0.5,0.469271196742099,0.5,0.530728803257901,0.469271196742099,0.48439198834317,0.48439198834317,0.5,0.559569087816476,0.479799681962804,0.520200318037196,0.5,0.542101566125594,0.141108947733899,0.407280461822146,-0.5,-0.0156080116568302,0.5,0.0312160233136605,1.09639683654332,3.43228291369849,2.7138128774014,0.5,79.1559535286937
CBC_1064,CBC_1064_MSI_TV_v3_Vset4_Tset1_2024-01-28_09h51.20.752.csv,1,24,0,2,b,1,0,2,tac,A,27,1,0A,2A,1,0,z,2.6517617999998,0,1,0,0,2A,0A,A02,3.66356164612965,0.530728803257901,0.48439198834317,0.48439198834317,0.48439198834317,0.48439198834317,0.542101566125594,0.5,0.5,0.469271196742099,0.5,0.530728803257901,0.469271196742099,0.48439198834317,0.48439198834317,0.5,0.559569087816476,0.477176698921885,0.522823301078115,0.48439198834317,0.530728803257901,0.119110657134261,0.394813495448821,-0.48439198834317,-0.0151207916010707,0.5,0.0312160233136605,1.09639683654332,3.43228291369849,2.7138128774014,0.5,79.1559535286937
CBC_1064,CBC_1064_MSI_TV_v3_Vset4_Tset1_2024-01-28_09h51.20.752.csv,1,25,3,2,b,1,0,0,tac,D,63,1,3D,2D,1,0,z,2.67406670000037,0,1,0,0,2D,3D,D32,2.99573227355399,0.530728803257901,0.48439198834317,0.469271196742099,0.48439198834317,0.48439198834317,0.542101566125594,0.5,0.5,0.469271196742099,0.5,0.530728803257901,0.469271196742099,0.48439198834317,0.48439198834317,0.5,0.559569087816476,0.47188994634638,0.52811005365362,0.5,0.559569087816476,0.110356386748812,0.370816487063699,-0.5,-0.0156080116568302,0.5,0.0312160233136605,1.09639683654332,3.43228291369849,2.7138128774014,0.5,79.1559535286937
CBC_1064,CBC_1064_MSI_TV_v3_Vset4_Tset1_2024-01-28_09h51.20.752.csv,1,26,0,2,z,0,1,1,tac,C,27,1,0C,2C,0,1,b,2.93370589999995,1,0,0,0,0C,2C,C02,2.6149597780362,0.530728803257901,0.48439198834317,0.469271196742099,0.48439198834317,0.48439198834317,0.542101566125594,0.5,0.5,0.469271196742099,0.5,0.530728803257901,0.469271196742099,0.48439198834317,0.48439198834317,0.48439198834317,0.559569087816476,0.469271196742099,0.530728803257901,0.469271196742099,0.530728803257901,0.0896073672442125,0.359961327267728,-0.469271196742099,-0.0146487806179307,0.5,0.0312160233136605,1.09639683654332,3.43228291369849,2.7138128774014,0.5,79.1559535286937
CBC_1064,CBC_1064_MSI_TV_v3_Vset4_Tset1_2024-01-28_09h51.20.752.csv,1,27,0,1,z,0,1,3,tac,B,63,1,0B,1B,0,1,z,2.77786030000061,0,1,1,1,1B,0B,B01,2.35137525716348,0.530728803257901,0.48439198834317,0.469271196742099,0.48439198834317,0.48439198834317,0.542101566125594,0.5,0.5,0.454622416124168,0.5,0.530728803257901,0.469271196742099,0.48439198834317,0.48439198834317,0.48439198834317,0.559569087816476,0.52811005365362,0.47188994634638,0.542101566125594,0.48439198834317,0.174029603638266,0.627978829553213,0.457898433874406,0.0142937681871121,0.5,0.0312160233136605,1.09639683654332,3.43228291369849,2.7138128774014,0.5,79.1559535286937
CBC_1064,CBC_1064_MSI_TV_v3_Vset4_Tset1_2024-01-28_09h51.20.752.csv,1,28,1,0,z,0,1,2,tac,A,63,1,1A,0A,0,1,b,2.55344140000125,1,0,0,0,1A,0A,A10,3.76120011569356,0.530728803257901,0.48439198834317,0.469271196742099,0.48439198834317,0.48439198834317,0.556395334312706,0.5,0.5,0.454622416124168,0.5,0.530728803257901,0.469271196742099,0.48439198834317,0.48439198834317,0.48439198834317,0.559569087816476,0.477176698921885,0.522823301078115,0.48439198834317,0.530728803257901,0.12710535106178,0.394145395886271,-0.48439198834317,-0.0151207916010707,0.5,0.0312160233136605,1.09639683654332,3.43228291369849,2.7138128774014,0.5,79.1559535286937
CBC_1064,CBC_1064_MSI_TV_v3_Vset4_Tset1_2024-01-28_09h51.20.752.csv,1,29,2,3,b,1,0,1,tac,C,63,1,2C,3C,1,0,z,3.11152690000017,0,1,0,0,3C,2C,C23,2.68557734525015,0.530728803257901,0.469271196742099,0.469271196742099,0.48439198834317,0.48439198834317,0.556395334312706,0.5,0.5,0.454622416124168,0.5,0.530728803257901,0.469271196742099,0.48439198834317,0.48439198834317,0.48439198834317,0.559569087816476,0.469271196742099,0.530728803257901,0.469271196742099,0.530728803257901,0.0793836034670383,0.360629706000801,-0.469271196742099,-0.0146487806179307,0.5,0.0312160233136605,1.09639683654332,3.43228291369849,2.7138128774014,0.5,79.1559535286937
CBC_1064,CBC_1064_MSI_TV_v3_Vset4_Tset1_2024-01-28_09h51.20.752.csv,1,30,1,3,z,0,1,0,tac,D,27,1,1D,3D,0,1,z,3.71114190000026,0,1,1,1,3D,1D,D13,3.80666248977032,0.530728803257901,0.469271196742099,0.469271196742099,0.48439198834317,0.48439198834317,0.556395334312706,0.5,0.5,0.454622416124168,0.5,0.530728803257901,0.454622416124168,0.48439198834317,0.48439198834317,0.48439198834317,0.559569087816476,0.536005700399222,0.463994299600778,0.559569087816476,0.48439198834317,0.0955035134756906,0.661586757209407,0.440430912183524,0.0137485016227776,0.5,0.0312160233136605,1.09639683654332,3.43228291369849,2.7138128774014,0.5,79.1559535286937
CBC_1064,CBC_1064_MSI_TV_v3_Vset4_Tset1_2024-01-28_09h51.20.752.csv,1,31,0,1,b,1,0,2,tac,A,63,1,0A,1A,1,0,b,2.44258470000022,1,0,1,1,0A,1A,A01,2.4423470353692,0.530728803257901,0.469271196742099,0.469271196742099,0.48439198834317,0.48439198834317,0.556395334312706,0.5,0.5,0.454622416124168,0.5,0.530728803257901,0.454622416124168,0.48439198834317,0.48439198834317,0.48439198834317,0.573317589439254,0.530728803257901,0.469271196742099,0.530728803257901,0.469271196742099,0.223054821897149,0.639090028126913,0.469271196742099,0.0146487806179307,0.5,0.0312160233136605,1.09639683654332,3.43228291369849,2.7138128774014,0.5,79.1559535286937
CBC_1064,CBC_1064_MSI_TV_v3_Vset4_Tset1_2024-01-28_09h51.20.752.csv,1,32,2,3,z,0,1,0,tac,D,63,1,2D,3D,0,1,z,2.2233468000004,0,1,1,1,3D,2D,D23,2.46385324059017,0.545377583875832,0.469271196742099,0.469271196742099,0.48439198834317,0.48439198834317,0.556395334312706,0.5,0.5,0.454622416124168,0.5,0.530728803257901,0.454622416124168,0.48439198834317,0.48439198834317,0.48439198834317,0.573317589439254,0.542036870500182,0.457963129499818,0.573317589439254,0.48439198834317,0.280439738819326,0.685347378209474,0.426682410560746,0.0133193280755931,0.5,0.0312160233136605,1.09639683654332,3.43228291369849,2.7138128774014,0.5,79.1559535286937
CBC_1064,CBC_1064_MSI_TV_v3_Vset4_Tset1_2024-01-28_09h51.20.752.csv,1,33,1,2,b,1,0,3,tac,B,9,1,1B,2B,1,0,z,2.79474840000057,0,1,0,0,2B,1B,B12,3.87120101090789,0.545377583875832,0.469271196742099,0.469271196742099,0.48439198834317,0.48439198834317,0.556395334312706,0.5,0.5,0.454622416124168,0.5,0.530728803257901,0.454622416124168,0.48439198834317,0.48439198834317,0.48439198834317,0.586636917514847,0.473307656480045,0.526692343519955,0.5,0.556395334312706,0.10352832271845,0.378005475266941,-0.5,-0.0156080116568302,0.5,0.0312160233136605,1.09639683654332,3.43228291369849,2.7138128774014,0.5,79.1559535286937
CBC_1064,CBC_1064_MSI_TV_v3_Vset4_Tset1_2024-01-28_09h51.20.752.csv,1,34,0,1,b,1,0,2,tac,A,63,1,0A,1A,1,0,b,2.43990630000008,1,0,1,1,0A,1A,A01,2.28238238567653,0.545377583875832,0.469271196742099,0.469271196742099,0.48439198834317,0.48439198834317,0.556395334312706,0.48439198834317,0.5,0.454622416124168,0.5,0.530728803257901,0.454622416124168,0.48439198834317,0.48439198834317,0.48439198834317,0.586636917514847,0.537503808503758,0.462496191496242,0.545377583875832,0.469271196742099,0.234764113937058,0.668164852295125,0.454622416124168,0.0141915039406447,0.5,0.0312160233136605,1.09639683654332,3.43228291369849,2.7138128774014,0.5,79.1559535286937
CBC_1064,CBC_1064_MSI_TV_v3_Vset4_Tset1_2024-01-28_09h51.20.752.csv,1,35,1,2,z,0,1,1,tac,C,9,1,1C,2C,0,1,b,2.58453240000108,1,0,0,0,1C,2C,C12,3.91202300542815,0.559569087816476,0.469271196742099,0.469271196742099,0.48439198834317,0.48439198834317,0.556395334312706,0.48439198834317,0.5,0.454622416124168,0.5,0.530728803257901,0.454622416124168,0.48439198834317,0.48439198834317,0.48439198834317,0.586636917514847,0.485093652587968,0.514906347412032,0.5,0.530728803257901,0.135683706550642,0.430732747948092,-0.5,-0.0156080116568302,0.5,0.0312160233136605,1.09639683654332,3.43228291369849,2.7138128774014,0.5,79.1559535286937
CBC_1064,CBC_1064_MSI_TV_v3_Vset4_Tset1_2024-01-28_09h51.20.752.csv,1,36,0,1,z,0,1,3,tac,B,63,1,0B,1B,0,1,z,2.49379110000064,0,1,1,1,1B,0B,B01,2.32238772029023,0.559569087816476,0.469271196742099,0.469271196742099,0.48439198834317,0.48439198834317,0.556395334312706,0.48439198834317,0.5,0.454622416124168,0.48439198834317,0.530728803257901,0.454622416124168,0.48439198834317,0.48439198834317,0.48439198834317,0.586636917514847,0.534590806595241,0.465409193404759,0.556395334312706,0.48439198834317,0.221753635508127,0.656340516907293,0.443604665687294,0.0138475735861431,0.5,0.0312160233136605,1.09639683654332,3.43228291369849,2.7138128774014,0.5,79.1559535286937
CBC_1064,CBC_1064_MSI_TV_v3_Vset4_Tset1_2024-01-28_09h51.20.752.csv,1,37,1,0,z,0,1,2,tac,A,63,0,1A,0A,1,0,z,2.23780490000081,0,1,1,0,0A,1A,A10,3.25809653802148,0.559569087816476,0.469271196742099,0.469271196742099,0.48439198834317,0.48439198834317,0.570242907898849,0.48439198834317,0.5,0.454622416124168,0.48439198834317,0.530728803257901,0.454622416124168,0.48439198834317,0.48439198834317,0.48439198834317,0.586636917514847,0.543883337593609,0.456116662406391,0.559569087816476,0.469271196742099,0.281721228238175,0.693484903457685,-0.559569087816476,-0.0174675216908829,0.5,0.0312160233136605,1.09639683654332,3.43228291369849,2.7138128774014,0.5,79.1559535286937
CBC_1064,CBC_1064_MSI_TV_v3_Vset4_Tset1_2024-01-28_09h51.20.752.csv,1,38,1,0,b,1,0,3,tac,B,63,1,1B,0B,1,0,b,3.07918640000116,1,0,1,1,1B,0B,B10,3.27714473299218,0.542101566125594,0.469271196742099,0.469271196742099,0.48439198834317,0.48439198834317,0.570242907898849,0.48439198834317,0.5,0.454622416124168,0.48439198834317,0.530728803257901,0.454622416124168,0.48439198834317,0.48439198834317,0.48439198834317,0.586636917514847,0.540701725242352,0.459298274757648,0.570242907898849,0.48439198834317,0.15264895425959,0.680448172941832,0.429757092101151,0.0134153074062405,0.5,0.0312160233136605,1.09639683654332,3.43228291369849,2.7138128774014,0.5,79.1559535286937
CBC_1064,CBC_1064_MSI_TV_v3_Vset4_Tset1_2024-01-28_09h51.20.752.csv,1,39,3,1,b,1,0,0,tac,D,27,1,3D,1D,1,0,z,5.1459734,0,1,0,0,1D,3D,D31,3.29583686600433,0.542101566125594,0.469271196742099,0.469271196742099,0.48439198834317,0.48439198834317,0.583658215305089,0.48439198834317,0.5,0.454622416124168,0.48439198834317,0.530728803257901,0.454622416124168,0.48439198834317,0.48439198834317,0.48439198834317,0.586636917514847,0.4522678946327,0.5477321053673,0.48439198834317,0.586636917514847,0.014621554725703,0.29172136052264,-0.48439198834317,-0.0151207916010707,0.5,0.0312160233136605,1.09639683654332,3.43228291369849,2.7138128774014,0.5,79.1559535286937
CBC_1064,CBC_1064_MSI_TV_v3_Vset4_Tset1_2024-01-28_09h51.20.752.csv,1,40,2,3,b,1,0,1,tac,C,63,1,2C,3C,1,0,b,2.43776700000035,1,0,1,1,2C,3C,C23,2.62103882411258,0.542101566125594,0.469271196742099,0.469271196742099,0.48439198834317,0.48439198834317,0.583658215305089,0.48439198834317,0.5,0.454622416124168,0.48439198834317,0.530728803257901,0.454622416124168,0.48439198834317,0.469271196742099,0.48439198834317,0.586636917514847,0.538618913559299,0.461381086440701,0.530728803257901,0.454622416124168,0.236968660924408,0.672855200722099,0.469271196742099,0.0146487806179307,0.5,0.0312160233136605,1.09639683654332,3.43228291369849,2.7138128774014,0.5,79.1559535286937
CBC_1064,CBC_1064_MSI_TV_v3_Vset4_Tset1_2024-01-28_09h51.20.752.csv,1,41,2,0,z,0,1,2,tac,A,27,1,2A,0A,0,1,z,2.26854110000113,0,1,1,1,0A,2A,A20,3.3322045101752,0.542101566125594,0.469271196742099,0.469271196742099,0.48439198834317,0.48439198834317,0.583658215305089,0.48439198834317,0.5,0.454622416124168,0.48439198834317,0.545377583875832,0.454622416124168,0.48439198834317,0.469271196742099,0.48439198834317,0.586636917514847,0.536005700399222,0.463994299600778,0.542101566125594,0.469271196742099,0.260662995178821,0.661043838565136,0.457898433874406,0.0142937681871121,0.5,0.0312160233136605,1.09639683654332,3.43228291369849,2.7138128774014,0.5,79.1559535286937
CBC_1064,CBC_1064_MSI_TV_v3_Vset4_Tset1_2024-01-28_09h51.20.752.csv,1,42,3,2,b,1,0,0,tac,D,63,1,3D,2D,1,0,b,2.65795799999978,1,0,1,1,3D,2D,D32,2.94443897916644,0.556395334312706,0.469271196742099,0.469271196742099,0.48439198834317,0.48439198834317,0.583658215305089,0.48439198834317,0.5,0.454622416124168,0.48439198834317,0.545377583875832,0.454622416124168,0.48439198834317,0.469271196742099,0.48439198834317,0.586636917514847,0.5477321053673,0.4522678946327,0.586636917514847,0.48439198834317,0.214680180397387,0.708475217444614,0.413363082485153,0.0129035516198631,0.5,0.0312160233136605,1.09639683654332,3.43228291369849,2.7138128774014,0.5,79.1559535286937
CBC_1064,CBC_1064_MSI_TV_v3_Vset4_Tset1_2024-01-28_09h51.20.752.csv,1,43,3,1,z,0,1,3,tac,B,27,1,3B,1B,0,1,z,2.76018769999973,0,1,1,1,1B,3B,B31,3.36729582998647,0.556395334312706,0.469271196742099,0.469271196742099,0.48439198834317,0.48439198834317,0.583658215305089,0.48439198834317,0.5,0.454622416124168,0.48439198834317,0.545377583875832,0.454622416124168,0.48439198834317,0.469271196742099,0.48439198834317,0.59954046913471,0.538599908219925,0.461400091780075,0.583658215305089,0.5,0.189112777563082,0.672839270648404,0.416341784694911,0.0129965348574873,0.5,0.0312160233136605,1.09639683654332,3.43228291369849,2.7138128774014,0.5,79.1559535286937
CBC_1064,CBC_1064_MSI_TV_v3_Vset4_Tset1_2024-01-28_09h51.20.752.csv,1,44,2,3,b,1,0,1,tac,C,63,1,2C,3C,1,0,z,2.98662220000097,0,1,0,0,3C,2C,C23,2.46809953147162,0.556395334312706,0.469271196742099,0.469271196742099,0.48439198834317,0.48439198834317,0.596654750162577,0.48439198834317,0.5,0.454622416124168,0.48439198834317,0.545377583875832,0.454622416124168,0.48439198834317,0.469271196742099,0.48439198834317,0.59954046913471,0.454622416124168,0.545377583875832,0.454622416124168,0.545377583875832,0.0719907948843678,0.300942029595592,-0.454622416124168,-0.0141915039406447,0.5,0.0312160233136605,1.09639683654332,3.43228291369849,2.7138128774014,0.5,79.1559535286937
CBC_1064,CBC_1064_MSI_AV_v3_Vset5_Aset1_2024-01-28_10h00.06.405.csv,2,1,1,0,b,1,0,3,aud,B,63,1,1B,0B,1,0,b,2.43312379999952,1,0,1,1,1B,0B,B10,2.77258872223978,0.5,0.5,0.5,0.5,0.5,0.5,0.5,0.5,0.5,0.5,0.5,0.5,0.5,0.5,0.5,0.5,0.5,0.5,0.5,0.5,0.17296058335438,0.500221407631595,0.5,0.00439868833102991,0.5,0.00879737666205982,1.08293941983464,0.0477211691366338,2.48820585021698,0.5,71.152062937886
CBC_1064,CBC_1064_MSI_AV_v3_Vset5_Aset1_2024-01-28_10h00.06.405.csv,2,2,0,1,b,1,0,2,aud,A,63,1,0A,1A,1,0,b,2.89514369999961,1,0,1,1,0A,1A,A01,2.83321334405622,0.5,0.5,0.5,0.5,0.5,0.50439868833103,0.5,0.5,0.5,0.5,0.5,0.5,0.5,0.5,0.5,0.5,0.5,0.5,0.5,0.5,0.119513085891878,0.499275201240721,0.5,0.00439868833102991,0.5,0.00879737666205982,1.08293941983464,0.0477211691366338,2.48820585021698,0.5,71.152062937886
CBC_1064,CBC_1064_MSI_AV_v3_Vset5_Aset1_2024-01-28_10h00.06.405.csv,2,3,1,2,z,0,1,1,aud,C,9,1,1C,2C,0,1,z,3.94740849999926,0,1,1,1,2C,1C,C12,2.89037175789616,0.50439868833103,0.5,0.5,0.5,0.5,0.50439868833103,0.5,0.5,0.5,0.5,0.5,0.5,0.5,0.5,0.5,0.5,0.5,0.5,0.5,0.5,0.0516607231030336,0.499262196785114,0.5,0.00439868833102991,0.5,0.00879737666205982,1.08293941983464,0.0477211691366338,2.48820585021698,0.5,71.152062937886
CBC_1064,CBC_1064_MSI_AV_v3_Vset5_Aset1_2024-01-28_10h00.06.405.csv,2,4,1,0,z,0,1,2,aud,A,63,1,1A,0A,0,1,b,1.84586919999947,1,0,0,0,1A,0A,A10,2.94443897916644,0.50439868833103,0.5,0.5,0.5,0.5,0.50439868833103,0.5,0.5,0.5,0.5,0.50439868833103,0.5,0.5,0.5,0.5,0.5,0.497810287696443,0.502189712303557,0.5,0.50439868833103,0.270455777716434,0.50113290925941,-0.5,-0.00439868833102991,0.5,0.00879737666205982,1.08293941983464,0.0477211691366338,2.48820585021698,0.5,71.152062937886
CBC_1064,CBC_1064_MSI_AV_v3_Vset5_Aset1_2024-01-28_10h00.06.405.csv,2,5,3,1,b,1,0,0,aud,D,27,1,3D,1D,1,0,b,2.7124176999987,1,0,1,1,3D,1D,D31,2.99573227355399,0.50439868833103,0.49560131166897,0.5,0.5,0.5,0.50439868833103,0.5,0.5,0.5,0.5,0.50439868833103,0.5,0.5,0.5,0.5,0.5,0.5,0.5,0.5,0.5,0.138239779086929,0.499265966909318,0.5,0.00439868833102991,0.5,0.00879737666205982,1.08293941983464,0.0477211691366338,2.48820585021698,0.5,71.152062937886
CBC_1064,CBC_1064_MSI_AV_v3_Vset5_Aset1_2024-01-28_10h00.06.405.csv,2,6,0,1,z,0,1,3,aud,B,63,1,0B,1B,0,1,b,2.40549559999999,1,0,0,0,0B,1B,B01,3.04452243772342,0.50439868833103,0.49560131166897,0.5,0.5,0.5,0.50439868833103,0.5,0.5,0.5,0.5,0.50439868833103,0.5,0.5,0.5,0.5,0.50439868833103,0.497810287696443,0.502189712303557,0.5,0.50439868833103,0.176615795449341,0.499719836673669,-0.5,-0.00439868833102991,0.5,0.00879737666205982,1.08293941983464,0.0477211691366338,2.48820585021698,0.5,71.152062937886
CBC_1064,CBC_1064_MSI_AV_v3_Vset5_Aset1_2024-01-28_10h00.06.405.csv,2,7,2,3,b,1,0,1,aud,C,63,1,2C,3C,1,0,b,1.88415499999883,1,0,1,1,2C,3C,C23,3.09104245335832,0.50439868833103,0.49560131166897,0.5,0.5,0.49560131166897,0.50439868833103,0.5,0.5,0.5,0.5,0.50439868833103,0.5,0.5,0.5,0.5,0.50439868833103,0.502189712303557,0.497810287696443,0.50439868833103,0.5,0.263440077931521,0.50069118894973,0.49560131166897,0.00435999141296283,0.5,0.00879737666205982,1.08293941983464,0.0477211691366338,2.48820585021698,0.5,71.152062937886
CBC_1064,CBC_1064_MSI_AV_v3_Vset5_Aset1_2024-01-28_10h00.06.405.csv,2,8,2,0,z,0,1,2,aud,A,27,1,2A,0A,0,1,b,2.31698079999933,1,0,0,0,2A,0A,A20,3.13549421592915,0.50439868833103,0.49560131166897,0.5,0.5,0.49560131166897,0.50439868833103,0.5,0.5,0.5,0.5,0.508758679743993,0.5,0.5,0.5,0.5,0.50439868833103,0.497810287696443,0.502189712303557,0.5,0.50439868833103,0.189689080588859,0.500396033260116,-0.5,-0.00439868833102991,0.5,0.00879737666205982,1.08293941983464,0.0477211691366338,2.48820585021698,0.5,71.152062937886
CBC_1064,CBC_1064_MSI_AV_v3_Vset5_Aset1_2024-01-28_10h00.06.405.csv,2,9,3,2,b,1,0,0,aud,D,63,1,3D,2D,1,0,b,2.12879249999878,1,0,1,1,3D,2D,D32,3.17805383034795,0.50439868833103,0.49560131166897,0.49560131166897,0.5,0.49560131166897,0.50439868833103,0.5,0.5,0.5,0.5,0.508758679743993,0.5,0.5,0.5,0.5,0.50439868833103,0.502189712303557,0.497810287696443,0.50439868833103,0.5,0.219574333308901,0.499882668516277,0.49560131166897,0.00435999141296283,0.5,0.00879737666205982,1.08293941983464,0.0477211691366338,2.48820585021698,0.5,71.152062937886
CBC_1064,CBC_1064_MSI_AV_v3_Vset5_Aset1_2024-01-28_10h00.06.405.csv,2,10,3,1,z,0,1,3,aud,B,27,1,3B,1B,0,1,z,2.60676799999874,0,1,1,1,1B,3B,B31,3.2188758248682,0.50439868833103,0.49560131166897,0.49560131166897,0.5,0.49560131166897,0.50439868833103,0.5,0.5,0.5,0.5,0.508758679743993,0.5,0.5,0.5,0.5,0.508758679743993,0.502189712303557,0.497810287696443,0.50439868833103,0.5,0.150420410537843,0.499427070619069,0.49560131166897,0.00435999141296283,0.5,0.00879737666205982,1.08293941983464,0.0477211691366338,2.48820585021698,0.5,71.152062937886
CBC_1064,CBC_1064_MSI_AV_v3_Vset5_Aset1_2024-01-28_10h00.06.405.csv,2,11,3,2,z,0,1,1,aud,C,63,1,3C,2C,0,1,b,3.06204389999857,1,0,0,0,3C,2C,C32,3.25809653802148,0.50439868833103,0.49560131166897,0.49560131166897,0.5,0.49560131166897,0.508758679743993,0.5,0.5,0.5,0.5,0.508758679743993,0.5,0.5,0.5,0.5,0.508758679743993,0.495658684321697,0.504341315678303,0.5,0.508758679743993,0.104676297026309,0.499504575417833,-0.5,-0.00439868833102991,0.5,0.00879737666205982,1.08293941983464,0.0477211691366338,2.48820585021698,0.5,71.152062937886
CBC_1064,CBC_1064_MSI_AV_v3_Vset5_Aset1_2024-01-28_10h00.06.405.csv,2,12,1,3,b,1,0,3,aud,B,27,1,1B,3B,1,0,b,2.19040469999982,1,0,1,1,1B,3B,B13,3.29583686600433,0.50439868833103,0.49560131166897,0.49560131166897,0.5,0.49560131166897,0.508758679743993,0.5,0.5,0.5,0.5,0.508758679743993,0.49560131166897,0.5,0.5,0.5,0.508758679743993,0.504341315678303,0.495658684321697,0.508758679743993,0.5,0.209326272585909,0.499918230547551,0.491241320256007,0.00432163492625965,0.5,0.00879737666205982,1.08293941983464,0.0477211691366338,2.48820585021698,0.5,71.152062937886
CBC_1064,CBC_1064_MSI_AV_v3_Vset5_Aset1_2024-01-28_10h00.06.405.csv,2,13,3,2,z,0,1,1,aud,C,63,1,3C,2C,0,1,b,2.5406183999994,1,0,0,0,3C,2C,C32,2.63905732961526,0.50439868833103,0.49560131166897,0.49560131166897,0.5,0.49560131166897,0.513080314670252,0.5,0.5,0.5,0.5,0.508758679743993,0.49560131166897,0.5,0.5,0.5,0.508758679743993,0.493449874453625,0.506550125546375,0.49560131166897,0.508758679743993,0.158974142866153,0.50076549607612,-0.49560131166897,-0.00435999141296283,0.5,0.00879737666205982,1.08293941983464,0.0477211691366338,2.48820585021698,0.5,71.152062937886
CBC_1064,CBC_1064_MSI_AV_v3_Vset5_Aset1_2024-01-28_10h00.06.405.csv,2,14,3,2,b,1,0,0,aud,D,63,1,3D,2D,1,0,b,2.40697459999865,1,0,1,1,3D,2D,D32,2.67414864942653,0.50439868833103,0.49560131166897,0.49560131166897,0.5,0.49560131166897,0.513080314670252,0.5,0.5,0.5,0.5,0.508758679743993,0.491241320256007,0.5,0.5,0.5,0.508758679743993,0.504341315678303,0.495658684321697,0.508758679743993,0.5,0.176677270114732,0.500480341523608,0.491241320256007,0.00432163492625965,0.5,0.00879737666205982,1.08293941983464,0.0477211691366338,2.48820585021698,0.5,71.152062937886
CBC_1064,CBC_1064_MSI_AV_v3_Vset5_Aset1_2024-01-28_10h00.06.405.csv,2,15,0,3,b,1,0,2,aud,A,9,1,0A,3A,1,0,b,2.8630691999997,1,0,1,1,0A,3A,A03,3.40119738166216,0.50439868833103,0.49560131166897,0.49560131166897,0.5,0.49560131166897,0.513080314670252,0.5,0.5,0.5,0.5,0.508758679743993,0.491241320256007,0.5,0.5,0.5,0.513080314670252,0.502189712303557,0.497810287696443,0.50439868833103,0.5,0.122724651322129,0.499753770657946,0.49560131166897,0.00435999141296283,0.5,0.00879737666205982,1.08293941983464,0.0477211691366338,2.48820585021698,0.5,71.152062937886
CBC_1064,CBC_1064_MSI_AV_v3_Vset5_Aset1_2024-01-28_10h00.06.405.csv,2,16,0,1,z,0,1,3,aud,B,63,0,0B,1B,1,0,b,3.1344227999989,1,0,0,1,0B,1B,B01,2.7408400239252,0.508758679743993,0.49560131166897,0.49560131166897,0.5,0.49560131166897,0.513080314670252,0.5,0.5,0.5,0.5,0.508758679743993,0.491241320256007,0.5,0.5,0.5,0.513080314670252,0.491335718553376,0.508664281446624,0.49560131166897,0.513080314670252,0.0987880634197311,0.49940051411046,0.50439868833103,0.00443738524909699,0.5,0.00879737666205982,1.08293941983464,0.0477211691366338,2.48820585021698,0.5,71.152062937886
CBC_1064,CBC_1064_MSI_AV_v3_Vset5_Aset1_2024-01-28_10h00.06.405.csv,2,17,2,3,z,0,1,0,aud,D,63,1,2D,3D,0,1,b,2.48144499999853,1,0,0,0,2D,3D,D23,3.46573590279973,0.508758679743993,0.49560131166897,0.49560131166897,0.5,0.500038696918067,0.513080314670252,0.5,0.5,0.5,0.5,0.508758679743993,0.491241320256007,0.5,0.5,0.5,0.513080314670252,0.493544285442705,0.506455714557295,0.5,0.513080314670252,0.166138762950732,0.499286791916813,-0.5,-0.00439868833102991,0.5,0.00879737666205982,1.08293941983464,0.0477211691366338,2.48820585021698,0.5,71.152062937886
CBC_1064,CBC_1064_MSI_AV_v3_Vset5_Aset1_2024-01-28_10h00.06.405.csv,2,18,0,2,z,0,1,1,aud,C,27,1,0C,2C,0,1,b,2.10525179999877,1,0,0,0,0C,2C,C02,3.49650756146648,0.508758679743993,0.49560131166897,0.49560131166897,0.5,0.500038696918067,0.513080314670252,0.5,0.5,0.5,0.5,0.508758679743993,0.491241320256007,0.5,0.5,0.49560131166897,0.513080314670252,0.495658684321697,0.504341315678303,0.5,0.508758679743993,0.223867705690063,0.500492980211207,-0.5,-0.00439868833102991,0.5,0.00879737666205982,1.08293941983464,0.0477211691366338,2.48820585021698,0.5,71.152062937886
CBC_1064,CBC_1064_MSI_AV_v3_Vset5_Aset1_2024-01-28_10h00.06.405.csv,2,19,0,1,b,1,0,2,aud,A,63,1,0A,1A,1,0,z,1.70476719999897,0,1,0,0,1A,0A,A01,2.83321334405622,0.508758679743993,0.49560131166897,0.49560131166897,0.5,0.500038696918067,0.513080314670252,0.5,0.5,0.49560131166897,0.5,0.508758679743993,0.491241320256007,0.5,0.5,0.49560131166897,0.513080314670252,0.493449874453625,0.506550125546375,0.49560131166897,0.508758679743993,0.291016718742069,0.499102232873732,-0.49560131166897,-0.00435999141296283,0.5,0.00879737666205982,1.08293941983464,0.0477211691366338,2.48820585021698,0.5,71.152062937886
CBC_1064,CBC_1064_MSI_AV_v3_Vset5_Aset1_2024-01-28_10h00.06.405.csv,2,20,1,0,b,1,0,3,aud,B,63,1,1B,0B,1,0,b,2.00564729999951,1,0,1,1,1B,0B,B10,2.86220088092947,0.508758679743993,0.491241320256007,0.49560131166897,0.5,0.500038696918067,0.513080314670252,0.5,0.5,0.49560131166897,0.5,0.508758679743993,0.491241320256007,0.5,0.5,0.49560131166897,0.513080314670252,0.506436370062654,0.493563629937346,0.513080314670252,0.500038696918067,0.241256979291055,0.500176770244098,0.486919685329748,0.00428361587601743,0.5,0.00879737666205982,1.08293941983464,0.0477211691366338,2.48820585021698,0.5,71.152062937886
CBC_1064,CBC_1064_MSI_AV_v3_Vset5_Aset1_2024-01-28_10h00.06.405.csv,2,21,1,3,z,0,1,0,aud,D,27,1,1D,3D,0,1,b,2.24173289999908,1,0,0,0,1D,3D,D13,3.58351893845611,0.508758679743993,0.491241320256007,0.49560131166897,0.5,0.500038696918067,0.51736393054627,0.5,0.5,0.49560131166897,0.5,0.508758679743993,0.491241320256007,0.5,0.5,0.49560131166897,0.513080314670252,0.493544285442705,0.506455714557295,0.5,0.513080314670252,0.200707377866222,0.498992332290517,-0.5,-0.00439868833102991,0.5,0.00879737666205982,1.08293941983464,0.0477211691366338,2.48820585021698,0.5,71.152062937886
CBC_1064,CBC_1064_MSI_AV_v3_Vset5_Aset1_2024-01-28_10h00.06.405.csv,2,22,3,2,z,0,1,1,aud,C,63,1,3C,2C,NaN,NaN,[],NaN,NaN,NaN,NaN,NaN,,,C32,2.51230562397611,0.508758679743993,0.491241320256007,0.49560131166897,0.5,0.500038696918067,0.51736393054627,0.5,0.5,0.49560131166897,0.5,0.508758679743993,0.491241320256007,0.5,0.49560131166897,0.49560131166897,0.513080314670252,0,0,0,0,NaN,0,0,0,0.5,0.00879737666205982,1.08293941983464,0.0477211691366338,2.48820585021698,0.5,71.152062937886
CBC_1064,CBC_1064_MSI_AV_v3_Vset5_Aset1_2024-01-28_10h00.06.405.csv,2,23,0,1,b,1,0,2,aud,A,63,1,0A,1A,1,0,z,2.3004022999994,0,1,0,0,1A,0A,A01,2.53897387105828,0.508758679743993,0.491241320256007,0.49560131166897,0.5,0.500038696918067,0.51736393054627,0.5,0.5,0.49560131166897,0.5,0.508758679743993,0.491241320256007,0.5,0.49560131166897,0.49560131166897,0.513080314670252,0.491241320256007,0.508758679743993,0.491241320256007,0.508758679743993,0.191949940958717,0.49977701677423,-0.491241320256007,-0.00432163492625965,0.5,0.00879737666205982,1.08293941983464,0.0477211691366338,2.48820585021698,0.5,71.152062937886
CBC_1064,CBC_1064_MSI_AV_v3_Vset5_Aset1_2024-01-28_10h00.06.405.csv,2,24,2,3,z,0,1,0,aud,D,63,1,2D,3D,0,1,b,2.38508149999961,1,0,0,0,2D,3D,D23,2.9704144655697,0.508758679743993,0.486919685329748,0.49560131166897,0.5,0.500038696918067,0.51736393054627,0.5,0.5,0.49560131166897,0.5,0.508758679743993,0.491241320256007,0.5,0.49560131166897,0.49560131166897,0.513080314670252,0.491335718553376,0.508664281446624,0.49560131166897,0.513080314670252,0.179228435145063,0.498972518868219,-0.49560131166897,-0.00435999141296283,0.5,0.00879737666205982,1.08293941983464,0.0477211691366338,2.48820585021698,0.5,71.152062937886
CBC_1064,CBC_1064_MSI_AV_v3_Vset5_Aset1_2024-01-28_10h00.06.405.csv,2,25,2,0,b,1,0,1,aud,C,27,1,2C,0C,1,0,z,2.88881459999902,0,1,0,0,0C,2C,C20,3.68887945411394,0.508758679743993,0.486919685329748,0.49560131166897,0.5,0.500038696918067,0.51736393054627,0.5,0.5,0.49560131166897,0.5,0.508758679743993,0.491241320256007,0.5,0.49560131166897,0.491241320256007,0.513080314670252,0.493449874453625,0.506550125546375,0.49560131166897,0.508758679743993,0.120267791171294,0.499900306822179,-0.49560131166897,-0.00435999141296283,0.5,0.00879737666205982,1.08293941983464,0.0477211691366338,2.48820585021698,0.5,71.152062937886
CBC_1064,CBC_1064_MSI_AV_v3_Vset5_Aset1_2024-01-28_10h00.06.405.csv,2,26,0,1,b,1,0,2,aud,A,63,1,0A,1A,1,0,b,2.25338339999962,1,0,1,1,0A,1A,A01,2.32727770558442,0.508758679743993,0.486919685329748,0.49560131166897,0.5,0.500038696918067,0.51736393054627,0.5,0.5,0.491241320256007,0.5,0.508758679743993,0.491241320256007,0.5,0.49560131166897,0.491241320256007,0.513080314670252,0.510966892111102,0.489033107888898,0.508758679743993,0.486919685329748,0.199022589137398,0.499353701160097,0.491241320256007,0.00432163492625965,0.5,0.00879737666205982,1.08293941983464,0.0477211691366338,2.48820585021698,0.5,71.152062937886
CBC_1064,CBC_1064_MSI_AV_v3_Vset5_Aset1_2024-01-28_10h00.06.405.csv,2,27,1,3,b,1,0,3,aud,B,27,1,1B,3B,1,0,b,2.29307089999929,1,0,1,1,1B,3B,B13,3.04452243772342,0.513080314670252,0.486919685329748,0.49560131166897,0.5,0.500038696918067,0.51736393054627,0.5,0.5,0.491241320256007,0.5,0.508758679743993,0.491241320256007,0.5,0.49560131166897,0.491241320256007,0.513080314670252,0.50853378521929,0.49146621478071,0.51736393054627,0.5,0.193307921539716,0.500410717156705,0.48263606945373,0.00424593129368053,0.5,0.00879737666205982,1.08293941983464,0.0477211691366338,2.48820585021698,0.5,71.152062937886
CBC_1064,CBC_1064_MSI_AV_v3_Vset5_Aset1_2024-01-28_10h00.06.405.csv,2,28,3,2,z,0,1,1,aud,C,63,1,3C,2C,0,1,b,1.55022019999888,1,0,0,0,3C,2C,C32,2.37490575457367,0.513080314670252,0.486919685329748,0.49560131166897,0.5,0.500038696918067,0.52160986183995,0.5,0.5,0.491241320256007,0.5,0.508758679743993,0.491241320256007,0.5,0.49560131166897,0.491241320256007,0.513080314670252,0.491241320256007,0.508758679743993,0.491241320256007,0.508758679743993,0.296832814031341,0.500437384323903,-0.491241320256007,-0.00432163492625965,0.5,0.00879737666205982,1.08293941983464,0.0477211691366338,2.48820585021698,0.5,71.152062937886
CBC_1064,CBC_1064_MSI_AV_v3_Vset5_Aset1_2024-01-28_10h00.06.405.csv,2,29,3,2,b,1,0,0,aud,D,63,1,3D,2D,1,0,b,2.76182309999967,1,0,1,1,3D,2D,D32,2.68557734525015,0.513080314670252,0.486919685329748,0.49560131166897,0.5,0.500038696918067,0.52160986183995,0.5,0.5,0.491241320256007,0.5,0.508758679743993,0.486919685329748,0.5,0.49560131166897,0.491241320256007,0.513080314670252,0.510872510187361,0.489127489812639,0.513080314670252,0.491241320256007,0.133227749126729,0.500478181692019,0.486919685329748,0.00428361587601743,0.5,0.00879737666205982,1.08293941983464,0.0477211691366338,2.48820585021698,0.5,71.152062937886
CBC_1064,CBC_1064_MSI_AV_v3_Vset5_Aset1_2024-01-28_10h00.06.405.csv,2,30,0,1,z,0,1,3,aud,B,63,1,0B,1B,0,1,b,2.21579819999897,1,0,0,0,0B,1B,B01,2.70805020110221,0.513080314670252,0.486919685329748,0.49560131166897,0.5,0.500038696918067,0.52160986183995,0.5,0.5,0.491241320256007,0.5,0.508758679743993,0.486919685329748,0.5,0.49560131166897,0.491241320256007,0.51736393054627,0.489442962192348,0.510557037807652,0.500038696918067,0.52160986183995,0.204847417893738,0.49903207398337,-0.500038696918067,-0.00439902876239381,0.5,0.00879737666205982,1.08293941983464,0.0477211691366338,2.48820585021698,0.5,71.152062937886
CBC_1064,CBC_1064_MSI_AV_v3_Vset5_Aset1_2024-01-28_10h00.06.405.csv,2,31,2,0,z,0,1,2,aud,A,27,1,2A,0A,0,1,z,2.42516839999917,0,1,1,1,0A,2A,A20,3.13549421592915,0.513080314670252,0.486919685329748,0.49560131166897,0.5,0.495639668155673,0.52160986183995,0.5,0.5,0.491241320256007,0.5,0.508758679743993,0.486919685329748,0.5,0.49560131166897,0.491241320256007,0.51736393054627,0.508664281446624,0.491335718553376,0.513080314670252,0.49560131166897,0.174239986716664,0.500750512591814,0.486919685329748,0.00428361587601743,0.5,0.00879737666205982,1.08293941983464,0.0477211691366338,2.48820585021698,0.5,71.152062937886
CBC_1064,CBC_1064_MSI_AV_v3_Vset5_Aset1_2024-01-28_10h00.06.405.csv,2,32,3,0,b,1,0,0,aud,D,9,1,3D,0D,1,0,b,2.2364164999999,1,0,1,1,3D,0D,D30,3.85014760171006,0.51736393054627,0.486919685329748,0.49560131166897,0.5,0.495639668155673,0.52160986183995,0.5,0.5,0.491241320256007,0.5,0.508758679743993,0.486919685329748,0.5,0.49560131166897,0.491241320256007,0.51736393054627,0.50853378521929,0.49146621478071,0.51736393054627,0.5,0.202299983897249,0.500857188461026,0.48263606945373,0.00424593129368053,0.5,0.00879737666205982,1.08293941983464,0.0477211691366338,2.48820585021698,0.5,71.152062937886
CBC_1064,CBC_1064_MSI_AV_v3_Vset5_Aset1_2024-01-28_10h00.06.405.csv,2,33,3,2,z,0,1,1,aud,C,63,1,3C,2C,0,1,b,2.76756250000017,1,0,0,0,3C,2C,C32,2.26176309847379,0.51736393054627,0.486919685329748,0.49560131166897,0.5,0.495639668155673,0.52160986183995,0.5,0.5,0.491241320256007,0.5,0.508758679743993,0.486919685329748,0.5,0.49560131166897,0.491241320256007,0.52160986183995,0.489033107888898,0.510966892111102,0.486919685329748,0.508758679743993,0.132396728659344,0.499635661020786,-0.486919685329748,-0.00428361587601743,0.5,0.00879737666205982,1.08293941983464,0.0477211691366338,2.48820585021698,0.5,71.152062937886
CBC_1064,CBC_1064_MSI_AV_v3_Vset5_Aset1_2024-01-28_10h00.06.405.csv,2,34,0,1,z,0,1,3,aud,B,63,1,0B,1B,0,1,z,2.05286749999959,0,1,1,1,1B,0B,B01,2.50552593699074,0.51736393054627,0.486919685329748,0.49560131166897,0.5,0.495639668155673,0.52160986183995,0.5,0.5,0.491241320256007,0.5,0.508758679743993,0.48263606945373,0.5,0.49560131166897,0.491241320256007,0.52160986183995,0.512764908175671,0.487235091824329,0.52160986183995,0.495639668155673,0.233414255663017,0.50137909545508,0.47839013816005,0.00420857823680879,0.5,0.00879737666205982,1.08293941983464,0.0477211691366338,2.48820585021698,0.5,71.152062937886
CBC_1064,CBC_1064_MSI_AV_v3_Vset5_Aset1_2024-01-28_10h00.06.405.csv,2,35,0,1,b,1,0,2,aud,A,63,0,0A,1A,0,1,z,3.99711169999955,0,1,0,1,1A,0A,A01,2.30258509299405,0.51736393054627,0.486919685329748,0.49560131166897,0.5,0.495639668155673,0.525818440076759,0.5,0.5,0.491241320256007,0.5,0.508758679743993,0.48263606945373,0.5,0.49560131166897,0.491241320256007,0.52160986183995,0.484842804992907,0.515157195007093,0.486919685329748,0.51736393054627,0.0496724671557778,0.499446763000461,0.513080314670252,0.00451376078604239,0.5,0.00879737666205982,1.08293941983464,0.0477211691366338,2.48820585021698,0.5,71.152062937886
CBC_1064,CBC_1064_MSI_AV_v3_Vset5_Aset1_2024-01-28_10h00.06.405.csv,2,36,2,3,z,0,1,0,aud,D,63,1,2D,3D,0,1,b,2.57017359999918,1,0,0,0,2D,3D,D23,2.83321334405622,0.51736393054627,0.49143344611579,0.49560131166897,0.5,0.495639668155673,0.525818440076759,0.5,0.5,0.491241320256007,0.5,0.508758679743993,0.48263606945373,0.5,0.49560131166897,0.491241320256007,0.52160986183995,0.48500838912924,0.51499161087076,0.491241320256007,0.52160986183995,0.154627272786912,0.498659775981678,-0.491241320256007,-0.00432163492625965,0.5,0.00879737666205982,1.08293941983464,0.0477211691366338,2.48820585021698,0.5,71.152062937886
CBC_1064,CBC_1064_MSI_AV_v3_Vset5_Aset1_2024-01-28_10h00.06.405.csv,2,37,1,2,b,1,0,3,aud,B,9,1,1B,2B,1,0,z,2.10882819999915,0,1,0,0,2B,1B,B12,3.95124371858143,0.51736393054627,0.49143344611579,0.49560131166897,0.5,0.495639668155673,0.525818440076759,0.5,0.5,0.491241320256007,0.5,0.508758679743993,0.48263606945373,0.5,0.49560131166897,0.486919685329748,0.52160986183995,0.487415687285351,0.512584312714649,0.5,0.525818440076759,0.223136777575684,0.500232890816488,-0.5,-0.00439868833102991,0.5,0.00879737666205982,1.08293941983464,0.0477211691366338,2.48820585021698,0.5,71.152062937886
CBC_1064,CBC_1064_MSI_AV_v3_Vset5_Aset1_2024-01-28_10h00.06.405.csv,2,38,2,0,z,0,1,2,aud,A,27,1,2A,0A,0,1,z,3.01386019999882,0,1,1,1,0A,2A,A20,2.87167962488401,0.51736393054627,0.49143344611579,0.49560131166897,0.5,0.495639668155673,0.525818440076759,0.49560131166897,0.5,0.491241320256007,0.5,0.508758679743993,0.48263606945373,0.5,0.49560131166897,0.486919685329748,0.52160986183995,0.510742036335673,0.489257963664327,0.51736393054627,0.49560131166897,0.109281243625125,0.501833345760724,0.48263606945373,0.00424593129368053,0.5,0.00879737666205982,1.08293941983464,0.0477211691366338,2.48820585021698,0.5,71.152062937886
CBC_1064,CBC_1064_MSI_AV_v3_Vset5_Aset1_2024-01-28_10h00.06.405.csv,2,39,2,3,b,1,0,1,aud,C,63,1,2C,3C,1,0,b,2.50244969999949,1,0,1,1,2C,3C,C23,3.29583686600433,0.52160986183995,0.49143344611579,0.49560131166897,0.5,0.495639668155673,0.525818440076759,0.49560131166897,0.5,0.491241320256007,0.5,0.508758679743993,0.48263606945373,0.5,0.49560131166897,0.486919685329748,0.52160986183995,0.513174676541005,0.486825323458994,0.508758679743993,0.48263606945373,0.1640771845087,0.501390814232014,0.491241320256007,0.00432163492625965,0.5,0.00879737666205982,1.08293941983464,0.0477211691366338,2.48820585021698,0.5,71.152062937886
CBC_1064,CBC_1064_MSI_AV_v3_Vset5_Aset1_2024-01-28_10h00.06.405.csv,2,40,1,3,z,0,1,0,aud,D,27,1,1D,3D,0,1,b,2.17876199999864,1,0,0,0,1D,3D,D13,3.31418600467253,0.52160986183995,0.49143344611579,0.49560131166897,0.5,0.495639668155673,0.525818440076759,0.49560131166897,0.5,0.491241320256007,0.5,0.513080314670252,0.48263606945373,0.5,0.49560131166897,0.486919685329748,0.52160986183995,0.48721575674338,0.51278424325662,0.49560131166897,0.52160986183995,0.210849670710078,0.49900389151484,-0.49560131166897,-0.00435999141296283,0.5,0.00879737666205982,1.08293941983464,0.0477211691366338,2.48820585021698,0.5,71.152062937886
CBC_1064,CBC_1064_MSI_AV_v3_Vset5_Aset1_2024-01-28_10h00.06.405.csv,2,41,0,1,b,1,0,2,aud,A,63,1,0A,1A,1,0,z,2.43260009999904,0,1,0,0,1A,0A,A01,2.23359222150709,0.52160986183995,0.49143344611579,0.49560131166897,0.5,0.495639668155673,0.525818440076759,0.49560131166897,0.5,0.491241320256007,0.5,0.513080314670252,0.48263606945373,0.5,0.491241320256007,0.486919685329748,0.52160986183995,0.485106058404821,0.514893941595179,0.49143344611579,0.52160986183995,0.172332193855228,0.498196534791913,-0.49143344611579,-0.00432332512981468,0.5,0.00879737666205982,1.08293941983464,0.0477211691366338,2.48820585021698,0.5,71.152062937886
CBC_1064,CBC_1064_MSI_AV_v3_Vset5_Aset1_2024-01-28_10h00.06.405.csv,2,42,0,2,z,0,1,1,aud,C,27,1,0C,2C,0,1,b,2.94591579999906,1,0,0,0,0C,2C,C02,3.3499040872746,0.52160986183995,0.487110120985975,0.49560131166897,0.5,0.495639668155673,0.525818440076759,0.49560131166897,0.5,0.491241320256007,0.5,0.513080314670252,0.48263606945373,0.5,0.491241320256007,0.486919685329748,0.52160986183995,0.489127489812639,0.510872510187361,0.491241320256007,0.513080314670252,0.114716847891767,0.499026756622748,-0.491241320256007,-0.00432163492625965,0.5,0.00879737666205982,1.08293941983464,0.0477211691366338,2.48820585021698,0.5,71.152062937886
CBC_1064,CBC_1064_MSI_AV_v3_Vset5_Aset1_2024-01-28_10h00.06.405.csv,2,43,3,2,b,1,0,0,aud,D,63,1,3D,2D,1,0,b,2.39308139999866,1,0,1,1,3D,2D,D32,2.67414864942653,0.52160986183995,0.487110120985975,0.49560131166897,0.5,0.495639668155673,0.525818440076759,0.49560131166897,0.5,0.486919685329748,0.5,0.513080314670252,0.48263606945373,0.5,0.491241320256007,0.486919685329748,0.52160986183995,0.517198393744415,0.482801606255585,0.52160986183995,0.486919685329748,0.179047978295332,0.501639971196673,0.47839013816005,0.00420857823680879,0.5,0.00879737666205982,1.08293941983464,0.0477211691366338,2.48820585021698,0.5,71.152062937886
CBC_1064,CBC_1064_MSI_AV_v3_Vset5_Aset1_2024-01-28_10h00.06.405.csv,2,44,1,0,b,1,0,3,aud,B,63,1,1B,0B,1,0,b,2.15155689999938,1,0,1,1,1B,0B,B10,2.97892515523761,0.52160986183995,0.487110120985975,0.49560131166897,0.5,0.495639668155673,0.525818440076759,0.49560131166897,0.5,0.486919685329748,0.5,0.513080314670252,0.48263606945373,0.5,0.491241320256007,0.486919685329748,0.525818440076759,0.514772398240251,0.485227601759749,0.525818440076759,0.495639668155673,0.216450117214957,0.501533093474521,0.474181559923241,0.00417155378884784,0.5,0.00879737666205982,1.08293941983464,0.0477211691366338,2.48820585021698,0.5,71.152062937886
CBC_1064,CBC_1064_MSI_AV_v3_Vset3_Aset3_2024-01-28_11h09.57.594.csv,3,1,1,0,z,0,1,2,aud,A,63,1,1A,0A,0,1,b,3.38667720000012,1,0,0,0,1A,0A,A10,2.77258872223978,0.5,0.5,0.5,0.5,0.5,0.5,0.5,0.5,0.5,0.5,0.5,0.5,0.5,0.5,0.5,0.5,0.5,0.5,0.5,0.5,0.0792977136028231,0.50076597657596,-0.5,-0.307472973444155,0.5,0.61494594688831,1.08282726069707,1.04895525886811,2.45748915755505,0.5,71.6970372572259
CBC_1064,CBC_1064_MSI_AV_v3_Vset3_Aset3_2024-01-28_11h09.57.594.csv,3,2,2,3,b,1,0,1,aud,C,63,1,2C,3C,1,0,b,2.87962510000034,1,0,1,1,2C,3C,C23,2.83321334405622,0.5,0.192527026555845,0.5,0.5,0.5,0.5,0.5,0.5,0.5,0.5,0.5,0.5,0.5,0.5,0.5,0.5,0.5,0.5,0.5,0.5,0.119754258587585,0.499731338556009,0.5,0.307472973444155,0.5,0.61494594688831,1.08282726069707,1.04895525886811,2.45748915755505,0.5,71.6970372572259
CBC_1064,CBC_1064_MSI_AV_v3_Vset3_Aset3_2024-01-28_11h09.57.594.csv,3,3,2,0,z,0,1,2,aud,A,27,1,2A,0A,0,1,z,2.89422059999924,0,1,1,1,0A,2A,A20,2.89037175789616,0.5,0.192527026555845,0.5,0.5,0.5,0.5,0.5,0.5,0.5,0.5,0.807472973444155,0.5,0.5,0.5,0.5,0.5,0.5,0.5,0.5,0.5,0.118266524166042,0.499443169575034,0.5,0.307472973444155,0.5,0.61494594688831,1.08282726069707,1.04895525886811,2.45748915755505,0.5,71.6970372572259
CBC_1064,CBC_1064_MSI_AV_v3_Vset3_Aset3_2024-01-28_11h09.57.594.csv,3,4,0,1,z,0,1,3,aud,B,63,1,0B,1B,0,1,b,2.93153400000119,1,0,0,0,0B,1B,B01,2.94443897916644,0.807472973444155,0.192527026555845,0.5,0.5,0.5,0.5,0.5,0.5,0.5,0.5,0.807472973444155,0.5,0.5,0.5,0.5,0.5,0.5,0.5,0.5,0.5,0.114780047024443,0.499723791801869,-0.5,-0.307472973444155,0.5,0.61494594688831,1.08282726069707,1.04895525886811,2.45748915755505,0.5,71.6970372572259
CBC_1064,CBC_1064_MSI_AV_v3_Vset3_Aset3_2024-01-28_11h09.57.594.csv,3,5,1,0,b,1,0,3,aud,B,63,1,1B,0B,1,0,b,2.51018640000075,1,0,1,1,1B,0B,B10,2.99573227355399,0.807472973444155,0.192527026555845,0.5,0.5,0.192527026555845,0.5,0.5,0.5,0.5,0.5,0.807472973444155,0.5,0.5,0.5,0.5,0.5,0.72199348303655,0.27800651696345,0.5,0.192527026555845,0.245691529566341,0.757712936484838,0.5,0.307472973444155,0.5,0.61494594688831,1.08282726069707,1.04895525886811,2.45748915755505,0.5,71.6970372572259
CBC_1064,CBC_1064_MSI_AV_v3_Vset3_Aset3_2024-01-28_11h09.57.594.csv,3,6,2,3,b,1,0,1,aud,C,63,1,2C,3C,1,0,z,3.10231849999946,0,1,0,0,3C,2C,C23,2.35137525716348,0.807472973444155,0.192527026555845,0.5,0.5,0.192527026555845,0.807472973444155,0.5,0.5,0.5,0.5,0.807472973444155,0.5,0.5,0.5,0.5,0.5,0.382417082536625,0.617582917463375,0.5,0.807472973444155,0.0693229945154811,0.352695215207525,-0.5,-0.307472973444155,0.5,0.61494594688831,1.08282726069707,1.04895525886811,2.45748915755505,0.5,71.6970372572259
CBC_1064,CBC_1064_MSI_AV_v3_Vset3_Aset3_2024-01-28_11h09.57.594.csv,3,7,1,3,z,0,1,0,aud,D,27,1,1D,3D,0,1,b,2.05473569999958,1,0,0,0,1D,3D,D13,3.09104245335832,0.807472973444155,0.192527026555845,0.5,0.5,0.192527026555845,0.807472973444155,0.5,0.5,0.5,0.5,0.807472973444155,0.192527026555845,0.5,0.5,0.5,0.5,0.5,0.5,0.5,0.5,0.233966476558144,0.50018828685948,-0.5,-0.307472973444155,0.5,0.61494594688831,1.08282726069707,1.04895525886811,2.45748915755505,0.5,71.6970372572259
CBC_1064,CBC_1064_MSI_AV_v3_Vset3_Aset3_2024-01-28_11h09.57.594.csv,3,8,2,1,b,1,0,1,aud,C,9,1,2C,1C,1,0,b,1.70243359999949,1,0,1,1,2C,1C,C21,3.13549421592915,0.807472973444155,0.192527026555845,0.5,0.5,0.192527026555845,0.807472973444155,0.5,0.5,0.5,0.5,0.807472973444155,0.192527026555845,0.5,0.192527026555845,0.5,0.5,0.617582917463375,0.382417082536625,0.807472973444155,0.5,0.395348332208408,0.647721516148052,0.192527026555845,0.118393714646975,0.5,0.61494594688831,1.08282726069707,1.04895525886811,2.45748915755505,0.5,71.6970372572259
CBC_1064,CBC_1064_MSI_AV_v3_Vset3_Aset3_2024-01-28_11h09.57.594.csv,3,9,1,3,b,1,0,3,aud,B,27,1,1B,3B,1,0,z,2.53945550000026,0,1,0,0,3B,1B,B13,3.17805383034795,0.807472973444155,0.192527026555845,0.5,0.5,0.192527026555845,0.807472973444155,0.5,0.5,0.5,0.5,0.92586668809113,0.192527026555845,0.5,0.192527026555845,0.5,0.5,0.382417082536625,0.617582917463375,0.5,0.807472973444155,0.111861972977849,0.353258602219295,-0.5,-0.307472973444155,0.5,0.61494594688831,1.08282726069707,1.04895525886811,2.45748915755505,0.5,71.6970372572259
CBC_1064,CBC_1064_MSI_AV_v3_Vset3_Aset3_2024-01-28_11h09.57.594.csv,3,10,2,3,z,0,1,0,aud,D,63,1,2D,3D,0,1,z,2.46649369999977,0,1,1,1,3D,2D,D23,3.2188758248682,0.807472973444155,0.192527026555845,0.5,0.5,0.192527026555845,0.807472973444155,0.5,0.192527026555845,0.5,0.5,0.92586668809113,0.192527026555845,0.5,0.192527026555845,0.5,0.5,0.5,0.5,0.5,0.5,0.168209465885726,0.500992150642895,0.5,0.307472973444155,0.5,0.61494594688831,1.08282726069707,1.04895525886811,2.45748915755505,0.5,71.6970372572259
CBC_1064,CBC_1064_MSI_AV_v3_Vset3_Aset3_2024-01-28_11h09.57.594.csv,3,11,0,1,z,0,1,3,aud,B,63,1,0B,1B,0,1,b,2.75872110000091,1,0,0,0,0B,1B,B01,2.56494935746154,0.807472973444155,0.192527026555845,0.5,0.5,0.192527026555845,0.807472973444155,0.5,0.192527026555845,0.5,0.5,0.92586668809113,0.192527026555845,0.5,0.192527026555845,0.5,0.807472973444155,0.192527026555845,0.807472973444155,0.192527026555845,0.807472973444155,0.0422131832999285,0.169947429337999,-0.192527026555845,-0.118393714646975,0.5,0.61494594688831,1.08282726069707,1.04895525886811,2.45748915755505,0.5,71.6970372572259
CBC_1064,CBC_1064_MSI_AV_v3_Vset3_Aset3_2024-01-28_11h09.57.594.csv,3,12,2,0,b,1,0,1,aud,C,27,1,2C,0C,1,0,b,2.85951460000069,1,0,1,1,2C,0C,C20,3.29583686600433,0.807472973444155,0.192527026555845,0.5,0.5,0.0741333119088703,0.807472973444155,0.5,0.192527026555845,0.5,0.5,0.92586668809113,0.192527026555845,0.5,0.192527026555845,0.5,0.807472973444155,0.649336081573396,0.350663918426604,0.92586668809113,0.5,0.163984188995231,0.683184066776388,0.0741333119088703,0.0455879796877666,0.5,0.61494594688831,1.08282726069707,1.04895525886811,2.45748915755505,0.5,71.6970372572259
CBC_1064,CBC_1064_MSI_AV_v3_Vset3_Aset3_2024-01-28_11h09.57.594.csv,3,13,2,3,z,0,1,0,aud,D,63,0,2D,3D,1,0,z,3.14310369999839,0,1,1,0,3D,2D,D23,2.63905732961526,0.807472973444155,0.192527026555845,0.5,0.5,0.0741333119088703,0.807472973444155,0.5,0.192527026555845,0.5,0.5,0.971454667778896,0.192527026555845,0.5,0.192527026555845,0.5,0.807472973444155,0.617582917463375,0.382417082536625,0.807472973444155,0.5,0.122855663556026,0.646985906792689,-0.807472973444155,-0.496552232241335,0.5,0.61494594688831,1.08282726069707,1.04895525886811,2.45748915755505,0.5,71.6970372572259
CBC_1064,CBC_1064_MSI_AV_v3_Vset3_Aset3_2024-01-28_11h09.57.594.csv,3,14,0,1,b,1,0,2,aud,A,63,1,0A,1A,1,0,b,2.85304019999967,1,0,1,1,0A,1A,A01,3.36729582998647,0.807472973444155,0.192527026555845,0.5,0.5,0.0741333119088703,0.807472973444155,0.5,0.192527026555845,0.5,0.5,0.971454667778896,0.192527026555845,0.5,0.192527026555845,0.5,0.31092074120282,0.807472973444155,0.192527026555845,0.807472973444155,0.192527026555845,0.18714369002968,0.829391967721711,0.192527026555845,0.118393714646975,0.5,0.61494594688831,1.08282726069707,1.04895525886811,2.45748915755505,0.5,71.6970372572259
CBC_1064,CBC_1064_MSI_AV_v3_Vset3_Aset3_2024-01-28_11h09.57.594.csv,3,15,3,2,z,0,1,1,aud,C,63,1,3C,2C,0,1,z,2.69357429999945,0,1,1,1,2C,3C,C32,3.40119738166216,0.92586668809113,0.192527026555845,0.5,0.5,0.0741333119088703,0.807472973444155,0.5,0.192527026555845,0.5,0.5,0.971454667778896,0.192527026555845,0.5,0.192527026555845,0.5,0.31092074120282,0.83459617321054,0.16540382678946,0.971454667778896,0.192527026555845,0.222226111213674,0.848982889925131,0.0285453322211037,0.017553836351948,0.5,0.61494594688831,1.08282726069707,1.04895525886811,2.45748915755505,0.5,71.6970372572259
CBC_1064,CBC_1064_MSI_AV_v3_Vset3_Aset3_2024-01-28_11h09.57.594.csv,3,16,2,0,z,0,1,2,aud,A,27,1,2A,0A,0,1,z,2.16328980000071,0,1,1,1,0A,2A,A20,2.7408400239252,0.92586668809113,0.192527026555845,0.5,0.5,0.0741333119088703,0.807472973444155,0.5,0.192527026555845,0.5,0.5,0.989008504130844,0.192527026555845,0.5,0.192527026555845,0.5,0.31092074120282,0.649336081573396,0.350663918426604,0.92586668809113,0.5,0.299329454069436,0.68400935765954,0.0741333119088703,0.0455879796877666,0.5,0.61494594688831,1.08282726069707,1.04895525886811,2.45748915755505,0.5,71.6970372572259
CBC_1064,CBC_1064_MSI_AV_v3_Vset3_Aset3_2024-01-28_11h09.57.594.csv,3,17,3,2,b,1,0,0,aud,D,63,1,3D,2D,1,0,b,2.47248860000036,1,0,1,1,3D,2D,D32,3.46573590279973,0.971454667778896,0.192527026555845,0.5,0.5,0.0741333119088703,0.807472973444155,0.5,0.192527026555845,0.5,0.5,0.989008504130844,0.192527026555845,0.5,0.192527026555845,0.5,0.31092074120282,0.383416930169573,0.616583069830427,0.31092074120282,0.5,0.118820945648773,0.354592623993394,0.68907925879718,0.423746497282126,0.5,0.61494594688831,1.08282726069707,1.04895525886811,2.45748915755505,0.5,71.6970372572259
CBC_1064,CBC_1064_MSI_AV_v3_Vset3_Aset3_2024-01-28_11h09.57.594.csv,3,18,2,3,z,0,1,0,aud,D,63,1,2D,3D,0,1,z,1.69678419999946,0,1,1,1,3D,2D,D23,2.39789527279837,0.971454667778896,0.192527026555845,0.5,0.5,0.0741333119088703,0.807472973444155,0.5,0.192527026555845,0.5,0.5,0.989008504130844,0.192527026555845,0.5,0.192527026555845,0.5,0.734667238484946,0.595032584963097,0.404967415036903,0.734667238484946,0.5,0.376610807913711,0.62094235491558,0.265332761515054,0.163165306270365,0.5,0.61494594688831,1.08282726069707,1.04895525886811,2.45748915755505,0.5,71.6970372572259
CBC_1064,CBC_1064_MSI_AV_v3_Vset3_Aset3_2024-01-28_11h09.57.594.csv,3,19,1,3,b,1,0,3,aud,B,27,1,1B,3B,1,0,b,1.54554380000081,1,0,1,1,1B,3B,B13,2.83321334405622,0.971454667778896,0.192527026555845,0.5,0.5,0.0741333119088703,0.807472973444155,0.5,0.192527026555845,0.5,0.5,0.989008504130844,0.192527026555845,0.5,0.192527026555845,0.5,0.897832544755311,0.807472973444155,0.192527026555845,0.807472973444155,0.192527026555845,0.610999254679479,0.829739613848663,0.192527026555845,0.118393714646975,0.5,0.61494594688831,1.08282726069707,1.04895525886811,2.45748915755505,0.5,71.6970372572259
CBC_1064,CBC_1064_MSI_AV_v3_Vset3_Aset3_2024-01-28_11h09.57.594.csv,3,20,3,0,b,1,0,0,aud,D,9,1,3D,0D,1,0,b,2.4810733000013,1,0,1,1,3D,0D,D30,3.55534806148941,0.971454667778896,0.192527026555845,0.5,0.5,0.0741333119088703,0.92586668809113,0.5,0.192527026555845,0.5,0.5,0.989008504130844,0.192527026555845,0.5,0.192527026555845,0.5,0.897832544755311,0.642303363249048,0.357696636750952,0.897832544755311,0.5,0.224739831723659,0.674995721525848,0.102167455244689,0.0628274625066142,0.5,0.61494594688831,1.08282726069707,1.04895525886811,2.45748915755505,0.5,71.6970372572259
CBC_1064,CBC_1064_MSI_AV_v3_Vset3_Aset3_2024-01-28_11h09.57.594.csv,3,21,0,1,z,0,1,3,aud,B,63,1,0B,1B,0,1,z,1.40463799999998,0,1,1,1,1B,0B,B01,2.484906649788,0.971454667778896,0.192527026555845,0.5,0.5,0.0741333119088703,0.92586668809113,0.5,0.192527026555845,0.5,0.5,0.989008504130844,0.192527026555845,0.5,0.192527026555845,0.5,0.960660007261925,0.92586668809113,0.0741333119088703,0.92586668809113,0.0741333119088703,0.676756619588135,0.899444109844275,0.0741333119088703,0.0455879796877666,0.5,0.61494594688831,1.08282726069707,1.04895525886811,2.45748915755505,0.5,71.6970372572259
CBC_1064,CBC_1064_MSI_AV_v3_Vset3_Aset3_2024-01-28_11h09.57.594.csv,3,22,0,1,b,1,0,2,aud,A,63,1,0A,1A,1,0,b,1.7098563999989,1,0,1,1,0A,1A,A01,2.91777073208428,0.971454667778896,0.192527026555845,0.5,0.5,0.0741333119088703,0.971454667778896,0.5,0.192527026555845,0.5,0.5,0.989008504130844,0.192527026555845,0.5,0.192527026555845,0.5,0.960660007261925,0.83459617321054,0.16540382678946,0.971454667778896,0.192527026555845,0.601538115124989,0.849031071439676,0.0285453322211037,0.017553836351948,0.5,0.61494594688831,1.08282726069707,1.04895525886811,2.45748915755505,0.5,71.6970372572259
CBC_1064,CBC_1064_MSI_AV_v3_Vset3_Aset3_2024-01-28_11h09.57.594.csv,3,23,3,2,z,0,1,1,aud,C,63,1,3C,2C,0,1,b,2.98898580000059,1,0,0,0,3C,2C,C32,2.94443897916644,0.989008504130844,0.192527026555845,0.5,0.5,0.0741333119088703,0.971454667778896,0.5,0.192527026555845,0.5,0.5,0.989008504130844,0.192527026555845,0.5,0.192527026555845,0.5,0.960660007261925,0.162946455316457,0.837053544683543,0.192527026555845,0.989008504130844,0.0284808372388934,0.14936124484127,-0.192527026555845,-0.118393714646975,0.5,0.61494594688831,1.08282726069707,1.04895525886811,2.45748915755505,0.5,71.6970372572259
CBC_1064,CBC_1064_MSI_AV_v3_Vset3_Aset3_2024-01-28_11h09.57.594.csv,3,24,2,0,z,0,1,2,aud,A,27,1,2A,0A,0,1,z,2.52415990000009,0,1,1,1,0A,2A,A20,2.56494935746154,0.989008504130844,0.192527026555845,0.5,0.5,0.0741333119088703,0.971454667778896,0.5,0.192527026555845,0.5,0.5,0.989008504130844,0.0741333119088703,0.5,0.192527026555845,0.5,0.960660007261925,0.664206081689334,0.335793918310666,0.989008504130844,0.5,0.224515681952126,0.699821681375722,0.0109914958691557,0.0067591758349769,0.5,0.61494594688831,1.08282726069707,1.04895525886811,2.45748915755505,0.5,71.6970372572259
CBC_1064,CBC_1064_MSI_AV_v3_Vset3_Aset3_2024-01-28_11h09.57.594.csv,3,25,0,1,z,0,1,3,aud,B,63,1,0B,1B,0,1,z,1.52382399999988,0,1,1,1,1B,0B,B01,2.30258509299405,0.995767679965821,0.192527026555845,0.5,0.5,0.0741333119088703,0.971454667778896,0.5,0.192527026555845,0.5,0.5,0.989008504130844,0.0741333119088703,0.5,0.192527026555845,0.5,0.960660007261925,0.929098924864259,0.0709010751357413,0.971454667778896,0.0741333119088703,0.764177593907067,0.901422259457022,0.0285453322211037,0.017553836351948,0.5,0.61494594688831,1.08282726069707,1.04895525886811,2.45748915755505,0.5,71.6970372572259
CBC_1064,CBC_1064_MSI_AV_v3_Vset3_Aset3_2024-01-28_11h09.57.594.csv,3,26,3,2,b,1,0,0,aud,D,63,1,3D,2D,1,0,b,2.9882822999989,1,0,1,1,3D,2D,D32,3.02042488614436,0.995767679965821,0.192527026555845,0.5,0.5,0.0741333119088703,0.989008504130844,0.5,0.192527026555845,0.5,0.5,0.989008504130844,0.0741333119088703,0.5,0.192527026555845,0.5,0.960660007261925,0.65768899161053,0.34231100838947,0.960660007261925,0.5,0.148381179003568,0.693055412029773,0.0393399927380748,0.0241919690848946,0.5,0.61494594688831,1.08282726069707,1.04895525886811,2.45748915755505,0.5,71.6970372572259
CBC_1064,CBC_1064_MSI_AV_v3_Vset3_Aset3_2024-01-28_11h09.57.594.csv,3,27,2,1,z,0,1,3,aud,B,9,1,2B,1B,0,1,b,1.30580849999933,1,0,0,0,2B,1B,B21,3.73766961828337,0.995767679965821,0.192527026555845,0.5,0.5,0.0741333119088703,0.989008504130844,0.5,0.192527026555845,0.5,0.5,0.989008504130844,0.0741333119088703,0.5,0.192527026555845,0.5,0.98485197634682,0.335793918310666,0.664206081689334,0.5,0.989008504130844,0.101972256872139,0.300517400798553,-0.5,-0.307472973444155,0.5,0.61494594688831,1.08282726069707,1.04895525886811,2.45748915755505,0.5,71.6970372572259
CBC_1064,CBC_1064_MSI_AV_v3_Vset3_Aset3_2024-01-28_11h09.57.594.csv,3,28,3,1,b,1,0,0,aud,D,27,1,3D,1D,1,0,b,1.65397130000019,1,0,1,1,3D,1D,D31,3.76120011569356,0.995767679965821,0.192527026555845,0.5,0.5,0.0741333119088703,0.989008504130844,0.192527026555845,0.192527026555845,0.5,0.5,0.989008504130844,0.0741333119088703,0.5,0.192527026555845,0.5,0.98485197634682,0.836478291118496,0.163521708881504,0.98485197634682,0.192527026555845,0.625499304541245,0.850139115277864,0.0151480236531801,0.00931521574889137,0.5,0.61494594688831,1.08282726069707,1.04895525886811,2.45748915755505,0.5,71.6970372572259
CBC_1064,CBC_1064_MSI_AV_v3_Vset3_Aset3_2024-01-28_11h09.57.594.csv,3,29,0,1,b,1,0,2,aud,A,63,1,0A,1A,1,0,b,2.05169749999914,1,0,1,1,0A,1A,A01,2.68557734525015,0.995767679965821,0.192527026555845,0.5,0.5,0.0741333119088703,0.989008504130844,0.192527026555845,0.192527026555845,0.5,0.5,0.989008504130844,0.0741333119088703,0.5,0.192527026555845,0.5,0.994167192095711,0.837980405450594,0.162019594549406,0.995767679965821,0.192527026555845,0.439198869158189,0.851049920815473,0.00423232003417884,0.00260264805095247,0.5,0.61494594688831,1.08282726069707,1.04895525886811,2.45748915755505,0.5,71.6970372572259
CBC_1064,CBC_1064_MSI_AV_v3_Vset3_Aset3_2024-01-28_11h09.57.594.csv,3,30,1,0,z,0,1,2,aud,A,63,1,1A,0A,0,1,z,2.76572289999967,0,1,1,1,0A,1A,A10,3.11351530921037,0.998370328016774,0.192527026555845,0.5,0.5,0.0741333119088703,0.989008504130844,0.192527026555845,0.192527026555845,0.5,0.5,0.989008504130844,0.0741333119088703,0.5,0.192527026555845,0.5,0.994167192095711,0.838334491367698,0.161665508632302,0.998370328016774,0.192527026555845,0.205862900147822,0.850859956275762,0.00162967198322639,0.0010021601808425,0.5,0.61494594688831,1.08282726069707,1.04895525886811,2.45748915755505,0.5,71.6970372572259
CBC_1064,CBC_1064_MSI_AV_v3_Vset3_Aset3_2024-01-28_11h09.57.594.csv,3,31,2,0,b,1,0,1,aud,C,27,1,2C,0C,1,0,b,1.45638679999865,1,0,1,1,2C,0C,C20,3.13549421592915,0.999372488197616,0.192527026555845,0.5,0.5,0.0741333119088703,0.989008504130844,0.192527026555845,0.192527026555845,0.5,0.5,0.989008504130844,0.0741333119088703,0.5,0.192527026555845,0.5,0.994167192095711,0.664206081689334,0.335793918310666,0.989008504130844,0.5,0.425418729618518,0.700304422385315,0.0109914958691557,0.0067591758349769,0.5,0.61494594688831,1.08282726069707,1.04895525886811,2.45748915755505,0.5,71.6970372572259
CBC_1064,CBC_1064_MSI_AV_v3_Vset3_Aset3_2024-01-28_11h09.57.594.csv,3,32,0,1,b,1,0,2,aud,A,63,1,0A,1A,1,0,b,1.84796039999856,1,0,1,1,0A,1A,A01,2.46385324059017,0.999372488197616,0.192527026555845,0.5,0.5,0.0741333119088703,0.989008504130844,0.192527026555845,0.192527026555845,0.5,0.5,0.995767679965821,0.0741333119088703,0.5,0.192527026555845,0.5,0.994167192095711,0.838470421228699,0.161529578771301,0.999372488197616,0.192527026555845,0.538272350962759,0.851386348370973,0.000627511802383851,0.000385885839500527,0.5,0.61494594688831,1.08282726069707,1.04895525886811,2.45748915755505,0.5,71.6970372572259
CBC_1064,CBC_1064_MSI_AV_v3_Vset3_Aset3_2024-01-28_11h09.57.594.csv,3,33,0,1,z,0,1,3,aud,B,63,1,0B,1B,0,1,z,1.5006087999991,0,1,1,1,1B,0B,B01,2.26176309847379,0.999758374037117,0.192527026555845,0.5,0.5,0.0741333119088703,0.989008504130844,0.192527026555845,0.192527026555845,0.5,0.5,0.995767679965821,0.0741333119088703,0.5,0.192527026555845,0.5,0.994167192095711,0.930269592644731,0.0697304073552695,0.989008504130844,0.0741333119088703,0.762567573937998,0.902055880208537,0.0109914958691557,0.0067591758349769,0.5,0.61494594688831,1.08282726069707,1.04895525886811,2.45748915755505,0.5,71.6970372572259
CBC_1064,CBC_1064_MSI_AV_v3_Vset3_Aset3_2024-01-28_11h09.57.594.csv,3,34,2,3,z,0,1,0,aud,D,63,1,2D,3D,0,1,b,2.65425500000129,1,0,0,0,2D,3D,D23,2.50552593699074,0.999758374037117,0.192527026555845,0.5,0.5,0.0741333119088703,0.995767679965821,0.192527026555845,0.192527026555845,0.5,0.5,0.995767679965821,0.0741333119088703,0.5,0.192527026555845,0.5,0.994167192095711,0.334634572787469,0.665365427212531,0.5,0.994167192095711,0.0854195959087496,0.298422342242037,-0.5,-0.307472973444155,0.5,0.61494594688831,1.08282726069707,1.04895525886811,2.45748915755505,0.5,71.6970372572259
CBC_1064,CBC_1064_MSI_AV_v3_Vset3_Aset3_2024-01-28_11h09.57.594.csv,3,35,1,3,b,1,0,3,aud,B,27,1,1B,3B,1,0,b,1.24216089999936,1,0,1,1,1B,3B,B13,2.81341071676004,0.999758374037117,0.192527026555845,0.5,0.5,0.0741333119088703,0.995767679965821,0.192527026555845,0.192527026555845,0.5,0.5,0.995767679965821,0.0741333119088703,0.5,0.192527026555845,0.192527026555845,0.994167192095711,0.837980405450594,0.162019594549406,0.995767679965821,0.192527026555845,0.15517308168017,0.851367341935668,0.00423232003417884,0.00260264805095247,0.5,0.61494594688831,1.08282726069707,1.04895525886811,2.45748915755505,0.5,71.6970372572259
CBC_1064,CBC_1064_MSI_AV_v3_Vset3_Aset3_2024-01-28_11h09.57.594.csv,3,36,2,3,b,1,0,1,aud,C,63,1,2C,3C,1,0,b,3.76420719999987,1,0,1,1,2C,3C,C23,2.83321334405622,0.999758374037117,0.192527026555845,0.5,0.5,0.0741333119088703,0.998370328016774,0.192527026555845,0.192527026555845,0.5,0.5,0.995767679965821,0.0741333119088703,0.5,0.192527026555845,0.192527026555845,0.994167192095711,0.930710119467248,0.069289880532752,0.995767679965821,0.0741333119088703,0.0590089548270458,0.902288541920484,0.00423232003417884,0.00260264805095247,0.5,0.61494594688831,1.08282726069707,1.04895525886811,2.45748915755505,0.5,71.6970372572259
CBC_1064,CBC_1064_MSI_AV_v3_Vset3_Aset3_2024-01-28_11h09.57.594.csv,3,37,0,2,z,0,1,1,aud,C,27,1,0C,2C,0,1,b,2.89073260000077,1,0,0,0,0C,2C,C02,3.95124371858143,0.999758374037117,0.192527026555845,0.5,0.5,0.0741333119088703,0.998370328016774,0.192527026555845,0.192527026555845,0.5,0.5,0.998370328016774,0.0741333119088703,0.5,0.192527026555845,0.192527026555845,0.994167192095711,0.333695876547285,0.666304123452715,0.5,0.998370328016774,0.0692105812956137,0.297602062372304,-0.5,-0.307472973444155,0.5,0.61494594688831,1.08282726069707,1.04895525886811,2.45748915755505,0.5,71.6970372572259
CBC_1064,CBC_1064_MSI_AV_v3_Vset3_Aset3_2024-01-28_11h09.57.594.csv,3,38,0,1,z,0,1,3,aud,B,63,1,0B,1B,0,1,b,3.47260319999987,1,0,0,0,0B,1B,B01,2.17853244432407,0.999758374037117,0.192527026555845,0.5,0.5,0.0741333119088703,0.998370328016774,0.192527026555845,0.192527026555845,0.192527026555845,0.5,0.998370328016774,0.0741333119088703,0.5,0.192527026555845,0.192527026555845,0.994167192095711,0.0691217345556141,0.930878265444386,0.0741333119088703,0.998370328016774,0.0091976421578277,0.0981344574480259,-0.0741333119088703,-0.0455879796877666,0.5,0.61494594688831,1.08282726069707,1.04895525886811,2.45748915755505,0.5,71.6970372572259
CBC_1064,CBC_1064_MSI_AV_v3_Vset3_Aset3_2024-01-28_11h09.57.594.csv,3,39,0,3,b,1,0,2,aud,A,9,1,0A,3A,1,0,b,2.40277050000077,1,0,1,1,0A,3A,A03,3.98898404656427,0.999758374037117,0.192527026555845,0.5,0.5,0.0285453322211037,0.998370328016774,0.192527026555845,0.192527026555845,0.192527026555845,0.5,0.998370328016774,0.0741333119088703,0.5,0.192527026555845,0.192527026555845,0.994167192095711,0.666612963357506,0.333387036642494,0.999758374037117,0.5,0.250361340149686,0.701733811354614,0.000241625962883352,0.000148586906538102,0.5,0.61494594688831,1.08282726069707,1.04895525886811,2.45748915755505,0.5,71.6970372572259
CBC_1064,CBC_1064_MSI_AV_v3_Vset3_Aset3_2024-01-28_11h09.57.594.csv,3,40,2,3,b,1,0,1,aud,C,63,0,2C,3C,0,1,b,2.51160849999906,1,0,1,0,2C,3C,C23,2.62103882411258,0.999906960943655,0.192527026555845,0.5,0.5,0.0285453322211037,0.998370328016774,0.192527026555845,0.192527026555845,0.192527026555845,0.5,0.998370328016774,0.0741333119088703,0.5,0.192527026555845,0.192527026555845,0.994167192095711,0.930878265444386,0.0691217345556141,0.998370328016774,0.0741333119088703,0.274102017968415,0.90191424250927,-0.998370328016774,-0.613943786707467,0.5,0.61494594688831,1.08282726069707,1.04895525886811,2.45748915755505,0.5,71.6970372572259
CBC_1064,CBC_1064_MSI_AV_v3_Vset3_Aset3_2024-01-28_11h09.57.594.csv,3,41,0,1,b,1,0,2,aud,A,63,1,0A,1A,1,0,b,1.8403402999993,1,0,1,1,0A,1A,A01,2.41591377830105,0.999906960943655,0.192527026555845,0.5,0.5,0.0285453322211037,0.998370328016774,0.192527026555845,0.192527026555845,0.192527026555845,0.5,0.384426541309307,0.0741333119088703,0.5,0.192527026555845,0.192527026555845,0.994167192095711,0.83854282201435,0.16145717798565,0.999906960943655,0.192527026555845,0.542466684732601,0.85168585768073,9.30390563452788e-05,5.72139906018422e-05,0.5,0.61494594688831,1.08282726069707,1.04895525886811,2.45748915755505,0.5,71.6970372572259
CBC_1064,CBC_1064_MSI_AV_v3_Vset3_Aset3_2024-01-28_11h09.57.594.csv,3,42,2,3,z,0,1,0,aud,D,63,1,2D,3D,0,1,z,2.77493250000043,0,1,1,1,3D,2D,D23,2.43361335540045,0.999964174934257,0.192527026555845,0.5,0.5,0.0285453322211037,0.998370328016774,0.192527026555845,0.192527026555845,0.192527026555845,0.5,0.384426541309307,0.0741333119088703,0.5,0.192527026555845,0.192527026555845,0.994167192095711,0.837761890527609,0.162238109472391,0.994167192095711,0.192527026555845,0.203831899383898,0.850072738695216,0.00583280790428875,0.00358686157972046,0.5,0.61494594688831,1.08282726069707,1.04895525886811,2.45748915755505,0.5,71.6970372572259
CBC_1064,CBC_1064_MSI_AV_v3_Vset3_Aset3_2024-01-28_11h09.57.594.csv,3,43,3,2,z,0,1,1,aud,C,63,1,3C,2C,0,1,z,1.93547560000115,0,1,1,1,2C,3C,C32,2.96183072187831,0.999964174934257,0.192527026555845,0.5,0.5,0.0285453322211037,0.998370328016774,0.192527026555845,0.192527026555845,0.192527026555845,0.5,0.384426541309307,0.0741333119088703,0.5,0.192527026555845,0.192527026555845,0.997754053675432,0.838334491367698,0.161665508632302,0.384426541309307,0.0741333119088703,0.494216076899979,0.851018570524824,0.615573458690693,0.37854440343386,0.5,0.61494594688831,1.08282726069707,1.04895525886811,2.45748915755505,0.5,71.6970372572259
CBC_1064,CBC_1064_MSI_AV_v3_Vset3_Aset3_2024-01-28_11h09.57.594.csv,3,44,3,1,b,1,0,0,aud,D,27,1,3D,1D,1,0,b,1.88339780000024,1,0,1,1,3D,1D,D31,3.38439026334577,0.999964174934257,0.192527026555845,0.5,0.5,0.0285453322211037,0.998370328016774,0.192527026555845,0.192527026555845,0.192527026555845,0.5,0.762970944743167,0.0741333119088703,0.5,0.192527026555845,0.192527026555845,0.997754053675432,0.838250788193293,0.161749211806707,0.997754053675432,0.192527026555845,0.51972870208803,0.850721381143067,0.00224594632456832,0.00138113558922198,0.5,0.61494594688831,1.08282726069707,1.04895525886811,2.45748915755505,0.5,71.6970372572259
